timestamp	voltage	current	windSpeed	pitchAngle	rpm	temperature	ambientPressure	humidity	accelerationX	accelerationY	accelerationZ	currentSink
7032070	1001	2	0	-100	0	230	101300000	1000	0	0	-1	0
7039523	998	3	0	-100	0	230	101300000	1000	0	0	-1	0
7052083	1002	0	0	-100	0	230	101300000	1000	0	0	-1	0
7064643	1003	0	0	-100	0	230	101300000	1000	0	0	-1	0
7077203	998	4	0	-100	0	230	101300000	1000	0	0	-1	0
7089763	1003	0	0	-100	0	230	101300000	1000	0	0	-1	0
7102323	998	0	0	-100	0	230	101300000	1000	0	0	-1	0
7114883	998	0	0	-100	0	230	101300000	1000	0	0	-1	0
7127443	1005	0	0	-100	0	230	101300000	1000	0	0	-1	0
7140004	998	0	0	-100	0	230	101300000	1000	0	0	-1	0
7152563	1003	0	0	-100	0	230	101300000	1000	0	0	-1	0
7165123	994	0	0	-100	0	230	101300000	1000	0	0	-1	0
7177683	1001	0	0	-100	0	230	101300000	1000	0	0	-1	0
7190243	1001	0	0	-100	0	230	101300000	1000	0	0	-1	0
7202803	998	0	0	-100	0	230	101300000	1000	0	0	-1	0
7215363	998	0	0	-100	0	230	101300000	1000	0	0	-1	0
7227923	998	0	0	-100	0	230	101300000	1000	0	0	-1	0
7240483	998	0	0	-100	0	230	101300000	1000	0	0	-1	0
7253043	996	0	0	-100	0	230	101300000	1000	0	0	-1	0
7265603	1005	0	0	-100	0	230	101300000	1000	0	0	-1	0
7278163	1001	2	0	-100	0	230	101300000	1000	0	0	-1	0
7290723	1003	0	0	-100	0	230	101300000	1000	0	0	-1	0
7303283	995	2	0	-100	0	230	101300000	1000	0	0	-1	0
7315843	995	0	0	-100	0	230	101300000	1000	0	0	-1	0
7328403	1003	0	0	-100	0	230	101300000	1000	0	0	-1	0
7340963	996	4	0	-100	0	230	101300000	1000	0	0	-1	0
7353523	1005	0	0	-100	0	230	101300000	1000	0	0	-1	0
7366083	996	5	0	-100	0	230	101300000	1000	0	0	-1	0
7378643	1005	0	0	-100	0	230	101300000	1000	0	0	-1	0
7391203	996	2	0	-100	0	230	101300000	1000	0	0	-1	0
7403763	996	0	0	-100	0	230	101300000	1000	0	0	-1	0
7416323	998	0	0	-100	0	230	101300000	1000	0	0	-1	0
7428883	998	1	0	-100	0	230	101300000	1000	0	0	-1	0
7441443	1003	0	0	-100	0	230	101300000	1000	0	0	-1	0
7454004	996	0	0	-100	0	230	101300000	1000	0	0	-1	0
7466563	995	0	0	-100	0	230	101300000	1000	0	0	-1	0
7479123	1002	0	0	-100	0	230	101300000	1000	0	0	-1	0
7491683	996	4	0	-100	0	230	101300000	1000	0	0	-1	0
7504243	1001	0	0	-100	0	230	101300000	1000	0	0	-1	0
7516803	998	0	0	-100	0	230	101300000	1000	0	0	-1	0
7529363	995	0	0	-100	0	230	101300000	1000	0	0	-1	0
7541923	998	0	0	-100	0	230	101300000	1000	0	0	-1	0
7554483	998	0	0	-100	0	230	101300000	1000	0	0	-1	0
7567043	1004	0	0	-100	0	230	101300000	1000	0	0	-1	0
7579603	998	4	0	-100	0	230	101300000	1000	0	0	-1	0
7592163	1000	0	0	-100	0	230	101300000	1000	0	0	-1	0
7604723	998	0	0	-100	0	230	101300000	1000	0	0	-1	0
7617283	995	5	0	-100	0	230	101300000	1000	0	0	-1	0
7629843	1003	0	0	-100	0	230	101300000	1000	0	0	-1	0
7642403	996	1	0	-100	0	230	101300000	1000	0	0	-1	0
7654963	998	0	0	-100	0	230	101300000	1000	0	0	-1	0
7667523	1001	0	0	-100	0	230	101300000	1000	0	0	-1	0
7680083	995	5	0	-100	0	230	101300000	1000	0	0	-1	0
7692643	1002	0	0	-100	0	230	101300000	1000	0	0	-1	0
7705203	996	4	0	-100	0	230	101300000	1000	0	0	-1	0
7717763	1000	0	0	-100	0	230	101300000	1000	0	0	-1	0
7730323	999	0	0	-100	0	230	101300000	1000	0	0	-1	0
7742883	996	0	0	-100	0	230	101300000	1000	0	0	-1	0
7755443	1003	0	0	-100	0	230	101300000	1000	0	0	-1	0
7768004	998	0	0	-100	0	230	101300000	1000	0	0	-1	0
7780563	996	0	0	-100	0	230	101300000	1000	0	0	-1	0
7793123	1005	0	0	-100	0	230	101300000	1000	0	0	-1	0
7805683	998	1	0	-100	0	230	101300000	1000	0	0	-1	0
7818243	995	0	0	-100	0	230	101300000	1000	0	0	-1	0
7830803	1003	0	0	-100	0	230	101300000	1000	0	0	-1	0
7843363	998	0	0	-100	0	230	101300000	1000	0	0	-1	0
7855923	996	4	0	-100	0	230	101300000	1000	0	0	-1	0
7868483	995	0	0	-100	0	230	101300000	1000	0	0	-1	0
7881043	1005	0	0	-100	0	230	101300000	1000	0	0	-1	0
7893603	996	0	0	-100	0	230	101300000	1000	0	0	-1	0
7906163	1001	1	0	-100	0	230	101300000	1000	0	0	-1	0
7918723	1000	0	0	-100	0	230	101300000	1000	0	0	-1	0
7931283	1005	0	0	-100	0	230	101300000	1000	0	0	-1	0
7943843	998	0	0	-100	0	230	101300000	1000	0	0	-1	0
7956403	996	4	0	-100	0	230	101300000	1000	0	0	-1	0
7968963	998	0	0	-100	0	230	101300000	1000	0	0	-1	0
7981523	1000	0	0	-100	0	230	101300000	1000	0	0	-1	0
7994083	998	4	0	-100	0	230	101300000	1000	0	0	-1	0
8006643	1000	0	0	-100	0	230	101300000	1000	0	0	-1	0
8019203	998	0	0	-100	0	230	101300000	1000	0	0	-1	0
8031763	998	0	0	-100	0	230	101300000	1000	0	0	-1	0
8044323	1003	0	0	-100	0	230	101300000	1000	0	0	-1	0
8056883	996	1	0	-100	0	230	101300000	1000	0	0	-1	0
8069443	998	4	0	-100	0	230	101300000	1000	0	0	-1	0
8082004	1003	0	0	-100	0	230	101300000	1000	0	0	-1	0
8094563	1005	0	0	-100	0	230	101300000	1000	0	0	-1	0
8107123	999	4	0	-100	0	230	101300000	1000	0	0	-1	0
8119683	1001	0	0	-100	0	230	101300000	1000	0	0	-1	0
8132243	1005	0	0	-100	0	230	101300000	1000	0	0	-1	0
8144803	998	5	0	-100	0	230	101300000	1000	0	0	-1	0
8157363	1002	0	0	-100	0	230	101300000	1000	0	0	-1	0
8169923	999	0	0	-100	0	230	101300000	1000	0	0	-1	0
8182483	1001	4	0	-100	0	230	101300000	1000	0	0	-1	0
8195043	1002	0	0	-100	0	230	101300000	1000	0	0	-1	0
8207603	996	2	0	-100	0	230	101300000	1000	0	0	-1	0
8220163	998	0	0	-100	0	230	101300000	1000	0	0	-1	0
8232723	1003	0	0	-100	0	230	101300000	1000	0	0	-1	0
8245283	998	4	0	-100	0	230	101300000	1000	0	0	-1	0
8257843	1002	0	0	-100	0	230	101300000	1000	0	0	-1	0
8270403	996	0	0	-100	0	230	101300000	1000	0	0	-1	0
8282963	998	5	0	-100	0	230	101300000	1000	0	0	-1	0
8295523	998	0	0	-100	0	230	101300000	1000	0	0	-1	0
8308083	1003	0	0	-100	0	230	101300000	1000	0	0	-1	0
8320643	994	1	0	-100	0	230	101300000	1000	0	0	-1	0
8333203	1001	4	0	-100	0	230	101300000	1000	0	0	-1	0
8345763	1002	0	0	-100	0	230	101300000	1000	0	0	-1	0
8358323	998	0	0	-100	0	230	101300000	1000	0	0	-1	0
8370883	998	7	0	-100	0	230	101300000	1000	0	0	-1	0
8383443	998	0	0	-100	0	230	101300000	1000	0	0	-1	0
8396004	996	1	0	-100	0	230	101300000	1000	0	0	-1	0
8408563	1001	0	0	-100	0	230	101300000	1000	0	0	-1	0
8421123	998	4	0	-100	0	230	101300000	1000	0	0	-1	0
8433683	998	0	0	-100	0	230	101300000	1000	0	0	-1	0
8446243	1002	0	0	-100	0	230	101300000	1000	0	0	-1	0
8458803	999	4	0	-100	0	230	101300000	1000	0	0	-1	0
8471363	1003	0	0	-100	0	230	101300000	1000	0	0	-1	0
8483923	998	0	0	-100	0	230	101300000	1000	0	0	-1	0
8496483	1001	5	0	-100	0	230	101300000	1000	0	0	-1	0
8509043	1001	0	0	-100	0	230	101300000	1000	0	0	-1	0
8521603	1005	0	0	-100	0	230	101300000	1000	0	0	-1	0
8534163	996	4	0	-100	0	230	101300000	1000	0	0	-1	0
8546723	998	0	0	-100	0	230	101300000	1000	0	0	-1	0
8559283	1002	0	0	-100	0	230	101300000	1000	0	0	-1	0
8571843	994	1	0	-100	0	230	101300000	1000	0	0	-1	0
8584403	998	4	0	-100	0	230	101300000	1000	0	0	-1	0
8596963	1000	0	0	-100	0	230	101300000	1000	0	0	-1	0
8609523	1006	0	0	-100	0	230	101300000	1000	0	0	-1	0
8622083	996	3	0	-100	0	230	101300000	1000	0	0	-1	0
8634643	996	6	0	-100	0	230	101300000	1000	0	0	-1	0
8647203	996	0	0	-100	0	230	101300000	1000	0	0	-1	0
8659763	1003	0	0	-100	0	230	101300000	1000	0	0	-1	0
8672323	998	0	0	-100	0	230	101300000	1000	0	0	-1	0
8684883	998	5	0	-100	0	230	101300000	1000	0	0	-1	0
8697443	995	0	0	-100	0	230	101300000	1000	0	0	-1	0
8710004	998	0	0	-100	0	230	101300000	1000	0	0	-1	0
8722563	998	0	0	-100	0	230	101300000	1000	0	0	-1	0
8735123	1001	5	0	-100	0	230	101300000	1000	0	0	-1	0
8747683	996	0	0	-100	0	230	101300000	1000	0	0	-1	0
8760243	1003	0	0	-100	0	230	101300000	1000	0	0	-1	0
8772803	993	2	0	-100	0	230	101300000	1000	0	0	-1	0
8785363	995	0	0	-100	0	230	101300000	1000	0	0	-1	0
8797923	1001	0	0	-100	0	230	101300000	1000	0	0	-1	0
8810483	1005	0	0	-100	0	230	101300000	1000	0	0	-1	0
8823043	996	3	0	-100	0	230	101300000	1000	0	0	-1	0
8835603	998	1	0	-100	0	230	101300000	1000	0	0	-1	0
8848163	998	0	0	-100	0	230	101300000	1000	0	0	-1	0
8860723	1003	0	0	-100	0	230	101300000	1000	0	0	-1	0
8873283	995	4	0	-100	0	230	101300000	1000	0	0	-1	0
8885843	995	0	0	-100	0	230	101300000	1000	0	0	-1	0
8898403	1005	0	0	-100	0	230	101300000	1000	0	0	-1	0
8910963	996	3	0	-100	0	230	101300000	1000	0	0	-1	0
8923523	995	0	0	-100	0	230	101300000	1000	0	0	-1	0
8936083	1003	0	0	-100	0	230	101300000	1000	0	0	-1	0
8948643	1001	0	0	-100	0	230	101300000	1000	0	0	-1	0
8961203	998	4	0	-100	0	230	101300000	1000	0	0	-1	0
8973763	1003	0	0	-100	0	230	101300000	1000	0	0	-1	0
8986323	996	0	0	-100	0	230	101300000	1000	0	0	-1	0
8998883	996	4	0	-100	0	230	101300000	1000	0	0	-1	0
9011443	996	0	0	-100	0	230	101300000	1000	0	0	-1	0
9024004	995	3	0	-100	0	230	101300000	1000	0	0	-1	0
9036563	994	1	0	-100	0	230	101300000	1000	0	0	-1	0
9049123	998	2	0	-100	0	230	101300000	1000	0	0	-1	0
9061683	1000	0	0	-100	0	230	101300000	1000	0	0	-1	0
9074243	1005	0	0	-100	0	230	101300000	1000	0	0	-1	0
9086803	998	3	0	-100	0	230	101300000	1000	0	0	-1	0
9099363	1003	0	0	-100	0	230	101300000	1000	0	0	-1	0
9111923	996	5	0	-100	0	230	101300000	1000	0	0	-1	0
9124483	1003	0	0	-100	0	230	101300000	1000	0	0	-1	0
9137043	998	5	0	-100	0	230	101300000	1000	0	0	-1	0
9149603	1003	0	0	-100	0	230	101300000	1000	0	0	-1	0
9162163	996	2	0	-100	0	230	101300000	1000	0	0	-1	0
9174723	1001	0	0	-100	0	230	101300000	1000	0	0	-1	0
9187283	998	3	0	-100	0	230	101300000	1000	0	0	-1	0
9199843	1002	0	0	-100	0	230	101300000	1000	0	0	-1	0
9212403	998	4	0	-100	0	230	101300000	1000	0	0	-1	0
9224963	1005	0	0	-100	0	230	101300000	1000	0	0	-1	0
9237523	998	5	0	-100	0	230	101300000	1000	0	0	-1	0
9250083	1003	0	0	-100	0	230	101300000	1000	0	0	-1	0
9262643	998	4	0	-100	0	230	101300000	1000	0	0	-1	0
9275203	998	0	0	-100	0	230	101300000	1000	0	0	-1	0
9287763	1000	0	0	-100	0	230	101300000	1000	0	0	-1	0
9300323	996	7	0	-100	0	230	101300000	1000	0	0	-1	0
9312883	1001	0	0	-100	0	230	101300000	1000	0	0	-1	0
9325443	1000	0	0	-100	0	230	101300000	1000	0	0	-1	0
9338004	1003	0	0	-100	0	230	101300000	1000	0	0	-1	0
9350563	1003	0	0	-100	0	230	101300000	1000	0	0	-1	0
9363123	994	3	0	-100	0	230	101300000	1000	0	0	-1	0
9375683	1001	0	0	-100	0	230	101300000	1000	0	0	-1	0
9388243	996	1	0	-100	0	230	101300000	1000	0	0	-1	0
9400803	998	0	0	-100	0	230	101300000	1000	0	0	-1	0
9413363	1003	0	0	-100	0	230	101300000	1000	0	0	-1	0
9425923	996	6	0	-100	0	230	101300000	1000	0	0	-1	0
9438483	1003	0	0	-100	0	230	101300000	1000	0	0	-1	0
9451043	996	0	0	-100	0	230	101300000	1000	0	0	-1	0
9463603	995	0	0	-100	0	230	101300000	1000	0	0	-1	0
9476163	1003	0	0	-100	0	230	101300000	1000	0	0	-1	0
9488723	996	4	0	-100	0	230	101300000	1000	0	0	-1	0
9501283	1001	0	0	-100	0	230	101300000	1000	0	0	-1	0
9513843	996	4	0	-100	0	230	101300000	1000	0	0	-1	0
9526403	1005	0	0	-100	0	230	101300000	1000	0	0	-1	0
9538963	996	4	0	-100	0	230	101300000	1000	0	0	-1	0
9551523	998	0	0	-100	0	230	101300000	1000	0	0	-1	0
9564083	996	4	0	-100	0	230	101300000	1000	0	0	-1	0
9576643	998	0	0	-100	0	230	101300000	1000	0	0	-1	0
9589203	1001	0	0	-100	0	230	101300000	1000	0	0	-1	0
9601763	998	6	0	-100	0	230	101300000	1000	0	0	-1	0
9614323	1000	0	0	-100	0	230	101300000	1000	0	0	-1	0
9626883	996	0	0	-100	0	230	101300000	1000	0	0	-1	0
9639443	998	0	0	-100	0	230	101300000	1000	0	0	-1	0
9652004	998	4	0	-100	0	230	101300000	1000	0	0	-1	0
9664563	995	2	0	-100	0	230	101300000	1000	0	0	-1	0
9677123	998	0	0	-100	0	230	101300000	1000	0	0	-1	0
9689683	1001	0	0	-100	0	230	101300000	1000	0	0	-1	0
9702243	1005	0	0	-100	0	230	101300000	1000	0	0	-1	0
9714803	996	2	0	-100	0	230	101300000	1000	0	0	-1	0
9727363	996	0	0	-100	0	230	101300000	1000	0	0	-1	0
9739923	1005	0	0	-100	0	230	101300000	1000	0	0	-1	0
9752483	996	4	0	-100	0	230	101300000	1000	0	0	-1	0
9765043	1002	0	0	-100	0	230	101300000	1000	0	0	-1	0
9777603	996	0	0	-100	0	230	101300000	1000	0	0	-1	0
9790163	996	0	0	-100	0	230	101300000	1000	0	0	-1	0
9802723	1005	0	0	-100	0	230	101300000	1000	0	0	-1	0
9815283	998	5	0	-100	0	230	101300000	1000	0	0	-1	0
9827843	1000	0	0	-100	0	230	101300000	1000	0	0	-1	0
9840403	998	0	0	-100	0	230	101300000	1000	0	0	-1	0
9852963	998	4	0	-100	0	230	101300000	1000	0	0	-1	0
9865523	998	0	0	-100	0	230	101300000	1000	0	0	-1	0
9878083	1001	0	0	-100	0	230	101300000	1000	0	0	-1	0
9890643	996	4	0	-100	0	230	101300000	1000	0	0	-1	0
9903203	1001	0	0	-100	0	230	101300000	1000	0	0	-1	0
9915763	1001	0	0	-100	0	230	101300000	1000	0	0	-1	0
9928323	996	4	0	-100	0	230	101300000	1000	0	0	-1	0
9940883	1001	0	0	-100	0	230	101300000	1000	0	0	-1	0
9953443	1003	0	0	-100	0	230	101300000	1000	0	0	-1	0
9966004	998	0	0	-100	0	230	101300000	1000	0	0	-1	0
9978563	996	0	0	-100	0	230	101300000	1000	0	0	-1	0
9991123	1003	0	0	-100	0	230	101300000	1000	0	0	-1	0
10003683	996	2	0	-100	0	230	101300000	1000	0	0	-1	0
10016243	996	0	0	-100	0	230	101300000	1000	0	0	-1	0
10028803	1002	0	0	-100	0	230	101300000	1000	0	0	-1	0
10041363	998	0	0	-100	0	230	101300000	1000	0	0	-1	0
10053923	996	6	0	-100	0	230	101300000	1000	0	0	-1	0
10066483	1003	0	0	-100	0	230	101300000	1000	0	0	-1	0
10079043	996	4	0	-100	0	230	101300000	1000	0	0	-1	0
10091603	1001	0	0	-100	0	230	101300000	1000	0	0	-1	0
10104163	999	0	0	-100	0	230	101300000	1000	0	0	-1	0
10116723	995	4	0	-100	0	230	101300000	1000	0	0	-1	0
10129283	996	0	0	-100	0	230	101300000	1000	0	0	-1	0
10141843	1003	0	0	-100	0	230	101300000	1000	0	0	-1	0
10154403	996	2	0	-100	0	230	101300000	1000	0	0	-1	0
10166963	995	0	0	-100	0	230	101300000	1000	0	0	-1	0
10179523	1005	0	0	-100	0	230	101300000	1000	0	0	-1	0
10192083	994	1	0	-100	0	230	101300000	1000	0	0	-1	0
10204643	998	1	0	-100	0	230	101300000	1000	0	0	-1	0
10217203	1001	0	0	-100	0	230	101300000	1000	0	0	-1	0
10229763	998	0	0	-100	0	230	101300000	1000	0	0	-1	0
10242323	998	0	0	-100	0	230	101300000	1000	0	0	-1	0
10254883	1002	0	0	-100	0	230	101300000	1000	0	0	-1	0
10267443	995	2	0	-100	0	230	101300000	1000	0	0	-1	0
10280004	1003	0	0	-100	0	230	101300000	1000	0	0	-1	0
10292563	1000	0	0	-100	0	230	101300000	1000	0	0	-1	0
10305123	996	2	0	-100	0	230	101300000	1000	0	0	-1	0
10317683	998	0	0	-100	0	230	101300000	1000	0	0	-1	0
10330243	1001	0	0	-100	0	230	101300000	1000	0	0	-1	0
10342803	998	0	0	-100	0	230	101300000	1000	0	0	-1	0
10355363	998	0	0	-100	0	230	101300000	1000	0	0	-1	0
10367923	1003	0	0	-100	0	230	101300000	1000	0	0	-1	0
10380483	996	2	0	-100	0	230	101300000	1000	0	0	-1	0
10393043	996	0	0	-100	0	230	101300000	1000	0	0	-1	0
10405603	1005	0	0	-100	0	230	101300000	1000	0	0	-1	0
10418163	996	4	0	-100	0	230	101300000	1000	0	0	-1	0
10430723	998	0	0	-100	0	230	101300000	1000	0	0	-1	0
10443283	1005	0	0	-100	0	230	101300000	1000	0	0	-1	0
10455843	996	4	0	-100	0	230	101300000	1000	0	0	-1	0
10468403	998	0	0	-100	0	230	101300000	1000	0	0	-1	0
10480963	1001	0	0	-100	0	230	101300000	1000	0	0	-1	0
10493523	994	1	0	-100	0	230	101300000	1000	0	0	-1	0
10506083	995	0	0	-100	0	230	101300000	1000	0	0	-1	0
10518643	1003	0	0	-100	0	230	101300000	1000	0	0	-1	0
10531203	999	0	0	-100	0	230	101300000	1000	0	0	-1	0
10543763	999	4	0	-100	0	230	101300000	1000	0	0	-1	0
10556323	1001	0	0	-100	0	230	101300000	1000	0	0	-1	0
10568883	998	0	0	-100	0	230	101300000	1000	0	0	-1	0
10581443	998	0	0	-100	0	230	101300000	1000	0	0	-1	0
10594004	995	4	0	-100	0	230	101300000	1000	0	0	-1	0
10606563	996	3	0	-100	0	230	101300000	1000	0	0	-1	0
10619123	1001	0	0	-100	0	230	101300000	1000	0	0	-1	0
10631683	999	0	0	-100	0	230	101300000	1000	0	0	-1	0
10644243	995	0	0	-100	0	230	101300000	1000	0	0	-1	0
10656803	1001	0	0	-100	0	230	101300000	1000	0	0	-1	0
10669363	996	3	0	-100	0	230	101300000	1000	0	0	-1	0
10681923	1000	0	0	-100	0	230	101300000	1000	0	0	-1	0
10694483	998	0	0	-100	0	230	101300000	1000	0	0	-1	0
10707043	1000	2	0	-100	0	230	101300000	1000	0	0	-1	0
10719603	1003	0	0	-100	0	230	101300000	1000	0	0	-1	0
10732163	996	3	0	-100	0	230	101300000	1000	0	0	-1	0
10744723	998	0	0	-100	0	230	101300000	1000	0	0	-1	0
10757283	1003	0	0	-100	0	230	101300000	1000	0	0	-1	0
10769843	995	6	0	-100	0	230	101300000	1000	0	0	-1	0
10782403	996	0	0	-100	0	230	101300000	1000	0	0	-1	0
10794963	1003	0	0	-100	0	230	101300000	1000	0	0	-1	0
10807523	996	4	0	-100	0	230	101300000	1000	0	0	-1	0
10820083	1001	0	0	-100	0	230	101300000	1000	0	0	-1	0
10832643	1005	0	0	-100	0	230	101300000	1000	0	0	-1	0
10845203	996	0	0	-100	0	230	101300000	1000	0	0	-1	0
10857763	996	4	0	-100	0	230	101300000	1000	0	0	-1	0
10870323	998	0	0	-100	0	230	101300000	1000	0	0	-1	0
10882883	1005	0	0	-100	0	230	101300000	1000	0	0	-1	0
10895443	996	4	0	-100	0	230	101300000	1000	0	0	-1	0
10908004	1005	0	0	-100	0	230	101300000	1000	0	0	-1	0
10920563	1003	0	0	-100	0	230	101300000	1000	0	0	-1	0
10933123	998	0	0	-100	0	230	101300000	1000	0	0	-1	0
10945683	996	3	0	-100	0	230	101300000	1000	0	0	-1	0
10958243	996	0	0	-100	0	230	101300000	1000	0	0	-1	0
10970803	1005	0	0	-100	0	230	101300000	1000	0	0	-1	0
10983363	996	0	0	-100	0	230	101300000	1000	0	0	-1	0
10995923	998	5	0	-100	0	230	101300000	1000	0	0	-1	0
11008483	1001	0	0	-100	0	230	101300000	1000	0	0	-1	0
11021043	1003	0	0	-100	0	230	101300000	1000	0	0	-1	0
11033603	994	2	0	-100	0	230	101300000	1000	0	0	-1	0
11046163	998	3	0	-100	0	230	101300000	1000	0	0	-1	0
11058723	1001	0	0	-100	0	230	101300000	1000	0	0	-1	0
11071283	998	0	0	-100	0	230	101300000	1000	0	0	-1	0
11083843	995	0	0	-100	0	230	101300000	1000	0	0	-1	0
11096403	1001	0	0	-100	0	230	101300000	1000	0	0	-1	0
11108963	996	3	0	-100	0	230	101300000	1000	0	0	-1	0
11121523	1000	0	0	-100	0	230	101300000	1000	0	0	-1	0
11134083	996	2	0	-100	0	230	101300000	1000	0	0	-1	0
11146643	1001	0	0	-100	0	230	101300000	1000	0	0	-1	0
11159203	999	0	0	-100	0	230	101300000	1000	0	0	-1	0
11171763	998	3	0	-100	0	230	101300000	1000	0	0	-1	0
11184323	1003	0	0	-100	0	230	101300000	1000	0	0	-1	0
11196883	999	0	0	-100	0	230	101300000	1000	0	0	-1	0
11209443	996	4	0	-100	0	230	101300000	1000	0	0	-1	0
11222004	995	2	0	-100	0	230	101300000	1000	0	0	-1	0
11234563	996	3	0	-100	0	230	101300000	1000	0	0	-1	0
11247123	998	0	0	-100	0	230	101300000	1000	0	0	-1	0
11259683	1001	0	0	-100	0	230	101300000	1000	0	0	-1	0
11272243	998	6	0	-100	0	230	101300000	1000	0	0	-1	0
11284803	1003	0	0	-100	0	230	101300000	1000	0	0	-1	0
11297363	1002	0	0	-100	0	230	101300000	1000	0	0	-1	0
11309923	996	0	0	-100	0	230	101300000	1000	0	0	-1	0
11322483	995	0	0	-100	0	230	101300000	1000	0	0	-1	0
11335043	1003	0	0	-100	0	230	101300000	1000	0	0	-1	0
11347603	994	2	0	-100	0	230	101300000	1000	0	0	-1	0
11360163	996	0	0	-100	0	230	101300000	1000	0	0	-1	0
11372723	1002	0	0	-100	0	230	101300000	1000	0	0	-1	0
11385283	1001	0	0	-100	0	230	101300000	1000	0	0	-1	0
11397843	996	4	0	-100	0	230	101300000	1000	0	0	-1	0
11410403	996	0	0	-100	0	230	101300000	1000	0	0	-1	0
11422963	1005	0	0	-100	0	230	101300000	1000	0	0	-1	0
11435523	996	1	0	-100	0	230	101300000	1000	0	0	-1	0
11448083	995	0	0	-100	0	230	101300000	1000	0	0	-1	0
11460643	1001	0	0	-100	0	230	101300000	1000	0	0	-1	0
11473203	1001	0	0	-100	0	230	101300000	1000	0	0	-1	0
11485763	996	0	0	-100	0	230	101300000	1000	0	0	-1	0
11498323	996	3	0	-100	0	230	101300000	1000	0	0	-1	0
11510883	996	0	0	-100	0	230	101300000	1000	0	0	-1	0
11523443	1002	0	0	-100	0	230	101300000	1000	0	0	-1	0
11536004	998	3	0	-100	0	230	101300000	1000	0	0	-1	0
11548563	996	3	0	-100	0	230	101300000	1000	0	0	-1	0
11561123	996	0	0	-100	0	230	101300000	1000	0	0	-1	0
11573683	1003	0	0	-100	0	230	101300000	1000	0	0	-1	0
11586243	1001	0	0	-100	0	230	101300000	1000	0	0	-1	0
11598803	996	4	0	-100	0	230	101300000	1000	0	0	-1	0
11611363	995	0	0	-100	0	230	101300000	1000	0	0	-1	0
11623923	1003	0	0	-100	0	230	101300000	1000	0	0	-1	0
11636483	998	0	0	-100	0	230	101300000	1000	0	0	-1	0
11649043	998	5	0	-100	0	230	101300000	1000	0	0	-1	0
11661603	998	0	0	-100	0	230	101300000	1000	0	0	-1	0
11674163	1001	0	0	-100	0	230	101300000	1000	0	0	-1	0
11686723	996	2	0	-100	0	230	101300000	1000	0	0	-1	0
11699283	995	0	0	-100	0	230	101300000	1000	0	0	-1	0
11711843	1002	0	0	-100	0	230	101300000	1000	0	0	-1	0
11724403	1002	0	0	-100	0	230	101300000	1000	0	0	-1	0
11736963	996	0	0	-100	0	230	101300000	1000	0	0	-1	0
11749523	996	3	0	-100	0	230	101300000	1000	0	0	-1	0
11762083	1000	4	0	-100	0	230	101300000	1000	0	0	-1	0
11774643	996	0	0	-100	0	230	101300000	1000	0	0	-1	0
11787203	1003	0	0	-100	0	230	101300000	1000	0	0	-1	0
11799763	1003	0	0	-100	0	230	101300000	1000	0	0	-1	0
11812323	995	3	0	-100	0	230	101300000	1000	0	0	-1	0
11824883	994	0	0	-100	0	230	101300000	1000	0	0	-1	0
11837443	1003	0	0	-100	0	230	101300000	1000	0	0	-1	0
11850004	996	4	0	-100	0	230	101300000	1000	0	0	-1	0
11862563	996	0	0	-100	0	230	101300000	1000	0	0	-1	0
11875123	998	4	0	-100	0	230	101300000	1000	0	0	-1	0
11887683	998	0	0	-100	0	230	101300000	1000	0	0	-1	0
11900243	1000	0	0	-100	0	230	101300000	1000	0	0	-1	0
11912803	1003	0	0	-100	0	230	101300000	1000	0	0	-1	0
11925363	1002	0	0	-100	0	230	101300000	1000	0	0	-1	0
11937923	1003	0	0	-100	0	230	101300000	1000	0	0	-1	0
11950483	994	1	0	-100	0	230	101300000	1000	0	0	-1	0
11963043	996	4	0	-100	0	230	101300000	1000	0	0	-1	0
11975603	996	0	0	-100	0	230	101300000	1000	0	0	-1	0
11988163	1001	0	0	-100	0	230	101300000	1000	0	0	-1	0
12000723	1003	0	0	-100	0	230	101300000	1000	0	0	-1	0
12013283	995	5	0	-100	0	230	101300000	1000	0	0	-1	0
12025843	996	0	0	-100	0	230	101300000	1000	0	0	-1	0
12038403	1003	0	0	-100	0	230	101300000	1000	0	0	-1	0
12050963	993	3	0	-100	0	230	101300000	1000	0	0	-1	0
12063523	996	4	0	-100	0	230	101300000	1000	0	0	-1	0
12076083	1000	0	0	-100	0	230	101300000	1000	0	0	-1	0
12088643	1005	0	0	-100	0	230	101300000	1000	0	0	-1	0
12101203	995	5	0	-100	0	230	101300000	1000	0	0	-1	0
12113763	1000	0	0	-100	0	230	101300000	1000	0	0	-1	0
12126323	1001	0	0	-100	0	230	101300000	1000	0	0	-1	0
12138883	1001	4	0	-100	0	230	101300000	1000	0	0	-1	0
12151443	1005	0	0	-100	0	230	101300000	1000	0	0	-1	0
12164004	999	0	0	-100	0	230	101300000	1000	0	0	-1	0
12176563	998	0	0	-100	0	230	101300000	1000	0	0	-1	0
12189123	996	2	0	-100	0	230	101300000	1000	0	0	-1	0
12201683	1000	0	0	-100	0	230	101300000	1000	0	0	-1	0
12214243	996	0	0	-100	0	230	101300000	1000	0	0	-1	0
12226803	1000	0	0	-100	0	230	101300000	1000	0	0	-1	0
12239363	1001	0	0	-100	0	230	101300000	1000	0	0	-1	0
12251923	998	0	0	-100	0	230	101300000	1000	0	0	-1	0
12264483	1005	0	0	-100	0	230	101300000	1000	0	0	-1	0
12277043	996	4	0	-100	0	230	101300000	1000	0	0	-1	0
12289603	1000	0	0	-100	0	230	101300000	1000	0	0	-1	0
12302163	998	1	0	-100	0	230	101300000	1000	0	0	-1	0
12314723	995	0	0	-100	0	230	101300000	1000	0	0	-1	0
12327283	1005	0	0	-100	0	230	101300000	1000	0	0	-1	0
12339843	996	3	0	-100	0	230	101300000	1000	0	0	-1	0
12352403	993	0	0	-100	0	230	101300000	1000	0	0	-1	0
12364963	1003	0	0	-100	0	230	101300000	1000	0	0	-1	0
12377523	996	2	0	-100	0	230	101300000	1000	0	0	-1	0
12390083	998	0	0	-100	0	230	101300000	1000	0	0	-1	0
12402643	1000	0	0	-100	0	230	101300000	1000	0	0	-1	0
12415203	1005	0	0	-100	0	230	101300000	1000	0	0	-1	0
12427763	996	4	0	-100	0	230	101300000	1000	0	0	-1	0
12440323	995	0	0	-100	0	230	101300000	1000	0	0	-1	0
12452883	1003	0	0	-100	0	230	101300000	1000	0	0	-1	0
12465443	1003	0	0	-100	0	230	101300000	1000	0	0	-1	0
12478004	998	0	0	-100	0	230	101300000	1000	0	0	-1	0
12490563	998	1	0	-100	0	230	101300000	1000	0	0	-1	0
12503123	1005	0	0	-100	0	230	101300000	1000	0	0	-1	0
12515683	996	1	0	-100	0	230	101300000	1000	0	0	-1	0
12528243	995	0	0	-100	0	230	101300000	1000	0	0	-1	0
12540803	1005	0	0	-100	0	230	101300000	1000	0	0	-1	0
12553363	996	3	0	-100	0	230	101300000	1000	0	0	-1	0
12565923	993	0	0	-100	0	230	101300000	1000	0	0	-1	0
12578483	1001	0	0	-100	0	230	101300000	1000	0	0	-1	0
12591043	1001	0	0	-100	0	230	101300000	1000	0	0	-1	0
12603603	996	4	0	-100	0	230	101300000	1000	0	0	-1	0
12616163	999	0	0	-100	0	230	101300000	1000	0	0	-1	0
12628723	1003	0	0	-100	0	230	101300000	1000	0	0	-1	0
12641283	999	0	0	-100	0	230	101300000	1000	0	0	-1	0
12653843	996	4	0	-100	0	230	101300000	1000	0	0	-1	0
12666403	996	0	0	-100	0	230	101300000	1000	0	0	-1	0
12678963	1003	0	0	-100	0	230	101300000	1000	0	0	-1	0
12691523	1003	0	0	-100	0	230	101300000	1000	0	0	-1	0
12704083	996	2	0	-100	0	230	101300000	1000	0	0	-1	0
12716643	996	3	0	-100	0	230	101300000	1000	0	0	-1	0
12729203	998	2	0	-100	0	230	101300000	1000	0	0	-1	0
12741763	996	0	0	-100	0	230	101300000	1000	0	0	-1	0
12754323	1001	0	0	-100	0	230	101300000	1000	0	0	-1	0
12766883	1005	0	0	-100	0	230	101300000	1000	0	0	-1	0
12779443	995	2	0	-100	0	230	101300000	1000	0	0	-1	0
12792004	1003	0	0	-100	0	230	101300000	1000	0	0	-1	0
12804563	998	0	0	-100	0	230	101300000	1000	0	0	-1	0
12817123	1002	0	0	-100	0	230	101300000	1000	0	0	-1	0
12829683	1003	0	0	-100	0	230	101300000	1000	0	0	-1	0
12842243	1003	0	0	-100	0	230	101300000	1000	0	0	-1	0
12854803	998	0	0	-100	0	230	101300000	1000	0	0	-1	0
12867363	995	3	0	-100	0	230	101300000	1000	0	0	-1	0
12879923	996	4	0	-100	0	230	101300000	1000	0	0	-1	0
12892483	998	0	0	-100	0	230	101300000	1000	0	0	-1	0
12905043	1000	0	0	-100	0	230	101300000	1000	0	0	-1	0
12917603	1003	0	0	-100	0	230	101300000	1000	0	0	-1	0
12930163	1005	0	0	-100	0	230	101300000	1000	0	0	-1	0
12942723	1001	0	0	-100	0	230	101300000	1000	0	0	-1	0
12955283	996	0	0	-100	0	230	101300000	1000	0	0	-1	0
12967843	998	0	0	-100	0	230	101300000	1000	0	0	-1	0
12980403	998	2	0	-100	0	230	101300000	1000	0	0	-1	0
12992963	998	0	0	-100	0	230	101300000	1000	0	0	-1	0
13005523	998	0	0	-100	0	230	101300000	1000	0	0	-1	0
13018083	996	1	0	-100	0	230	101300000	1000	0	0	-1	0
13030643	996	2	0	-100	0	230	101300000	1000	0	0	-1	0
13043203	996	4	0	-100	0	230	101300000	1000	0	0	-1	0
13055763	998	5	0	-100	0	230	101300000	1000	0	0	-1	0
13068323	998	0	0	-100	0	230	101300000	1000	0	0	-1	0
13080883	996	0	0	-100	0	230	101300000	1000	0	0	-1	0
13093443	995	0	0	-100	0	230	101300000	1000	0	0	-1	0
13106004	1003	0	0	-100	0	230	101300000	1000	0	0	-1	0
13118563	998	0	0	-100	0	230	101300000	1000	0	0	-1	0
13131123	1000	0	0	-100	0	230	101300000	1000	0	0	-1	0
13143683	1000	0	0	-100	0	230	101300000	1000	0	0	-1	0
13156243	1001	0	0	-100	0	230	101300000	1000	0	0	-1	0
13168803	1003	0	0	-100	0	230	101300000	1000	0	0	-1	0
13181363	1002	0	0	-100	0	230	101300000	1000	0	0	-1	0
13193923	996	0	0	-100	0	230	101300000	1000	0	0	-1	0
13206483	996	4	0	-100	0	230	101300000	1000	0	0	-1	0
13219043	998	0	0	-100	0	230	101300000	1000	0	0	-1	0
13231603	1001	0	0	-100	0	230	101300000	1000	0	0	-1	0
13244163	1004	0	0	-100	0	230	101300000	1000	0	0	-1	0
13256723	1003	0	0	-100	0	230	101300000	1000	0	0	-1	0
13269283	996	2	0	-100	0	230	101300000	1000	0	0	-1	0
13281843	998	3	0	-100	0	230	101300000	1000	0	0	-1	0
13294403	998	0	0	-100	0	230	101300000	1000	0	0	-1	0
13306963	1003	0	0	-100	0	230	101300000	1000	0	0	-1	0
13319523	998	0	0	-100	0	230	101300000	1000	0	0	-1	0
13332083	996	2	0	-100	0	230	101300000	1000	0	0	-1	0
13344643	996	4	0	-100	0	230	101300000	1000	0	0	-1	0
13357203	996	0	0	-100	0	230	101300000	1000	0	0	-1	0
13369763	998	0	0	-100	0	230	101300000	1000	0	0	-1	0
13382323	1002	0	0	-100	0	230	101300000	1000	0	0	-1	0
13394883	998	0	0	-100	0	230	101300000	1000	0	0	-1	0
13407443	996	4	0	-100	0	230	101300000	1000	0	0	-1	0
13420004	1003	0	0	-100	0	230	101300000	1000	0	0	-1	0
13432563	1002	0	0	-100	0	230	101300000	1000	0	0	-1	0
13445123	1003	0	0	-100	0	230	101300000	1000	0	0	-1	0
13457683	996	2	0	-100	0	230	101300000	1000	0	0	-1	0
13470243	996	4	0	-100	0	230	101300000	1000	0	0	-1	0
13482803	998	0	0	-100	0	230	101300000	1000	0	0	-1	0
13495363	998	0	0	-100	0	230	101300000	1000	0	0	-1	0
13507923	1001	0	0	-100	0	230	101300000	1000	0	0	-1	0
13520483	1001	0	0	-100	0	230	101300000	1000	0	0	-1	0
13533043	1001	0	0	-100	0	230	101300000	1000	0	0	-1	0
13545603	1002	0	0	-100	0	230	101300000	1000	0	0	-1	0
13558163	1001	0	0	-100	0	230	101300000	1000	0	0	-1	0
13570723	1003	0	0	-100	0	230	101300000	1000	0	0	-1	0
13583283	1003	0	0	-100	0	230	101300000	1000	0	0	-1	0
13595843	1003	0	0	-100	0	230	101300000	1000	0	0	-1	0
13608403	1003	0	0	-100	0	230	101300000	1000	0	0	-1	0
13620963	998	0	0	-100	0	230	101300000	1000	0	0	-1	0
13633523	996	0	0	-100	0	230	101300000	1000	0	0	-1	0
13646083	996	2	0	-100	0	230	101300000	1000	0	0	-1	0
13658643	996	4	0	-100	0	230	101300000	1000	0	0	-1	0
13671203	998	4	0	-100	0	230	101300000	1000	0	0	-1	0
13683763	996	0	0	-100	0	230	101300000	1000	0	0	-1	0
13696323	996	0	0	-100	0	230	101300000	1000	0	0	-1	0
13708883	1000	0	0	-100	0	230	101300000	1000	0	0	-1	0
13721443	1005	0	0	-100	0	230	101300000	1000	0	0	-1	0
13734004	995	4	0	-100	0	230	101300000	1000	0	0	-1	0
13746563	1001	0	0	-100	0	230	101300000	1000	0	0	-1	0
13759123	996	4	0	-100	0	230	101300000	1000	0	0	-1	0
13771683	998	5	0	-100	0	230	101300000	1000	0	0	-1	0
13784243	993	0	0	-100	0	230	101300000	1000	0	0	-1	0
13796803	998	0	0	-100	0	230	101300000	1000	0	0	-1	0
13809363	1005	0	0	-100	0	230	101300000	1000	0	0	-1	0
13821923	1005	0	0	-100	0	230	101300000	1000	0	0	-1	0
13834483	998	0	0	-100	0	230	101300000	1000	0	0	-1	0
13847043	996	2	0	-100	0	230	101300000	1000	0	0	-1	0
13859603	996	4	0	-100	0	230	101300000	1000	0	0	-1	0
13872163	996	0	0	-100	0	230	101300000	1000	0	0	-1	0
13884723	1003	0	0	-100	0	230	101300000	1000	0	0	-1	0
13897283	998	0	0	-100	0	230	101300000	1000	0	0	-1	0
13909843	998	4	0	-100	0	230	101300000	1000	0	0	-1	0
13922403	1000	0	0	-100	0	230	101300000	1000	0	0	-1	0
13934963	1000	0	0	-100	0	230	101300000	1000	0	0	-1	0
13947523	996	0	0	-100	0	230	101300000	1000	0	0	-1	0
13960083	998	5	0	-100	0	230	101300000	1000	0	0	-1	0
13972643	995	0	0	-100	0	230	101300000	1000	0	0	-1	0
13985203	1001	0	0	-100	0	230	101300000	1000	0	0	-1	0
13997763	1001	0	0	-100	0	230	101300000	1000	0	0	-1	0
14010323	1001	0	0	-100	0	230	101300000	1000	0	0	-1	0
14022883	994	2	0	-100	0	230	101300000	1000	0	0	-1	0
14035443	998	0	0	-100	0	230	101300000	1000	0	0	-1	0
14048004	1005	0	0	-100	0	230	101300000	1000	0	0	-1	0
14060563	1003	0	0	-100	0	230	101300000	1000	0	0	-1	0
14073123	1008	0	0	-100	0	230	101300000	1000	0	0	-1	0
14085683	996	2	0	-100	0	230	101300000	1000	0	0	-1	0
14098243	998	3	0	-100	0	230	101300000	1000	0	0	-1	0
14110803	993	0	0	-100	0	230	101300000	1000	0	0	-1	0
14123363	1003	0	0	-100	0	230	101300000	1000	0	0	-1	0
14135923	1003	0	0	-100	0	230	101300000	1000	0	0	-1	0
14148483	994	1	0	-100	0	230	101300000	1000	0	0	-1	0
14161043	996	4	0	-100	0	230	101300000	1000	0	0	-1	0
14173603	996	0	0	-100	0	230	101300000	1000	0	0	-1	0
14186163	1000	0	0	-100	0	230	101300000	1000	0	0	-1	0
14198723	1001	0	0	-100	0	230	101300000	1000	0	0	-1	0
14211283	998	0	0	-100	0	230	101300000	1000	0	0	-1	0
14223843	993	2	0	-100	0	230	101300000	1000	0	0	-1	0
14236403	998	6	0	-100	0	230	101300000	1000	0	0	-1	0
14248963	998	0	0	-100	0	230	101300000	1000	0	0	-1	0
14261523	1002	0	0	-100	0	230	101300000	1000	0	0	-1	0
14274083	999	0	0	-100	0	230	101300000	1000	0	0	-1	0
14286643	996	3	0	-100	0	230	101300000	1000	0	0	-1	0
14299203	996	0	0	-100	0	230	101300000	1000	0	0	-1	0
14311763	1002	0	0	-100	0	230	101300000	1000	0	0	-1	0
14324323	1003	0	0	-100	0	230	101300000	1000	0	0	-1	0
14336883	998	0	0	-100	0	230	101300000	1000	0	0	-1	0
14349443	994	1	0	-100	0	230	101300000	1000	0	0	-1	0
14362004	998	0	0	-100	0	230	101300000	1000	0	0	-1	0
14374563	998	0	0	-100	0	230	101300000	1000	0	0	-1	0
14387123	998	0	0	-100	0	230	101300000	1000	0	0	-1	0
14399683	1003	0	0	-100	0	230	101300000	1000	0	0	-1	0
14412243	1003	0	0	-100	0	230	101300000	1000	0	0	-1	0
14424803	1001	0	0	-100	0	230	101300000	1000	0	0	-1	0
14437363	1001	0	0	-100	0	230	101300000	1000	0	0	-1	0
14449923	1002	0	0	-100	0	230	101300000	1000	0	0	-1	0
14462483	1001	0	0	-100	0	230	101300000	1000	0	0	-1	0
14475043	1003	0	0	-100	0	230	101300000	1000	0	0	-1	0
14487603	1001	0	0	-100	0	230	101300000	1000	0	0	-1	0
14500163	994	0	0	-100	0	230	101300000	1000	0	0	-1	0
14512723	996	4	0	-100	0	230	101300000	1000	0	0	-1	0
14525283	998	1	0	-100	0	230	101300000	1000	0	0	-1	0
14537843	996	0	0	-100	0	230	101300000	1000	0	0	-1	0
14550403	1000	0	0	-100	0	230	101300000	1000	0	0	-1	0
14562963	1005	0	0	-100	0	230	101300000	1000	0	0	-1	0
14575523	996	0	0	-100	0	230	101300000	1000	0	0	-1	0
14588083	998	5	0	-100	0	230	101300000	1000	0	0	-1	0
14600643	995	0	0	-100	0	230	101300000	1000	0	0	-1	0
14613203	1001	0	0	-100	0	230	101300000	1000	0	0	-1	0
14625763	1003	0	0	-100	0	230	101300000	1000	0	0	-1	0
14638323	1004	0	0	-100	0	230	101300000	1000	0	0	-1	0
14650883	996	1	0	-100	0	230	101300000	1000	0	0	-1	0
14663443	995	5	0	-100	0	230	101300000	1000	0	0	-1	0
14676004	1002	0	0	-100	0	230	101300000	1000	0	0	-1	0
14688563	1003	0	0	-100	0	230	101300000	1000	0	0	-1	0
14701123	1003	0	0	-100	0	230	101300000	1000	0	0	-1	0
14713683	995	4	0	-100	0	230	101300000	1000	0	0	-1	0
14726243	996	4	0	-100	0	230	101300000	1000	0	0	-1	0
14738803	995	0	0	-100	0	230	101300000	1000	0	0	-1	0
14751363	1003	0	0	-100	0	230	101300000	1000	0	0	-1	0
14763923	1003	0	0	-100	0	230	101300000	1000	0	0	-1	0
14776483	998	2	0	-100	0	230	101300000	1000	0	0	-1	0
14789043	998	5	0	-100	0	230	101300000	1000	0	0	-1	0
14801603	996	0	0	-100	0	230	101300000	1000	0	0	-1	0
14814163	1001	0	0	-100	0	230	101300000	1000	0	0	-1	0
14826723	998	3	0	-100	0	230	101300000	1000	0	0	-1	0
14839283	995	0	0	-100	0	230	101300000	1000	0	0	-1	0
14851843	1003	0	0	-100	0	230	101300000	1000	0	0	-1	0
14864403	998	0	0	-100	0	230	101300000	1000	0	0	-1	0
14876963	994	4	0	-100	0	230	101300000	1000	0	0	-1	0
14889523	996	0	0	-100	0	230	101300000	1000	0	0	-1	0
14902083	1003	0	0	-100	0	230	101300000	1000	0	0	-1	0
14914643	1003	0	0	-100	0	230	101300000	1000	0	0	-1	0
14927203	996	0	0	-100	0	230	101300000	1000	0	0	-1	0
14939763	996	2	0	-100	0	230	101300000	1000	0	0	-1	0
14952323	996	3	0	-100	0	230	101300000	1000	0	0	-1	0
14964883	995	4	0	-100	0	230	101300000	1000	0	0	-1	0
14977443	999	4	0	-100	0	230	101300000	1000	0	0	-1	0
14990004	1005	0	0	-100	0	230	101300000	1000	0	0	-1	0
15002563	998	0	0	-100	0	230	101300000	1000	0	0	-1	0
15015123	1003	0	0	-100	0	230	101300000	1000	0	0	-1	0
15027683	1003	0	0	-100	0	230	101300000	1000	0	0	-1	0
15040243	996	2	0	-100	0	230	101300000	1000	0	0	-1	0
15052803	998	3	0	-100	0	230	101300000	1000	0	0	-1	0
15065363	996	0	0	-100	0	230	101300000	1000	0	0	-1	0
15077923	1003	0	0	-100	0	230	101300000	1000	0	0	-1	0
15090483	996	0	0	-100	0	230	101300000	1000	0	0	-1	0
15103043	996	4	0	-100	0	230	101300000	1000	0	0	-1	0
15115603	996	0	0	-100	0	230	101300000	1000	0	0	-1	0
15128163	1003	0	0	-100	0	230	101300000	1000	0	0	-1	0
15140723	996	3	0	-100	0	230	101300000	1000	0	0	-1	0
15153283	998	1	0	-100	0	230	101300000	1000	0	0	-1	0
15165843	1001	0	0	-100	0	230	101300000	1000	0	0	-1	0
15178403	1003	0	0	-100	0	230	101300000	1000	0	0	-1	0
15190963	996	4	0	-100	0	230	101300000	1000	0	0	-1	0
15203523	996	0	0	-100	0	230	101300000	1000	0	0	-1	0
15216083	1000	0	0	-100	0	230	101300000	1000	0	0	-1	0
15228643	1003	0	0	-100	0	230	101300000	1000	0	0	-1	0
15241203	998	4	0	-100	0	230	101300000	1000	0	0	-1	0
15253763	998	1	0	-100	0	230	101300000	1000	0	0	-1	0
15266323	998	0	0	-100	0	230	101300000	1000	0	0	-1	0
15278883	1005	0	0	-100	0	230	101300000	1000	0	0	-1	0
15291443	999	1	0	-100	0	230	101300000	1000	0	0	-1	0
15304004	1000	0	0	-100	0	230	101300000	1000	0	0	-1	0
15316563	996	0	0	-100	0	230	101300000	1000	0	0	-1	0
15329123	1002	0	0	-100	0	230	101300000	1000	0	0	-1	0
15341683	1005	0	0	-100	0	230	101300000	1000	0	0	-1	0
15354243	998	0	0	-100	0	230	101300000	1000	0	0	-1	0
15366803	996	1	0	-100	0	230	101300000	1000	0	0	-1	0
15379363	996	4	0	-100	0	230	101300000	1000	0	0	-1	0
15391923	995	0	0	-100	0	230	101300000	1000	0	0	-1	0
15404483	1001	0	0	-100	0	230	101300000	1000	0	0	-1	0
15417043	1004	0	0	-100	0	230	101300000	1000	0	0	-1	0
15429603	995	3	0	-100	0	230	101300000	1000	0	0	-1	0
15442163	996	4	0	-100	0	230	101300000	1000	0	0	-1	0
15454723	996	4	0	-100	0	230	101300000	1000	0	0	-1	0
15467283	998	0	0	-100	0	230	101300000	1000	0	0	-1	0
15479843	995	0	0	-100	0	230	101300000	1000	0	0	-1	0
15492403	1003	0	0	-100	0	230	101300000	1000	0	0	-1	0
15504963	1006	0	0	-100	0	230	101300000	1000	0	0	-1	0
15517523	996	1	0	-100	0	230	101300000	1000	0	0	-1	0
15530083	996	2	0	-100	0	230	101300000	1000	0	0	-1	0
15542643	996	4	0	-100	0	230	101300000	1000	0	0	-1	0
15555203	998	4	0	-100	0	230	101300000	1000	0	0	-1	0
15567763	998	3	0	-100	0	230	101300000	1000	0	0	-1	0
15580323	995	0	0	-100	0	230	101300000	1000	0	0	-1	0
15592883	998	0	0	-100	0	230	101300000	1000	0	0	-1	0
15605443	1001	0	0	-100	0	230	101300000	1000	0	0	-1	0
15618004	993	1	0	-100	0	230	101300000	1000	0	0	-1	0
15630563	1003	0	0	-100	0	230	101300000	1000	0	0	-1	0
15643123	1003	0	0	-100	0	230	101300000	1000	0	0	-1	0
15655683	1001	0	0	-100	0	230	101300000	1000	0	0	-1	0
15668243	1003	0	0	-100	0	230	101300000	1000	0	0	-1	0
15680803	1000	0	0	-100	0	230	101300000	1000	0	0	-1	0
15693363	1003	0	0	-100	0	230	101300000	1000	0	0	-1	0
15705923	1003	0	0	-100	0	230	101300000	1000	0	0	-1	0
15718483	1001	0	0	-100	0	230	101300000	1000	0	0	-1	0
15731043	1003	0	0	-100	0	230	101300000	1000	0	0	-1	0
15743603	1003	0	0	-100	0	230	101300000	1000	0	0	-1	0
15756163	1001	0	0	-100	0	230	101300000	1000	0	0	-1	0
15768723	996	0	0	-100	0	230	101300000	1000	0	0	-1	0
15781283	995	3	0	-100	0	230	101300000	1000	0	0	-1	0
15793843	996	4	0	-100	0	230	101300000	1000	0	0	-1	0
15806403	995	2	0	-100	0	230	101300000	1000	0	0	-1	0
15818963	999	0	0	-100	0	230	101300000	1000	0	0	-1	0
15831523	1003	0	0	-100	0	230	101300000	1000	0	0	-1	0
15844083	1003	0	0	-100	0	230	101300000	1000	0	0	-1	0
15856643	1003	0	0	-100	0	230	101300000	1000	0	0	-1	0
15869203	1003	0	0	-100	0	230	101300000	1000	0	0	-1	0
15881763	1000	0	0	-100	0	230	101300000	1000	0	0	-1	0
15894323	1001	0	0	-100	0	230	101300000	1000	0	0	-1	0
15906883	998	0	0	-100	0	230	101300000	1000	0	0	-1	0
15919443	998	0	0	-100	0	230	101300000	1000	0	0	-1	0
15932004	1005	0	0	-100	0	230	101300000	1000	0	0	-1	0
15944563	999	4	0	-100	0	230	101300000	1000	0	0	-1	0
15957123	998	4	0	-100	0	230	101300000	1000	0	0	-1	0
15969683	998	3	0	-100	0	230	101300000	1000	0	0	-1	0
15982243	995	0	0	-100	0	230	101300000	1000	0	0	-1	0
15994803	998	0	0	-100	0	230	101300000	1000	0	0	-1	0
16007363	1001	0	0	-100	0	230	101300000	1000	0	0	-1	0
16019923	1003	0	0	-100	0	230	101300000	1000	0	0	-1	0
16032483	1003	0	0	-100	0	230	101300000	1000	0	0	-1	0
16045043	1003	0	0	-100	0	230	101300000	1000	0	0	-1	0
16057603	1002	0	0	-100	0	230	101300000	1000	0	0	-1	0
16070163	1003	0	0	-100	0	230	101300000	1000	0	0	-1	0
16082723	1003	0	0	-100	0	230	101300000	1000	0	0	-1	0
16095283	996	0	0	-100	0	230	101300000	1000	0	0	-1	0
16107843	998	0	0	-100	0	230	101300000	1000	0	0	-1	0
16120403	1001	0	0	-100	0	230	101300000	1000	0	0	-1	0
16132963	998	0	0	-100	0	230	101300000	1000	0	0	-1	0
16145523	995	3	0	-100	0	230	101300000	1000	0	0	-1	0
16158083	998	4	0	-100	0	230	101300000	1000	0	0	-1	0
16170643	998	1	0	-100	0	230	101300000	1000	0	0	-1	0
16183203	998	0	0	-100	0	230	101300000	1000	0	0	-1	0
16195763	1000	0	0	-100	0	230	101300000	1000	0	0	-1	0
16208323	1003	0	0	-100	0	230	101300000	1000	0	0	-1	0
16220883	1000	0	0	-100	0	230	101300000	1000	0	0	-1	0
16233443	1003	0	0	-100	0	230	101300000	1000	0	0	-1	0
16246004	996	4	0	-100	0	230	101300000	1000	0	0	-1	0
16258563	998	0	0	-100	0	230	101300000	1000	0	0	-1	0
16271123	996	3	0	-100	0	230	101300000	1000	0	0	-1	0
16283683	996	3	0	-100	0	230	101300000	1000	0	0	-1	0
16296243	998	4	0	-100	0	230	101300000	1000	0	0	-1	0
16308803	995	0	0	-100	0	230	101300000	1000	0	0	-1	0
16321363	998	0	0	-100	0	230	101300000	1000	0	0	-1	0
16333923	1003	0	0	-100	0	230	101300000	1000	0	0	-1	0
16346483	1003	0	0	-100	0	230	101300000	1000	0	0	-1	0
16359043	1002	0	0	-100	0	230	101300000	1000	0	0	-1	0
16371603	996	1	0	-100	0	230	101300000	1000	0	0	-1	0
16384163	994	3	0	-100	0	230	101300000	1000	0	0	-1	0
16396723	995	0	0	-100	0	230	101300000	1000	0	0	-1	0
16409283	998	0	0	-100	0	230	101300000	1000	0	0	-1	0
16421843	1001	0	0	-100	0	230	101300000	1000	0	0	-1	0
16434403	1000	0	0	-100	0	230	101300000	1000	0	0	-1	0
16446963	1002	0	0	-100	0	230	101300000	1000	0	0	-1	0
16459523	1003	0	0	-100	0	230	101300000	1000	0	0	-1	0
16472083	1003	0	0	-100	0	230	101300000	1000	0	0	-1	0
16484643	1003	0	0	-100	0	230	101300000	1000	0	0	-1	0
16497203	1003	0	0	-100	0	230	101300000	1000	0	0	-1	0
16509763	1005	0	0	-100	0	230	101300000	1000	0	0	-1	0
16522323	1005	0	0	-100	0	230	101300000	1000	0	0	-1	0
16534883	1002	0	0	-100	0	230	101300000	1000	0	0	-1	0
16547443	1003	0	0	-100	0	230	101300000	1000	0	0	-1	0
16560004	995	0	0	-100	0	230	101300000	1000	0	0	-1	0
16572563	996	4	0	-100	0	230	101300000	1000	0	0	-1	0
16585123	998	0	0	-100	0	230	101300000	1000	0	0	-1	0
16597683	1003	0	0	-100	0	230	101300000	1000	0	0	-1	0
16610243	1003	0	0	-100	0	230	101300000	1000	0	0	-1	0
16622803	1001	0	0	-100	0	230	101300000	1000	0	0	-1	0
16635363	993	1	0	-100	0	230	101300000	1000	0	0	-1	0
16647923	1000	5	0	-100	0	230	101300000	1000	0	0	-1	0
16660483	998	0	0	-100	0	230	101300000	1000	0	0	-1	0
16673043	1005	0	0	-100	0	230	101300000	1000	0	0	-1	0
16685603	998	2	0	-100	0	230	101300000	1000	0	0	-1	0
16698163	996	4	0	-100	0	230	101300000	1000	0	0	-1	0
16710723	998	3	0	-100	0	230	101300000	1000	0	0	-1	0
16723283	995	0	0	-100	0	230	101300000	1000	0	0	-1	0
16735843	998	0	0	-100	0	230	101300000	1000	0	0	-1	0
16748403	1001	0	0	-100	0	230	101300000	1000	0	0	-1	0
16760963	1003	0	0	-100	0	230	101300000	1000	0	0	-1	0
16773523	1003	0	0	-100	0	230	101300000	1000	0	0	-1	0
16786083	1003	0	0	-100	0	230	101300000	1000	0	0	-1	0
16798643	998	0	0	-100	0	230	101300000	1000	0	0	-1	0
16811203	996	3	0	-100	0	230	101300000	1000	0	0	-1	0
16823763	998	4	0	-100	0	230	101300000	1000	0	0	-1	0
16836323	998	4	0	-100	0	230	101300000	1000	0	0	-1	0
16848883	998	3	0	-100	0	230	101300000	1000	0	0	-1	0
16861443	998	1	0	-100	0	230	101300000	1000	0	0	-1	0
16936803	1003	0	0	-100	0	230	101300000	1000	0	0	-1	0
16949363	1003	0	0	-100	0	230	101300000	1000	0	0	-1	0
16961923	1001	0	0	-100	0	230	101300000	1000	0	0	-1	0
16974483	998	0	0	-100	0	230	101300000	1000	0	0	-1	0
16987043	996	2	0	-100	0	230	101300000	1000	0	0	-1	0
16999603	995	5	0	-100	0	230	101300000	1000	0	0	-1	0
17012163	1000	4	0	-100	0	230	101300000	1000	0	0	-1	0
17024723	995	0	0	-100	0	230	101300000	1000	0	0	-1	0
17037283	1000	0	0	-100	0	230	101300000	1000	0	0	-1	0
17049843	1005	0	0	-100	0	230	101300000	1000	0	0	-1	0
17062403	1005	0	0	-100	0	230	101300000	1000	0	0	-1	0
17074963	998	0	0	-100	0	230	101300000	1000	0	0	-1	0
17087523	995	1	0	-100	0	230	101300000	1000	0	0	-1	0
17100083	995	4	0	-100	0	230	101300000	1000	0	0	-1	0
17112643	995	4	0	-100	0	230	101300000	1000	0	0	-1	0
17125203	998	1	0	-100	0	230	101300000	1000	0	0	-1	0
17137763	996	0	0	-100	0	230	101300000	1000	0	0	-1	0
17150323	1000	0	0	-100	0	230	101300000	1000	0	0	-1	0
17162883	1003	0	0	-100	0	230	101300000	1000	0	0	-1	0
17175443	1002	0	0	-100	0	230	101300000	1000	0	0	-1	0
17188004	1001	4	0	-100	0	230	101300000	1000	0	0	-1	0
17200563	996	1	0	-100	0	230	101300000	1000	0	0	-1	0
17213123	996	3	0	-100	0	230	101300000	1000	0	0	-1	0
17225683	995	0	0	-100	0	230	101300000	1000	0	0	-1	0
17238243	1003	0	0	-100	0	230	101300000	1000	0	0	-1	0
17250803	998	0	0	-100	0	230	101300000	1000	0	0	-1	0
17263363	996	4	0	-100	0	230	101300000	1000	0	0	-1	0
17275923	998	0	0	-100	0	230	101300000	1000	0	0	-1	0
17288483	1002	0	0	-100	0	230	101300000	1000	0	0	-1	0
17301043	996	4	0	-100	0	230	101300000	1000	0	0	-1	0
17313603	995	0	0	-100	0	230	101300000	1000	0	0	-1	0
17326163	1003	0	0	-100	0	230	101300000	1000	0	0	-1	0
17338723	996	0	0	-100	0	230	101300000	1000	0	0	-1	0
17351283	1001	0	0	-100	0	230	101300000	1000	0	0	-1	0
17363843	1001	0	0	-100	0	230	101300000	1000	0	0	-1	0
17376403	999	0	0	-100	0	230	101300000	1000	0	0	-1	0
17388963	998	5	0	-100	0	230	101300000	1000	0	0	-1	0
17401523	998	0	0	-100	0	230	101300000	1000	0	0	-1	0
17414083	1005	0	0	-100	0	230	101300000	1000	0	0	-1	0
17426643	995	5	0	-100	0	230	101300000	1000	0	0	-1	0
17439203	1000	0	0	-100	0	230	101300000	1000	0	0	-1	0
17451763	1005	0	0	-100	0	230	101300000	1000	0	0	-1	0
17464323	996	4	0	-100	0	230	101300000	1000	0	0	-1	0
17476883	998	0	0	-100	0	230	101300000	1000	0	0	-1	0
17489443	1005	0	0	-100	0	230	101300000	1000	0	0	-1	0
17502004	996	0	0	-100	0	230	101300000	1000	0	0	-1	0
17514563	998	0	0	-100	0	230	101300000	1000	0	0	-1	0
17527123	999	0	0	-100	0	230	101300000	1000	0	0	-1	0
17539683	998	0	0	-100	0	230	101300000	1000	0	0	-1	0
17552243	1003	0	0	-100	0	230	101300000	1000	0	0	-1	0
17564803	1004	0	0	-100	0	230	101300000	1000	0	0	-1	0
17577363	996	4	0	-100	0	230	101300000	1000	0	0	-1	0
17589923	998	0	0	-100	0	230	101300000	1000	0	0	-1	0
17602483	1003	0	0	-100	0	230	101300000	1000	0	0	-1	0
17615043	996	3	0	-100	0	230	101300000	1000	0	0	-1	0
17627603	998	0	0	-100	0	230	101300000	1000	0	0	-1	0
17640163	1003	0	0	-100	0	230	101300000	1000	0	0	-1	0
17652723	996	3	0	-100	0	230	101300000	1000	0	0	-1	0
17665283	995	0	0	-100	0	230	101300000	1000	0	0	-1	0
17677843	1003	0	0	-100	0	230	101300000	1000	0	0	-1	0
17690403	996	1	0	-100	0	230	101300000	1000	0	0	-1	0
17702963	1001	0	0	-100	0	230	101300000	1000	0	0	-1	0
17715523	998	0	0	-100	0	230	101300000	1000	0	0	-1	0
17728083	999	2	0	-100	0	230	101300000	1000	0	0	-1	0
17740643	1002	0	0	-100	0	230	101300000	1000	0	0	-1	0
17753203	995	2	0	-100	0	230	101300000	1000	0	0	-1	0
17765763	996	0	0	-100	0	230	101300000	1000	0	0	-1	0
17778323	1002	0	0	-100	0	230	101300000	1000	0	0	-1	0
17790883	996	2	0	-100	0	230	101300000	1000	0	0	-1	0
17803443	1000	3	0	-100	0	230	101300000	1000	0	0	-1	0
17816004	998	0	0	-100	0	230	101300000	1000	0	0	-1	0
17828563	998	0	0	-100	0	230	101300000	1000	0	0	-1	0
17841123	998	4	0	-100	0	230	101300000	1000	0	0	-1	0
17853683	1001	0	0	-100	0	230	101300000	1000	0	0	-1	0
17866243	998	0	0	-100	0	230	101300000	1000	0	0	-1	0
17878803	996	3	0	-100	0	230	101300000	1000	0	0	-1	0
17891363	996	0	0	-100	0	230	101300000	1000	0	0	-1	0
17903923	1000	0	0	-100	0	230	101300000	1000	0	0	-1	0
17916483	996	4	0	-100	0	230	101300000	1000	0	0	-1	0
17929043	998	0	0	-100	0	230	101300000	1000	0	0	-1	0
17941603	1001	0	0	-100	0	230	101300000	1000	0	0	-1	0
17954163	994	3	0	-100	0	230	101300000	1000	0	0	-1	0
17966723	996	0	0	-100	0	230	101300000	1000	0	0	-1	0
17979283	1005	0	0	-100	0	230	101300000	1000	0	0	-1	0
17991843	996	3	0	-100	0	230	101300000	1000	0	0	-1	0
18004403	993	0	0	-100	0	230	101300000	1000	0	0	-1	0
18016963	1003	0	0	-100	0	230	101300000	1000	0	0	-1	0
18029523	998	1	0	-100	0	230	101300000	1000	0	0	-1	0
18042083	998	0	0	-100	0	230	101300000	1000	0	0	-1	0
18054643	1001	0	0	-100	0	230	101300000	1000	0	0	-1	0
18067203	998	0	0	-100	0	230	101300000	1000	0	0	-1	0
18079763	998	4	0	-100	0	230	101300000	1000	0	0	-1	0
18092323	998	0	0	-100	0	230	101300000	1000	0	0	-1	0
18104883	1003	0	0	-100	0	230	101300000	1000	0	0	-1	0
18117443	996	2	0	-100	0	230	101300000	1000	0	0	-1	0
18130004	1003	0	0	-100	0	230	101300000	1000	0	0	-1	0
18142563	1000	0	0	-100	0	230	101300000	1000	0	0	-1	0
18155123	1001	0	0	-100	0	230	101300000	1000	0	0	-1	0
18167683	995	5	0	-100	0	230	101300000	1000	0	0	-1	0
18180243	998	0	0	-100	0	230	101300000	1000	0	0	-1	0
18192803	1005	0	0	-100	0	230	101300000	1000	0	0	-1	0
18205363	996	4	0	-100	0	230	101300000	1000	0	0	-1	0
18217923	1006	0	0	-100	0	230	101300000	1000	0	0	-1	0
18230483	994	2	0	-100	0	230	101300000	1000	0	0	-1	0
18243043	998	0	0	-100	0	230	101300000	1000	0	0	-1	0
18255603	1004	0	0	-100	0	230	101300000	1000	0	0	-1	0
18268163	996	4	0	-100	0	230	101300000	1000	0	0	-1	0
18280723	998	0	0	-100	0	230	101300000	1000	0	0	-1	0
18293283	1002	0	0	-100	0	230	101300000	1000	0	0	-1	0
18305843	996	0	0	-100	0	230	101300000	1000	0	0	-1	0
18318403	996	3	0	-100	0	230	101300000	1000	0	0	-1	0
18330963	996	0	0	-100	0	230	101300000	1000	0	0	-1	0
18343523	1001	0	0	-100	0	230	101300000	1000	0	0	-1	0
18356083	1005	0	0	-100	0	230	101300000	1000	0	0	-1	0
18368643	996	4	0	-100	0	230	101300000	1000	0	0	-1	0
18381203	995	0	0	-100	0	230	101300000	1000	0	0	-1	0
18393763	1003	0	0	-100	0	230	101300000	1000	0	0	-1	0
18406323	995	5	0	-100	0	230	101300000	1000	0	0	-1	0
18418883	998	0	0	-100	0	230	101300000	1000	0	0	-1	0
18431443	1003	0	0	-100	0	230	101300000	1000	0	0	-1	0
18444004	998	4	0	-100	0	230	101300000	1000	0	0	-1	0
18456563	994	4	0	-100	0	230	101300000	1000	0	0	-1	0
18469123	996	0	0	-100	0	230	101300000	1000	0	0	-1	0
18481683	1000	0	0	-100	0	230	101300000	1000	0	0	-1	0
18494243	1003	0	0	-100	0	230	101300000	1000	0	0	-1	0
18506803	999	0	0	-100	0	230	101300000	1000	0	0	-1	0
18519363	996	4	0	-100	0	230	101300000	1000	0	0	-1	0
18531923	996	0	0	-100	0	230	101300000	1000	0	0	-1	0
18544483	1000	0	0	-100	0	230	101300000	1000	0	0	-1	0
18557043	1001	0	0	-100	0	230	101300000	1000	0	0	-1	0
18569603	996	4	0	-100	0	230	101300000	1000	0	0	-1	0
18582163	996	0	0	-100	0	230	101300000	1000	0	0	-1	0
18594723	1003	0	0	-100	0	230	101300000	1000	0	0	-1	0
18607283	1003	0	0	-100	0	230	101300000	1000	0	0	-1	0
18619843	996	1	0	-100	0	230	101300000	1000	0	0	-1	0
18632403	994	4	0	-100	0	230	101300000	1000	0	0	-1	0
18644963	998	0	0	-100	0	230	101300000	1000	0	0	-1	0
18657523	1000	0	0	-100	0	230	101300000	1000	0	0	-1	0
18670083	1000	0	0	-100	0	230	101300000	1000	0	0	-1	0
18682643	995	4	0	-100	0	230	101300000	1000	0	0	-1	0
18695203	998	4	0	-100	0	230	101300000	1000	0	0	-1	0
18707763	1000	0	0	-100	0	230	101300000	1000	0	0	-1	0
18720323	1005	0	0	-100	0	230	101300000	1000	0	0	-1	0
18732883	1003	0	0	-100	0	230	101300000	1000	0	0	-1	0
18745443	1005	0	0	-100	0	230	101300000	1000	0	0	-1	0
18758004	995	3	0	-100	0	230	101300000	1000	0	0	-1	0
18770563	1002	0	0	-100	0	230	101300000	1000	0	0	-1	0
18783123	1001	0	0	-100	0	230	101300000	1000	0	0	-1	0
18795683	1000	0	0	-100	0	230	101300000	1000	0	0	-1	0
18808243	996	2	0	-100	0	230	101300000	1000	0	0	-1	0
18820803	995	4	0	-100	0	230	101300000	1000	0	0	-1	0
18833363	996	0	0	-100	0	230	101300000	1000	0	0	-1	0
18845923	995	0	0	-100	0	230	101300000	1000	0	0	-1	0
18858483	998	0	0	-100	0	230	101300000	1000	0	0	-1	0
18871043	1003	0	0	-100	0	230	101300000	1000	0	0	-1	0
18883603	1005	0	0	-100	0	230	101300000	1000	0	0	-1	0
18896163	1000	0	0	-100	0	230	101300000	1000	0	0	-1	0
18908723	996	3	0	-100	0	230	101300000	1000	0	0	-1	0
18921283	996	0	0	-100	0	230	101300000	1000	0	0	-1	0
18933843	1001	0	0	-100	0	230	101300000	1000	0	0	-1	0
18946403	1003	0	0	-100	0	230	101300000	1000	0	0	-1	0
18958963	1001	0	0	-100	0	230	101300000	1000	0	0	-1	0
18971523	998	0	0	-100	0	230	101300000	1000	0	0	-1	0
18984083	1005	0	0	-100	0	230	101300000	1000	0	0	-1	0
18996643	1001	0	0	-100	0	230	101300000	1000	0	0	-1	0
19009203	998	0	0	-100	0	230	101300000	1000	0	0	-1	0
19021763	998	0	0	-100	0	230	101300000	1000	0	0	-1	0
19034323	1001	0	0	-100	0	230	101300000	1000	0	0	-1	0
19046883	1001	0	0	-100	0	230	101300000	1000	0	0	-1	0
19059443	1003	0	0	-100	0	230	101300000	1000	0	0	-1	0
19072004	998	5	0	-100	0	230	101300000	1000	0	0	-1	0
19084563	993	4	0	-100	0	230	101300000	1000	0	0	-1	0
19097123	998	0	0	-100	0	230	101300000	1000	0	0	-1	0
19109683	996	0	0	-100	0	230	101300000	1000	0	0	-1	0
19122243	996	0	0	-100	0	230	101300000	1000	0	0	-1	0
19134803	998	0	0	-100	0	230	101300000	1000	0	0	-1	0
19147363	1000	0	0	-100	0	230	101300000	1000	0	0	-1	0
19159923	1001	0	0	-100	0	230	101300000	1000	0	0	-1	0
19172483	1003	0	0	-100	0	230	101300000	1000	0	0	-1	0
19185043	1003	0	0	-100	0	230	101300000	1000	0	0	-1	0
19197603	996	0	0	-100	0	230	101300000	1000	0	0	-1	0
19210163	996	3	0	-100	0	230	101300000	1000	0	0	-1	0
19222723	993	0	0	-100	0	230	101300000	1000	0	0	-1	0
19235283	1000	0	0	-100	0	230	101300000	1000	0	0	-1	0
19247843	1003	0	0	-100	0	230	101300000	1000	0	0	-1	0
19260403	1003	0	0	-100	0	230	101300000	1000	0	0	-1	0
19272963	998	2	0	-100	0	230	101300000	1000	0	0	-1	0
19285523	996	4	0	-100	0	230	101300000	1000	0	0	-1	0
19298083	998	0	0	-100	0	230	101300000	1000	0	0	-1	0
19310643	996	0	0	-100	0	230	101300000	1000	0	0	-1	0
19323203	1000	0	0	-100	0	230	101300000	1000	0	0	-1	0
19335763	1001	0	0	-100	0	230	101300000	1000	0	0	-1	0
19348323	998	0	0	-100	0	230	101300000	1000	0	0	-1	0
19360883	996	4	0	-100	0	230	101300000	1000	0	0	-1	0
19373443	996	0	0	-100	0	230	101300000	1000	0	0	-1	0
19386004	998	0	0	-100	0	230	101300000	1000	0	0	-1	0
19398563	1008	0	0	-100	0	230	101300000	1000	0	0	-1	0
19411123	998	0	0	-100	0	230	101300000	1000	0	0	-1	0
19423683	995	4	0	-100	0	230	101300000	1000	0	0	-1	0
19436243	995	0	0	-100	0	230	101300000	1000	0	0	-1	0
19448803	1001	0	0	-100	0	230	101300000	1000	0	0	-1	0
19461363	1005	0	0	-100	0	230	101300000	1000	0	0	-1	0
19473923	1005	0	0	-100	0	230	101300000	1000	0	0	-1	0
19486483	993	0	0	-100	0	230	101300000	1000	0	0	-1	0
19499043	998	4	0	-100	0	230	101300000	1000	0	0	-1	0
19511603	993	0	0	-100	0	230	101300000	1000	0	0	-1	0
19524163	1001	0	0	-100	0	230	101300000	1000	0	0	-1	0
19536723	1003	0	0	-100	0	230	101300000	1000	0	0	-1	0
19549283	1003	0	0	-100	0	230	101300000	1000	0	0	-1	0
19561843	995	2	0	-100	0	230	101300000	1000	0	0	-1	0
19574403	996	4	0	-100	0	230	101300000	1000	0	0	-1	0
19586963	996	0	0	-100	0	230	101300000	1000	0	0	-1	0
19599523	1001	0	0	-100	0	230	101300000	1000	0	0	-1	0
19612083	996	4	0	-100	0	230	101300000	1000	0	0	-1	0
19624643	996	0	0	-100	0	230	101300000	1000	0	0	-1	0
19637203	1002	0	0	-100	0	230	101300000	1000	0	0	-1	0
19649763	996	0	0	-100	0	230	101300000	1000	0	0	-1	0
19662323	996	4	0	-100	0	230	101300000	1000	0	0	-1	0
19674883	995	0	0	-100	0	230	101300000	1000	0	0	-1	0
19687443	1003	0	0	-100	0	230	101300000	1000	0	0	-1	0
19700004	998	0	0	-100	0	230	101300000	1000	0	0	-1	0
19712563	996	0	0	-100	0	230	101300000	1000	0	0	-1	0
19725123	1005	0	0	-100	0	230	101300000	1000	0	0	-1	0
19737683	996	1	0	-100	0	230	101300000	1000	0	0	-1	0
19750243	998	0	0	-100	0	230	101300000	1000	0	0	-1	0
19762803	1001	0	0	-100	0	230	101300000	1000	0	0	-1	0
19775363	994	4	0	-100	0	230	101300000	1000	0	0	-1	0
19787923	1001	0	0	-100	0	230	101300000	1000	0	0	-1	0
19800483	1005	0	0	-100	0	230	101300000	1000	0	0	-1	0
19813043	998	4	0	-100	0	230	101300000	1000	0	0	-1	0
19825603	998	0	0	-100	0	230	101300000	1000	0	0	-1	0
19838163	1003	0	0	-100	0	230	101300000	1000	0	0	-1	0
19850723	996	0	0	-100	0	230	101300000	1000	0	0	-1	0
19863283	996	4	0	-100	0	230	101300000	1000	0	0	-1	0
19875843	1000	0	0	-100	0	230	101300000	1000	0	0	-1	0
19888403	1003	0	0	-100	0	230	101300000	1000	0	0	-1	0
19900963	1000	4	0	-100	0	230	101300000	1000	0	0	-1	0
19913523	1003	0	0	-100	0	230	101300000	1000	0	0	-1	0
19926083	996	3	0	-100	0	230	101300000	1000	0	0	-1	0
19938643	996	0	0	-100	0	230	101300000	1000	0	0	-1	0
19951203	1003	0	0	-100	0	230	101300000	1000	0	0	-1	0
19963763	999	0	0	-100	0	230	101300000	1000	0	0	-1	0
19976323	998	2	0	-100	0	230	101300000	1000	0	0	-1	0
19988883	1003	0	0	-100	0	230	101300000	1000	0	0	-1	0
20001443	996	4	0	-100	0	230	101300000	1000	0	0	-1	0
20014004	1003	0	0	-100	0	230	101300000	1000	0	0	-1	0
20026563	1005	0	0	-100	0	230	101300000	1000	0	0	-1	0
20039123	998	1	0	-100	0	230	101300000	1000	0	0	-1	0
20051683	998	0	0	-100	0	230	101300000	1000	0	0	-1	0
20064243	1001	0	0	-100	0	230	101300000	1000	0	0	-1	0
20076803	996	0	0	-100	0	230	101300000	1000	0	0	-1	0
20089363	998	3	0	-100	0	230	101300000	1000	0	0	-1	0
20101923	1001	0	0	-100	0	230	101300000	1000	0	0	-1	0
20114483	996	0	0	-100	0	230	101300000	1000	0	0	-1	0
20127043	998	3	0	-100	0	230	101300000	1000	0	0	-1	0
20139603	1000	0	0	-100	0	230	101300000	1000	0	0	-1	0
20152163	998	0	0	-100	0	230	101300000	1000	0	0	-1	0
20164723	996	4	0	-100	0	230	101300000	1000	0	0	-1	0
20177283	998	0	0	-100	0	230	101300000	1000	0	0	-1	0
20189843	1003	0	0	-100	0	230	101300000	1000	0	0	-1	0
20202403	996	4	0	-100	0	230	101300000	1000	0	0	-1	0
20214963	998	0	0	-100	0	230	101300000	1000	0	0	-1	0
20227523	1003	0	0	-100	0	230	101300000	1000	0	0	-1	0
20240083	996	3	0	-100	0	230	101300000	1000	0	0	-1	0
20252643	1003	0	0	-100	0	230	101300000	1000	0	0	-1	0
20265203	998	0	0	-100	0	230	101300000	1000	0	0	-1	0
20277763	996	0	0	-100	0	230	101300000	1000	0	0	-1	0
20290323	1000	0	0	-100	0	230	101300000	1000	0	0	-1	0
20302883	1003	0	0	-100	0	230	101300000	1000	0	0	-1	0
20315443	996	4	0	-100	0	230	101300000	1000	0	0	-1	0
20328004	1006	0	0	-100	0	230	101300000	1000	0	0	-1	0
20340563	1005	0	0	-100	0	230	101300000	1000	0	0	-1	0
20353123	996	6	0	-100	0	230	101300000	1000	0	0	-1	0
20365683	1000	0	0	-100	0	230	101300000	1000	0	0	-1	0
20378243	1000	0	0	-100	0	230	101300000	1000	0	0	-1	0
20390803	1005	0	0	-100	0	230	101300000	1000	0	0	-1	0
20403363	996	3	0	-100	0	230	101300000	1000	0	0	-1	0
20415923	998	0	0	-100	0	230	101300000	1000	0	0	-1	0
20428483	1005	0	0	-100	0	230	101300000	1000	0	0	-1	0
20441043	1005	0	0	-100	0	230	101300000	1000	0	0	-1	0
20453603	994	1	0	-100	0	230	101300000	1000	0	0	-1	0
20466163	995	0	0	-100	0	230	101300000	1000	0	0	-1	0
20478723	1001	0	0	-100	0	230	101300000	1000	0	0	-1	0
20491283	1005	0	0	-100	0	230	101300000	1000	0	0	-1	0
20503843	996	0	0	-100	0	230	101300000	1000	0	0	-1	0
20516403	998	5	0	-100	0	230	101300000	1000	0	0	-1	0
20528963	996	0	0	-100	0	230	101300000	1000	0	0	-1	0
20541523	1003	0	0	-100	0	230	101300000	1000	0	0	-1	0
20554083	998	0	0	-100	0	230	101300000	1000	0	0	-1	0
20566643	998	4	0	-100	0	230	101300000	1000	0	0	-1	0
20579203	1001	0	0	-100	0	230	101300000	1000	0	0	-1	0
20591763	1003	0	0	-100	0	230	101300000	1000	0	0	-1	0
20604323	994	2	0	-100	0	230	101300000	1000	0	0	-1	0
20616883	998	0	0	-100	0	230	101300000	1000	0	0	-1	0
20629443	1001	0	0	-100	0	230	101300000	1000	0	0	-1	0
20642004	999	5	0	-100	0	230	101300000	1000	0	0	-1	0
20654563	996	4	0	-100	0	230	101300000	1000	0	0	-1	0
20667123	995	0	0	-100	0	230	101300000	1000	0	0	-1	0
20679683	1003	0	0	-100	0	230	101300000	1000	0	0	-1	0
20692243	1005	0	0	-100	0	230	101300000	1000	0	0	-1	0
20704803	996	3	0	-100	0	230	101300000	1000	0	0	-1	0
20717363	1001	0	0	-100	0	230	101300000	1000	0	0	-1	0
20729923	1002	0	0	-100	0	230	101300000	1000	0	0	-1	0
20742483	995	4	0	-100	0	230	101300000	1000	0	0	-1	0
20755043	996	0	0	-100	0	230	101300000	1000	0	0	-1	0
20767603	1003	0	0	-100	0	230	101300000	1000	0	0	-1	0
20780163	994	1	0	-100	0	230	101300000	1000	0	0	-1	0
20792723	998	0	0	-100	0	230	101300000	1000	0	0	-1	0
20805283	1003	0	0	-100	0	230	101300000	1000	0	0	-1	0
20817843	1001	0	0	-100	0	230	101300000	1000	0	0	-1	0
20830403	996	3	0	-100	0	230	101300000	1000	0	0	-1	0
20842963	1000	0	0	-100	0	230	101300000	1000	0	0	-1	0
20855523	1005	0	0	-100	0	230	101300000	1000	0	0	-1	0
20868083	994	3	0	-100	0	230	101300000	1000	0	0	-1	0
20880643	998	0	0	-100	0	230	101300000	1000	0	0	-1	0
20893203	1003	0	0	-100	0	230	101300000	1000	0	0	-1	0
20905763	996	3	0	-100	0	230	101300000	1000	0	0	-1	0
20918323	995	0	0	-100	0	230	101300000	1000	0	0	-1	0
20930883	1003	0	0	-100	0	230	101300000	1000	0	0	-1	0
20943443	996	3	0	-100	0	230	101300000	1000	0	0	-1	0
20956004	1003	0	0	-100	0	230	101300000	1000	0	0	-1	0
20968563	1000	0	0	-100	0	230	101300000	1000	0	0	-1	0
20981123	1002	0	0	-100	0	230	101300000	1000	0	0	-1	0
20993683	995	2	0	-100	0	230	101300000	1000	0	0	-1	0
21006243	995	0	0	-100	0	230	101300000	1000	0	0	-1	0
21018803	1003	0	0	-100	0	230	101300000	1000	0	0	-1	0
21031363	996	1	0	-100	0	230	101300000	1000	0	0	-1	0
21043923	995	0	0	-100	0	230	101300000	1000	0	0	-1	0
21056483	1003	0	0	-100	0	230	101300000	1000	0	0	-1	0
21069043	996	4	0	-100	0	230	101300000	1000	0	0	-1	0
21081603	998	0	0	-100	0	230	101300000	1000	0	0	-1	0
21094163	1003	0	0	-100	0	230	101300000	1000	0	0	-1	0
21106723	996	1	0	-100	0	230	101300000	1000	0	0	-1	0
21119283	996	2	0	-100	0	230	101300000	1000	0	0	-1	0
21131843	1000	0	0	-100	0	230	101300000	1000	0	0	-1	0
21144403	998	0	0	-100	0	230	101300000	1000	0	0	-1	0
21156963	998	1	0	-100	0	230	101300000	1000	0	0	-1	0
21169523	1002	0	0	-100	0	230	101300000	1000	0	0	-1	0
21182083	996	0	0	-100	0	230	101300000	1000	0	0	-1	0
21194643	998	0	0	-100	0	230	101300000	1000	0	0	-1	0
21207203	1001	0	0	-100	0	230	101300000	1000	0	0	-1	0
21219763	996	0	0	-100	0	230	101300000	1000	0	0	-1	0
21232323	995	0	0	-100	0	230	101300000	1000	0	0	-1	0
21244883	1003	0	0	-100	0	230	101300000	1000	0	0	-1	0
21257443	996	4	0	-100	0	230	101300000	1000	0	0	-1	0
21270004	1005	0	0	-100	0	230	101300000	1000	0	0	-1	0
21282563	1005	0	0	-100	0	230	101300000	1000	0	0	-1	0
21295123	996	4	0	-100	0	230	101300000	1000	0	0	-1	0
21307683	1001	0	0	-100	0	230	101300000	1000	0	0	-1	0
21320243	996	0	0	-100	0	230	101300000	1000	0	0	-1	0
21332803	993	0	0	-100	0	230	101300000	1000	0	0	-1	0
21345363	1003	0	0	-100	0	230	101300000	1000	0	0	-1	0
21357923	996	3	0	-100	0	230	101300000	1000	0	0	-1	0
21370483	995	0	0	-100	0	230	101300000	1000	0	0	-1	0
21383043	1003	0	0	-100	0	230	101300000	1000	0	0	-1	0
21395603	996	4	0	-100	0	230	101300000	1000	0	0	-1	0
21408163	994	0	0	-100	0	230	101300000	1000	0	0	-1	0
21420723	1001	0	0	-100	0	230	101300000	1000	0	0	-1	0
21433283	996	3	0	-100	0	230	101300000	1000	0	0	-1	0
21445843	1001	0	0	-100	0	230	101300000	1000	0	0	-1	0
21458403	998	0	0	-100	0	230	101300000	1000	0	0	-1	0
21470963	996	4	0	-100	0	230	101300000	1000	0	0	-1	0
21483523	998	0	0	-100	0	230	101300000	1000	0	0	-1	0
21496083	998	0	0	-100	0	230	101300000	1000	0	0	-1	0
21508643	995	0	0	-100	0	230	101300000	1000	0	0	-1	0
21521203	1005	0	0	-100	0	230	101300000	1000	0	0	-1	0
21533763	996	4	0	-100	0	230	101300000	1000	0	0	-1	0
21546323	998	0	0	-100	0	230	101300000	1000	0	0	-1	0
21558883	1000	0	0	-100	0	230	101300000	1000	0	0	-1	0
21571443	996	2	0	-100	0	230	101300000	1000	0	0	-1	0
21584004	1003	0	0	-100	0	230	101300000	1000	0	0	-1	0
21596563	1005	0	0	-100	0	230	101300000	1000	0	0	-1	0
21609123	998	2	0	-100	0	230	101300000	1000	0	0	-1	0
21621683	996	0	0	-100	0	230	101300000	1000	0	0	-1	0
21634243	1003	0	0	-100	0	230	101300000	1000	0	0	-1	0
21646803	996	3	0	-100	0	230	101300000	1000	0	0	-1	0
21659363	1000	0	0	-100	0	230	101300000	1000	0	0	-1	0
21671923	998	0	0	-100	0	230	101300000	1000	0	0	-1	0
21684483	998	4	0	-100	0	230	101300000	1000	0	0	-1	0
21697043	1003	0	0	-100	0	230	101300000	1000	0	0	-1	0
21709603	998	3	0	-100	0	230	101300000	1000	0	0	-1	0
21722163	996	0	0	-100	0	230	101300000	1000	0	0	-1	0
21734723	1001	0	0	-100	0	230	101300000	1000	0	0	-1	0
21747283	995	0	0	-100	0	230	101300000	1000	0	0	-1	0
21759843	996	0	0	-100	0	230	101300000	1000	0	0	-1	0
21772403	1003	0	0	-100	0	230	101300000	1000	0	0	-1	0
21784963	996	0	0	-100	0	230	101300000	1000	0	0	-1	0
21797523	998	5	0	-100	0	230	101300000	1000	0	0	-1	0
21810083	1005	0	0	-100	0	230	101300000	1000	0	0	-1	0
21822643	996	2	0	-100	0	230	101300000	1000	0	0	-1	0
21835203	998	0	0	-100	0	230	101300000	1000	0	0	-1	0
21847763	1001	0	0	-100	0	230	101300000	1000	0	0	-1	0
21860323	998	1	0	-100	0	230	101300000	1000	0	0	-1	0
21872883	998	1	0	-100	0	230	101300000	1000	0	0	-1	0
21885443	1000	0	0	-100	0	230	101300000	1000	0	0	-1	0
21898004	998	4	0	-100	0	230	101300000	1000	0	0	-1	0
21910563	994	2	0	-100	0	230	101300000	1000	0	0	-1	0
21923123	996	3	0	-100	0	230	101300000	1000	0	0	-1	0
21935683	996	0	0	-100	0	230	101300000	1000	0	0	-1	0
21948243	1003	0	0	-100	0	230	101300000	1000	0	0	-1	0
21960803	1004	0	0	-100	0	230	101300000	1000	0	0	-1	0
21973363	996	1	0	-100	0	230	101300000	1000	0	0	-1	0
21985923	996	5	0	-100	0	230	101300000	1000	0	0	-1	0
21998483	998	0	0	-100	0	230	101300000	1000	0	0	-1	0
22011043	1002	0	0	-100	0	230	101300000	1000	0	0	-1	0
22023603	1003	0	0	-100	0	230	101300000	1000	0	0	-1	0
22036163	994	1	0	-100	0	230	101300000	1000	0	0	-1	0
22048723	998	4	0	-100	0	230	101300000	1000	0	0	-1	0
22061283	1001	0	0	-100	0	230	101300000	1000	0	0	-1	0
22073843	1005	0	0	-100	0	230	101300000	1000	0	0	-1	0
22086403	1001	0	0	-100	0	230	101300000	1000	0	0	-1	0
22098963	996	2	0	-100	0	230	101300000	1000	0	0	-1	0
22111523	998	4	0	-100	0	230	101300000	1000	0	0	-1	0
22124083	1001	0	0	-100	0	230	101300000	1000	0	0	-1	0
22136643	1003	0	0	-100	0	230	101300000	1000	0	0	-1	0
22149203	999	0	0	-100	0	230	101300000	1000	0	0	-1	0
22161763	996	4	0	-100	0	230	101300000	1000	0	0	-1	0
22174323	996	0	0	-100	0	230	101300000	1000	0	0	-1	0
22186883	1003	0	0	-100	0	230	101300000	1000	0	0	-1	0
22199443	1003	0	0	-100	0	230	101300000	1000	0	0	-1	0
22212004	995	0	0	-100	0	230	101300000	1000	0	0	-1	0
22224563	1000	4	0	-100	0	230	101300000	1000	0	0	-1	0
22237123	1000	0	0	-100	0	230	101300000	1000	0	0	-1	0
22249683	1003	0	0	-100	0	230	101300000	1000	0	0	-1	0
22262243	1003	0	0	-100	0	230	101300000	1000	0	0	-1	0
22274803	994	1	0	-100	0	230	101300000	1000	0	0	-1	0
22287363	997	3	0	-100	0	230	101300000	1000	0	0	-1	0
22299923	998	0	0	-100	0	230	101300000	1000	0	0	-1	0
22312483	1003	0	0	-100	0	230	101300000	1000	0	0	-1	0
22325043	996	3	0	-100	0	230	101300000	1000	0	0	-1	0
22337603	998	0	0	-100	0	230	101300000	1000	0	0	-1	0
22350163	1003	0	0	-100	0	230	101300000	1000	0	0	-1	0
22362723	996	1	0	-100	0	230	101300000	1000	0	0	-1	0
22375283	994	4	0	-100	0	230	101300000	1000	0	0	-1	0
22387843	998	0	0	-100	0	230	101300000	1000	0	0	-1	0
22400403	1002	0	0	-100	0	230	101300000	1000	0	0	-1	0
22412963	996	2	0	-100	0	230	101300000	1000	0	0	-1	0
22425523	998	0	0	-100	0	230	101300000	1000	0	0	-1	0
22438083	1000	0	0	-100	0	230	101300000	1000	0	0	-1	0
22450643	1003	0	0	-100	0	230	101300000	1000	0	0	-1	0
22463203	996	3	0	-100	0	230	101300000	1000	0	0	-1	0
22475763	995	0	0	-100	0	230	101300000	1000	0	0	-1	0
22488323	1005	0	0	-100	0	230	101300000	1000	0	0	-1	0
22500883	995	2	0	-100	0	230	101300000	1000	0	0	-1	0
22513443	998	1	0	-100	0	230	101300000	1000	0	0	-1	0
22526004	998	2	0	-100	0	230	101300000	1000	0	0	-1	0
22538563	999	0	0	-100	0	230	101300000	1000	0	0	-1	0
22551123	996	4	0	-100	0	230	101300000	1000	0	0	-1	0
22563683	996	0	0	-100	0	230	101300000	1000	0	0	-1	0
22576243	1001	0	0	-100	0	230	101300000	1000	0	0	-1	0
22588803	1003	0	0	-100	0	230	101300000	1000	0	0	-1	0
22601363	998	0	0	-100	0	230	101300000	1000	0	0	-1	0
22613923	998	1	0	-100	0	230	101300000	1000	0	0	-1	0
22626483	1005	0	0	-100	0	230	101300000	1000	0	0	-1	0
22639043	995	4	0	-100	0	230	101300000	1000	0	0	-1	0
22651603	996	0	0	-100	0	230	101300000	1000	0	0	-1	0
22664163	1004	0	0	-100	0	230	101300000	1000	0	0	-1	0
22676723	993	2	0	-100	0	230	101300000	1000	0	0	-1	0
22689283	995	1	0	-100	0	230	101300000	1000	0	0	-1	0
22701843	1002	0	0	-100	0	230	101300000	1000	0	0	-1	0
22714403	998	0	0	-100	0	230	101300000	1000	0	0	-1	0
22726963	996	4	0	-100	0	230	101300000	1000	0	0	-1	0
22739523	998	0	0	-100	0	230	101300000	1000	0	0	-1	0
22752083	1003	0	0	-100	0	230	101300000	1000	0	0	-1	0
22764643	995	3	0	-100	0	230	101300000	1000	0	0	-1	0
22777203	996	0	0	-100	0	230	101300000	1000	0	0	-1	0
22789763	996	0	0	-100	0	230	101300000	1000	0	0	-1	0
22802323	1003	0	0	-100	0	230	101300000	1000	0	0	-1	0
22814883	1003	0	0	-100	0	230	101300000	1000	0	0	-1	0
22827443	998	1	0	-100	0	230	101300000	1000	0	0	-1	0
22840004	1000	0	0	-100	0	230	101300000	1000	0	0	-1	0
22852563	995	0	0	-100	0	230	101300000	1000	0	0	-1	0
22865123	1002	0	0	-100	0	230	101300000	1000	0	0	-1	0
22877683	1003	0	0	-100	0	230	101300000	1000	0	0	-1	0
22890243	1003	0	0	-100	0	230	101300000	1000	0	0	-1	0
22902803	993	2	0	-100	0	230	101300000	1000	0	0	-1	0
22915363	1001	5	0	-100	0	230	101300000	1000	0	0	-1	0
22927923	996	0	0	-100	0	230	101300000	1000	0	0	-1	0
22940483	1001	0	0	-100	0	230	101300000	1000	0	0	-1	0
22953043	1005	0	0	-100	0	230	101300000	1000	0	0	-1	0
22965603	998	0	0	-100	0	230	101300000	1000	0	0	-1	0
22978163	994	1	0	-100	0	230	101300000	1000	0	0	-1	0
22990723	996	2	0	-100	0	230	101300000	1000	0	0	-1	0
23003283	996	2	0	-100	0	230	101300000	1000	0	0	-1	0
23015843	996	4	0	-100	0	230	101300000	1000	0	0	-1	0
23028403	996	2	0	-100	0	230	101300000	1000	0	0	-1	0
23040963	996	0	0	-100	0	230	101300000	1000	0	0	-1	0
23053523	1000	0	0	-100	0	230	101300000	1000	0	0	-1	0
23066083	1003	0	0	-100	0	230	101300000	1000	0	0	-1	0
23078643	1003	0	0	-100	0	230	101300000	1000	0	0	-1	0
23091203	1001	0	0	-100	0	230	101300000	1000	0	0	-1	0
23103763	996	0	0	-100	0	230	101300000	1000	0	0	-1	0
23116323	996	2	0	-100	0	230	101300000	1000	0	0	-1	0
23128883	995	4	0	-100	0	230	101300000	1000	0	0	-1	0
23141443	998	3	0	-100	0	230	101300000	1000	0	0	-1	0
23154004	1005	0	0	-100	0	230	101300000	1000	0	0	-1	0
23166563	1001	0	0	-100	0	230	101300000	1000	0	0	-1	0
23179123	1003	0	0	-100	0	230	101300000	1000	0	0	-1	0
23191683	1005	0	0	-100	0	230	101300000	1000	0	0	-1	0
23204243	1001	0	0	-100	0	230	101300000	1000	0	0	-1	0
23216803	996	0	0	-100	0	230	101300000	1000	0	0	-1	0
23229363	996	4	0	-100	0	230	101300000	1000	0	0	-1	0
23241923	998	5	0	-100	0	230	101300000	1000	0	0	-1	0
23254483	998	0	0	-100	0	230	101300000	1000	0	0	-1	0
23267043	995	0	0	-100	0	230	101300000	1000	0	0	-1	0
23279603	995	0	0	-100	0	230	101300000	1000	0	0	-1	0
23292163	998	0	0	-100	0	230	101300000	1000	0	0	-1	0
23304723	1001	0	0	-100	0	230	101300000	1000	0	0	-1	0
23317283	998	0	0	-100	0	230	101300000	1000	0	0	-1	0
23329843	1002	0	0	-100	0	230	101300000	1000	0	0	-1	0
23342403	1003	0	0	-100	0	230	101300000	1000	0	0	-1	0
23354963	996	0	0	-100	0	230	101300000	1000	0	0	-1	0
23367523	994	1	0	-100	0	230	101300000	1000	0	0	-1	0
23380083	998	4	0	-100	0	230	101300000	1000	0	0	-1	0
23392643	998	0	0	-100	0	230	101300000	1000	0	0	-1	0
23405203	996	0	0	-100	0	230	101300000	1000	0	0	-1	0
23417763	998	0	0	-100	0	230	101300000	1000	0	0	-1	0
23430323	995	0	0	-100	0	230	101300000	1000	0	0	-1	0
23442883	1000	4	0	-100	0	230	101300000	1000	0	0	-1	0
23455443	995	0	0	-100	0	230	101300000	1000	0	0	-1	0
23468004	1003	0	0	-100	0	230	101300000	1000	0	0	-1	0
23480563	998	0	0	-100	0	230	101300000	1000	0	0	-1	0
23493123	1003	0	0	-100	0	230	101300000	1000	0	0	-1	0
23505683	1005	0	0	-100	0	230	101300000	1000	0	0	-1	0
23518243	994	0	0	-100	0	230	101300000	1000	0	0	-1	0
23530803	996	4	0	-100	0	230	101300000	1000	0	0	-1	0
23543363	996	0	0	-100	0	230	101300000	1000	0	0	-1	0
23555923	1001	0	0	-100	0	230	101300000	1000	0	0	-1	0
23568483	1003	0	0	-100	0	230	101300000	1000	0	0	-1	0
23581043	995	4	0	-100	0	230	101300000	1000	0	0	-1	0
23593603	996	4	0	-100	0	230	101300000	1000	0	0	-1	0
23606163	996	0	0	-100	0	230	101300000	1000	0	0	-1	0
23618723	998	0	0	-100	0	230	101300000	1000	0	0	-1	0
23631283	1001	0	0	-100	0	230	101300000	1000	0	0	-1	0
23643843	1002	0	0	-100	0	230	101300000	1000	0	0	-1	0
23656403	1001	0	0	-100	0	230	101300000	1000	0	0	-1	0
23668963	1003	0	0	-100	0	230	101300000	1000	0	0	-1	0
23681523	1001	0	0	-100	0	230	101300000	1000	0	0	-1	0
23694083	996	0	0	-100	0	230	101300000	1000	0	0	-1	0
23706643	996	0	0	-100	0	230	101300000	1000	0	0	-1	0
23719203	996	0	0	-100	0	230	101300000	1000	0	0	-1	0
23731763	999	0	0	-100	0	230	101300000	1000	0	0	-1	0
23744323	1001	0	0	-100	0	230	101300000	1000	0	0	-1	0
23756883	998	0	0	-100	0	230	101300000	1000	0	0	-1	0
23769443	998	0	0	-100	0	230	101300000	1000	0	0	-1	0
23782004	996	0	0	-100	0	230	101300000	1000	0	0	-1	0
23794563	994	3	0	-100	0	230	101300000	1000	0	0	-1	0
23807123	998	4	0	-100	0	230	101300000	1000	0	0	-1	0
23819683	998	0	0	-100	0	230	101300000	1000	0	0	-1	0
23832243	1001	0	0	-100	0	230	101300000	1000	0	0	-1	0
23844803	1003	0	0	-100	0	230	101300000	1000	0	0	-1	0
23857363	996	3	0	-100	0	230	101300000	1000	0	0	-1	0
23869923	994	0	0	-100	0	230	101300000	1000	0	0	-1	0
23882483	1003	0	0	-100	0	230	101300000	1000	0	0	-1	0
23895043	1003	0	0	-100	0	230	101300000	1000	0	0	-1	0
23907603	996	2	0	-100	0	230	101300000	1000	0	0	-1	0
23920163	998	0	0	-100	0	230	101300000	1000	0	0	-1	0
23932723	1003	0	0	-100	0	230	101300000	1000	0	0	-1	0
23945283	1003	0	0	-100	0	230	101300000	1000	0	0	-1	0
23957843	996	3	0	-100	0	230	101300000	1000	0	0	-1	0
23970403	995	0	0	-100	0	230	101300000	1000	0	0	-1	0
23982963	1001	0	0	-100	0	230	101300000	1000	0	0	-1	0
23995523	998	0	0	-100	0	230	101300000	1000	0	0	-1	0
24008083	995	4	0	-100	0	230	101300000	1000	0	0	-1	0
24020643	998	4	0	-100	0	230	101300000	1000	0	0	-1	0
24033203	993	0	0	-100	0	230	101300000	1000	0	0	-1	0
24045763	998	0	0	-100	0	230	101300000	1000	0	0	-1	0
24058323	1003	0	0	-100	0	230	101300000	1000	0	0	-1	0
24070883	1005	0	0	-100	0	230	101300000	1000	0	0	-1	0
24083443	998	2	0	-100	0	230	101300000	1000	0	0	-1	0
24096004	1001	0	0	-100	0	230	101300000	1000	0	0	-1	0
24108563	1003	0	0	-100	0	230	101300000	1000	0	0	-1	0
24121123	996	0	0	-100	0	230	101300000	1000	0	0	-1	0
24133683	998	4	0	-100	0	230	101300000	1000	0	0	-1	0
24146243	1000	0	0	-100	0	230	101300000	1000	0	0	-1	0
24158803	1000	0	0	-100	0	230	101300000	1000	0	0	-1	0
24171363	998	0	0	-100	0	230	101300000	1000	0	0	-1	0
24183923	1002	0	0	-100	0	230	101300000	1000	0	0	-1	0
24196483	998	0	0	-100	0	230	101300000	1000	0	0	-1	0
24209043	998	1	0	-100	0	230	101300000	1000	0	0	-1	0
24221603	998	0	0	-100	0	230	101300000	1000	0	0	-1	0
24234163	1001	0	0	-100	0	230	101300000	1000	0	0	-1	0
24246723	996	4	0	-100	0	230	101300000	1000	0	0	-1	0
24259283	998	0	0	-100	0	230	101300000	1000	0	0	-1	0
24271843	1003	0	0	-100	0	230	101300000	1000	0	0	-1	0
24284403	993	2	0	-100	0	230	101300000	1000	0	0	-1	0
24296963	998	0	0	-100	0	230	101300000	1000	0	0	-1	0
24309523	1003	0	0	-100	0	230	101300000	1000	0	0	-1	0
24322083	998	4	0	-100	0	230	101300000	1000	0	0	-1	0
24334643	1003	0	0	-100	0	230	101300000	1000	0	0	-1	0
24347203	1001	0	0	-100	0	230	101300000	1000	0	0	-1	0
24359763	996	4	0	-100	0	230	101300000	1000	0	0	-1	0
24372323	1003	0	0	-100	0	230	101300000	1000	0	0	-1	0
24384883	996	3	0	-100	0	230	101300000	1000	0	0	-1	0
24397443	998	0	0	-100	0	230	101300000	1000	0	0	-1	0
24410004	995	2	0	-100	0	230	101300000	1000	0	0	-1	0
24422563	995	3	0	-100	0	230	101300000	1000	0	0	-1	0
24435123	998	0	0	-100	0	230	101300000	1000	0	0	-1	0
24447683	1003	0	0	-100	0	230	101300000	1000	0	0	-1	0
24460243	998	4	0	-100	0	230	101300000	1000	0	0	-1	0
24472803	1000	0	0	-100	0	230	101300000	1000	0	0	-1	0
24485363	994	2	0	-100	0	230	101300000	1000	0	0	-1	0
24497923	1001	0	0	-100	0	230	101300000	1000	0	0	-1	0
24510483	998	0	0	-100	0	230	101300000	1000	0	0	-1	0
24523043	998	4	0	-100	0	230	101300000	1000	0	0	-1	0
24535603	1003	0	0	-100	0	230	101300000	1000	0	0	-1	0
24548163	994	0	0	-100	0	230	101300000	1000	0	0	-1	0
24560723	998	0	0	-100	0	230	101300000	1000	0	0	-1	0
24573283	1002	0	0	-100	0	230	101300000	1000	0	0	-1	0
24585843	998	5	0	-100	0	230	101300000	1000	0	0	-1	0
24598403	1000	0	0	-100	0	230	101300000	1000	0	0	-1	0
24610963	999	0	0	-100	0	230	101300000	1000	0	0	-1	0
24623523	998	4	0	-100	0	230	101300000	1000	0	0	-1	0
24636083	1000	0	0	-100	0	230	101300000	1000	0	0	-1	0
24648643	1003	0	0	-100	0	230	101300000	1000	0	0	-1	0
24661203	996	0	0	-100	0	230	101300000	1000	0	0	-1	0
24673763	996	4	0	-100	0	230	101300000	1000	0	0	-1	0
24686323	995	0	0	-100	0	230	101300000	1000	0	0	-1	0
24698883	1003	0	0	-100	0	230	101300000	1000	0	0	-1	0
24711443	1003	0	0	-100	0	230	101300000	1000	0	0	-1	0
24724004	1001	0	0	-100	0	230	101300000	1000	0	0	-1	0
24736563	1001	0	0	-100	0	230	101300000	1000	0	0	-1	0
24749123	998	0	0	-100	0	230	101300000	1000	0	0	-1	0
24761683	996	4	0	-100	0	230	101300000	1000	0	0	-1	0
24774243	1000	0	0	-100	0	230	101300000	1000	0	0	-1	0
24786803	996	1	0	-100	0	230	101300000	1000	0	0	-1	0
24799363	995	0	0	-100	0	230	101300000	1000	0	0	-1	0
24811923	1004	0	0	-100	0	230	101300000	1000	0	0	-1	0
24824483	1001	2	0	-100	0	230	101300000	1000	0	0	-1	0
24837043	1002	0	0	-100	0	230	101300000	1000	0	0	-1	0
24849603	998	4	0	-100	0	230	101300000	1000	0	0	-1	0
24862163	1003	0	0	-100	0	230	101300000	1000	0	0	-1	0
24874723	998	3	0	-100	0	230	101300000	1000	0	0	-1	0
24887283	1003	0	0	-100	0	230	101300000	1000	0	0	-1	0
24899843	994	4	0	-100	0	230	101300000	1000	0	0	-1	0
24912403	1000	0	0	-100	0	230	101300000	1000	0	0	-1	0
24924963	994	1	0	-100	0	230	101300000	1000	0	0	-1	0
24937523	1001	0	0	-100	0	230	101300000	1000	0	0	-1	0
24950083	994	3	0	-100	0	230	101300000	1000	0	0	-1	0
24962643	1003	0	0	-100	0	230	101300000	1000	0	0	-1	0
24975203	998	4	0	-100	0	230	101300000	1000	0	0	-1	0
24987763	1001	0	0	-100	0	230	101300000	1000	0	0	-1	0
25000323	998	0	0	-100	0	230	101300000	1000	0	0	-1	0
25012883	998	4	0	-100	0	230	101300000	1000	0	0	-1	0
25025443	1002	0	0	-100	0	230	101300000	1000	0	0	-1	0
25038004	1003	0	0	-100	0	230	101300000	1000	0	0	-1	0
25050563	1003	0	0	-100	0	230	101300000	1000	0	0	-1	0
25063123	996	0	0	-100	0	230	101300000	1000	0	0	-1	0
25075683	1001	0	0	-100	0	230	101300000	1000	0	0	-1	0
25088243	998	0	0	-100	0	230	101300000	1000	0	0	-1	0
25100803	1003	0	0	-100	0	230	101300000	1000	0	0	-1	0
25113363	998	4	0	-100	0	230	101300000	1000	0	0	-1	0
25125923	1003	0	0	-100	0	230	101300000	1000	0	0	-1	0
25138483	995	3	0	-100	0	230	101300000	1000	0	0	-1	0
25151043	1001	0	0	-100	0	230	101300000	1000	0	0	-1	0
25163603	994	1	0	-100	0	230	101300000	1000	0	0	-1	0
25176163	1000	0	0	-100	0	230	101300000	1000	0	0	-1	0
25188723	996	0	0	-100	0	230	101300000	1000	0	0	-1	0
25201283	996	0	0	-100	0	230	101300000	1000	0	0	-1	0
25213843	1003	0	0	-100	0	230	101300000	1000	0	0	-1	0
25226403	996	2	0	-100	0	230	101300000	1000	0	0	-1	0
25238963	998	1	0	-100	0	230	101300000	1000	0	0	-1	0
25251523	1003	0	0	-100	0	230	101300000	1000	0	0	-1	0
25264083	996	4	0	-100	0	230	101300000	1000	0	0	-1	0
25276643	1002	0	0	-100	0	230	101300000	1000	0	0	-1	0
25289203	994	2	0	-100	0	230	101300000	1000	0	0	-1	0
25301763	998	0	0	-100	0	230	101300000	1000	0	0	-1	0
25314323	1003	0	0	-100	0	230	101300000	1000	0	0	-1	0
25326883	995	3	0	-100	0	230	101300000	1000	0	0	-1	0
25339443	998	1	0	-100	0	230	101300000	1000	0	0	-1	0
25352004	998	0	0	-100	0	230	101300000	1000	0	0	-1	0
25364563	1001	0	0	-100	0	230	101300000	1000	0	0	-1	0
25377123	995	4	0	-100	0	230	101300000	1000	0	0	-1	0
25389683	998	0	0	-100	0	230	101300000	1000	0	0	-1	0
25402243	1001	0	0	-100	0	230	101300000	1000	0	0	-1	0
25414803	996	2	0	-100	0	230	101300000	1000	0	0	-1	0
25427363	1001	0	0	-100	0	230	101300000	1000	0	0	-1	0
25439923	1001	0	0	-100	0	230	101300000	1000	0	0	-1	0
25452483	1001	4	0	-100	0	230	101300000	1000	0	0	-1	0
25465043	1003	0	0	-100	0	230	101300000	1000	0	0	-1	0
25477603	998	0	0	-100	0	230	101300000	1000	0	0	-1	0
25490163	998	5	0	-100	0	230	101300000	1000	0	0	-1	0
25502723	1003	0	0	-100	0	230	101300000	1000	0	0	-1	0
25515283	995	3	0	-100	0	230	101300000	1000	0	0	-1	0
25527843	1001	0	0	-100	0	230	101300000	1000	0	0	-1	0
25540403	996	0	0	-100	0	230	101300000	1000	0	0	-1	0
25552963	996	0	0	-100	0	230	101300000	1000	0	0	-1	0
25565523	1003	0	0	-100	0	230	101300000	1000	0	0	-1	0
25578083	998	4	0	-100	0	230	101300000	1000	0	0	-1	0
25590643	1001	0	0	-100	0	230	101300000	1000	0	0	-1	0
25603203	994	2	0	-100	0	230	101300000	1000	0	0	-1	0
25615763	994	0	0	-100	0	230	101300000	1000	0	0	-1	0
25628323	1002	0	0	-100	0	230	101300000	1000	0	0	-1	0
25640883	996	4	0	-100	0	230	101300000	1000	0	0	-1	0
25653443	1000	0	0	-100	0	230	101300000	1000	0	0	-1	0
25666004	996	0	0	-100	0	230	101300000	1000	0	0	-1	0
25678563	1001	0	0	-100	0	230	101300000	1000	0	0	-1	0
25691123	996	0	0	-100	0	230	101300000	1000	0	0	-1	0
25703683	998	1	0	-100	0	230	101300000	1000	0	0	-1	0
25716243	1005	0	0	-100	0	230	101300000	1000	0	0	-1	0
25728803	998	6	0	-100	0	230	101300000	1000	0	0	-1	0
25741363	1003	0	0	-100	0	230	101300000	1000	0	0	-1	0
25753923	996	4	0	-100	0	230	101300000	1000	0	0	-1	0
25766483	1002	0	0	-100	0	230	101300000	1000	0	0	-1	0
25779043	996	1	0	-100	0	230	101300000	1000	0	0	-1	0
25791603	996	0	0	-100	0	230	101300000	1000	0	0	-1	0
25804163	1003	0	0	-100	0	230	101300000	1000	0	0	-1	0
25816723	996	4	0	-100	0	230	101300000	1000	0	0	-1	0
25829283	1000	0	0	-100	0	230	101300000	1000	0	0	-1	0
25841843	1001	1	0	-100	0	230	101300000	1000	0	0	-1	0
25854403	996	4	0	-100	0	230	101300000	1000	0	0	-1	0
25866963	1001	0	0	-100	0	230	101300000	1000	0	0	-1	0
25879523	996	0	0	-100	0	230	101300000	1000	0	0	-1	0
25892083	998	4	0	-100	0	230	101300000	1000	0	0	-1	0
25904643	998	0	0	-100	0	230	101300000	1000	0	0	-1	0
25917203	1003	0	0	-100	0	230	101300000	1000	0	0	-1	0
25929763	998	4	0	-100	0	230	101300000	1000	0	0	-1	0
25942323	1000	0	0	-100	0	230	101300000	1000	0	0	-1	0
25954883	1003	0	0	-100	0	230	101300000	1000	0	0	-1	0
25967443	996	5	0	-100	0	230	101300000	1000	0	0	-1	0
25980004	1003	0	0	-100	0	230	101300000	1000	0	0	-1	0
25992563	1005	0	0	-100	0	230	101300000	1000	0	0	-1	0
26005123	996	4	0	-100	0	230	101300000	1000	0	0	-1	0
26017683	998	0	0	-100	0	230	101300000	1000	0	0	-1	0
26030243	999	0	0	-100	0	230	101300000	1000	0	0	-1	0
26042803	996	4	0	-100	0	230	101300000	1000	0	0	-1	0
26055363	1000	0	0	-100	0	230	101300000	1000	0	0	-1	0
26067923	995	2	0	-100	0	230	101300000	1000	0	0	-1	0
26080483	1000	0	0	-100	0	230	101300000	1000	0	0	-1	0
26093043	999	0	0	-100	0	230	101300000	1000	0	0	-1	0
26105603	993	0	0	-100	0	230	101300000	1000	0	0	-1	0
26118163	1000	0	0	-100	0	230	101300000	1000	0	0	-1	0
26130723	996	3	0	-100	0	230	101300000	1000	0	0	-1	0
26143283	996	0	0	-100	0	230	101300000	1000	0	0	-1	0
26155843	1003	0	0	-100	0	230	101300000	1000	0	0	-1	0
26168403	996	1	0	-100	0	230	101300000	1000	0	0	-1	0
26180963	996	4	0	-100	0	230	101300000	1000	0	0	-1	0
26193523	1001	0	0	-100	0	230	101300000	1000	0	0	-1	0
26206083	1006	0	0	-100	0	230	101300000	1000	0	0	-1	0
26218643	996	4	0	-100	0	230	101300000	1000	0	0	-1	0
26231203	996	0	0	-100	0	230	101300000	1000	0	0	-1	0
26243763	1003	0	0	-100	0	230	101300000	1000	0	0	-1	0
26256323	1005	0	0	-100	0	230	101300000	1000	0	0	-1	0
26268883	994	1	0	-100	0	230	101300000	1000	0	0	-1	0
26281443	998	4	0	-100	0	230	101300000	1000	0	0	-1	0
26294004	1001	0	0	-100	0	230	101300000	1000	0	0	-1	0
26306563	1005	0	0	-100	0	230	101300000	1000	0	0	-1	0
26319123	996	1	0	-100	0	230	101300000	1000	0	0	-1	0
26331683	996	3	0	-100	0	230	101300000	1000	0	0	-1	0
26344243	993	0	0	-100	0	230	101300000	1000	0	0	-1	0
26356803	1000	0	0	-100	0	230	101300000	1000	0	0	-1	0
26369363	1002	0	0	-100	0	230	101300000	1000	0	0	-1	0
26381923	998	2	0	-100	0	230	101300000	1000	0	0	-1	0
26394483	998	4	0	-100	0	230	101300000	1000	0	0	-1	0
26407043	1000	0	0	-100	0	230	101300000	1000	0	0	-1	0
26419603	1003	0	0	-100	0	230	101300000	1000	0	0	-1	0
26432163	996	3	0	-100	0	230	101300000	1000	0	0	-1	0
26444723	996	0	0	-100	0	230	101300000	1000	0	0	-1	0
26457283	1003	0	0	-100	0	230	101300000	1000	0	0	-1	0
26469843	998	2	0	-100	0	230	101300000	1000	0	0	-1	0
26482403	996	4	0	-100	0	230	101300000	1000	0	0	-1	0
26494963	998	0	0	-100	0	230	101300000	1000	0	0	-1	0
26507523	1005	0	0	-100	0	230	101300000	1000	0	0	-1	0
26520083	996	2	0	-100	0	230	101300000	1000	0	0	-1	0
26532643	995	0	0	-100	0	230	101300000	1000	0	0	-1	0
26545203	1003	0	0	-100	0	230	101300000	1000	0	0	-1	0
26557763	996	0	0	-100	0	230	101300000	1000	0	0	-1	0
26570323	998	5	0	-100	0	230	101300000	1000	0	0	-1	0
26582883	1000	0	0	-100	0	230	101300000	1000	0	0	-1	0
26595443	1002	0	0	-100	0	230	101300000	1000	0	0	-1	0
26608004	996	0	0	-100	0	230	101300000	1000	0	0	-1	0
26620563	995	0	0	-100	0	230	101300000	1000	0	0	-1	0
26633123	1003	0	0	-100	0	230	101300000	1000	0	0	-1	0
26645683	998	0	0	-100	0	230	101300000	1000	0	0	-1	0
26658243	994	3	0	-100	0	230	101300000	1000	0	0	-1	0
26670803	999	4	0	-100	0	230	101300000	1000	0	0	-1	0
26683363	1001	0	0	-100	0	230	101300000	1000	0	0	-1	0
26695923	1005	0	0	-100	0	230	101300000	1000	0	0	-1	0
26708483	994	1	0	-100	0	230	101300000	1000	0	0	-1	0
26721043	996	0	0	-100	0	230	101300000	1000	0	0	-1	0
26733603	1003	0	0	-100	0	230	101300000	1000	0	0	-1	0
26746163	1000	0	0	-100	0	230	101300000	1000	0	0	-1	0
26758723	998	0	0	-100	0	230	101300000	1000	0	0	-1	0
26771283	996	3	0	-100	0	230	101300000	1000	0	0	-1	0
26783843	998	0	0	-100	0	230	101300000	1000	0	0	-1	0
26796403	1001	0	0	-100	0	230	101300000	1000	0	0	-1	0
26808963	1003	0	0	-100	0	230	101300000	1000	0	0	-1	0
26821523	996	2	0	-100	0	230	101300000	1000	0	0	-1	0
26834083	998	0	0	-100	0	230	101300000	1000	0	0	-1	0
26846643	1003	0	0	-100	0	230	101300000	1000	0	0	-1	0
26859203	998	0	0	-100	0	230	101300000	1000	0	0	-1	0
26871763	998	5	0	-100	0	230	101300000	1000	0	0	-1	0
26884323	1000	0	0	-100	0	230	101300000	1000	0	0	-1	0
26896883	996	1	0	-100	0	230	101300000	1000	0	0	-1	0
26909443	995	0	0	-100	0	230	101300000	1000	0	0	-1	0
26922004	995	1	0	-100	0	230	101300000	1000	0	0	-1	0
26934563	996	4	0	-100	0	230	101300000	1000	0	0	-1	0
26947123	998	0	0	-100	0	230	101300000	1000	0	0	-1	0
26959683	1003	0	0	-100	0	230	101300000	1000	0	0	-1	0
26972243	996	2	0	-100	0	230	101300000	1000	0	0	-1	0
26984803	996	4	0	-100	0	230	101300000	1000	0	0	-1	0
26997363	998	0	0	-100	0	230	101300000	1000	0	0	-1	0
27009923	1003	0	0	-100	0	230	101300000	1000	0	0	-1	0
27022483	1003	0	0	-100	0	230	101300000	1000	0	0	-1	0
27035043	998	3	0	-100	0	230	101300000	1000	0	0	-1	0
27047603	996	0	0	-100	0	230	101300000	1000	0	0	-1	0
27060163	998	0	0	-100	0	230	101300000	1000	0	0	-1	0
27072723	1005	0	0	-100	0	230	101300000	1000	0	0	-1	0
27085283	996	3	0	-100	0	230	101300000	1000	0	0	-1	0
27097843	995	0	0	-100	0	230	101300000	1000	0	0	-1	0
27110403	1001	0	0	-100	0	230	101300000	1000	0	0	-1	0
27122963	1005	0	0	-100	0	230	101300000	1000	0	0	-1	0
27135523	999	0	0	-100	0	230	101300000	1000	0	0	-1	0
27148083	994	2	0	-100	0	230	101300000	1000	0	0	-1	0
27160643	996	3	0	-100	0	230	101300000	1000	0	0	-1	0
27173203	998	0	0	-100	0	230	101300000	1000	0	0	-1	0
27185763	1003	0	0	-100	0	230	101300000	1000	0	0	-1	0
27198323	1001	0	0	-100	0	230	101300000	1000	0	0	-1	0
27210883	996	3	0	-100	0	230	101300000	1000	0	0	-1	0
27223443	998	2	0	-100	0	230	101300000	1000	0	0	-1	0
27236004	998	0	0	-100	0	230	101300000	1000	0	0	-1	0
27248563	1004	0	0	-100	0	230	101300000	1000	0	0	-1	0
27261123	996	3	0	-100	0	230	101300000	1000	0	0	-1	0
27273683	998	2	0	-100	0	230	101300000	1000	0	0	-1	0
27286243	1000	0	0	-100	0	230	101300000	1000	0	0	-1	0
27298803	1008	0	0	-100	0	230	101300000	1000	0	0	-1	0
27311363	996	4	0	-100	0	230	101300000	1000	0	0	-1	0
27323923	995	0	0	-100	0	230	101300000	1000	0	0	-1	0
27336483	1002	0	0	-100	0	230	101300000	1000	0	0	-1	0
27349043	1000	0	0	-100	0	230	101300000	1000	0	0	-1	0
27361603	996	4	0	-100	0	230	101300000	1000	0	0	-1	0
27374163	996	0	0	-100	0	230	101300000	1000	0	0	-1	0
27386723	1003	0	0	-100	0	230	101300000	1000	0	0	-1	0
27399283	1003	0	0	-100	0	230	101300000	1000	0	0	-1	0
27411843	994	1	0	-100	0	230	101300000	1000	0	0	-1	0
27424403	1001	4	0	-100	0	230	101300000	1000	0	0	-1	0
27436963	1002	0	0	-100	0	230	101300000	1000	0	0	-1	0
27449523	998	0	0	-100	0	230	101300000	1000	0	0	-1	0
27462083	1000	3	0	-100	0	230	101300000	1000	0	0	-1	0
27474643	1003	0	0	-100	0	230	101300000	1000	0	0	-1	0
27487203	994	1	0	-100	0	230	101300000	1000	0	0	-1	0
27499763	995	0	0	-100	0	230	101300000	1000	0	0	-1	0
27512323	1005	0	0	-100	0	230	101300000	1000	0	0	-1	0
27524883	994	1	0	-100	0	230	101300000	1000	0	0	-1	0
27537443	995	0	0	-100	0	230	101300000	1000	0	0	-1	0
27550004	996	1	0	-100	0	230	101300000	1000	0	0	-1	0
27562563	995	0	0	-100	0	230	101300000	1000	0	0	-1	0
27575123	996	4	0	-100	0	230	101300000	1000	0	0	-1	0
27587683	995	0	0	-100	0	230	101300000	1000	0	0	-1	0
27600243	1000	0	0	-100	0	230	101300000	1000	0	0	-1	0
27612803	1003	0	0	-100	0	230	101300000	1000	0	0	-1	0
27625363	1003	0	0	-100	0	230	101300000	1000	0	0	-1	0
27637923	998	0	0	-100	0	230	101300000	1000	0	0	-1	0
27650483	994	1	0	-100	0	230	101300000	1000	0	0	-1	0
27663043	996	4	0	-100	0	230	101300000	1000	0	0	-1	0
27675603	995	4	0	-100	0	230	101300000	1000	0	0	-1	0
27688163	998	2	0	-100	0	230	101300000	1000	0	0	-1	0
27700723	996	0	0	-100	0	230	101300000	1000	0	0	-1	0
27713283	998	0	0	-100	0	230	101300000	1000	0	0	-1	0
27725843	1001	0	0	-100	0	230	101300000	1000	0	0	-1	0
27738403	1003	0	0	-100	0	230	101300000	1000	0	0	-1	0
27750963	1001	0	0	-100	0	230	101300000	1000	0	0	-1	0
27763523	996	4	0	-100	0	230	101300000	1000	0	0	-1	0
27776083	1001	0	0	-100	0	230	101300000	1000	0	0	-1	0
27788643	998	0	0	-100	0	230	101300000	1000	0	0	-1	0
27801203	998	4	0	-100	0	230	101300000	1000	0	0	-1	0
27813763	1003	0	0	-100	0	230	101300000	1000	0	0	-1	0
27826323	997	0	0	-100	0	230	101300000	1000	0	0	-1	0
27838883	1001	1	0	-100	0	230	101300000	1000	0	0	-1	0
27851443	996	0	0	-100	0	230	101300000	1000	0	0	-1	0
27864004	993	2	0	-100	0	230	101300000	1000	0	0	-1	0
27876563	996	1	0	-100	0	230	101300000	1000	0	0	-1	0
27889123	996	4	0	-100	0	230	101300000	1000	0	0	-1	0
27901683	998	0	0	-100	0	230	101300000	1000	0	0	-1	0
27914243	1003	0	0	-100	0	230	101300000	1000	0	0	-1	0
27926803	1005	0	0	-100	0	230	101300000	1000	0	0	-1	0
27939363	996	0	0	-100	0	230	101300000	1000	0	0	-1	0
27951923	998	4	0	-100	0	230	101300000	1000	0	0	-1	0
27964483	996	0	0	-100	0	230	101300000	1000	0	0	-1	0
27977043	1000	0	0	-100	0	230	101300000	1000	0	0	-1	0
27989603	1001	0	0	-100	0	230	101300000	1000	0	0	-1	0
28002163	996	2	0	-100	0	230	101300000	1000	0	0	-1	0
28014723	995	0	0	-100	0	230	101300000	1000	0	0	-1	0
28027283	998	0	0	-100	0	230	101300000	1000	0	0	-1	0
28039843	1003	0	0	-100	0	230	101300000	1000	0	0	-1	0
28052403	1001	0	0	-100	0	230	101300000	1000	0	0	-1	0
28064963	993	4	0	-100	0	230	101300000	1000	0	0	-1	0
28077523	996	0	0	-100	0	230	101300000	1000	0	0	-1	0
28090083	1002	0	0	-100	0	230	101300000	1000	0	0	-1	0
28102643	1002	0	0	-100	0	230	101300000	1000	0	0	-1	0
28115203	995	2	0	-100	0	230	101300000	1000	0	0	-1	0
28127763	998	4	0	-100	0	230	101300000	1000	0	0	-1	0
28140323	1001	0	0	-100	0	230	101300000	1000	0	0	-1	0
28152883	996	1	0	-100	0	230	101300000	1000	0	0	-1	0
28165443	996	0	0	-100	0	230	101300000	1000	0	0	-1	0
28178004	995	3	0	-100	0	230	101300000	1000	0	0	-1	0
28190563	996	4	0	-100	0	230	101300000	1000	0	0	-1	0
28203123	998	0	0	-100	0	230	101300000	1000	0	0	-1	0
28215683	1004	0	0	-100	0	230	101300000	1000	0	0	-1	0
28228243	996	4	0	-100	0	230	101300000	1000	0	0	-1	0
28240803	998	0	0	-100	0	230	101300000	1000	0	0	-1	0
28253363	1005	0	0	-100	0	230	101300000	1000	0	0	-1	0
28265923	998	2	0	-100	0	230	101300000	1000	0	0	-1	0
28278483	1003	0	0	-100	0	230	101300000	1000	0	0	-1	0
28291043	1001	0	0	-100	0	230	101300000	1000	0	0	-1	0
28303603	1001	4	0	-100	0	230	101300000	1000	0	0	-1	0
28316163	1000	0	0	-100	0	230	101300000	1000	0	0	-1	0
28328723	1005	0	0	-100	0	230	101300000	1000	0	0	-1	0
28341283	996	4	0	-100	0	230	101300000	1000	0	0	-1	0
28353843	995	0	0	-100	0	230	101300000	1000	0	0	-1	0
28366403	1003	0	0	-100	0	230	101300000	1000	0	0	-1	0
28378963	996	1	0	-100	0	230	101300000	1000	0	0	-1	0
28391523	998	0	0	-100	0	230	101300000	1000	0	0	-1	0
28404083	1003	0	0	-100	0	230	101300000	1000	0	0	-1	0
28416643	995	2	0	-100	0	230	101300000	1000	0	0	-1	0
28429203	996	0	0	-100	0	230	101300000	1000	0	0	-1	0
28441763	1003	0	0	-100	0	230	101300000	1000	0	0	-1	0
28454323	995	2	0	-100	0	230	101300000	1000	0	0	-1	0
28466883	996	0	0	-100	0	230	101300000	1000	0	0	-1	0
28479443	1003	0	0	-100	0	230	101300000	1000	0	0	-1	0
28492004	995	0	0	-100	0	230	101300000	1000	0	0	-1	0
28504563	998	0	0	-100	0	230	101300000	1000	0	0	-1	0
28517123	1005	0	0	-100	0	230	101300000	1000	0	0	-1	0
28529683	996	2	0	-100	0	230	101300000	1000	0	0	-1	0
28542243	998	0	0	-100	0	230	101300000	1000	0	0	-1	0
28554803	1003	0	0	-100	0	230	101300000	1000	0	0	-1	0
28567363	995	2	0	-100	0	230	101300000	1000	0	0	-1	0
28579923	996	0	0	-100	0	230	101300000	1000	0	0	-1	0
28592483	1003	0	0	-100	0	230	101300000	1000	0	0	-1	0
28605043	996	0	0	-100	0	230	101300000	1000	0	0	-1	0
28617603	998	0	0	-100	0	230	101300000	1000	0	0	-1	0
28630163	1003	0	0	-100	0	230	101300000	1000	0	0	-1	0
28642723	998	4	0	-100	0	230	101300000	1000	0	0	-1	0
28655283	1001	0	0	-100	0	230	101300000	1000	0	0	-1	0
28667843	1001	0	0	-100	0	230	101300000	1000	0	0	-1	0
28680403	998	5	0	-100	0	230	101300000	1000	0	0	-1	0
28692963	998	0	0	-100	0	230	101300000	1000	0	0	-1	0
28705523	1005	0	0	-100	0	230	101300000	1000	0	0	-1	0
28718083	998	5	0	-100	0	230	101300000	1000	0	0	-1	0
28730643	1000	1	0	-100	0	230	101300000	1000	0	0	-1	0
28743203	995	4	0	-100	0	230	101300000	1000	0	0	-1	0
28755763	1003	0	0	-100	0	230	101300000	1000	0	0	-1	0
28768323	994	0	0	-100	0	230	101300000	1000	0	0	-1	0
28780883	998	0	0	-100	0	230	101300000	1000	0	0	-1	0
28793443	1003	0	0	-100	0	230	101300000	1000	0	0	-1	0
28806004	1003	0	0	-100	0	230	101300000	1000	0	0	-1	0
28818563	1003	0	0	-100	0	230	101300000	1000	0	0	-1	0
28831123	998	0	0	-100	0	230	101300000	1000	0	0	-1	0
28843683	998	3	0	-100	0	230	101300000	1000	0	0	-1	0
28856243	998	0	0	-100	0	230	101300000	1000	0	0	-1	0
28868803	1003	0	0	-100	0	230	101300000	1000	0	0	-1	0
28881363	998	0	0	-100	0	230	101300000	1000	0	0	-1	0
28893923	996	3	0	-100	0	230	101300000	1000	0	0	-1	0
28906483	996	0	0	-100	0	230	101300000	1000	0	0	-1	0
28919043	1003	0	0	-100	0	230	101300000	1000	0	0	-1	0
28931603	1002	0	0	-100	0	230	101300000	1000	0	0	-1	0
28944163	996	1	0	-100	0	230	101300000	1000	0	0	-1	0
28956723	998	1	0	-100	0	230	101300000	1000	0	0	-1	0
28969283	1003	0	0	-100	0	230	101300000	1000	0	0	-1	0
28981843	996	0	0	-100	0	230	101300000	1000	0	0	-1	0
28994403	998	5	0	-100	0	230	101300000	1000	0	0	-1	0
29006963	996	0	0	-100	0	230	101300000	1000	0	0	-1	0
29019523	1003	0	0	-100	0	230	101300000	1000	0	0	-1	0
29032083	996	3	0	-100	0	230	101300000	1000	0	0	-1	0
29044643	996	0	0	-100	0	230	101300000	1000	0	0	-1	0
29057203	1003	0	0	-100	0	230	101300000	1000	0	0	-1	0
29069763	998	0	0	-100	0	230	101300000	1000	0	0	-1	0
29082323	1003	0	0	-100	0	230	101300000	1000	0	0	-1	0
29094883	994	3	0	-100	0	230	101300000	1000	0	0	-1	0
29107443	1001	0	0	-100	0	230	101300000	1000	0	0	-1	0
29120004	1001	2	0	-100	0	230	101300000	1000	0	0	-1	0
29132563	996	0	0	-100	0	230	101300000	1000	0	0	-1	0
29145123	1003	0	0	-100	0	230	101300000	1000	0	0	-1	0
29157683	993	2	0	-100	0	230	101300000	1000	0	0	-1	0
29170243	995	0	0	-100	0	230	101300000	1000	0	0	-1	0
29182803	1005	0	0	-100	0	230	101300000	1000	0	0	-1	0
29195363	996	3	0	-100	0	230	101300000	1000	0	0	-1	0
29207923	996	0	0	-100	0	230	101300000	1000	0	0	-1	0
29220483	1003	0	0	-100	0	230	101300000	1000	0	0	-1	0
29233043	998	4	0	-100	0	230	101300000	1000	0	0	-1	0
29245603	1000	0	0	-100	0	230	101300000	1000	0	0	-1	0
29258163	998	0	0	-100	0	230	101300000	1000	0	0	-1	0
29270723	998	4	0	-100	0	230	101300000	1000	0	0	-1	0
29283283	1000	0	0	-100	0	230	101300000	1000	0	0	-1	0
29295843	998	1	0	-100	0	230	101300000	1000	0	0	-1	0
29308403	993	0	0	-100	0	230	101300000	1000	0	0	-1	0
29320963	1005	0	0	-100	0	230	101300000	1000	0	0	-1	0
29333523	993	1	0	-100	0	230	101300000	1000	0	0	-1	0
29346083	998	5	0	-100	0	230	101300000	1000	0	0	-1	0
29358643	998	0	0	-100	0	230	101300000	1000	0	0	-1	0
29371203	998	0	0	-100	0	230	101300000	1000	0	0	-1	0
29383763	998	0	0	-100	0	230	101300000	1000	0	0	-1	0
29396323	995	0	0	-100	0	230	101300000	1000	0	0	-1	0
29408883	996	0	0	-100	0	230	101300000	1000	0	0	-1	0
29421443	995	0	0	-100	0	230	101300000	1000	0	0	-1	0
29434004	1003	0	0	-100	0	230	101300000	1000	0	0	-1	0
29446563	996	0	0	-100	0	230	101300000	1000	0	0	-1	0
29459123	996	0	0	-100	0	230	101300000	1000	0	0	-1	0
29471683	996	0	0	-100	0	230	101300000	1000	0	0	-1	0
29484243	995	0	0	-100	0	230	101300000	1000	0	0	-1	0
29496803	998	0	0	-100	0	230	101300000	1000	0	0	-1	0
29509363	996	0	0	-100	0	230	101300000	1000	0	0	-1	0
29521923	998	0	0	-100	0	230	101300000	1000	0	0	-1	0
29534483	1000	0	0	-100	0	230	101300000	1000	0	0	-1	0
29547043	1001	0	0	-100	0	230	101300000	1000	0	0	-1	0
29559603	1003	0	0	-100	0	230	101300000	1000	0	0	-1	0
29572163	1003	0	0	-100	0	230	101300000	1000	0	0	-1	0
29584723	1001	0	0	-100	0	230	101300000	1000	0	0	-1	0
29597283	996	0	0	-100	0	230	101300000	1000	0	0	-1	0
29609843	995	3	0	-100	0	230	101300000	1000	0	0	-1	0
29622403	998	4	0	-100	0	230	101300000	1000	0	0	-1	0
29634963	996	4	0	-100	0	230	101300000	1000	0	0	-1	0
29647523	996	4	0	-100	0	230	101300000	1000	0	0	-1	0
29660083	996	0	0	-100	0	230	101300000	1000	0	0	-1	0
29672643	1001	0	0	-100	0	230	101300000	1000	0	0	-1	0
29685203	1005	0	0	-100	0	230	101300000	1000	0	0	-1	0
29697763	998	0	0	-100	0	230	101300000	1000	0	0	-1	0
29710323	996	4	0	-100	0	230	101300000	1000	0	0	-1	0
29722883	996	0	0	-100	0	230	101300000	1000	0	0	-1	0
29735443	1001	0	0	-100	0	230	101300000	1000	0	0	-1	0
29748004	995	1	0	-100	0	230	101300000	1000	0	0	-1	0
29760563	1005	0	0	-100	0	230	101300000	1000	0	0	-1	0
29773123	1001	0	0	-100	0	230	101300000	1000	0	0	-1	0
29785683	1001	0	0	-100	0	230	101300000	1000	0	0	-1	0
29798243	999	0	0	-100	0	230	101300000	1000	0	0	-1	0
29810803	1003	0	0	-100	0	230	101300000	1000	0	0	-1	0
29823363	1005	0	0	-100	0	230	101300000	1000	0	0	-1	0
29835923	1005	0	0	-100	0	230	101300000	1000	0	0	-1	0
29848483	1001	0	0	-100	0	230	101300000	1000	0	0	-1	0
29861043	1003	0	0	-100	0	230	101300000	1000	0	0	-1	0
29873603	1003	0	0	-100	0	230	101300000	1000	0	0	-1	0
29886163	1003	0	0	-100	0	230	101300000	1000	0	0	-1	0
29898723	1003	0	0	-100	0	230	101300000	1000	0	0	-1	0
29911283	1002	0	0	-100	0	230	101300000	1000	0	0	-1	0
29923843	1003	0	0	-100	0	230	101300000	1000	0	0	-1	0
29936403	1001	0	0	-100	0	230	101300000	1000	0	0	-1	0
29948963	998	0	0	-100	0	230	101300000	1000	0	0	-1	0
29961523	996	0	0	-100	0	230	101300000	1000	0	0	-1	0
29974083	995	2	0	-100	0	230	101300000	1000	0	0	-1	0
29986643	996	1	0	-100	0	230	101300000	1000	0	0	-1	0
29999203	996	1	0	-100	0	230	101300000	1000	0	0	-1	0
30011763	994	1	0	-100	0	230	101300000	1000	0	0	-1	0
30024323	996	2	0	-100	0	230	101300000	1000	0	0	-1	0
30036883	999	4	0	-100	0	230	101300000	1000	0	0	-1	0
30049443	996	3	0	-100	0	230	101300000	1000	0	0	-1	0
30062004	998	0	0	-100	0	230	101300000	1000	0	0	-1	0
30074563	998	3	0	-100	0	230	101300000	1000	0	0	-1	0
30087123	996	2	0	-100	0	230	101300000	1000	0	0	-1	0
30099683	1003	0	0	-100	0	230	101300000	1000	0	0	-1	0
30112243	1002	0	0	-100	0	230	101300000	1000	0	0	-1	0
30124803	1003	0	0	-100	0	230	101300000	1000	0	0	-1	0
30137363	998	0	0	-100	0	230	101300000	1000	0	0	-1	0
30149923	995	0	0	-100	0	230	101300000	1000	0	0	-1	0
30162483	996	0	0	-100	0	230	101300000	1000	0	0	-1	0
30175043	998	0	0	-100	0	230	101300000	1000	0	0	-1	0
30187603	998	5	0	-100	0	230	101300000	1000	0	0	-1	0
30200163	998	3	0	-100	0	230	101300000	1000	0	0	-1	0
30212723	998	4	0	-100	0	230	101300000	1000	0	0	-1	0
30225283	993	2	0	-100	0	230	101300000	1000	0	0	-1	0
30237843	996	0	0	-100	0	230	101300000	1000	0	0	-1	0
30250403	1003	0	0	-100	0	230	101300000	1000	0	0	-1	0
30262963	1003	0	0	-100	0	230	101300000	1000	0	0	-1	0
30275523	1002	0	0	-100	0	230	101300000	1000	0	0	-1	0
30288083	1001	0	0	-100	0	230	101300000	1000	0	0	-1	0
30300643	998	0	0	-100	0	230	101300000	1000	0	0	-1	0
30313203	998	0	0	-100	0	230	101300000	1000	0	0	-1	0
30325763	996	4	0	-100	0	230	101300000	1000	0	0	-1	0
30338323	996	0	0	-100	0	230	101300000	1000	0	0	-1	0
30350883	1003	0	0	-100	0	230	101300000	1000	0	0	-1	0
30363443	1003	0	0	-100	0	230	101300000	1000	0	0	-1	0
30376004	998	0	0	-100	0	230	101300000	1000	0	0	-1	0
30388563	1001	0	0	-100	0	230	101300000	1000	0	0	-1	0
30401123	995	0	0	-100	0	230	101300000	1000	0	0	-1	0
30413683	998	4	0	-100	0	230	101300000	1000	0	0	-1	0
30426243	996	1	0	-100	0	230	101300000	1000	0	0	-1	0
30438803	1001	0	0	-100	0	230	101300000	1000	0	0	-1	0
30451363	1003	0	0	-100	0	230	101300000	1000	0	0	-1	0
30463923	1001	0	0	-100	0	230	101300000	1000	0	0	-1	0
30476483	998	0	0	-100	0	230	101300000	1000	0	0	-1	0
30489043	995	0	0	-100	0	230	101300000	1000	0	0	-1	0
30501603	996	4	0	-100	0	230	101300000	1000	0	0	-1	0
30514163	996	5	0	-100	0	230	101300000	1000	0	0	-1	0
30526723	993	3	0	-100	0	230	101300000	1000	0	0	-1	0
30539283	996	0	0	-100	0	230	101300000	1000	0	0	-1	0
30551843	1003	0	0	-100	0	230	101300000	1000	0	0	-1	0
30564403	1003	0	0	-100	0	230	101300000	1000	0	0	-1	0
30576963	1003	0	0	-100	0	230	101300000	1000	0	0	-1	0
30589523	996	0	0	-100	0	230	101300000	1000	0	0	-1	0
30602083	998	4	0	-100	0	230	101300000	1000	0	0	-1	0
30614643	996	0	0	-100	0	230	101300000	1000	0	0	-1	0
30627203	1001	0	0	-100	0	230	101300000	1000	0	0	-1	0
30639763	1002	0	0	-100	0	230	101300000	1000	0	0	-1	0
30652323	1003	0	0	-100	0	230	101300000	1000	0	0	-1	0
30664883	1003	0	0	-100	0	230	101300000	1000	0	0	-1	0
30677443	1005	0	0	-100	0	230	101300000	1000	0	0	-1	0
30690004	993	3	0	-100	0	230	101300000	1000	0	0	-1	0
30702563	1005	0	0	-100	0	230	101300000	1000	0	0	-1	0
30715123	1003	0	0	-100	0	230	101300000	1000	0	0	-1	0
30727683	1000	0	0	-100	0	230	101300000	1000	0	0	-1	0
30740243	1000	0	0	-100	0	230	101300000	1000	0	0	-1	0
30752803	998	0	0	-100	0	230	101300000	1000	0	0	-1	0
30765363	998	0	0	-100	0	230	101300000	1000	0	0	-1	0
30777923	995	0	0	-100	0	230	101300000	1000	0	0	-1	0
30790483	998	0	0	-100	0	230	101300000	1000	0	0	-1	0
30803043	1001	0	0	-100	0	230	101300000	1000	0	0	-1	0
30815603	998	0	0	-100	0	230	101300000	1000	0	0	-1	0
30828163	996	0	0	-100	0	230	101300000	1000	0	0	-1	0
30840723	998	0	0	-100	0	230	101300000	1000	0	0	-1	0
30853283	1001	0	0	-100	0	230	101300000	1000	0	0	-1	0
30865843	1003	0	0	-100	0	230	101300000	1000	0	0	-1	0
30878403	1005	0	0	-100	0	230	101300000	1000	0	0	-1	0
30890963	1003	0	0	-100	0	230	101300000	1000	0	0	-1	0
30903523	995	1	0	-100	0	230	101300000	1000	0	0	-1	0
30916083	996	5	0	-100	0	230	101300000	1000	0	0	-1	0
30928643	994	0	0	-100	0	230	101300000	1000	0	0	-1	0
30941203	1001	0	0	-100	0	230	101300000	1000	0	0	-1	0
30953763	1003	0	0	-100	0	230	101300000	1000	0	0	-1	0
30966323	994	2	0	-100	0	230	101300000	1000	0	0	-1	0
30978883	996	4	0	-100	0	230	101300000	1000	0	0	-1	0
30991443	998	0	0	-100	0	230	101300000	1000	0	0	-1	0
31004004	1006	0	0	-100	0	230	101300000	1000	0	0	-1	0
31016563	998	0	0	-100	0	230	101300000	1000	0	0	-1	0
31029123	1001	0	0	-100	0	230	101300000	1000	0	0	-1	0
31041683	1000	0	0	-100	0	230	101300000	1000	0	0	-1	0
31054243	998	0	0	-100	0	230	101300000	1000	0	0	-1	0
31066803	996	0	0	-100	0	230	101300000	1000	0	0	-1	0
31079363	995	0	0	-100	0	230	101300000	1000	0	0	-1	0
31091923	998	0	0	-100	0	230	101300000	1000	0	0	-1	0
31104483	998	4	0	-100	0	230	101300000	1000	0	0	-1	0
31117043	996	4	0	-100	0	230	101300000	1000	0	0	-1	0
31129603	999	4	0	-100	0	230	101300000	1000	0	0	-1	0
31142163	996	3	0	-100	0	230	101300000	1000	0	0	-1	0
31154723	996	0	0	-100	0	230	101300000	1000	0	0	-1	0
31167283	995	0	0	-100	0	230	101300000	1000	0	0	-1	0
31179843	998	1	0	-100	0	230	101300000	1000	0	0	-1	0
31192403	998	4	0	-100	0	230	101300000	1000	0	0	-1	0
31204963	998	5	0	-100	0	230	101300000	1000	0	0	-1	0
31217523	996	6	0	-100	0	230	101300000	1000	0	0	-1	0
31230083	995	4	0	-100	0	230	101300000	1000	0	0	-1	0
31242643	996	4	0	-100	0	230	101300000	1000	0	0	-1	0
31255203	996	4	0	-100	0	230	101300000	1000	0	0	-1	0
31267763	996	3	0	-100	0	230	101300000	1000	0	0	-1	0
31280323	998	1	0	-100	0	230	101300000	1000	0	0	-1	0
31292883	995	0	0	-100	0	230	101300000	1000	0	0	-1	0
31305443	995	0	0	-100	0	230	101300000	1000	0	0	-1	0
31318004	1003	0	0	-100	0	230	101300000	1000	0	0	-1	0
31330563	1003	0	0	-100	0	230	101300000	1000	0	0	-1	0
31343123	1005	0	0	-100	0	230	101300000	1000	0	0	-1	0
31355683	1005	0	0	-100	0	230	101300000	1000	0	0	-1	0
31368243	996	0	0	-100	0	230	101300000	1000	0	0	-1	0
31380803	1003	0	0	-100	0	230	101300000	1000	0	0	-1	0
31393363	1001	0	0	-100	0	230	101300000	1000	0	0	-1	0
31405923	999	0	0	-100	0	230	101300000	1000	0	0	-1	0
31418483	998	0	0	-100	0	230	101300000	1000	0	0	-1	0
31431043	1003	0	0	-100	0	230	101300000	1000	0	0	-1	0
31443603	1003	0	0	-100	0	230	101300000	1000	0	0	-1	0
31456163	996	0	0	-100	0	230	101300000	1000	0	0	-1	0
31468723	994	1	0	-100	0	230	101300000	1000	0	0	-1	0
31481283	996	4	0	-100	0	230	101300000	1000	0	0	-1	0
31493843	998	4	0	-100	0	230	101300000	1000	0	0	-1	0
31506403	995	0	0	-100	0	230	101300000	1000	0	0	-1	0
31518963	996	0	0	-100	0	230	101300000	1000	0	0	-1	0
31531523	998	0	0	-100	0	230	101300000	1000	0	0	-1	0
31544083	1003	0	0	-100	0	230	101300000	1000	0	0	-1	0
31556643	1005	0	0	-100	0	230	101300000	1000	0	0	-1	0
31569203	998	0	0	-100	0	230	101300000	1000	0	0	-1	0
31581763	999	0	0	-100	0	230	101300000	1000	0	0	-1	0
31594323	996	1	0	-100	0	230	101300000	1000	0	0	-1	0
31606883	996	2	0	-100	0	230	101300000	1000	0	0	-1	0
31619443	994	2	0	-100	0	230	101300000	1000	0	0	-1	0
31632004	996	0	0	-100	0	230	101300000	1000	0	0	-1	0
31644563	996	4	0	-100	0	230	101300000	1000	0	0	-1	0
31657123	996	5	0	-100	0	230	101300000	1000	0	0	-1	0
31669683	998	2	0	-100	0	230	101300000	1000	0	0	-1	0
31682243	995	0	0	-100	0	230	101300000	1000	0	0	-1	0
31694803	995	0	0	-100	0	230	101300000	1000	0	0	-1	0
31707363	998	0	0	-100	0	230	101300000	1000	0	0	-1	0
31719923	1001	0	0	-100	0	230	101300000	1000	0	0	-1	0
31732483	1003	0	0	-100	0	230	101300000	1000	0	0	-1	0
31745043	1003	0	0	-100	0	230	101300000	1000	0	0	-1	0
31757603	1001	0	0	-100	0	230	101300000	1000	0	0	-1	0
31770163	1003	0	0	-100	0	230	101300000	1000	0	0	-1	0
31782723	1005	0	0	-100	0	230	101300000	1000	0	0	-1	0
31795283	1003	0	0	-100	0	230	101300000	1000	0	0	-1	0
31807843	1001	0	0	-100	0	230	101300000	1000	0	0	-1	0
31820403	998	0	0	-100	0	230	101300000	1000	0	0	-1	0
31832963	997	0	0	-100	0	230	101300000	1000	0	0	-1	0
31845523	996	4	0	-100	0	230	101300000	1000	0	0	-1	0
31858083	998	3	0	-100	0	230	101300000	1000	0	0	-1	0
31870643	998	0	0	-100	0	230	101300000	1000	0	0	-1	0
31883203	1003	0	0	-100	0	230	101300000	1000	0	0	-1	0
31895763	1002	0	0	-100	0	230	101300000	1000	0	0	-1	0
31908323	1001	0	0	-100	0	230	101300000	1000	0	0	-1	0
31920883	994	2	0	-100	0	230	101300000	1000	0	0	-1	0
31933443	998	4	0	-100	0	230	101300000	1000	0	0	-1	0
31946004	1002	0	0	-100	0	230	101300000	1000	0	0	-1	0
31958563	1003	0	0	-100	0	230	101300000	1000	0	0	-1	0
31971123	1003	0	0	-100	0	230	101300000	1000	0	0	-1	0
31983683	1005	0	0	-100	0	230	101300000	1000	0	0	-1	0
31996243	1005	0	0	-100	0	230	101300000	1000	0	0	-1	0
32008803	1005	0	0	-100	0	230	101300000	1000	0	0	-1	0
32021363	1005	0	0	-100	0	230	101300000	1000	0	0	-1	0
32033923	1003	0	0	-100	0	230	101300000	1000	0	0	-1	0
32046483	1003	0	0	-100	0	230	101300000	1000	0	0	-1	0
32059043	1001	0	0	-100	0	230	101300000	1000	0	0	-1	0
32071603	1003	0	0	-100	0	230	101300000	1000	0	0	-1	0
32084163	1003	0	0	-100	0	230	101300000	1000	0	0	-1	0
32096723	1000	0	0	-100	0	230	101300000	1000	0	0	-1	0
32109283	1001	0	0	-100	0	230	101300000	1000	0	0	-1	0
32121843	996	3	0	-100	0	230	101300000	1000	0	0	-1	0
32134403	996	2	0	-100	0	230	101300000	1000	0	0	-1	0
32146963	996	4	0	-100	0	230	101300000	1000	0	0	-1	0
32159523	995	0	0	-100	0	230	101300000	1000	0	0	-1	0
32172083	996	0	0	-100	0	230	101300000	1000	0	0	-1	0
32184643	1000	0	0	-100	0	230	101300000	1000	0	0	-1	0
32197203	1000	0	0	-100	0	230	101300000	1000	0	0	-1	0
32209763	1002	0	0	-100	0	230	101300000	1000	0	0	-1	0
32222323	1003	0	0	-100	0	230	101300000	1000	0	0	-1	0
32234883	1001	0	0	-100	0	230	101300000	1000	0	0	-1	0
32247443	996	0	0	-100	0	230	101300000	1000	0	0	-1	0
32260004	995	0	0	-100	0	230	101300000	1000	0	0	-1	0
32272563	996	3	0	-100	0	230	101300000	1000	0	0	-1	0
32285123	996	4	0	-100	0	230	101300000	1000	0	0	-1	0
32297683	996	4	0	-100	0	230	101300000	1000	0	0	-1	0
32310243	998	6	0	-100	0	230	101300000	1000	0	0	-1	0
32322803	998	0	0	-100	0	230	101300000	1000	0	0	-1	0
32335363	995	0	0	-100	0	230	101300000	1000	0	0	-1	0
32347923	998	0	0	-100	0	230	101300000	1000	0	0	-1	0
32360483	1003	0	0	-100	0	230	101300000	1000	0	0	-1	0
32373043	1003	0	0	-100	0	230	101300000	1000	0	0	-1	0
32385603	996	0	0	-100	0	230	101300000	1000	0	0	-1	0
32398163	994	4	0	-100	0	230	101300000	1000	0	0	-1	0
32410723	995	0	0	-100	0	230	101300000	1000	0	0	-1	0
32423283	1002	0	0	-100	0	230	101300000	1000	0	0	-1	0
32435843	1005	0	0	-100	0	230	101300000	1000	0	0	-1	0
32448403	1001	0	0	-100	0	230	101300000	1000	0	0	-1	0
32460963	994	2	0	-100	0	230	101300000	1000	0	0	-1	0
32473523	998	5	0	-100	0	230	101300000	1000	0	0	-1	0
32486083	995	0	0	-100	0	230	101300000	1000	0	0	-1	0
32498643	1002	0	0	-100	0	230	101300000	1000	0	0	-1	0
32511203	1003	0	0	-100	0	230	101300000	1000	0	0	-1	0
32523763	1003	0	0	-100	0	230	101300000	1000	0	0	-1	0
32536323	996	1	0	-100	0	230	101300000	1000	0	0	-1	0
32548883	996	3	0	-100	0	230	101300000	1000	0	0	-1	0
32561443	998	3	0	-100	0	230	101300000	1000	0	0	-1	0
32574004	1002	0	0	-100	0	230	101300000	1000	0	0	-1	0
32586563	995	0	0	-100	0	230	101300000	1000	0	0	-1	0
32599123	1001	0	0	-100	0	230	101300000	1000	0	0	-1	0
32611683	1003	0	0	-100	0	230	101300000	1000	0	0	-1	0
32624243	1003	0	0	-100	0	230	101300000	1000	0	0	-1	0
32636803	1000	0	0	-100	0	230	101300000	1000	0	0	-1	0
32649363	995	3	0	-100	0	230	101300000	1000	0	0	-1	0
32661923	996	4	0	-100	0	230	101300000	1000	0	0	-1	0
32674483	993	0	0	-100	0	230	101300000	1000	0	0	-1	0
32687043	1003	0	0	-100	0	230	101300000	1000	0	0	-1	0
32699603	1002	0	0	-100	0	230	101300000	1000	0	0	-1	0
32712163	1003	0	0	-100	0	230	101300000	1000	0	0	-1	0
32724723	998	0	0	-100	0	230	101300000	1000	0	0	-1	0
32737283	996	3	0	-100	0	230	101300000	1000	0	0	-1	0
32749843	996	4	0	-100	0	230	101300000	1000	0	0	-1	0
32762403	996	4	0	-100	0	230	101300000	1000	0	0	-1	0
32774963	998	0	0	-100	0	230	101300000	1000	0	0	-1	0
32787523	998	1	0	-100	0	230	101300000	1000	0	0	-1	0
32800083	996	4	0	-100	0	230	101300000	1000	0	0	-1	0
32812643	996	3	0	-100	0	230	101300000	1000	0	0	-1	0
32825203	996	4	0	-100	0	230	101300000	1000	0	0	-1	0
32837763	996	2	0	-100	0	230	101300000	1000	0	0	-1	0
32850323	998	3	0	-100	0	230	101300000	1000	0	0	-1	0
32862883	1003	0	0	-100	0	230	101300000	1000	0	0	-1	0
32875443	1003	0	0	-100	0	230	101300000	1000	0	0	-1	0
32888004	998	1	0	-100	0	230	101300000	1000	0	0	-1	0
32900563	1000	0	0	-100	0	230	101300000	1000	0	0	-1	0
32913123	1001	0	0	-100	0	230	101300000	1000	0	0	-1	0
32925683	1002	0	0	-100	0	230	101300000	1000	0	0	-1	0
32938243	1002	0	0	-100	0	230	101300000	1000	0	0	-1	0
32950803	1003	0	0	-100	0	230	101300000	1000	0	0	-1	0
32963363	1003	0	0	-100	0	230	101300000	1000	0	0	-1	0
32975923	998	0	0	-100	0	230	101300000	1000	0	0	-1	0
32988483	998	0	0	-100	0	230	101300000	1000	0	0	-1	0
33001043	996	4	0	-100	0	230	101300000	1000	0	0	-1	0
33013603	996	3	0	-100	0	230	101300000	1000	0	0	-1	0
33026163	991	2	0	-100	0	230	101300000	1000	0	0	-1	0
33038723	995	2	0	-100	0	230	101300000	1000	0	0	-1	0
33051283	996	1	0	-100	0	230	101300000	1000	0	0	-1	0
33063843	995	2	0	-100	0	230	101300000	1000	0	0	-1	0
33076403	996	0	0	-100	0	230	101300000	1000	0	0	-1	0
33088963	996	0	0	-100	0	230	101300000	1000	0	0	-1	0
33101523	994	1	0	-100	0	230	101300000	1000	0	0	-1	0
33114083	995	2	0	-100	0	230	101300000	1000	0	0	-1	0
33126643	996	0	0	-100	0	230	101300000	1000	0	0	-1	0
33139203	996	0	0	-100	0	230	101300000	1000	0	0	-1	0
33151763	996	0	0	-100	0	230	101300000	1000	0	0	-1	0
33164323	996	0	0	-100	0	230	101300000	1000	0	0	-1	0
33176883	996	0	0	-100	0	230	101300000	1000	0	0	-1	0
33189443	998	0	0	-100	0	230	101300000	1000	0	0	-1	0
33202004	996	3	0	-100	0	230	101300000	1000	0	0	-1	0
33214563	1005	0	0	-100	0	230	101300000	1000	0	0	-1	0
33227123	1003	0	0	-100	0	230	101300000	1000	0	0	-1	0
33239683	1005	0	0	-100	0	230	101300000	1000	0	0	-1	0
33252243	1003	0	0	-100	0	230	101300000	1000	0	0	-1	0
33264803	1003	0	0	-100	0	230	101300000	1000	0	0	-1	0
33277363	1003	0	0	-100	0	230	101300000	1000	0	0	-1	0
33289923	1000	0	0	-100	0	230	101300000	1000	0	0	-1	0
33302483	1002	0	0	-100	0	230	101300000	1000	0	0	-1	0
33315043	1000	0	0	-100	0	230	101300000	1000	0	0	-1	0
33327603	1002	0	0	-100	0	230	101300000	1000	0	0	-1	0
33340163	1001	0	0	-100	0	230	101300000	1000	0	0	-1	0
33352723	1002	0	0	-100	0	230	101300000	1000	0	0	-1	0
33365283	1001	0	0	-100	0	230	101300000	1000	0	0	-1	0
33377843	994	1	0	-100	0	230	101300000	1000	0	0	-1	0
33390403	993	4	0	-100	0	230	101300000	1000	0	0	-1	0
33402963	998	5	0	-100	0	230	101300000	1000	0	0	-1	0
33415523	996	0	0	-100	0	230	101300000	1000	0	0	-1	0
33428083	1000	0	0	-100	0	230	101300000	1000	0	0	-1	0
33440643	1001	0	0	-100	0	230	101300000	1000	0	0	-1	0
33453203	1004	0	0	-100	0	230	101300000	1000	0	0	-1	0
33465763	996	0	0	-100	0	230	101300000	1000	0	0	-1	0
33478323	993	3	0	-100	0	230	101300000	1000	0	0	-1	0
33490883	994	3	0	-100	0	230	101300000	1000	0	0	-1	0
33503443	996	3	0	-100	0	230	101300000	1000	0	0	-1	0
33516004	1001	0	0	-100	0	230	101300000	1000	0	0	-1	0
33528563	998	4	0	-100	0	230	101300000	1000	0	0	-1	0
33541123	994	0	0	-100	0	230	101300000	1000	0	0	-1	0
33553683	996	0	0	-100	0	230	101300000	1000	0	0	-1	0
33566243	996	0	0	-100	0	230	101300000	1000	0	0	-1	0
33578803	995	0	0	-100	0	230	101300000	1000	0	0	-1	0
33591363	998	0	0	-100	0	230	101300000	1000	0	0	-1	0
33603923	998	0	0	-100	0	230	101300000	1000	0	0	-1	0
33616483	1001	0	0	-100	0	230	101300000	1000	0	0	-1	0
33629043	1000	0	0	-100	0	230	101300000	1000	0	0	-1	0
33641603	998	0	0	-100	0	230	101300000	1000	0	0	-1	0
33654163	996	0	0	-100	0	230	101300000	1000	0	0	-1	0
33666723	998	0	0	-100	0	230	101300000	1000	0	0	-1	0
33679283	1002	0	0	-100	0	230	101300000	1000	0	0	-1	0
33691843	1000	0	0	-100	0	230	101300000	1000	0	0	-1	0
33704403	1003	0	0	-100	0	230	101300000	1000	0	0	-1	0
33716963	1003	0	0	-100	0	230	101300000	1000	0	0	-1	0
33729523	1000	0	0	-100	0	230	101300000	1000	0	0	-1	0
33742083	1001	0	0	-100	0	230	101300000	1000	0	0	-1	0
33754643	998	0	0	-100	0	230	101300000	1000	0	0	-1	0
33767203	996	0	0	-100	0	230	101300000	1000	0	0	-1	0
33779763	1001	3	0	-100	0	230	101300000	1000	0	0	-1	0
33792323	998	4	0	-100	0	230	101300000	1000	0	0	-1	0
33804883	995	0	0	-100	0	230	101300000	1000	0	0	-1	0
33817443	993	0	0	-100	0	230	101300000	1000	0	0	-1	0
33830004	1005	0	0	-100	0	230	101300000	1000	0	0	-1	0
33842563	995	0	0	-100	0	230	101300000	1000	0	0	-1	0
33855123	998	0	0	-100	0	230	101300000	1000	0	0	-1	0
33867683	998	0	0	-100	0	230	101300000	1000	0	0	-1	0
33880243	998	0	0	-100	0	230	101300000	1000	0	0	-1	0
33892803	998	0	0	-100	0	230	101300000	1000	0	0	-1	0
33905363	998	0	0	-100	0	230	101300000	1000	0	0	-1	0
33917923	998	0	0	-100	0	230	101300000	1000	0	0	-1	0
33930483	996	0	0	-100	0	230	101300000	1000	0	0	-1	0
33943043	995	0	0	-100	0	230	101300000	1000	0	0	-1	0
33955603	998	0	0	-100	0	230	101300000	1000	0	0	-1	0
33968163	998	2	0	-100	0	230	101300000	1000	0	0	-1	0
33980723	996	3	0	-100	0	230	101300000	1000	0	0	-1	0
33993283	998	1	0	-100	0	230	101300000	1000	0	0	-1	0
34005843	998	0	0	-100	0	230	101300000	1000	0	0	-1	0
34018403	996	0	0	-100	0	230	101300000	1000	0	0	-1	0
34030963	993	0	0	-100	0	230	101300000	1000	0	0	-1	0
34043523	996	0	0	-100	0	230	101300000	1000	0	0	-1	0
34056083	1000	0	0	-100	0	230	101300000	1000	0	0	-1	0
34068643	1001	0	0	-100	0	230	101300000	1000	0	0	-1	0
34081203	1003	0	0	-100	0	230	101300000	1000	0	0	-1	0
34093763	1000	0	0	-100	0	230	101300000	1000	0	0	-1	0
34106323	1002	0	0	-100	0	230	101300000	1000	0	0	-1	0
34118883	1002	0	0	-100	0	230	101300000	1000	0	0	-1	0
34131443	1003	0	0	-100	0	230	101300000	1000	0	0	-1	0
34144004	996	4	0	-100	0	230	101300000	1000	0	0	-1	0
34156563	996	0	0	-100	0	230	101300000	1000	0	0	-1	0
34169123	996	0	0	-100	0	230	101300000	1000	0	0	-1	0
34181683	996	0	0	-100	0	230	101300000	1000	0	0	-1	0
34194243	1000	0	0	-100	0	230	101300000	1000	0	0	-1	0
34206803	998	0	0	-100	0	230	101300000	1000	0	0	-1	0
34219363	996	0	0	-100	0	230	101300000	1000	0	0	-1	0
34231923	1000	0	0	-100	0	230	101300000	1000	0	0	-1	0
34244483	1003	0	0	-100	0	230	101300000	1000	0	0	-1	0
34257043	1005	0	0	-100	0	230	101300000	1000	0	0	-1	0
34269603	1001	0	0	-100	0	230	101300000	1000	0	0	-1	0
34282163	1003	0	0	-100	0	230	101300000	1000	0	0	-1	0
34294723	1000	0	0	-100	0	230	101300000	1000	0	0	-1	0
34307283	1003	0	0	-100	0	230	101300000	1000	0	0	-1	0
34319843	1003	0	0	-100	0	230	101300000	1000	0	0	-1	0
34332403	1005	0	0	-100	0	230	101300000	1000	0	0	-1	0
34344963	1003	0	0	-100	0	230	101300000	1000	0	0	-1	0
34357523	1000	0	0	-100	0	230	101300000	1000	0	0	-1	0
34370083	998	0	0	-100	0	230	101300000	1000	0	0	-1	0
34382643	998	0	0	-100	0	230	101300000	1000	0	0	-1	0
34395203	998	0	0	-100	0	230	101300000	1000	0	0	-1	0
34407763	998	0	0	-100	0	230	101300000	1000	0	0	-1	0
34420323	995	0	0	-100	0	230	101300000	1000	0	0	-1	0
34432883	998	0	0	-100	0	230	101300000	1000	0	0	-1	0
34445443	998	0	0	-100	0	230	101300000	1000	0	0	-1	0
34458004	998	0	0	-100	0	230	101300000	1000	0	0	-1	0
34470563	1001	0	0	-100	0	230	101300000	1000	0	0	-1	0
34483123	1001	0	0	-100	0	230	101300000	1000	0	0	-1	0
34495683	1003	0	0	-100	0	230	101300000	1000	0	0	-1	0
34508243	1000	0	0	-100	0	230	101300000	1000	0	0	-1	0
34520803	1001	0	0	-100	0	230	101300000	1000	0	0	-1	0
34533363	1001	0	0	-100	0	230	101300000	1000	0	0	-1	0
34545923	1001	0	0	-100	0	230	101300000	1000	0	0	-1	0
34558483	1003	0	0	-100	0	230	101300000	1000	0	0	-1	0
34571043	996	1	0	-100	0	230	101300000	1000	0	0	-1	0
34583603	995	4	0	-100	0	230	101300000	1000	0	0	-1	0
34596163	998	0	0	-100	0	230	101300000	1000	0	0	-1	0
34608723	996	0	0	-100	0	230	101300000	1000	0	0	-1	0
34621283	998	0	0	-100	0	230	101300000	1000	0	0	-1	0
34633843	1000	0	0	-100	0	230	101300000	1000	0	0	-1	0
34646403	1005	0	0	-100	0	230	101300000	1000	0	0	-1	0
34658963	1003	0	0	-100	0	230	101300000	1000	0	0	-1	0
34671523	1001	0	0	-100	0	230	101300000	1000	0	0	-1	0
34684083	998	0	0	-100	0	230	101300000	1000	0	0	-1	0
34696643	994	1	0	-100	0	230	101300000	1000	0	0	-1	0
34709203	995	3	0	-100	0	230	101300000	1000	0	0	-1	0
34721763	996	1	0	-100	0	230	101300000	1000	0	0	-1	0
34734323	994	1	0	-100	0	230	101300000	1000	0	0	-1	0
34746883	996	6	0	-100	0	230	101300000	1000	0	0	-1	0
34759443	998	5	0	-100	0	230	101300000	1000	0	0	-1	0
34772004	1005	0	0	-100	0	230	101300000	1000	0	0	-1	0
34784563	998	0	0	-100	0	230	101300000	1000	0	0	-1	0
34797123	998	0	0	-100	0	230	101300000	1000	0	0	-1	0
34809683	996	0	0	-100	0	230	101300000	1000	0	0	-1	0
34822243	998	0	0	-100	0	230	101300000	1000	0	0	-1	0
34834803	998	0	0	-100	0	230	101300000	1000	0	0	-1	0
34847363	998	0	0	-100	0	230	101300000	1000	0	0	-1	0
34859923	998	0	0	-100	0	230	101300000	1000	0	0	-1	0
34872483	1001	0	0	-100	0	230	101300000	1000	0	0	-1	0
34885043	1001	0	0	-100	0	230	101300000	1000	0	0	-1	0
34897603	1003	0	0	-100	0	230	101300000	1000	0	0	-1	0
34910163	1003	0	0	-100	0	230	101300000	1000	0	0	-1	0
34922723	1003	0	0	-100	0	230	101300000	1000	0	0	-1	0
34935283	1000	0	0	-100	0	230	101300000	1000	0	0	-1	0
34947843	1002	0	0	-100	0	230	101300000	1000	0	0	-1	0
34960403	1003	0	0	-100	0	230	101300000	1000	0	0	-1	0
34972963	1000	0	0	-100	0	230	101300000	1000	0	0	-1	0
34985523	1002	0	0	-100	0	230	101300000	1000	0	0	-1	0
34998083	1002	0	0	-100	0	230	101300000	1000	0	0	-1	0
35010643	1003	0	0	-100	0	230	101300000	1000	0	0	-1	0
35023203	1005	0	0	-100	0	230	101300000	1000	0	0	-1	0
35035763	998	0	0	-100	0	230	101300000	1000	0	0	-1	0
35048323	998	0	0	-100	0	230	101300000	1000	0	0	-1	0
35060883	996	0	0	-100	0	230	101300000	1000	0	0	-1	0
35073443	996	0	0	-100	0	230	101300000	1000	0	0	-1	0
35086004	998	0	0	-100	0	230	101300000	1000	0	0	-1	0
35098563	996	3	0	-100	0	230	101300000	1000	0	0	-1	0
35111123	998	4	0	-100	0	230	101300000	1000	0	0	-1	0
35123683	998	2	0	-100	0	230	101300000	1000	0	0	-1	0
35136243	995	0	0	-100	0	230	101300000	1000	0	0	-1	0
35148803	998	0	0	-100	0	230	101300000	1000	0	0	-1	0
35161363	995	0	0	-100	0	230	101300000	1000	0	0	-1	0
35173923	1001	0	0	-100	0	230	101300000	1000	0	0	-1	0
35186483	1001	0	0	-100	0	230	101300000	1000	0	0	-1	0
35199043	1003	0	0	-100	0	230	101300000	1000	0	0	-1	0
35211603	1003	0	0	-100	0	230	101300000	1000	0	0	-1	0
35224163	1003	0	0	-100	0	230	101300000	1000	0	0	-1	0
35236723	1005	0	0	-100	0	230	101300000	1000	0	0	-1	0
35249283	996	0	0	-100	0	230	101300000	1000	0	0	-1	0
35261843	996	1	0	-100	0	230	101300000	1000	0	0	-1	0
35274403	993	3	0	-100	0	230	101300000	1000	0	0	-1	0
35286963	994	0	0	-100	0	230	101300000	1000	0	0	-1	0
35299523	996	3	0	-100	0	230	101300000	1000	0	0	-1	0
35312083	996	4	0	-100	0	230	101300000	1000	0	0	-1	0
35324643	998	6	0	-100	0	230	101300000	1000	0	0	-1	0
35337203	998	3	0	-100	0	230	101300000	1000	0	0	-1	0
35349763	996	0	0	-100	0	230	101300000	1000	0	0	-1	0
35362323	995	0	0	-100	0	230	101300000	1000	0	0	-1	0
35374883	995	0	0	-100	0	230	101300000	1000	0	0	-1	0
35387443	996	0	0	-100	0	230	101300000	1000	0	0	-1	0
35400004	998	0	0	-100	0	230	101300000	1000	0	0	-1	0
35412563	1001	0	0	-100	0	230	101300000	1000	0	0	-1	0
35425123	1003	0	0	-100	0	230	101300000	1000	0	0	-1	0
35437683	1005	0	0	-100	0	230	101300000	1000	0	0	-1	0
35450243	1008	0	0	-100	0	230	101300000	1000	0	0	-1	0
35462803	1003	0	0	-100	0	230	101300000	1000	0	0	-1	0
35475363	998	0	0	-100	0	230	101300000	1000	0	0	-1	0
35487923	996	2	0	-100	0	230	101300000	1000	0	0	-1	0
35500483	996	4	0	-100	0	230	101300000	1000	0	0	-1	0
35513043	998	2	0	-100	0	230	101300000	1000	0	0	-1	0
35525603	996	0	0	-100	0	230	101300000	1000	0	0	-1	0
35538163	996	0	0	-100	0	230	101300000	1000	0	0	-1	0
35550723	995	0	0	-100	0	230	101300000	1000	0	0	-1	0
35563283	996	0	0	-100	0	230	101300000	1000	0	0	-1	0
35575843	995	0	0	-100	0	230	101300000	1000	0	0	-1	0
35588403	995	0	0	-100	0	230	101300000	1000	0	0	-1	0
35600963	998	0	0	-100	0	230	101300000	1000	0	0	-1	0
35613523	1003	0	0	-100	0	230	101300000	1000	0	0	-1	0
35626083	1005	0	0	-100	0	230	101300000	1000	0	0	-1	0
35638643	1006	0	0	-100	0	230	101300000	1000	0	0	-1	0
35651203	996	0	0	-100	0	230	101300000	1000	0	0	-1	0
35663763	994	1	0	-100	0	230	101300000	1000	0	0	-1	0
35676323	994	5	0	-100	0	230	101300000	1000	0	0	-1	0
35688883	998	2	0	-100	0	230	101300000	1000	0	0	-1	0
35701443	998	5	0	-100	0	230	101300000	1000	0	0	-1	0
35714004	996	0	0	-100	0	230	101300000	1000	0	0	-1	0
35726563	998	0	0	-100	0	230	101300000	1000	0	0	-1	0
35739123	1002	0	0	-100	0	230	101300000	1000	0	0	-1	0
35751683	1001	0	0	-100	0	230	101300000	1000	0	0	-1	0
35764243	993	0	0	-100	0	230	101300000	1000	0	0	-1	0
35776803	996	4	0	-100	0	230	101300000	1000	0	0	-1	0
35789363	994	1	0	-100	0	230	101300000	1000	0	0	-1	0
35801923	996	1	0	-100	0	230	101300000	1000	0	0	-1	0
35814483	1001	0	0	-100	0	230	101300000	1000	0	0	-1	0
35827043	1004	0	0	-100	0	230	101300000	1000	0	0	-1	0
35839603	1003	0	0	-100	0	230	101300000	1000	0	0	-1	0
35852163	1004	0	0	-100	0	230	101300000	1000	0	0	-1	0
