timestamp	voltage	current	windSpeed	pitchAngle	rpm	temperature	ambientPressure	humidity	accelerationX	accelerationY	accelerationZ	currentSink
7034070	2008	2	0	-100	0	230	101300000	1000	0	0	-1	0
7041523	2005	0	0	-100	0	230	101300000	1000	0	0	-1	0
7054083	2000	1	0	-100	0	230	101300000	1000	0	0	-1	0
7066643	1997	0	0	-100	0	230	101300000	1000	0	0	-1	0
7079203	2004	0	0	-100	0	230	101300000	1000	0	0	-1	0
7091763	1997	2	0	-100	0	230	101300000	1000	0	0	-1	0
7104323	1997	0	0	-100	0	230	101300000	1000	0	0	-1	0
7116883	2008	0	0	-100	0	230	101300000	1000	0	0	-1	0
7129443	2000	4	0	-100	0	230	101300000	1000	0	0	-1	0
7142004	2007	0	0	-100	0	230	101300000	1000	0	0	-1	0
7154563	2000	0	0	-100	0	230	101300000	1000	0	0	-1	0
7167123	1999	0	0	-100	0	230	101300000	1000	0	0	-1	0
7179683	2005	0	0	-100	0	230	101300000	1000	0	0	-1	0
7192243	1999	5	0	-100	0	230	101300000	1000	0	0	-1	0
7204803	2007	0	0	-100	0	230	101300000	1000	0	0	-1	0
7217363	1998	4	0	-100	0	230	101300000	1000	0	0	-1	0
7229923	2002	0	0	-100	0	230	101300000	1000	0	0	-1	0
7242483	2002	0	0	-100	0	230	101300000	1000	0	0	-1	0
7255043	2002	3	0	-100	0	230	101300000	1000	0	0	-1	0
7267603	2004	0	0	-100	0	230	101300000	1000	0	0	-1	0
7280163	2012	0	0	-100	0	230	101300000	1000	0	0	-1	0
7292723	2000	0	0	-100	0	230	101300000	1000	0	0	-1	0
7305283	2001	3	0	-100	0	230	101300000	1000	0	0	-1	0
7317843	1999	0	0	-100	0	230	101300000	1000	0	0	-1	0
7330403	2004	0	0	-100	0	230	101300000	1000	0	0	-1	0
7342963	2005	0	0	-100	0	230	101300000	1000	0	0	-1	0
7355523	1998	1	0	-100	0	230	101300000	1000	0	0	-1	0
7368083	2000	6	0	-100	0	230	101300000	1000	0	0	-1	0
7380643	1999	0	0	-100	0	230	101300000	1000	0	0	-1	0
7393203	2006	0	0	-100	0	230	101300000	1000	0	0	-1	0
7405763	2005	0	0	-100	0	230	101300000	1000	0	0	-1	0
7418323	1998	4	0	-100	0	230	101300000	1000	0	0	-1	0
7430883	2000	1	0	-100	0	230	101300000	1000	0	0	-1	0
7443443	2005	0	0	-100	0	230	101300000	1000	0	0	-1	0
7456004	2005	2	0	-100	0	230	101300000	1000	0	0	-1	0
7468563	1997	4	0	-100	0	230	101300000	1000	0	0	-1	0
7481123	2000	0	0	-100	0	230	101300000	1000	0	0	-1	0
7493683	2005	0	0	-100	0	230	101300000	1000	0	0	-1	0
7506243	2000	2	0	-100	0	230	101300000	1000	0	0	-1	0
7518803	2005	0	0	-100	0	230	101300000	1000	0	0	-1	0
7531363	2000	1	0	-100	0	230	101300000	1000	0	0	-1	0
7543923	1997	0	0	-100	0	230	101300000	1000	0	0	-1	0
7556483	2005	0	0	-100	0	230	101300000	1000	0	0	-1	0
7569043	1999	4	0	-100	0	230	101300000	1000	0	0	-1	0
7581603	2005	0	0	-100	0	230	101300000	1000	0	0	-1	0
7594163	2003	1	0	-100	0	230	101300000	1000	0	0	-1	0
7606723	2000	0	0	-100	0	230	101300000	1000	0	0	-1	0
7619283	2000	0	0	-100	0	230	101300000	1000	0	0	-1	0
7631843	1998	0	0	-100	0	230	101300000	1000	0	0	-1	0
7644403	2005	0	0	-100	0	230	101300000	1000	0	0	-1	0
7656963	1998	4	0	-100	0	230	101300000	1000	0	0	-1	0
7669523	2005	0	0	-100	0	230	101300000	1000	0	0	-1	0
7682083	1998	1	0	-100	0	230	101300000	1000	0	0	-1	0
7694643	1999	0	0	-100	0	230	101300000	1000	0	0	-1	0
7707203	2004	0	0	-100	0	230	101300000	1000	0	0	-1	0
7719763	2002	0	0	-100	0	230	101300000	1000	0	0	-1	0
7732323	1997	5	0	-100	0	230	101300000	1000	0	0	-1	0
7744883	2002	0	0	-100	0	230	101300000	1000	0	0	-1	0
7757443	2007	0	0	-100	0	230	101300000	1000	0	0	-1	0
7770004	2002	0	0	-100	0	230	101300000	1000	0	0	-1	0
7782563	1999	0	0	-100	0	230	101300000	1000	0	0	-1	0
7795123	2008	0	0	-100	0	230	101300000	1000	0	0	-1	0
7807683	1998	0	0	-100	0	230	101300000	1000	0	0	-1	0
7820243	1996	0	0	-100	0	230	101300000	1000	0	0	-1	0
7832803	2006	0	0	-100	0	230	101300000	1000	0	0	-1	0
7845363	1999	4	0	-100	0	230	101300000	1000	0	0	-1	0
7857923	2002	0	0	-100	0	230	101300000	1000	0	0	-1	0
7870483	2007	0	0	-100	0	230	101300000	1000	0	0	-1	0
7883043	2000	4	0	-100	0	230	101300000	1000	0	0	-1	0
7895603	2000	0	0	-100	0	230	101300000	1000	0	0	-1	0
7908163	2010	0	0	-100	0	230	101300000	1000	0	0	-1	0
7920723	1997	3	0	-100	0	230	101300000	1000	0	0	-1	0
7933283	1999	0	0	-100	0	230	101300000	1000	0	0	-1	0
7945843	2000	0	0	-100	0	230	101300000	1000	0	0	-1	0
7958403	1996	0	0	-100	0	230	101300000	1000	0	0	-1	0
7970963	2007	0	0	-100	0	230	101300000	1000	0	0	-1	0
8008643	1997	1	0	-100	0	230	101300000	1000	0	0	-1	0
8021203	2000	0	0	-100	0	230	101300000	1000	0	0	-1	0
8033763	2000	0	0	-100	0	230	101300000	1000	0	0	-1	0
8046323	1997	0	0	-100	0	230	101300000	1000	0	0	-1	0
8058883	2006	0	0	-100	0	230	101300000	1000	0	0	-1	0
8071443	2000	4	0	-100	0	230	101300000	1000	0	0	-1	0
8084004	2004	0	0	-100	0	230	101300000	1000	0	0	-1	0
8096563	2005	0	0	-100	0	230	101300000	1000	0	0	-1	0
8109123	1998	3	0	-100	0	230	101300000	1000	0	0	-1	0
8121683	2000	0	0	-100	0	230	101300000	1000	0	0	-1	0
8134243	2005	0	0	-100	0	230	101300000	1000	0	0	-1	0
8146803	1997	2	0	-100	0	230	101300000	1000	0	0	-1	0
8159363	1999	0	0	-100	0	230	101300000	1000	0	0	-1	0
8171923	2007	0	0	-100	0	230	101300000	1000	0	0	-1	0
8184483	2000	0	0	-100	0	230	101300000	1000	0	0	-1	0
8197043	1998	3	0	-100	0	230	101300000	1000	0	0	-1	0
8209603	1998	0	0	-100	0	230	101300000	1000	0	0	-1	0
8222163	2005	0	0	-100	0	230	101300000	1000	0	0	-1	0
8234723	2002	0	0	-100	0	230	101300000	1000	0	0	-1	0
8247283	2004	0	0	-100	0	230	101300000	1000	0	0	-1	0
8259843	2002	0	0	-100	0	230	101300000	1000	0	0	-1	0
8272403	1998	4	0	-100	0	230	101300000	1000	0	0	-1	0
8284963	1999	0	0	-100	0	230	101300000	1000	0	0	-1	0
8297523	2002	0	0	-100	0	230	101300000	1000	0	0	-1	0
8310083	2006	0	0	-100	0	230	101300000	1000	0	0	-1	0
8322643	1997	1	0	-100	0	230	101300000	1000	0	0	-1	0
8335203	1997	0	0	-100	0	230	101300000	1000	0	0	-1	0
8347763	2007	0	0	-100	0	230	101300000	1000	0	0	-1	0
8360323	2000	0	0	-100	0	230	101300000	1000	0	0	-1	0
8372883	1998	4	0	-100	0	230	101300000	1000	0	0	-1	0
8385443	1997	0	0	-100	0	230	101300000	1000	0	0	-1	0
8398004	2001	0	0	-100	0	230	101300000	1000	0	0	-1	0
8410563	1997	2	0	-100	0	230	101300000	1000	0	0	-1	0
8423123	2000	0	0	-100	0	230	101300000	1000	0	0	-1	0
8435683	2004	0	0	-100	0	230	101300000	1000	0	0	-1	0
8448243	1999	2	0	-100	0	230	101300000	1000	0	0	-1	0
8460803	2000	4	0	-100	0	230	101300000	1000	0	0	-1	0
8473363	1997	0	0	-100	0	230	101300000	1000	0	0	-1	0
8485923	2005	0	0	-100	0	230	101300000	1000	0	0	-1	0
8498483	2005	0	0	-100	0	230	101300000	1000	0	0	-1	0
8511043	1997	3	0	-100	0	230	101300000	1000	0	0	-1	0
8523603	1999	4	0	-100	0	230	101300000	1000	0	0	-1	0
8536163	2006	0	0	-100	0	230	101300000	1000	0	0	-1	0
8548723	2007	0	0	-100	0	230	101300000	1000	0	0	-1	0
8561283	2000	2	0	-100	0	230	101300000	1000	0	0	-1	0
8573843	1998	0	0	-100	0	230	101300000	1000	0	0	-1	0
8586403	2002	0	0	-100	0	230	101300000	1000	0	0	-1	0
8598963	2002	0	0	-100	0	230	101300000	1000	0	0	-1	0
8611523	1999	5	0	-100	0	230	101300000	1000	0	0	-1	0
8624083	2002	0	0	-100	0	230	101300000	1000	0	0	-1	0
8636643	2000	1	0	-100	0	230	101300000	1000	0	0	-1	0
8649203	1998	0	0	-100	0	230	101300000	1000	0	0	-1	0
8661763	2005	0	0	-100	0	230	101300000	1000	0	0	-1	0
8674323	1998	0	0	-100	0	230	101300000	1000	0	0	-1	0
8686883	1998	4	0	-100	0	230	101300000	1000	0	0	-1	0
8699443	1999	0	0	-100	0	230	101300000	1000	0	0	-1	0
8712004	2005	0	0	-100	0	230	101300000	1000	0	0	-1	0
8724563	1999	0	0	-100	0	230	101300000	1000	0	0	-1	0
8737123	2000	4	0	-100	0	230	101300000	1000	0	0	-1	0
8749683	1997	0	0	-100	0	230	101300000	1000	0	0	-1	0
8762243	2003	0	0	-100	0	230	101300000	1000	0	0	-1	0
8774803	2008	0	0	-100	0	230	101300000	1000	0	0	-1	0
8787363	1999	1	0	-100	0	230	101300000	1000	0	0	-1	0
8799923	1998	3	0	-100	0	230	101300000	1000	0	0	-1	0
8812483	1997	0	0	-100	0	230	101300000	1000	0	0	-1	0
8825043	2004	0	0	-100	0	230	101300000	1000	0	0	-1	0
8837603	2005	0	0	-100	0	230	101300000	1000	0	0	-1	0
8850163	2003	0	0	-100	0	230	101300000	1000	0	0	-1	0
8862723	1997	4	0	-100	0	230	101300000	1000	0	0	-1	0
8875283	1997	0	0	-100	0	230	101300000	1000	0	0	-1	0
8887843	2004	0	0	-100	0	230	101300000	1000	0	0	-1	0
8900403	2005	0	0	-100	0	230	101300000	1000	0	0	-1	0
8912963	1999	4	0	-100	0	230	101300000	1000	0	0	-1	0
8925523	1998	4	0	-100	0	230	101300000	1000	0	0	-1	0
8938083	2000	0	0	-100	0	230	101300000	1000	0	0	-1	0
8950643	2005	0	0	-100	0	230	101300000	1000	0	0	-1	0
8963203	2004	0	0	-100	0	230	101300000	1000	0	0	-1	0
8975763	2000	3	0	-100	0	230	101300000	1000	0	0	-1	0
8988323	2001	0	0	-100	0	230	101300000	1000	0	0	-1	0
9000883	2004	0	0	-100	0	230	101300000	1000	0	0	-1	0
9013443	1997	1	0	-100	0	230	101300000	1000	0	0	-1	0
9026004	2007	0	0	-100	0	230	101300000	1000	0	0	-1	0
9038563	1999	0	0	-100	0	230	101300000	1000	0	0	-1	0
9051123	2004	0	0	-100	0	230	101300000	1000	0	0	-1	0
9063683	2000	0	0	-100	0	230	101300000	1000	0	0	-1	0
9076243	2000	4	0	-100	0	230	101300000	1000	0	0	-1	0
9088803	2000	0	0	-100	0	230	101300000	1000	0	0	-1	0
9113923	2003	0	0	-100	0	230	101300000	1000	0	0	-1	0
9126483	1998	4	0	-100	0	230	101300000	1000	0	0	-1	0
9139043	1997	0	0	-100	0	230	101300000	1000	0	0	-1	0
9151603	2004	0	0	-100	0	230	101300000	1000	0	0	-1	0
9164163	2009	0	0	-100	0	230	101300000	1000	0	0	-1	0
9176723	1997	4	0	-100	0	230	101300000	1000	0	0	-1	0
9189283	2000	0	0	-100	0	230	101300000	1000	0	0	-1	0
9201843	2004	0	0	-100	0	230	101300000	1000	0	0	-1	0
9214403	2004	0	0	-100	0	230	101300000	1000	0	0	-1	0
9226963	2005	0	0	-100	0	230	101300000	1000	0	0	-1	0
9239523	1997	0	0	-100	0	230	101300000	1000	0	0	-1	0
9252083	1995	3	0	-100	0	230	101300000	1000	0	0	-1	0
9264643	2000	4	0	-100	0	230	101300000	1000	0	0	-1	0
9277203	1997	0	0	-100	0	230	101300000	1000	0	0	-1	0
9289763	2004	0	0	-100	0	230	101300000	1000	0	0	-1	0
9302323	2004	0	0	-100	0	230	101300000	1000	0	0	-1	0
9314883	2000	0	0	-100	0	230	101300000	1000	0	0	-1	0
9327443	1997	4	0	-100	0	230	101300000	1000	0	0	-1	0
9340004	2008	0	0	-100	0	230	101300000	1000	0	0	-1	0
9352563	2004	0	0	-100	0	230	101300000	1000	0	0	-1	0
9365123	2003	0	0	-100	0	230	101300000	1000	0	0	-1	0
9377683	2000	4	0	-100	0	230	101300000	1000	0	0	-1	0
9390243	2002	0	0	-100	0	230	101300000	1000	0	0	-1	0
9402803	2007	0	0	-100	0	230	101300000	1000	0	0	-1	0
9415363	1999	1	0	-100	0	230	101300000	1000	0	0	-1	0
9427923	2000	5	0	-100	0	230	101300000	1000	0	0	-1	0
9440483	2003	0	0	-100	0	230	101300000	1000	0	0	-1	0
9453043	2001	0	0	-100	0	230	101300000	1000	0	0	-1	0
9465603	1997	0	0	-100	0	230	101300000	1000	0	0	-1	0
9478163	2003	3	0	-100	0	230	101300000	1000	0	0	-1	0
9490723	1996	0	0	-100	0	230	101300000	1000	0	0	-1	0
9503283	2002	0	0	-100	0	230	101300000	1000	0	0	-1	0
9515843	2006	0	0	-100	0	230	101300000	1000	0	0	-1	0
9528403	2007	0	0	-100	0	230	101300000	1000	0	0	-1	0
9540963	2003	3	0	-100	0	230	101300000	1000	0	0	-1	0
9553523	1997	0	0	-100	0	230	101300000	1000	0	0	-1	0
9566083	2004	0	0	-100	0	230	101300000	1000	0	0	-1	0
9578643	2005	0	0	-100	0	230	101300000	1000	0	0	-1	0
9591203	1997	2	0	-100	0	230	101300000	1000	0	0	-1	0
9603763	2000	6	0	-100	0	230	101300000	1000	0	0	-1	0
9616323	2000	0	0	-100	0	230	101300000	1000	0	0	-1	0
9628883	2004	0	0	-100	0	230	101300000	1000	0	0	-1	0
9641443	2004	0	0	-100	0	230	101300000	1000	0	0	-1	0
9654004	2007	0	0	-100	0	230	101300000	1000	0	0	-1	0
9666563	2002	0	0	-100	0	230	101300000	1000	0	0	-1	0
9679123	2003	0	0	-100	0	230	101300000	1000	0	0	-1	0
9691683	1997	2	0	-100	0	230	101300000	1000	0	0	-1	0
9704243	2002	5	0	-100	0	230	101300000	1000	0	0	-1	0
9716803	2000	0	0	-100	0	230	101300000	1000	0	0	-1	0
9729363	2005	0	0	-100	0	230	101300000	1000	0	0	-1	0
9741923	2006	0	0	-100	0	230	101300000	1000	0	0	-1	0
9754483	1997	1	0	-100	0	230	101300000	1000	0	0	-1	0
9767043	1998	4	0	-100	0	230	101300000	1000	0	0	-1	0
9779603	2002	0	0	-100	0	230	101300000	1000	0	0	-1	0
9792163	2012	0	0	-100	0	230	101300000	1000	0	0	-1	0
9804723	1997	3	0	-100	0	230	101300000	1000	0	0	-1	0
9817283	2000	0	0	-100	0	230	101300000	1000	0	0	-1	0
9829843	2007	0	0	-100	0	230	101300000	1000	0	0	-1	0
9842403	1997	3	0	-100	0	230	101300000	1000	0	0	-1	0
9854963	1998	0	0	-100	0	230	101300000	1000	0	0	-1	0
9867523	2002	0	0	-100	0	230	101300000	1000	0	0	-1	0
9880083	2009	0	0	-100	0	230	101300000	1000	0	0	-1	0
9892643	1998	4	0	-100	0	230	101300000	1000	0	0	-1	0
9905203	1997	0	0	-100	0	230	101300000	1000	0	0	-1	0
9917763	2004	0	0	-100	0	230	101300000	1000	0	0	-1	0
9930323	1998	2	0	-100	0	230	101300000	1000	0	0	-1	0
9942883	2000	0	0	-100	0	230	101300000	1000	0	0	-1	0
9955443	2004	0	0	-100	0	230	101300000	1000	0	0	-1	0
9968004	2006	0	0	-100	0	230	101300000	1000	0	0	-1	0
9980563	1999	0	0	-100	0	230	101300000	1000	0	0	-1	0
9993123	2005	0	0	-100	0	230	101300000	1000	0	0	-1	0
10005683	1997	4	0	-100	0	230	101300000	1000	0	0	-1	0
10018243	1999	0	0	-100	0	230	101300000	1000	0	0	-1	0
10030803	2004	0	0	-100	0	230	101300000	1000	0	0	-1	0
10043363	1998	3	0	-100	0	230	101300000	1000	0	0	-1	0
10093603	2004	0	0	-100	0	230	101300000	1000	0	0	-1	0
10106163	2007	0	0	-100	0	230	101300000	1000	0	0	-1	0
10118723	2000	0	0	-100	0	230	101300000	1000	0	0	-1	0
10131283	2005	0	0	-100	0	230	101300000	1000	0	0	-1	0
10143843	1997	0	0	-100	0	230	101300000	1000	0	0	-1	0
10156403	1998	0	0	-100	0	230	101300000	1000	0	0	-1	0
10168963	2006	0	0	-100	0	230	101300000	1000	0	0	-1	0
10181523	2000	1	0	-100	0	230	101300000	1000	0	0	-1	0
10194083	2000	1	0	-100	0	230	101300000	1000	0	0	-1	0
10206643	2002	0	0	-100	0	230	101300000	1000	0	0	-1	0
10219203	2004	0	0	-100	0	230	101300000	1000	0	0	-1	0
10231763	1998	0	0	-100	0	230	101300000	1000	0	0	-1	0
10282004	2005	0	0	-100	0	230	101300000	1000	0	0	-1	0
10294563	2000	4	0	-100	0	230	101300000	1000	0	0	-1	0
10307123	2003	0	0	-100	0	230	101300000	1000	0	0	-1	0
10319683	2007	0	0	-100	0	230	101300000	1000	0	0	-1	0
10332243	2000	0	0	-100	0	230	101300000	1000	0	0	-1	0
10344803	1997	4	0	-100	0	230	101300000	1000	0	0	-1	0
10357363	2002	2	0	-100	0	230	101300000	1000	0	0	-1	0
10369923	1999	0	0	-100	0	230	101300000	1000	0	0	-1	0
10382483	2005	0	0	-100	0	230	101300000	1000	0	0	-1	0
10395043	2004	0	0	-100	0	230	101300000	1000	0	0	-1	0
10407603	1995	1	0	-100	0	230	101300000	1000	0	0	-1	0
10420163	2005	0	0	-100	0	230	101300000	1000	0	0	-1	0
10432723	2004	0	0	-100	0	230	101300000	1000	0	0	-1	0
10445283	1997	2	0	-100	0	230	101300000	1000	0	0	-1	0
10457843	1998	0	0	-100	0	230	101300000	1000	0	0	-1	0
10470403	2007	0	0	-100	0	230	101300000	1000	0	0	-1	0
10482963	1995	3	0	-100	0	230	101300000	1000	0	0	-1	0
10495523	2003	0	0	-100	0	230	101300000	1000	0	0	-1	0
10508083	2000	0	0	-100	0	230	101300000	1000	0	0	-1	0
10520643	1999	4	0	-100	0	230	101300000	1000	0	0	-1	0
10533203	2005	0	0	-100	0	230	101300000	1000	0	0	-1	0
10545763	1996	2	0	-100	0	230	101300000	1000	0	0	-1	0
10558323	2000	4	0	-100	0	230	101300000	1000	0	0	-1	0
10570883	2004	0	0	-100	0	230	101300000	1000	0	0	-1	0
10583443	2005	0	0	-100	0	230	101300000	1000	0	0	-1	0
10596004	2006	0	0	-100	0	230	101300000	1000	0	0	-1	0
10608563	1999	0	0	-100	0	230	101300000	1000	0	0	-1	0
10621123	2002	0	0	-100	0	230	101300000	1000	0	0	-1	0
10633683	1999	4	0	-100	0	230	101300000	1000	0	0	-1	0
10646243	1999	0	0	-100	0	230	101300000	1000	0	0	-1	0
10658803	2002	0	0	-100	0	230	101300000	1000	0	0	-1	0
10671363	1998	3	0	-100	0	230	101300000	1000	0	0	-1	0
10683923	1997	0	0	-100	0	230	101300000	1000	0	0	-1	0
10696483	2007	0	0	-100	0	230	101300000	1000	0	0	-1	0
10709043	1997	3	0	-100	0	230	101300000	1000	0	0	-1	0
10721603	2000	1	0	-100	0	230	101300000	1000	0	0	-1	0
10734163	2009	0	0	-100	0	230	101300000	1000	0	0	-1	0
10746723	2007	0	0	-100	0	230	101300000	1000	0	0	-1	0
10759283	1999	2	0	-100	0	230	101300000	1000	0	0	-1	0
10771843	1998	4	0	-100	0	230	101300000	1000	0	0	-1	0
10784403	1997	0	0	-100	0	230	101300000	1000	0	0	-1	0
10796963	2002	0	0	-100	0	230	101300000	1000	0	0	-1	0
10809523	2006	0	0	-100	0	230	101300000	1000	0	0	-1	0
10822083	1998	4	0	-100	0	230	101300000	1000	0	0	-1	0
10834643	2000	0	0	-100	0	230	101300000	1000	0	0	-1	0
10847203	2005	0	0	-100	0	230	101300000	1000	0	0	-1	0
10859763	2005	0	0	-100	0	230	101300000	1000	0	0	-1	0
10872323	1997	0	0	-100	0	230	101300000	1000	0	0	-1	0
10884883	1997	5	0	-100	0	230	101300000	1000	0	0	-1	0
10897443	2000	0	0	-100	0	230	101300000	1000	0	0	-1	0
10910004	1999	2	0	-100	0	230	101300000	1000	0	0	-1	0
10922563	1996	1	0	-100	0	230	101300000	1000	0	0	-1	0
10935123	1999	0	0	-100	0	230	101300000	1000	0	0	-1	0
10947683	2005	0	0	-100	0	230	101300000	1000	0	0	-1	0
10960243	2004	0	0	-100	0	230	101300000	1000	0	0	-1	0
10972803	1997	2	0	-100	0	230	101300000	1000	0	0	-1	0
10985363	2000	4	0	-100	0	230	101300000	1000	0	0	-1	0
10997923	1994	0	0	-100	0	230	101300000	1000	0	0	-1	0
11010483	2003	0	0	-100	0	230	101300000	1000	0	0	-1	0
11023043	2007	0	0	-100	0	230	101300000	1000	0	0	-1	0
11035603	2003	0	0	-100	0	230	101300000	1000	0	0	-1	0
11048163	2003	4	0	-100	0	230	101300000	1000	0	0	-1	0
11060723	1999	1	0	-100	0	230	101300000	1000	0	0	-1	0
11073283	2004	0	0	-100	0	230	101300000	1000	0	0	-1	0
11085843	2005	0	0	-100	0	230	101300000	1000	0	0	-1	0
11098403	1998	1	0	-100	0	230	101300000	1000	0	0	-1	0
11110963	1999	0	0	-100	0	230	101300000	1000	0	0	-1	0
11123523	2002	0	0	-100	0	230	101300000	1000	0	0	-1	0
11136083	2004	0	0	-100	0	230	101300000	1000	0	0	-1	0
11148643	1997	2	0	-100	0	230	101300000	1000	0	0	-1	0
11161203	1997	4	0	-100	0	230	101300000	1000	0	0	-1	0
11173763	1997	0	0	-100	0	230	101300000	1000	0	0	-1	0
11186323	2007	0	0	-100	0	230	101300000	1000	0	0	-1	0
11198883	2000	0	0	-100	0	230	101300000	1000	0	0	-1	0
11211443	1998	4	0	-100	0	230	101300000	1000	0	0	-1	0
11224004	2009	0	0	-100	0	230	101300000	1000	0	0	-1	0
11236563	2006	0	0	-100	0	230	101300000	1000	0	0	-1	0
11249123	1998	2	0	-100	0	230	101300000	1000	0	0	-1	0
11261683	1999	1	0	-100	0	230	101300000	1000	0	0	-1	0
11274243	2003	0	0	-100	0	230	101300000	1000	0	0	-1	0
11286803	2003	0	0	-100	0	230	101300000	1000	0	0	-1	0
11299363	2000	3	0	-100	0	230	101300000	1000	0	0	-1	0
11311923	2002	0	0	-100	0	230	101300000	1000	0	0	-1	0
11324483	2007	0	0	-100	0	230	101300000	1000	0	0	-1	0
11337043	2000	0	0	-100	0	230	101300000	1000	0	0	-1	0
11349603	2003	4	0	-100	0	230	101300000	1000	0	0	-1	0
11362163	2004	0	0	-100	0	230	101300000	1000	0	0	-1	0
11374723	2005	0	0	-100	0	230	101300000	1000	0	0	-1	0
11387283	2004	0	0	-100	0	230	101300000	1000	0	0	-1	0
11399843	1998	2	0	-100	0	230	101300000	1000	0	0	-1	0
11412403	1998	3	0	-100	0	230	101300000	1000	0	0	-1	0
11424963	2000	5	0	-100	0	230	101300000	1000	0	0	-1	0
11437523	1998	0	0	-100	0	230	101300000	1000	0	0	-1	0
11450083	2005	0	0	-100	0	230	101300000	1000	0	0	-1	0
11462643	2004	0	0	-100	0	230	101300000	1000	0	0	-1	0
11475203	2008	0	0	-100	0	230	101300000	1000	0	0	-1	0
11487763	1998	1	0	-100	0	230	101300000	1000	0	0	-1	0
11500323	1999	4	0	-100	0	230	101300000	1000	0	0	-1	0
11512883	1996	0	0	-100	0	230	101300000	1000	0	0	-1	0
11525443	2004	0	0	-100	0	230	101300000	1000	0	0	-1	0
11538004	2005	4	0	-100	0	230	101300000	1000	0	0	-1	0
11550563	1998	3	0	-100	0	230	101300000	1000	0	0	-1	0
11563123	1999	0	0	-100	0	230	101300000	1000	0	0	-1	0
11575683	2005	0	0	-100	0	230	101300000	1000	0	0	-1	0
11588243	2000	2	0	-100	0	230	101300000	1000	0	0	-1	0
11600803	2002	6	0	-100	0	230	101300000	1000	0	0	-1	0
11613363	2002	0	0	-100	0	230	101300000	1000	0	0	-1	0
11625923	2007	0	0	-100	0	230	101300000	1000	0	0	-1	0
11638483	1999	4	0	-100	0	230	101300000	1000	0	0	-1	0
11651043	1996	1	0	-100	0	230	101300000	1000	0	0	-1	0
11663603	2005	0	0	-100	0	230	101300000	1000	0	0	-1	0
11676163	2009	0	0	-100	0	230	101300000	1000	0	0	-1	0
11688723	1997	5	0	-100	0	230	101300000	1000	0	0	-1	0
11701283	1999	0	0	-100	0	230	101300000	1000	0	0	-1	0
11713843	2003	0	0	-100	0	230	101300000	1000	0	0	-1	0
11726403	2003	0	0	-100	0	230	101300000	1000	0	0	-1	0
11738963	1998	1	0	-100	0	230	101300000	1000	0	0	-1	0
11751523	2003	4	0	-100	0	230	101300000	1000	0	0	-1	0
11764083	1999	0	0	-100	0	230	101300000	1000	0	0	-1	0
11776643	2007	0	0	-100	0	230	101300000	1000	0	0	-1	0
11789203	1997	3	0	-100	0	230	101300000	1000	0	0	-1	0
11801763	1999	0	0	-100	0	230	101300000	1000	0	0	-1	0
11814323	2008	0	0	-100	0	230	101300000	1000	0	0	-1	0
11826883	1998	3	0	-100	0	230	101300000	1000	0	0	-1	0
11839443	1998	0	0	-100	0	230	101300000	1000	0	0	-1	0
11852004	2004	4	0	-100	0	230	101300000	1000	0	0	-1	0
11864563	1998	4	0	-100	0	230	101300000	1000	0	0	-1	0
11877123	2005	0	0	-100	0	230	101300000	1000	0	0	-1	0
11889683	2001	0	0	-100	0	230	101300000	1000	0	0	-1	0
11902243	2002	1	0	-100	0	230	101300000	1000	0	0	-1	0
11914803	2004	0	0	-100	0	230	101300000	1000	0	0	-1	0
11927363	2000	0	0	-100	0	230	101300000	1000	0	0	-1	0
11939923	1999	2	0	-100	0	230	101300000	1000	0	0	-1	0
11952483	2005	0	0	-100	0	230	101300000	1000	0	0	-1	0
11965043	1997	2	0	-100	0	230	101300000	1000	0	0	-1	0
11977603	2004	0	0	-100	0	230	101300000	1000	0	0	-1	0
11990163	2003	1	0	-100	0	230	101300000	1000	0	0	-1	0
12002723	2004	0	0	-100	0	230	101300000	1000	0	0	-1	0
12015283	1995	2	0	-100	0	230	101300000	1000	0	0	-1	0
12027843	2000	0	0	-100	0	230	101300000	1000	0	0	-1	0
12040403	2000	0	0	-100	0	230	101300000	1000	0	0	-1	0
12052963	1996	1	0	-100	0	230	101300000	1000	0	0	-1	0
12065523	2008	0	0	-100	0	230	101300000	1000	0	0	-1	0
12078083	1998	0	0	-100	0	230	101300000	1000	0	0	-1	0
12090643	2006	0	0	-100	0	230	101300000	1000	0	0	-1	0
12103203	1997	3	0	-100	0	230	101300000	1000	0	0	-1	0
12115763	2000	0	0	-100	0	230	101300000	1000	0	0	-1	0
12128323	2008	0	0	-100	0	230	101300000	1000	0	0	-1	0
12140883	2000	3	0	-100	0	230	101300000	1000	0	0	-1	0
12153443	2002	0	0	-100	0	230	101300000	1000	0	0	-1	0
12166004	2007	1	0	-100	0	230	101300000	1000	0	0	-1	0
12178563	1998	3	0	-100	0	230	101300000	1000	0	0	-1	0
12191123	1999	0	0	-100	0	230	101300000	1000	0	0	-1	0
12203683	2007	0	0	-100	0	230	101300000	1000	0	0	-1	0
12216243	1999	1	0	-100	0	230	101300000	1000	0	0	-1	0
12228803	2001	4	0	-100	0	230	101300000	1000	0	0	-1	0
12241363	2004	0	0	-100	0	230	101300000	1000	0	0	-1	0
12253923	2000	0	0	-100	0	230	101300000	1000	0	0	-1	0
12266483	2000	5	0	-100	0	230	101300000	1000	0	0	-1	0
12279043	2002	0	0	-100	0	230	101300000	1000	0	0	-1	0
12291603	2004	0	0	-100	0	230	101300000	1000	0	0	-1	0
12304163	2003	3	0	-100	0	230	101300000	1000	0	0	-1	0
12316723	1999	0	0	-100	0	230	101300000	1000	0	0	-1	0
12329283	2005	0	0	-100	0	230	101300000	1000	0	0	-1	0
12341843	2000	0	0	-100	0	230	101300000	1000	0	0	-1	0
12354403	1998	4	0	-100	0	230	101300000	1000	0	0	-1	0
12366963	1997	0	0	-100	0	230	101300000	1000	0	0	-1	0
12379523	2005	0	0	-100	0	230	101300000	1000	0	0	-1	0
12392083	2002	0	0	-100	0	230	101300000	1000	0	0	-1	0
12404643	1997	4	0	-100	0	230	101300000	1000	0	0	-1	0
12417203	2000	0	0	-100	0	230	101300000	1000	0	0	-1	0
12429763	2004	0	0	-100	0	230	101300000	1000	0	0	-1	0
12442323	2000	2	0	-100	0	230	101300000	1000	0	0	-1	0
12454883	1997	0	0	-100	0	230	101300000	1000	0	0	-1	0
12467443	2007	0	0	-100	0	230	101300000	1000	0	0	-1	0
12480004	2006	0	0	-100	0	230	101300000	1000	0	0	-1	0
12492563	2005	0	0	-100	0	230	101300000	1000	0	0	-1	0
12505123	1998	2	0	-100	0	230	101300000	1000	0	0	-1	0
12517683	2005	0	0	-100	0	230	101300000	1000	0	0	-1	0
12530243	1995	1	0	-100	0	230	101300000	1000	0	0	-1	0
12542803	2002	0	0	-100	0	230	101300000	1000	0	0	-1	0
12555363	1999	0	0	-100	0	230	101300000	1000	0	0	-1	0
12567923	2000	0	0	-100	0	230	101300000	1000	0	0	-1	0
12580483	2002	0	0	-100	0	230	101300000	1000	0	0	-1	0
12593043	1999	0	0	-100	0	230	101300000	1000	0	0	-1	0
12605603	2002	0	0	-100	0	230	101300000	1000	0	0	-1	0
12618163	2005	0	0	-100	0	230	101300000	1000	0	0	-1	0
12630723	2004	0	0	-100	0	230	101300000	1000	0	0	-1	0
12643283	2000	3	0	-100	0	230	101300000	1000	0	0	-1	0
12655843	2005	0	0	-100	0	230	101300000	1000	0	0	-1	0
12668403	2000	2	0	-100	0	230	101300000	1000	0	0	-1	0
12680963	1997	0	0	-100	0	230	101300000	1000	0	0	-1	0
12693523	2003	0	0	-100	0	230	101300000	1000	0	0	-1	0
12706083	1996	0	0	-100	0	230	101300000	1000	0	0	-1	0
12718643	2007	0	0	-100	0	230	101300000	1000	0	0	-1	0
12731203	1999	3	0	-100	0	230	101300000	1000	0	0	-1	0
12743763	2002	0	0	-100	0	230	101300000	1000	0	0	-1	0
12756323	2000	2	0	-100	0	230	101300000	1000	0	0	-1	0
12768883	2001	0	0	-100	0	230	101300000	1000	0	0	-1	0
12781443	1998	2	0	-100	0	230	101300000	1000	0	0	-1	0
12794004	2009	0	0	-100	0	230	101300000	1000	0	0	-1	0
12806563	1998	0	0	-100	0	230	101300000	1000	0	0	-1	0
12819123	2002	0	0	-100	0	230	101300000	1000	0	0	-1	0
12831683	2001	0	0	-100	0	230	101300000	1000	0	0	-1	0
12844243	1999	1	0	-100	0	230	101300000	1000	0	0	-1	0
12856803	2004	0	0	-100	0	230	101300000	1000	0	0	-1	0
12869363	2000	0	0	-100	0	230	101300000	1000	0	0	-1	0
12881923	2005	0	0	-100	0	230	101300000	1000	0	0	-1	0
12894483	1999	0	0	-100	0	230	101300000	1000	0	0	-1	0
12907043	1998	2	0	-100	0	230	101300000	1000	0	0	-1	0
12919603	2002	0	0	-100	0	230	101300000	1000	0	0	-1	0
12932163	2003	1	0	-100	0	230	101300000	1000	0	0	-1	0
12944723	1999	0	0	-100	0	230	101300000	1000	0	0	-1	0
12957283	2007	0	0	-100	0	230	101300000	1000	0	0	-1	0
12969843	1999	6	0	-100	0	230	101300000	1000	0	0	-1	0
12982403	2001	0	0	-100	0	230	101300000	1000	0	0	-1	0
12994963	1997	4	0	-100	0	230	101300000	1000	0	0	-1	0
13007523	1999	0	0	-100	0	230	101300000	1000	0	0	-1	0
13020083	2004	0	0	-100	0	230	101300000	1000	0	0	-1	0
13032643	2000	4	0	-100	0	230	101300000	1000	0	0	-1	0
13045203	2005	0	0	-100	0	230	101300000	1000	0	0	-1	0
13057763	1997	3	0	-100	0	230	101300000	1000	0	0	-1	0
13070323	2000	0	0	-100	0	230	101300000	1000	0	0	-1	0
13082883	2004	0	0	-100	0	230	101300000	1000	0	0	-1	0
13095443	2000	4	0	-100	0	230	101300000	1000	0	0	-1	0
13108004	2001	2	0	-100	0	230	101300000	1000	0	0	-1	0
13120563	2002	6	0	-100	0	230	101300000	1000	0	0	-1	0
13133123	2004	0	0	-100	0	230	101300000	1000	0	0	-1	0
13145683	1997	0	0	-100	0	230	101300000	1000	0	0	-1	0
13158243	1999	2	0	-100	0	230	101300000	1000	0	0	-1	0
13170803	2005	0	0	-100	0	230	101300000	1000	0	0	-1	0
13183363	2001	3	0	-100	0	230	101300000	1000	0	0	-1	0
13195923	2004	0	0	-100	0	230	101300000	1000	0	0	-1	0
13208483	1997	0	0	-100	0	230	101300000	1000	0	0	-1	0
13221043	2000	0	0	-100	0	230	101300000	1000	0	0	-1	0
13233603	1998	0	0	-100	0	230	101300000	1000	0	0	-1	0
13246163	2003	0	0	-100	0	230	101300000	1000	0	0	-1	0
13258723	2004	0	0	-100	0	230	101300000	1000	0	0	-1	0
13271283	1997	4	0	-100	0	230	101300000	1000	0	0	-1	0
13283843	2005	0	0	-100	0	230	101300000	1000	0	0	-1	0
13296403	1997	0	0	-100	0	230	101300000	1000	0	0	-1	0
13308963	2000	0	0	-100	0	230	101300000	1000	0	0	-1	0
13321523	2002	0	0	-100	0	230	101300000	1000	0	0	-1	0
13334083	1999	0	0	-100	0	230	101300000	1000	0	0	-1	0
13346643	2000	0	0	-100	0	230	101300000	1000	0	0	-1	0
13359203	2007	0	0	-100	0	230	101300000	1000	0	0	-1	0
13371763	1996	0	0	-100	0	230	101300000	1000	0	0	-1	0
13384323	1995	1	0	-100	0	230	101300000	1000	0	0	-1	0
13396883	2005	0	0	-100	0	230	101300000	1000	0	0	-1	0
13409443	2000	6	0	-100	0	230	101300000	1000	0	0	-1	0
13422004	2004	2	0	-100	0	230	101300000	1000	0	0	-1	0
13434563	2000	0	0	-100	0	230	101300000	1000	0	0	-1	0
13447123	2000	3	0	-100	0	230	101300000	1000	0	0	-1	0
13459683	2005	0	0	-100	0	230	101300000	1000	0	0	-1	0
13472243	1999	0	0	-100	0	230	101300000	1000	0	0	-1	0
13484803	2001	0	0	-100	0	230	101300000	1000	0	0	-1	0
13497363	2006	0	0	-100	0	230	101300000	1000	0	0	-1	0
13509923	2000	3	0	-100	0	230	101300000	1000	0	0	-1	0
13522483	2005	0	0	-100	0	230	101300000	1000	0	0	-1	0
13535043	2000	2	0	-100	0	230	101300000	1000	0	0	-1	0
13547603	2006	0	0	-100	0	230	101300000	1000	0	0	-1	0
13560163	2007	0	0	-100	0	230	101300000	1000	0	0	-1	0
13572723	2007	0	0	-100	0	230	101300000	1000	0	0	-1	0
13585283	2000	0	0	-100	0	230	101300000	1000	0	0	-1	0
13597843	2003	0	0	-100	0	230	101300000	1000	0	0	-1	0
13610403	2000	0	0	-100	0	230	101300000	1000	0	0	-1	0
13622963	1998	2	0	-100	0	230	101300000	1000	0	0	-1	0
13635523	2005	0	0	-100	0	230	101300000	1000	0	0	-1	0
13648083	2000	0	0	-100	0	230	101300000	1000	0	0	-1	0
13660643	1997	1	0	-100	0	230	101300000	1000	0	0	-1	0
13673203	2004	0	0	-100	0	230	101300000	1000	0	0	-1	0
13685763	2001	4	0	-100	0	230	101300000	1000	0	0	-1	0
13698323	2005	0	0	-100	0	230	101300000	1000	0	0	-1	0
13710883	1997	0	0	-100	0	230	101300000	1000	0	0	-1	0
13723443	1997	3	0	-100	0	230	101300000	1000	0	0	-1	0
13736004	2007	0	0	-100	0	230	101300000	1000	0	0	-1	0
13748563	1999	4	0	-100	0	230	101300000	1000	0	0	-1	0
13761123	2004	0	0	-100	0	230	101300000	1000	0	0	-1	0
13773683	2003	5	0	-100	0	230	101300000	1000	0	0	-1	0
13786243	2006	0	0	-100	0	230	101300000	1000	0	0	-1	0
13798803	1999	0	0	-100	0	230	101300000	1000	0	0	-1	0
13811363	2000	0	0	-100	0	230	101300000	1000	0	0	-1	0
13823923	2000	0	0	-100	0	230	101300000	1000	0	0	-1	0
13836483	2002	0	0	-100	0	230	101300000	1000	0	0	-1	0
13849043	1999	0	0	-100	0	230	101300000	1000	0	0	-1	0
13861603	2007	0	0	-100	0	230	101300000	1000	0	0	-1	0
13874163	2003	5	0	-100	0	230	101300000	1000	0	0	-1	0
13886723	2002	0	0	-100	0	230	101300000	1000	0	0	-1	0
13899283	2003	0	0	-100	0	230	101300000	1000	0	0	-1	0
13911843	1999	1	0	-100	0	230	101300000	1000	0	0	-1	0
13924403	2007	0	0	-100	0	230	101300000	1000	0	0	-1	0
13936963	1999	4	0	-100	0	230	101300000	1000	0	0	-1	0
13949523	2007	0	0	-100	0	230	101300000	1000	0	0	-1	0
13962083	2001	2	0	-100	0	230	101300000	1000	0	0	-1	0
13974643	2005	0	0	-100	0	230	101300000	1000	0	0	-1	0
13987203	2000	4	0	-100	0	230	101300000	1000	0	0	-1	0
13999763	2007	0	0	-100	0	230	101300000	1000	0	0	-1	0
14012323	1997	3	0	-100	0	230	101300000	1000	0	0	-1	0
14024883	2002	0	0	-100	0	230	101300000	1000	0	0	-1	0
14037443	1998	3	0	-100	0	230	101300000	1000	0	0	-1	0
14050004	2009	0	0	-100	0	230	101300000	1000	0	0	-1	0
14062563	1998	2	0	-100	0	230	101300000	1000	0	0	-1	0
14075123	2004	0	0	-100	0	230	101300000	1000	0	0	-1	0
14087683	2000	0	0	-100	0	230	101300000	1000	0	0	-1	0
14100243	2000	0	0	-100	0	230	101300000	1000	0	0	-1	0
14112803	2005	0	0	-100	0	230	101300000	1000	0	0	-1	0
14125363	2000	0	0	-100	0	230	101300000	1000	0	0	-1	0
14137923	2007	0	0	-100	0	230	101300000	1000	0	0	-1	0
14150483	1999	0	0	-100	0	230	101300000	1000	0	0	-1	0
14163043	2008	0	0	-100	0	230	101300000	1000	0	0	-1	0
14175603	2001	4	0	-100	0	230	101300000	1000	0	0	-1	0
14188163	2010	0	0	-100	0	230	101300000	1000	0	0	-1	0
14200723	2002	5	0	-100	0	230	101300000	1000	0	0	-1	0
14213283	2007	0	0	-100	0	230	101300000	1000	0	0	-1	0
14225843	1999	0	0	-100	0	230	101300000	1000	0	0	-1	0
14238403	1998	0	0	-100	0	230	101300000	1000	0	0	-1	0
14250963	2002	0	0	-100	0	230	101300000	1000	0	0	-1	0
14263523	2000	4	0	-100	0	230	101300000	1000	0	0	-1	0
14276083	2007	0	0	-100	0	230	101300000	1000	0	0	-1	0
14288643	1999	1	0	-100	0	230	101300000	1000	0	0	-1	0
14301203	1999	2	0	-100	0	230	101300000	1000	0	0	-1	0
14313763	2004	0	0	-100	0	230	101300000	1000	0	0	-1	0
14326323	1997	4	0	-100	0	230	101300000	1000	0	0	-1	0
14338883	2004	0	0	-100	0	230	101300000	1000	0	0	-1	0
14351443	1999	5	0	-100	0	230	101300000	1000	0	0	-1	0
14364004	2003	1	0	-100	0	230	101300000	1000	0	0	-1	0
14376563	1999	0	0	-100	0	230	101300000	1000	0	0	-1	0
14389123	2002	0	0	-100	0	230	101300000	1000	0	0	-1	0
14401683	1999	0	0	-100	0	230	101300000	1000	0	0	-1	0
14414243	1999	0	0	-100	0	230	101300000	1000	0	0	-1	0
14426803	2001	0	0	-100	0	230	101300000	1000	0	0	-1	0
14439363	1997	4	0	-100	0	230	101300000	1000	0	0	-1	0
14451923	2006	0	0	-100	0	230	101300000	1000	0	0	-1	0
14464483	1999	0	0	-100	0	230	101300000	1000	0	0	-1	0
14477043	1997	1	0	-100	0	230	101300000	1000	0	0	-1	0
14489603	2004	0	0	-100	0	230	101300000	1000	0	0	-1	0
14502163	2005	3	0	-100	0	230	101300000	1000	0	0	-1	0
14514723	2005	0	0	-100	0	230	101300000	1000	0	0	-1	0
14527283	2000	4	0	-100	0	230	101300000	1000	0	0	-1	0
14539843	2007	0	0	-100	0	230	101300000	1000	0	0	-1	0
14552403	1996	0	0	-100	0	230	101300000	1000	0	0	-1	0
14564963	2000	0	0	-100	0	230	101300000	1000	0	0	-1	0
14577523	2002	0	0	-100	0	230	101300000	1000	0	0	-1	0
14590083	2000	3	0	-100	0	230	101300000	1000	0	0	-1	0
14602643	2008	0	0	-100	0	230	101300000	1000	0	0	-1	0
14615203	2000	0	0	-100	0	230	101300000	1000	0	0	-1	0
14627763	1997	3	0	-100	0	230	101300000	1000	0	0	-1	0
14640323	2005	0	0	-100	0	230	101300000	1000	0	0	-1	0
14652883	1995	1	0	-100	0	230	101300000	1000	0	0	-1	0
14665443	2002	0	0	-100	0	230	101300000	1000	0	0	-1	0
14678004	2009	0	0	-100	0	230	101300000	1000	0	0	-1	0
14690563	2007	0	0	-100	0	230	101300000	1000	0	0	-1	0
14703123	1999	0	0	-100	0	230	101300000	1000	0	0	-1	0
14715683	1997	1	0	-100	0	230	101300000	1000	0	0	-1	0
14728243	2005	0	0	-100	0	230	101300000	1000	0	0	-1	0
14740803	1998	5	0	-100	0	230	101300000	1000	0	0	-1	0
14753363	2006	0	0	-100	0	230	101300000	1000	0	0	-1	0
14765923	2000	4	0	-100	0	230	101300000	1000	0	0	-1	0
14778483	2008	0	0	-100	0	230	101300000	1000	0	0	-1	0
14791043	1998	0	0	-100	0	230	101300000	1000	0	0	-1	0
14803603	1998	0	0	-100	0	230	101300000	1000	0	0	-1	0
14816163	2005	0	0	-100	0	230	101300000	1000	0	0	-1	0
14828723	1997	1	0	-100	0	230	101300000	1000	0	0	-1	0
14841283	2002	0	0	-100	0	230	101300000	1000	0	0	-1	0
14853843	1995	1	0	-100	0	230	101300000	1000	0	0	-1	0
14866403	2004	0	0	-100	0	230	101300000	1000	0	0	-1	0
14878963	1999	4	0	-100	0	230	101300000	1000	0	0	-1	0
14891523	2006	0	0	-100	0	230	101300000	1000	0	0	-1	0
14904083	2001	3	0	-100	0	230	101300000	1000	0	0	-1	0
14916643	2007	0	0	-100	0	230	101300000	1000	0	0	-1	0
14929203	2000	4	0	-100	0	230	101300000	1000	0	0	-1	0
14941763	2005	0	0	-100	0	230	101300000	1000	0	0	-1	0
14954323	1997	2	0	-100	0	230	101300000	1000	0	0	-1	0
14966883	2002	0	0	-100	0	230	101300000	1000	0	0	-1	0
14979443	1998	0	0	-100	0	230	101300000	1000	0	0	-1	0
14992004	2012	0	0	-100	0	230	101300000	1000	0	0	-1	0
15004563	2005	0	0	-100	0	230	101300000	1000	0	0	-1	0
15017123	1997	2	0	-100	0	230	101300000	1000	0	0	-1	0
15029683	1998	0	0	-100	0	230	101300000	1000	0	0	-1	0
15042243	2007	0	0	-100	0	230	101300000	1000	0	0	-1	0
15054803	1995	1	0	-100	0	230	101300000	1000	0	0	-1	0
15067363	2000	0	0	-100	0	230	101300000	1000	0	0	-1	0
15079923	2003	0	0	-100	0	230	101300000	1000	0	0	-1	0
15092483	2002	3	0	-100	0	230	101300000	1000	0	0	-1	0
15105043	2005	0	0	-100	0	230	101300000	1000	0	0	-1	0
15117603	2002	0	0	-100	0	230	101300000	1000	0	0	-1	0
15130163	2007	0	0	-100	0	230	101300000	1000	0	0	-1	0
15142723	2005	0	0	-100	0	230	101300000	1000	0	0	-1	0
15155283	1997	2	0	-100	0	230	101300000	1000	0	0	-1	0
15167843	2000	0	0	-100	0	230	101300000	1000	0	0	-1	0
15180403	2005	0	0	-100	0	230	101300000	1000	0	0	-1	0
15192963	1998	4	0	-100	0	230	101300000	1000	0	0	-1	0
15205523	2004	0	0	-100	0	230	101300000	1000	0	0	-1	0
15218083	1999	3	0	-100	0	230	101300000	1000	0	0	-1	0
15230643	1999	0	0	-100	0	230	101300000	1000	0	0	-1	0
15243203	2007	0	0	-100	0	230	101300000	1000	0	0	-1	0
15255763	1999	4	0	-100	0	230	101300000	1000	0	0	-1	0
15268323	2001	0	0	-100	0	230	101300000	1000	0	0	-1	0
15280883	2000	0	0	-100	0	230	101300000	1000	0	0	-1	0
15293443	1997	4	0	-100	0	230	101300000	1000	0	0	-1	0
15306004	2008	0	0	-100	0	230	101300000	1000	0	0	-1	0
15318563	2007	0	0	-100	0	230	101300000	1000	0	0	-1	0
15331123	1998	4	0	-100	0	230	101300000	1000	0	0	-1	0
15343683	1999	0	0	-100	0	230	101300000	1000	0	0	-1	0
15356243	2004	0	0	-100	0	230	101300000	1000	0	0	-1	0
15368803	2000	0	0	-100	0	230	101300000	1000	0	0	-1	0
15381363	1998	4	0	-100	0	230	101300000	1000	0	0	-1	0
15393923	1997	0	0	-100	0	230	101300000	1000	0	0	-1	0
15406483	2004	0	0	-100	0	230	101300000	1000	0	0	-1	0
15419043	1999	2	0	-100	0	230	101300000	1000	0	0	-1	0
15431603	1999	1	0	-100	0	230	101300000	1000	0	0	-1	0
15444163	2010	0	0	-100	0	230	101300000	1000	0	0	-1	0
15456723	1997	2	0	-100	0	230	101300000	1000	0	0	-1	0
15469283	1999	0	0	-100	0	230	101300000	1000	0	0	-1	0
15481843	2004	0	0	-100	0	230	101300000	1000	0	0	-1	0
15494403	1997	3	0	-100	0	230	101300000	1000	0	0	-1	0
15506963	1999	0	0	-100	0	230	101300000	1000	0	0	-1	0
15519523	2007	0	0	-100	0	230	101300000	1000	0	0	-1	0
15532083	2000	4	0	-100	0	230	101300000	1000	0	0	-1	0
15544643	2000	0	0	-100	0	230	101300000	1000	0	0	-1	0
15557203	2007	0	0	-100	0	230	101300000	1000	0	0	-1	0
15569763	2000	4	0	-100	0	230	101300000	1000	0	0	-1	0
15582323	2000	0	0	-100	0	230	101300000	1000	0	0	-1	0
15594883	2004	0	0	-100	0	230	101300000	1000	0	0	-1	0
15607443	1997	3	0	-100	0	230	101300000	1000	0	0	-1	0
15620004	2011	0	0	-100	0	230	101300000	1000	0	0	-1	0
15632563	2007	0	0	-100	0	230	101300000	1000	0	0	-1	0
15645123	2000	2	0	-100	0	230	101300000	1000	0	0	-1	0
15657683	1999	5	0	-100	0	230	101300000	1000	0	0	-1	0
15682803	2007	0	0	-100	0	230	101300000	1000	0	0	-1	0
15695363	2000	0	0	-100	0	230	101300000	1000	0	0	-1	0
15707923	1998	4	0	-100	0	230	101300000	1000	0	0	-1	0
15720483	1999	0	0	-100	0	230	101300000	1000	0	0	-1	0
15733043	2005	0	0	-100	0	230	101300000	1000	0	0	-1	0
15745603	1997	2	0	-100	0	230	101300000	1000	0	0	-1	0
15758163	2005	0	0	-100	0	230	101300000	1000	0	0	-1	0
15770723	2002	0	0	-100	0	230	101300000	1000	0	0	-1	0
15783283	2002	0	0	-100	0	230	101300000	1000	0	0	-1	0
15795843	2001	4	0	-100	0	230	101300000	1000	0	0	-1	0
15808403	1999	0	0	-100	0	230	101300000	1000	0	0	-1	0
15820963	2007	0	0	-100	0	230	101300000	1000	0	0	-1	0
15833523	2000	0	0	-100	0	230	101300000	1000	0	0	-1	0
15846083	2000	2	0	-100	0	230	101300000	1000	0	0	-1	0
15858643	2000	0	0	-100	0	230	101300000	1000	0	0	-1	0
15871203	2005	0	0	-100	0	230	101300000	1000	0	0	-1	0
15883763	1997	1	0	-100	0	230	101300000	1000	0	0	-1	0
15896323	1997	0	0	-100	0	230	101300000	1000	0	0	-1	0
15908883	2003	0	0	-100	0	230	101300000	1000	0	0	-1	0
15921443	2002	0	0	-100	0	230	101300000	1000	0	0	-1	0
15934004	2008	0	0	-100	0	230	101300000	1000	0	0	-1	0
15946563	2001	0	0	-100	0	230	101300000	1000	0	0	-1	0
15959123	2007	0	0	-100	0	230	101300000	1000	0	0	-1	0
15971683	1997	1	0	-100	0	230	101300000	1000	0	0	-1	0
15984243	1997	0	0	-100	0	230	101300000	1000	0	0	-1	0
15996803	2005	0	0	-100	0	230	101300000	1000	0	0	-1	0
16009363	2005	0	0	-100	0	230	101300000	1000	0	0	-1	0
16021923	1998	3	0	-100	0	230	101300000	1000	0	0	-1	0
16034483	1999	0	0	-100	0	230	101300000	1000	0	0	-1	0
16047043	2002	0	0	-100	0	230	101300000	1000	0	0	-1	0
16059603	2005	0	0	-100	0	230	101300000	1000	0	0	-1	0
16072163	2008	0	0	-100	0	230	101300000	1000	0	0	-1	0
16084723	1998	1	0	-100	0	230	101300000	1000	0	0	-1	0
16097283	1999	0	0	-100	0	230	101300000	1000	0	0	-1	0
16109843	2003	0	0	-100	0	230	101300000	1000	0	0	-1	0
16122403	2008	0	0	-100	0	230	101300000	1000	0	0	-1	0
16134963	2000	2	0	-100	0	230	101300000	1000	0	0	-1	0
16147523	1999	0	0	-100	0	230	101300000	1000	0	0	-1	0
16160083	2004	0	0	-100	0	230	101300000	1000	0	0	-1	0
16172643	2005	0	0	-100	0	230	101300000	1000	0	0	-1	0
16185203	2000	4	0	-100	0	230	101300000	1000	0	0	-1	0
16197763	1999	0	0	-100	0	230	101300000	1000	0	0	-1	0
16210323	2005	0	0	-100	0	230	101300000	1000	0	0	-1	0
16222883	2005	0	0	-100	0	230	101300000	1000	0	0	-1	0
16235443	2000	4	0	-100	0	230	101300000	1000	0	0	-1	0
16248004	2007	0	0	-100	0	230	101300000	1000	0	0	-1	0
16260563	2005	0	0	-100	0	230	101300000	1000	0	0	-1	0
16273123	2000	0	0	-100	0	230	101300000	1000	0	0	-1	0
16285683	2005	0	0	-100	0	230	101300000	1000	0	0	-1	0
16298243	1997	4	0	-100	0	230	101300000	1000	0	0	-1	0
16310803	1997	0	0	-100	0	230	101300000	1000	0	0	-1	0
16323363	2007	0	0	-100	0	230	101300000	1000	0	0	-1	0
16335923	1998	4	0	-100	0	230	101300000	1000	0	0	-1	0
16348483	2000	0	0	-100	0	230	101300000	1000	0	0	-1	0
16361043	2005	0	0	-100	0	230	101300000	1000	0	0	-1	0
16373603	2000	4	0	-100	0	230	101300000	1000	0	0	-1	0
16386163	2008	0	0	-100	0	230	101300000	1000	0	0	-1	0
16398723	2005	0	0	-100	0	230	101300000	1000	0	0	-1	0
16411283	1995	3	0	-100	0	230	101300000	1000	0	0	-1	0
16423843	1999	0	0	-100	0	230	101300000	1000	0	0	-1	0
16436403	2006	0	0	-100	0	230	101300000	1000	0	0	-1	0
16448963	2000	1	0	-100	0	230	101300000	1000	0	0	-1	0
16461523	2000	4	0	-100	0	230	101300000	1000	0	0	-1	0
16474083	2002	0	0	-100	0	230	101300000	1000	0	0	-1	0
16486643	2002	0	0	-100	0	230	101300000	1000	0	0	-1	0
16499203	2005	0	0	-100	0	230	101300000	1000	0	0	-1	0
16511763	1998	2	0	-100	0	230	101300000	1000	0	0	-1	0
16524323	1996	0	0	-100	0	230	101300000	1000	0	0	-1	0
16536883	2007	0	0	-100	0	230	101300000	1000	0	0	-1	0
16549443	2000	0	0	-100	0	230	101300000	1000	0	0	-1	0
16562004	2005	0	0	-100	0	230	101300000	1000	0	0	-1	0
16574563	2001	4	0	-100	0	230	101300000	1000	0	0	-1	0
16587123	1999	0	0	-100	0	230	101300000	1000	0	0	-1	0
16599683	2003	0	0	-100	0	230	101300000	1000	0	0	-1	0
16612243	2004	0	0	-100	0	230	101300000	1000	0	0	-1	0
16624803	1998	0	0	-100	0	230	101300000	1000	0	0	-1	0
16637363	2000	5	0	-100	0	230	101300000	1000	0	0	-1	0
16649923	1996	0	0	-100	0	230	101300000	1000	0	0	-1	0
16662483	2000	0	0	-100	0	230	101300000	1000	0	0	-1	0
16675043	2004	0	0	-100	0	230	101300000	1000	0	0	-1	0
16687603	2005	0	0	-100	0	230	101300000	1000	0	0	-1	0
16700163	2008	0	0	-100	0	230	101300000	1000	0	0	-1	0
16712723	2000	0	0	-100	0	230	101300000	1000	0	0	-1	0
16725283	1998	4	0	-100	0	230	101300000	1000	0	0	-1	0
16737843	1998	4	0	-100	0	230	101300000	1000	0	0	-1	0
16750403	1999	0	0	-100	0	230	101300000	1000	0	0	-1	0
16762963	2000	0	0	-100	0	230	101300000	1000	0	0	-1	0
16775523	2004	0	0	-100	0	230	101300000	1000	0	0	-1	0
16788083	2000	4	0	-100	0	230	101300000	1000	0	0	-1	0
16800643	1999	0	0	-100	0	230	101300000	1000	0	0	-1	0
16813203	2000	0	0	-100	0	230	101300000	1000	0	0	-1	0
16825763	2005	0	0	-100	0	230	101300000	1000	0	0	-1	0
16838323	1997	1	0	-100	0	230	101300000	1000	0	0	-1	0
16850883	2000	4	0	-100	0	230	101300000	1000	0	0	-1	0
16863443	2004	0	0	-100	0	230	101300000	1000	0	0	-1	0
16876004	2005	3	0	-100	0	230	101300000	1000	0	0	-1	0
16888563	1998	4	0	-100	0	230	101300000	1000	0	0	-1	0
16901123	2004	0	0	-100	0	230	101300000	1000	0	0	-1	0
16913683	1999	1	0	-100	0	230	101300000	1000	0	0	-1	0
16926243	1997	0	0	-100	0	230	101300000	1000	0	0	-1	0
16938803	2003	0	0	-100	0	230	101300000	1000	0	0	-1	0
16951363	1996	4	0	-100	0	230	101300000	1000	0	0	-1	0
16963923	1997	0	0	-100	0	230	101300000	1000	0	0	-1	0
16976483	2008	0	0	-100	0	230	101300000	1000	0	0	-1	0
16989043	2000	4	0	-100	0	230	101300000	1000	0	0	-1	0
17001603	2006	0	0	-100	0	230	101300000	1000	0	0	-1	0
17014163	2005	0	0	-100	0	230	101300000	1000	0	0	-1	0
17026723	1999	0	0	-100	0	230	101300000	1000	0	0	-1	0
17039283	2004	0	0	-100	0	230	101300000	1000	0	0	-1	0
17051843	1997	1	0	-100	0	230	101300000	1000	0	0	-1	0
17064403	1997	0	0	-100	0	230	101300000	1000	0	0	-1	0
17076963	2007	0	0	-100	0	230	101300000	1000	0	0	-1	0
17089523	1998	4	0	-100	0	230	101300000	1000	0	0	-1	0
17102083	2006	0	0	-100	0	230	101300000	1000	0	0	-1	0
17114643	2007	0	0	-100	0	230	101300000	1000	0	0	-1	0
17127203	2000	4	0	-100	0	230	101300000	1000	0	0	-1	0
17139763	1998	0	0	-100	0	230	101300000	1000	0	0	-1	0
17152323	2004	0	0	-100	0	230	101300000	1000	0	0	-1	0
17164883	2000	1	0	-100	0	230	101300000	1000	0	0	-1	0
17177443	1998	1	0	-100	0	230	101300000	1000	0	0	-1	0
17190004	2012	0	0	-100	0	230	101300000	1000	0	0	-1	0
17202563	2004	0	0	-100	0	230	101300000	1000	0	0	-1	0
17215123	2005	0	0	-100	0	230	101300000	1000	0	0	-1	0
17227683	2008	0	0	-100	0	230	101300000	1000	0	0	-1	0
17240243	1997	1	0	-100	0	230	101300000	1000	0	0	-1	0
17252803	1999	4	0	-100	0	230	101300000	1000	0	0	-1	0
17265363	2000	4	0	-100	0	230	101300000	1000	0	0	-1	0
17277923	1997	0	0	-100	0	230	101300000	1000	0	0	-1	0
17290483	1999	0	0	-100	0	230	101300000	1000	0	0	-1	0
17303043	2004	0	0	-100	0	230	101300000	1000	0	0	-1	0
17315603	1999	0	0	-100	0	230	101300000	1000	0	0	-1	0
17328163	2002	3	0	-100	0	230	101300000	1000	0	0	-1	0
17340723	1999	6	0	-100	0	230	101300000	1000	0	0	-1	0
17353283	2001	0	0	-100	0	230	101300000	1000	0	0	-1	0
17365843	2007	0	0	-100	0	230	101300000	1000	0	0	-1	0
17378403	1997	5	0	-100	0	230	101300000	1000	0	0	-1	0
17390963	1998	0	0	-100	0	230	101300000	1000	0	0	-1	0
17403523	2007	0	0	-100	0	230	101300000	1000	0	0	-1	0
17416083	2002	0	0	-100	0	230	101300000	1000	0	0	-1	0
17428643	1998	4	0	-100	0	230	101300000	1000	0	0	-1	0
17441203	1999	0	0	-100	0	230	101300000	1000	0	0	-1	0
17453763	2007	0	0	-100	0	230	101300000	1000	0	0	-1	0
17466323	1997	3	0	-100	0	230	101300000	1000	0	0	-1	0
17478883	1996	1	0	-100	0	230	101300000	1000	0	0	-1	0
17491443	2007	0	0	-100	0	230	101300000	1000	0	0	-1	0
17504004	2005	0	0	-100	0	230	101300000	1000	0	0	-1	0
17516563	1997	0	0	-100	0	230	101300000	1000	0	0	-1	0
17529123	2006	0	0	-100	0	230	101300000	1000	0	0	-1	0
17541683	1997	3	0	-100	0	230	101300000	1000	0	0	-1	0
17554243	2007	0	0	-100	0	230	101300000	1000	0	0	-1	0
17566803	2000	0	0	-100	0	230	101300000	1000	0	0	-1	0
17579363	2002	4	0	-100	0	230	101300000	1000	0	0	-1	0
17591923	2005	0	0	-100	0	230	101300000	1000	0	0	-1	0
17604483	2000	0	0	-100	0	230	101300000	1000	0	0	-1	0
17617043	1998	3	0	-100	0	230	101300000	1000	0	0	-1	0
17629603	2000	0	0	-100	0	230	101300000	1000	0	0	-1	0
17642163	2009	0	0	-100	0	230	101300000	1000	0	0	-1	0
17654723	2007	0	0	-100	0	230	101300000	1000	0	0	-1	0
17667283	1995	1	0	-100	0	230	101300000	1000	0	0	-1	0
17679843	2002	0	0	-100	0	230	101300000	1000	0	0	-1	0
17692403	2005	0	0	-100	0	230	101300000	1000	0	0	-1	0
17704963	1998	1	0	-100	0	230	101300000	1000	0	0	-1	0
17717523	2000	0	0	-100	0	230	101300000	1000	0	0	-1	0
17730083	2004	0	0	-100	0	230	101300000	1000	0	0	-1	0
17742643	2000	0	0	-100	0	230	101300000	1000	0	0	-1	0
17755203	2000	4	0	-100	0	230	101300000	1000	0	0	-1	0
17767763	1999	0	0	-100	0	230	101300000	1000	0	0	-1	0
17780323	2009	0	0	-100	0	230	101300000	1000	0	0	-1	0
17792883	2000	2	0	-100	0	230	101300000	1000	0	0	-1	0
17805443	2000	4	0	-100	0	230	101300000	1000	0	0	-1	0
17818004	2011	0	0	-100	0	230	101300000	1000	0	0	-1	0
17830563	2004	0	0	-100	0	230	101300000	1000	0	0	-1	0
17843123	1998	1	0	-100	0	230	101300000	1000	0	0	-1	0
17855683	2000	4	0	-100	0	230	101300000	1000	0	0	-1	0
17868243	2003	0	0	-100	0	230	101300000	1000	0	0	-1	0
17880803	2004	0	0	-100	0	230	101300000	1000	0	0	-1	0
17893363	1998	3	0	-100	0	230	101300000	1000	0	0	-1	0
17905923	1996	0	0	-100	0	230	101300000	1000	0	0	-1	0
17918483	2003	0	0	-100	0	230	101300000	1000	0	0	-1	0
17931043	2004	0	0	-100	0	230	101300000	1000	0	0	-1	0
17943603	2000	0	0	-100	0	230	101300000	1000	0	0	-1	0
17956163	2007	4	0	-100	0	230	101300000	1000	0	0	-1	0
17968723	2000	0	0	-100	0	230	101300000	1000	0	0	-1	0
17981283	2005	0	0	-100	0	230	101300000	1000	0	0	-1	0
17993843	2000	1	0	-100	0	230	101300000	1000	0	0	-1	0
18006403	2000	3	0	-100	0	230	101300000	1000	0	0	-1	0
18018963	2000	0	0	-100	0	230	101300000	1000	0	0	-1	0
18031523	2006	0	0	-100	0	230	101300000	1000	0	0	-1	0
18044083	1999	0	0	-100	0	230	101300000	1000	0	0	-1	0
18056643	1997	4	0	-100	0	230	101300000	1000	0	0	-1	0
18069203	1997	0	0	-100	0	230	101300000	1000	0	0	-1	0
18081763	2002	0	0	-100	0	230	101300000	1000	0	0	-1	0
18094323	2007	0	0	-100	0	230	101300000	1000	0	0	-1	0
18106883	1997	3	0	-100	0	230	101300000	1000	0	0	-1	0
18119443	1997	0	0	-100	0	230	101300000	1000	0	0	-1	0
18132004	2004	0	0	-100	0	230	101300000	1000	0	0	-1	0
18144563	2007	0	0	-100	0	230	101300000	1000	0	0	-1	0
18157123	1997	2	0	-100	0	230	101300000	1000	0	0	-1	0
18169683	2000	3	0	-100	0	230	101300000	1000	0	0	-1	0
18182243	2000	0	0	-100	0	230	101300000	1000	0	0	-1	0
18194803	2007	0	0	-100	0	230	101300000	1000	0	0	-1	0
18207363	2000	0	0	-100	0	230	101300000	1000	0	0	-1	0
18219923	1998	4	0	-100	0	230	101300000	1000	0	0	-1	0
18232483	2002	0	0	-100	0	230	101300000	1000	0	0	-1	0
18245043	2006	0	0	-100	0	230	101300000	1000	0	0	-1	0
18257603	2000	2	0	-100	0	230	101300000	1000	0	0	-1	0
18270163	2005	4	0	-100	0	230	101300000	1000	0	0	-1	0
18282723	1997	0	0	-100	0	230	101300000	1000	0	0	-1	0
18295283	2002	0	0	-100	0	230	101300000	1000	0	0	-1	0
18307843	2005	0	0	-100	0	230	101300000	1000	0	0	-1	0
18320403	2008	0	0	-100	0	230	101300000	1000	0	0	-1	0
18332963	1998	1	0	-100	0	230	101300000	1000	0	0	-1	0
18345523	2000	3	0	-100	0	230	101300000	1000	0	0	-1	0
18358083	1997	0	0	-100	0	230	101300000	1000	0	0	-1	0
18370643	2000	0	0	-100	0	230	101300000	1000	0	0	-1	0
18383203	2005	0	0	-100	0	230	101300000	1000	0	0	-1	0
18395763	2000	0	0	-100	0	230	101300000	1000	0	0	-1	0
18408323	1998	3	0	-100	0	230	101300000	1000	0	0	-1	0
18420883	1995	0	0	-100	0	230	101300000	1000	0	0	-1	0
18433443	1999	0	0	-100	0	230	101300000	1000	0	0	-1	0
18446004	2007	0	0	-100	0	230	101300000	1000	0	0	-1	0
18458563	2005	0	0	-100	0	230	101300000	1000	0	0	-1	0
18471123	2005	0	0	-100	0	230	101300000	1000	0	0	-1	0
18483683	2005	0	0	-100	0	230	101300000	1000	0	0	-1	0
18496243	2000	0	0	-100	0	230	101300000	1000	0	0	-1	0
18508803	1997	2	0	-100	0	230	101300000	1000	0	0	-1	0
18521363	2000	5	0	-100	0	230	101300000	1000	0	0	-1	0
18533923	1999	0	0	-100	0	230	101300000	1000	0	0	-1	0
18546483	2001	0	0	-100	0	230	101300000	1000	0	0	-1	0
18559043	2007	0	0	-100	0	230	101300000	1000	0	0	-1	0
18571603	2000	0	0	-100	0	230	101300000	1000	0	0	-1	0
18584163	2006	3	0	-100	0	230	101300000	1000	0	0	-1	0
18596723	2002	2	0	-100	0	230	101300000	1000	0	0	-1	0
18609283	1997	0	0	-100	0	230	101300000	1000	0	0	-1	0
18621843	2005	0	0	-100	0	230	101300000	1000	0	0	-1	0
18634403	2006	0	0	-100	0	230	101300000	1000	0	0	-1	0
18646963	1995	1	0	-100	0	230	101300000	1000	0	0	-1	0
18659523	1998	4	0	-100	0	230	101300000	1000	0	0	-1	0
18672083	1998	0	0	-100	0	230	101300000	1000	0	0	-1	0
18684643	2005	0	0	-100	0	230	101300000	1000	0	0	-1	0
18697203	2002	0	0	-100	0	230	101300000	1000	0	0	-1	0
18709763	1997	4	0	-100	0	230	101300000	1000	0	0	-1	0
18722323	1998	0	0	-100	0	230	101300000	1000	0	0	-1	0
18734883	2007	0	0	-100	0	230	101300000	1000	0	0	-1	0
18747443	2000	1	0	-100	0	230	101300000	1000	0	0	-1	0
18760004	2003	0	0	-100	0	230	101300000	1000	0	0	-1	0
18772563	1997	4	0	-100	0	230	101300000	1000	0	0	-1	0
18785123	2000	0	0	-100	0	230	101300000	1000	0	0	-1	0
18797683	2003	0	0	-100	0	230	101300000	1000	0	0	-1	0
18810243	2007	0	0	-100	0	230	101300000	1000	0	0	-1	0
18822803	2005	0	0	-100	0	230	101300000	1000	0	0	-1	0
18835363	1999	3	0	-100	0	230	101300000	1000	0	0	-1	0
18847923	1999	4	0	-100	0	230	101300000	1000	0	0	-1	0
18860483	1998	0	0	-100	0	230	101300000	1000	0	0	-1	0
18873043	2004	0	0	-100	0	230	101300000	1000	0	0	-1	0
18885603	2007	0	0	-100	0	230	101300000	1000	0	0	-1	0
18898163	2003	4	0	-100	0	230	101300000	1000	0	0	-1	0
18910723	2002	0	0	-100	0	230	101300000	1000	0	0	-1	0
18923283	2002	0	0	-100	0	230	101300000	1000	0	0	-1	0
18935843	1999	0	0	-100	0	230	101300000	1000	0	0	-1	0
18948403	2004	0	0	-100	0	230	101300000	1000	0	0	-1	0
18960963	2000	2	0	-100	0	230	101300000	1000	0	0	-1	0
18973523	2000	0	0	-100	0	230	101300000	1000	0	0	-1	0
18986083	2003	0	0	-100	0	230	101300000	1000	0	0	-1	0
18998643	2005	0	0	-100	0	230	101300000	1000	0	0	-1	0
19011203	1997	4	0	-100	0	230	101300000	1000	0	0	-1	0
19023763	1999	0	0	-100	0	230	101300000	1000	0	0	-1	0
19036323	2003	0	0	-100	0	230	101300000	1000	0	0	-1	0
19048883	1998	2	0	-100	0	230	101300000	1000	0	0	-1	0
19061443	2000	4	0	-100	0	230	101300000	1000	0	0	-1	0
19074004	2009	0	0	-100	0	230	101300000	1000	0	0	-1	0
19086563	2007	0	0	-100	0	230	101300000	1000	0	0	-1	0
19099123	1998	4	0	-100	0	230	101300000	1000	0	0	-1	0
19111683	1999	0	0	-100	0	230	101300000	1000	0	0	-1	0
19124243	2004	0	0	-100	0	230	101300000	1000	0	0	-1	0
19136803	2005	0	0	-100	0	230	101300000	1000	0	0	-1	0
19149363	1998	3	0	-100	0	230	101300000	1000	0	0	-1	0
19161923	1998	0	0	-100	0	230	101300000	1000	0	0	-1	0
19174483	2005	0	0	-100	0	230	101300000	1000	0	0	-1	0
19187043	1998	0	0	-100	0	230	101300000	1000	0	0	-1	0
19199603	2003	4	0	-100	0	230	101300000	1000	0	0	-1	0
19212163	2008	0	0	-100	0	230	101300000	1000	0	0	-1	0
19224723	2008	0	0	-100	0	230	101300000	1000	0	0	-1	0
19237283	1998	2	0	-100	0	230	101300000	1000	0	0	-1	0
19249843	1997	0	0	-100	0	230	101300000	1000	0	0	-1	0
19262403	2007	0	0	-100	0	230	101300000	1000	0	0	-1	0
19274963	1997	3	0	-100	0	230	101300000	1000	0	0	-1	0
19287523	2000	5	0	-100	0	230	101300000	1000	0	0	-1	0
19300083	2000	0	0	-100	0	230	101300000	1000	0	0	-1	0
19312643	2005	0	0	-100	0	230	101300000	1000	0	0	-1	0
19325203	1999	0	0	-100	0	230	101300000	1000	0	0	-1	0
19337763	2000	0	0	-100	0	230	101300000	1000	0	0	-1	0
19350323	2004	0	0	-100	0	230	101300000	1000	0	0	-1	0
19362883	1994	1	0	-100	0	230	101300000	1000	0	0	-1	0
19375443	1999	0	0	-100	0	230	101300000	1000	0	0	-1	0
19388004	2001	2	0	-100	0	230	101300000	1000	0	0	-1	0
19400563	1999	4	0	-100	0	230	101300000	1000	0	0	-1	0
19413123	2000	0	0	-100	0	230	101300000	1000	0	0	-1	0
19425683	2004	0	0	-100	0	230	101300000	1000	0	0	-1	0
19438243	1997	2	0	-100	0	230	101300000	1000	0	0	-1	0
19450803	1996	0	0	-100	0	230	101300000	1000	0	0	-1	0
19463363	2004	0	0	-100	0	230	101300000	1000	0	0	-1	0
19475923	1997	4	0	-100	0	230	101300000	1000	0	0	-1	0
19488483	2001	0	0	-100	0	230	101300000	1000	0	0	-1	0
19501043	2007	0	0	-100	0	230	101300000	1000	0	0	-1	0
19513603	1997	4	0	-100	0	230	101300000	1000	0	0	-1	0
19526163	2008	0	0	-100	0	230	101300000	1000	0	0	-1	0
19538723	2004	0	0	-100	0	230	101300000	1000	0	0	-1	0
19551283	2000	3	0	-100	0	230	101300000	1000	0	0	-1	0
19563843	2000	5	0	-100	0	230	101300000	1000	0	0	-1	0
19576403	2000	0	0	-100	0	230	101300000	1000	0	0	-1	0
19588963	2007	0	0	-100	0	230	101300000	1000	0	0	-1	0
19601523	1998	4	0	-100	0	230	101300000	1000	0	0	-1	0
19614083	1999	0	0	-100	0	230	101300000	1000	0	0	-1	0
19626643	2002	0	0	-100	0	230	101300000	1000	0	0	-1	0
19639203	2005	0	0	-100	0	230	101300000	1000	0	0	-1	0
19651763	1997	3	0	-100	0	230	101300000	1000	0	0	-1	0
19664323	1998	0	0	-100	0	230	101300000	1000	0	0	-1	0
19676883	2002	0	0	-100	0	230	101300000	1000	0	0	-1	0
19689443	2005	0	0	-100	0	230	101300000	1000	0	0	-1	0
19702004	2005	4	0	-100	0	230	101300000	1000	0	0	-1	0
19714563	1999	0	0	-100	0	230	101300000	1000	0	0	-1	0
19727123	2001	3	0	-100	0	230	101300000	1000	0	0	-1	0
19739683	1999	0	0	-100	0	230	101300000	1000	0	0	-1	0
19752243	1997	0	0	-100	0	230	101300000	1000	0	0	-1	0
19764803	2006	0	0	-100	0	230	101300000	1000	0	0	-1	0
19777363	2002	0	0	-100	0	230	101300000	1000	0	0	-1	0
19789923	1999	0	0	-100	0	230	101300000	1000	0	0	-1	0
19802483	2004	0	0	-100	0	230	101300000	1000	0	0	-1	0
19815043	2005	0	0	-100	0	230	101300000	1000	0	0	-1	0
19827603	1997	2	0	-100	0	230	101300000	1000	0	0	-1	0
19840163	2003	0	0	-100	0	230	101300000	1000	0	0	-1	0
19852723	2005	0	0	-100	0	230	101300000	1000	0	0	-1	0
19865283	2000	0	0	-100	0	230	101300000	1000	0	0	-1	0
19877843	1998	4	0	-100	0	230	101300000	1000	0	0	-1	0
19890403	2000	0	0	-100	0	230	101300000	1000	0	0	-1	0
19902963	2007	0	0	-100	0	230	101300000	1000	0	0	-1	0
19915523	1998	3	0	-100	0	230	101300000	1000	0	0	-1	0
19928083	1996	0	0	-100	0	230	101300000	1000	0	0	-1	0
19940643	2002	0	0	-100	0	230	101300000	1000	0	0	-1	0
19953203	2007	0	0	-100	0	230	101300000	1000	0	0	-1	0
19965763	1998	2	0	-100	0	230	101300000	1000	0	0	-1	0
19978323	1999	0	0	-100	0	230	101300000	1000	0	0	-1	0
19990883	2000	0	0	-100	0	230	101300000	1000	0	0	-1	0
20003443	2005	0	0	-100	0	230	101300000	1000	0	0	-1	0
20016004	2005	0	0	-100	0	230	101300000	1000	0	0	-1	0
20028563	1998	3	0	-100	0	230	101300000	1000	0	0	-1	0
20041123	1999	0	0	-100	0	230	101300000	1000	0	0	-1	0
20053683	2003	0	0	-100	0	230	101300000	1000	0	0	-1	0
20066243	2007	0	0	-100	0	230	101300000	1000	0	0	-1	0
20078803	2002	0	0	-100	0	230	101300000	1000	0	0	-1	0
20091363	1997	2	0	-100	0	230	101300000	1000	0	0	-1	0
20103923	1997	4	0	-100	0	230	101300000	1000	0	0	-1	0
20116483	2002	4	0	-100	0	230	101300000	1000	0	0	-1	0
20129043	1998	0	0	-100	0	230	101300000	1000	0	0	-1	0
20141603	2005	0	0	-100	0	230	101300000	1000	0	0	-1	0
20154163	2011	0	0	-100	0	230	101300000	1000	0	0	-1	0
20166723	1999	4	0	-100	0	230	101300000	1000	0	0	-1	0
20179283	2000	0	0	-100	0	230	101300000	1000	0	0	-1	0
20191843	2005	0	0	-100	0	230	101300000	1000	0	0	-1	0
20204403	1999	0	0	-100	0	230	101300000	1000	0	0	-1	0
20216963	1998	3	0	-100	0	230	101300000	1000	0	0	-1	0
20229523	1998	0	0	-100	0	230	101300000	1000	0	0	-1	0
20242083	2004	0	0	-100	0	230	101300000	1000	0	0	-1	0
20254643	2007	0	0	-100	0	230	101300000	1000	0	0	-1	0
20267203	1997	4	0	-100	0	230	101300000	1000	0	0	-1	0
20279763	1996	0	0	-100	0	230	101300000	1000	0	0	-1	0
20292323	2004	0	0	-100	0	230	101300000	1000	0	0	-1	0
20304883	1997	0	0	-100	0	230	101300000	1000	0	0	-1	0
20317443	2003	5	0	-100	0	230	101300000	1000	0	0	-1	0
20330004	2007	0	0	-100	0	230	101300000	1000	0	0	-1	0
20342563	2005	0	0	-100	0	230	101300000	1000	0	0	-1	0
20355123	1998	2	0	-100	0	230	101300000	1000	0	0	-1	0
20367683	1997	0	0	-100	0	230	101300000	1000	0	0	-1	0
20380243	2007	0	0	-100	0	230	101300000	1000	0	0	-1	0
20392803	1997	1	0	-100	0	230	101300000	1000	0	0	-1	0
20405363	1997	0	0	-100	0	230	101300000	1000	0	0	-1	0
20417923	2007	0	0	-100	0	230	101300000	1000	0	0	-1	0
20430483	1998	0	0	-100	0	230	101300000	1000	0	0	-1	0
20443043	1997	0	0	-100	0	230	101300000	1000	0	0	-1	0
20455603	2006	0	0	-100	0	230	101300000	1000	0	0	-1	0
20468163	2003	2	0	-100	0	230	101300000	1000	0	0	-1	0
20480723	2002	0	0	-100	0	230	101300000	1000	0	0	-1	0
20493283	2000	0	0	-100	0	230	101300000	1000	0	0	-1	0
20505843	2000	0	0	-100	0	230	101300000	1000	0	0	-1	0
20518403	2005	0	0	-100	0	230	101300000	1000	0	0	-1	0
20530963	1998	2	0	-100	0	230	101300000	1000	0	0	-1	0
20543523	2000	0	0	-100	0	230	101300000	1000	0	0	-1	0
20556083	2004	0	0	-100	0	230	101300000	1000	0	0	-1	0
20568643	1998	1	0	-100	0	230	101300000	1000	0	0	-1	0
20581203	1996	0	0	-100	0	230	101300000	1000	0	0	-1	0
20593763	2004	0	0	-100	0	230	101300000	1000	0	0	-1	0
20606323	1998	2	0	-100	0	230	101300000	1000	0	0	-1	0
20618883	2000	0	0	-100	0	230	101300000	1000	0	0	-1	0
20631443	2000	0	0	-100	0	230	101300000	1000	0	0	-1	0
20644004	2012	0	0	-100	0	230	101300000	1000	0	0	-1	0
20656563	2005	0	0	-100	0	230	101300000	1000	0	0	-1	0
20669123	1998	1	0	-100	0	230	101300000	1000	0	0	-1	0
20681683	2007	0	0	-100	0	230	101300000	1000	0	0	-1	0
20694243	1997	0	0	-100	0	230	101300000	1000	0	0	-1	0
20706803	2001	0	0	-100	0	230	101300000	1000	0	0	-1	0
20719363	1997	0	0	-100	0	230	101300000	1000	0	0	-1	0
20731923	2008	0	0	-100	0	230	101300000	1000	0	0	-1	0
20744483	1997	0	0	-100	0	230	101300000	1000	0	0	-1	0
20757043	2002	0	0	-100	0	230	101300000	1000	0	0	-1	0
20769603	1997	0	0	-100	0	230	101300000	1000	0	0	-1	0
20782163	2012	0	0	-100	0	230	101300000	1000	0	0	-1	0
20794723	1997	0	0	-100	0	230	101300000	1000	0	0	-1	0
20807283	2004	0	0	-100	0	230	101300000	1000	0	0	-1	0
20819843	1998	4	0	-100	0	230	101300000	1000	0	0	-1	0
20832403	2005	0	0	-100	0	230	101300000	1000	0	0	-1	0
20844963	2000	0	0	-100	0	230	101300000	1000	0	0	-1	0
20857523	1998	0	0	-100	0	230	101300000	1000	0	0	-1	0
20870083	2005	0	0	-100	0	230	101300000	1000	0	0	-1	0
20882643	1997	0	0	-100	0	230	101300000	1000	0	0	-1	0
20895203	2008	0	0	-100	0	230	101300000	1000	0	0	-1	0
20907763	2002	2	0	-100	0	230	101300000	1000	0	0	-1	0
20920323	2004	0	0	-100	0	230	101300000	1000	0	0	-1	0
20932883	1998	3	0	-100	0	230	101300000	1000	0	0	-1	0
20945443	2004	0	0	-100	0	230	101300000	1000	0	0	-1	0
20958004	2002	0	0	-100	0	230	101300000	1000	0	0	-1	0
20970563	2000	0	0	-100	0	230	101300000	1000	0	0	-1	0
20983123	2007	0	0	-100	0	230	101300000	1000	0	0	-1	0
20995683	2000	3	0	-100	0	230	101300000	1000	0	0	-1	0
21008243	2004	0	0	-100	0	230	101300000	1000	0	0	-1	0
21020803	1998	1	0	-100	0	230	101300000	1000	0	0	-1	0
21033363	1997	0	0	-100	0	230	101300000	1000	0	0	-1	0
21045923	2006	0	0	-100	0	230	101300000	1000	0	0	-1	0
21058483	1999	5	0	-100	0	230	101300000	1000	0	0	-1	0
21071043	2002	0	0	-100	0	230	101300000	1000	0	0	-1	0
21083603	2005	0	0	-100	0	230	101300000	1000	0	0	-1	0
21096163	2003	3	0	-100	0	230	101300000	1000	0	0	-1	0
21108723	1999	0	0	-100	0	230	101300000	1000	0	0	-1	0
21121283	2004	0	0	-100	0	230	101300000	1000	0	0	-1	0
21133843	2005	0	0	-100	0	230	101300000	1000	0	0	-1	0
21146403	1997	2	0	-100	0	230	101300000	1000	0	0	-1	0
21158963	2002	0	0	-100	0	230	101300000	1000	0	0	-1	0
21171523	2007	0	0	-100	0	230	101300000	1000	0	0	-1	0
21184083	1998	3	0	-100	0	230	101300000	1000	0	0	-1	0
21196643	2004	0	0	-100	0	230	101300000	1000	0	0	-1	0
21209203	2000	0	0	-100	0	230	101300000	1000	0	0	-1	0
21221763	1999	1	0	-100	0	230	101300000	1000	0	0	-1	0
21234323	2005	0	0	-100	0	230	101300000	1000	0	0	-1	0
21246883	1995	2	0	-100	0	230	101300000	1000	0	0	-1	0
21259443	1997	0	0	-100	0	230	101300000	1000	0	0	-1	0
21272004	2005	1	0	-100	0	230	101300000	1000	0	0	-1	0
21284563	1998	0	0	-100	0	230	101300000	1000	0	0	-1	0
21297123	2000	0	0	-100	0	230	101300000	1000	0	0	-1	0
21309683	2004	0	0	-100	0	230	101300000	1000	0	0	-1	0
21322243	1997	4	0	-100	0	230	101300000	1000	0	0	-1	0
21334803	2002	0	0	-100	0	230	101300000	1000	0	0	-1	0
21347363	2007	0	0	-100	0	230	101300000	1000	0	0	-1	0
21359923	1997	3	0	-100	0	230	101300000	1000	0	0	-1	0
21372483	2000	0	0	-100	0	230	101300000	1000	0	0	-1	0
21385043	2007	0	0	-100	0	230	101300000	1000	0	0	-1	0
21397603	1999	4	0	-100	0	230	101300000	1000	0	0	-1	0
21410163	2006	0	0	-100	0	230	101300000	1000	0	0	-1	0
21422723	2000	0	0	-100	0	230	101300000	1000	0	0	-1	0
21435283	1997	0	0	-100	0	230	101300000	1000	0	0	-1	0
21447843	2006	0	0	-100	0	230	101300000	1000	0	0	-1	0
21460403	1999	4	0	-100	0	230	101300000	1000	0	0	-1	0
21472963	2004	0	0	-100	0	230	101300000	1000	0	0	-1	0
21485523	2000	1	0	-100	0	230	101300000	1000	0	0	-1	0
21498083	2000	0	0	-100	0	230	101300000	1000	0	0	-1	0
21510643	2004	0	0	-100	0	230	101300000	1000	0	0	-1	0
21523203	1998	2	0	-100	0	230	101300000	1000	0	0	-1	0
21535763	2000	0	0	-100	0	230	101300000	1000	0	0	-1	0
21548323	2004	0	0	-100	0	230	101300000	1000	0	0	-1	0
21560883	1998	1	0	-100	0	230	101300000	1000	0	0	-1	0
21573443	1995	0	0	-100	0	230	101300000	1000	0	0	-1	0
21586004	1999	1	0	-100	0	230	101300000	1000	0	0	-1	0
21598563	1995	0	0	-100	0	230	101300000	1000	0	0	-1	0
21611123	1997	0	0	-100	0	230	101300000	1000	0	0	-1	0
21623683	2000	0	0	-100	0	230	101300000	1000	0	0	-1	0
21636243	2007	0	0	-100	0	230	101300000	1000	0	0	-1	0
21648803	2003	0	0	-100	0	230	101300000	1000	0	0	-1	0
21661363	1995	1	0	-100	0	230	101300000	1000	0	0	-1	0
21673923	2000	4	0	-100	0	230	101300000	1000	0	0	-1	0
21686483	2002	0	0	-100	0	230	101300000	1000	0	0	-1	0
21699043	2004	0	0	-100	0	230	101300000	1000	0	0	-1	0
21711603	2002	0	0	-100	0	230	101300000	1000	0	0	-1	0
21724163	2003	1	0	-100	0	230	101300000	1000	0	0	-1	0
21736723	2001	4	0	-100	0	230	101300000	1000	0	0	-1	0
21749283	1997	0	0	-100	0	230	101300000	1000	0	0	-1	0
21761843	2002	0	0	-100	0	230	101300000	1000	0	0	-1	0
21774403	2000	0	0	-100	0	230	101300000	1000	0	0	-1	0
21786963	2002	6	0	-100	0	230	101300000	1000	0	0	-1	0
21799523	2005	0	0	-100	0	230	101300000	1000	0	0	-1	0
21812083	2002	0	0	-100	0	230	101300000	1000	0	0	-1	0
21824643	1997	4	0	-100	0	230	101300000	1000	0	0	-1	0
21837203	2005	0	0	-100	0	230	101300000	1000	0	0	-1	0
21849763	2008	0	0	-100	0	230	101300000	1000	0	0	-1	0
21862323	1999	4	0	-100	0	230	101300000	1000	0	0	-1	0
21874883	1999	0	0	-100	0	230	101300000	1000	0	0	-1	0
21887443	2000	1	0	-100	0	230	101300000	1000	0	0	-1	0
21900004	2009	0	0	-100	0	230	101300000	1000	0	0	-1	0
21912563	2001	0	0	-100	0	230	101300000	1000	0	0	-1	0
21925123	2002	0	0	-100	0	230	101300000	1000	0	0	-1	0
21937683	2000	4	0	-100	0	230	101300000	1000	0	0	-1	0
21950243	1999	0	0	-100	0	230	101300000	1000	0	0	-1	0
21962803	2005	0	0	-100	0	230	101300000	1000	0	0	-1	0
21975363	2004	0	0	-100	0	230	101300000	1000	0	0	-1	0
21987923	2000	0	0	-100	0	230	101300000	1000	0	0	-1	0
22000483	1997	4	0	-100	0	230	101300000	1000	0	0	-1	0
22013043	2000	0	0	-100	0	230	101300000	1000	0	0	-1	0
22025603	2004	0	0	-100	0	230	101300000	1000	0	0	-1	0
22038163	2006	0	0	-100	0	230	101300000	1000	0	0	-1	0
22050723	1997	0	0	-100	0	230	101300000	1000	0	0	-1	0
22063283	2005	0	0	-100	0	230	101300000	1000	0	0	-1	0
22075843	2000	0	0	-100	0	230	101300000	1000	0	0	-1	0
22088403	1998	3	0	-100	0	230	101300000	1000	0	0	-1	0
22100963	2002	0	0	-100	0	230	101300000	1000	0	0	-1	0
22113523	2002	0	0	-100	0	230	101300000	1000	0	0	-1	0
22126083	2001	0	0	-100	0	230	101300000	1000	0	0	-1	0
22138643	2004	0	0	-100	0	230	101300000	1000	0	0	-1	0
22151203	2003	4	0	-100	0	230	101300000	1000	0	0	-1	0
22163763	2007	0	0	-100	0	230	101300000	1000	0	0	-1	0
22176323	2000	4	0	-100	0	230	101300000	1000	0	0	-1	0
22188883	1999	0	0	-100	0	230	101300000	1000	0	0	-1	0
22201443	2000	0	0	-100	0	230	101300000	1000	0	0	-1	0
22214004	2012	0	0	-100	0	230	101300000	1000	0	0	-1	0
22226563	2006	0	0	-100	0	230	101300000	1000	0	0	-1	0
22239123	1999	5	0	-100	0	230	101300000	1000	0	0	-1	0
22251683	2005	0	0	-100	0	230	101300000	1000	0	0	-1	0
22264243	1997	4	0	-100	0	230	101300000	1000	0	0	-1	0
22276803	2005	0	0	-100	0	230	101300000	1000	0	0	-1	0
22289363	1997	3	0	-100	0	230	101300000	1000	0	0	-1	0
22301923	2005	0	0	-100	0	230	101300000	1000	0	0	-1	0
22314483	2000	1	0	-100	0	230	101300000	1000	0	0	-1	0
22327043	1997	0	0	-100	0	230	101300000	1000	0	0	-1	0
22339603	2005	0	0	-100	0	230	101300000	1000	0	0	-1	0
22352163	2003	2	0	-100	0	230	101300000	1000	0	0	-1	0
22364723	1999	0	0	-100	0	230	101300000	1000	0	0	-1	0
22377283	2006	0	0	-100	0	230	101300000	1000	0	0	-1	0
22389843	1997	5	0	-100	0	230	101300000	1000	0	0	-1	0
22402403	2007	0	0	-100	0	230	101300000	1000	0	0	-1	0
22414963	1998	2	0	-100	0	230	101300000	1000	0	0	-1	0
22427523	1999	0	0	-100	0	230	101300000	1000	0	0	-1	0
22440083	2002	0	0	-100	0	230	101300000	1000	0	0	-1	0
22452643	1999	0	0	-100	0	230	101300000	1000	0	0	-1	0
22465203	2007	0	0	-100	0	230	101300000	1000	0	0	-1	0
22477763	2000	2	0	-100	0	230	101300000	1000	0	0	-1	0
22490323	2005	0	0	-100	0	230	101300000	1000	0	0	-1	0
22502883	2002	0	0	-100	0	230	101300000	1000	0	0	-1	0
22515443	2008	0	0	-100	0	230	101300000	1000	0	0	-1	0
22528004	2008	0	0	-100	0	230	101300000	1000	0	0	-1	0
22540563	2004	0	0	-100	0	230	101300000	1000	0	0	-1	0
22553123	1999	4	0	-100	0	230	101300000	1000	0	0	-1	0
22565683	2005	0	0	-100	0	230	101300000	1000	0	0	-1	0
22578243	1997	2	0	-100	0	230	101300000	1000	0	0	-1	0
22590803	2001	0	0	-100	0	230	101300000	1000	0	0	-1	0
22603363	2005	0	0	-100	0	230	101300000	1000	0	0	-1	0
22615923	1999	0	0	-100	0	230	101300000	1000	0	0	-1	0
22628483	2004	0	0	-100	0	230	101300000	1000	0	0	-1	0
22641043	2000	4	0	-100	0	230	101300000	1000	0	0	-1	0
22653603	2005	0	0	-100	0	230	101300000	1000	0	0	-1	0
22666163	2003	3	0	-100	0	230	101300000	1000	0	0	-1	0
22678723	2000	0	0	-100	0	230	101300000	1000	0	0	-1	0
22691283	2000	1	0	-100	0	230	101300000	1000	0	0	-1	0
22703843	2002	0	0	-100	0	230	101300000	1000	0	0	-1	0
22716403	2000	0	0	-100	0	230	101300000	1000	0	0	-1	0
22728963	1999	0	0	-100	0	230	101300000	1000	0	0	-1	0
22741523	2005	0	0	-100	0	230	101300000	1000	0	0	-1	0
22754083	2002	2	0	-100	0	230	101300000	1000	0	0	-1	0
22766643	2005	0	0	-100	0	230	101300000	1000	0	0	-1	0
22779203	1997	2	0	-100	0	230	101300000	1000	0	0	-1	0
22791763	1996	0	0	-100	0	230	101300000	1000	0	0	-1	0
22804323	2004	0	0	-100	0	230	101300000	1000	0	0	-1	0
22816883	2000	0	0	-100	0	230	101300000	1000	0	0	-1	0
22829443	1997	0	0	-100	0	230	101300000	1000	0	0	-1	0
22842004	2002	4	0	-100	0	230	101300000	1000	0	0	-1	0
22854563	2000	5	0	-100	0	230	101300000	1000	0	0	-1	0
22867123	2007	0	0	-100	0	230	101300000	1000	0	0	-1	0
22879683	2000	4	0	-100	0	230	101300000	1000	0	0	-1	0
22892243	2005	0	0	-100	0	230	101300000	1000	0	0	-1	0
22904803	1997	4	0	-100	0	230	101300000	1000	0	0	-1	0
22917363	2005	0	0	-100	0	230	101300000	1000	0	0	-1	0
22929923	1998	4	0	-100	0	230	101300000	1000	0	0	-1	0
22942483	2005	0	0	-100	0	230	101300000	1000	0	0	-1	0
22955043	1998	2	0	-100	0	230	101300000	1000	0	0	-1	0
22967603	1999	0	0	-100	0	230	101300000	1000	0	0	-1	0
22980163	2006	0	0	-100	0	230	101300000	1000	0	0	-1	0
22992723	1999	0	0	-100	0	230	101300000	1000	0	0	-1	0
23005283	2000	0	0	-100	0	230	101300000	1000	0	0	-1	0
23017843	1997	0	0	-100	0	230	101300000	1000	0	0	-1	0
23030403	2002	0	0	-100	0	230	101300000	1000	0	0	-1	0
23042963	1999	1	0	-100	0	230	101300000	1000	0	0	-1	0
23055523	2004	0	0	-100	0	230	101300000	1000	0	0	-1	0
23068083	2000	2	0	-100	0	230	101300000	1000	0	0	-1	0
23080643	1997	0	0	-100	0	230	101300000	1000	0	0	-1	0
23093203	2007	0	0	-100	0	230	101300000	1000	0	0	-1	0
23105763	2000	2	0	-100	0	230	101300000	1000	0	0	-1	0
23118323	2006	0	0	-100	0	230	101300000	1000	0	0	-1	0
23130883	1997	4	0	-100	0	230	101300000	1000	0	0	-1	0
23143443	2009	0	0	-100	0	230	101300000	1000	0	0	-1	0
23156004	2008	0	0	-100	0	230	101300000	1000	0	0	-1	0
23168563	2002	0	0	-100	0	230	101300000	1000	0	0	-1	0
23181123	1997	1	0	-100	0	230	101300000	1000	0	0	-1	0
23193683	2002	0	0	-100	0	230	101300000	1000	0	0	-1	0
23206243	1998	2	0	-100	0	230	101300000	1000	0	0	-1	0
23218803	2002	0	0	-100	0	230	101300000	1000	0	0	-1	0
23231363	2000	4	0	-100	0	230	101300000	1000	0	0	-1	0
23243923	2004	0	0	-100	0	230	101300000	1000	0	0	-1	0
23256483	1998	2	0	-100	0	230	101300000	1000	0	0	-1	0
23269043	2001	0	0	-100	0	230	101300000	1000	0	0	-1	0
23281603	2000	2	0	-100	0	230	101300000	1000	0	0	-1	0
23294163	2003	0	0	-100	0	230	101300000	1000	0	0	-1	0
23306723	1999	0	0	-100	0	230	101300000	1000	0	0	-1	0
23319283	1999	0	0	-100	0	230	101300000	1000	0	0	-1	0
23331843	1995	1	0	-100	0	230	101300000	1000	0	0	-1	0
23344403	2002	0	0	-100	0	230	101300000	1000	0	0	-1	0
23356963	1997	4	0	-100	0	230	101300000	1000	0	0	-1	0
23369523	2004	0	0	-100	0	230	101300000	1000	0	0	-1	0
23382083	1999	4	0	-100	0	230	101300000	1000	0	0	-1	0
23394643	2006	0	0	-100	0	230	101300000	1000	0	0	-1	0
23407203	1997	4	0	-100	0	230	101300000	1000	0	0	-1	0
23419763	2005	0	0	-100	0	230	101300000	1000	0	0	-1	0
23432323	1997	4	0	-100	0	230	101300000	1000	0	0	-1	0
23444883	2004	0	0	-100	0	230	101300000	1000	0	0	-1	0
23457443	1997	2	0	-100	0	230	101300000	1000	0	0	-1	0
23470004	2012	0	0	-100	0	230	101300000	1000	0	0	-1	0
23482563	2004	0	0	-100	0	230	101300000	1000	0	0	-1	0
23495123	1998	0	0	-100	0	230	101300000	1000	0	0	-1	0
23507683	2005	0	0	-100	0	230	101300000	1000	0	0	-1	0
23520243	1997	0	0	-100	0	230	101300000	1000	0	0	-1	0
23532803	2002	0	0	-100	0	230	101300000	1000	0	0	-1	0
23545363	1999	0	0	-100	0	230	101300000	1000	0	0	-1	0
23557923	2004	0	0	-100	0	230	101300000	1000	0	0	-1	0
23570483	1997	0	0	-100	0	230	101300000	1000	0	0	-1	0
23583043	1997	0	0	-100	0	230	101300000	1000	0	0	-1	0
23595603	2002	0	0	-100	0	230	101300000	1000	0	0	-1	0
23608163	2003	3	0	-100	0	230	101300000	1000	0	0	-1	0
23620723	2004	0	0	-100	0	230	101300000	1000	0	0	-1	0
23633283	2000	4	0	-100	0	230	101300000	1000	0	0	-1	0
23645843	2005	0	0	-100	0	230	101300000	1000	0	0	-1	0
23658403	1997	4	0	-100	0	230	101300000	1000	0	0	-1	0
23670963	2005	0	0	-100	0	230	101300000	1000	0	0	-1	0
23683523	1998	3	0	-100	0	230	101300000	1000	0	0	-1	0
23696083	2001	0	0	-100	0	230	101300000	1000	0	0	-1	0
23708643	2001	2	0	-100	0	230	101300000	1000	0	0	-1	0
23721203	2006	0	0	-100	0	230	101300000	1000	0	0	-1	0
23733763	1998	4	0	-100	0	230	101300000	1000	0	0	-1	0
23746323	2004	0	0	-100	0	230	101300000	1000	0	0	-1	0
23758883	2000	5	0	-100	0	230	101300000	1000	0	0	-1	0
23771443	2005	0	0	-100	0	230	101300000	1000	0	0	-1	0
23784004	2004	0	0	-100	0	230	101300000	1000	0	0	-1	0
23796563	1996	0	0	-100	0	230	101300000	1000	0	0	-1	0
23809123	2005	0	0	-100	0	230	101300000	1000	0	0	-1	0
23821683	1998	0	0	-100	0	230	101300000	1000	0	0	-1	0
23834243	1999	0	0	-100	0	230	101300000	1000	0	0	-1	0
23846803	2003	0	0	-100	0	230	101300000	1000	0	0	-1	0
23859363	1998	0	0	-100	0	230	101300000	1000	0	0	-1	0
23871923	1997	0	0	-100	0	230	101300000	1000	0	0	-1	0
23884483	2007	0	0	-100	0	230	101300000	1000	0	0	-1	0
23897043	2000	2	0	-100	0	230	101300000	1000	0	0	-1	0
23909603	1997	0	0	-100	0	230	101300000	1000	0	0	-1	0
23922163	2009	0	0	-100	0	230	101300000	1000	0	0	-1	0
23934723	1997	4	0	-100	0	230	101300000	1000	0	0	-1	0
23947283	2005	0	0	-100	0	230	101300000	1000	0	0	-1	0
23959843	1995	1	0	-100	0	230	101300000	1000	0	0	-1	0
23972403	2000	0	0	-100	0	230	101300000	1000	0	0	-1	0
23984963	2005	0	0	-100	0	230	101300000	1000	0	0	-1	0
23997523	2001	0	0	-100	0	230	101300000	1000	0	0	-1	0
24010083	2007	0	0	-100	0	230	101300000	1000	0	0	-1	0
24022643	1997	0	0	-100	0	230	101300000	1000	0	0	-1	0
24035203	2002	0	0	-100	0	230	101300000	1000	0	0	-1	0
24047763	1999	0	0	-100	0	230	101300000	1000	0	0	-1	0
24060323	2004	0	0	-100	0	230	101300000	1000	0	0	-1	0
24072883	2000	4	0	-100	0	230	101300000	1000	0	0	-1	0
24085443	2002	0	0	-100	0	230	101300000	1000	0	0	-1	0
24098004	2002	0	0	-100	0	230	101300000	1000	0	0	-1	0
24110563	2000	0	0	-100	0	230	101300000	1000	0	0	-1	0
24123123	2002	0	0	-100	0	230	101300000	1000	0	0	-1	0
24135683	2000	0	0	-100	0	230	101300000	1000	0	0	-1	0
24148243	2006	0	0	-100	0	230	101300000	1000	0	0	-1	0
24160803	2000	6	0	-100	0	230	101300000	1000	0	0	-1	0
24173363	2005	0	0	-100	0	230	101300000	1000	0	0	-1	0
24185923	1999	6	0	-100	0	230	101300000	1000	0	0	-1	0
24198483	2005	0	0	-100	0	230	101300000	1000	0	0	-1	0
24211043	1998	4	0	-100	0	230	101300000	1000	0	0	-1	0
24223603	2005	0	0	-100	0	230	101300000	1000	0	0	-1	0
24236163	2003	0	0	-100	0	230	101300000	1000	0	0	-1	0
24248723	2000	0	0	-100	0	230	101300000	1000	0	0	-1	0
24261283	1997	0	0	-100	0	230	101300000	1000	0	0	-1	0
24273843	2007	0	0	-100	0	230	101300000	1000	0	0	-1	0
24286403	1999	3	0	-100	0	230	101300000	1000	0	0	-1	0
24298963	2004	0	0	-100	0	230	101300000	1000	0	0	-1	0
24311523	1997	4	0	-100	0	230	101300000	1000	0	0	-1	0
24324083	2004	0	0	-100	0	230	101300000	1000	0	0	-1	0
24336643	1998	4	0	-100	0	230	101300000	1000	0	0	-1	0
24349203	2002	0	0	-100	0	230	101300000	1000	0	0	-1	0
24361763	2005	0	0	-100	0	230	101300000	1000	0	0	-1	0
24374323	2000	4	0	-100	0	230	101300000	1000	0	0	-1	0
24386883	2006	0	0	-100	0	230	101300000	1000	0	0	-1	0
24399443	1997	3	0	-100	0	230	101300000	1000	0	0	-1	0
24412004	2012	0	0	-100	0	230	101300000	1000	0	0	-1	0
24424563	2005	0	0	-100	0	230	101300000	1000	0	0	-1	0
24437123	1996	0	0	-100	0	230	101300000	1000	0	0	-1	0
24449683	2008	0	0	-100	0	230	101300000	1000	0	0	-1	0
24462243	2002	1	0	-100	0	230	101300000	1000	0	0	-1	0
24474803	2006	0	0	-100	0	230	101300000	1000	0	0	-1	0
24487363	1997	5	0	-100	0	230	101300000	1000	0	0	-1	0
24499923	2005	0	0	-100	0	230	101300000	1000	0	0	-1	0
24512483	1999	0	0	-100	0	230	101300000	1000	0	0	-1	0
24525043	2001	0	0	-100	0	230	101300000	1000	0	0	-1	0
24537603	2002	0	0	-100	0	230	101300000	1000	0	0	-1	0
24550163	2007	4	0	-100	0	230	101300000	1000	0	0	-1	0
24562723	2005	0	0	-100	0	230	101300000	1000	0	0	-1	0
24575283	2002	0	0	-100	0	230	101300000	1000	0	0	-1	0
24587843	1997	1	0	-100	0	230	101300000	1000	0	0	-1	0
24600403	2005	0	0	-100	0	230	101300000	1000	0	0	-1	0
24612963	2002	2	0	-100	0	230	101300000	1000	0	0	-1	0
24625523	2005	0	0	-100	0	230	101300000	1000	0	0	-1	0
24638083	2000	0	0	-100	0	230	101300000	1000	0	0	-1	0
24650643	1997	2	0	-100	0	230	101300000	1000	0	0	-1	0
24663203	2006	0	0	-100	0	230	101300000	1000	0	0	-1	0
24675763	1999	0	0	-100	0	230	101300000	1000	0	0	-1	0
24688323	1997	4	0	-100	0	230	101300000	1000	0	0	-1	0
24700883	2004	0	0	-100	0	230	101300000	1000	0	0	-1	0
24713443	2000	1	0	-100	0	230	101300000	1000	0	0	-1	0
24726004	2005	4	0	-100	0	230	101300000	1000	0	0	-1	0
24738563	1997	3	0	-100	0	230	101300000	1000	0	0	-1	0
24751123	2004	0	0	-100	0	230	101300000	1000	0	0	-1	0
24763683	1998	2	0	-100	0	230	101300000	1000	0	0	-1	0
24776243	2000	0	0	-100	0	230	101300000	1000	0	0	-1	0
24788803	2000	0	0	-100	0	230	101300000	1000	0	0	-1	0
24801363	1998	0	0	-100	0	230	101300000	1000	0	0	-1	0
24813923	2001	0	0	-100	0	230	101300000	1000	0	0	-1	0
24826483	1997	1	0	-100	0	230	101300000	1000	0	0	-1	0
24839043	1999	0	0	-100	0	230	101300000	1000	0	0	-1	0
24851603	1997	1	0	-100	0	230	101300000	1000	0	0	-1	0
24864163	2005	0	0	-100	0	230	101300000	1000	0	0	-1	0
24876723	2003	0	0	-100	0	230	101300000	1000	0	0	-1	0
24889283	1998	0	0	-100	0	230	101300000	1000	0	0	-1	0
24901843	2005	0	0	-100	0	230	101300000	1000	0	0	-1	0
24914403	1997	0	0	-100	0	230	101300000	1000	0	0	-1	0
24926963	2007	0	0	-100	0	230	101300000	1000	0	0	-1	0
24939523	2000	6	0	-100	0	230	101300000	1000	0	0	-1	0
24952083	2004	0	0	-100	0	230	101300000	1000	0	0	-1	0
24964643	2000	0	0	-100	0	230	101300000	1000	0	0	-1	0
24977203	2002	2	0	-100	0	230	101300000	1000	0	0	-1	0
24989763	2002	0	0	-100	0	230	101300000	1000	0	0	-1	0
25002323	2003	0	0	-100	0	230	101300000	1000	0	0	-1	0
25014883	2000	4	0	-100	0	230	101300000	1000	0	0	-1	0
25027443	2005	0	0	-100	0	230	101300000	1000	0	0	-1	0
25040004	2003	0	0	-100	0	230	101300000	1000	0	0	-1	0
25052563	2001	0	0	-100	0	230	101300000	1000	0	0	-1	0
25065123	2000	0	0	-100	0	230	101300000	1000	0	0	-1	0
25077683	1997	0	0	-100	0	230	101300000	1000	0	0	-1	0
25090243	1999	1	0	-100	0	230	101300000	1000	0	0	-1	0
25102803	1999	0	0	-100	0	230	101300000	1000	0	0	-1	0
25115363	1998	0	0	-100	0	230	101300000	1000	0	0	-1	0
25127923	2004	0	0	-100	0	230	101300000	1000	0	0	-1	0
25140483	1997	3	0	-100	0	230	101300000	1000	0	0	-1	0
25153043	2005	0	0	-100	0	230	101300000	1000	0	0	-1	0
25165603	1998	3	0	-100	0	230	101300000	1000	0	0	-1	0
25178163	2010	0	0	-100	0	230	101300000	1000	0	0	-1	0
25190723	2000	4	0	-100	0	230	101300000	1000	0	0	-1	0
25203283	2004	0	0	-100	0	230	101300000	1000	0	0	-1	0
25215843	1998	0	0	-100	0	230	101300000	1000	0	0	-1	0
25228403	1997	0	0	-100	0	230	101300000	1000	0	0	-1	0
25240963	1999	1	0	-100	0	230	101300000	1000	0	0	-1	0
25253523	1999	0	0	-100	0	230	101300000	1000	0	0	-1	0
25266083	2000	0	0	-100	0	230	101300000	1000	0	0	-1	0
25278643	1999	0	0	-100	0	230	101300000	1000	0	0	-1	0
25291203	2005	0	0	-100	0	230	101300000	1000	0	0	-1	0
25303763	1997	0	0	-100	0	230	101300000	1000	0	0	-1	0
25316323	2005	0	0	-100	0	230	101300000	1000	0	0	-1	0
25328883	1999	0	0	-100	0	230	101300000	1000	0	0	-1	0
25341443	2005	0	0	-100	0	230	101300000	1000	0	0	-1	0
25354004	2005	0	0	-100	0	230	101300000	1000	0	0	-1	0
25366563	2004	0	0	-100	0	230	101300000	1000	0	0	-1	0
25379123	1997	1	0	-100	0	230	101300000	1000	0	0	-1	0
25391683	1999	0	0	-100	0	230	101300000	1000	0	0	-1	0
25404243	2002	0	0	-100	0	230	101300000	1000	0	0	-1	0
25416803	1997	0	0	-100	0	230	101300000	1000	0	0	-1	0
25429363	2007	0	0	-100	0	230	101300000	1000	0	0	-1	0
25441923	1997	4	0	-100	0	230	101300000	1000	0	0	-1	0
25454483	2000	0	0	-100	0	230	101300000	1000	0	0	-1	0
25467043	2000	0	0	-100	0	230	101300000	1000	0	0	-1	0
25479603	2003	4	0	-100	0	230	101300000	1000	0	0	-1	0
25492163	2010	0	0	-100	0	230	101300000	1000	0	0	-1	0
25504723	1997	1	0	-100	0	230	101300000	1000	0	0	-1	0
25517283	2000	0	0	-100	0	230	101300000	1000	0	0	-1	0
25529843	2004	0	0	-100	0	230	101300000	1000	0	0	-1	0
25542403	1997	1	0	-100	0	230	101300000	1000	0	0	-1	0
25554963	1999	0	0	-100	0	230	101300000	1000	0	0	-1	0
25567523	2003	0	0	-100	0	230	101300000	1000	0	0	-1	0
25580083	1999	1	0	-100	0	230	101300000	1000	0	0	-1	0
25592643	2004	0	0	-100	0	230	101300000	1000	0	0	-1	0
25605203	1998	1	0	-100	0	230	101300000	1000	0	0	-1	0
25617763	1994	0	0	-100	0	230	101300000	1000	0	0	-1	0
25630323	2005	0	0	-100	0	230	101300000	1000	0	0	-1	0
25642883	1998	4	0	-100	0	230	101300000	1000	0	0	-1	0
25655443	2002	0	0	-100	0	230	101300000	1000	0	0	-1	0
25668004	2005	1	0	-100	0	230	101300000	1000	0	0	-1	0
25680563	2000	0	0	-100	0	230	101300000	1000	0	0	-1	0
25693123	2002	0	0	-100	0	230	101300000	1000	0	0	-1	0
25705683	2000	0	0	-100	0	230	101300000	1000	0	0	-1	0
25718243	2004	0	0	-100	0	230	101300000	1000	0	0	-1	0
25730803	1998	3	0	-100	0	230	101300000	1000	0	0	-1	0
25743363	2007	0	0	-100	0	230	101300000	1000	0	0	-1	0
25755923	1997	2	0	-100	0	230	101300000	1000	0	0	-1	0
25768483	1999	0	0	-100	0	230	101300000	1000	0	0	-1	0
25781043	2000	0	0	-100	0	230	101300000	1000	0	0	-1	0
25793603	1996	0	0	-100	0	230	101300000	1000	0	0	-1	0
25806163	2012	0	0	-100	0	230	101300000	1000	0	0	-1	0
25818723	1998	4	0	-100	0	230	101300000	1000	0	0	-1	0
25831283	2002	0	0	-100	0	230	101300000	1000	0	0	-1	0
25843843	1997	2	0	-100	0	230	101300000	1000	0	0	-1	0
25856403	2000	0	0	-100	0	230	101300000	1000	0	0	-1	0
25868963	2004	0	0	-100	0	230	101300000	1000	0	0	-1	0
25881523	1998	4	0	-100	0	230	101300000	1000	0	0	-1	0
25894083	2002	0	0	-100	0	230	101300000	1000	0	0	-1	0
25906643	2000	0	0	-100	0	230	101300000	1000	0	0	-1	0
25919203	1996	0	0	-100	0	230	101300000	1000	0	0	-1	0
25931763	2004	0	0	-100	0	230	101300000	1000	0	0	-1	0
25944323	2000	6	0	-100	0	230	101300000	1000	0	0	-1	0
25956883	2004	0	0	-100	0	230	101300000	1000	0	0	-1	0
25969443	1998	1	0	-100	0	230	101300000	1000	0	0	-1	0
25982004	2011	0	0	-100	0	230	101300000	1000	0	0	-1	0
25994563	2006	0	0	-100	0	230	101300000	1000	0	0	-1	0
26007123	1998	4	0	-100	0	230	101300000	1000	0	0	-1	0
26019683	2005	0	0	-100	0	230	101300000	1000	0	0	-1	0
26032243	2000	0	0	-100	0	230	101300000	1000	0	0	-1	0
26044803	1997	0	0	-100	0	230	101300000	1000	0	0	-1	0
26057363	2007	0	0	-100	0	230	101300000	1000	0	0	-1	0
26069923	2000	4	0	-100	0	230	101300000	1000	0	0	-1	0
26082483	2004	0	0	-100	0	230	101300000	1000	0	0	-1	0
26095043	1997	1	0	-100	0	230	101300000	1000	0	0	-1	0
26107603	2003	0	0	-100	0	230	101300000	1000	0	0	-1	0
26120163	2005	0	0	-100	0	230	101300000	1000	0	0	-1	0
26132723	1997	0	0	-100	0	230	101300000	1000	0	0	-1	0
26145283	2003	0	0	-100	0	230	101300000	1000	0	0	-1	0
26157843	2002	6	0	-100	0	230	101300000	1000	0	0	-1	0
26170403	2004	0	0	-100	0	230	101300000	1000	0	0	-1	0
26182963	2006	0	0	-100	0	230	101300000	1000	0	0	-1	0
26195523	2000	5	0	-100	0	230	101300000	1000	0	0	-1	0
26208083	2005	0	0	-100	0	230	101300000	1000	0	0	-1	0
26220643	1997	1	0	-100	0	230	101300000	1000	0	0	-1	0
26233203	2000	0	0	-100	0	230	101300000	1000	0	0	-1	0
26245763	2002	0	0	-100	0	230	101300000	1000	0	0	-1	0
26258323	1999	1	0	-100	0	230	101300000	1000	0	0	-1	0
26270883	2007	0	0	-100	0	230	101300000	1000	0	0	-1	0
26283443	1997	2	0	-100	0	230	101300000	1000	0	0	-1	0
26296004	2012	0	0	-100	0	230	101300000	1000	0	0	-1	0
26308563	2002	0	0	-100	0	230	101300000	1000	0	0	-1	0
26321123	1999	3	0	-100	0	230	101300000	1000	0	0	-1	0
26333683	1997	0	0	-100	0	230	101300000	1000	0	0	-1	0
26346243	2001	0	0	-100	0	230	101300000	1000	0	0	-1	0
26358803	1999	2	0	-100	0	230	101300000	1000	0	0	-1	0
26371363	1997	0	0	-100	0	230	101300000	1000	0	0	-1	0
26383923	2007	0	0	-100	0	230	101300000	1000	0	0	-1	0
26396483	2000	3	0	-100	0	230	101300000	1000	0	0	-1	0
26409043	2004	0	0	-100	0	230	101300000	1000	0	0	-1	0
26421603	1999	0	0	-100	0	230	101300000	1000	0	0	-1	0
26434163	2011	0	0	-100	0	230	101300000	1000	0	0	-1	0
26446723	1999	0	0	-100	0	230	101300000	1000	0	0	-1	0
26459283	2000	0	0	-100	0	230	101300000	1000	0	0	-1	0
26471843	2000	0	0	-100	0	230	101300000	1000	0	0	-1	0
26484403	1999	0	0	-100	0	230	101300000	1000	0	0	-1	0
26496963	1997	0	0	-100	0	230	101300000	1000	0	0	-1	0
26509523	1998	1	0	-100	0	230	101300000	1000	0	0	-1	0
26522083	2005	0	0	-100	0	230	101300000	1000	0	0	-1	0
26534643	1997	4	0	-100	0	230	101300000	1000	0	0	-1	0
26547203	2005	0	0	-100	0	230	101300000	1000	0	0	-1	0
26559763	1995	4	0	-100	0	230	101300000	1000	0	0	-1	0
26572323	2000	0	0	-100	0	230	101300000	1000	0	0	-1	0
26584883	2000	0	0	-100	0	230	101300000	1000	0	0	-1	0
26597443	1999	0	0	-100	0	230	101300000	1000	0	0	-1	0
26610004	2005	5	0	-100	0	230	101300000	1000	0	0	-1	0
26622563	1999	0	0	-100	0	230	101300000	1000	0	0	-1	0
26635123	2002	0	0	-100	0	230	101300000	1000	0	0	-1	0
26647683	1997	0	0	-100	0	230	101300000	1000	0	0	-1	0
26660243	2004	0	0	-100	0	230	101300000	1000	0	0	-1	0
26672803	1999	5	0	-100	0	230	101300000	1000	0	0	-1	0
26685363	2006	0	0	-100	0	230	101300000	1000	0	0	-1	0
26697923	2000	0	0	-100	0	230	101300000	1000	0	0	-1	0
26710483	1999	3	0	-100	0	230	101300000	1000	0	0	-1	0
26723043	2004	0	0	-100	0	230	101300000	1000	0	0	-1	0
26735603	1997	4	0	-100	0	230	101300000	1000	0	0	-1	0
26748163	2007	0	0	-100	0	230	101300000	1000	0	0	-1	0
26760723	2000	0	0	-100	0	230	101300000	1000	0	0	-1	0
26773283	1999	2	0	-100	0	230	101300000	1000	0	0	-1	0
26785843	2005	0	0	-100	0	230	101300000	1000	0	0	-1	0
26798403	1997	2	0	-100	0	230	101300000	1000	0	0	-1	0
26810963	1999	0	0	-100	0	230	101300000	1000	0	0	-1	0
26823523	2007	0	0	-100	0	230	101300000	1000	0	0	-1	0
26836083	1999	0	0	-100	0	230	101300000	1000	0	0	-1	0
26848643	2004	0	0	-100	0	230	101300000	1000	0	0	-1	0
26861203	1998	3	0	-100	0	230	101300000	1000	0	0	-1	0
26873763	2005	0	0	-100	0	230	101300000	1000	0	0	-1	0
26886323	2000	0	0	-100	0	230	101300000	1000	0	0	-1	0
26898883	1997	4	0	-100	0	230	101300000	1000	0	0	-1	0
26911443	1999	0	0	-100	0	230	101300000	1000	0	0	-1	0
26924004	2003	4	0	-100	0	230	101300000	1000	0	0	-1	0
26936563	1998	4	0	-100	0	230	101300000	1000	0	0	-1	0
26949123	2002	0	0	-100	0	230	101300000	1000	0	0	-1	0
26961683	2000	0	0	-100	0	230	101300000	1000	0	0	-1	0
26974243	2000	4	0	-100	0	230	101300000	1000	0	0	-1	0
26986803	2004	0	0	-100	0	230	101300000	1000	0	0	-1	0
26999363	1995	0	0	-100	0	230	101300000	1000	0	0	-1	0
27011923	2001	1	0	-100	0	230	101300000	1000	0	0	-1	0
27024483	2007	0	0	-100	0	230	101300000	1000	0	0	-1	0
27037043	1998	4	0	-100	0	230	101300000	1000	0	0	-1	0
27049603	2005	0	0	-100	0	230	101300000	1000	0	0	-1	0
27062163	2004	0	0	-100	0	230	101300000	1000	0	0	-1	0
27074723	1999	0	0	-100	0	230	101300000	1000	0	0	-1	0
27087283	2005	0	0	-100	0	230	101300000	1000	0	0	-1	0
27099843	1997	2	0	-100	0	230	101300000	1000	0	0	-1	0
27112403	1996	0	0	-100	0	230	101300000	1000	0	0	-1	0
27124963	2006	0	0	-100	0	230	101300000	1000	0	0	-1	0
27137523	1998	2	0	-100	0	230	101300000	1000	0	0	-1	0
27150083	2000	0	0	-100	0	230	101300000	1000	0	0	-1	0
27162643	2005	0	0	-100	0	230	101300000	1000	0	0	-1	0
27175203	1997	4	0	-100	0	230	101300000	1000	0	0	-1	0
27187763	2004	0	0	-100	0	230	101300000	1000	0	0	-1	0
27200323	1997	1	0	-100	0	230	101300000	1000	0	0	-1	0
27212883	2000	0	0	-100	0	230	101300000	1000	0	0	-1	0
27225443	2005	0	0	-100	0	230	101300000	1000	0	0	-1	0
27238004	2006	0	0	-100	0	230	101300000	1000	0	0	-1	0
27250563	2007	0	0	-100	0	230	101300000	1000	0	0	-1	0
27263123	1998	3	0	-100	0	230	101300000	1000	0	0	-1	0
27275683	2001	0	0	-100	0	230	101300000	1000	0	0	-1	0
27288243	2000	0	0	-100	0	230	101300000	1000	0	0	-1	0
27300803	1999	0	0	-100	0	230	101300000	1000	0	0	-1	0
27313363	2004	0	0	-100	0	230	101300000	1000	0	0	-1	0
27325923	2000	3	0	-100	0	230	101300000	1000	0	0	-1	0
27338483	2005	0	0	-100	0	230	101300000	1000	0	0	-1	0
27351043	1999	0	0	-100	0	230	101300000	1000	0	0	-1	0
27363603	2007	0	0	-100	0	230	101300000	1000	0	0	-1	0
27376163	2006	4	0	-100	0	230	101300000	1000	0	0	-1	0
27388723	2004	0	0	-100	0	230	101300000	1000	0	0	-1	0
27401283	2000	2	0	-100	0	230	101300000	1000	0	0	-1	0
27413843	2005	0	0	-100	0	230	101300000	1000	0	0	-1	0
27426403	1998	3	0	-100	0	230	101300000	1000	0	0	-1	0
27438963	2004	0	0	-100	0	230	101300000	1000	0	0	-1	0
27451523	1998	1	0	-100	0	230	101300000	1000	0	0	-1	0
27464083	1998	0	0	-100	0	230	101300000	1000	0	0	-1	0
27476643	2004	0	0	-100	0	230	101300000	1000	0	0	-1	0
27489203	2004	0	0	-100	0	230	101300000	1000	0	0	-1	0
27501763	2004	0	0	-100	0	230	101300000	1000	0	0	-1	0
27514323	2003	0	0	-100	0	230	101300000	1000	0	0	-1	0
27526883	1997	1	0	-100	0	230	101300000	1000	0	0	-1	0
27539443	2000	5	0	-100	0	230	101300000	1000	0	0	-1	0
27552004	2011	0	0	-100	0	230	101300000	1000	0	0	-1	0
27564563	1999	0	0	-100	0	230	101300000	1000	0	0	-1	0
27577123	2006	0	0	-100	0	230	101300000	1000	0	0	-1	0
27589683	2004	0	0	-100	0	230	101300000	1000	0	0	-1	0
27602243	2002	0	0	-100	0	230	101300000	1000	0	0	-1	0
27614803	1998	2	0	-100	0	230	101300000	1000	0	0	-1	0
27627363	2000	4	0	-100	0	230	101300000	1000	0	0	-1	0
27639923	2000	3	0	-100	0	230	101300000	1000	0	0	-1	0
27652483	1997	0	0	-100	0	230	101300000	1000	0	0	-1	0
27665043	2000	0	0	-100	0	230	101300000	1000	0	0	-1	0
27677603	2002	0	0	-100	0	230	101300000	1000	0	0	-1	0
27690163	2009	0	0	-100	0	230	101300000	1000	0	0	-1	0
27702723	2002	0	0	-100	0	230	101300000	1000	0	0	-1	0
27715283	2006	0	0	-100	0	230	101300000	1000	0	0	-1	0
27727843	2007	0	0	-100	0	230	101300000	1000	0	0	-1	0
27740403	2004	0	0	-100	0	230	101300000	1000	0	0	-1	0
27752963	2005	0	0	-100	0	230	101300000	1000	0	0	-1	0
27765523	1998	0	0	-100	0	230	101300000	1000	0	0	-1	0
27778083	1999	3	0	-100	0	230	101300000	1000	0	0	-1	0
27790643	1998	4	0	-100	0	230	101300000	1000	0	0	-1	0
27803203	2000	4	0	-100	0	230	101300000	1000	0	0	-1	0
27815763	1997	0	0	-100	0	230	101300000	1000	0	0	-1	0
27828323	1997	0	0	-100	0	230	101300000	1000	0	0	-1	0
27840883	2000	0	0	-100	0	230	101300000	1000	0	0	-1	0
27853443	1997	0	0	-100	0	230	101300000	1000	0	0	-1	0
27866004	2011	0	0	-100	0	230	101300000	1000	0	0	-1	0
27878563	2004	0	0	-100	0	230	101300000	1000	0	0	-1	0
27891123	2008	0	0	-100	0	230	101300000	1000	0	0	-1	0
27903683	1998	0	0	-100	0	230	101300000	1000	0	0	-1	0
27916243	1997	3	0	-100	0	230	101300000	1000	0	0	-1	0
27928803	1997	0	0	-100	0	230	101300000	1000	0	0	-1	0
27941363	2002	0	0	-100	0	230	101300000	1000	0	0	-1	0
27953923	2004	0	0	-100	0	230	101300000	1000	0	0	-1	0
27966483	2007	0	0	-100	0	230	101300000	1000	0	0	-1	0
27979043	1997	0	0	-100	0	230	101300000	1000	0	0	-1	0
27991603	1994	2	0	-100	0	230	101300000	1000	0	0	-1	0
28004163	2002	4	0	-100	0	230	101300000	1000	0	0	-1	0
28016723	2000	4	0	-100	0	230	101300000	1000	0	0	-1	0
28029283	1997	4	0	-100	0	230	101300000	1000	0	0	-1	0
28041843	1997	4	0	-100	0	230	101300000	1000	0	0	-1	0
28054403	2002	5	0	-100	0	230	101300000	1000	0	0	-1	0
28066963	2002	0	0	-100	0	230	101300000	1000	0	0	-1	0
28079523	2000	0	0	-100	0	230	101300000	1000	0	0	-1	0
28092083	2000	0	0	-100	0	230	101300000	1000	0	0	-1	0
28104643	2002	0	0	-100	0	230	101300000	1000	0	0	-1	0
28117203	2006	0	0	-100	0	230	101300000	1000	0	0	-1	0
28129763	2002	0	0	-100	0	230	101300000	1000	0	0	-1	0
28142323	1997	3	0	-100	0	230	101300000	1000	0	0	-1	0
28154883	1999	4	0	-100	0	230	101300000	1000	0	0	-1	0
28167443	1997	0	0	-100	0	230	101300000	1000	0	0	-1	0
28180004	2008	0	0	-100	0	230	101300000	1000	0	0	-1	0
28192563	2007	0	0	-100	0	230	101300000	1000	0	0	-1	0
28205123	2010	0	0	-100	0	230	101300000	1000	0	0	-1	0
28217683	1998	0	0	-100	0	230	101300000	1000	0	0	-1	0
28230243	1998	3	0	-100	0	230	101300000	1000	0	0	-1	0
28242803	2000	1	0	-100	0	230	101300000	1000	0	0	-1	0
28255363	2000	0	0	-100	0	230	101300000	1000	0	0	-1	0
28267923	2002	0	0	-100	0	230	101300000	1000	0	0	-1	0
28280483	2005	0	0	-100	0	230	101300000	1000	0	0	-1	0
28293043	2004	0	0	-100	0	230	101300000	1000	0	0	-1	0
28305603	2005	0	0	-100	0	230	101300000	1000	0	0	-1	0
28318163	2012	0	0	-100	0	230	101300000	1000	0	0	-1	0
28330723	2005	0	0	-100	0	230	101300000	1000	0	0	-1	0
28343283	2007	0	0	-100	0	230	101300000	1000	0	0	-1	0
28355843	1998	0	0	-100	0	230	101300000	1000	0	0	-1	0
28368403	1997	0	0	-100	0	230	101300000	1000	0	0	-1	0
28380963	1997	0	0	-100	0	230	101300000	1000	0	0	-1	0
28393523	2002	0	0	-100	0	230	101300000	1000	0	0	-1	0
28406083	2005	0	0	-100	0	230	101300000	1000	0	0	-1	0
28418643	2007	0	0	-100	0	230	101300000	1000	0	0	-1	0
28431203	2002	0	0	-100	0	230	101300000	1000	0	0	-1	0
28443763	2002	0	0	-100	0	230	101300000	1000	0	0	-1	0
28456323	1999	4	0	-100	0	230	101300000	1000	0	0	-1	0
28468883	2000	1	0	-100	0	230	101300000	1000	0	0	-1	0
28481443	2002	0	0	-100	0	230	101300000	1000	0	0	-1	0
28494004	2004	4	0	-100	0	230	101300000	1000	0	0	-1	0
28506563	1997	1	0	-100	0	230	101300000	1000	0	0	-1	0
28544243	2002	0	0	-100	0	230	101300000	1000	0	0	-1	0
28556803	2005	0	0	-100	0	230	101300000	1000	0	0	-1	0
28569363	2007	0	0	-100	0	230	101300000	1000	0	0	-1	0
28581923	2000	0	0	-100	0	230	101300000	1000	0	0	-1	0
28594483	1998	3	0	-100	0	230	101300000	1000	0	0	-1	0
28607043	1997	0	0	-100	0	230	101300000	1000	0	0	-1	0
28619603	2002	0	0	-100	0	230	101300000	1000	0	0	-1	0
28632163	2012	0	0	-100	0	230	101300000	1000	0	0	-1	0
28644723	2005	0	0	-100	0	230	101300000	1000	0	0	-1	0
28657283	1997	2	0	-100	0	230	101300000	1000	0	0	-1	0
28669843	1999	7	0	-100	0	230	101300000	1000	0	0	-1	0
28682403	1996	0	0	-100	0	230	101300000	1000	0	0	-1	0
28694963	2000	0	0	-100	0	230	101300000	1000	0	0	-1	0
28707523	2005	0	0	-100	0	230	101300000	1000	0	0	-1	0
28720083	2007	0	0	-100	0	230	101300000	1000	0	0	-1	0
28732643	2002	0	0	-100	0	230	101300000	1000	0	0	-1	0
28745203	2000	0	0	-100	0	230	101300000	1000	0	0	-1	0
28757763	2000	4	0	-100	0	230	101300000	1000	0	0	-1	0
28770323	1997	0	0	-100	0	230	101300000	1000	0	0	-1	0
28782883	2005	0	0	-100	0	230	101300000	1000	0	0	-1	0
28795443	2000	1	0	-100	0	230	101300000	1000	0	0	-1	0
28808004	2009	0	0	-100	0	230	101300000	1000	0	0	-1	0
28820563	2005	0	0	-100	0	230	101300000	1000	0	0	-1	0
28833123	2000	0	0	-100	0	230	101300000	1000	0	0	-1	0
28845683	2000	5	0	-100	0	230	101300000	1000	0	0	-1	0
28858243	1997	0	0	-100	0	230	101300000	1000	0	0	-1	0
28870803	2005	0	0	-100	0	230	101300000	1000	0	0	-1	0
28883363	2005	0	0	-100	0	230	101300000	1000	0	0	-1	0
28895923	1998	4	0	-100	0	230	101300000	1000	0	0	-1	0
28908483	1997	0	0	-100	0	230	101300000	1000	0	0	-1	0
28921043	2007	0	0	-100	0	230	101300000	1000	0	0	-1	0
28933603	2005	0	0	-100	0	230	101300000	1000	0	0	-1	0
28946163	2003	1	0	-100	0	230	101300000	1000	0	0	-1	0
28958723	1999	0	0	-100	0	230	101300000	1000	0	0	-1	0
28971283	2004	0	0	-100	0	230	101300000	1000	0	0	-1	0
28983843	2005	0	0	-100	0	230	101300000	1000	0	0	-1	0
28996403	1998	0	0	-100	0	230	101300000	1000	0	0	-1	0
29008963	2000	4	0	-100	0	230	101300000	1000	0	0	-1	0
29021523	1999	0	0	-100	0	230	101300000	1000	0	0	-1	0
29034083	2005	0	0	-100	0	230	101300000	1000	0	0	-1	0
29046643	2000	1	0	-100	0	230	101300000	1000	0	0	-1	0
29059203	1996	0	0	-100	0	230	101300000	1000	0	0	-1	0
29071763	2005	0	0	-100	0	230	101300000	1000	0	0	-1	0
29084323	2003	0	0	-100	0	230	101300000	1000	0	0	-1	0
29096883	2000	4	0	-100	0	230	101300000	1000	0	0	-1	0
29109443	1999	0	0	-100	0	230	101300000	1000	0	0	-1	0
29122004	2005	0	0	-100	0	230	101300000	1000	0	0	-1	0
29134563	2003	0	0	-100	0	230	101300000	1000	0	0	-1	0
29147123	1997	2	0	-100	0	230	101300000	1000	0	0	-1	0
29159683	1997	5	0	-100	0	230	101300000	1000	0	0	-1	0
29172243	2000	0	0	-100	0	230	101300000	1000	0	0	-1	0
29184803	2005	0	0	-100	0	230	101300000	1000	0	0	-1	0
29197363	2007	0	0	-100	0	230	101300000	1000	0	0	-1	0
29209923	1999	5	0	-100	0	230	101300000	1000	0	0	-1	0
29222483	1997	0	0	-100	0	230	101300000	1000	0	0	-1	0
29235043	2007	0	0	-100	0	230	101300000	1000	0	0	-1	0
29247603	1999	0	0	-100	0	230	101300000	1000	0	0	-1	0
29260163	2003	1	0	-100	0	230	101300000	1000	0	0	-1	0
29272723	1998	4	0	-100	0	230	101300000	1000	0	0	-1	0
29285283	1997	0	0	-100	0	230	101300000	1000	0	0	-1	0
29297843	2002	0	0	-100	0	230	101300000	1000	0	0	-1	0
29310403	2007	0	0	-100	0	230	101300000	1000	0	0	-1	0
29322963	1997	1	0	-100	0	230	101300000	1000	0	0	-1	0
29335523	1998	3	0	-100	0	230	101300000	1000	0	0	-1	0
29348083	2000	0	0	-100	0	230	101300000	1000	0	0	-1	0
29360643	2002	0	0	-100	0	230	101300000	1000	0	0	-1	0
29373203	2007	0	0	-100	0	230	101300000	1000	0	0	-1	0
29385763	2004	0	0	-100	0	230	101300000	1000	0	0	-1	0
29398323	2000	0	0	-100	0	230	101300000	1000	0	0	-1	0
29410883	1998	2	0	-100	0	230	101300000	1000	0	0	-1	0
29423443	1999	5	0	-100	0	230	101300000	1000	0	0	-1	0
29436004	2010	0	0	-100	0	230	101300000	1000	0	0	-1	0
29448563	1998	0	0	-100	0	230	101300000	1000	0	0	-1	0
29461123	2001	0	0	-100	0	230	101300000	1000	0	0	-1	0
29473683	2002	0	0	-100	0	230	101300000	1000	0	0	-1	0
29486243	2002	0	0	-100	0	230	101300000	1000	0	0	-1	0
29498803	2006	0	0	-100	0	230	101300000	1000	0	0	-1	0
29511363	2007	0	0	-100	0	230	101300000	1000	0	0	-1	0
29523923	2007	0	0	-100	0	230	101300000	1000	0	0	-1	0
29536483	2008	0	0	-100	0	230	101300000	1000	0	0	-1	0
29549043	2009	0	0	-100	0	230	101300000	1000	0	0	-1	0
29561603	2005	0	0	-100	0	230	101300000	1000	0	0	-1	0
29574163	2012	0	0	-100	0	230	101300000	1000	0	0	-1	0
29586723	2007	0	0	-100	0	230	101300000	1000	0	0	-1	0
29599283	2004	0	0	-100	0	230	101300000	1000	0	0	-1	0
29611843	2007	0	0	-100	0	230	101300000	1000	0	0	-1	0
29624403	2003	0	0	-100	0	230	101300000	1000	0	0	-1	0
29636963	2005	0	0	-100	0	230	101300000	1000	0	0	-1	0
29649523	2003	0	0	-100	0	230	101300000	1000	0	0	-1	0
29662083	2005	0	0	-100	0	230	101300000	1000	0	0	-1	0
29674643	1998	0	0	-100	0	230	101300000	1000	0	0	-1	0
29687203	1998	2	0	-100	0	230	101300000	1000	0	0	-1	0
29699763	1997	4	0	-100	0	230	101300000	1000	0	0	-1	0
29712323	1997	4	0	-100	0	230	101300000	1000	0	0	-1	0
29724883	1998	4	0	-100	0	230	101300000	1000	0	0	-1	0
29737443	1999	0	0	-100	0	230	101300000	1000	0	0	-1	0
29750004	2009	0	0	-100	0	230	101300000	1000	0	0	-1	0
29762563	2004	0	0	-100	0	230	101300000	1000	0	0	-1	0
29775123	1997	3	0	-100	0	230	101300000	1000	0	0	-1	0
29787683	2002	0	0	-100	0	230	101300000	1000	0	0	-1	0
29800243	1997	0	0	-100	0	230	101300000	1000	0	0	-1	0
29812803	2001	0	0	-100	0	230	101300000	1000	0	0	-1	0
29825363	2000	0	0	-100	0	230	101300000	1000	0	0	-1	0
29837923	1999	0	0	-100	0	230	101300000	1000	0	0	-1	0
29850483	2005	0	0	-100	0	230	101300000	1000	0	0	-1	0
29863043	2000	4	0	-100	0	230	101300000	1000	0	0	-1	0
29875603	2003	0	0	-100	0	230	101300000	1000	0	0	-1	0
29888163	2006	0	0	-100	0	230	101300000	1000	0	0	-1	0
29900723	2000	0	0	-100	0	230	101300000	1000	0	0	-1	0
29913283	2008	0	0	-100	0	230	101300000	1000	0	0	-1	0
29925843	2003	6	0	-100	0	230	101300000	1000	0	0	-1	0
29938403	2006	0	0	-100	0	230	101300000	1000	0	0	-1	0
29950963	1997	4	0	-100	0	230	101300000	1000	0	0	-1	0
29963523	2002	0	0	-100	0	230	101300000	1000	0	0	-1	0
29976083	2002	0	0	-100	0	230	101300000	1000	0	0	-1	0
29988643	1997	0	0	-100	0	230	101300000	1000	0	0	-1	0
30001203	2004	0	0	-100	0	230	101300000	1000	0	0	-1	0
30013763	1997	4	0	-100	0	230	101300000	1000	0	0	-1	0
30026323	1999	0	0	-100	0	230	101300000	1000	0	0	-1	0
30038883	2005	0	0	-100	0	230	101300000	1000	0	0	-1	0
30051443	1998	3	0	-100	0	230	101300000	1000	0	0	-1	0
30064004	2011	0	0	-100	0	230	101300000	1000	0	0	-1	0
30076563	2002	0	0	-100	0	230	101300000	1000	0	0	-1	0
30089123	1999	3	0	-100	0	230	101300000	1000	0	0	-1	0
30101683	1997	0	0	-100	0	230	101300000	1000	0	0	-1	0
30114243	2004	0	0	-100	0	230	101300000	1000	0	0	-1	0
30126803	1998	5	0	-100	0	230	101300000	1000	0	0	-1	0
30139363	2005	0	0	-100	0	230	101300000	1000	0	0	-1	0
30151923	1998	4	0	-100	0	230	101300000	1000	0	0	-1	0
30164483	2004	0	0	-100	0	230	101300000	1000	0	0	-1	0
30177043	1998	0	0	-100	0	230	101300000	1000	0	0	-1	0
30189603	1999	0	0	-100	0	230	101300000	1000	0	0	-1	0
30202163	2011	0	0	-100	0	230	101300000	1000	0	0	-1	0
30214723	1999	4	0	-100	0	230	101300000	1000	0	0	-1	0
30227283	2005	0	0	-100	0	230	101300000	1000	0	0	-1	0
30239843	1997	2	0	-100	0	230	101300000	1000	0	0	-1	0
30252403	1999	0	0	-100	0	230	101300000	1000	0	0	-1	0
30264963	2003	0	0	-100	0	230	101300000	1000	0	0	-1	0
30277523	2000	0	0	-100	0	230	101300000	1000	0	0	-1	0
30290083	2002	0	0	-100	0	230	101300000	1000	0	0	-1	0
30302643	2000	4	0	-100	0	230	101300000	1000	0	0	-1	0
30315203	2005	0	0	-100	0	230	101300000	1000	0	0	-1	0
30327763	1997	3	0	-100	0	230	101300000	1000	0	0	-1	0
30340323	2000	0	0	-100	0	230	101300000	1000	0	0	-1	0
30352883	2000	0	0	-100	0	230	101300000	1000	0	0	-1	0
30365443	1997	0	0	-100	0	230	101300000	1000	0	0	-1	0
30378004	2001	3	0	-100	0	230	101300000	1000	0	0	-1	0
30390563	1997	4	0	-100	0	230	101300000	1000	0	0	-1	0
30403123	2004	0	0	-100	0	230	101300000	1000	0	0	-1	0
30415683	2001	1	0	-100	0	230	101300000	1000	0	0	-1	0
30428243	2002	0	0	-100	0	230	101300000	1000	0	0	-1	0
30440803	1997	4	0	-100	0	230	101300000	1000	0	0	-1	0
30453363	2007	0	0	-100	0	230	101300000	1000	0	0	-1	0
30465923	1997	4	0	-100	0	230	101300000	1000	0	0	-1	0
30478483	2005	0	0	-100	0	230	101300000	1000	0	0	-1	0
30491043	1996	6	0	-100	0	230	101300000	1000	0	0	-1	0
30503603	2005	0	0	-100	0	230	101300000	1000	0	0	-1	0
30516163	2003	2	0	-100	0	230	101300000	1000	0	0	-1	0
30528723	2005	0	0	-100	0	230	101300000	1000	0	0	-1	0
30541283	1997	4	0	-100	0	230	101300000	1000	0	0	-1	0
30553843	2004	0	0	-100	0	230	101300000	1000	0	0	-1	0
30566403	1997	4	0	-100	0	230	101300000	1000	0	0	-1	0
30578963	2005	0	0	-100	0	230	101300000	1000	0	0	-1	0
30591523	1998	0	0	-100	0	230	101300000	1000	0	0	-1	0
30604083	1996	0	0	-100	0	230	101300000	1000	0	0	-1	0
30616643	2004	0	0	-100	0	230	101300000	1000	0	0	-1	0
30629203	1998	0	0	-100	0	230	101300000	1000	0	0	-1	0
30641763	2005	0	0	-100	0	230	101300000	1000	0	0	-1	0
30654323	1999	4	0	-100	0	230	101300000	1000	0	0	-1	0
30666883	2003	0	0	-100	0	230	101300000	1000	0	0	-1	0
30679443	1997	1	0	-100	0	230	101300000	1000	0	0	-1	0
30692004	2007	0	0	-100	0	230	101300000	1000	0	0	-1	0
30704563	1999	4	0	-100	0	230	101300000	1000	0	0	-1	0
30717123	2006	0	0	-100	0	230	101300000	1000	0	0	-1	0
30729683	1997	4	0	-100	0	230	101300000	1000	0	0	-1	0
30742243	2004	0	0	-100	0	230	101300000	1000	0	0	-1	0
30754803	2000	0	0	-100	0	230	101300000	1000	0	0	-1	0
30767363	1999	0	0	-100	0	230	101300000	1000	0	0	-1	0
30779923	2007	0	0	-100	0	230	101300000	1000	0	0	-1	0
30792483	1997	4	0	-100	0	230	101300000	1000	0	0	-1	0
30805043	2005	0	0	-100	0	230	101300000	1000	0	0	-1	0
30817603	2000	0	0	-100	0	230	101300000	1000	0	0	-1	0
30830163	2006	0	0	-100	0	230	101300000	1000	0	0	-1	0
30842723	2004	0	0	-100	0	230	101300000	1000	0	0	-1	0
30855283	1998	3	0	-100	0	230	101300000	1000	0	0	-1	0
30867843	2000	0	0	-100	0	230	101300000	1000	0	0	-1	0
30880403	2007	0	0	-100	0	230	101300000	1000	0	0	-1	0
30892963	2000	0	0	-100	0	230	101300000	1000	0	0	-1	0
30905523	2007	0	0	-100	0	230	101300000	1000	0	0	-1	0
30918083	2001	4	0	-100	0	230	101300000	1000	0	0	-1	0
30930643	2005	0	0	-100	0	230	101300000	1000	0	0	-1	0
30943203	1998	0	0	-100	0	230	101300000	1000	0	0	-1	0
30955763	1996	0	0	-100	0	230	101300000	1000	0	0	-1	0
30968323	2004	0	0	-100	0	230	101300000	1000	0	0	-1	0
30980883	1998	2	0	-100	0	230	101300000	1000	0	0	-1	0
30993443	1997	0	0	-100	0	230	101300000	1000	0	0	-1	0
31006004	2002	4	0	-100	0	230	101300000	1000	0	0	-1	0
31018563	2000	4	0	-100	0	230	101300000	1000	0	0	-1	0
31031123	2002	0	0	-100	0	230	101300000	1000	0	0	-1	0
31043683	2007	0	0	-100	0	230	101300000	1000	0	0	-1	0
31056243	1999	6	0	-100	0	230	101300000	1000	0	0	-1	0
31068803	2004	0	0	-100	0	230	101300000	1000	0	0	-1	0
31081363	2000	0	0	-100	0	230	101300000	1000	0	0	-1	0
31093923	1997	0	0	-100	0	230	101300000	1000	0	0	-1	0
31106483	2007	0	0	-100	0	230	101300000	1000	0	0	-1	0
31119043	1997	3	0	-100	0	230	101300000	1000	0	0	-1	0
31131603	2001	0	0	-100	0	230	101300000	1000	0	0	-1	0
31144163	2009	0	0	-100	0	230	101300000	1000	0	0	-1	0
31156723	2000	0	0	-100	0	230	101300000	1000	0	0	-1	0
31169283	2005	0	0	-100	0	230	101300000	1000	0	0	-1	0
31181843	2000	1	0	-100	0	230	101300000	1000	0	0	-1	0
31194403	2000	0	0	-100	0	230	101300000	1000	0	0	-1	0
31206963	1995	1	0	-100	0	230	101300000	1000	0	0	-1	0
31219523	2004	0	0	-100	0	230	101300000	1000	0	0	-1	0
31232083	1997	4	0	-100	0	230	101300000	1000	0	0	-1	0
31244643	2004	0	0	-100	0	230	101300000	1000	0	0	-1	0
31257203	1999	4	0	-100	0	230	101300000	1000	0	0	-1	0
31269763	2004	0	0	-100	0	230	101300000	1000	0	0	-1	0
31282323	2000	3	0	-100	0	230	101300000	1000	0	0	-1	0
31294883	2005	0	0	-100	0	230	101300000	1000	0	0	-1	0
31307443	2002	0	0	-100	0	230	101300000	1000	0	0	-1	0
31320004	2001	1	0	-100	0	230	101300000	1000	0	0	-1	0
31332563	1997	4	0	-100	0	230	101300000	1000	0	0	-1	0
31345123	2004	0	0	-100	0	230	101300000	1000	0	0	-1	0
31357683	1998	0	0	-100	0	230	101300000	1000	0	0	-1	0
31370243	2000	0	0	-100	0	230	101300000	1000	0	0	-1	0
31382803	2007	0	0	-100	0	230	101300000	1000	0	0	-1	0
31395363	2000	4	0	-100	0	230	101300000	1000	0	0	-1	0
31407923	2002	0	0	-100	0	230	101300000	1000	0	0	-1	0
31420483	2000	0	0	-100	0	230	101300000	1000	0	0	-1	0
31433043	1996	0	0	-100	0	230	101300000	1000	0	0	-1	0
31445603	2005	0	0	-100	0	230	101300000	1000	0	0	-1	0
31458163	2006	3	0	-100	0	230	101300000	1000	0	0	-1	0
31470723	2005	0	0	-100	0	230	101300000	1000	0	0	-1	0
31483283	1998	3	0	-100	0	230	101300000	1000	0	0	-1	0
31495843	2000	0	0	-100	0	230	101300000	1000	0	0	-1	0
31508403	2003	0	0	-100	0	230	101300000	1000	0	0	-1	0
31520963	1999	0	0	-100	0	230	101300000	1000	0	0	-1	0
31533523	2007	0	0	-100	0	230	101300000	1000	0	0	-1	0
31546083	1998	4	0	-100	0	230	101300000	1000	0	0	-1	0
31558643	2002	0	0	-100	0	230	101300000	1000	0	0	-1	0
31571203	1997	0	0	-100	0	230	101300000	1000	0	0	-1	0
31583763	2000	0	0	-100	0	230	101300000	1000	0	0	-1	0
31596323	2005	0	0	-100	0	230	101300000	1000	0	0	-1	0
31608883	1994	0	0	-100	0	230	101300000	1000	0	0	-1	0
31621443	2001	0	0	-100	0	230	101300000	1000	0	0	-1	0
31634004	2011	0	0	-100	0	230	101300000	1000	0	0	-1	0
31646563	2005	0	0	-100	0	230	101300000	1000	0	0	-1	0
31659123	1997	2	0	-100	0	230	101300000	1000	0	0	-1	0
31671683	1998	0	0	-100	0	230	101300000	1000	0	0	-1	0
31684243	2004	0	0	-100	0	230	101300000	1000	0	0	-1	0
31696803	1999	2	0	-100	0	230	101300000	1000	0	0	-1	0
31709363	2002	0	0	-100	0	230	101300000	1000	0	0	-1	0
31721923	2001	0	0	-100	0	230	101300000	1000	0	0	-1	0
31734483	1997	0	0	-100	0	230	101300000	1000	0	0	-1	0
31747043	2004	0	0	-100	0	230	101300000	1000	0	0	-1	0
31759603	1999	3	0	-100	0	230	101300000	1000	0	0	-1	0
31772163	2010	0	0	-100	0	230	101300000	1000	0	0	-1	0
31784723	1996	4	0	-100	0	230	101300000	1000	0	0	-1	0
31797283	2004	0	0	-100	0	230	101300000	1000	0	0	-1	0
31809843	1998	3	0	-100	0	230	101300000	1000	0	0	-1	0
31822403	2004	0	0	-100	0	230	101300000	1000	0	0	-1	0
31834963	1999	1	0	-100	0	230	101300000	1000	0	0	-1	0
31847523	1997	0	0	-100	0	230	101300000	1000	0	0	-1	0
31860083	2006	0	0	-100	0	230	101300000	1000	0	0	-1	0
31872643	2000	3	0	-100	0	230	101300000	1000	0	0	-1	0
31885203	2002	0	0	-100	0	230	101300000	1000	0	0	-1	0
31897763	1998	4	0	-100	0	230	101300000	1000	0	0	-1	0
31910323	2004	0	0	-100	0	230	101300000	1000	0	0	-1	0
31922883	1997	0	0	-100	0	230	101300000	1000	0	0	-1	0
31935443	2000	0	0	-100	0	230	101300000	1000	0	0	-1	0
31948004	2005	0	0	-100	0	230	101300000	1000	0	0	-1	0
31960563	1999	0	0	-100	0	230	101300000	1000	0	0	-1	0
31973123	2002	2	0	-100	0	230	101300000	1000	0	0	-1	0
31985683	1998	0	0	-100	0	230	101300000	1000	0	0	-1	0
31998243	2006	0	0	-100	0	230	101300000	1000	0	0	-1	0
32010803	1997	0	0	-100	0	230	101300000	1000	0	0	-1	0
32023363	2007	0	0	-100	0	230	101300000	1000	0	0	-1	0
32035923	2000	4	0	-100	0	230	101300000	1000	0	0	-1	0
32048483	2004	0	0	-100	0	230	101300000	1000	0	0	-1	0
32061043	1998	1	0	-100	0	230	101300000	1000	0	0	-1	0
32073603	1999	0	0	-100	0	230	101300000	1000	0	0	-1	0
32086163	2009	0	0	-100	0	230	101300000	1000	0	0	-1	0
32098723	2000	6	0	-100	0	230	101300000	1000	0	0	-1	0
32111283	2004	0	0	-100	0	230	101300000	1000	0	0	-1	0
32123843	1997	1	0	-100	0	230	101300000	1000	0	0	-1	0
32136403	2000	0	0	-100	0	230	101300000	1000	0	0	-1	0
32148963	2003	0	0	-100	0	230	101300000	1000	0	0	-1	0
32161523	2002	1	0	-100	0	230	101300000	1000	0	0	-1	0
32174083	2004	0	0	-100	0	230	101300000	1000	0	0	-1	0
32186643	1997	3	0	-100	0	230	101300000	1000	0	0	-1	0
32199203	2001	0	0	-100	0	230	101300000	1000	0	0	-1	0
32211763	1994	2	0	-100	0	230	101300000	1000	0	0	-1	0
32224323	2002	0	0	-100	0	230	101300000	1000	0	0	-1	0
32236883	1998	4	0	-100	0	230	101300000	1000	0	0	-1	0
32249443	2004	0	0	-100	0	230	101300000	1000	0	0	-1	0
32262004	2004	0	0	-100	0	230	101300000	1000	0	0	-1	0
32274563	2004	0	0	-100	0	230	101300000	1000	0	0	-1	0
32287123	1998	3	0	-100	0	230	101300000	1000	0	0	-1	0
32299683	2005	0	0	-100	0	230	101300000	1000	0	0	-1	0
32312243	2000	4	0	-100	0	230	101300000	1000	0	0	-1	0
32324803	2006	0	0	-100	0	230	101300000	1000	0	0	-1	0
32337363	1999	1	0	-100	0	230	101300000	1000	0	0	-1	0
32349923	2005	0	0	-100	0	230	101300000	1000	0	0	-1	0
32362483	2001	0	0	-100	0	230	101300000	1000	0	0	-1	0
32375043	2002	0	0	-100	0	230	101300000	1000	0	0	-1	0
32387603	1997	0	0	-100	0	230	101300000	1000	0	0	-1	0
32400163	2003	0	0	-100	0	230	101300000	1000	0	0	-1	0
32412723	2002	0	0	-100	0	230	101300000	1000	0	0	-1	0
32425283	2000	4	0	-100	0	230	101300000	1000	0	0	-1	0
32437843	2005	0	0	-100	0	230	101300000	1000	0	0	-1	0
32450403	1999	0	0	-100	0	230	101300000	1000	0	0	-1	0
32462963	2007	0	0	-100	0	230	101300000	1000	0	0	-1	0
32475523	1997	0	0	-100	0	230	101300000	1000	0	0	-1	0
32488083	2001	0	0	-100	0	230	101300000	1000	0	0	-1	0
32500643	2000	0	0	-100	0	230	101300000	1000	0	0	-1	0
32513203	2001	0	0	-100	0	230	101300000	1000	0	0	-1	0
32525763	1999	0	0	-100	0	230	101300000	1000	0	0	-1	0
32538323	2002	0	0	-100	0	230	101300000	1000	0	0	-1	0
32550883	1997	0	0	-100	0	230	101300000	1000	0	0	-1	0
32563443	2000	0	0	-100	0	230	101300000	1000	0	0	-1	0
32576004	2009	0	0	-100	0	230	101300000	1000	0	0	-1	0
32588563	2002	0	0	-100	0	230	101300000	1000	0	0	-1	0
32601123	2001	0	0	-100	0	230	101300000	1000	0	0	-1	0
32613683	1997	3	0	-100	0	230	101300000	1000	0	0	-1	0
32626243	2005	0	0	-100	0	230	101300000	1000	0	0	-1	0
32638803	1996	0	0	-100	0	230	101300000	1000	0	0	-1	0
32651363	1997	2	0	-100	0	230	101300000	1000	0	0	-1	0
32663923	2004	0	0	-100	0	230	101300000	1000	0	0	-1	0
32676483	2002	0	0	-100	0	230	101300000	1000	0	0	-1	0
32689043	1999	5	0	-100	0	230	101300000	1000	0	0	-1	0
32701603	2005	0	0	-100	0	230	101300000	1000	0	0	-1	0
32714163	2008	0	0	-100	0	230	101300000	1000	0	0	-1	0
32726723	1999	5	0	-100	0	230	101300000	1000	0	0	-1	0
32739283	2002	0	0	-100	0	230	101300000	1000	0	0	-1	0
32751843	2004	0	0	-100	0	230	101300000	1000	0	0	-1	0
32764403	1997	1	0	-100	0	230	101300000	1000	0	0	-1	0
32776963	1997	3	0	-100	0	230	101300000	1000	0	0	-1	0
32789523	2000	0	0	-100	0	230	101300000	1000	0	0	-1	0
32802083	2005	0	0	-100	0	230	101300000	1000	0	0	-1	0
32814643	1997	0	0	-100	0	230	101300000	1000	0	0	-1	0
32827203	2000	4	0	-100	0	230	101300000	1000	0	0	-1	0
32839763	2003	0	0	-100	0	230	101300000	1000	0	0	-1	0
32852323	2005	0	0	-100	0	230	101300000	1000	0	0	-1	0
32864883	1997	0	0	-100	0	230	101300000	1000	0	0	-1	0
32877443	1999	1	0	-100	0	230	101300000	1000	0	0	-1	0
32890004	2000	1	0	-100	0	230	101300000	1000	0	0	-1	0
32902563	1999	0	0	-100	0	230	101300000	1000	0	0	-1	0
32915123	1998	3	0	-100	0	230	101300000	1000	0	0	-1	0
32927683	1999	0	0	-100	0	230	101300000	1000	0	0	-1	0
32940243	2000	0	0	-100	0	230	101300000	1000	0	0	-1	0
32952803	2000	0	0	-100	0	230	101300000	1000	0	0	-1	0
32965363	2004	0	0	-100	0	230	101300000	1000	0	0	-1	0
32977923	2003	6	0	-100	0	230	101300000	1000	0	0	-1	0
32990483	2007	0	0	-100	0	230	101300000	1000	0	0	-1	0
33003043	2000	0	0	-100	0	230	101300000	1000	0	0	-1	0
33015603	1998	3	0	-100	0	230	101300000	1000	0	0	-1	0
33028163	2012	0	0	-100	0	230	101300000	1000	0	0	-1	0
33040723	2000	1	0	-100	0	230	101300000	1000	0	0	-1	0
33053283	2000	0	0	-100	0	230	101300000	1000	0	0	-1	0
33065843	2002	0	0	-100	0	230	101300000	1000	0	0	-1	0
33078403	1999	0	0	-100	0	230	101300000	1000	0	0	-1	0
33090963	1999	0	0	-100	0	230	101300000	1000	0	0	-1	0
33103523	2005	0	0	-100	0	230	101300000	1000	0	0	-1	0
33116083	2000	1	0	-100	0	230	101300000	1000	0	0	-1	0
33128643	2007	0	0	-100	0	230	101300000	1000	0	0	-1	0
33141203	1997	4	0	-100	0	230	101300000	1000	0	0	-1	0
33153763	2004	0	0	-100	0	230	101300000	1000	0	0	-1	0
33166323	1998	2	0	-100	0	230	101300000	1000	0	0	-1	0
33178883	1999	0	0	-100	0	230	101300000	1000	0	0	-1	0
33191443	2007	0	0	-100	0	230	101300000	1000	0	0	-1	0
33204004	2011	0	0	-100	0	230	101300000	1000	0	0	-1	0
33216563	2004	0	0	-100	0	230	101300000	1000	0	0	-1	0
33229123	1997	2	0	-100	0	230	101300000	1000	0	0	-1	0
33241683	1997	0	0	-100	0	230	101300000	1000	0	0	-1	0
33254243	2004	0	0	-100	0	230	101300000	1000	0	0	-1	0
33266803	1997	2	0	-100	0	230	101300000	1000	0	0	-1	0
33279363	1996	0	0	-100	0	230	101300000	1000	0	0	-1	0
33291923	2007	0	0	-100	0	230	101300000	1000	0	0	-1	0
33304483	1997	2	0	-100	0	230	101300000	1000	0	0	-1	0
33317043	1998	0	0	-100	0	230	101300000	1000	0	0	-1	0
33329603	2005	0	0	-100	0	230	101300000	1000	0	0	-1	0
33342163	2005	5	0	-100	0	230	101300000	1000	0	0	-1	0
33354723	2004	0	0	-100	0	230	101300000	1000	0	0	-1	0
33367283	1997	0	0	-100	0	230	101300000	1000	0	0	-1	0
33379843	1997	0	0	-100	0	230	101300000	1000	0	0	-1	0
33392403	2004	0	0	-100	0	230	101300000	1000	0	0	-1	0
33404963	1999	4	0	-100	0	230	101300000	1000	0	0	-1	0
33417523	2005	0	0	-100	0	230	101300000	1000	0	0	-1	0
33430083	1997	3	0	-100	0	230	101300000	1000	0	0	-1	0
33442643	2003	0	0	-100	0	230	101300000	1000	0	0	-1	0
33455203	1998	0	0	-100	0	230	101300000	1000	0	0	-1	0
33467763	1996	0	0	-100	0	230	101300000	1000	0	0	-1	0
33480323	2004	0	0	-100	0	230	101300000	1000	0	0	-1	0
33492883	1998	4	0	-100	0	230	101300000	1000	0	0	-1	0
33505443	2002	0	0	-100	0	230	101300000	1000	0	0	-1	0
33518004	2006	0	0	-100	0	230	101300000	1000	0	0	-1	0
33530563	2004	0	0	-100	0	230	101300000	1000	0	0	-1	0
33543123	1997	3	0	-100	0	230	101300000	1000	0	0	-1	0
33555683	2005	0	0	-100	0	230	101300000	1000	0	0	-1	0
33568243	2000	0	0	-100	0	230	101300000	1000	0	0	-1	0
33580803	1996	0	0	-100	0	230	101300000	1000	0	0	-1	0
33593363	2001	0	0	-100	0	230	101300000	1000	0	0	-1	0
33605923	2000	0	0	-100	0	230	101300000	1000	0	0	-1	0
33618483	2000	0	0	-100	0	230	101300000	1000	0	0	-1	0
33631043	1996	0	0	-100	0	230	101300000	1000	0	0	-1	0
33643603	2004	0	0	-100	0	230	101300000	1000	0	0	-1	0
33656163	2008	4	0	-100	0	230	101300000	1000	0	0	-1	0
33668723	2004	0	0	-100	0	230	101300000	1000	0	0	-1	0
33681283	2000	3	0	-100	0	230	101300000	1000	0	0	-1	0
33693843	2005	0	0	-100	0	230	101300000	1000	0	0	-1	0
33706403	1999	4	0	-100	0	230	101300000	1000	0	0	-1	0
33718963	2002	0	0	-100	0	230	101300000	1000	0	0	-1	0
33731523	1998	0	0	-100	0	230	101300000	1000	0	0	-1	0
33744083	2000	0	0	-100	0	230	101300000	1000	0	0	-1	0
33756643	2007	0	0	-100	0	230	101300000	1000	0	0	-1	0
33769203	2000	3	0	-100	0	230	101300000	1000	0	0	-1	0
33781763	2004	0	0	-100	0	230	101300000	1000	0	0	-1	0
33794323	1997	2	0	-100	0	230	101300000	1000	0	0	-1	0
33806883	1997	0	0	-100	0	230	101300000	1000	0	0	-1	0
33819443	2009	0	0	-100	0	230	101300000	1000	0	0	-1	0
33832004	2005	0	0	-100	0	230	101300000	1000	0	0	-1	0
33844563	1997	3	0	-100	0	230	101300000	1000	0	0	-1	0
33857123	1999	4	0	-100	0	230	101300000	1000	0	0	-1	0
33869683	1999	0	0	-100	0	230	101300000	1000	0	0	-1	0
33882243	2004	0	0	-100	0	230	101300000	1000	0	0	-1	0
33894803	2003	0	0	-100	0	230	101300000	1000	0	0	-1	0
33907363	1998	4	0	-100	0	230	101300000	1000	0	0	-1	0
33919923	2001	0	0	-100	0	230	101300000	1000	0	0	-1	0
33932483	2005	0	0	-100	0	230	101300000	1000	0	0	-1	0
33945043	1997	0	0	-100	0	230	101300000	1000	0	0	-1	0
33957603	1998	4	0	-100	0	230	101300000	1000	0	0	-1	0
33970163	2005	0	0	-100	0	230	101300000	1000	0	0	-1	0
33982723	2004	0	0	-100	0	230	101300000	1000	0	0	-1	0
33995283	2007	0	0	-100	0	230	101300000	1000	0	0	-1	0
34007843	1997	1	0	-100	0	230	101300000	1000	0	0	-1	0
34020403	1997	0	0	-100	0	230	101300000	1000	0	0	-1	0
34032963	2004	0	0	-100	0	230	101300000	1000	0	0	-1	0
34045523	1998	3	0	-100	0	230	101300000	1000	0	0	-1	0
34058083	2005	0	0	-100	0	230	101300000	1000	0	0	-1	0
34070643	1997	2	0	-100	0	230	101300000	1000	0	0	-1	0
34083203	1998	0	0	-100	0	230	101300000	1000	0	0	-1	0
34095763	2004	0	0	-100	0	230	101300000	1000	0	0	-1	0
34108323	1997	4	0	-100	0	230	101300000	1000	0	0	-1	0
34120883	2004	0	0	-100	0	230	101300000	1000	0	0	-1	0
34133443	1998	0	0	-100	0	230	101300000	1000	0	0	-1	0
34146004	2011	0	0	-100	0	230	101300000	1000	0	0	-1	0
34158563	2005	0	0	-100	0	230	101300000	1000	0	0	-1	0
34171123	2000	2	0	-100	0	230	101300000	1000	0	0	-1	0
34183683	2000	0	0	-100	0	230	101300000	1000	0	0	-1	0
34196243	2003	0	0	-100	0	230	101300000	1000	0	0	-1	0
34208803	2000	1	0	-100	0	230	101300000	1000	0	0	-1	0
34221363	2004	0	0	-100	0	230	101300000	1000	0	0	-1	0
34233923	2000	4	0	-100	0	230	101300000	1000	0	0	-1	0
34246483	2000	0	0	-100	0	230	101300000	1000	0	0	-1	0
34259043	2007	0	0	-100	0	230	101300000	1000	0	0	-1	0
34271603	1997	4	0	-100	0	230	101300000	1000	0	0	-1	0
34284163	2003	0	0	-100	0	230	101300000	1000	0	0	-1	0
34296723	2005	0	0	-100	0	230	101300000	1000	0	0	-1	0
34309283	1995	2	0	-100	0	230	101300000	1000	0	0	-1	0
34321843	1999	0	0	-100	0	230	101300000	1000	0	0	-1	0
34334403	2002	0	0	-100	0	230	101300000	1000	0	0	-1	0
34346963	2000	0	0	-100	0	230	101300000	1000	0	0	-1	0
34359523	2000	0	0	-100	0	230	101300000	1000	0	0	-1	0
34372083	1997	0	0	-100	0	230	101300000	1000	0	0	-1	0
34384643	2006	0	0	-100	0	230	101300000	1000	0	0	-1	0
34397203	1995	0	0	-100	0	230	101300000	1000	0	0	-1	0
34409763	2003	0	0	-100	0	230	101300000	1000	0	0	-1	0
34422323	1997	0	0	-100	0	230	101300000	1000	0	0	-1	0
34434883	2003	0	0	-100	0	230	101300000	1000	0	0	-1	0
34447443	1996	0	0	-100	0	230	101300000	1000	0	0	-1	0
34460004	2008	1	0	-100	0	230	101300000	1000	0	0	-1	0
34472563	2000	0	0	-100	0	230	101300000	1000	0	0	-1	0
34485123	1997	2	0	-100	0	230	101300000	1000	0	0	-1	0
34497683	2002	0	0	-100	0	230	101300000	1000	0	0	-1	0
34510243	2002	0	0	-100	0	230	101300000	1000	0	0	-1	0
34522803	1996	0	0	-100	0	230	101300000	1000	0	0	-1	0
34535363	2005	0	0	-100	0	230	101300000	1000	0	0	-1	0
34547923	2000	3	0	-100	0	230	101300000	1000	0	0	-1	0
34560483	2004	0	0	-100	0	230	101300000	1000	0	0	-1	0
34573043	1997	3	0	-100	0	230	101300000	1000	0	0	-1	0
34585603	2004	0	0	-100	0	230	101300000	1000	0	0	-1	0
34598163	2000	3	0	-100	0	230	101300000	1000	0	0	-1	0
34610723	2004	0	0	-100	0	230	101300000	1000	0	0	-1	0
34623283	2000	0	0	-100	0	230	101300000	1000	0	0	-1	0
34635843	2000	0	0	-100	0	230	101300000	1000	0	0	-1	0
34648403	1997	2	0	-100	0	230	101300000	1000	0	0	-1	0
34660963	2004	0	0	-100	0	230	101300000	1000	0	0	-1	0
34673523	2000	0	0	-100	0	230	101300000	1000	0	0	-1	0
34686083	2000	0	0	-100	0	230	101300000	1000	0	0	-1	0
34698643	2005	0	0	-100	0	230	101300000	1000	0	0	-1	0
34711203	1998	5	0	-100	0	230	101300000	1000	0	0	-1	0
34723763	2004	0	0	-100	0	230	101300000	1000	0	0	-1	0
34736323	1997	1	0	-100	0	230	101300000	1000	0	0	-1	0
34748883	1997	0	0	-100	0	230	101300000	1000	0	0	-1	0
34761443	2003	0	0	-100	0	230	101300000	1000	0	0	-1	0
34774004	2007	0	0	-100	0	230	101300000	1000	0	0	-1	0
34786563	2004	0	0	-100	0	230	101300000	1000	0	0	-1	0
34799123	2000	4	0	-100	0	230	101300000	1000	0	0	-1	0
34811683	2005	0	0	-100	0	230	101300000	1000	0	0	-1	0
34824243	1997	4	0	-100	0	230	101300000	1000	0	0	-1	0
34836803	2006	0	0	-100	0	230	101300000	1000	0	0	-1	0
34849363	1996	0	0	-100	0	230	101300000	1000	0	0	-1	0
34861923	2002	0	0	-100	0	230	101300000	1000	0	0	-1	0
34874483	1999	0	0	-100	0	230	101300000	1000	0	0	-1	0
34887043	2007	0	0	-100	0	230	101300000	1000	0	0	-1	0
34899603	1999	0	0	-100	0	230	101300000	1000	0	0	-1	0
34912163	2009	0	0	-100	0	230	101300000	1000	0	0	-1	0
34924723	1996	0	0	-100	0	230	101300000	1000	0	0	-1	0
34937283	2002	0	0	-100	0	230	101300000	1000	0	0	-1	0
34949843	2000	0	0	-100	0	230	101300000	1000	0	0	-1	0
34962403	2000	0	0	-100	0	230	101300000	1000	0	0	-1	0
34974963	2002	0	0	-100	0	230	101300000	1000	0	0	-1	0
34987523	1998	2	0	-100	0	230	101300000	1000	0	0	-1	0
35000083	2004	0	0	-100	0	230	101300000	1000	0	0	-1	0
35012643	1998	0	0	-100	0	230	101300000	1000	0	0	-1	0
35025203	1998	0	0	-100	0	230	101300000	1000	0	0	-1	0
35037763	2001	0	0	-100	0	230	101300000	1000	0	0	-1	0
35050323	1999	3	0	-100	0	230	101300000	1000	0	0	-1	0
35062883	2004	0	0	-100	0	230	101300000	1000	0	0	-1	0
35075443	1998	3	0	-100	0	230	101300000	1000	0	0	-1	0
35088004	2003	2	0	-100	0	230	101300000	1000	0	0	-1	0
35100563	2000	4	0	-100	0	230	101300000	1000	0	0	-1	0
35113123	2005	0	0	-100	0	230	101300000	1000	0	0	-1	0
35125683	2000	0	0	-100	0	230	101300000	1000	0	0	-1	0
35138243	2007	0	0	-100	0	230	101300000	1000	0	0	-1	0
35150803	2002	4	0	-100	0	230	101300000	1000	0	0	-1	0
35163363	2004	0	0	-100	0	230	101300000	1000	0	0	-1	0
35175923	2002	4	0	-100	0	230	101300000	1000	0	0	-1	0
35188483	2004	0	0	-100	0	230	101300000	1000	0	0	-1	0
35201043	1997	0	0	-100	0	230	101300000	1000	0	0	-1	0
35213603	2002	0	0	-100	0	230	101300000	1000	0	0	-1	0
35226163	2008	0	0	-100	0	230	101300000	1000	0	0	-1	0
35238723	1998	4	0	-100	0	230	101300000	1000	0	0	-1	0
35251283	2007	0	0	-100	0	230	101300000	1000	0	0	-1	0
35263843	2000	4	0	-100	0	230	101300000	1000	0	0	-1	0
35276403	2005	0	0	-100	0	230	101300000	1000	0	0	-1	0
35288963	2000	0	0	-100	0	230	101300000	1000	0	0	-1	0
35301523	1997	1	0	-100	0	230	101300000	1000	0	0	-1	0
35314083	2005	0	0	-100	0	230	101300000	1000	0	0	-1	0
35326643	2000	3	0	-100	0	230	101300000	1000	0	0	-1	0
35339203	2007	0	0	-100	0	230	101300000	1000	0	0	-1	0
35351763	1997	0	0	-100	0	230	101300000	1000	0	0	-1	0
35364323	2003	0	0	-100	0	230	101300000	1000	0	0	-1	0
35376883	1999	0	0	-100	0	230	101300000	1000	0	0	-1	0
35389443	2003	0	0	-100	0	230	101300000	1000	0	0	-1	0
35402004	2009	0	0	-100	0	230	101300000	1000	0	0	-1	0
35414563	1998	0	0	-100	0	230	101300000	1000	0	0	-1	0
35427123	1999	0	0	-100	0	230	101300000	1000	0	0	-1	0
35439683	1999	1	0	-100	0	230	101300000	1000	0	0	-1	0
35452243	1999	0	0	-100	0	230	101300000	1000	0	0	-1	0
35464803	1997	1	0	-100	0	230	101300000	1000	0	0	-1	0
35477363	1998	0	0	-100	0	230	101300000	1000	0	0	-1	0
35489923	2000	0	0	-100	0	230	101300000	1000	0	0	-1	0
35502483	1999	0	0	-100	0	230	101300000	1000	0	0	-1	0
35515043	1997	0	0	-100	0	230	101300000	1000	0	0	-1	0
35527603	1997	0	0	-100	0	230	101300000	1000	0	0	-1	0
35540163	2011	0	0	-100	0	230	101300000	1000	0	0	-1	0
35552723	2000	0	0	-100	0	230	101300000	1000	0	0	-1	0
35565283	1998	4	0	-100	0	230	101300000	1000	0	0	-1	0
35577843	2004	0	0	-100	0	230	101300000	1000	0	0	-1	0
35590403	2000	4	0	-100	0	230	101300000	1000	0	0	-1	0
35602963	2001	0	0	-100	0	230	101300000	1000	0	0	-1	0
35615523	2000	0	0	-100	0	230	101300000	1000	0	0	-1	0
