timestamp	voltage	current	windSpeed	pitchAngle	rpm	temperature	ambientPressure	humidity	accelerationX	accelerationY	accelerationZ	currentSink
7035070	3006	0	0	-100	0	230	101300000	1000	0	0	-1	0
7042523	3014	0	0	-100	0	230	101300000	1000	0	0	-1	0
7055083	3012	0	0	-100	0	230	101300000	1000	0	0	-1	0
7067643	3010	0	0	-100	0	230	101300000	1000	0	0	-1	0
7080203	3007	0	0	-100	0	230	101300000	1000	0	0	-1	0
7092763	3008	0	0	-100	0	230	101300000	1000	0	0	-1	0
7105323	3009	1	0	-100	0	230	101300000	1000	0	0	-1	0
7117883	3007	4	0	-100	0	230	101300000	1000	0	0	-1	0
7130443	3004	1	0	-100	0	230	101300000	1000	0	0	-1	0
7143004	3008	0	0	-100	0	230	101300000	1000	0	0	-1	0
7155563	3012	0	0	-100	0	230	101300000	1000	0	0	-1	0
7168123	3016	0	0	-100	0	230	101300000	1000	0	0	-1	0
7180683	3013	0	0	-100	0	230	101300000	1000	0	0	-1	0
7193243	3011	0	0	-100	0	230	101300000	1000	0	0	-1	0
7205803	3009	0	0	-100	0	230	101300000	1000	0	0	-1	0
7218363	3008	0	0	-100	0	230	101300000	1000	0	0	-1	0
7230923	3005	0	0	-100	0	230	101300000	1000	0	0	-1	0
7243483	3008	4	0	-100	0	230	101300000	1000	0	0	-1	0
7256043	3008	2	0	-100	0	230	101300000	1000	0	0	-1	0
7268603	3012	0	0	-100	0	230	101300000	1000	0	0	-1	0
7281163	3013	0	0	-100	0	230	101300000	1000	0	0	-1	0
7293723	3014	0	0	-100	0	230	101300000	1000	0	0	-1	0
7306283	3012	0	0	-100	0	230	101300000	1000	0	0	-1	0
7318843	3007	0	0	-100	0	230	101300000	1000	0	0	-1	0
7331403	3010	0	0	-100	0	230	101300000	1000	0	0	-1	0
7343963	3010	0	0	-100	0	230	101300000	1000	0	0	-1	0
7356523	3004	0	0	-100	0	230	101300000	1000	0	0	-1	0
7369083	3008	0	0	-100	0	230	101300000	1000	0	0	-1	0
7381643	3008	3	0	-100	0	230	101300000	1000	0	0	-1	0
7394203	3007	2	0	-100	0	230	101300000	1000	0	0	-1	0
7406763	3007	0	0	-100	0	230	101300000	1000	0	0	-1	0
7419323	3007	1	0	-100	0	230	101300000	1000	0	0	-1	0
7431883	3007	1	0	-100	0	230	101300000	1000	0	0	-1	0
7444443	3010	0	0	-100	0	230	101300000	1000	0	0	-1	0
7457004	3008	0	0	-100	0	230	101300000	1000	0	0	-1	0
7469563	3013	0	0	-100	0	230	101300000	1000	0	0	-1	0
7482123	3017	0	0	-100	0	230	101300000	1000	0	0	-1	0
7494683	3016	0	0	-100	0	230	101300000	1000	0	0	-1	0
7507243	3016	0	0	-100	0	230	101300000	1000	0	0	-1	0
7519803	3013	0	0	-100	0	230	101300000	1000	0	0	-1	0
7532363	3012	0	0	-100	0	230	101300000	1000	0	0	-1	0
7544923	3014	0	0	-100	0	230	101300000	1000	0	0	-1	0
7557483	3014	0	0	-100	0	230	101300000	1000	0	0	-1	0
7570043	3012	0	0	-100	0	230	101300000	1000	0	0	-1	0
7582603	3014	0	0	-100	0	230	101300000	1000	0	0	-1	0
7595163	3012	0	0	-100	0	230	101300000	1000	0	0	-1	0
7607723	3015	0	0	-100	0	230	101300000	1000	0	0	-1	0
7620283	3013	0	0	-100	0	230	101300000	1000	0	0	-1	0
7632843	3011	0	0	-100	0	230	101300000	1000	0	0	-1	0
7645403	3013	0	0	-100	0	230	101300000	1000	0	0	-1	0
7657963	3014	0	0	-100	0	230	101300000	1000	0	0	-1	0
7670523	3013	0	0	-100	0	230	101300000	1000	0	0	-1	0
7683083	3014	0	0	-100	0	230	101300000	1000	0	0	-1	0
7695643	3015	0	0	-100	0	230	101300000	1000	0	0	-1	0
7708203	3014	0	0	-100	0	230	101300000	1000	0	0	-1	0
7720763	3014	0	0	-100	0	230	101300000	1000	0	0	-1	0
7733323	3012	0	0	-100	0	230	101300000	1000	0	0	-1	0
7745883	3016	0	0	-100	0	230	101300000	1000	0	0	-1	0
7758443	3017	0	0	-100	0	230	101300000	1000	0	0	-1	0
7771004	3012	4	0	-100	0	230	101300000	1000	0	0	-1	0
7783563	3012	0	0	-100	0	230	101300000	1000	0	0	-1	0
7796123	3012	0	0	-100	0	230	101300000	1000	0	0	-1	0
7808683	3014	0	0	-100	0	230	101300000	1000	0	0	-1	0
7821243	3017	0	0	-100	0	230	101300000	1000	0	0	-1	0
7833803	3013	0	0	-100	0	230	101300000	1000	0	0	-1	0
7846363	3015	0	0	-100	0	230	101300000	1000	0	0	-1	0
7858923	3012	0	0	-100	0	230	101300000	1000	0	0	-1	0
7871483	3004	0	0	-100	0	230	101300000	1000	0	0	-1	0
7884043	3009	4	0	-100	0	230	101300000	1000	0	0	-1	0
7896603	3010	3	0	-100	0	230	101300000	1000	0	0	-1	0
7909163	3006	4	0	-100	0	230	101300000	1000	0	0	-1	0
7921723	3008	0	0	-100	0	230	101300000	1000	0	0	-1	0
7934283	3005	0	0	-100	0	230	101300000	1000	0	0	-1	0
7946843	3008	0	0	-100	0	230	101300000	1000	0	0	-1	0
7959403	3006	0	0	-100	0	230	101300000	1000	0	0	-1	0
7971963	3009	1	0	-100	0	230	101300000	1000	0	0	-1	0
7984523	3007	5	0	-100	0	230	101300000	1000	0	0	-1	0
7997083	3005	4	0	-100	0	230	101300000	1000	0	0	-1	0
8009643	3010	1	0	-100	0	230	101300000	1000	0	0	-1	0
8022203	3009	0	0	-100	0	230	101300000	1000	0	0	-1	0
8034763	3014	0	0	-100	0	230	101300000	1000	0	0	-1	0
8047323	3012	0	0	-100	0	230	101300000	1000	0	0	-1	0
8059883	3016	0	0	-100	0	230	101300000	1000	0	0	-1	0
8072443	3014	0	0	-100	0	230	101300000	1000	0	0	-1	0
8085004	3008	1	0	-100	0	230	101300000	1000	0	0	-1	0
8097563	3011	0	0	-100	0	230	101300000	1000	0	0	-1	0
8110123	3009	0	0	-100	0	230	101300000	1000	0	0	-1	0
8122683	3012	0	0	-100	0	230	101300000	1000	0	0	-1	0
8135243	3009	3	0	-100	0	230	101300000	1000	0	0	-1	0
8147803	3010	3	0	-100	0	230	101300000	1000	0	0	-1	0
8160363	3008	3	0	-100	0	230	101300000	1000	0	0	-1	0
8172923	3007	0	0	-100	0	230	101300000	1000	0	0	-1	0
8185483	3012	0	0	-100	0	230	101300000	1000	0	0	-1	0
8198043	3016	0	0	-100	0	230	101300000	1000	0	0	-1	0
8210603	3011	0	0	-100	0	230	101300000	1000	0	0	-1	0
8223163	3005	0	0	-100	0	230	101300000	1000	0	0	-1	0
8235723	3007	0	0	-100	0	230	101300000	1000	0	0	-1	0
8248283	3015	0	0	-100	0	230	101300000	1000	0	0	-1	0
8260843	3008	0	0	-100	0	230	101300000	1000	0	0	-1	0
8273403	3007	4	0	-100	0	230	101300000	1000	0	0	-1	0
8285963	3010	0	0	-100	0	230	101300000	1000	0	0	-1	0
8298523	3011	0	0	-100	0	230	101300000	1000	0	0	-1	0
8311083	3008	0	0	-100	0	230	101300000	1000	0	0	-1	0
8323643	3009	4	0	-100	0	230	101300000	1000	0	0	-1	0
8336203	3010	0	0	-100	0	230	101300000	1000	0	0	-1	0
8348763	3012	0	0	-100	0	230	101300000	1000	0	0	-1	0
8361323	3013	0	0	-100	0	230	101300000	1000	0	0	-1	0
8373883	3009	0	0	-100	0	230	101300000	1000	0	0	-1	0
8386443	3010	4	0	-100	0	230	101300000	1000	0	0	-1	0
8399004	3005	4	0	-100	0	230	101300000	1000	0	0	-1	0
8411563	3013	0	0	-100	0	230	101300000	1000	0	0	-1	0
8424123	3011	0	0	-100	0	230	101300000	1000	0	0	-1	0
8436683	3007	2	0	-100	0	230	101300000	1000	0	0	-1	0
8449243	3014	0	0	-100	0	230	101300000	1000	0	0	-1	0
8461803	3014	0	0	-100	0	230	101300000	1000	0	0	-1	0
8474363	3010	0	0	-100	0	230	101300000	1000	0	0	-1	0
8486923	3007	0	0	-100	0	230	101300000	1000	0	0	-1	0
8499483	3007	0	0	-100	0	230	101300000	1000	0	0	-1	0
8512043	3008	4	0	-100	0	230	101300000	1000	0	0	-1	0
8524603	3004	1	0	-100	0	230	101300000	1000	0	0	-1	0
8537163	3015	0	0	-100	0	230	101300000	1000	0	0	-1	0
8549723	3012	0	0	-100	0	230	101300000	1000	0	0	-1	0
8562283	3012	0	0	-100	0	230	101300000	1000	0	0	-1	0
8574843	3006	0	0	-100	0	230	101300000	1000	0	0	-1	0
8587403	3009	0	0	-100	0	230	101300000	1000	0	0	-1	0
8599963	3012	0	0	-100	0	230	101300000	1000	0	0	-1	0
8612523	3008	4	0	-100	0	230	101300000	1000	0	0	-1	0
8625083	3008	2	0	-100	0	230	101300000	1000	0	0	-1	0
8637643	3008	1	0	-100	0	230	101300000	1000	0	0	-1	0
8650203	3010	1	0	-100	0	230	101300000	1000	0	0	-1	0
8662763	3014	0	0	-100	0	230	101300000	1000	0	0	-1	0
8675323	3014	0	0	-100	0	230	101300000	1000	0	0	-1	0
8687883	3007	0	0	-100	0	230	101300000	1000	0	0	-1	0
8700443	3008	0	0	-100	0	230	101300000	1000	0	0	-1	0
8713004	3016	0	0	-100	0	230	101300000	1000	0	0	-1	0
8725563	3005	2	0	-100	0	230	101300000	1000	0	0	-1	0
8738123	3009	0	0	-100	0	230	101300000	1000	0	0	-1	0
8750683	3013	0	0	-100	0	230	101300000	1000	0	0	-1	0
8763243	3014	0	0	-100	0	230	101300000	1000	0	0	-1	0
8775803	3008	0	0	-100	0	230	101300000	1000	0	0	-1	0
8788363	3006	0	0	-100	0	230	101300000	1000	0	0	-1	0
8800923	3009	0	0	-100	0	230	101300000	1000	0	0	-1	0
8813483	3011	0	0	-100	0	230	101300000	1000	0	0	-1	0
8826043	3011	0	0	-100	0	230	101300000	1000	0	0	-1	0
8838603	3014	0	0	-100	0	230	101300000	1000	0	0	-1	0
8851163	3014	0	0	-100	0	230	101300000	1000	0	0	-1	0
8863723	3012	0	0	-100	0	230	101300000	1000	0	0	-1	0
8876283	3006	2	0	-100	0	230	101300000	1000	0	0	-1	0
8888843	3007	4	0	-100	0	230	101300000	1000	0	0	-1	0
8901403	3007	0	0	-100	0	230	101300000	1000	0	0	-1	0
8913963	3009	0	0	-100	0	230	101300000	1000	0	0	-1	0
8926523	3011	0	0	-100	0	230	101300000	1000	0	0	-1	0
8939083	3012	0	0	-100	0	230	101300000	1000	0	0	-1	0
8951643	3016	0	0	-100	0	230	101300000	1000	0	0	-1	0
8964203	3012	0	0	-100	0	230	101300000	1000	0	0	-1	0
8976763	3009	0	0	-100	0	230	101300000	1000	0	0	-1	0
8989323	3009	0	0	-100	0	230	101300000	1000	0	0	-1	0
9001883	3010	0	0	-100	0	230	101300000	1000	0	0	-1	0
9014443	3007	0	0	-100	0	230	101300000	1000	0	0	-1	0
9027004	3008	0	0	-100	0	230	101300000	1000	0	0	-1	0
9039563	3004	3	0	-100	0	230	101300000	1000	0	0	-1	0
9052123	3008	0	0	-100	0	230	101300000	1000	0	0	-1	0
9064683	3007	0	0	-100	0	230	101300000	1000	0	0	-1	0
9077243	3013	0	0	-100	0	230	101300000	1000	0	0	-1	0
9089803	3012	0	0	-100	0	230	101300000	1000	0	0	-1	0
9102363	3015	0	0	-100	0	230	101300000	1000	0	0	-1	0
9114923	3014	0	0	-100	0	230	101300000	1000	0	0	-1	0
9127483	3012	0	0	-100	0	230	101300000	1000	0	0	-1	0
9140043	3013	0	0	-100	0	230	101300000	1000	0	0	-1	0
9152603	3012	0	0	-100	0	230	101300000	1000	0	0	-1	0
9165163	3015	0	0	-100	0	230	101300000	1000	0	0	-1	0
9177723	3017	0	0	-100	0	230	101300000	1000	0	0	-1	0
9190283	3011	0	0	-100	0	230	101300000	1000	0	0	-1	0
9202843	3011	0	0	-100	0	230	101300000	1000	0	0	-1	0
9215403	3008	0	0	-100	0	230	101300000	1000	0	0	-1	0
9227963	3010	0	0	-100	0	230	101300000	1000	0	0	-1	0
9240523	3009	2	0	-100	0	230	101300000	1000	0	0	-1	0
9253083	3009	0	0	-100	0	230	101300000	1000	0	0	-1	0
9265643	3008	0	0	-100	0	230	101300000	1000	0	0	-1	0
9278203	3008	1	0	-100	0	230	101300000	1000	0	0	-1	0
9290763	3008	4	0	-100	0	230	101300000	1000	0	0	-1	0
9303323	3008	3	0	-100	0	230	101300000	1000	0	0	-1	0
9315883	3008	4	0	-100	0	230	101300000	1000	0	0	-1	0
9328443	3005	1	0	-100	0	230	101300000	1000	0	0	-1	0
9341004	3005	0	0	-100	0	230	101300000	1000	0	0	-1	0
9353563	3016	0	0	-100	0	230	101300000	1000	0	0	-1	0
9366123	3012	0	0	-100	0	230	101300000	1000	0	0	-1	0
9378683	3015	0	0	-100	0	230	101300000	1000	0	0	-1	0
9391243	3009	0	0	-100	0	230	101300000	1000	0	0	-1	0
9403803	3012	0	0	-100	0	230	101300000	1000	0	0	-1	0
9416363	3015	0	0	-100	0	230	101300000	1000	0	0	-1	0
9428923	3015	0	0	-100	0	230	101300000	1000	0	0	-1	0
9441483	3016	0	0	-100	0	230	101300000	1000	0	0	-1	0
9454043	3011	0	0	-100	0	230	101300000	1000	0	0	-1	0
9466603	3007	0	0	-100	0	230	101300000	1000	0	0	-1	0
9479163	3008	0	0	-100	0	230	101300000	1000	0	0	-1	0
9491723	3007	0	0	-100	0	230	101300000	1000	0	0	-1	0
9504283	3009	0	0	-100	0	230	101300000	1000	0	0	-1	0
9516843	3008	1	0	-100	0	230	101300000	1000	0	0	-1	0
9529403	3008	5	0	-100	0	230	101300000	1000	0	0	-1	0
9541963	3008	0	0	-100	0	230	101300000	1000	0	0	-1	0
9554523	3010	0	0	-100	0	230	101300000	1000	0	0	-1	0
9567083	3011	0	0	-100	0	230	101300000	1000	0	0	-1	0
9579643	3012	0	0	-100	0	230	101300000	1000	0	0	-1	0
9592203	3012	0	0	-100	0	230	101300000	1000	0	0	-1	0
9604763	3012	0	0	-100	0	230	101300000	1000	0	0	-1	0
9617323	3011	0	0	-100	0	230	101300000	1000	0	0	-1	0
9629883	3011	0	0	-100	0	230	101300000	1000	0	0	-1	0
9642443	3009	0	0	-100	0	230	101300000	1000	0	0	-1	0
9655004	3006	0	0	-100	0	230	101300000	1000	0	0	-1	0
9667563	3011	0	0	-100	0	230	101300000	1000	0	0	-1	0
9680123	3011	0	0	-100	0	230	101300000	1000	0	0	-1	0
9692683	3011	0	0	-100	0	230	101300000	1000	0	0	-1	0
9705243	3013	0	0	-100	0	230	101300000	1000	0	0	-1	0
9717803	3015	0	0	-100	0	230	101300000	1000	0	0	-1	0
9730363	3012	0	0	-100	0	230	101300000	1000	0	0	-1	0
9742923	3014	0	0	-100	0	230	101300000	1000	0	0	-1	0
9755483	3013	0	0	-100	0	230	101300000	1000	0	0	-1	0
9768043	3011	0	0	-100	0	230	101300000	1000	0	0	-1	0
9780603	3014	0	0	-100	0	230	101300000	1000	0	0	-1	0
9793163	3012	0	0	-100	0	230	101300000	1000	0	0	-1	0
9805723	3005	0	0	-100	0	230	101300000	1000	0	0	-1	0
9818283	3012	0	0	-100	0	230	101300000	1000	0	0	-1	0
9830843	3006	0	0	-100	0	230	101300000	1000	0	0	-1	0
9843403	3008	0	0	-100	0	230	101300000	1000	0	0	-1	0
9855963	3007	0	0	-100	0	230	101300000	1000	0	0	-1	0
9868523	3008	2	0	-100	0	230	101300000	1000	0	0	-1	0
9881083	3008	0	0	-100	0	230	101300000	1000	0	0	-1	0
9943883	3008	4	0	-100	0	230	101300000	1000	0	0	-1	0
9956443	3011	0	0	-100	0	230	101300000	1000	0	0	-1	0
9969004	3013	0	0	-100	0	230	101300000	1000	0	0	-1	0
9981563	3007	0	0	-100	0	230	101300000	1000	0	0	-1	0
9994123	3011	0	0	-100	0	230	101300000	1000	0	0	-1	0
10006683	3008	0	0	-100	0	230	101300000	1000	0	0	-1	0
10019243	3006	0	0	-100	0	230	101300000	1000	0	0	-1	0
10031803	3009	0	0	-100	0	230	101300000	1000	0	0	-1	0
10044363	3004	0	0	-100	0	230	101300000	1000	0	0	-1	0
10056923	3006	0	0	-100	0	230	101300000	1000	0	0	-1	0
10069483	3008	1	0	-100	0	230	101300000	1000	0	0	-1	0
10082043	3008	4	0	-100	0	230	101300000	1000	0	0	-1	0
10132283	3007	0	0	-100	0	230	101300000	1000	0	0	-1	0
10144843	3013	0	0	-100	0	230	101300000	1000	0	0	-1	0
10157403	3010	0	0	-100	0	230	101300000	1000	0	0	-1	0
10169963	3006	0	0	-100	0	230	101300000	1000	0	0	-1	0
10182523	3008	0	0	-100	0	230	101300000	1000	0	0	-1	0
10195083	3009	0	0	-100	0	230	101300000	1000	0	0	-1	0
10207643	3009	0	0	-100	0	230	101300000	1000	0	0	-1	0
10220203	3010	0	0	-100	0	230	101300000	1000	0	0	-1	0
10232763	3012	0	0	-100	0	230	101300000	1000	0	0	-1	0
10245323	3008	0	0	-100	0	230	101300000	1000	0	0	-1	0
10257883	3007	0	0	-100	0	230	101300000	1000	0	0	-1	0
10270443	3012	0	0	-100	0	230	101300000	1000	0	0	-1	0
10283004	3006	1	0	-100	0	230	101300000	1000	0	0	-1	0
10295563	3012	0	0	-100	0	230	101300000	1000	0	0	-1	0
10308123	3013	0	0	-100	0	230	101300000	1000	0	0	-1	0
10320683	3012	0	0	-100	0	230	101300000	1000	0	0	-1	0
10333243	3011	0	0	-100	0	230	101300000	1000	0	0	-1	0
10345803	3009	0	0	-100	0	230	101300000	1000	0	0	-1	0
10358363	3007	0	0	-100	0	230	101300000	1000	0	0	-1	0
10370923	3010	0	0	-100	0	230	101300000	1000	0	0	-1	0
10383483	3012	0	0	-100	0	230	101300000	1000	0	0	-1	0
10396043	3012	0	0	-100	0	230	101300000	1000	0	0	-1	0
10408603	3012	0	0	-100	0	230	101300000	1000	0	0	-1	0
10421163	3006	1	0	-100	0	230	101300000	1000	0	0	-1	0
10433723	3007	4	0	-100	0	230	101300000	1000	0	0	-1	0
10446283	3005	0	0	-100	0	230	101300000	1000	0	0	-1	0
10458843	3010	0	0	-100	0	230	101300000	1000	0	0	-1	0
10471403	3010	0	0	-100	0	230	101300000	1000	0	0	-1	0
10483963	3012	0	0	-100	0	230	101300000	1000	0	0	-1	0
10496523	3014	0	0	-100	0	230	101300000	1000	0	0	-1	0
10509083	3016	0	0	-100	0	230	101300000	1000	0	0	-1	0
10521643	3014	0	0	-100	0	230	101300000	1000	0	0	-1	0
10534203	3014	0	0	-100	0	230	101300000	1000	0	0	-1	0
10546763	3011	0	0	-100	0	230	101300000	1000	0	0	-1	0
10559323	3013	0	0	-100	0	230	101300000	1000	0	0	-1	0
10571883	3014	0	0	-100	0	230	101300000	1000	0	0	-1	0
10584443	3014	0	0	-100	0	230	101300000	1000	0	0	-1	0
10597004	3003	3	0	-100	0	230	101300000	1000	0	0	-1	0
10609563	3015	0	0	-100	0	230	101300000	1000	0	0	-1	0
10622123	3012	0	0	-100	0	230	101300000	1000	0	0	-1	0
10634683	3008	0	0	-100	0	230	101300000	1000	0	0	-1	0
10647243	3008	0	0	-100	0	230	101300000	1000	0	0	-1	0
10659803	3008	4	0	-100	0	230	101300000	1000	0	0	-1	0
10672363	3006	4	0	-100	0	230	101300000	1000	0	0	-1	0
10684923	3007	4	0	-100	0	230	101300000	1000	0	0	-1	0
10697483	3008	4	0	-100	0	230	101300000	1000	0	0	-1	0
10710043	3010	4	0	-100	0	230	101300000	1000	0	0	-1	0
10722603	3008	3	0	-100	0	230	101300000	1000	0	0	-1	0
10735163	3007	4	0	-100	0	230	101300000	1000	0	0	-1	0
10747723	3010	3	0	-100	0	230	101300000	1000	0	0	-1	0
10760283	3008	0	0	-100	0	230	101300000	1000	0	0	-1	0
10772843	3007	0	0	-100	0	230	101300000	1000	0	0	-1	0
10785403	3008	0	0	-100	0	230	101300000	1000	0	0	-1	0
10797963	3009	0	0	-100	0	230	101300000	1000	0	0	-1	0
10810523	3010	0	0	-100	0	230	101300000	1000	0	0	-1	0
10823083	3012	0	0	-100	0	230	101300000	1000	0	0	-1	0
10835643	3013	0	0	-100	0	230	101300000	1000	0	0	-1	0
10848203	3012	0	0	-100	0	230	101300000	1000	0	0	-1	0
10860763	3017	0	0	-100	0	230	101300000	1000	0	0	-1	0
10873323	3011	0	0	-100	0	230	101300000	1000	0	0	-1	0
10885883	3005	1	0	-100	0	230	101300000	1000	0	0	-1	0
10898443	3008	3	0	-100	0	230	101300000	1000	0	0	-1	0
10911004	3012	0	0	-100	0	230	101300000	1000	0	0	-1	0
10923563	3008	0	0	-100	0	230	101300000	1000	0	0	-1	0
10936123	3014	0	0	-100	0	230	101300000	1000	0	0	-1	0
10948683	3013	0	0	-100	0	230	101300000	1000	0	0	-1	0
10961243	3007	0	0	-100	0	230	101300000	1000	0	0	-1	0
10973803	3008	3	0	-100	0	230	101300000	1000	0	0	-1	0
10986363	3006	0	0	-100	0	230	101300000	1000	0	0	-1	0
10998923	3012	0	0	-100	0	230	101300000	1000	0	0	-1	0
11011483	3014	0	0	-100	0	230	101300000	1000	0	0	-1	0
11024043	3015	0	0	-100	0	230	101300000	1000	0	0	-1	0
11036603	3007	1	0	-100	0	230	101300000	1000	0	0	-1	0
11049163	3004	2	0	-100	0	230	101300000	1000	0	0	-1	0
11061723	3006	1	0	-100	0	230	101300000	1000	0	0	-1	0
11074283	3008	0	0	-100	0	230	101300000	1000	0	0	-1	0
11086843	3008	2	0	-100	0	230	101300000	1000	0	0	-1	0
11099403	3008	4	0	-100	0	230	101300000	1000	0	0	-1	0
11111963	3008	3	0	-100	0	230	101300000	1000	0	0	-1	0
11124523	3009	0	0	-100	0	230	101300000	1000	0	0	-1	0
11137083	3008	0	0	-100	0	230	101300000	1000	0	0	-1	0
11149643	3008	0	0	-100	0	230	101300000	1000	0	0	-1	0
11162203	3008	0	0	-100	0	230	101300000	1000	0	0	-1	0
11174763	3008	0	0	-100	0	230	101300000	1000	0	0	-1	0
11187323	3008	0	0	-100	0	230	101300000	1000	0	0	-1	0
11199883	3008	0	0	-100	0	230	101300000	1000	0	0	-1	0
11212443	3006	0	0	-100	0	230	101300000	1000	0	0	-1	0
11225004	3011	0	0	-100	0	230	101300000	1000	0	0	-1	0
11237563	3011	4	0	-100	0	230	101300000	1000	0	0	-1	0
11250123	3007	3	0	-100	0	230	101300000	1000	0	0	-1	0
11262683	3004	3	0	-100	0	230	101300000	1000	0	0	-1	0
11275243	3007	4	0	-100	0	230	101300000	1000	0	0	-1	0
11287803	3006	4	0	-100	0	230	101300000	1000	0	0	-1	0
11300363	3009	4	0	-100	0	230	101300000	1000	0	0	-1	0
11312923	3008	3	0	-100	0	230	101300000	1000	0	0	-1	0
11325483	3010	4	0	-100	0	230	101300000	1000	0	0	-1	0
11338043	3007	4	0	-100	0	230	101300000	1000	0	0	-1	0
11350603	3007	3	0	-100	0	230	101300000	1000	0	0	-1	0
11363163	3008	4	0	-100	0	230	101300000	1000	0	0	-1	0
11375723	3009	4	0	-100	0	230	101300000	1000	0	0	-1	0
11388283	3005	0	0	-100	0	230	101300000	1000	0	0	-1	0
11400843	3005	0	0	-100	0	230	101300000	1000	0	0	-1	0
11413403	3009	0	0	-100	0	230	101300000	1000	0	0	-1	0
11425963	3009	0	0	-100	0	230	101300000	1000	0	0	-1	0
11438523	3010	0	0	-100	0	230	101300000	1000	0	0	-1	0
11451083	3015	0	0	-100	0	230	101300000	1000	0	0	-1	0
11463643	3017	0	0	-100	0	230	101300000	1000	0	0	-1	0
11476203	3008	0	0	-100	0	230	101300000	1000	0	0	-1	0
11488763	3008	0	0	-100	0	230	101300000	1000	0	0	-1	0
11501323	3007	2	0	-100	0	230	101300000	1000	0	0	-1	0
11513883	3007	3	0	-100	0	230	101300000	1000	0	0	-1	0
11526443	3008	3	0	-100	0	230	101300000	1000	0	0	-1	0
11539004	3012	0	0	-100	0	230	101300000	1000	0	0	-1	0
11551563	3008	4	0	-100	0	230	101300000	1000	0	0	-1	0
11564123	3009	1	0	-100	0	230	101300000	1000	0	0	-1	0
11576683	3008	0	0	-100	0	230	101300000	1000	0	0	-1	0
11589243	3008	0	0	-100	0	230	101300000	1000	0	0	-1	0
11601803	3009	0	0	-100	0	230	101300000	1000	0	0	-1	0
11614363	3008	0	0	-100	0	230	101300000	1000	0	0	-1	0
11626923	3008	0	0	-100	0	230	101300000	1000	0	0	-1	0
11639483	3008	0	0	-100	0	230	101300000	1000	0	0	-1	0
11652043	3009	0	0	-100	0	230	101300000	1000	0	0	-1	0
11664603	3014	0	0	-100	0	230	101300000	1000	0	0	-1	0
11677163	3011	0	0	-100	0	230	101300000	1000	0	0	-1	0
11689723	3012	0	0	-100	0	230	101300000	1000	0	0	-1	0
11702283	3010	0	0	-100	0	230	101300000	1000	0	0	-1	0
11714843	3011	0	0	-100	0	230	101300000	1000	0	0	-1	0
11727403	3011	0	0	-100	0	230	101300000	1000	0	0	-1	0
11739963	3011	0	0	-100	0	230	101300000	1000	0	0	-1	0
11752523	3015	0	0	-100	0	230	101300000	1000	0	0	-1	0
11765083	3013	0	0	-100	0	230	101300000	1000	0	0	-1	0
11777643	3009	0	0	-100	0	230	101300000	1000	0	0	-1	0
11790203	3008	0	0	-100	0	230	101300000	1000	0	0	-1	0
11802763	3007	0	0	-100	0	230	101300000	1000	0	0	-1	0
11815323	3008	1	0	-100	0	230	101300000	1000	0	0	-1	0
11827883	3008	3	0	-100	0	230	101300000	1000	0	0	-1	0
11840443	3008	4	0	-100	0	230	101300000	1000	0	0	-1	0
11853004	3015	0	0	-100	0	230	101300000	1000	0	0	-1	0
11865563	3008	0	0	-100	0	230	101300000	1000	0	0	-1	0
11878123	3009	0	0	-100	0	230	101300000	1000	0	0	-1	0
11890683	3008	0	0	-100	0	230	101300000	1000	0	0	-1	0
11903243	3008	0	0	-100	0	230	101300000	1000	0	0	-1	0
11915803	3008	0	0	-100	0	230	101300000	1000	0	0	-1	0
11928363	3008	0	0	-100	0	230	101300000	1000	0	0	-1	0
11940923	3012	0	0	-100	0	230	101300000	1000	0	0	-1	0
11953483	3013	0	0	-100	0	230	101300000	1000	0	0	-1	0
11966043	3015	0	0	-100	0	230	101300000	1000	0	0	-1	0
11978603	3014	0	0	-100	0	230	101300000	1000	0	0	-1	0
11991163	3012	0	0	-100	0	230	101300000	1000	0	0	-1	0
12003723	3011	0	0	-100	0	230	101300000	1000	0	0	-1	0
12016283	3008	0	0	-100	0	230	101300000	1000	0	0	-1	0
12028843	3008	0	0	-100	0	230	101300000	1000	0	0	-1	0
12041403	3008	0	0	-100	0	230	101300000	1000	0	0	-1	0
12053963	3013	0	0	-100	0	230	101300000	1000	0	0	-1	0
12066523	3014	0	0	-100	0	230	101300000	1000	0	0	-1	0
12079083	3014	0	0	-100	0	230	101300000	1000	0	0	-1	0
12091643	3013	0	0	-100	0	230	101300000	1000	0	0	-1	0
12104203	3012	0	0	-100	0	230	101300000	1000	0	0	-1	0
12116763	3012	0	0	-100	0	230	101300000	1000	0	0	-1	0
12129323	3012	0	0	-100	0	230	101300000	1000	0	0	-1	0
12141883	3008	0	0	-100	0	230	101300000	1000	0	0	-1	0
12154443	3007	0	0	-100	0	230	101300000	1000	0	0	-1	0
12167004	3013	0	0	-100	0	230	101300000	1000	0	0	-1	0
12179563	3009	0	0	-100	0	230	101300000	1000	0	0	-1	0
12192123	3008	0	0	-100	0	230	101300000	1000	0	0	-1	0
12204683	3009	2	0	-100	0	230	101300000	1000	0	0	-1	0
12217243	3008	3	0	-100	0	230	101300000	1000	0	0	-1	0
12229803	3007	4	0	-100	0	230	101300000	1000	0	0	-1	0
12242363	3008	2	0	-100	0	230	101300000	1000	0	0	-1	0
12254923	3009	4	0	-100	0	230	101300000	1000	0	0	-1	0
12267483	3009	4	0	-100	0	230	101300000	1000	0	0	-1	0
12280043	3007	4	0	-100	0	230	101300000	1000	0	0	-1	0
12292603	3006	4	0	-100	0	230	101300000	1000	0	0	-1	0
12305163	3008	4	0	-100	0	230	101300000	1000	0	0	-1	0
12317723	3007	1	0	-100	0	230	101300000	1000	0	0	-1	0
12330283	3008	0	0	-100	0	230	101300000	1000	0	0	-1	0
12342843	3010	0	0	-100	0	230	101300000	1000	0	0	-1	0
12355403	3013	0	0	-100	0	230	101300000	1000	0	0	-1	0
12367963	3010	0	0	-100	0	230	101300000	1000	0	0	-1	0
12380523	3013	0	0	-100	0	230	101300000	1000	0	0	-1	0
12393083	3014	0	0	-100	0	230	101300000	1000	0	0	-1	0
12405643	3015	0	0	-100	0	230	101300000	1000	0	0	-1	0
12418203	3011	0	0	-100	0	230	101300000	1000	0	0	-1	0
12430763	3010	0	0	-100	0	230	101300000	1000	0	0	-1	0
12443323	3012	0	0	-100	0	230	101300000	1000	0	0	-1	0
12455883	3011	0	0	-100	0	230	101300000	1000	0	0	-1	0
12468443	3006	0	0	-100	0	230	101300000	1000	0	0	-1	0
12481004	3012	0	0	-100	0	230	101300000	1000	0	0	-1	0
12493563	3008	3	0	-100	0	230	101300000	1000	0	0	-1	0
12506123	3008	3	0	-100	0	230	101300000	1000	0	0	-1	0
12518683	3007	2	0	-100	0	230	101300000	1000	0	0	-1	0
12531243	3006	1	0	-100	0	230	101300000	1000	0	0	-1	0
12543803	3008	2	0	-100	0	230	101300000	1000	0	0	-1	0
12556363	3006	2	0	-100	0	230	101300000	1000	0	0	-1	0
12568923	3008	0	0	-100	0	230	101300000	1000	0	0	-1	0
12581483	3008	0	0	-100	0	230	101300000	1000	0	0	-1	0
12594043	3008	0	0	-100	0	230	101300000	1000	0	0	-1	0
12606603	3008	0	0	-100	0	230	101300000	1000	0	0	-1	0
12619163	3008	0	0	-100	0	230	101300000	1000	0	0	-1	0
12631723	3008	1	0	-100	0	230	101300000	1000	0	0	-1	0
12644283	3010	0	0	-100	0	230	101300000	1000	0	0	-1	0
12656843	3011	0	0	-100	0	230	101300000	1000	0	0	-1	0
12669403	3010	0	0	-100	0	230	101300000	1000	0	0	-1	0
12681963	3007	2	0	-100	0	230	101300000	1000	0	0	-1	0
12694523	3008	2	0	-100	0	230	101300000	1000	0	0	-1	0
12707083	3006	4	0	-100	0	230	101300000	1000	0	0	-1	0
12719643	3008	3	0	-100	0	230	101300000	1000	0	0	-1	0
12732203	3007	3	0	-100	0	230	101300000	1000	0	0	-1	0
12744763	3012	4	0	-100	0	230	101300000	1000	0	0	-1	0
12757323	3008	0	0	-100	0	230	101300000	1000	0	0	-1	0
12769883	3008	0	0	-100	0	230	101300000	1000	0	0	-1	0
12782443	3009	0	0	-100	0	230	101300000	1000	0	0	-1	0
12795004	3012	0	0	-100	0	230	101300000	1000	0	0	-1	0
12807563	3006	0	0	-100	0	230	101300000	1000	0	0	-1	0
12845243	3004	0	0	-100	0	230	101300000	1000	0	0	-1	0
12857803	3005	0	0	-100	0	230	101300000	1000	0	0	-1	0
12870363	3006	0	0	-100	0	230	101300000	1000	0	0	-1	0
12882923	3008	0	0	-100	0	230	101300000	1000	0	0	-1	0
12895483	3009	0	0	-100	0	230	101300000	1000	0	0	-1	0
12908043	3007	0	0	-100	0	230	101300000	1000	0	0	-1	0
12920603	3009	0	0	-100	0	230	101300000	1000	0	0	-1	0
12933163	3007	0	0	-100	0	230	101300000	1000	0	0	-1	0
12945723	3011	0	0	-100	0	230	101300000	1000	0	0	-1	0
12958283	3009	0	0	-100	0	230	101300000	1000	0	0	-1	0
12970843	3011	0	0	-100	0	230	101300000	1000	0	0	-1	0
12983403	3013	0	0	-100	0	230	101300000	1000	0	0	-1	0
13058763	3010	0	0	-100	0	230	101300000	1000	0	0	-1	0
13071323	3011	0	0	-100	0	230	101300000	1000	0	0	-1	0
13083883	3012	0	0	-100	0	230	101300000	1000	0	0	-1	0
13096443	3015	0	0	-100	0	230	101300000	1000	0	0	-1	0
13109004	3004	4	0	-100	0	230	101300000	1000	0	0	-1	0
13121563	3014	0	0	-100	0	230	101300000	1000	0	0	-1	0
13134123	3009	1	0	-100	0	230	101300000	1000	0	0	-1	0
13146683	3007	2	0	-100	0	230	101300000	1000	0	0	-1	0
13159243	3007	3	0	-100	0	230	101300000	1000	0	0	-1	0
13171803	3006	1	0	-100	0	230	101300000	1000	0	0	-1	0
13184363	3004	1	0	-100	0	230	101300000	1000	0	0	-1	0
13196923	3007	3	0	-100	0	230	101300000	1000	0	0	-1	0
13222043	3006	0	0	-100	0	230	101300000	1000	0	0	-1	0
13234603	3007	0	0	-100	0	230	101300000	1000	0	0	-1	0
13247163	3008	0	0	-100	0	230	101300000	1000	0	0	-1	0
13259723	3012	0	0	-100	0	230	101300000	1000	0	0	-1	0
13272283	3012	0	0	-100	0	230	101300000	1000	0	0	-1	0
13284843	3011	0	0	-100	0	230	101300000	1000	0	0	-1	0
13297403	3010	0	0	-100	0	230	101300000	1000	0	0	-1	0
13309963	3007	0	0	-100	0	230	101300000	1000	0	0	-1	0
13322523	3008	3	0	-100	0	230	101300000	1000	0	0	-1	0
13335083	3006	0	0	-100	0	230	101300000	1000	0	0	-1	0
13347643	3006	0	0	-100	0	230	101300000	1000	0	0	-1	0
13360203	3005	0	0	-100	0	230	101300000	1000	0	0	-1	0
13372763	3011	0	0	-100	0	230	101300000	1000	0	0	-1	0
13385323	3007	0	0	-100	0	230	101300000	1000	0	0	-1	0
13397883	3010	0	0	-100	0	230	101300000	1000	0	0	-1	0
13410443	3009	0	0	-100	0	230	101300000	1000	0	0	-1	0
13423004	3012	0	0	-100	0	230	101300000	1000	0	0	-1	0
13435563	3007	3	0	-100	0	230	101300000	1000	0	0	-1	0
13448123	3007	4	0	-100	0	230	101300000	1000	0	0	-1	0
13460683	3007	4	0	-100	0	230	101300000	1000	0	0	-1	0
13473243	3008	1	0	-100	0	230	101300000	1000	0	0	-1	0
13485803	3008	0	0	-100	0	230	101300000	1000	0	0	-1	0
13498363	3004	0	0	-100	0	230	101300000	1000	0	0	-1	0
13510923	3008	0	0	-100	0	230	101300000	1000	0	0	-1	0
13523483	3009	0	0	-100	0	230	101300000	1000	0	0	-1	0
13536043	3013	0	0	-100	0	230	101300000	1000	0	0	-1	0
13548603	3013	0	0	-100	0	230	101300000	1000	0	0	-1	0
13561163	3015	0	0	-100	0	230	101300000	1000	0	0	-1	0
13573723	3014	0	0	-100	0	230	101300000	1000	0	0	-1	0
13586283	3013	0	0	-100	0	230	101300000	1000	0	0	-1	0
13598843	3012	0	0	-100	0	230	101300000	1000	0	0	-1	0
13611403	3010	0	0	-100	0	230	101300000	1000	0	0	-1	0
13623963	3008	3	0	-100	0	230	101300000	1000	0	0	-1	0
13636523	3008	3	0	-100	0	230	101300000	1000	0	0	-1	0
13649083	3008	3	0	-100	0	230	101300000	1000	0	0	-1	0
13661643	3007	0	0	-100	0	230	101300000	1000	0	0	-1	0
13674203	3007	0	0	-100	0	230	101300000	1000	0	0	-1	0
13686763	3006	4	0	-100	0	230	101300000	1000	0	0	-1	0
13699323	3007	4	0	-100	0	230	101300000	1000	0	0	-1	0
13711883	3006	0	0	-100	0	230	101300000	1000	0	0	-1	0
13724443	3011	0	0	-100	0	230	101300000	1000	0	0	-1	0
13737004	3008	4	0	-100	0	230	101300000	1000	0	0	-1	0
13749563	3008	2	0	-100	0	230	101300000	1000	0	0	-1	0
13762123	3007	0	0	-100	0	230	101300000	1000	0	0	-1	0
13774683	3011	0	0	-100	0	230	101300000	1000	0	0	-1	0
13787243	3014	0	0	-100	0	230	101300000	1000	0	0	-1	0
13799803	3013	0	0	-100	0	230	101300000	1000	0	0	-1	0
13812363	3008	0	0	-100	0	230	101300000	1000	0	0	-1	0
13824923	3008	2	0	-100	0	230	101300000	1000	0	0	-1	0
13837483	3008	4	0	-100	0	230	101300000	1000	0	0	-1	0
13850043	3005	0	0	-100	0	230	101300000	1000	0	0	-1	0
13862603	3008	0	0	-100	0	230	101300000	1000	0	0	-1	0
13875163	3009	0	0	-100	0	230	101300000	1000	0	0	-1	0
13887723	3014	0	0	-100	0	230	101300000	1000	0	0	-1	0
13900283	3014	0	0	-100	0	230	101300000	1000	0	0	-1	0
13912843	3014	0	0	-100	0	230	101300000	1000	0	0	-1	0
13925403	3007	0	0	-100	0	230	101300000	1000	0	0	-1	0
13937963	3007	3	0	-100	0	230	101300000	1000	0	0	-1	0
13950523	3007	0	0	-100	0	230	101300000	1000	0	0	-1	0
13963083	3011	0	0	-100	0	230	101300000	1000	0	0	-1	0
13975643	3012	0	0	-100	0	230	101300000	1000	0	0	-1	0
13988203	3009	0	0	-100	0	230	101300000	1000	0	0	-1	0
14000763	3008	4	0	-100	0	230	101300000	1000	0	0	-1	0
14013323	3009	0	0	-100	0	230	101300000	1000	0	0	-1	0
14025883	3004	0	0	-100	0	230	101300000	1000	0	0	-1	0
14038443	3007	0	0	-100	0	230	101300000	1000	0	0	-1	0
14051004	3005	0	0	-100	0	230	101300000	1000	0	0	-1	0
14063563	3013	0	0	-100	0	230	101300000	1000	0	0	-1	0
14076123	3012	0	0	-100	0	230	101300000	1000	0	0	-1	0
14088683	3008	3	0	-100	0	230	101300000	1000	0	0	-1	0
14101243	3008	0	0	-100	0	230	101300000	1000	0	0	-1	0
14113803	3011	0	0	-100	0	230	101300000	1000	0	0	-1	0
14126363	3013	0	0	-100	0	230	101300000	1000	0	0	-1	0
14138923	3015	0	0	-100	0	230	101300000	1000	0	0	-1	0
14151483	3010	0	0	-100	0	230	101300000	1000	0	0	-1	0
14164043	3008	1	0	-100	0	230	101300000	1000	0	0	-1	0
14176603	3010	3	0	-100	0	230	101300000	1000	0	0	-1	0
14189163	3008	0	0	-100	0	230	101300000	1000	0	0	-1	0
14201723	3009	0	0	-100	0	230	101300000	1000	0	0	-1	0
14214283	3012	0	0	-100	0	230	101300000	1000	0	0	-1	0
14226843	3009	0	0	-100	0	230	101300000	1000	0	0	-1	0
14239403	3013	0	0	-100	0	230	101300000	1000	0	0	-1	0
14251963	3018	0	0	-100	0	230	101300000	1000	0	0	-1	0
14264523	3006	2	0	-100	0	230	101300000	1000	0	0	-1	0
14277083	3010	4	0	-100	0	230	101300000	1000	0	0	-1	0
14289643	3004	0	0	-100	0	230	101300000	1000	0	0	-1	0
14302203	3009	0	0	-100	0	230	101300000	1000	0	0	-1	0
14314763	3014	0	0	-100	0	230	101300000	1000	0	0	-1	0
14327323	3012	0	0	-100	0	230	101300000	1000	0	0	-1	0
14339883	3008	0	0	-100	0	230	101300000	1000	0	0	-1	0
14352443	3007	3	0	-100	0	230	101300000	1000	0	0	-1	0
14365004	3010	0	0	-100	0	230	101300000	1000	0	0	-1	0
14377563	3010	4	0	-100	0	230	101300000	1000	0	0	-1	0
14390123	3009	0	0	-100	0	230	101300000	1000	0	0	-1	0
14402683	3008	0	0	-100	0	230	101300000	1000	0	0	-1	0
14415243	3011	0	0	-100	0	230	101300000	1000	0	0	-1	0
14427803	3013	0	0	-100	0	230	101300000	1000	0	0	-1	0
14440363	3013	0	0	-100	0	230	101300000	1000	0	0	-1	0
14452923	3008	1	0	-100	0	230	101300000	1000	0	0	-1	0
14465483	3008	2	0	-100	0	230	101300000	1000	0	0	-1	0
14478043	3005	4	0	-100	0	230	101300000	1000	0	0	-1	0
14490603	3007	3	0	-100	0	230	101300000	1000	0	0	-1	0
14503163	3008	4	0	-100	0	230	101300000	1000	0	0	-1	0
14515723	3008	3	0	-100	0	230	101300000	1000	0	0	-1	0
14528283	3008	4	0	-100	0	230	101300000	1000	0	0	-1	0
14540843	3008	0	0	-100	0	230	101300000	1000	0	0	-1	0
14553403	3008	0	0	-100	0	230	101300000	1000	0	0	-1	0
14565963	3010	0	0	-100	0	230	101300000	1000	0	0	-1	0
14578523	3012	0	0	-100	0	230	101300000	1000	0	0	-1	0
14591083	3013	0	0	-100	0	230	101300000	1000	0	0	-1	0
14603643	3016	0	0	-100	0	230	101300000	1000	0	0	-1	0
14616203	3012	0	0	-100	0	230	101300000	1000	0	0	-1	0
14628763	3015	0	0	-100	0	230	101300000	1000	0	0	-1	0
14641323	3010	0	0	-100	0	230	101300000	1000	0	0	-1	0
14653883	3008	2	0	-100	0	230	101300000	1000	0	0	-1	0
14666443	3009	3	0	-100	0	230	101300000	1000	0	0	-1	0
14679004	3014	0	0	-100	0	230	101300000	1000	0	0	-1	0
14691563	3009	0	0	-100	0	230	101300000	1000	0	0	-1	0
14704123	3013	0	0	-100	0	230	101300000	1000	0	0	-1	0
14716683	3013	0	0	-100	0	230	101300000	1000	0	0	-1	0
14729243	3015	0	0	-100	0	230	101300000	1000	0	0	-1	0
14741803	3015	0	0	-100	0	230	101300000	1000	0	0	-1	0
14754363	3008	0	0	-100	0	230	101300000	1000	0	0	-1	0
14766923	3007	2	0	-100	0	230	101300000	1000	0	0	-1	0
14779483	3006	3	0	-100	0	230	101300000	1000	0	0	-1	0
14792043	3008	2	0	-100	0	230	101300000	1000	0	0	-1	0
14804603	3008	4	0	-100	0	230	101300000	1000	0	0	-1	0
14817163	3009	1	0	-100	0	230	101300000	1000	0	0	-1	0
14829723	3005	0	0	-100	0	230	101300000	1000	0	0	-1	0
14842283	3007	0	0	-100	0	230	101300000	1000	0	0	-1	0
14854843	3009	0	0	-100	0	230	101300000	1000	0	0	-1	0
14867403	3013	0	0	-100	0	230	101300000	1000	0	0	-1	0
14879963	3012	0	0	-100	0	230	101300000	1000	0	0	-1	0
14892523	3012	0	0	-100	0	230	101300000	1000	0	0	-1	0
14905083	3013	0	0	-100	0	230	101300000	1000	0	0	-1	0
14917643	3016	0	0	-100	0	230	101300000	1000	0	0	-1	0
14930203	3008	1	0	-100	0	230	101300000	1000	0	0	-1	0
14942763	3010	3	0	-100	0	230	101300000	1000	0	0	-1	0
14955323	3010	0	0	-100	0	230	101300000	1000	0	0	-1	0
14967883	3008	0	0	-100	0	230	101300000	1000	0	0	-1	0
14980443	3006	2	0	-100	0	230	101300000	1000	0	0	-1	0
14993004	3008	0	0	-100	0	230	101300000	1000	0	0	-1	0
15005563	3005	0	0	-100	0	230	101300000	1000	0	0	-1	0
15018123	3017	0	0	-100	0	230	101300000	1000	0	0	-1	0
15030683	3015	0	0	-100	0	230	101300000	1000	0	0	-1	0
15043243	3009	0	0	-100	0	230	101300000	1000	0	0	-1	0
15055803	3006	0	0	-100	0	230	101300000	1000	0	0	-1	0
15068363	3006	0	0	-100	0	230	101300000	1000	0	0	-1	0
15080923	3004	0	0	-100	0	230	101300000	1000	0	0	-1	0
15093483	3007	4	0	-100	0	230	101300000	1000	0	0	-1	0
15106043	3005	3	0	-100	0	230	101300000	1000	0	0	-1	0
15118603	3010	0	0	-100	0	230	101300000	1000	0	0	-1	0
15131163	3016	0	0	-100	0	230	101300000	1000	0	0	-1	0
15143723	3012	0	0	-100	0	230	101300000	1000	0	0	-1	0
15156283	3006	0	0	-100	0	230	101300000	1000	0	0	-1	0
15168843	3010	4	0	-100	0	230	101300000	1000	0	0	-1	0
15181403	3008	2	0	-100	0	230	101300000	1000	0	0	-1	0
15193963	3008	0	0	-100	0	230	101300000	1000	0	0	-1	0
15206523	3014	0	0	-100	0	230	101300000	1000	0	0	-1	0
15219083	3015	0	0	-100	0	230	101300000	1000	0	0	-1	0
15231643	3009	0	0	-100	0	230	101300000	1000	0	0	-1	0
15244203	3007	0	0	-100	0	230	101300000	1000	0	0	-1	0
15256763	3007	3	0	-100	0	230	101300000	1000	0	0	-1	0
15269323	3006	0	0	-100	0	230	101300000	1000	0	0	-1	0
15281883	3008	0	0	-100	0	230	101300000	1000	0	0	-1	0
15294443	3016	0	0	-100	0	230	101300000	1000	0	0	-1	0
15307004	3002	3	0	-100	0	230	101300000	1000	0	0	-1	0
15319563	3014	0	0	-100	0	230	101300000	1000	0	0	-1	0
15332123	3013	0	0	-100	0	230	101300000	1000	0	0	-1	0
15344683	3014	0	0	-100	0	230	101300000	1000	0	0	-1	0
15357243	3013	0	0	-100	0	230	101300000	1000	0	0	-1	0
15369803	3010	0	0	-100	0	230	101300000	1000	0	0	-1	0
15382363	3008	0	0	-100	0	230	101300000	1000	0	0	-1	0
15394923	3008	4	0	-100	0	230	101300000	1000	0	0	-1	0
15407483	3006	1	0	-100	0	230	101300000	1000	0	0	-1	0
15420043	3013	0	0	-100	0	230	101300000	1000	0	0	-1	0
15432603	3012	0	0	-100	0	230	101300000	1000	0	0	-1	0
15445163	3008	0	0	-100	0	230	101300000	1000	0	0	-1	0
15457723	3006	1	0	-100	0	230	101300000	1000	0	0	-1	0
15470283	3013	0	0	-100	0	230	101300000	1000	0	0	-1	0
15482843	3010	0	0	-100	0	230	101300000	1000	0	0	-1	0
15495403	3006	0	0	-100	0	230	101300000	1000	0	0	-1	0
15507963	3009	0	0	-100	0	230	101300000	1000	0	0	-1	0
15520523	3006	0	0	-100	0	230	101300000	1000	0	0	-1	0
15533083	3009	0	0	-100	0	230	101300000	1000	0	0	-1	0
15545643	3011	0	0	-100	0	230	101300000	1000	0	0	-1	0
15558203	3006	0	0	-100	0	230	101300000	1000	0	0	-1	0
15570763	3010	0	0	-100	0	230	101300000	1000	0	0	-1	0
15583323	3006	0	0	-100	0	230	101300000	1000	0	0	-1	0
15595883	3009	0	0	-100	0	230	101300000	1000	0	0	-1	0
15608443	3008	4	0	-100	0	230	101300000	1000	0	0	-1	0
15621004	3013	0	0	-100	0	230	101300000	1000	0	0	-1	0
15633563	3008	0	0	-100	0	230	101300000	1000	0	0	-1	0
15646123	3017	0	0	-100	0	230	101300000	1000	0	0	-1	0
15658683	3013	0	0	-100	0	230	101300000	1000	0	0	-1	0
15671243	3014	0	0	-100	0	230	101300000	1000	0	0	-1	0
15683803	3012	0	0	-100	0	230	101300000	1000	0	0	-1	0
15696363	3009	0	0	-100	0	230	101300000	1000	0	0	-1	0
15708923	3008	3	0	-100	0	230	101300000	1000	0	0	-1	0
15721483	3008	3	0	-100	0	230	101300000	1000	0	0	-1	0
15734043	3011	0	0	-100	0	230	101300000	1000	0	0	-1	0
15746603	3013	0	0	-100	0	230	101300000	1000	0	0	-1	0
15759163	3012	0	0	-100	0	230	101300000	1000	0	0	-1	0
15771723	3006	0	0	-100	0	230	101300000	1000	0	0	-1	0
15784283	3007	4	0	-100	0	230	101300000	1000	0	0	-1	0
15796843	3008	0	0	-100	0	230	101300000	1000	0	0	-1	0
15809403	3007	0	0	-100	0	230	101300000	1000	0	0	-1	0
15821963	3016	0	0	-100	0	230	101300000	1000	0	0	-1	0
15834523	3007	0	0	-100	0	230	101300000	1000	0	0	-1	0
15847083	3008	1	0	-100	0	230	101300000	1000	0	0	-1	0
15859643	3004	0	0	-100	0	230	101300000	1000	0	0	-1	0
15872203	3015	0	0	-100	0	230	101300000	1000	0	0	-1	0
15884763	3013	0	0	-100	0	230	101300000	1000	0	0	-1	0
15897323	3008	0	0	-100	0	230	101300000	1000	0	0	-1	0
15947563	3008	0	0	-100	0	230	101300000	1000	0	0	-1	0
15960123	3008	0	0	-100	0	230	101300000	1000	0	0	-1	0
15972683	3008	4	0	-100	0	230	101300000	1000	0	0	-1	0
15985243	3007	1	0	-100	0	230	101300000	1000	0	0	-1	0
15997803	3016	0	0	-100	0	230	101300000	1000	0	0	-1	0
16010363	3013	0	0	-100	0	230	101300000	1000	0	0	-1	0
16022923	3011	0	0	-100	0	230	101300000	1000	0	0	-1	0
16035483	3008	0	0	-100	0	230	101300000	1000	0	0	-1	0
16048043	3007	3	0	-100	0	230	101300000	1000	0	0	-1	0
16060603	3008	0	0	-100	0	230	101300000	1000	0	0	-1	0
16073163	3018	0	0	-100	0	230	101300000	1000	0	0	-1	0
16085723	3012	0	0	-100	0	230	101300000	1000	0	0	-1	0
16135963	3010	2	0	-100	0	230	101300000	1000	0	0	-1	0
16148523	3006	3	0	-100	0	230	101300000	1000	0	0	-1	0
16161083	3007	2	0	-100	0	230	101300000	1000	0	0	-1	0
16173643	3011	0	0	-100	0	230	101300000	1000	0	0	-1	0
16186203	3011	0	0	-100	0	230	101300000	1000	0	0	-1	0
16198763	3010	0	0	-100	0	230	101300000	1000	0	0	-1	0
16211323	3010	0	0	-100	0	230	101300000	1000	0	0	-1	0
16223883	3012	0	0	-100	0	230	101300000	1000	0	0	-1	0
16236443	3015	0	0	-100	0	230	101300000	1000	0	0	-1	0
16249004	3007	3	0	-100	0	230	101300000	1000	0	0	-1	0
16261563	3012	0	0	-100	0	230	101300000	1000	0	0	-1	0
16274123	3013	0	0	-100	0	230	101300000	1000	0	0	-1	0
16286683	3014	0	0	-100	0	230	101300000	1000	0	0	-1	0
16299243	3012	0	0	-100	0	230	101300000	1000	0	0	-1	0
16311803	3008	0	0	-100	0	230	101300000	1000	0	0	-1	0
16324363	3006	0	0	-100	0	230	101300000	1000	0	0	-1	0
16336923	3010	0	0	-100	0	230	101300000	1000	0	0	-1	0
16349483	3008	1	0	-100	0	230	101300000	1000	0	0	-1	0
16362043	3012	0	0	-100	0	230	101300000	1000	0	0	-1	0
16374603	3013	0	0	-100	0	230	101300000	1000	0	0	-1	0
16387163	3012	0	0	-100	0	230	101300000	1000	0	0	-1	0
16399723	3009	0	0	-100	0	230	101300000	1000	0	0	-1	0
16412283	3009	0	0	-100	0	230	101300000	1000	0	0	-1	0
16424843	3008	3	0	-100	0	230	101300000	1000	0	0	-1	0
16437403	3007	0	0	-100	0	230	101300000	1000	0	0	-1	0
16449963	3017	0	0	-100	0	230	101300000	1000	0	0	-1	0
16462523	3013	0	0	-100	0	230	101300000	1000	0	0	-1	0
16475083	3016	0	0	-100	0	230	101300000	1000	0	0	-1	0
16487643	3012	0	0	-100	0	230	101300000	1000	0	0	-1	0
16500203	3006	0	0	-100	0	230	101300000	1000	0	0	-1	0
16512763	3008	0	0	-100	0	230	101300000	1000	0	0	-1	0
16525323	3008	3	0	-100	0	230	101300000	1000	0	0	-1	0
16537883	3008	1	0	-100	0	230	101300000	1000	0	0	-1	0
16550443	3017	0	0	-100	0	230	101300000	1000	0	0	-1	0
16563004	3004	1	0	-100	0	230	101300000	1000	0	0	-1	0
16575563	3008	0	0	-100	0	230	101300000	1000	0	0	-1	0
16588123	3008	0	0	-100	0	230	101300000	1000	0	0	-1	0
16600683	3006	0	0	-100	0	230	101300000	1000	0	0	-1	0
16613243	3007	4	0	-100	0	230	101300000	1000	0	0	-1	0
16625803	3007	2	0	-100	0	230	101300000	1000	0	0	-1	0
16638363	3008	0	0	-100	0	230	101300000	1000	0	0	-1	0
16650923	3016	0	0	-100	0	230	101300000	1000	0	0	-1	0
16663483	3013	0	0	-100	0	230	101300000	1000	0	0	-1	0
16676043	3009	0	0	-100	0	230	101300000	1000	0	0	-1	0
16688603	3008	0	0	-100	0	230	101300000	1000	0	0	-1	0
16701163	3009	0	0	-100	0	230	101300000	1000	0	0	-1	0
16713723	3009	4	0	-100	0	230	101300000	1000	0	0	-1	0
16726283	3008	1	0	-100	0	230	101300000	1000	0	0	-1	0
16738843	3012	0	0	-100	0	230	101300000	1000	0	0	-1	0
16751403	3017	0	0	-100	0	230	101300000	1000	0	0	-1	0
16763963	3009	0	0	-100	0	230	101300000	1000	0	0	-1	0
16776523	3008	2	0	-100	0	230	101300000	1000	0	0	-1	0
16789083	3008	1	0	-100	0	230	101300000	1000	0	0	-1	0
16801643	3016	0	0	-100	0	230	101300000	1000	0	0	-1	0
16814203	3015	0	0	-100	0	230	101300000	1000	0	0	-1	0
16826763	3009	0	0	-100	0	230	101300000	1000	0	0	-1	0
16839323	3010	3	0	-100	0	230	101300000	1000	0	0	-1	0
16851883	3006	3	0	-100	0	230	101300000	1000	0	0	-1	0
16864443	3007	1	0	-100	0	230	101300000	1000	0	0	-1	0
16877004	3007	2	0	-100	0	230	101300000	1000	0	0	-1	0
16889563	3015	0	0	-100	0	230	101300000	1000	0	0	-1	0
16902123	3008	0	0	-100	0	230	101300000	1000	0	0	-1	0
16914683	3009	0	0	-100	0	230	101300000	1000	0	0	-1	0
16927243	3008	2	0	-100	0	230	101300000	1000	0	0	-1	0
16939803	3013	0	0	-100	0	230	101300000	1000	0	0	-1	0
16952363	3012	0	0	-100	0	230	101300000	1000	0	0	-1	0
16964923	3008	0	0	-100	0	230	101300000	1000	0	0	-1	0
16977483	3008	3	0	-100	0	230	101300000	1000	0	0	-1	0
16990043	3006	0	0	-100	0	230	101300000	1000	0	0	-1	0
17002603	3016	0	0	-100	0	230	101300000	1000	0	0	-1	0
17015163	3012	0	0	-100	0	230	101300000	1000	0	0	-1	0
17027723	3007	4	0	-100	0	230	101300000	1000	0	0	-1	0
17040283	3017	0	0	-100	0	230	101300000	1000	0	0	-1	0
17052843	3010	0	0	-100	0	230	101300000	1000	0	0	-1	0
17065403	3008	3	0	-100	0	230	101300000	1000	0	0	-1	0
17077963	3006	2	0	-100	0	230	101300000	1000	0	0	-1	0
17090523	3013	0	0	-100	0	230	101300000	1000	0	0	-1	0
17103083	3009	0	0	-100	0	230	101300000	1000	0	0	-1	0
17115643	3009	4	0	-100	0	230	101300000	1000	0	0	-1	0
17128203	3008	1	0	-100	0	230	101300000	1000	0	0	-1	0
17140763	3009	0	0	-100	0	230	101300000	1000	0	0	-1	0
17153323	3013	0	0	-100	0	230	101300000	1000	0	0	-1	0
17165883	3014	0	0	-100	0	230	101300000	1000	0	0	-1	0
17178443	3007	0	0	-100	0	230	101300000	1000	0	0	-1	0
17191004	3012	0	0	-100	0	230	101300000	1000	0	0	-1	0
17203563	3008	0	0	-100	0	230	101300000	1000	0	0	-1	0
17216123	3017	0	0	-100	0	230	101300000	1000	0	0	-1	0
17228683	3015	0	0	-100	0	230	101300000	1000	0	0	-1	0
17241243	3011	0	0	-100	0	230	101300000	1000	0	0	-1	0
17253803	3008	0	0	-100	0	230	101300000	1000	0	0	-1	0
17266363	3008	3	0	-100	0	230	101300000	1000	0	0	-1	0
17278923	3013	0	0	-100	0	230	101300000	1000	0	0	-1	0
17291483	3013	0	0	-100	0	230	101300000	1000	0	0	-1	0
17304043	3008	0	0	-100	0	230	101300000	1000	0	0	-1	0
17316603	3009	0	0	-100	0	230	101300000	1000	0	0	-1	0
17329163	3009	3	0	-100	0	230	101300000	1000	0	0	-1	0
17341723	3007	1	0	-100	0	230	101300000	1000	0	0	-1	0
17354283	3011	0	0	-100	0	230	101300000	1000	0	0	-1	0
17366843	3013	0	0	-100	0	230	101300000	1000	0	0	-1	0
17379403	3010	0	0	-100	0	230	101300000	1000	0	0	-1	0
17391963	3007	4	0	-100	0	230	101300000	1000	0	0	-1	0
17404523	3007	3	0	-100	0	230	101300000	1000	0	0	-1	0
17417083	3007	0	0	-100	0	230	101300000	1000	0	0	-1	0
17429643	3013	0	0	-100	0	230	101300000	1000	0	0	-1	0
17442203	3013	0	0	-100	0	230	101300000	1000	0	0	-1	0
17454763	3013	0	0	-100	0	230	101300000	1000	0	0	-1	0
17467323	3006	0	0	-100	0	230	101300000	1000	0	0	-1	0
17479883	3004	0	0	-100	0	230	101300000	1000	0	0	-1	0
17492443	3008	4	0	-100	0	230	101300000	1000	0	0	-1	0
17505004	3007	0	0	-100	0	230	101300000	1000	0	0	-1	0
17517563	3014	0	0	-100	0	230	101300000	1000	0	0	-1	0
17530123	3014	0	0	-100	0	230	101300000	1000	0	0	-1	0
17542683	3009	0	0	-100	0	230	101300000	1000	0	0	-1	0
17555243	3006	0	0	-100	0	230	101300000	1000	0	0	-1	0
17567803	3010	4	0	-100	0	230	101300000	1000	0	0	-1	0
17580363	3007	4	0	-100	0	230	101300000	1000	0	0	-1	0
17592923	3007	3	0	-100	0	230	101300000	1000	0	0	-1	0
17605483	3007	4	0	-100	0	230	101300000	1000	0	0	-1	0
17618043	3008	0	0	-100	0	230	101300000	1000	0	0	-1	0
17630603	3015	0	0	-100	0	230	101300000	1000	0	0	-1	0
17643163	3012	0	0	-100	0	230	101300000	1000	0	0	-1	0
17655723	3015	0	0	-100	0	230	101300000	1000	0	0	-1	0
17668283	3013	0	0	-100	0	230	101300000	1000	0	0	-1	0
17680843	3006	0	0	-100	0	230	101300000	1000	0	0	-1	0
17693403	3006	0	0	-100	0	230	101300000	1000	0	0	-1	0
17705963	3009	5	0	-100	0	230	101300000	1000	0	0	-1	0
17718523	3007	2	0	-100	0	230	101300000	1000	0	0	-1	0
17731083	3006	1	0	-100	0	230	101300000	1000	0	0	-1	0
17743643	3012	0	0	-100	0	230	101300000	1000	0	0	-1	0
17756203	3017	0	0	-100	0	230	101300000	1000	0	0	-1	0
17768763	3016	0	0	-100	0	230	101300000	1000	0	0	-1	0
17781323	3010	0	0	-100	0	230	101300000	1000	0	0	-1	0
17793883	3006	0	0	-100	0	230	101300000	1000	0	0	-1	0
17806443	3009	0	0	-100	0	230	101300000	1000	0	0	-1	0
17819004	3012	0	0	-100	0	230	101300000	1000	0	0	-1	0
17831563	3007	4	0	-100	0	230	101300000	1000	0	0	-1	0
17844123	3010	4	0	-100	0	230	101300000	1000	0	0	-1	0
17856683	3006	3	0	-100	0	230	101300000	1000	0	0	-1	0
17869243	3009	0	0	-100	0	230	101300000	1000	0	0	-1	0
17881803	3015	0	0	-100	0	230	101300000	1000	0	0	-1	0
17894363	3012	0	0	-100	0	230	101300000	1000	0	0	-1	0
17906923	3012	0	0	-100	0	230	101300000	1000	0	0	-1	0
17919483	3012	0	0	-100	0	230	101300000	1000	0	0	-1	0
17932043	3014	0	0	-100	0	230	101300000	1000	0	0	-1	0
17944603	3012	0	0	-100	0	230	101300000	1000	0	0	-1	0
17957163	3006	0	0	-100	0	230	101300000	1000	0	0	-1	0
17969723	3008	0	0	-100	0	230	101300000	1000	0	0	-1	0
17982283	3006	4	0	-100	0	230	101300000	1000	0	0	-1	0
17994843	3008	3	0	-100	0	230	101300000	1000	0	0	-1	0
18007403	3008	1	0	-100	0	230	101300000	1000	0	0	-1	0
18019963	3007	1	0	-100	0	230	101300000	1000	0	0	-1	0
18032523	3008	0	0	-100	0	230	101300000	1000	0	0	-1	0
18045083	3017	0	0	-100	0	230	101300000	1000	0	0	-1	0
18057643	3011	0	0	-100	0	230	101300000	1000	0	0	-1	0
18070203	3013	0	0	-100	0	230	101300000	1000	0	0	-1	0
18082763	3013	0	0	-100	0	230	101300000	1000	0	0	-1	0
18095323	3012	0	0	-100	0	230	101300000	1000	0	0	-1	0
18107883	3009	0	0	-100	0	230	101300000	1000	0	0	-1	0
18120443	3008	0	0	-100	0	230	101300000	1000	0	0	-1	0
18133004	3015	0	0	-100	0	230	101300000	1000	0	0	-1	0
18145563	3010	5	0	-100	0	230	101300000	1000	0	0	-1	0
18158123	3009	3	0	-100	0	230	101300000	1000	0	0	-1	0
18170683	3008	0	0	-100	0	230	101300000	1000	0	0	-1	0
18183243	3011	0	0	-100	0	230	101300000	1000	0	0	-1	0
18195803	3016	0	0	-100	0	230	101300000	1000	0	0	-1	0
18208363	3014	0	0	-100	0	230	101300000	1000	0	0	-1	0
18220923	3011	0	0	-100	0	230	101300000	1000	0	0	-1	0
18233483	3010	0	0	-100	0	230	101300000	1000	0	0	-1	0
18246043	3007	0	0	-100	0	230	101300000	1000	0	0	-1	0
18258603	3012	0	0	-100	0	230	101300000	1000	0	0	-1	0
18271163	3012	0	0	-100	0	230	101300000	1000	0	0	-1	0
18283723	3008	0	0	-100	0	230	101300000	1000	0	0	-1	0
18296283	3007	2	0	-100	0	230	101300000	1000	0	0	-1	0
18308843	3008	0	0	-100	0	230	101300000	1000	0	0	-1	0
18321403	3012	0	0	-100	0	230	101300000	1000	0	0	-1	0
18333963	3008	0	0	-100	0	230	101300000	1000	0	0	-1	0
18346523	3009	3	0	-100	0	230	101300000	1000	0	0	-1	0
18359083	3004	0	0	-100	0	230	101300000	1000	0	0	-1	0
18371643	3012	0	0	-100	0	230	101300000	1000	0	0	-1	0
18384203	3008	0	0	-100	0	230	101300000	1000	0	0	-1	0
18396763	3007	2	0	-100	0	230	101300000	1000	0	0	-1	0
18409323	3016	0	0	-100	0	230	101300000	1000	0	0	-1	0
18421883	3012	0	0	-100	0	230	101300000	1000	0	0	-1	0
18434443	3014	0	0	-100	0	230	101300000	1000	0	0	-1	0
18447004	3006	0	0	-100	0	230	101300000	1000	0	0	-1	0
18459563	3005	0	0	-100	0	230	101300000	1000	0	0	-1	0
18472123	3006	4	0	-100	0	230	101300000	1000	0	0	-1	0
18484683	3007	1	0	-100	0	230	101300000	1000	0	0	-1	0
18497243	3014	0	0	-100	0	230	101300000	1000	0	0	-1	0
18509803	3014	0	0	-100	0	230	101300000	1000	0	0	-1	0
18522363	3013	0	0	-100	0	230	101300000	1000	0	0	-1	0
18534923	3012	0	0	-100	0	230	101300000	1000	0	0	-1	0
18547483	3012	0	0	-100	0	230	101300000	1000	0	0	-1	0
18560043	3008	0	0	-100	0	230	101300000	1000	0	0	-1	0
18572603	3011	1	0	-100	0	230	101300000	1000	0	0	-1	0
18585163	3009	2	0	-100	0	230	101300000	1000	0	0	-1	0
18597723	3008	0	0	-100	0	230	101300000	1000	0	0	-1	0
18610283	3014	0	0	-100	0	230	101300000	1000	0	0	-1	0
18622843	3013	0	0	-100	0	230	101300000	1000	0	0	-1	0
18635403	3007	0	0	-100	0	230	101300000	1000	0	0	-1	0
18647963	3008	3	0	-100	0	230	101300000	1000	0	0	-1	0
18660523	3008	3	0	-100	0	230	101300000	1000	0	0	-1	0
18673083	3008	1	0	-100	0	230	101300000	1000	0	0	-1	0
18685643	3007	0	0	-100	0	230	101300000	1000	0	0	-1	0
18698203	3013	0	0	-100	0	230	101300000	1000	0	0	-1	0
18710763	3013	0	0	-100	0	230	101300000	1000	0	0	-1	0
18723323	3013	0	0	-100	0	230	101300000	1000	0	0	-1	0
18735883	3010	0	0	-100	0	230	101300000	1000	0	0	-1	0
18748443	3008	0	0	-100	0	230	101300000	1000	0	0	-1	0
18761004	3012	0	0	-100	0	230	101300000	1000	0	0	-1	0
18773563	3011	0	0	-100	0	230	101300000	1000	0	0	-1	0
18786123	3014	0	0	-100	0	230	101300000	1000	0	0	-1	0
18798683	3011	0	0	-100	0	230	101300000	1000	0	0	-1	0
18811243	3006	0	0	-100	0	230	101300000	1000	0	0	-1	0
18836363	3010	3	0	-100	0	230	101300000	1000	0	0	-1	0
18848923	3005	3	0	-100	0	230	101300000	1000	0	0	-1	0
18861483	3008	3	0	-100	0	230	101300000	1000	0	0	-1	0
18874043	3005	3	0	-100	0	230	101300000	1000	0	0	-1	0
18886603	3005	3	0	-100	0	230	101300000	1000	0	0	-1	0
18899163	3007	4	0	-100	0	230	101300000	1000	0	0	-1	0
18911723	3004	0	0	-100	0	230	101300000	1000	0	0	-1	0
18924283	3009	1	0	-100	0	230	101300000	1000	0	0	-1	0
18936843	3015	0	0	-100	0	230	101300000	1000	0	0	-1	0
18949403	3011	0	0	-100	0	230	101300000	1000	0	0	-1	0
18961963	3008	0	0	-100	0	230	101300000	1000	0	0	-1	0
18974523	3004	0	0	-100	0	230	101300000	1000	0	0	-1	0
19037323	3016	0	0	-100	0	230	101300000	1000	0	0	-1	0
19049883	3008	0	0	-100	0	230	101300000	1000	0	0	-1	0
19062443	3007	0	0	-100	0	230	101300000	1000	0	0	-1	0
19075004	3011	0	0	-100	0	230	101300000	1000	0	0	-1	0
19087563	3009	0	0	-100	0	230	101300000	1000	0	0	-1	0
19100123	3008	2	0	-100	0	230	101300000	1000	0	0	-1	0
19112683	3008	3	0	-100	0	230	101300000	1000	0	0	-1	0
19125243	3007	3	0	-100	0	230	101300000	1000	0	0	-1	0
19137803	3007	2	0	-100	0	230	101300000	1000	0	0	-1	0
19150363	3008	0	0	-100	0	230	101300000	1000	0	0	-1	0
19162923	3010	0	0	-100	0	230	101300000	1000	0	0	-1	0
19175483	3015	0	0	-100	0	230	101300000	1000	0	0	-1	0
19200603	3016	0	0	-100	0	230	101300000	1000	0	0	-1	0
19213163	3013	0	0	-100	0	230	101300000	1000	0	0	-1	0
19225723	3016	0	0	-100	0	230	101300000	1000	0	0	-1	0
19238283	3012	0	0	-100	0	230	101300000	1000	0	0	-1	0
19250843	3012	0	0	-100	0	230	101300000	1000	0	0	-1	0
19263403	3010	0	0	-100	0	230	101300000	1000	0	0	-1	0
19275963	3008	4	0	-100	0	230	101300000	1000	0	0	-1	0
19288523	3008	1	0	-100	0	230	101300000	1000	0	0	-1	0
19301083	3006	1	0	-100	0	230	101300000	1000	0	0	-1	0
19313643	3008	0	0	-100	0	230	101300000	1000	0	0	-1	0
19326203	3016	0	0	-100	0	230	101300000	1000	0	0	-1	0
19338763	3016	0	0	-100	0	230	101300000	1000	0	0	-1	0
19351323	3013	0	0	-100	0	230	101300000	1000	0	0	-1	0
19363883	3016	0	0	-100	0	230	101300000	1000	0	0	-1	0
19376443	3012	0	0	-100	0	230	101300000	1000	0	0	-1	0
19389004	3009	0	0	-100	0	230	101300000	1000	0	0	-1	0
19401563	3009	0	0	-100	0	230	101300000	1000	0	0	-1	0
19414123	3009	0	0	-100	0	230	101300000	1000	0	0	-1	0
19426683	3010	0	0	-100	0	230	101300000	1000	0	0	-1	0
19439243	3013	0	0	-100	0	230	101300000	1000	0	0	-1	0
19451803	3012	0	0	-100	0	230	101300000	1000	0	0	-1	0
19464363	3016	0	0	-100	0	230	101300000	1000	0	0	-1	0
19476923	3008	0	0	-100	0	230	101300000	1000	0	0	-1	0
19489483	3006	0	0	-100	0	230	101300000	1000	0	0	-1	0
19502043	3008	0	0	-100	0	230	101300000	1000	0	0	-1	0
19514603	3005	0	0	-100	0	230	101300000	1000	0	0	-1	0
19527163	3005	2	0	-100	0	230	101300000	1000	0	0	-1	0
19539723	3008	4	0	-100	0	230	101300000	1000	0	0	-1	0
19552283	3004	2	0	-100	0	230	101300000	1000	0	0	-1	0
19564843	3008	4	0	-100	0	230	101300000	1000	0	0	-1	0
19577403	3008	4	0	-100	0	230	101300000	1000	0	0	-1	0
19589963	3005	2	0	-100	0	230	101300000	1000	0	0	-1	0
19602523	3009	4	0	-100	0	230	101300000	1000	0	0	-1	0
19615083	3006	4	0	-100	0	230	101300000	1000	0	0	-1	0
19627643	3008	2	0	-100	0	230	101300000	1000	0	0	-1	0
19640203	3007	4	0	-100	0	230	101300000	1000	0	0	-1	0
19652763	3008	0	0	-100	0	230	101300000	1000	0	0	-1	0
19665323	3008	0	0	-100	0	230	101300000	1000	0	0	-1	0
19677883	3008	0	0	-100	0	230	101300000	1000	0	0	-1	0
19690443	3012	0	0	-100	0	230	101300000	1000	0	0	-1	0
19703004	3008	2	0	-100	0	230	101300000	1000	0	0	-1	0
19715563	3011	0	0	-100	0	230	101300000	1000	0	0	-1	0
19728123	3014	0	0	-100	0	230	101300000	1000	0	0	-1	0
19740683	3010	0	0	-100	0	230	101300000	1000	0	0	-1	0
19753243	3012	0	0	-100	0	230	101300000	1000	0	0	-1	0
19765803	3012	0	0	-100	0	230	101300000	1000	0	0	-1	0
19778363	3015	0	0	-100	0	230	101300000	1000	0	0	-1	0
19790923	3012	0	0	-100	0	230	101300000	1000	0	0	-1	0
19803483	3011	0	0	-100	0	230	101300000	1000	0	0	-1	0
19816043	3013	0	0	-100	0	230	101300000	1000	0	0	-1	0
19828603	3014	0	0	-100	0	230	101300000	1000	0	0	-1	0
19841163	3014	0	0	-100	0	230	101300000	1000	0	0	-1	0
19853723	3013	0	0	-100	0	230	101300000	1000	0	0	-1	0
19866283	3015	0	0	-100	0	230	101300000	1000	0	0	-1	0
19878843	3018	0	0	-100	0	230	101300000	1000	0	0	-1	0
19891403	3012	0	0	-100	0	230	101300000	1000	0	0	-1	0
19903963	3013	0	0	-100	0	230	101300000	1000	0	0	-1	0
19916523	3007	0	0	-100	0	230	101300000	1000	0	0	-1	0
19929083	3004	0	0	-100	0	230	101300000	1000	0	0	-1	0
19941643	3009	0	0	-100	0	230	101300000	1000	0	0	-1	0
19954203	3010	2	0	-100	0	230	101300000	1000	0	0	-1	0
19966763	3007	4	0	-100	0	230	101300000	1000	0	0	-1	0
19979323	3008	3	0	-100	0	230	101300000	1000	0	0	-1	0
19991883	3006	4	0	-100	0	230	101300000	1000	0	0	-1	0
20004443	3008	2	0	-100	0	230	101300000	1000	0	0	-1	0
20017004	3008	0	0	-100	0	230	101300000	1000	0	0	-1	0
20029563	3012	0	0	-100	0	230	101300000	1000	0	0	-1	0
20042123	3011	0	0	-100	0	230	101300000	1000	0	0	-1	0
20054683	3013	0	0	-100	0	230	101300000	1000	0	0	-1	0
20067243	3008	0	0	-100	0	230	101300000	1000	0	0	-1	0
20079803	3003	0	0	-100	0	230	101300000	1000	0	0	-1	0
20092363	3006	4	0	-100	0	230	101300000	1000	0	0	-1	0
20104923	3008	0	0	-100	0	230	101300000	1000	0	0	-1	0
20117483	3013	0	0	-100	0	230	101300000	1000	0	0	-1	0
20130043	3012	0	0	-100	0	230	101300000	1000	0	0	-1	0
20142603	3009	3	0	-100	0	230	101300000	1000	0	0	-1	0
20155163	3004	0	0	-100	0	230	101300000	1000	0	0	-1	0
20167723	3013	0	0	-100	0	230	101300000	1000	0	0	-1	0
20180283	3008	0	0	-100	0	230	101300000	1000	0	0	-1	0
20192843	3007	0	0	-100	0	230	101300000	1000	0	0	-1	0
20205403	3016	0	0	-100	0	230	101300000	1000	0	0	-1	0
20217963	3008	0	0	-100	0	230	101300000	1000	0	0	-1	0
20230523	3008	3	0	-100	0	230	101300000	1000	0	0	-1	0
20243083	3014	0	0	-100	0	230	101300000	1000	0	0	-1	0
20255643	3012	0	0	-100	0	230	101300000	1000	0	0	-1	0
20268203	3012	0	0	-100	0	230	101300000	1000	0	0	-1	0
20280763	3007	0	0	-100	0	230	101300000	1000	0	0	-1	0
20293323	3009	0	0	-100	0	230	101300000	1000	0	0	-1	0
20305883	3007	4	0	-100	0	230	101300000	1000	0	0	-1	0
20318443	3008	0	0	-100	0	230	101300000	1000	0	0	-1	0
20331004	3008	6	0	-100	0	230	101300000	1000	0	0	-1	0
20343563	3014	0	0	-100	0	230	101300000	1000	0	0	-1	0
20356123	3010	0	0	-100	0	230	101300000	1000	0	0	-1	0
20368683	3008	2	0	-100	0	230	101300000	1000	0	0	-1	0
20381243	3008	0	0	-100	0	230	101300000	1000	0	0	-1	0
20393803	3014	0	0	-100	0	230	101300000	1000	0	0	-1	0
20406363	3013	0	0	-100	0	230	101300000	1000	0	0	-1	0
20418923	3008	0	0	-100	0	230	101300000	1000	0	0	-1	0
20431483	3004	2	0	-100	0	230	101300000	1000	0	0	-1	0
20444043	3010	0	0	-100	0	230	101300000	1000	0	0	-1	0
20456603	3016	0	0	-100	0	230	101300000	1000	0	0	-1	0
20469163	3014	0	0	-100	0	230	101300000	1000	0	0	-1	0
20481723	3014	0	0	-100	0	230	101300000	1000	0	0	-1	0
20494283	3013	0	0	-100	0	230	101300000	1000	0	0	-1	0
20506843	3008	0	0	-100	0	230	101300000	1000	0	0	-1	0
20519403	3008	0	0	-100	0	230	101300000	1000	0	0	-1	0
20531963	3008	2	0	-100	0	230	101300000	1000	0	0	-1	0
20544523	3009	0	0	-100	0	230	101300000	1000	0	0	-1	0
20557083	3013	0	0	-100	0	230	101300000	1000	0	0	-1	0
20569643	3015	0	0	-100	0	230	101300000	1000	0	0	-1	0
20582203	3010	0	0	-100	0	230	101300000	1000	0	0	-1	0
20594763	3010	0	0	-100	0	230	101300000	1000	0	0	-1	0
20607323	3008	0	0	-100	0	230	101300000	1000	0	0	-1	0
20619883	3009	0	0	-100	0	230	101300000	1000	0	0	-1	0
20632443	3008	0	0	-100	0	230	101300000	1000	0	0	-1	0
20645004	3014	0	0	-100	0	230	101300000	1000	0	0	-1	0
20657563	3010	2	0	-100	0	230	101300000	1000	0	0	-1	0
20670123	3008	4	0	-100	0	230	101300000	1000	0	0	-1	0
20682683	3008	3	0	-100	0	230	101300000	1000	0	0	-1	0
20695243	3008	2	0	-100	0	230	101300000	1000	0	0	-1	0
20707803	3006	2	0	-100	0	230	101300000	1000	0	0	-1	0
20720363	3006	3	0	-100	0	230	101300000	1000	0	0	-1	0
20732923	3008	4	0	-100	0	230	101300000	1000	0	0	-1	0
20745483	3008	0	0	-100	0	230	101300000	1000	0	0	-1	0
20758043	3007	0	0	-100	0	230	101300000	1000	0	0	-1	0
20770603	3006	0	0	-100	0	230	101300000	1000	0	0	-1	0
20783163	3007	0	0	-100	0	230	101300000	1000	0	0	-1	0
20795723	3005	0	0	-100	0	230	101300000	1000	0	0	-1	0
20808283	3010	4	0	-100	0	230	101300000	1000	0	0	-1	0
20820843	3007	3	0	-100	0	230	101300000	1000	0	0	-1	0
20833403	3009	4	0	-100	0	230	101300000	1000	0	0	-1	0
20845963	3010	1	0	-100	0	230	101300000	1000	0	0	-1	0
20858523	3009	3	0	-100	0	230	101300000	1000	0	0	-1	0
20871083	3011	2	0	-100	0	230	101300000	1000	0	0	-1	0
20883643	3008	0	0	-100	0	230	101300000	1000	0	0	-1	0
20896203	3011	0	0	-100	0	230	101300000	1000	0	0	-1	0
20908763	3008	1	0	-100	0	230	101300000	1000	0	0	-1	0
20921323	3006	2	0	-100	0	230	101300000	1000	0	0	-1	0
20933883	3007	3	0	-100	0	230	101300000	1000	0	0	-1	0
20946443	3007	4	0	-100	0	230	101300000	1000	0	0	-1	0
20959004	3007	0	0	-100	0	230	101300000	1000	0	0	-1	0
20971563	3008	1	0	-100	0	230	101300000	1000	0	0	-1	0
20984123	3012	0	0	-100	0	230	101300000	1000	0	0	-1	0
20996683	3015	0	0	-100	0	230	101300000	1000	0	0	-1	0
21009243	3012	0	0	-100	0	230	101300000	1000	0	0	-1	0
21021803	3018	0	0	-100	0	230	101300000	1000	0	0	-1	0
21034363	3012	0	0	-100	0	230	101300000	1000	0	0	-1	0
21046923	3012	0	0	-100	0	230	101300000	1000	0	0	-1	0
21059483	3010	0	0	-100	0	230	101300000	1000	0	0	-1	0
21072043	3007	0	0	-100	0	230	101300000	1000	0	0	-1	0
21084603	3008	2	0	-100	0	230	101300000	1000	0	0	-1	0
21097163	3007	3	0	-100	0	230	101300000	1000	0	0	-1	0
21109723	3007	0	0	-100	0	230	101300000	1000	0	0	-1	0
21122283	3017	0	0	-100	0	230	101300000	1000	0	0	-1	0
21134843	3013	0	0	-100	0	230	101300000	1000	0	0	-1	0
21147403	3015	0	0	-100	0	230	101300000	1000	0	0	-1	0
21159963	3008	0	0	-100	0	230	101300000	1000	0	0	-1	0
21172523	3008	0	0	-100	0	230	101300000	1000	0	0	-1	0
21185083	3009	3	0	-100	0	230	101300000	1000	0	0	-1	0
21197643	3008	0	0	-100	0	230	101300000	1000	0	0	-1	0
21210203	3014	0	0	-100	0	230	101300000	1000	0	0	-1	0
21222763	3014	0	0	-100	0	230	101300000	1000	0	0	-1	0
21235323	3012	0	0	-100	0	230	101300000	1000	0	0	-1	0
21247883	3007	0	0	-100	0	230	101300000	1000	0	0	-1	0
21260443	3007	1	0	-100	0	230	101300000	1000	0	0	-1	0
21273004	3010	0	0	-100	0	230	101300000	1000	0	0	-1	0
21285563	3009	4	0	-100	0	230	101300000	1000	0	0	-1	0
21298123	3004	0	0	-100	0	230	101300000	1000	0	0	-1	0
21310683	3008	0	0	-100	0	230	101300000	1000	0	0	-1	0
21323243	3007	0	0	-100	0	230	101300000	1000	0	0	-1	0
21335803	3008	0	0	-100	0	230	101300000	1000	0	0	-1	0
21348363	3008	0	0	-100	0	230	101300000	1000	0	0	-1	0
21360923	3005	0	0	-100	0	230	101300000	1000	0	0	-1	0
21373483	3008	0	0	-100	0	230	101300000	1000	0	0	-1	0
21386043	3005	0	0	-100	0	230	101300000	1000	0	0	-1	0
21398603	3008	0	0	-100	0	230	101300000	1000	0	0	-1	0
21411163	3006	0	0	-100	0	230	101300000	1000	0	0	-1	0
21423723	3008	0	0	-100	0	230	101300000	1000	0	0	-1	0
21436283	3006	0	0	-100	0	230	101300000	1000	0	0	-1	0
21448843	3012	0	0	-100	0	230	101300000	1000	0	0	-1	0
21461403	3012	0	0	-100	0	230	101300000	1000	0	0	-1	0
21473963	3006	0	0	-100	0	230	101300000	1000	0	0	-1	0
21486523	3007	4	0	-100	0	230	101300000	1000	0	0	-1	0
21499083	3009	0	0	-100	0	230	101300000	1000	0	0	-1	0
21511643	3005	0	0	-100	0	230	101300000	1000	0	0	-1	0
21524203	3013	0	0	-100	0	230	101300000	1000	0	0	-1	0
21536763	3014	0	0	-100	0	230	101300000	1000	0	0	-1	0
21549323	3006	1	0	-100	0	230	101300000	1000	0	0	-1	0
21561883	3008	2	0	-100	0	230	101300000	1000	0	0	-1	0
21574443	3008	0	0	-100	0	230	101300000	1000	0	0	-1	0
21587004	3008	0	0	-100	0	230	101300000	1000	0	0	-1	0
21599563	3014	0	0	-100	0	230	101300000	1000	0	0	-1	0
21612123	3008	0	0	-100	0	230	101300000	1000	0	0	-1	0
21624683	3005	4	0	-100	0	230	101300000	1000	0	0	-1	0
21637243	3005	0	0	-100	0	230	101300000	1000	0	0	-1	0
21649803	3012	0	0	-100	0	230	101300000	1000	0	0	-1	0
21662363	3007	0	0	-100	0	230	101300000	1000	0	0	-1	0
21674923	3009	0	0	-100	0	230	101300000	1000	0	0	-1	0
21687483	3011	0	0	-100	0	230	101300000	1000	0	0	-1	0
21700043	3006	1	0	-100	0	230	101300000	1000	0	0	-1	0
21712603	3006	0	0	-100	0	230	101300000	1000	0	0	-1	0
21725163	3015	0	0	-100	0	230	101300000	1000	0	0	-1	0
21737723	3008	4	0	-100	0	230	101300000	1000	0	0	-1	0
21750283	3012	0	0	-100	0	230	101300000	1000	0	0	-1	0
21762843	3010	0	0	-100	0	230	101300000	1000	0	0	-1	0
21775403	3008	4	0	-100	0	230	101300000	1000	0	0	-1	0
21787963	3005	0	0	-100	0	230	101300000	1000	0	0	-1	0
21800523	3010	0	0	-100	0	230	101300000	1000	0	0	-1	0
21813083	3016	0	0	-100	0	230	101300000	1000	0	0	-1	0
21825643	3017	0	0	-100	0	230	101300000	1000	0	0	-1	0
21838203	3008	1	0	-100	0	230	101300000	1000	0	0	-1	0
21850763	3008	4	0	-100	0	230	101300000	1000	0	0	-1	0
21863323	3006	0	0	-100	0	230	101300000	1000	0	0	-1	0
21875883	3012	0	0	-100	0	230	101300000	1000	0	0	-1	0
21938683	3012	0	0	-100	0	230	101300000	1000	0	0	-1	0
21951243	3007	3	0	-100	0	230	101300000	1000	0	0	-1	0
21963803	3005	0	0	-100	0	230	101300000	1000	0	0	-1	0
21976363	3014	0	0	-100	0	230	101300000	1000	0	0	-1	0
21988923	3012	0	0	-100	0	230	101300000	1000	0	0	-1	0
22001483	3008	0	0	-100	0	230	101300000	1000	0	0	-1	0
22014043	3008	3	0	-100	0	230	101300000	1000	0	0	-1	0
22026603	3006	0	0	-100	0	230	101300000	1000	0	0	-1	0
22039163	3012	0	0	-100	0	230	101300000	1000	0	0	-1	0
22051723	3012	0	0	-100	0	230	101300000	1000	0	0	-1	0
22064283	3005	1	0	-100	0	230	101300000	1000	0	0	-1	0
22127083	3008	0	0	-100	0	230	101300000	1000	0	0	-1	0
22139643	3010	3	0	-100	0	230	101300000	1000	0	0	-1	0
22152203	3005	0	0	-100	0	230	101300000	1000	0	0	-1	0
22164763	3016	0	0	-100	0	230	101300000	1000	0	0	-1	0
22177323	3014	0	0	-100	0	230	101300000	1000	0	0	-1	0
22189883	3004	2	0	-100	0	230	101300000	1000	0	0	-1	0
22202443	3007	0	0	-100	0	230	101300000	1000	0	0	-1	0
22215004	3009	0	0	-100	0	230	101300000	1000	0	0	-1	0
22227563	3013	0	0	-100	0	230	101300000	1000	0	0	-1	0
22240123	3007	2	0	-100	0	230	101300000	1000	0	0	-1	0
22252683	3008	3	0	-100	0	230	101300000	1000	0	0	-1	0
22265243	3008	0	0	-100	0	230	101300000	1000	0	0	-1	0
22277803	3009	0	0	-100	0	230	101300000	1000	0	0	-1	0
22290363	3012	0	0	-100	0	230	101300000	1000	0	0	-1	0
22302923	3013	0	0	-100	0	230	101300000	1000	0	0	-1	0
22315483	3008	1	0	-100	0	230	101300000	1000	0	0	-1	0
22328043	3006	0	0	-100	0	230	101300000	1000	0	0	-1	0
22340603	3012	0	0	-100	0	230	101300000	1000	0	0	-1	0
22353163	3012	0	0	-100	0	230	101300000	1000	0	0	-1	0
22365723	3009	0	0	-100	0	230	101300000	1000	0	0	-1	0
22378283	3008	2	0	-100	0	230	101300000	1000	0	0	-1	0
22390843	3010	2	0	-100	0	230	101300000	1000	0	0	-1	0
22403403	3006	0	0	-100	0	230	101300000	1000	0	0	-1	0
22415963	3010	0	0	-100	0	230	101300000	1000	0	0	-1	0
22428523	3015	0	0	-100	0	230	101300000	1000	0	0	-1	0
22441083	3014	0	0	-100	0	230	101300000	1000	0	0	-1	0
22453643	3016	0	0	-100	0	230	101300000	1000	0	0	-1	0
22466203	3008	0	0	-100	0	230	101300000	1000	0	0	-1	0
22478763	3007	1	0	-100	0	230	101300000	1000	0	0	-1	0
22491323	3008	2	0	-100	0	230	101300000	1000	0	0	-1	0
22503883	3009	3	0	-100	0	230	101300000	1000	0	0	-1	0
22516443	3009	0	0	-100	0	230	101300000	1000	0	0	-1	0
22529004	3013	0	0	-100	0	230	101300000	1000	0	0	-1	0
22541563	3006	0	0	-100	0	230	101300000	1000	0	0	-1	0
22554123	3012	0	0	-100	0	230	101300000	1000	0	0	-1	0
22566683	3013	0	0	-100	0	230	101300000	1000	0	0	-1	0
22579243	3010	0	0	-100	0	230	101300000	1000	0	0	-1	0
22591803	3014	0	0	-100	0	230	101300000	1000	0	0	-1	0
22604363	3015	0	0	-100	0	230	101300000	1000	0	0	-1	0
22616923	3014	0	0	-100	0	230	101300000	1000	0	0	-1	0
22629483	3014	0	0	-100	0	230	101300000	1000	0	0	-1	0
22642043	3011	0	0	-100	0	230	101300000	1000	0	0	-1	0
22654603	3013	0	0	-100	0	230	101300000	1000	0	0	-1	0
22667163	3011	0	0	-100	0	230	101300000	1000	0	0	-1	0
22679723	3004	0	0	-100	0	230	101300000	1000	0	0	-1	0
22692283	3008	2	0	-100	0	230	101300000	1000	0	0	-1	0
22704843	3008	3	0	-100	0	230	101300000	1000	0	0	-1	0
22717403	3008	0	0	-100	0	230	101300000	1000	0	0	-1	0
22729963	3012	0	0	-100	0	230	101300000	1000	0	0	-1	0
22742523	3015	0	0	-100	0	230	101300000	1000	0	0	-1	0
22755083	3008	2	0	-100	0	230	101300000	1000	0	0	-1	0
22767643	3004	2	0	-100	0	230	101300000	1000	0	0	-1	0
22780203	3008	3	0	-100	0	230	101300000	1000	0	0	-1	0
22792763	3008	2	0	-100	0	230	101300000	1000	0	0	-1	0
22805323	3007	4	0	-100	0	230	101300000	1000	0	0	-1	0
22817883	3006	1	0	-100	0	230	101300000	1000	0	0	-1	0
22830443	3008	0	0	-100	0	230	101300000	1000	0	0	-1	0
22843004	3008	3	0	-100	0	230	101300000	1000	0	0	-1	0
22855563	3011	0	0	-100	0	230	101300000	1000	0	0	-1	0
22868123	3004	0	0	-100	0	230	101300000	1000	0	0	-1	0
22880683	3005	3	0	-100	0	230	101300000	1000	0	0	-1	0
22893243	3007	0	0	-100	0	230	101300000	1000	0	0	-1	0
22905803	3008	0	0	-100	0	230	101300000	1000	0	0	-1	0
22918363	3010	0	0	-100	0	230	101300000	1000	0	0	-1	0
22930923	3008	1	0	-100	0	230	101300000	1000	0	0	-1	0
22943483	3010	0	0	-100	0	230	101300000	1000	0	0	-1	0
22956043	3010	0	0	-100	0	230	101300000	1000	0	0	-1	0
22968603	3008	0	0	-100	0	230	101300000	1000	0	0	-1	0
22981163	3006	0	0	-100	0	230	101300000	1000	0	0	-1	0
22993723	3006	2	0	-100	0	230	101300000	1000	0	0	-1	0
23006283	3007	2	0	-100	0	230	101300000	1000	0	0	-1	0
23018843	3008	2	0	-100	0	230	101300000	1000	0	0	-1	0
23031403	3007	4	0	-100	0	230	101300000	1000	0	0	-1	0
23043963	3009	2	0	-100	0	230	101300000	1000	0	0	-1	0
23056523	3011	0	0	-100	0	230	101300000	1000	0	0	-1	0
23069083	3013	0	0	-100	0	230	101300000	1000	0	0	-1	0
23081643	3010	0	0	-100	0	230	101300000	1000	0	0	-1	0
23094203	3010	0	0	-100	0	230	101300000	1000	0	0	-1	0
23106763	3013	0	0	-100	0	230	101300000	1000	0	0	-1	0
23119323	3017	0	0	-100	0	230	101300000	1000	0	0	-1	0
23131883	3012	0	0	-100	0	230	101300000	1000	0	0	-1	0
23144443	3010	0	0	-100	0	230	101300000	1000	0	0	-1	0
23157004	3014	0	0	-100	0	230	101300000	1000	0	0	-1	0
23169563	3006	0	0	-100	0	230	101300000	1000	0	0	-1	0
23182123	3005	0	0	-100	0	230	101300000	1000	0	0	-1	0
23194683	3008	0	0	-100	0	230	101300000	1000	0	0	-1	0
23207243	3009	0	0	-100	0	230	101300000	1000	0	0	-1	0
23219803	3011	0	0	-100	0	230	101300000	1000	0	0	-1	0
23232363	3010	0	0	-100	0	230	101300000	1000	0	0	-1	0
23244923	3012	0	0	-100	0	230	101300000	1000	0	0	-1	0
23257483	3014	0	0	-100	0	230	101300000	1000	0	0	-1	0
23270043	3013	0	0	-100	0	230	101300000	1000	0	0	-1	0
23282603	3014	0	0	-100	0	230	101300000	1000	0	0	-1	0
23295163	3005	2	0	-100	0	230	101300000	1000	0	0	-1	0
23307723	3009	4	0	-100	0	230	101300000	1000	0	0	-1	0
23320283	3009	3	0	-100	0	230	101300000	1000	0	0	-1	0
23332843	3007	0	0	-100	0	230	101300000	1000	0	0	-1	0
23345403	3007	0	0	-100	0	230	101300000	1000	0	0	-1	0
23357963	3009	0	0	-100	0	230	101300000	1000	0	0	-1	0
23370523	3012	0	0	-100	0	230	101300000	1000	0	0	-1	0
23383083	3014	0	0	-100	0	230	101300000	1000	0	0	-1	0
23395643	3012	0	0	-100	0	230	101300000	1000	0	0	-1	0
23408203	3009	0	0	-100	0	230	101300000	1000	0	0	-1	0
23420763	3011	0	0	-100	0	230	101300000	1000	0	0	-1	0
23433323	3012	0	0	-100	0	230	101300000	1000	0	0	-1	0
23445883	3012	0	0	-100	0	230	101300000	1000	0	0	-1	0
23458443	3012	0	0	-100	0	230	101300000	1000	0	0	-1	0
23471004	3004	3	0	-100	0	230	101300000	1000	0	0	-1	0
23483563	3013	0	0	-100	0	230	101300000	1000	0	0	-1	0
23496123	3016	0	0	-100	0	230	101300000	1000	0	0	-1	0
23508683	3016	0	0	-100	0	230	101300000	1000	0	0	-1	0
23521243	3016	0	0	-100	0	230	101300000	1000	0	0	-1	0
23533803	3017	0	0	-100	0	230	101300000	1000	0	0	-1	0
23546363	3016	0	0	-100	0	230	101300000	1000	0	0	-1	0
23558923	3015	0	0	-100	0	230	101300000	1000	0	0	-1	0
23571483	3012	0	0	-100	0	230	101300000	1000	0	0	-1	0
23584043	3006	0	0	-100	0	230	101300000	1000	0	0	-1	0
23596603	3007	0	0	-100	0	230	101300000	1000	0	0	-1	0
23609163	3007	0	0	-100	0	230	101300000	1000	0	0	-1	0
23621723	3008	4	0	-100	0	230	101300000	1000	0	0	-1	0
23634283	3008	2	0	-100	0	230	101300000	1000	0	0	-1	0
23646843	3009	0	0	-100	0	230	101300000	1000	0	0	-1	0
23659403	3012	0	0	-100	0	230	101300000	1000	0	0	-1	0
23671963	3014	0	0	-100	0	230	101300000	1000	0	0	-1	0
23684523	3015	0	0	-100	0	230	101300000	1000	0	0	-1	0
23697083	3013	0	0	-100	0	230	101300000	1000	0	0	-1	0
23709643	3012	0	0	-100	0	230	101300000	1000	0	0	-1	0
23722203	3010	0	0	-100	0	230	101300000	1000	0	0	-1	0
23734763	3012	0	0	-100	0	230	101300000	1000	0	0	-1	0
23747323	3014	0	0	-100	0	230	101300000	1000	0	0	-1	0
23759883	3014	0	0	-100	0	230	101300000	1000	0	0	-1	0
23772443	3008	0	0	-100	0	230	101300000	1000	0	0	-1	0
23785004	3008	0	0	-100	0	230	101300000	1000	0	0	-1	0
23797563	3005	1	0	-100	0	230	101300000	1000	0	0	-1	0
23810123	3008	2	0	-100	0	230	101300000	1000	0	0	-1	0
23822683	3008	0	0	-100	0	230	101300000	1000	0	0	-1	0
23835243	3008	0	0	-100	0	230	101300000	1000	0	0	-1	0
23847803	3012	0	0	-100	0	230	101300000	1000	0	0	-1	0
23860363	3016	0	0	-100	0	230	101300000	1000	0	0	-1	0
23872923	3015	0	0	-100	0	230	101300000	1000	0	0	-1	0
23885483	3008	0	0	-100	0	230	101300000	1000	0	0	-1	0
23898043	3008	0	0	-100	0	230	101300000	1000	0	0	-1	0
23910603	3008	2	0	-100	0	230	101300000	1000	0	0	-1	0
23923163	3005	1	0	-100	0	230	101300000	1000	0	0	-1	0
23935723	3008	2	0	-100	0	230	101300000	1000	0	0	-1	0
23948283	3007	4	0	-100	0	230	101300000	1000	0	0	-1	0
23960843	3009	0	0	-100	0	230	101300000	1000	0	0	-1	0
23973403	3009	0	0	-100	0	230	101300000	1000	0	0	-1	0
23985963	3011	0	0	-100	0	230	101300000	1000	0	0	-1	0
23998523	3014	0	0	-100	0	230	101300000	1000	0	0	-1	0
24011083	3013	0	0	-100	0	230	101300000	1000	0	0	-1	0
24023643	3013	0	0	-100	0	230	101300000	1000	0	0	-1	0
24036203	3014	0	0	-100	0	230	101300000	1000	0	0	-1	0
24048763	3013	0	0	-100	0	230	101300000	1000	0	0	-1	0
24061323	3006	0	0	-100	0	230	101300000	1000	0	0	-1	0
24073883	3008	0	0	-100	0	230	101300000	1000	0	0	-1	0
24086443	3008	4	0	-100	0	230	101300000	1000	0	0	-1	0
24099004	3012	0	0	-100	0	230	101300000	1000	0	0	-1	0
24111563	3008	4	0	-100	0	230	101300000	1000	0	0	-1	0
24124123	3007	0	0	-100	0	230	101300000	1000	0	0	-1	0
24136683	3008	0	0	-100	0	230	101300000	1000	0	0	-1	0
24149243	3010	0	0	-100	0	230	101300000	1000	0	0	-1	0
24161803	3015	0	0	-100	0	230	101300000	1000	0	0	-1	0
24174363	3012	0	0	-100	0	230	101300000	1000	0	0	-1	0
24186923	3012	0	0	-100	0	230	101300000	1000	0	0	-1	0
24199483	3015	0	0	-100	0	230	101300000	1000	0	0	-1	0
24212043	3014	0	0	-100	0	230	101300000	1000	0	0	-1	0
24224603	3015	0	0	-100	0	230	101300000	1000	0	0	-1	0
24237163	3008	0	0	-100	0	230	101300000	1000	0	0	-1	0
24249723	3008	0	0	-100	0	230	101300000	1000	0	0	-1	0
24262283	3008	0	0	-100	0	230	101300000	1000	0	0	-1	0
24274843	3008	1	0	-100	0	230	101300000	1000	0	0	-1	0
24287403	3006	4	0	-100	0	230	101300000	1000	0	0	-1	0
24299963	3008	3	0	-100	0	230	101300000	1000	0	0	-1	0
24312523	3005	3	0	-100	0	230	101300000	1000	0	0	-1	0
24325083	3007	3	0	-100	0	230	101300000	1000	0	0	-1	0
24337643	3009	1	0	-100	0	230	101300000	1000	0	0	-1	0
24350203	3011	2	0	-100	0	230	101300000	1000	0	0	-1	0
24362763	3007	0	0	-100	0	230	101300000	1000	0	0	-1	0
24375323	3005	0	0	-100	0	230	101300000	1000	0	0	-1	0
24387883	3006	0	0	-100	0	230	101300000	1000	0	0	-1	0
24400443	3013	0	0	-100	0	230	101300000	1000	0	0	-1	0
24413004	3004	1	0	-100	0	230	101300000	1000	0	0	-1	0
24425563	3016	0	0	-100	0	230	101300000	1000	0	0	-1	0
24438123	3018	0	0	-100	0	230	101300000	1000	0	0	-1	0
24450683	3009	0	0	-100	0	230	101300000	1000	0	0	-1	0
24463243	3012	0	0	-100	0	230	101300000	1000	0	0	-1	0
24475803	3010	0	0	-100	0	230	101300000	1000	0	0	-1	0
24488363	3010	0	0	-100	0	230	101300000	1000	0	0	-1	0
24500923	3009	0	0	-100	0	230	101300000	1000	0	0	-1	0
24513483	3009	0	0	-100	0	230	101300000	1000	0	0	-1	0
24526043	3009	0	0	-100	0	230	101300000	1000	0	0	-1	0
24538603	3008	1	0	-100	0	230	101300000	1000	0	0	-1	0
24551163	3005	3	0	-100	0	230	101300000	1000	0	0	-1	0
24563723	3008	3	0	-100	0	230	101300000	1000	0	0	-1	0
24576283	3007	3	0	-100	0	230	101300000	1000	0	0	-1	0
24588843	3010	3	0	-100	0	230	101300000	1000	0	0	-1	0
24601403	3004	0	0	-100	0	230	101300000	1000	0	0	-1	0
24613963	3007	0	0	-100	0	230	101300000	1000	0	0	-1	0
24626523	3010	0	0	-100	0	230	101300000	1000	0	0	-1	0
24639083	3014	0	0	-100	0	230	101300000	1000	0	0	-1	0
24651643	3013	0	0	-100	0	230	101300000	1000	0	0	-1	0
24664203	3011	0	0	-100	0	230	101300000	1000	0	0	-1	0
24676763	3016	0	0	-100	0	230	101300000	1000	0	0	-1	0
24689323	3016	0	0	-100	0	230	101300000	1000	0	0	-1	0
24701883	3018	0	0	-100	0	230	101300000	1000	0	0	-1	0
24714443	3009	0	0	-100	0	230	101300000	1000	0	0	-1	0
24727004	3007	0	0	-100	0	230	101300000	1000	0	0	-1	0
24739563	3007	1	0	-100	0	230	101300000	1000	0	0	-1	0
24752123	3010	0	0	-100	0	230	101300000	1000	0	0	-1	0
24764683	3013	0	0	-100	0	230	101300000	1000	0	0	-1	0
24777243	3015	0	0	-100	0	230	101300000	1000	0	0	-1	0
24789803	3016	0	0	-100	0	230	101300000	1000	0	0	-1	0
24802363	3013	0	0	-100	0	230	101300000	1000	0	0	-1	0
24814923	3012	0	0	-100	0	230	101300000	1000	0	0	-1	0
24827483	3013	0	0	-100	0	230	101300000	1000	0	0	-1	0
24840043	3013	0	0	-100	0	230	101300000	1000	0	0	-1	0
24852603	3013	0	0	-100	0	230	101300000	1000	0	0	-1	0
24865163	3013	0	0	-100	0	230	101300000	1000	0	0	-1	0
24877723	3014	0	0	-100	0	230	101300000	1000	0	0	-1	0
24890283	3009	0	0	-100	0	230	101300000	1000	0	0	-1	0
24902843	3009	1	0	-100	0	230	101300000	1000	0	0	-1	0
24915403	3007	1	0	-100	0	230	101300000	1000	0	0	-1	0
24927963	3004	1	0	-100	0	230	101300000	1000	0	0	-1	0
24940523	3008	2	0	-100	0	230	101300000	1000	0	0	-1	0
24953083	3008	3	0	-100	0	230	101300000	1000	0	0	-1	0
24965643	3008	3	0	-100	0	230	101300000	1000	0	0	-1	0
24978203	3007	0	0	-100	0	230	101300000	1000	0	0	-1	0
24990763	3006	0	0	-100	0	230	101300000	1000	0	0	-1	0
25003323	3007	0	0	-100	0	230	101300000	1000	0	0	-1	0
25015883	3006	0	0	-100	0	230	101300000	1000	0	0	-1	0
25028443	3007	0	0	-100	0	230	101300000	1000	0	0	-1	0
25041004	3011	0	0	-100	0	230	101300000	1000	0	0	-1	0
25053563	3011	0	0	-100	0	230	101300000	1000	0	0	-1	0
25066123	3012	0	0	-100	0	230	101300000	1000	0	0	-1	0
25078683	3015	0	0	-100	0	230	101300000	1000	0	0	-1	0
25091243	3011	0	0	-100	0	230	101300000	1000	0	0	-1	0
25103803	3008	0	0	-100	0	230	101300000	1000	0	0	-1	0
25116363	3007	1	0	-100	0	230	101300000	1000	0	0	-1	0
25128923	3010	2	0	-100	0	230	101300000	1000	0	0	-1	0
25141483	3005	0	0	-100	0	230	101300000	1000	0	0	-1	0
25154043	3008	0	0	-100	0	230	101300000	1000	0	0	-1	0
25166603	3009	0	0	-100	0	230	101300000	1000	0	0	-1	0
25179163	3014	0	0	-100	0	230	101300000	1000	0	0	-1	0
25191723	3011	0	0	-100	0	230	101300000	1000	0	0	-1	0
25204283	3006	0	0	-100	0	230	101300000	1000	0	0	-1	0
25216843	3008	3	0	-100	0	230	101300000	1000	0	0	-1	0
25229403	3008	0	0	-100	0	230	101300000	1000	0	0	-1	0
25241963	3014	0	0	-100	0	230	101300000	1000	0	0	-1	0
25254523	3011	0	0	-100	0	230	101300000	1000	0	0	-1	0
25267083	3004	0	0	-100	0	230	101300000	1000	0	0	-1	0
25279643	3008	4	0	-100	0	230	101300000	1000	0	0	-1	0
25292203	3008	0	0	-100	0	230	101300000	1000	0	0	-1	0
25304763	3014	0	0	-100	0	230	101300000	1000	0	0	-1	0
25317323	3009	0	0	-100	0	230	101300000	1000	0	0	-1	0
25329883	3006	0	0	-100	0	230	101300000	1000	0	0	-1	0
25342443	3006	2	0	-100	0	230	101300000	1000	0	0	-1	0
25355004	3006	0	0	-100	0	230	101300000	1000	0	0	-1	0
25367563	3013	0	0	-100	0	230	101300000	1000	0	0	-1	0
25380123	3009	0	0	-100	0	230	101300000	1000	0	0	-1	0
25392683	3008	3	0	-100	0	230	101300000	1000	0	0	-1	0
25405243	3014	0	0	-100	0	230	101300000	1000	0	0	-1	0
25417803	3008	0	0	-100	0	230	101300000	1000	0	0	-1	0
25430363	3007	4	0	-100	0	230	101300000	1000	0	0	-1	0
25442923	3010	0	0	-100	0	230	101300000	1000	0	0	-1	0
25455483	3016	0	0	-100	0	230	101300000	1000	0	0	-1	0
25468043	3008	0	0	-100	0	230	101300000	1000	0	0	-1	0
25480603	3008	1	0	-100	0	230	101300000	1000	0	0	-1	0
25493163	3016	0	0	-100	0	230	101300000	1000	0	0	-1	0
25505723	3008	0	0	-100	0	230	101300000	1000	0	0	-1	0
25518283	3008	0	0	-100	0	230	101300000	1000	0	0	-1	0
25530843	3008	0	0	-100	0	230	101300000	1000	0	0	-1	0
25543403	3012	0	0	-100	0	230	101300000	1000	0	0	-1	0
25555963	3005	0	0	-100	0	230	101300000	1000	0	0	-1	0
25568523	3005	3	0	-100	0	230	101300000	1000	0	0	-1	0
25581083	3012	0	0	-100	0	230	101300000	1000	0	0	-1	0
25593643	3012	0	0	-100	0	230	101300000	1000	0	0	-1	0
25606203	3006	4	0	-100	0	230	101300000	1000	0	0	-1	0
25618763	3014	0	0	-100	0	230	101300000	1000	0	0	-1	0
25631323	3008	0	0	-100	0	230	101300000	1000	0	0	-1	0
25643883	3009	4	0	-100	0	230	101300000	1000	0	0	-1	0
25656443	3013	0	0	-100	0	230	101300000	1000	0	0	-1	0
25669004	3006	0	0	-100	0	230	101300000	1000	0	0	-1	0
25681563	3004	0	0	-100	0	230	101300000	1000	0	0	-1	0
25694123	3013	0	0	-100	0	230	101300000	1000	0	0	-1	0
25706683	3005	0	0	-100	0	230	101300000	1000	0	0	-1	0
25719243	3011	0	0	-100	0	230	101300000	1000	0	0	-1	0
25731803	3006	4	0	-100	0	230	101300000	1000	0	0	-1	0
25744363	3014	0	0	-100	0	230	101300000	1000	0	0	-1	0
25756923	3007	3	0	-100	0	230	101300000	1000	0	0	-1	0
25769483	3013	0	0	-100	0	230	101300000	1000	0	0	-1	0
25782043	3008	2	0	-100	0	230	101300000	1000	0	0	-1	0
25794603	3014	0	0	-100	0	230	101300000	1000	0	0	-1	0
25807163	3006	0	0	-100	0	230	101300000	1000	0	0	-1	0
25819723	3008	0	0	-100	0	230	101300000	1000	0	0	-1	0
25832283	3011	0	0	-100	0	230	101300000	1000	0	0	-1	0
25844843	3009	0	0	-100	0	230	101300000	1000	0	0	-1	0
25857403	3009	0	0	-100	0	230	101300000	1000	0	0	-1	0
25869963	3008	0	0	-100	0	230	101300000	1000	0	0	-1	0
25882523	3007	3	0	-100	0	230	101300000	1000	0	0	-1	0
25895083	3016	0	0	-100	0	230	101300000	1000	0	0	-1	0
25907643	3007	0	0	-100	0	230	101300000	1000	0	0	-1	0
25920203	3008	0	0	-100	0	230	101300000	1000	0	0	-1	0
25932763	3012	0	0	-100	0	230	101300000	1000	0	0	-1	0
25945323	3008	3	0	-100	0	230	101300000	1000	0	0	-1	0
25957883	3012	0	0	-100	0	230	101300000	1000	0	0	-1	0
25970443	3005	0	0	-100	0	230	101300000	1000	0	0	-1	0
25983004	3012	0	0	-100	0	230	101300000	1000	0	0	-1	0
25995563	3008	0	0	-100	0	230	101300000	1000	0	0	-1	0
26008123	3016	0	0	-100	0	230	101300000	1000	0	0	-1	0
26020683	3013	0	0	-100	0	230	101300000	1000	0	0	-1	0
26033243	3009	0	0	-100	0	230	101300000	1000	0	0	-1	0
26045803	3007	0	0	-100	0	230	101300000	1000	0	0	-1	0
26058363	3006	0	0	-100	0	230	101300000	1000	0	0	-1	0
26070923	3015	0	0	-100	0	230	101300000	1000	0	0	-1	0
26083483	3014	0	0	-100	0	230	101300000	1000	0	0	-1	0
26096043	3010	0	0	-100	0	230	101300000	1000	0	0	-1	0
26108603	3007	0	0	-100	0	230	101300000	1000	0	0	-1	0
26121163	3009	0	0	-100	0	230	101300000	1000	0	0	-1	0
26133723	3008	3	0	-100	0	230	101300000	1000	0	0	-1	0
26146283	3007	2	0	-100	0	230	101300000	1000	0	0	-1	0
26158843	3009	0	0	-100	0	230	101300000	1000	0	0	-1	0
26171403	3015	0	0	-100	0	230	101300000	1000	0	0	-1	0
26183963	3006	0	0	-100	0	230	101300000	1000	0	0	-1	0
26196523	3007	3	0	-100	0	230	101300000	1000	0	0	-1	0
26209083	3010	0	0	-100	0	230	101300000	1000	0	0	-1	0
26221643	3013	0	0	-100	0	230	101300000	1000	0	0	-1	0
26234203	3010	0	0	-100	0	230	101300000	1000	0	0	-1	0
26246763	3005	0	0	-100	0	230	101300000	1000	0	0	-1	0
26259323	3012	0	0	-100	0	230	101300000	1000	0	0	-1	0
26271883	3008	0	0	-100	0	230	101300000	1000	0	0	-1	0
26284443	3007	4	0	-100	0	230	101300000	1000	0	0	-1	0
26297004	3004	4	0	-100	0	230	101300000	1000	0	0	-1	0
26309563	3009	0	0	-100	0	230	101300000	1000	0	0	-1	0
26322123	3007	3	0	-100	0	230	101300000	1000	0	0	-1	0
26334683	3014	0	0	-100	0	230	101300000	1000	0	0	-1	0
26347243	3009	0	0	-100	0	230	101300000	1000	0	0	-1	0
26359803	3005	2	0	-100	0	230	101300000	1000	0	0	-1	0
26372363	3014	0	0	-100	0	230	101300000	1000	0	0	-1	0
26384923	3010	0	0	-100	0	230	101300000	1000	0	0	-1	0
26397483	3007	4	0	-100	0	230	101300000	1000	0	0	-1	0
26410043	3015	0	0	-100	0	230	101300000	1000	0	0	-1	0
26422603	3009	0	0	-100	0	230	101300000	1000	0	0	-1	0
26435163	3008	1	0	-100	0	230	101300000	1000	0	0	-1	0
26447723	3012	0	0	-100	0	230	101300000	1000	0	0	-1	0
26460283	3010	4	0	-100	0	230	101300000	1000	0	0	-1	0
26472843	3016	0	0	-100	0	230	101300000	1000	0	0	-1	0
26485403	3006	0	0	-100	0	230	101300000	1000	0	0	-1	0
26497963	3004	0	0	-100	0	230	101300000	1000	0	0	-1	0
26510523	3014	0	0	-100	0	230	101300000	1000	0	0	-1	0
26523083	3015	0	0	-100	0	230	101300000	1000	0	0	-1	0
26535643	3010	0	0	-100	0	230	101300000	1000	0	0	-1	0
26548203	3007	3	0	-100	0	230	101300000	1000	0	0	-1	0
26560763	3011	0	0	-100	0	230	101300000	1000	0	0	-1	0
26573323	3016	0	0	-100	0	230	101300000	1000	0	0	-1	0
26585883	3012	0	0	-100	0	230	101300000	1000	0	0	-1	0
26598443	3007	0	0	-100	0	230	101300000	1000	0	0	-1	0
26611004	3012	0	0	-100	0	230	101300000	1000	0	0	-1	0
26623563	3006	0	0	-100	0	230	101300000	1000	0	0	-1	0
26636123	3014	0	0	-100	0	230	101300000	1000	0	0	-1	0
26648683	3015	0	0	-100	0	230	101300000	1000	0	0	-1	0
26661243	3010	0	0	-100	0	230	101300000	1000	0	0	-1	0
26673803	3008	0	0	-100	0	230	101300000	1000	0	0	-1	0
26686363	3008	2	0	-100	0	230	101300000	1000	0	0	-1	0
26698923	3007	1	0	-100	0	230	101300000	1000	0	0	-1	0
26711483	3015	0	0	-100	0	230	101300000	1000	0	0	-1	0
26724043	3013	0	0	-100	0	230	101300000	1000	0	0	-1	0
26736603	3012	0	0	-100	0	230	101300000	1000	0	0	-1	0
26749163	3008	0	0	-100	0	230	101300000	1000	0	0	-1	0
26761723	3007	0	0	-100	0	230	101300000	1000	0	0	-1	0
26774283	3007	3	0	-100	0	230	101300000	1000	0	0	-1	0
26786843	3005	0	0	-100	0	230	101300000	1000	0	0	-1	0
26799403	3015	0	0	-100	0	230	101300000	1000	0	0	-1	0
26811963	3014	0	0	-100	0	230	101300000	1000	0	0	-1	0
26824523	3006	0	0	-100	0	230	101300000	1000	0	0	-1	0
26837083	3008	4	0	-100	0	230	101300000	1000	0	0	-1	0
26849643	3008	0	0	-100	0	230	101300000	1000	0	0	-1	0
26862203	3012	0	0	-100	0	230	101300000	1000	0	0	-1	0
26874763	3009	0	0	-100	0	230	101300000	1000	0	0	-1	0
26887323	3006	0	0	-100	0	230	101300000	1000	0	0	-1	0
26899883	3008	4	0	-100	0	230	101300000	1000	0	0	-1	0
26912443	3007	4	0	-100	0	230	101300000	1000	0	0	-1	0
26925004	3005	0	0	-100	0	230	101300000	1000	0	0	-1	0
26937563	3014	0	0	-100	0	230	101300000	1000	0	0	-1	0
26950123	3014	0	0	-100	0	230	101300000	1000	0	0	-1	0
26962683	3008	0	0	-100	0	230	101300000	1000	0	0	-1	0
26975243	3008	4	0	-100	0	230	101300000	1000	0	0	-1	0
26987803	3012	0	0	-100	0	230	101300000	1000	0	0	-1	0
27000363	3011	0	0	-100	0	230	101300000	1000	0	0	-1	0
27012923	3006	0	0	-100	0	230	101300000	1000	0	0	-1	0
27025483	3005	3	0	-100	0	230	101300000	1000	0	0	-1	0
27038043	3008	0	0	-100	0	230	101300000	1000	0	0	-1	0
27050603	3015	0	0	-100	0	230	101300000	1000	0	0	-1	0
27063163	3012	0	0	-100	0	230	101300000	1000	0	0	-1	0
27075723	3007	0	0	-100	0	230	101300000	1000	0	0	-1	0
27088283	3008	0	0	-100	0	230	101300000	1000	0	0	-1	0
27100843	3009	4	0	-100	0	230	101300000	1000	0	0	-1	0
27113403	3004	0	0	-100	0	230	101300000	1000	0	0	-1	0
27125963	3016	0	0	-100	0	230	101300000	1000	0	0	-1	0
27138523	3012	0	0	-100	0	230	101300000	1000	0	0	-1	0
27151083	3007	0	0	-100	0	230	101300000	1000	0	0	-1	0
27163643	3007	1	0	-100	0	230	101300000	1000	0	0	-1	0
27176203	3010	0	0	-100	0	230	101300000	1000	0	0	-1	0
27188763	3014	0	0	-100	0	230	101300000	1000	0	0	-1	0
27201323	3007	0	0	-100	0	230	101300000	1000	0	0	-1	0
27213883	3007	3	0	-100	0	230	101300000	1000	0	0	-1	0
27226443	3010	0	0	-100	0	230	101300000	1000	0	0	-1	0
27239004	3008	2	0	-100	0	230	101300000	1000	0	0	-1	0
27251563	3008	0	0	-100	0	230	101300000	1000	0	0	-1	0
27264123	3005	2	0	-100	0	230	101300000	1000	0	0	-1	0
27276683	3009	0	0	-100	0	230	101300000	1000	0	0	-1	0
27289243	3016	0	0	-100	0	230	101300000	1000	0	0	-1	0
27301803	3016	0	0	-100	0	230	101300000	1000	0	0	-1	0
27314363	3007	0	0	-100	0	230	101300000	1000	0	0	-1	0
27326923	3008	0	0	-100	0	230	101300000	1000	0	0	-1	0
27339483	3008	2	0	-100	0	230	101300000	1000	0	0	-1	0
27352043	3004	1	0	-100	0	230	101300000	1000	0	0	-1	0
27364603	3009	0	0	-100	0	230	101300000	1000	0	0	-1	0
27377163	3016	0	0	-100	0	230	101300000	1000	0	0	-1	0
27389723	3013	0	0	-100	0	230	101300000	1000	0	0	-1	0
27402283	3014	0	0	-100	0	230	101300000	1000	0	0	-1	0
27414843	3008	0	0	-100	0	230	101300000	1000	0	0	-1	0
27427403	3008	4	0	-100	0	230	101300000	1000	0	0	-1	0
27439963	3008	0	0	-100	0	230	101300000	1000	0	0	-1	0
27452523	3012	0	0	-100	0	230	101300000	1000	0	0	-1	0
27465083	3013	0	0	-100	0	230	101300000	1000	0	0	-1	0
27477643	3007	0	0	-100	0	230	101300000	1000	0	0	-1	0
27490203	3006	4	0	-100	0	230	101300000	1000	0	0	-1	0
27502763	3007	0	0	-100	0	230	101300000	1000	0	0	-1	0
27515323	3012	0	0	-100	0	230	101300000	1000	0	0	-1	0
27527883	3011	0	0	-100	0	230	101300000	1000	0	0	-1	0
27540443	3005	0	0	-100	0	230	101300000	1000	0	0	-1	0
27553004	3011	0	0	-100	0	230	101300000	1000	0	0	-1	0
27565563	3008	0	0	-100	0	230	101300000	1000	0	0	-1	0
27578123	3013	0	0	-100	0	230	101300000	1000	0	0	-1	0
27590683	3009	0	0	-100	0	230	101300000	1000	0	0	-1	0
27603243	3010	2	0	-100	0	230	101300000	1000	0	0	-1	0
27615803	3005	0	0	-100	0	230	101300000	1000	0	0	-1	0
27628363	3016	0	0	-100	0	230	101300000	1000	0	0	-1	0
27640923	3012	0	0	-100	0	230	101300000	1000	0	0	-1	0
27653483	3005	0	0	-100	0	230	101300000	1000	0	0	-1	0
27666043	3008	3	0	-100	0	230	101300000	1000	0	0	-1	0
27678603	3012	0	0	-100	0	230	101300000	1000	0	0	-1	0
27691163	3015	0	0	-100	0	230	101300000	1000	0	0	-1	0
27703723	3014	0	0	-100	0	230	101300000	1000	0	0	-1	0
27716283	3014	0	0	-100	0	230	101300000	1000	0	0	-1	0
27728843	3012	0	0	-100	0	230	101300000	1000	0	0	-1	0
27741403	3012	0	0	-100	0	230	101300000	1000	0	0	-1	0
27753963	3008	0	0	-100	0	230	101300000	1000	0	0	-1	0
27766523	3013	0	0	-100	0	230	101300000	1000	0	0	-1	0
27779083	3005	1	0	-100	0	230	101300000	1000	0	0	-1	0
27791643	3007	1	0	-100	0	230	101300000	1000	0	0	-1	0
27804203	3005	0	0	-100	0	230	101300000	1000	0	0	-1	0
27816763	3004	2	0	-100	0	230	101300000	1000	0	0	-1	0
27829323	3008	3	0	-100	0	230	101300000	1000	0	0	-1	0
27841883	3008	4	0	-100	0	230	101300000	1000	0	0	-1	0
27854443	3009	2	0	-100	0	230	101300000	1000	0	0	-1	0
27867004	3014	0	0	-100	0	230	101300000	1000	0	0	-1	0
27879563	3007	0	0	-100	0	230	101300000	1000	0	0	-1	0
27892123	3006	0	0	-100	0	230	101300000	1000	0	0	-1	0
27904683	3008	0	0	-100	0	230	101300000	1000	0	0	-1	0
27917243	3010	0	0	-100	0	230	101300000	1000	0	0	-1	0
27929803	3014	0	0	-100	0	230	101300000	1000	0	0	-1	0
27942363	3016	0	0	-100	0	230	101300000	1000	0	0	-1	0
27954923	3014	0	0	-100	0	230	101300000	1000	0	0	-1	0
27967483	3011	0	0	-100	0	230	101300000	1000	0	0	-1	0
27980043	3010	0	0	-100	0	230	101300000	1000	0	0	-1	0
27992603	3008	3	0	-100	0	230	101300000	1000	0	0	-1	0
28005163	3005	1	0	-100	0	230	101300000	1000	0	0	-1	0
28017723	3013	0	0	-100	0	230	101300000	1000	0	0	-1	0
28030283	3008	0	0	-100	0	230	101300000	1000	0	0	-1	0
28042843	3007	2	0	-100	0	230	101300000	1000	0	0	-1	0
28055403	3015	0	0	-100	0	230	101300000	1000	0	0	-1	0
28067963	3005	0	0	-100	0	230	101300000	1000	0	0	-1	0
28080523	3008	1	0	-100	0	230	101300000	1000	0	0	-1	0
28093083	3013	0	0	-100	0	230	101300000	1000	0	0	-1	0
28105643	3013	0	0	-100	0	230	101300000	1000	0	0	-1	0
28118203	3012	0	0	-100	0	230	101300000	1000	0	0	-1	0
28130763	3006	0	0	-100	0	230	101300000	1000	0	0	-1	0
28143323	3007	0	0	-100	0	230	101300000	1000	0	0	-1	0
28155883	3009	2	0	-100	0	230	101300000	1000	0	0	-1	0
28168443	3009	3	0	-100	0	230	101300000	1000	0	0	-1	0
28181004	3008	0	0	-100	0	230	101300000	1000	0	0	-1	0
28193563	3016	0	0	-100	0	230	101300000	1000	0	0	-1	0
28206123	3012	0	0	-100	0	230	101300000	1000	0	0	-1	0
28218683	3014	0	0	-100	0	230	101300000	1000	0	0	-1	0
28231243	3013	0	0	-100	0	230	101300000	1000	0	0	-1	0
28243803	3011	0	0	-100	0	230	101300000	1000	0	0	-1	0
28256363	3013	0	0	-100	0	230	101300000	1000	0	0	-1	0
28268923	3016	0	0	-100	0	230	101300000	1000	0	0	-1	0
28281483	3008	0	0	-100	0	230	101300000	1000	0	0	-1	0
28294043	3004	1	0	-100	0	230	101300000	1000	0	0	-1	0
28306603	3007	3	0	-100	0	230	101300000	1000	0	0	-1	0
28319163	3007	3	0	-100	0	230	101300000	1000	0	0	-1	0
28331723	3008	0	0	-100	0	230	101300000	1000	0	0	-1	0
28344283	3008	0	0	-100	0	230	101300000	1000	0	0	-1	0
28356843	3004	0	0	-100	0	230	101300000	1000	0	0	-1	0
28369403	3008	0	0	-100	0	230	101300000	1000	0	0	-1	0
28381963	3009	0	0	-100	0	230	101300000	1000	0	0	-1	0
28394523	3012	0	0	-100	0	230	101300000	1000	0	0	-1	0
28407083	3012	0	0	-100	0	230	101300000	1000	0	0	-1	0
28419643	3010	0	0	-100	0	230	101300000	1000	0	0	-1	0
28432203	3008	0	0	-100	0	230	101300000	1000	0	0	-1	0
28444763	3007	0	0	-100	0	230	101300000	1000	0	0	-1	0
28457323	3006	0	0	-100	0	230	101300000	1000	0	0	-1	0
28469883	3009	4	0	-100	0	230	101300000	1000	0	0	-1	0
28482443	3004	2	0	-100	0	230	101300000	1000	0	0	-1	0
28495004	3007	0	0	-100	0	230	101300000	1000	0	0	-1	0
28507563	3010	0	0	-100	0	230	101300000	1000	0	0	-1	0
28520123	3006	0	0	-100	0	230	101300000	1000	0	0	-1	0
28532683	3004	2	0	-100	0	230	101300000	1000	0	0	-1	0
28545243	3008	1	0	-100	0	230	101300000	1000	0	0	-1	0
28557803	3006	2	0	-100	0	230	101300000	1000	0	0	-1	0
28570363	3007	4	0	-100	0	230	101300000	1000	0	0	-1	0
28582923	3008	3	0	-100	0	230	101300000	1000	0	0	-1	0
28595483	3007	3	0	-100	0	230	101300000	1000	0	0	-1	0
28608043	3009	4	0	-100	0	230	101300000	1000	0	0	-1	0
28620603	3008	2	0	-100	0	230	101300000	1000	0	0	-1	0
28633163	3006	0	0	-100	0	230	101300000	1000	0	0	-1	0
28645723	3007	1	0	-100	0	230	101300000	1000	0	0	-1	0
28658283	3008	4	0	-100	0	230	101300000	1000	0	0	-1	0
28670843	3008	3	0	-100	0	230	101300000	1000	0	0	-1	0
28683403	3008	4	0	-100	0	230	101300000	1000	0	0	-1	0
28695963	3008	4	0	-100	0	230	101300000	1000	0	0	-1	0
28708523	3008	0	0	-100	0	230	101300000	1000	0	0	-1	0
28721083	3008	0	0	-100	0	230	101300000	1000	0	0	-1	0
28733643	3011	0	0	-100	0	230	101300000	1000	0	0	-1	0
28746203	3010	0	0	-100	0	230	101300000	1000	0	0	-1	0
28758763	3012	0	0	-100	0	230	101300000	1000	0	0	-1	0
28771323	3013	0	0	-100	0	230	101300000	1000	0	0	-1	0
28783883	3008	0	0	-100	0	230	101300000	1000	0	0	-1	0
28796443	3007	3	0	-100	0	230	101300000	1000	0	0	-1	0
28809004	3011	0	0	-100	0	230	101300000	1000	0	0	-1	0
28821563	3007	0	0	-100	0	230	101300000	1000	0	0	-1	0
28834123	3012	0	0	-100	0	230	101300000	1000	0	0	-1	0
28846683	3012	0	0	-100	0	230	101300000	1000	0	0	-1	0
28859243	3013	0	0	-100	0	230	101300000	1000	0	0	-1	0
28871803	3008	3	0	-100	0	230	101300000	1000	0	0	-1	0
28884363	3008	0	0	-100	0	230	101300000	1000	0	0	-1	0
28896923	3004	0	0	-100	0	230	101300000	1000	0	0	-1	0
28909483	3009	0	0	-100	0	230	101300000	1000	0	0	-1	0
28922043	3012	0	0	-100	0	230	101300000	1000	0	0	-1	0
28934603	3014	0	0	-100	0	230	101300000	1000	0	0	-1	0
28947163	3008	0	0	-100	0	230	101300000	1000	0	0	-1	0
28959723	3007	2	0	-100	0	230	101300000	1000	0	0	-1	0
28972283	3006	3	0	-100	0	230	101300000	1000	0	0	-1	0
28984843	3007	3	0	-100	0	230	101300000	1000	0	0	-1	0
28997403	3008	4	0	-100	0	230	101300000	1000	0	0	-1	0
29009963	3008	3	0	-100	0	230	101300000	1000	0	0	-1	0
29022523	3009	4	0	-100	0	230	101300000	1000	0	0	-1	0
29035083	3004	4	0	-100	0	230	101300000	1000	0	0	-1	0
29047643	3008	4	0	-100	0	230	101300000	1000	0	0	-1	0
29060203	3008	2	0	-100	0	230	101300000	1000	0	0	-1	0
29072763	3007	3	0	-100	0	230	101300000	1000	0	0	-1	0
29085323	3008	0	0	-100	0	230	101300000	1000	0	0	-1	0
29097883	3007	2	0	-100	0	230	101300000	1000	0	0	-1	0
29110443	3005	0	0	-100	0	230	101300000	1000	0	0	-1	0
29123004	3008	0	0	-100	0	230	101300000	1000	0	0	-1	0
29135563	3008	0	0	-100	0	230	101300000	1000	0	0	-1	0
29148123	3008	0	0	-100	0	230	101300000	1000	0	0	-1	0
29160683	3008	0	0	-100	0	230	101300000	1000	0	0	-1	0
29173243	3008	0	0	-100	0	230	101300000	1000	0	0	-1	0
29185803	3011	0	0	-100	0	230	101300000	1000	0	0	-1	0
29198363	3012	0	0	-100	0	230	101300000	1000	0	0	-1	0
29210923	3016	0	0	-100	0	230	101300000	1000	0	0	-1	0
29223483	3010	0	0	-100	0	230	101300000	1000	0	0	-1	0
29236043	3013	0	0	-100	0	230	101300000	1000	0	0	-1	0
29248603	3013	0	0	-100	0	230	101300000	1000	0	0	-1	0
29261163	3013	0	0	-100	0	230	101300000	1000	0	0	-1	0
29273723	3013	0	0	-100	0	230	101300000	1000	0	0	-1	0
29286283	3009	0	0	-100	0	230	101300000	1000	0	0	-1	0
29298843	3009	0	0	-100	0	230	101300000	1000	0	0	-1	0
29311403	3009	0	0	-100	0	230	101300000	1000	0	0	-1	0
29323963	3006	2	0	-100	0	230	101300000	1000	0	0	-1	0
29336523	3009	0	0	-100	0	230	101300000	1000	0	0	-1	0
29349083	3012	0	0	-100	0	230	101300000	1000	0	0	-1	0
29361643	3018	0	0	-100	0	230	101300000	1000	0	0	-1	0
29374203	3012	0	0	-100	0	230	101300000	1000	0	0	-1	0
29386763	3016	0	0	-100	0	230	101300000	1000	0	0	-1	0
29399323	3009	0	0	-100	0	230	101300000	1000	0	0	-1	0
29411883	3008	0	0	-100	0	230	101300000	1000	0	0	-1	0
29424443	3006	0	0	-100	0	230	101300000	1000	0	0	-1	0
29437004	3013	0	0	-100	0	230	101300000	1000	0	0	-1	0
29449563	3006	4	0	-100	0	230	101300000	1000	0	0	-1	0
29462123	3008	4	0	-100	0	230	101300000	1000	0	0	-1	0
29474683	3008	1	0	-100	0	230	101300000	1000	0	0	-1	0
29487243	3009	0	0	-100	0	230	101300000	1000	0	0	-1	0
29499803	3012	0	0	-100	0	230	101300000	1000	0	0	-1	0
29512363	3013	0	0	-100	0	230	101300000	1000	0	0	-1	0
29524923	3013	0	0	-100	0	230	101300000	1000	0	0	-1	0
29537483	3008	0	0	-100	0	230	101300000	1000	0	0	-1	0
29550043	3006	0	0	-100	0	230	101300000	1000	0	0	-1	0
29562603	3009	0	0	-100	0	230	101300000	1000	0	0	-1	0
29575163	3008	2	0	-100	0	230	101300000	1000	0	0	-1	0
29587723	3008	3	0	-100	0	230	101300000	1000	0	0	-1	0
29600283	3005	0	0	-100	0	230	101300000	1000	0	0	-1	0
29612843	3009	0	0	-100	0	230	101300000	1000	0	0	-1	0
29625403	3014	0	0	-100	0	230	101300000	1000	0	0	-1	0
29637963	3013	0	0	-100	0	230	101300000	1000	0	0	-1	0
29650523	3013	0	0	-100	0	230	101300000	1000	0	0	-1	0
29663083	3015	0	0	-100	0	230	101300000	1000	0	0	-1	0
29675643	3009	0	0	-100	0	230	101300000	1000	0	0	-1	0
29688203	3006	0	0	-100	0	230	101300000	1000	0	0	-1	0
29700763	3010	2	0	-100	0	230	101300000	1000	0	0	-1	0
29713323	3008	2	0	-100	0	230	101300000	1000	0	0	-1	0
29725883	3006	4	0	-100	0	230	101300000	1000	0	0	-1	0
29738443	3009	3	0	-100	0	230	101300000	1000	0	0	-1	0
29751004	3012	0	0	-100	0	230	101300000	1000	0	0	-1	0
29763563	3008	3	0	-100	0	230	101300000	1000	0	0	-1	0
29776123	3008	2	0	-100	0	230	101300000	1000	0	0	-1	0
29788683	3010	0	0	-100	0	230	101300000	1000	0	0	-1	0
29801243	3008	0	0	-100	0	230	101300000	1000	0	0	-1	0
29813803	3006	1	0	-100	0	230	101300000	1000	0	0	-1	0
29826363	3005	0	0	-100	0	230	101300000	1000	0	0	-1	0
29838923	3011	0	0	-100	0	230	101300000	1000	0	0	-1	0
29851483	3009	0	0	-100	0	230	101300000	1000	0	0	-1	0
29864043	3011	0	0	-100	0	230	101300000	1000	0	0	-1	0
29876603	3012	0	0	-100	0	230	101300000	1000	0	0	-1	0
29889163	3013	0	0	-100	0	230	101300000	1000	0	0	-1	0
29901723	3011	0	0	-100	0	230	101300000	1000	0	0	-1	0
29914283	3007	0	0	-100	0	230	101300000	1000	0	0	-1	0
29926843	3007	0	0	-100	0	230	101300000	1000	0	0	-1	0
29939403	3008	0	0	-100	0	230	101300000	1000	0	0	-1	0
29951963	3004	0	0	-100	0	230	101300000	1000	0	0	-1	0
29964523	3009	0	0	-100	0	230	101300000	1000	0	0	-1	0
29977083	3010	3	0	-100	0	230	101300000	1000	0	0	-1	0
29989643	3007	4	0	-100	0	230	101300000	1000	0	0	-1	0
30002203	3006	4	0	-100	0	230	101300000	1000	0	0	-1	0
30014763	3004	2	0	-100	0	230	101300000	1000	0	0	-1	0
30027323	3008	0	0	-100	0	230	101300000	1000	0	0	-1	0
30039883	3010	0	0	-100	0	230	101300000	1000	0	0	-1	0
30052443	3016	0	0	-100	0	230	101300000	1000	0	0	-1	0
30065004	3004	3	0	-100	0	230	101300000	1000	0	0	-1	0
30077563	3013	0	0	-100	0	230	101300000	1000	0	0	-1	0
30090123	3012	0	0	-100	0	230	101300000	1000	0	0	-1	0
30102683	3014	0	0	-100	0	230	101300000	1000	0	0	-1	0
30115243	3013	0	0	-100	0	230	101300000	1000	0	0	-1	0
30127803	3012	0	0	-100	0	230	101300000	1000	0	0	-1	0
30140363	3011	0	0	-100	0	230	101300000	1000	0	0	-1	0
30152923	3009	0	0	-100	0	230	101300000	1000	0	0	-1	0
30165483	3009	0	0	-100	0	230	101300000	1000	0	0	-1	0
30178043	3007	0	0	-100	0	230	101300000	1000	0	0	-1	0
30190603	3008	1	0	-100	0	230	101300000	1000	0	0	-1	0
30203163	3007	4	0	-100	0	230	101300000	1000	0	0	-1	0
30215723	3004	3	0	-100	0	230	101300000	1000	0	0	-1	0
30228283	3007	3	0	-100	0	230	101300000	1000	0	0	-1	0
30240843	3012	0	0	-100	0	230	101300000	1000	0	0	-1	0
30253403	3012	0	0	-100	0	230	101300000	1000	0	0	-1	0
30265963	3008	0	0	-100	0	230	101300000	1000	0	0	-1	0
30278523	3008	0	0	-100	0	230	101300000	1000	0	0	-1	0
30291083	3007	3	0	-100	0	230	101300000	1000	0	0	-1	0
30303643	3005	1	0	-100	0	230	101300000	1000	0	0	-1	0
30316203	3009	0	0	-100	0	230	101300000	1000	0	0	-1	0
30328763	3012	0	0	-100	0	230	101300000	1000	0	0	-1	0
30341323	3012	0	0	-100	0	230	101300000	1000	0	0	-1	0
30353883	3008	0	0	-100	0	230	101300000	1000	0	0	-1	0
30366443	3009	0	0	-100	0	230	101300000	1000	0	0	-1	0
30379004	3012	0	0	-100	0	230	101300000	1000	0	0	-1	0
30391563	3008	0	0	-100	0	230	101300000	1000	0	0	-1	0
30404123	3007	0	0	-100	0	230	101300000	1000	0	0	-1	0
30416683	3009	0	0	-100	0	230	101300000	1000	0	0	-1	0
30429243	3008	0	0	-100	0	230	101300000	1000	0	0	-1	0
30441803	3007	0	0	-100	0	230	101300000	1000	0	0	-1	0
30454363	3008	0	0	-100	0	230	101300000	1000	0	0	-1	0
30466923	3010	0	0	-100	0	230	101300000	1000	0	0	-1	0
30479483	3008	0	0	-100	0	230	101300000	1000	0	0	-1	0
30492043	3011	0	0	-100	0	230	101300000	1000	0	0	-1	0
30504603	3013	0	0	-100	0	230	101300000	1000	0	0	-1	0
30517163	3012	0	0	-100	0	230	101300000	1000	0	0	-1	0
30529723	3014	0	0	-100	0	230	101300000	1000	0	0	-1	0
30542283	3014	0	0	-100	0	230	101300000	1000	0	0	-1	0
30554843	3014	0	0	-100	0	230	101300000	1000	0	0	-1	0
30567403	3012	0	0	-100	0	230	101300000	1000	0	0	-1	0
30579963	3008	0	0	-100	0	230	101300000	1000	0	0	-1	0
30592523	3008	0	0	-100	0	230	101300000	1000	0	0	-1	0
30605083	3004	1	0	-100	0	230	101300000	1000	0	0	-1	0
30617643	3006	3	0	-100	0	230	101300000	1000	0	0	-1	0
30630203	3009	4	0	-100	0	230	101300000	1000	0	0	-1	0
30642763	3010	0	0	-100	0	230	101300000	1000	0	0	-1	0
30655323	3008	0	0	-100	0	230	101300000	1000	0	0	-1	0
30667883	3014	0	0	-100	0	230	101300000	1000	0	0	-1	0
30680443	3014	0	0	-100	0	230	101300000	1000	0	0	-1	0
30693004	3004	4	0	-100	0	230	101300000	1000	0	0	-1	0
30705563	3012	0	0	-100	0	230	101300000	1000	0	0	-1	0
30718123	3007	0	0	-100	0	230	101300000	1000	0	0	-1	0
30730683	3008	4	0	-100	0	230	101300000	1000	0	0	-1	0
30743243	3007	0	0	-100	0	230	101300000	1000	0	0	-1	0
30755803	3005	0	0	-100	0	230	101300000	1000	0	0	-1	0
30768363	3007	0	0	-100	0	230	101300000	1000	0	0	-1	0
30780923	3007	0	0	-100	0	230	101300000	1000	0	0	-1	0
30793483	3008	0	0	-100	0	230	101300000	1000	0	0	-1	0
30806043	3008	0	0	-100	0	230	101300000	1000	0	0	-1	0
30818603	3009	0	0	-100	0	230	101300000	1000	0	0	-1	0
30831163	3008	0	0	-100	0	230	101300000	1000	0	0	-1	0
30843723	3008	3	0	-100	0	230	101300000	1000	0	0	-1	0
30856283	3009	0	0	-100	0	230	101300000	1000	0	0	-1	0
30868843	3010	3	0	-100	0	230	101300000	1000	0	0	-1	0
30881403	3012	3	0	-100	0	230	101300000	1000	0	0	-1	0
30893963	3008	4	0	-100	0	230	101300000	1000	0	0	-1	0
30906523	3008	4	0	-100	0	230	101300000	1000	0	0	-1	0
30919083	3012	0	0	-100	0	230	101300000	1000	0	0	-1	0
30931643	3006	0	0	-100	0	230	101300000	1000	0	0	-1	0
30944203	3005	0	0	-100	0	230	101300000	1000	0	0	-1	0
30956763	3007	0	0	-100	0	230	101300000	1000	0	0	-1	0
30969323	3006	0	0	-100	0	230	101300000	1000	0	0	-1	0
30981883	3011	0	0	-100	0	230	101300000	1000	0	0	-1	0
30994443	3011	0	0	-100	0	230	101300000	1000	0	0	-1	0
31007004	3005	1	0	-100	0	230	101300000	1000	0	0	-1	0
31019563	3013	0	0	-100	0	230	101300000	1000	0	0	-1	0
31032123	3016	0	0	-100	0	230	101300000	1000	0	0	-1	0
31044683	3012	0	0	-100	0	230	101300000	1000	0	0	-1	0
31057243	3007	0	0	-100	0	230	101300000	1000	0	0	-1	0
31069803	3008	0	0	-100	0	230	101300000	1000	0	0	-1	0
31082363	3004	2	0	-100	0	230	101300000	1000	0	0	-1	0
31094923	3008	3	0	-100	0	230	101300000	1000	0	0	-1	0
31107483	3007	2	0	-100	0	230	101300000	1000	0	0	-1	0
31120043	3013	0	0	-100	0	230	101300000	1000	0	0	-1	0
31132603	3015	0	0	-100	0	230	101300000	1000	0	0	-1	0
31145163	3007	0	0	-100	0	230	101300000	1000	0	0	-1	0
31157723	3008	3	0	-100	0	230	101300000	1000	0	0	-1	0
31170283	3005	0	0	-100	0	230	101300000	1000	0	0	-1	0
31182843	3008	0	0	-100	0	230	101300000	1000	0	0	-1	0
31195403	3014	0	0	-100	0	230	101300000	1000	0	0	-1	0
31207963	3008	0	0	-100	0	230	101300000	1000	0	0	-1	0
31220523	3010	1	0	-100	0	230	101300000	1000	0	0	-1	0
31233083	3006	3	0	-100	0	230	101300000	1000	0	0	-1	0
31245643	3014	0	0	-100	0	230	101300000	1000	0	0	-1	0
31258203	3012	0	0	-100	0	230	101300000	1000	0	0	-1	0
31270763	3014	0	0	-100	0	230	101300000	1000	0	0	-1	0
31283323	3007	0	0	-100	0	230	101300000	1000	0	0	-1	0
31295883	3009	0	0	-100	0	230	101300000	1000	0	0	-1	0
31308443	3008	3	0	-100	0	230	101300000	1000	0	0	-1	0
31321004	3008	0	0	-100	0	230	101300000	1000	0	0	-1	0
31333563	3016	0	0	-100	0	230	101300000	1000	0	0	-1	0
31346123	3012	0	0	-100	0	230	101300000	1000	0	0	-1	0
31358683	3008	0	0	-100	0	230	101300000	1000	0	0	-1	0
31371243	3005	0	0	-100	0	230	101300000	1000	0	0	-1	0
31383803	3007	4	0	-100	0	230	101300000	1000	0	0	-1	0
31396363	3005	0	0	-100	0	230	101300000	1000	0	0	-1	0
31408923	3012	0	0	-100	0	230	101300000	1000	0	0	-1	0
31421483	3013	0	0	-100	0	230	101300000	1000	0	0	-1	0
31434043	3011	0	0	-100	0	230	101300000	1000	0	0	-1	0
31446603	3007	0	0	-100	0	230	101300000	1000	0	0	-1	0
31459163	3005	2	0	-100	0	230	101300000	1000	0	0	-1	0
31471723	3017	0	0	-100	0	230	101300000	1000	0	0	-1	0
31484283	3014	0	0	-100	0	230	101300000	1000	0	0	-1	0
31496843	3004	0	0	-100	0	230	101300000	1000	0	0	-1	0
31509403	3006	4	0	-100	0	230	101300000	1000	0	0	-1	0
31521963	3009	0	0	-100	0	230	101300000	1000	0	0	-1	0
31534523	3014	0	0	-100	0	230	101300000	1000	0	0	-1	0
31547083	3012	0	0	-100	0	230	101300000	1000	0	0	-1	0
31559643	3010	0	0	-100	0	230	101300000	1000	0	0	-1	0
31572203	3008	2	0	-100	0	230	101300000	1000	0	0	-1	0
31584763	3010	2	0	-100	0	230	101300000	1000	0	0	-1	0
31597323	3012	0	0	-100	0	230	101300000	1000	0	0	-1	0
31609883	3012	0	0	-100	0	230	101300000	1000	0	0	-1	0
31622443	3005	0	0	-100	0	230	101300000	1000	0	0	-1	0
31635004	3007	0	0	-100	0	230	101300000	1000	0	0	-1	0
31647563	3013	0	0	-100	0	230	101300000	1000	0	0	-1	0
31660123	3009	0	0	-100	0	230	101300000	1000	0	0	-1	0
31672683	3008	1	0	-100	0	230	101300000	1000	0	0	-1	0
31685243	3008	4	0	-100	0	230	101300000	1000	0	0	-1	0
31697803	3008	0	0	-100	0	230	101300000	1000	0	0	-1	0
31710363	3014	0	0	-100	0	230	101300000	1000	0	0	-1	0
31722923	3014	0	0	-100	0	230	101300000	1000	0	0	-1	0
31735483	3012	0	0	-100	0	230	101300000	1000	0	0	-1	0
31748043	3009	0	0	-100	0	230	101300000	1000	0	0	-1	0
31760603	3007	0	0	-100	0	230	101300000	1000	0	0	-1	0
31773163	3004	0	0	-100	0	230	101300000	1000	0	0	-1	0
31785723	3009	1	0	-100	0	230	101300000	1000	0	0	-1	0
31798283	3008	4	0	-100	0	230	101300000	1000	0	0	-1	0
31810843	3005	0	0	-100	0	230	101300000	1000	0	0	-1	0
31823403	3010	0	0	-100	0	230	101300000	1000	0	0	-1	0
31835963	3016	0	0	-100	0	230	101300000	1000	0	0	-1	0
31848523	3012	0	0	-100	0	230	101300000	1000	0	0	-1	0
31861083	3012	0	0	-100	0	230	101300000	1000	0	0	-1	0
31873643	3007	0	0	-100	0	230	101300000	1000	0	0	-1	0
31886203	3008	2	0	-100	0	230	101300000	1000	0	0	-1	0
31898763	3008	0	0	-100	0	230	101300000	1000	0	0	-1	0
31911323	3008	1	0	-100	0	230	101300000	1000	0	0	-1	0
31923883	3005	1	0	-100	0	230	101300000	1000	0	0	-1	0
31936443	3010	0	0	-100	0	230	101300000	1000	0	0	-1	0
31949004	3008	0	0	-100	0	230	101300000	1000	0	0	-1	0
31961563	3012	0	0	-100	0	230	101300000	1000	0	0	-1	0
31974123	3008	0	0	-100	0	230	101300000	1000	0	0	-1	0
31986683	3008	2	0	-100	0	230	101300000	1000	0	0	-1	0
31999243	3008	4	0	-100	0	230	101300000	1000	0	0	-1	0
32011803	3008	3	0	-100	0	230	101300000	1000	0	0	-1	0
32024363	3008	3	0	-100	0	230	101300000	1000	0	0	-1	0
32036923	3008	0	0	-100	0	230	101300000	1000	0	0	-1	0
32049483	3005	0	0	-100	0	230	101300000	1000	0	0	-1	0
32062043	3006	0	0	-100	0	230	101300000	1000	0	0	-1	0
32074603	3009	0	0	-100	0	230	101300000	1000	0	0	-1	0
32087163	3008	0	0	-100	0	230	101300000	1000	0	0	-1	0
32099723	3012	0	0	-100	0	230	101300000	1000	0	0	-1	0
32112283	3013	0	0	-100	0	230	101300000	1000	0	0	-1	0
32124843	3013	0	0	-100	0	230	101300000	1000	0	0	-1	0
32137403	3008	0	0	-100	0	230	101300000	1000	0	0	-1	0
32149963	3008	0	0	-100	0	230	101300000	1000	0	0	-1	0
32162523	3008	0	0	-100	0	230	101300000	1000	0	0	-1	0
32175083	3011	1	0	-100	0	230	101300000	1000	0	0	-1	0
32187643	3009	4	0	-100	0	230	101300000	1000	0	0	-1	0
32200203	3007	2	0	-100	0	230	101300000	1000	0	0	-1	0
32212763	3004	4	0	-100	0	230	101300000	1000	0	0	-1	0
32225323	3006	0	0	-100	0	230	101300000	1000	0	0	-1	0
32237883	3007	0	0	-100	0	230	101300000	1000	0	0	-1	0
32250443	3009	0	0	-100	0	230	101300000	1000	0	0	-1	0
32263004	3014	0	0	-100	0	230	101300000	1000	0	0	-1	0
32275563	3008	0	0	-100	0	230	101300000	1000	0	0	-1	0
32288123	3008	0	0	-100	0	230	101300000	1000	0	0	-1	0
32300683	3004	0	0	-100	0	230	101300000	1000	0	0	-1	0
32313243	3004	0	0	-100	0	230	101300000	1000	0	0	-1	0
32325803	3007	0	0	-100	0	230	101300000	1000	0	0	-1	0
32338363	3007	0	0	-100	0	230	101300000	1000	0	0	-1	0
32350923	3004	0	0	-100	0	230	101300000	1000	0	0	-1	0
32363483	3005	0	0	-100	0	230	101300000	1000	0	0	-1	0
32376043	3012	0	0	-100	0	230	101300000	1000	0	0	-1	0
32388603	3009	0	0	-100	0	230	101300000	1000	0	0	-1	0
32401163	3010	0	0	-100	0	230	101300000	1000	0	0	-1	0
32413723	3008	0	0	-100	0	230	101300000	1000	0	0	-1	0
32426283	3008	0	0	-100	0	230	101300000	1000	0	0	-1	0
32438843	3007	0	0	-100	0	230	101300000	1000	0	0	-1	0
32451403	3008	0	0	-100	0	230	101300000	1000	0	0	-1	0
32463963	3012	0	0	-100	0	230	101300000	1000	0	0	-1	0
32476523	3013	0	0	-100	0	230	101300000	1000	0	0	-1	0
32489083	3012	0	0	-100	0	230	101300000	1000	0	0	-1	0
32501643	3009	0	0	-100	0	230	101300000	1000	0	0	-1	0
32514203	3008	3	0	-100	0	230	101300000	1000	0	0	-1	0
32526763	3004	0	0	-100	0	230	101300000	1000	0	0	-1	0
32539323	3016	0	0	-100	0	230	101300000	1000	0	0	-1	0
32551883	3015	0	0	-100	0	230	101300000	1000	0	0	-1	0
32564443	3012	0	0	-100	0	230	101300000	1000	0	0	-1	0
32577004	3012	0	0	-100	0	230	101300000	1000	0	0	-1	0
32589563	3007	0	0	-100	0	230	101300000	1000	0	0	-1	0
32602123	3007	3	0	-100	0	230	101300000	1000	0	0	-1	0
32614683	3012	0	0	-100	0	230	101300000	1000	0	0	-1	0
32627243	3012	0	0	-100	0	230	101300000	1000	0	0	-1	0
32639803	3007	0	0	-100	0	230	101300000	1000	0	0	-1	0
32652363	3007	0	0	-100	0	230	101300000	1000	0	0	-1	0
32664923	3007	2	0	-100	0	230	101300000	1000	0	0	-1	0
32677483	3006	1	0	-100	0	230	101300000	1000	0	0	-1	0
32690043	3016	0	0	-100	0	230	101300000	1000	0	0	-1	0
32702603	3015	0	0	-100	0	230	101300000	1000	0	0	-1	0
32715163	3008	0	0	-100	0	230	101300000	1000	0	0	-1	0
32727723	3008	1	0	-100	0	230	101300000	1000	0	0	-1	0
32740283	3008	3	0	-100	0	230	101300000	1000	0	0	-1	0
32752843	3007	2	0	-100	0	230	101300000	1000	0	0	-1	0
32765403	3010	0	0	-100	0	230	101300000	1000	0	0	-1	0
32777963	3012	0	0	-100	0	230	101300000	1000	0	0	-1	0
32790523	3011	0	0	-100	0	230	101300000	1000	0	0	-1	0
32803083	3008	0	0	-100	0	230	101300000	1000	0	0	-1	0
32815643	3011	4	0	-100	0	230	101300000	1000	0	0	-1	0
32828203	3008	2	0	-100	0	230	101300000	1000	0	0	-1	0
32840763	3008	0	0	-100	0	230	101300000	1000	0	0	-1	0
32853323	3014	0	0	-100	0	230	101300000	1000	0	0	-1	0
32865883	3014	0	0	-100	0	230	101300000	1000	0	0	-1	0
32878443	3013	0	0	-100	0	230	101300000	1000	0	0	-1	0
32891004	3007	1	0	-100	0	230	101300000	1000	0	0	-1	0
32903563	3006	0	0	-100	0	230	101300000	1000	0	0	-1	0
32916123	3008	0	0	-100	0	230	101300000	1000	0	0	-1	0
32928683	3007	3	0	-100	0	230	101300000	1000	0	0	-1	0
32941243	3008	1	0	-100	0	230	101300000	1000	0	0	-1	0
32953803	3009	0	0	-100	0	230	101300000	1000	0	0	-1	0
32966363	3015	0	0	-100	0	230	101300000	1000	0	0	-1	0
32978923	3014	0	0	-100	0	230	101300000	1000	0	0	-1	0
32991483	3006	0	0	-100	0	230	101300000	1000	0	0	-1	0
33004043	3008	2	0	-100	0	230	101300000	1000	0	0	-1	0
33016603	3007	5	0	-100	0	230	101300000	1000	0	0	-1	0
33029163	3008	0	0	-100	0	230	101300000	1000	0	0	-1	0
33041723	3008	2	0	-100	0	230	101300000	1000	0	0	-1	0
33054283	3006	4	0	-100	0	230	101300000	1000	0	0	-1	0
33066843	3010	1	0	-100	0	230	101300000	1000	0	0	-1	0
33079403	3006	0	0	-100	0	230	101300000	1000	0	0	-1	0
33091963	3007	0	0	-100	0	230	101300000	1000	0	0	-1	0
33104523	3013	0	0	-100	0	230	101300000	1000	0	0	-1	0
33117083	3014	0	0	-100	0	230	101300000	1000	0	0	-1	0
33129643	3009	0	0	-100	0	230	101300000	1000	0	0	-1	0
33142203	3006	3	0	-100	0	230	101300000	1000	0	0	-1	0
33154763	3005	0	0	-100	0	230	101300000	1000	0	0	-1	0
33167323	3012	0	0	-100	0	230	101300000	1000	0	0	-1	0
33179883	3014	0	0	-100	0	230	101300000	1000	0	0	-1	0
33192443	3009	0	0	-100	0	230	101300000	1000	0	0	-1	0
33205004	3006	0	0	-100	0	230	101300000	1000	0	0	-1	0
33217563	3006	2	0	-100	0	230	101300000	1000	0	0	-1	0
33230123	3006	2	0	-100	0	230	101300000	1000	0	0	-1	0
33242683	3006	0	0	-100	0	230	101300000	1000	0	0	-1	0
33255243	3010	0	0	-100	0	230	101300000	1000	0	0	-1	0
33267803	3015	0	0	-100	0	230	101300000	1000	0	0	-1	0
33280363	3013	0	0	-100	0	230	101300000	1000	0	0	-1	0
33292923	3012	0	0	-100	0	230	101300000	1000	0	0	-1	0
33305483	3014	0	0	-100	0	230	101300000	1000	0	0	-1	0
33318043	3013	0	0	-100	0	230	101300000	1000	0	0	-1	0
33330603	3014	0	0	-100	0	230	101300000	1000	0	0	-1	0
33343163	3010	0	0	-100	0	230	101300000	1000	0	0	-1	0
33355723	3010	0	0	-100	0	230	101300000	1000	0	0	-1	0
33368283	3014	0	0	-100	0	230	101300000	1000	0	0	-1	0
33380843	3013	0	0	-100	0	230	101300000	1000	0	0	-1	0
33393403	3013	0	0	-100	0	230	101300000	1000	0	0	-1	0
33405963	3007	0	0	-100	0	230	101300000	1000	0	0	-1	0
33418523	3008	0	0	-100	0	230	101300000	1000	0	0	-1	0
33431083	3009	3	0	-100	0	230	101300000	1000	0	0	-1	0
33443643	3005	1	0	-100	0	230	101300000	1000	0	0	-1	0
33456203	3011	0	0	-100	0	230	101300000	1000	0	0	-1	0
33468763	3018	0	0	-100	0	230	101300000	1000	0	0	-1	0
33481323	3012	0	0	-100	0	230	101300000	1000	0	0	-1	0
33493883	3009	0	0	-100	0	230	101300000	1000	0	0	-1	0
33506443	3008	3	0	-100	0	230	101300000	1000	0	0	-1	0
33519004	3008	0	0	-100	0	230	101300000	1000	0	0	-1	0
33531563	3014	0	0	-100	0	230	101300000	1000	0	0	-1	0
33544123	3013	0	0	-100	0	230	101300000	1000	0	0	-1	0
33556683	3012	0	0	-100	0	230	101300000	1000	0	0	-1	0
33569243	3006	0	0	-100	0	230	101300000	1000	0	0	-1	0
33581803	3005	0	0	-100	0	230	101300000	1000	0	0	-1	0
33594363	3008	4	0	-100	0	230	101300000	1000	0	0	-1	0
33606923	3009	3	0	-100	0	230	101300000	1000	0	0	-1	0
33619483	3008	4	0	-100	0	230	101300000	1000	0	0	-1	0
33632043	3005	2	0	-100	0	230	101300000	1000	0	0	-1	0
33644603	3008	1	0	-100	0	230	101300000	1000	0	0	-1	0
33657163	3006	2	0	-100	0	230	101300000	1000	0	0	-1	0
33669723	3008	3	0	-100	0	230	101300000	1000	0	0	-1	0
33682283	3008	2	0	-100	0	230	101300000	1000	0	0	-1	0
33694843	3007	0	0	-100	0	230	101300000	1000	0	0	-1	0
33707403	3004	1	0	-100	0	230	101300000	1000	0	0	-1	0
33719963	3008	0	0	-100	0	230	101300000	1000	0	0	-1	0
33732523	3009	0	0	-100	0	230	101300000	1000	0	0	-1	0
33745083	3009	0	0	-100	0	230	101300000	1000	0	0	-1	0
33757643	3004	0	0	-100	0	230	101300000	1000	0	0	-1	0
33770203	3005	2	0	-100	0	230	101300000	1000	0	0	-1	0
33782763	3007	4	0	-100	0	230	101300000	1000	0	0	-1	0
33795323	3008	2	0	-100	0	230	101300000	1000	0	0	-1	0
33807883	3011	3	0	-100	0	230	101300000	1000	0	0	-1	0
33820443	3006	3	0	-100	0	230	101300000	1000	0	0	-1	0
33833004	3012	0	0	-100	0	230	101300000	1000	0	0	-1	0
33845563	3011	2	0	-100	0	230	101300000	1000	0	0	-1	0
33858123	3009	4	0	-100	0	230	101300000	1000	0	0	-1	0
33870683	3008	2	0	-100	0	230	101300000	1000	0	0	-1	0
33883243	3004	2	0	-100	0	230	101300000	1000	0	0	-1	0
33895803	3007	0	0	-100	0	230	101300000	1000	0	0	-1	0
33908363	3013	0	0	-100	0	230	101300000	1000	0	0	-1	0
33920923	3014	0	0	-100	0	230	101300000	1000	0	0	-1	0
33933483	3012	0	0	-100	0	230	101300000	1000	0	0	-1	0
33946043	3010	0	0	-100	0	230	101300000	1000	0	0	-1	0
33958603	3008	0	0	-100	0	230	101300000	1000	0	0	-1	0
33971163	3007	0	0	-100	0	230	101300000	1000	0	0	-1	0
33983723	3006	0	0	-100	0	230	101300000	1000	0	0	-1	0
33996283	3008	4	0	-100	0	230	101300000	1000	0	0	-1	0
34008843	3009	5	0	-100	0	230	101300000	1000	0	0	-1	0
34021403	3010	1	0	-100	0	230	101300000	1000	0	0	-1	0
34033963	3008	0	0	-100	0	230	101300000	1000	0	0	-1	0
34046523	3006	0	0	-100	0	230	101300000	1000	0	0	-1	0
34059083	3012	0	0	-100	0	230	101300000	1000	0	0	-1	0
34071643	3012	0	0	-100	0	230	101300000	1000	0	0	-1	0
34084203	3012	0	0	-100	0	230	101300000	1000	0	0	-1	0
34096763	3014	0	0	-100	0	230	101300000	1000	0	0	-1	0
34109323	3016	0	0	-100	0	230	101300000	1000	0	0	-1	0
34121883	3011	0	0	-100	0	230	101300000	1000	0	0	-1	0
34134443	3007	0	0	-100	0	230	101300000	1000	0	0	-1	0
34147004	3013	0	0	-100	0	230	101300000	1000	0	0	-1	0
34159563	3007	0	0	-100	0	230	101300000	1000	0	0	-1	0
34172123	3010	0	0	-100	0	230	101300000	1000	0	0	-1	0
34184683	3013	0	0	-100	0	230	101300000	1000	0	0	-1	0
34197243	3015	0	0	-100	0	230	101300000	1000	0	0	-1	0
34209803	3013	0	0	-100	0	230	101300000	1000	0	0	-1	0
34222363	3011	0	0	-100	0	230	101300000	1000	0	0	-1	0
34234923	3012	0	0	-100	0	230	101300000	1000	0	0	-1	0
34247483	3013	0	0	-100	0	230	101300000	1000	0	0	-1	0
34260043	3013	0	0	-100	0	230	101300000	1000	0	0	-1	0
34272603	3016	0	0	-100	0	230	101300000	1000	0	0	-1	0
34285163	3011	0	0	-100	0	230	101300000	1000	0	0	-1	0
34297723	3008	1	0	-100	0	230	101300000	1000	0	0	-1	0
34310283	3007	2	0	-100	0	230	101300000	1000	0	0	-1	0
34322843	3006	2	0	-100	0	230	101300000	1000	0	0	-1	0
34335403	3007	0	0	-100	0	230	101300000	1000	0	0	-1	0
34347963	3005	0	0	-100	0	230	101300000	1000	0	0	-1	0
34360523	3009	0	0	-100	0	230	101300000	1000	0	0	-1	0
34373083	3008	0	0	-100	0	230	101300000	1000	0	0	-1	0
34385643	3009	0	0	-100	0	230	101300000	1000	0	0	-1	0
34398203	3010	0	0	-100	0	230	101300000	1000	0	0	-1	0
34410763	3011	0	0	-100	0	230	101300000	1000	0	0	-1	0
34423323	3010	0	0	-100	0	230	101300000	1000	0	0	-1	0
34435883	3012	0	0	-100	0	230	101300000	1000	0	0	-1	0
34448443	3013	0	0	-100	0	230	101300000	1000	0	0	-1	0
34461004	3003	3	0	-100	0	230	101300000	1000	0	0	-1	0
34473563	3014	0	0	-100	0	230	101300000	1000	0	0	-1	0
34486123	3011	0	0	-100	0	230	101300000	1000	0	0	-1	0
34498683	3007	0	0	-100	0	230	101300000	1000	0	0	-1	0
34511243	3007	3	0	-100	0	230	101300000	1000	0	0	-1	0
34523803	3006	3	0	-100	0	230	101300000	1000	0	0	-1	0
34536363	3008	4	0	-100	0	230	101300000	1000	0	0	-1	0
34548923	3007	1	0	-100	0	230	101300000	1000	0	0	-1	0
34561483	3006	0	0	-100	0	230	101300000	1000	0	0	-1	0
34574043	3006	0	0	-100	0	230	101300000	1000	0	0	-1	0
34586603	3010	0	0	-100	0	230	101300000	1000	0	0	-1	0
34599163	3012	0	0	-100	0	230	101300000	1000	0	0	-1	0
34611723	3014	0	0	-100	0	230	101300000	1000	0	0	-1	0
34624283	3013	0	0	-100	0	230	101300000	1000	0	0	-1	0
34636843	3012	0	0	-100	0	230	101300000	1000	0	0	-1	0
34649403	3016	0	0	-100	0	230	101300000	1000	0	0	-1	0
34661963	3011	0	0	-100	0	230	101300000	1000	0	0	-1	0
34674523	3007	1	0	-100	0	230	101300000	1000	0	0	-1	0
34687083	3007	0	0	-100	0	230	101300000	1000	0	0	-1	0
34699643	3008	1	0	-100	0	230	101300000	1000	0	0	-1	0
34712203	3008	4	0	-100	0	230	101300000	1000	0	0	-1	0
34724763	3007	0	0	-100	0	230	101300000	1000	0	0	-1	0
34737323	3007	0	0	-100	0	230	101300000	1000	0	0	-1	0
34749883	3012	0	0	-100	0	230	101300000	1000	0	0	-1	0
34762443	3014	0	0	-100	0	230	101300000	1000	0	0	-1	0
34775004	3010	0	0	-100	0	230	101300000	1000	0	0	-1	0
34787563	3010	0	0	-100	0	230	101300000	1000	0	0	-1	0
34800123	3011	0	0	-100	0	230	101300000	1000	0	0	-1	0
34812683	3007	0	0	-100	0	230	101300000	1000	0	0	-1	0
34825243	3007	3	0	-100	0	230	101300000	1000	0	0	-1	0
34837803	3004	4	0	-100	0	230	101300000	1000	0	0	-1	0
34850363	3008	4	0	-100	0	230	101300000	1000	0	0	-1	0
34862923	3006	5	0	-100	0	230	101300000	1000	0	0	-1	0
34875483	3007	3	0	-100	0	230	101300000	1000	0	0	-1	0
34888043	3008	3	0	-100	0	230	101300000	1000	0	0	-1	0
34900603	3006	4	0	-100	0	230	101300000	1000	0	0	-1	0
34913163	3008	0	0	-100	0	230	101300000	1000	0	0	-1	0
34925723	3016	0	0	-100	0	230	101300000	1000	0	0	-1	0
34938283	3011	0	0	-100	0	230	101300000	1000	0	0	-1	0
34950843	3006	4	0	-100	0	230	101300000	1000	0	0	-1	0
34963403	3009	0	0	-100	0	230	101300000	1000	0	0	-1	0
34975963	3006	0	0	-100	0	230	101300000	1000	0	0	-1	0
34988523	3013	0	0	-100	0	230	101300000	1000	0	0	-1	0
35001083	3015	0	0	-100	0	230	101300000	1000	0	0	-1	0
35013643	3014	0	0	-100	0	230	101300000	1000	0	0	-1	0
35026203	3012	0	0	-100	0	230	101300000	1000	0	0	-1	0
35038763	3008	0	0	-100	0	230	101300000	1000	0	0	-1	0
35051323	3011	0	0	-100	0	230	101300000	1000	0	0	-1	0
35063883	3009	0	0	-100	0	230	101300000	1000	0	0	-1	0
35076443	3009	1	0	-100	0	230	101300000	1000	0	0	-1	0
35089004	3006	0	0	-100	0	230	101300000	1000	0	0	-1	0
35101563	3008	2	0	-100	0	230	101300000	1000	0	0	-1	0
35114123	3007	0	0	-100	0	230	101300000	1000	0	0	-1	0
35126683	3010	0	0	-100	0	230	101300000	1000	0	0	-1	0
35139243	3011	0	0	-100	0	230	101300000	1000	0	0	-1	0
35151803	3016	0	0	-100	0	230	101300000	1000	0	0	-1	0
35164363	3013	0	0	-100	0	230	101300000	1000	0	0	-1	0
35176923	3016	0	0	-100	0	230	101300000	1000	0	0	-1	0
35189483	3011	0	0	-100	0	230	101300000	1000	0	0	-1	0
35202043	3006	0	0	-100	0	230	101300000	1000	0	0	-1	0
35214603	3006	3	0	-100	0	230	101300000	1000	0	0	-1	0
35227163	3008	4	0	-100	0	230	101300000	1000	0	0	-1	0
35239723	3005	2	0	-100	0	230	101300000	1000	0	0	-1	0
35252283	3006	4	0	-100	0	230	101300000	1000	0	0	-1	0
35264843	3010	4	0	-100	0	230	101300000	1000	0	0	-1	0
35277403	3008	0	0	-100	0	230	101300000	1000	0	0	-1	0
35289963	3007	0	0	-100	0	230	101300000	1000	0	0	-1	0
35302523	3013	0	0	-100	0	230	101300000	1000	0	0	-1	0
35315083	3013	0	0	-100	0	230	101300000	1000	0	0	-1	0
35327643	3011	0	0	-100	0	230	101300000	1000	0	0	-1	0
35340203	3007	3	0	-100	0	230	101300000	1000	0	0	-1	0
35352763	3010	4	0	-100	0	230	101300000	1000	0	0	-1	0
35365323	3005	0	0	-100	0	230	101300000	1000	0	0	-1	0
35377883	3012	0	0	-100	0	230	101300000	1000	0	0	-1	0
35390443	3016	0	0	-100	0	230	101300000	1000	0	0	-1	0
35403004	3008	0	0	-100	0	230	101300000	1000	0	0	-1	0
35415563	3007	2	0	-100	0	230	101300000	1000	0	0	-1	0
35428123	3008	3	0	-100	0	230	101300000	1000	0	0	-1	0
35440683	3009	4	0	-100	0	230	101300000	1000	0	0	-1	0
35453243	3008	0	0	-100	0	230	101300000	1000	0	0	-1	0
35465803	3011	0	0	-100	0	230	101300000	1000	0	0	-1	0
35478363	3016	0	0	-100	0	230	101300000	1000	0	0	-1	0
35490923	3009	0	0	-100	0	230	101300000	1000	0	0	-1	0
35503483	3007	2	0	-100	0	230	101300000	1000	0	0	-1	0
35516043	3008	4	0	-100	0	230	101300000	1000	0	0	-1	0
35528603	3007	0	0	-100	0	230	101300000	1000	0	0	-1	0
35541163	3008	0	0	-100	0	230	101300000	1000	0	0	-1	0
35553723	3007	0	0	-100	0	230	101300000	1000	0	0	-1	0
35566283	3008	0	0	-100	0	230	101300000	1000	0	0	-1	0
35578843	3007	0	0	-100	0	230	101300000	1000	0	0	-1	0
35591403	3008	2	0	-100	0	230	101300000	1000	0	0	-1	0
35603963	3008	3	0	-100	0	230	101300000	1000	0	0	-1	0
35616523	3005	1	0	-100	0	230	101300000	1000	0	0	-1	0
35629083	3006	0	0	-100	0	230	101300000	1000	0	0	-1	0
35641643	3007	1	0	-100	0	230	101300000	1000	0	0	-1	0
35654203	3008	0	0	-100	0	230	101300000	1000	0	0	-1	0
35666763	3007	2	0	-100	0	230	101300000	1000	0	0	-1	0
35679323	3010	2	0	-100	0	230	101300000	1000	0	0	-1	0
35691883	3010	5	0	-100	0	230	101300000	1000	0	0	-1	0
35704443	3009	3	0	-100	0	230	101300000	1000	0	0	-1	0
35717004	3014	0	0	-100	0	230	101300000	1000	0	0	-1	0
35729563	3007	0	0	-100	0	230	101300000	1000	0	0	-1	0
35742123	3011	0	0	-100	0	230	101300000	1000	0	0	-1	0
35754683	3013	0	0	-100	0	230	101300000	1000	0	0	-1	0
35767243	3014	0	0	-100	0	230	101300000	1000	0	0	-1	0
35779803	3014	0	0	-100	0	230	101300000	1000	0	0	-1	0
35792363	3012	0	0	-100	0	230	101300000	1000	0	0	-1	0
35804923	3005	1	0	-100	0	230	101300000	1000	0	0	-1	0
35817483	3008	4	0	-100	0	230	101300000	1000	0	0	-1	0
35830043	3007	0	0	-100	0	230	101300000	1000	0	0	-1	0
35842603	3010	0	0	-100	0	230	101300000	1000	0	0	-1	0
35855163	3013	0	0	-100	0	230	101300000	1000	0	0	-1	0
35867723	3013	0	0	-100	0	230	101300000	1000	0	0	-1	0
35880283	3008	3	0	-100	0	230	101300000	1000	0	0	-1	0
35892843	3008	0	0	-100	0	230	101300000	1000	0	0	-1	0
35905403	3008	0	0	-100	0	230	101300000	1000	0	0	-1	0
