timestamp	voltage	current	windSpeed	pitchAngle	rpm	temperature	ambientPressure	humidity	accelerationX	accelerationY	accelerationZ	currentSink
7040070	4010	1	0	-100	0	230	101300000	1000	0	0	-1	0
7047523	4010	0	0	-100	0	230	101300000	1000	0	0	-1	0
7060083	4009	0	0	-100	0	230	101300000	1000	0	0	-1	0
7072643	4012	0	0	-100	0	230	101300000	1000	0	0	-1	0
7085203	4006	0	0	-100	0	230	101300000	1000	0	0	-1	0
7097763	4012	0	0	-100	0	230	101300000	1000	0	0	-1	0
7110323	4010	0	0	-100	0	230	101300000	1000	0	0	-1	0
7122883	4012	0	0	-100	0	230	101300000	1000	0	0	-1	0
7135443	4016	0	0	-100	0	230	101300000	1000	0	0	-1	0
7148004	4006	2	0	-100	0	230	101300000	1000	0	0	-1	0
7160563	4018	0	0	-100	0	230	101300000	1000	0	0	-1	0
7173123	4009	0	0	-100	0	230	101300000	1000	0	0	-1	0
7185683	4009	1	0	-100	0	230	101300000	1000	0	0	-1	0
7198243	4012	4	0	-100	0	230	101300000	1000	0	0	-1	0
7210803	4013	0	0	-100	0	230	101300000	1000	0	0	-1	0
7223363	4016	0	0	-100	0	230	101300000	1000	0	0	-1	0
7235923	4012	0	0	-100	0	230	101300000	1000	0	0	-1	0
7248483	4008	3	0	-100	0	230	101300000	1000	0	0	-1	0
7261043	4011	1	0	-100	0	230	101300000	1000	0	0	-1	0
7273603	4014	0	0	-100	0	230	101300000	1000	0	0	-1	0
7286163	4014	0	0	-100	0	230	101300000	1000	0	0	-1	0
7298723	4017	0	0	-100	0	230	101300000	1000	0	0	-1	0
7311283	4014	0	0	-100	0	230	101300000	1000	0	0	-1	0
7323843	4010	3	0	-100	0	230	101300000	1000	0	0	-1	0
7336403	4008	0	0	-100	0	230	101300000	1000	0	0	-1	0
7348963	4016	0	0	-100	0	230	101300000	1000	0	0	-1	0
7361523	4018	0	0	-100	0	230	101300000	1000	0	0	-1	0
7374083	4007	2	0	-100	0	230	101300000	1000	0	0	-1	0
7386643	4009	3	0	-100	0	230	101300000	1000	0	0	-1	0
7399203	4011	4	0	-100	0	230	101300000	1000	0	0	-1	0
7411763	4011	0	0	-100	0	230	101300000	1000	0	0	-1	0
7424323	4011	0	0	-100	0	230	101300000	1000	0	0	-1	0
7436883	4011	0	0	-100	0	230	101300000	1000	0	0	-1	0
7449443	4012	0	0	-100	0	230	101300000	1000	0	0	-1	0
7462004	4008	0	0	-100	0	230	101300000	1000	0	0	-1	0
7474563	4014	0	0	-100	0	230	101300000	1000	0	0	-1	0
7487123	4018	0	0	-100	0	230	101300000	1000	0	0	-1	0
7499683	4016	0	0	-100	0	230	101300000	1000	0	0	-1	0
7512243	4015	0	0	-100	0	230	101300000	1000	0	0	-1	0
7524803	4016	0	0	-100	0	230	101300000	1000	0	0	-1	0
7537363	4015	0	0	-100	0	230	101300000	1000	0	0	-1	0
7549923	4018	0	0	-100	0	230	101300000	1000	0	0	-1	0
7562483	4009	2	0	-100	0	230	101300000	1000	0	0	-1	0
7575043	4011	0	0	-100	0	230	101300000	1000	0	0	-1	0
7587603	4014	0	0	-100	0	230	101300000	1000	0	0	-1	0
7600163	4013	0	0	-100	0	230	101300000	1000	0	0	-1	0
7612723	4014	0	0	-100	0	230	101300000	1000	0	0	-1	0
7625283	4018	0	0	-100	0	230	101300000	1000	0	0	-1	0
7637843	4015	0	0	-100	0	230	101300000	1000	0	0	-1	0
7650403	4018	0	0	-100	0	230	101300000	1000	0	0	-1	0
7662963	4016	0	0	-100	0	230	101300000	1000	0	0	-1	0
7675523	4012	0	0	-100	0	230	101300000	1000	0	0	-1	0
7688083	4010	0	0	-100	0	230	101300000	1000	0	0	-1	0
7700643	4013	4	0	-100	0	230	101300000	1000	0	0	-1	0
7713203	4009	3	0	-100	0	230	101300000	1000	0	0	-1	0
7725763	4008	1	0	-100	0	230	101300000	1000	0	0	-1	0
7738323	4009	1	0	-100	0	230	101300000	1000	0	0	-1	0
7750883	4017	0	0	-100	0	230	101300000	1000	0	0	-1	0
7763443	4016	0	0	-100	0	230	101300000	1000	0	0	-1	0
7776004	4014	0	0	-100	0	230	101300000	1000	0	0	-1	0
7788563	4013	0	0	-100	0	230	101300000	1000	0	0	-1	0
7801123	4013	0	0	-100	0	230	101300000	1000	0	0	-1	0
7813683	4012	0	0	-100	0	230	101300000	1000	0	0	-1	0
7826243	4012	0	0	-100	0	230	101300000	1000	0	0	-1	0
7838803	4011	3	0	-100	0	230	101300000	1000	0	0	-1	0
7851363	4014	3	0	-100	0	230	101300000	1000	0	0	-1	0
7863923	4014	4	0	-100	0	230	101300000	1000	0	0	-1	0
7876483	4012	4	0	-100	0	230	101300000	1000	0	0	-1	0
7889043	4012	4	0	-100	0	230	101300000	1000	0	0	-1	0
7901603	4007	4	0	-100	0	230	101300000	1000	0	0	-1	0
7914163	4016	0	0	-100	0	230	101300000	1000	0	0	-1	0
7926723	4017	0	0	-100	0	230	101300000	1000	0	0	-1	0
7939283	4017	0	0	-100	0	230	101300000	1000	0	0	-1	0
7951843	4016	0	0	-100	0	230	101300000	1000	0	0	-1	0
7964403	4014	0	0	-100	0	230	101300000	1000	0	0	-1	0
7976963	4011	0	0	-100	0	230	101300000	1000	0	0	-1	0
7989523	4008	0	0	-100	0	230	101300000	1000	0	0	-1	0
8002083	4009	0	0	-100	0	230	101300000	1000	0	0	-1	0
8014643	4012	0	0	-100	0	230	101300000	1000	0	0	-1	0
8027203	4010	0	0	-100	0	230	101300000	1000	0	0	-1	0
8039763	4011	0	0	-100	0	230	101300000	1000	0	0	-1	0
8052323	4012	0	0	-100	0	230	101300000	1000	0	0	-1	0
8064883	4011	4	0	-100	0	230	101300000	1000	0	0	-1	0
8077443	4013	1	0	-100	0	230	101300000	1000	0	0	-1	0
8090004	4016	0	0	-100	0	230	101300000	1000	0	0	-1	0
8102563	4011	0	0	-100	0	230	101300000	1000	0	0	-1	0
8115123	4012	0	0	-100	0	230	101300000	1000	0	0	-1	0
8127683	4014	0	0	-100	0	230	101300000	1000	0	0	-1	0
8140243	4016	0	0	-100	0	230	101300000	1000	0	0	-1	0
8152803	4016	0	0	-100	0	230	101300000	1000	0	0	-1	0
8165363	4017	0	0	-100	0	230	101300000	1000	0	0	-1	0
8177923	4018	0	0	-100	0	230	101300000	1000	0	0	-1	0
8190483	4016	0	0	-100	0	230	101300000	1000	0	0	-1	0
8203043	4013	0	0	-100	0	230	101300000	1000	0	0	-1	0
8215603	4013	0	0	-100	0	230	101300000	1000	0	0	-1	0
8228163	4007	4	0	-100	0	230	101300000	1000	0	0	-1	0
8240723	4012	4	0	-100	0	230	101300000	1000	0	0	-1	0
8253283	4010	0	0	-100	0	230	101300000	1000	0	0	-1	0
8265843	4012	0	0	-100	0	230	101300000	1000	0	0	-1	0
8278403	4011	0	0	-100	0	230	101300000	1000	0	0	-1	0
8290963	4013	0	0	-100	0	230	101300000	1000	0	0	-1	0
8303523	4013	0	0	-100	0	230	101300000	1000	0	0	-1	0
8316083	4014	0	0	-100	0	230	101300000	1000	0	0	-1	0
8328643	4016	0	0	-100	0	230	101300000	1000	0	0	-1	0
8341203	4016	0	0	-100	0	230	101300000	1000	0	0	-1	0
8353763	4019	0	0	-100	0	230	101300000	1000	0	0	-1	0
8366323	4016	0	0	-100	0	230	101300000	1000	0	0	-1	0
8378883	4018	0	0	-100	0	230	101300000	1000	0	0	-1	0
8391443	4016	0	0	-100	0	230	101300000	1000	0	0	-1	0
8404004	4008	0	0	-100	0	230	101300000	1000	0	0	-1	0
8416563	4008	2	0	-100	0	230	101300000	1000	0	0	-1	0
8429123	4011	3	0	-100	0	230	101300000	1000	0	0	-1	0
8441683	4011	2	0	-100	0	230	101300000	1000	0	0	-1	0
8454243	4010	4	0	-100	0	230	101300000	1000	0	0	-1	0
8466803	4010	0	0	-100	0	230	101300000	1000	0	0	-1	0
8479363	4010	0	0	-100	0	230	101300000	1000	0	0	-1	0
8491923	4015	0	0	-100	0	230	101300000	1000	0	0	-1	0
8504483	4013	0	0	-100	0	230	101300000	1000	0	0	-1	0
8517043	4011	0	0	-100	0	230	101300000	1000	0	0	-1	0
8529603	4011	0	0	-100	0	230	101300000	1000	0	0	-1	0
8542163	4012	0	0	-100	0	230	101300000	1000	0	0	-1	0
8554723	4015	0	0	-100	0	230	101300000	1000	0	0	-1	0
8567283	4016	0	0	-100	0	230	101300000	1000	0	0	-1	0
8579843	4016	0	0	-100	0	230	101300000	1000	0	0	-1	0
8592403	4016	0	0	-100	0	230	101300000	1000	0	0	-1	0
8604963	4010	4	0	-100	0	230	101300000	1000	0	0	-1	0
8617523	4011	1	0	-100	0	230	101300000	1000	0	0	-1	0
8630083	4012	0	0	-100	0	230	101300000	1000	0	0	-1	0
8642643	4015	0	0	-100	0	230	101300000	1000	0	0	-1	0
8655203	4018	0	0	-100	0	230	101300000	1000	0	0	-1	0
8667763	4019	0	0	-100	0	230	101300000	1000	0	0	-1	0
8680323	4015	0	0	-100	0	230	101300000	1000	0	0	-1	0
8692883	4012	0	0	-100	0	230	101300000	1000	0	0	-1	0
8705443	4009	0	0	-100	0	230	101300000	1000	0	0	-1	0
8718004	4009	0	0	-100	0	230	101300000	1000	0	0	-1	0
8730563	4012	1	0	-100	0	230	101300000	1000	0	0	-1	0
8743123	4007	2	0	-100	0	230	101300000	1000	0	0	-1	0
8755683	4012	4	0	-100	0	230	101300000	1000	0	0	-1	0
8768243	4008	1	0	-100	0	230	101300000	1000	0	0	-1	0
8780803	4012	0	0	-100	0	230	101300000	1000	0	0	-1	0
8793363	4019	0	0	-100	0	230	101300000	1000	0	0	-1	0
8805923	4015	0	0	-100	0	230	101300000	1000	0	0	-1	0
8818483	4018	0	0	-100	0	230	101300000	1000	0	0	-1	0
8831043	4016	0	0	-100	0	230	101300000	1000	0	0	-1	0
8843603	4009	0	0	-100	0	230	101300000	1000	0	0	-1	0
8856163	4009	2	0	-100	0	230	101300000	1000	0	0	-1	0
8868723	4011	4	0	-100	0	230	101300000	1000	0	0	-1	0
8881283	4009	3	0	-100	0	230	101300000	1000	0	0	-1	0
8893843	4011	2	0	-100	0	230	101300000	1000	0	0	-1	0
8906403	4012	0	0	-100	0	230	101300000	1000	0	0	-1	0
8918963	4011	0	0	-100	0	230	101300000	1000	0	0	-1	0
8931523	4011	0	0	-100	0	230	101300000	1000	0	0	-1	0
8944083	4013	0	0	-100	0	230	101300000	1000	0	0	-1	0
8956643	4016	0	0	-100	0	230	101300000	1000	0	0	-1	0
8969203	4018	0	0	-100	0	230	101300000	1000	0	0	-1	0
8981763	4017	0	0	-100	0	230	101300000	1000	0	0	-1	0
8994323	4011	0	0	-100	0	230	101300000	1000	0	0	-1	0
9006883	4010	3	0	-100	0	230	101300000	1000	0	0	-1	0
9019443	4012	3	0	-100	0	230	101300000	1000	0	0	-1	0
9032004	4012	0	0	-100	0	230	101300000	1000	0	0	-1	0
9044563	4008	0	0	-100	0	230	101300000	1000	0	0	-1	0
9057123	4007	0	0	-100	0	230	101300000	1000	0	0	-1	0
9069683	4012	0	0	-100	0	230	101300000	1000	0	0	-1	0
9082243	4014	0	0	-100	0	230	101300000	1000	0	0	-1	0
9094803	4016	0	0	-100	0	230	101300000	1000	0	0	-1	0
9107363	4016	0	0	-100	0	230	101300000	1000	0	0	-1	0
9119923	4016	0	0	-100	0	230	101300000	1000	0	0	-1	0
9132483	4017	0	0	-100	0	230	101300000	1000	0	0	-1	0
9145043	4019	0	0	-100	0	230	101300000	1000	0	0	-1	0
9157603	4013	0	0	-100	0	230	101300000	1000	0	0	-1	0
9170163	4012	0	0	-100	0	230	101300000	1000	0	0	-1	0
9182723	4009	0	0	-100	0	230	101300000	1000	0	0	-1	0
9195283	4009	0	0	-100	0	230	101300000	1000	0	0	-1	0
9207843	4011	0	0	-100	0	230	101300000	1000	0	0	-1	0
9220403	4012	2	0	-100	0	230	101300000	1000	0	0	-1	0
9232963	4011	3	0	-100	0	230	101300000	1000	0	0	-1	0
9245523	4010	1	0	-100	0	230	101300000	1000	0	0	-1	0
9258083	4008	0	0	-100	0	230	101300000	1000	0	0	-1	0
9270643	4011	1	0	-100	0	230	101300000	1000	0	0	-1	0
9283203	4009	0	0	-100	0	230	101300000	1000	0	0	-1	0
9295763	4011	0	0	-100	0	230	101300000	1000	0	0	-1	0
9308323	4007	0	0	-100	0	230	101300000	1000	0	0	-1	0
9320883	4008	0	0	-100	0	230	101300000	1000	0	0	-1	0
9333443	4009	0	0	-100	0	230	101300000	1000	0	0	-1	0
9346004	4014	0	0	-100	0	230	101300000	1000	0	0	-1	0
9358563	4011	0	0	-100	0	230	101300000	1000	0	0	-1	0
9371123	4013	0	0	-100	0	230	101300000	1000	0	0	-1	0
9383683	4012	0	0	-100	0	230	101300000	1000	0	0	-1	0
9396243	4015	0	0	-100	0	230	101300000	1000	0	0	-1	0
9408803	4014	0	0	-100	0	230	101300000	1000	0	0	-1	0
9421363	4022	0	0	-100	0	230	101300000	1000	0	0	-1	0
9433923	4013	0	0	-100	0	230	101300000	1000	0	0	-1	0
9446483	4012	0	0	-100	0	230	101300000	1000	0	0	-1	0
9459043	4013	3	0	-100	0	230	101300000	1000	0	0	-1	0
9471603	4010	0	0	-100	0	230	101300000	1000	0	0	-1	0
9484163	4012	0	0	-100	0	230	101300000	1000	0	0	-1	0
9496723	4013	0	0	-100	0	230	101300000	1000	0	0	-1	0
9509283	4013	0	0	-100	0	230	101300000	1000	0	0	-1	0
9521843	4018	0	0	-100	0	230	101300000	1000	0	0	-1	0
9534403	4016	0	0	-100	0	230	101300000	1000	0	0	-1	0
9546963	4010	1	0	-100	0	230	101300000	1000	0	0	-1	0
9559523	4013	3	0	-100	0	230	101300000	1000	0	0	-1	0
9572083	4006	0	0	-100	0	230	101300000	1000	0	0	-1	0
9584643	4015	0	0	-100	0	230	101300000	1000	0	0	-1	0
9597203	4016	0	0	-100	0	230	101300000	1000	0	0	-1	0
9609763	4019	0	0	-100	0	230	101300000	1000	0	0	-1	0
9622323	4008	0	0	-100	0	230	101300000	1000	0	0	-1	0
9634883	4012	2	0	-100	0	230	101300000	1000	0	0	-1	0
9647443	4011	4	0	-100	0	230	101300000	1000	0	0	-1	0
9660004	4015	0	0	-100	0	230	101300000	1000	0	0	-1	0
9672563	4012	0	0	-100	0	230	101300000	1000	0	0	-1	0
9685123	4013	0	0	-100	0	230	101300000	1000	0	0	-1	0
9697683	4016	0	0	-100	0	230	101300000	1000	0	0	-1	0
9710243	4017	0	0	-100	0	230	101300000	1000	0	0	-1	0
9722803	4018	0	0	-100	0	230	101300000	1000	0	0	-1	0
9735363	4014	0	0	-100	0	230	101300000	1000	0	0	-1	0
9747923	4019	0	0	-100	0	230	101300000	1000	0	0	-1	0
9760483	4016	0	0	-100	0	230	101300000	1000	0	0	-1	0
9773043	4014	0	0	-100	0	230	101300000	1000	0	0	-1	0
9785603	4011	1	0	-100	0	230	101300000	1000	0	0	-1	0
9798163	4012	3	0	-100	0	230	101300000	1000	0	0	-1	0
9810723	4011	0	0	-100	0	230	101300000	1000	0	0	-1	0
9823283	4011	0	0	-100	0	230	101300000	1000	0	0	-1	0
9835843	4017	0	0	-100	0	230	101300000	1000	0	0	-1	0
9848403	4015	0	0	-100	0	230	101300000	1000	0	0	-1	0
9860963	4018	0	0	-100	0	230	101300000	1000	0	0	-1	0
9873523	4011	3	0	-100	0	230	101300000	1000	0	0	-1	0
9886083	4009	4	0	-100	0	230	101300000	1000	0	0	-1	0
9898643	4011	2	0	-100	0	230	101300000	1000	0	0	-1	0
9911203	4008	0	0	-100	0	230	101300000	1000	0	0	-1	0
9923763	4011	0	0	-100	0	230	101300000	1000	0	0	-1	0
9936323	4013	0	0	-100	0	230	101300000	1000	0	0	-1	0
9948883	4016	0	0	-100	0	230	101300000	1000	0	0	-1	0
9961443	4017	0	0	-100	0	230	101300000	1000	0	0	-1	0
9974004	4007	0	0	-100	0	230	101300000	1000	0	0	-1	0
9986563	4008	0	0	-100	0	230	101300000	1000	0	0	-1	0
9999123	4015	0	0	-100	0	230	101300000	1000	0	0	-1	0
10011683	4014	0	0	-100	0	230	101300000	1000	0	0	-1	0
10024243	4012	2	0	-100	0	230	101300000	1000	0	0	-1	0
10036803	4011	0	0	-100	0	230	101300000	1000	0	0	-1	0
10049363	4014	0	0	-100	0	230	101300000	1000	0	0	-1	0
10061923	4019	0	0	-100	0	230	101300000	1000	0	0	-1	0
10074483	4011	2	0	-100	0	230	101300000	1000	0	0	-1	0
10087043	4012	0	0	-100	0	230	101300000	1000	0	0	-1	0
10099603	4016	0	0	-100	0	230	101300000	1000	0	0	-1	0
10112163	4016	0	0	-100	0	230	101300000	1000	0	0	-1	0
10124723	4014	0	0	-100	0	230	101300000	1000	0	0	-1	0
10137283	4018	0	0	-100	0	230	101300000	1000	0	0	-1	0
10149843	4019	0	0	-100	0	230	101300000	1000	0	0	-1	0
10162403	4019	0	0	-100	0	230	101300000	1000	0	0	-1	0
10174963	4019	0	0	-100	0	230	101300000	1000	0	0	-1	0
10187523	4012	0	0	-100	0	230	101300000	1000	0	0	-1	0
10200083	4009	0	0	-100	0	230	101300000	1000	0	0	-1	0
10212643	4011	2	0	-100	0	230	101300000	1000	0	0	-1	0
10225203	4012	4	0	-100	0	230	101300000	1000	0	0	-1	0
10237763	4011	3	0	-100	0	230	101300000	1000	0	0	-1	0
10250323	4009	4	0	-100	0	230	101300000	1000	0	0	-1	0
10262883	4012	4	0	-100	0	230	101300000	1000	0	0	-1	0
10275443	4011	2	0	-100	0	230	101300000	1000	0	0	-1	0
10288004	4012	0	0	-100	0	230	101300000	1000	0	0	-1	0
10300563	4012	0	0	-100	0	230	101300000	1000	0	0	-1	0
10313123	4010	1	0	-100	0	230	101300000	1000	0	0	-1	0
10325683	4012	0	0	-100	0	230	101300000	1000	0	0	-1	0
10338243	4018	0	0	-100	0	230	101300000	1000	0	0	-1	0
10350803	4013	0	0	-100	0	230	101300000	1000	0	0	-1	0
10363363	4012	0	0	-100	0	230	101300000	1000	0	0	-1	0
10375923	4008	1	0	-100	0	230	101300000	1000	0	0	-1	0
10388483	4010	4	0	-100	0	230	101300000	1000	0	0	-1	0
10401043	4013	4	0	-100	0	230	101300000	1000	0	0	-1	0
10413603	4013	3	0	-100	0	230	101300000	1000	0	0	-1	0
10426163	4008	0	0	-100	0	230	101300000	1000	0	0	-1	0
10438723	4015	0	0	-100	0	230	101300000	1000	0	0	-1	0
10451283	4018	0	0	-100	0	230	101300000	1000	0	0	-1	0
10463843	4017	0	0	-100	0	230	101300000	1000	0	0	-1	0
10476403	4016	0	0	-100	0	230	101300000	1000	0	0	-1	0
10488963	4012	1	0	-100	0	230	101300000	1000	0	0	-1	0
10501523	4011	2	0	-100	0	230	101300000	1000	0	0	-1	0
10514083	4011	3	0	-100	0	230	101300000	1000	0	0	-1	0
10526643	4014	3	0	-100	0	230	101300000	1000	0	0	-1	0
10539203	4010	4	0	-100	0	230	101300000	1000	0	0	-1	0
10551763	4010	4	0	-100	0	230	101300000	1000	0	0	-1	0
10564323	4005	3	0	-100	0	230	101300000	1000	0	0	-1	0
10576883	4010	4	0	-100	0	230	101300000	1000	0	0	-1	0
10589443	4010	4	0	-100	0	230	101300000	1000	0	0	-1	0
10602004	4015	0	0	-100	0	230	101300000	1000	0	0	-1	0
10614563	4013	1	0	-100	0	230	101300000	1000	0	0	-1	0
10627123	4009	4	0	-100	0	230	101300000	1000	0	0	-1	0
10639683	4011	3	0	-100	0	230	101300000	1000	0	0	-1	0
10652243	4011	4	0	-100	0	230	101300000	1000	0	0	-1	0
10664803	4011	4	0	-100	0	230	101300000	1000	0	0	-1	0
10677363	4009	4	0	-100	0	230	101300000	1000	0	0	-1	0
10689923	4008	3	0	-100	0	230	101300000	1000	0	0	-1	0
10702483	4012	3	0	-100	0	230	101300000	1000	0	0	-1	0
10715043	4011	4	0	-100	0	230	101300000	1000	0	0	-1	0
10727603	4012	4	0	-100	0	230	101300000	1000	0	0	-1	0
10740163	4010	4	0	-100	0	230	101300000	1000	0	0	-1	0
10752723	4009	0	0	-100	0	230	101300000	1000	0	0	-1	0
10765283	4014	0	0	-100	0	230	101300000	1000	0	0	-1	0
10777843	4015	0	0	-100	0	230	101300000	1000	0	0	-1	0
10790403	4011	0	0	-100	0	230	101300000	1000	0	0	-1	0
10802963	4011	3	0	-100	0	230	101300000	1000	0	0	-1	0
10815523	4010	0	0	-100	0	230	101300000	1000	0	0	-1	0
10828083	4017	0	0	-100	0	230	101300000	1000	0	0	-1	0
10840643	4016	0	0	-100	0	230	101300000	1000	0	0	-1	0
10853203	4009	2	0	-100	0	230	101300000	1000	0	0	-1	0
10865763	4009	0	0	-100	0	230	101300000	1000	0	0	-1	0
10878323	4011	0	0	-100	0	230	101300000	1000	0	0	-1	0
10890883	4017	0	0	-100	0	230	101300000	1000	0	0	-1	0
10903443	4016	0	0	-100	0	230	101300000	1000	0	0	-1	0
10916004	4007	2	0	-100	0	230	101300000	1000	0	0	-1	0
10928563	4011	0	0	-100	0	230	101300000	1000	0	0	-1	0
10941123	4011	4	0	-100	0	230	101300000	1000	0	0	-1	0
10953683	4009	0	0	-100	0	230	101300000	1000	0	0	-1	0
10966243	4014	0	0	-100	0	230	101300000	1000	0	0	-1	0
10978803	4015	0	0	-100	0	230	101300000	1000	0	0	-1	0
10991363	4017	0	0	-100	0	230	101300000	1000	0	0	-1	0
11003923	4013	0	0	-100	0	230	101300000	1000	0	0	-1	0
11016483	4009	3	0	-100	0	230	101300000	1000	0	0	-1	0
11029043	4009	0	0	-100	0	230	101300000	1000	0	0	-1	0
11041603	4017	0	0	-100	0	230	101300000	1000	0	0	-1	0
11054163	4017	0	0	-100	0	230	101300000	1000	0	0	-1	0
11066723	4009	0	0	-100	0	230	101300000	1000	0	0	-1	0
11079283	4011	3	0	-100	0	230	101300000	1000	0	0	-1	0
11091843	4007	0	0	-100	0	230	101300000	1000	0	0	-1	0
11104403	4012	0	0	-100	0	230	101300000	1000	0	0	-1	0
11116963	4012	0	0	-100	0	230	101300000	1000	0	0	-1	0
11129523	4012	0	0	-100	0	230	101300000	1000	0	0	-1	0
11142083	4011	0	0	-100	0	230	101300000	1000	0	0	-1	0
11154643	4011	0	0	-100	0	230	101300000	1000	0	0	-1	0
11167203	4011	1	0	-100	0	230	101300000	1000	0	0	-1	0
11179763	4011	3	0	-100	0	230	101300000	1000	0	0	-1	0
11192323	4008	0	0	-100	0	230	101300000	1000	0	0	-1	0
11204883	4011	4	0	-100	0	230	101300000	1000	0	0	-1	0
11217443	4011	0	0	-100	0	230	101300000	1000	0	0	-1	0
11230004	4018	0	0	-100	0	230	101300000	1000	0	0	-1	0
11242563	4013	0	0	-100	0	230	101300000	1000	0	0	-1	0
11255123	4014	0	0	-100	0	230	101300000	1000	0	0	-1	0
11267683	4016	0	0	-100	0	230	101300000	1000	0	0	-1	0
11280243	4016	0	0	-100	0	230	101300000	1000	0	0	-1	0
11292803	4014	1	0	-100	0	230	101300000	1000	0	0	-1	0
11305363	4011	1	0	-100	0	230	101300000	1000	0	0	-1	0
11317923	4012	4	0	-100	0	230	101300000	1000	0	0	-1	0
11330483	4012	3	0	-100	0	230	101300000	1000	0	0	-1	0
11343043	4012	4	0	-100	0	230	101300000	1000	0	0	-1	0
11355603	4008	0	0	-100	0	230	101300000	1000	0	0	-1	0
11368163	4013	0	0	-100	0	230	101300000	1000	0	0	-1	0
11380723	4014	0	0	-100	0	230	101300000	1000	0	0	-1	0
11393283	4012	0	0	-100	0	230	101300000	1000	0	0	-1	0
11405843	4016	0	0	-100	0	230	101300000	1000	0	0	-1	0
11418403	4015	0	0	-100	0	230	101300000	1000	0	0	-1	0
11430963	4015	0	0	-100	0	230	101300000	1000	0	0	-1	0
11443523	4015	0	0	-100	0	230	101300000	1000	0	0	-1	0
11456083	4008	0	0	-100	0	230	101300000	1000	0	0	-1	0
11468643	4009	2	0	-100	0	230	101300000	1000	0	0	-1	0
11481203	4009	5	0	-100	0	230	101300000	1000	0	0	-1	0
11493763	4012	4	0	-100	0	230	101300000	1000	0	0	-1	0
11506323	4011	0	0	-100	0	230	101300000	1000	0	0	-1	0
11518883	4009	3	0	-100	0	230	101300000	1000	0	0	-1	0
11531443	4011	0	0	-100	0	230	101300000	1000	0	0	-1	0
11544004	4007	3	0	-100	0	230	101300000	1000	0	0	-1	0
11556563	4010	2	0	-100	0	230	101300000	1000	0	0	-1	0
11569123	4008	0	0	-100	0	230	101300000	1000	0	0	-1	0
11581683	4017	0	0	-100	0	230	101300000	1000	0	0	-1	0
11594243	4011	1	0	-100	0	230	101300000	1000	0	0	-1	0
11606803	4011	4	0	-100	0	230	101300000	1000	0	0	-1	0
11619363	4012	0	0	-100	0	230	101300000	1000	0	0	-1	0
11631923	4012	0	0	-100	0	230	101300000	1000	0	0	-1	0
11644483	4013	0	0	-100	0	230	101300000	1000	0	0	-1	0
11657043	4011	4	0	-100	0	230	101300000	1000	0	0	-1	0
11669603	4010	0	0	-100	0	230	101300000	1000	0	0	-1	0
11682163	4014	0	0	-100	0	230	101300000	1000	0	0	-1	0
11694723	4018	0	0	-100	0	230	101300000	1000	0	0	-1	0
11707283	4009	1	0	-100	0	230	101300000	1000	0	0	-1	0
11719843	4014	4	0	-100	0	230	101300000	1000	0	0	-1	0
11732403	4011	0	0	-100	0	230	101300000	1000	0	0	-1	0
11744963	4018	0	0	-100	0	230	101300000	1000	0	0	-1	0
11757523	4012	0	0	-100	0	230	101300000	1000	0	0	-1	0
11770083	4009	3	0	-100	0	230	101300000	1000	0	0	-1	0
11782643	4010	0	0	-100	0	230	101300000	1000	0	0	-1	0
11795203	4011	0	0	-100	0	230	101300000	1000	0	0	-1	0
11807763	4019	0	0	-100	0	230	101300000	1000	0	0	-1	0
11820323	4008	2	0	-100	0	230	101300000	1000	0	0	-1	0
11832883	4013	0	0	-100	0	230	101300000	1000	0	0	-1	0
11845443	4020	0	0	-100	0	230	101300000	1000	0	0	-1	0
11858004	4014	0	0	-100	0	230	101300000	1000	0	0	-1	0
11870563	4016	0	0	-100	0	230	101300000	1000	0	0	-1	0
11883123	4012	0	0	-100	0	230	101300000	1000	0	0	-1	0
11895683	4015	2	0	-100	0	230	101300000	1000	0	0	-1	0
11908243	4017	0	0	-100	0	230	101300000	1000	0	0	-1	0
11920803	4017	0	0	-100	0	230	101300000	1000	0	0	-1	0
11933363	4008	0	0	-100	0	230	101300000	1000	0	0	-1	0
11945923	4009	0	0	-100	0	230	101300000	1000	0	0	-1	0
11958483	4016	0	0	-100	0	230	101300000	1000	0	0	-1	0
11971043	4015	0	0	-100	0	230	101300000	1000	0	0	-1	0
11983603	4011	5	0	-100	0	230	101300000	1000	0	0	-1	0
11996163	4011	0	0	-100	0	230	101300000	1000	0	0	-1	0
12008723	4012	0	0	-100	0	230	101300000	1000	0	0	-1	0
12021283	4017	0	0	-100	0	230	101300000	1000	0	0	-1	0
12033843	4013	0	0	-100	0	230	101300000	1000	0	0	-1	0
12046403	4010	4	0	-100	0	230	101300000	1000	0	0	-1	0
12058963	4009	0	0	-100	0	230	101300000	1000	0	0	-1	0
12071523	4011	0	0	-100	0	230	101300000	1000	0	0	-1	0
12084083	4017	0	0	-100	0	230	101300000	1000	0	0	-1	0
12096643	4014	0	0	-100	0	230	101300000	1000	0	0	-1	0
12109203	4013	2	0	-100	0	230	101300000	1000	0	0	-1	0
12121763	4007	0	0	-100	0	230	101300000	1000	0	0	-1	0
12134323	4017	0	0	-100	0	230	101300000	1000	0	0	-1	0
12146883	4014	0	0	-100	0	230	101300000	1000	0	0	-1	0
12159443	4009	4	0	-100	0	230	101300000	1000	0	0	-1	0
12172004	4014	0	0	-100	0	230	101300000	1000	0	0	-1	0
12184563	4016	0	0	-100	0	230	101300000	1000	0	0	-1	0
12197123	4008	1	0	-100	0	230	101300000	1000	0	0	-1	0
12209683	4012	0	0	-100	0	230	101300000	1000	0	0	-1	0
12222243	4016	0	0	-100	0	230	101300000	1000	0	0	-1	0
12234803	4009	1	0	-100	0	230	101300000	1000	0	0	-1	0
12247363	4012	0	0	-100	0	230	101300000	1000	0	0	-1	0
12259923	4013	0	0	-100	0	230	101300000	1000	0	0	-1	0
12272483	4016	0	0	-100	0	230	101300000	1000	0	0	-1	0
12285043	4012	4	0	-100	0	230	101300000	1000	0	0	-1	0
12297603	4012	0	0	-100	0	230	101300000	1000	0	0	-1	0
12310163	4017	0	0	-100	0	230	101300000	1000	0	0	-1	0
12322723	4008	0	0	-100	0	230	101300000	1000	0	0	-1	0
12335283	4006	0	0	-100	0	230	101300000	1000	0	0	-1	0
12347843	4016	0	0	-100	0	230	101300000	1000	0	0	-1	0
12360403	4013	0	0	-100	0	230	101300000	1000	0	0	-1	0
12372963	4010	3	0	-100	0	230	101300000	1000	0	0	-1	0
12385523	4008	0	0	-100	0	230	101300000	1000	0	0	-1	0
12398083	4016	0	0	-100	0	230	101300000	1000	0	0	-1	0
12410643	4011	0	0	-100	0	230	101300000	1000	0	0	-1	0
12423203	4011	2	0	-100	0	230	101300000	1000	0	0	-1	0
12435763	4009	1	0	-100	0	230	101300000	1000	0	0	-1	0
12448323	4008	0	0	-100	0	230	101300000	1000	0	0	-1	0
12460883	4009	0	0	-100	0	230	101300000	1000	0	0	-1	0
12473443	4008	1	0	-100	0	230	101300000	1000	0	0	-1	0
12486004	4008	0	0	-100	0	230	101300000	1000	0	0	-1	0
12498563	4011	3	0	-100	0	230	101300000	1000	0	0	-1	0
12511123	4012	4	0	-100	0	230	101300000	1000	0	0	-1	0
12523683	4012	2	0	-100	0	230	101300000	1000	0	0	-1	0
12536243	4012	4	0	-100	0	230	101300000	1000	0	0	-1	0
12548803	4012	4	0	-100	0	230	101300000	1000	0	0	-1	0
12561363	4013	0	0	-100	0	230	101300000	1000	0	0	-1	0
12573923	4007	0	0	-100	0	230	101300000	1000	0	0	-1	0
12586483	4013	0	0	-100	0	230	101300000	1000	0	0	-1	0
12599043	4017	0	0	-100	0	230	101300000	1000	0	0	-1	0
12611603	4017	0	0	-100	0	230	101300000	1000	0	0	-1	0
12624163	4011	0	0	-100	0	230	101300000	1000	0	0	-1	0
12636723	4012	4	0	-100	0	230	101300000	1000	0	0	-1	0
12649283	4009	3	0	-100	0	230	101300000	1000	0	0	-1	0
12661843	4010	0	0	-100	0	230	101300000	1000	0	0	-1	0
12674403	4009	0	0	-100	0	230	101300000	1000	0	0	-1	0
12686963	4013	0	0	-100	0	230	101300000	1000	0	0	-1	0
12699523	4015	0	0	-100	0	230	101300000	1000	0	0	-1	0
12712083	4015	0	0	-100	0	230	101300000	1000	0	0	-1	0
12724643	4012	0	0	-100	0	230	101300000	1000	0	0	-1	0
12737203	4008	4	0	-100	0	230	101300000	1000	0	0	-1	0
12749763	4009	0	0	-100	0	230	101300000	1000	0	0	-1	0
12762323	4015	0	0	-100	0	230	101300000	1000	0	0	-1	0
12774883	4014	0	0	-100	0	230	101300000	1000	0	0	-1	0
12787443	4010	3	0	-100	0	230	101300000	1000	0	0	-1	0
12800004	4017	0	0	-100	0	230	101300000	1000	0	0	-1	0
12812563	4023	0	0	-100	0	230	101300000	1000	0	0	-1	0
12825123	4012	4	0	-100	0	230	101300000	1000	0	0	-1	0
12837683	4010	0	0	-100	0	230	101300000	1000	0	0	-1	0
12850243	4017	0	0	-100	0	230	101300000	1000	0	0	-1	0
12862803	4018	0	0	-100	0	230	101300000	1000	0	0	-1	0
12875363	4012	0	0	-100	0	230	101300000	1000	0	0	-1	0
12887923	4008	4	0	-100	0	230	101300000	1000	0	0	-1	0
12900483	4010	0	0	-100	0	230	101300000	1000	0	0	-1	0
12913043	4019	0	0	-100	0	230	101300000	1000	0	0	-1	0
12925603	4012	0	0	-100	0	230	101300000	1000	0	0	-1	0
12938163	4009	3	0	-100	0	230	101300000	1000	0	0	-1	0
12950723	4011	0	0	-100	0	230	101300000	1000	0	0	-1	0
12963283	4019	0	0	-100	0	230	101300000	1000	0	0	-1	0
12975843	4009	0	0	-100	0	230	101300000	1000	0	0	-1	0
12988403	4011	3	0	-100	0	230	101300000	1000	0	0	-1	0
13000963	4007	0	0	-100	0	230	101300000	1000	0	0	-1	0
13013523	4016	0	0	-100	0	230	101300000	1000	0	0	-1	0
13026083	4017	0	0	-100	0	230	101300000	1000	0	0	-1	0
13038643	4019	0	0	-100	0	230	101300000	1000	0	0	-1	0
13051203	4011	1	0	-100	0	230	101300000	1000	0	0	-1	0
13063763	4009	4	0	-100	0	230	101300000	1000	0	0	-1	0
13076323	4011	0	0	-100	0	230	101300000	1000	0	0	-1	0
13088883	4017	0	0	-100	0	230	101300000	1000	0	0	-1	0
13101443	4017	0	0	-100	0	230	101300000	1000	0	0	-1	0
13114004	4006	0	0	-100	0	230	101300000	1000	0	0	-1	0
13126563	4011	1	0	-100	0	230	101300000	1000	0	0	-1	0
13139123	4012	0	0	-100	0	230	101300000	1000	0	0	-1	0
13151683	4017	0	0	-100	0	230	101300000	1000	0	0	-1	0
13164243	4016	0	0	-100	0	230	101300000	1000	0	0	-1	0
13176803	4011	1	0	-100	0	230	101300000	1000	0	0	-1	0
13189363	4008	0	0	-100	0	230	101300000	1000	0	0	-1	0
13201923	4016	0	0	-100	0	230	101300000	1000	0	0	-1	0
13214483	4013	0	0	-100	0	230	101300000	1000	0	0	-1	0
13227043	4008	4	0	-100	0	230	101300000	1000	0	0	-1	0
13239603	4011	0	0	-100	0	230	101300000	1000	0	0	-1	0
13252163	4016	0	0	-100	0	230	101300000	1000	0	0	-1	0
13264723	4012	0	0	-100	0	230	101300000	1000	0	0	-1	0
13277283	4011	1	0	-100	0	230	101300000	1000	0	0	-1	0
13289843	4011	0	0	-100	0	230	101300000	1000	0	0	-1	0
13302403	4021	0	0	-100	0	230	101300000	1000	0	0	-1	0
13314963	4012	4	0	-100	0	230	101300000	1000	0	0	-1	0
13327523	4010	0	0	-100	0	230	101300000	1000	0	0	-1	0
13340083	4018	0	0	-100	0	230	101300000	1000	0	0	-1	0
13352643	4013	0	0	-100	0	230	101300000	1000	0	0	-1	0
13365203	4013	3	0	-100	0	230	101300000	1000	0	0	-1	0
13377763	4011	0	0	-100	0	230	101300000	1000	0	0	-1	0
13390323	4007	0	0	-100	0	230	101300000	1000	0	0	-1	0
13402883	4015	0	0	-100	0	230	101300000	1000	0	0	-1	0
13415443	4017	0	0	-100	0	230	101300000	1000	0	0	-1	0
13428004	4011	0	0	-100	0	230	101300000	1000	0	0	-1	0
13440563	4008	3	0	-100	0	230	101300000	1000	0	0	-1	0
13453123	4011	0	0	-100	0	230	101300000	1000	0	0	-1	0
13465683	4011	0	0	-100	0	230	101300000	1000	0	0	-1	0
13478243	4011	0	0	-100	0	230	101300000	1000	0	0	-1	0
13490803	4009	0	0	-100	0	230	101300000	1000	0	0	-1	0
13503363	4011	0	0	-100	0	230	101300000	1000	0	0	-1	0
13515923	4007	0	0	-100	0	230	101300000	1000	0	0	-1	0
13528483	4009	0	0	-100	0	230	101300000	1000	0	0	-1	0
13566163	4017	0	0	-100	0	230	101300000	1000	0	0	-1	0
13578723	4019	0	0	-100	0	230	101300000	1000	0	0	-1	0
13591283	4014	0	0	-100	0	230	101300000	1000	0	0	-1	0
13603843	4012	0	0	-100	0	230	101300000	1000	0	0	-1	0
13616403	4015	0	0	-100	0	230	101300000	1000	0	0	-1	0
13628963	4016	0	0	-100	0	230	101300000	1000	0	0	-1	0
13641523	4013	0	0	-100	0	230	101300000	1000	0	0	-1	0
13654083	4011	0	0	-100	0	230	101300000	1000	0	0	-1	0
13666643	4015	0	0	-100	0	230	101300000	1000	0	0	-1	0
13679203	4016	0	0	-100	0	230	101300000	1000	0	0	-1	0
13691763	4012	0	0	-100	0	230	101300000	1000	0	0	-1	0
13754563	4017	0	0	-100	0	230	101300000	1000	0	0	-1	0
13767123	4008	4	0	-100	0	230	101300000	1000	0	0	-1	0
13779683	4015	2	0	-100	0	230	101300000	1000	0	0	-1	0
13792243	4009	3	0	-100	0	230	101300000	1000	0	0	-1	0
13804803	4011	1	0	-100	0	230	101300000	1000	0	0	-1	0
13817363	4014	0	0	-100	0	230	101300000	1000	0	0	-1	0
13829923	4014	0	0	-100	0	230	101300000	1000	0	0	-1	0
13842483	4011	0	0	-100	0	230	101300000	1000	0	0	-1	0
13855043	4018	0	0	-100	0	230	101300000	1000	0	0	-1	0
13867603	4018	0	0	-100	0	230	101300000	1000	0	0	-1	0
13880163	4016	0	0	-100	0	230	101300000	1000	0	0	-1	0
13892723	4015	0	0	-100	0	230	101300000	1000	0	0	-1	0
13930403	4017	0	0	-100	0	230	101300000	1000	0	0	-1	0
13942963	4011	0	0	-100	0	230	101300000	1000	0	0	-1	0
13955523	4012	0	0	-100	0	230	101300000	1000	0	0	-1	0
13968083	4011	2	0	-100	0	230	101300000	1000	0	0	-1	0
13980643	4009	1	0	-100	0	230	101300000	1000	0	0	-1	0
13993203	4010	5	0	-100	0	230	101300000	1000	0	0	-1	0
14005763	4013	4	0	-100	0	230	101300000	1000	0	0	-1	0
14018323	4007	0	0	-100	0	230	101300000	1000	0	0	-1	0
14030883	4008	0	0	-100	0	230	101300000	1000	0	0	-1	0
14043443	4009	0	0	-100	0	230	101300000	1000	0	0	-1	0
14056004	4010	0	0	-100	0	230	101300000	1000	0	0	-1	0
14068563	4016	0	0	-100	0	230	101300000	1000	0	0	-1	0
14081123	4017	0	0	-100	0	230	101300000	1000	0	0	-1	0
14093683	4016	0	0	-100	0	230	101300000	1000	0	0	-1	0
14106243	4011	0	0	-100	0	230	101300000	1000	0	0	-1	0
14118803	4010	4	0	-100	0	230	101300000	1000	0	0	-1	0
14131363	4015	4	0	-100	0	230	101300000	1000	0	0	-1	0
14143923	4006	0	0	-100	0	230	101300000	1000	0	0	-1	0
14156483	4011	0	0	-100	0	230	101300000	1000	0	0	-1	0
14169043	4011	0	0	-100	0	230	101300000	1000	0	0	-1	0
14181603	4013	0	0	-100	0	230	101300000	1000	0	0	-1	0
14194163	4015	0	0	-100	0	230	101300000	1000	0	0	-1	0
14206723	4021	0	0	-100	0	230	101300000	1000	0	0	-1	0
14219283	4008	0	0	-100	0	230	101300000	1000	0	0	-1	0
14231843	4010	4	0	-100	0	230	101300000	1000	0	0	-1	0
14244403	4012	3	0	-100	0	230	101300000	1000	0	0	-1	0
14256963	4011	4	0	-100	0	230	101300000	1000	0	0	-1	0
14269523	4011	3	0	-100	0	230	101300000	1000	0	0	-1	0
14282083	4010	0	0	-100	0	230	101300000	1000	0	0	-1	0
14294643	4011	0	0	-100	0	230	101300000	1000	0	0	-1	0
14307203	4013	0	0	-100	0	230	101300000	1000	0	0	-1	0
14319763	4014	0	0	-100	0	230	101300000	1000	0	0	-1	0
14332323	4013	0	0	-100	0	230	101300000	1000	0	0	-1	0
14344883	4016	0	0	-100	0	230	101300000	1000	0	0	-1	0
14357443	4016	0	0	-100	0	230	101300000	1000	0	0	-1	0
14370004	4007	0	0	-100	0	230	101300000	1000	0	0	-1	0
14382563	4017	0	0	-100	0	230	101300000	1000	0	0	-1	0
14395123	4017	0	0	-100	0	230	101300000	1000	0	0	-1	0
14407683	4018	0	0	-100	0	230	101300000	1000	0	0	-1	0
14420243	4023	0	0	-100	0	230	101300000	1000	0	0	-1	0
14432803	4013	0	0	-100	0	230	101300000	1000	0	0	-1	0
14445363	4021	0	0	-100	0	230	101300000	1000	0	0	-1	0
14457923	4013	0	0	-100	0	230	101300000	1000	0	0	-1	0
14470483	4011	0	0	-100	0	230	101300000	1000	0	0	-1	0
14483043	4011	0	0	-100	0	230	101300000	1000	0	0	-1	0
14495603	4010	5	0	-100	0	230	101300000	1000	0	0	-1	0
14508163	4012	2	0	-100	0	230	101300000	1000	0	0	-1	0
14520723	4011	0	0	-100	0	230	101300000	1000	0	0	-1	0
14533283	4014	0	0	-100	0	230	101300000	1000	0	0	-1	0
14545843	4015	0	0	-100	0	230	101300000	1000	0	0	-1	0
14558403	4011	0	0	-100	0	230	101300000	1000	0	0	-1	0
14570963	4009	2	0	-100	0	230	101300000	1000	0	0	-1	0
14583523	4012	0	0	-100	0	230	101300000	1000	0	0	-1	0
14596083	4018	0	0	-100	0	230	101300000	1000	0	0	-1	0
14608643	4018	0	0	-100	0	230	101300000	1000	0	0	-1	0
14621203	4020	0	0	-100	0	230	101300000	1000	0	0	-1	0
14633763	4012	0	0	-100	0	230	101300000	1000	0	0	-1	0
14646323	4014	0	0	-100	0	230	101300000	1000	0	0	-1	0
14658883	4018	0	0	-100	0	230	101300000	1000	0	0	-1	0
14671443	4014	0	0	-100	0	230	101300000	1000	0	0	-1	0
14684004	4013	0	0	-100	0	230	101300000	1000	0	0	-1	0
14696563	4011	0	0	-100	0	230	101300000	1000	0	0	-1	0
14709123	4008	4	0	-100	0	230	101300000	1000	0	0	-1	0
14721683	4011	0	0	-100	0	230	101300000	1000	0	0	-1	0
14734243	4018	0	0	-100	0	230	101300000	1000	0	0	-1	0
14746803	4017	0	0	-100	0	230	101300000	1000	0	0	-1	0
14759363	4015	0	0	-100	0	230	101300000	1000	0	0	-1	0
14771923	4010	0	0	-100	0	230	101300000	1000	0	0	-1	0
14784483	4011	1	0	-100	0	230	101300000	1000	0	0	-1	0
14797043	4013	2	0	-100	0	230	101300000	1000	0	0	-1	0
14809603	4009	2	0	-100	0	230	101300000	1000	0	0	-1	0
14822163	4009	3	0	-100	0	230	101300000	1000	0	0	-1	0
14834723	4013	2	0	-100	0	230	101300000	1000	0	0	-1	0
14847283	4012	4	0	-100	0	230	101300000	1000	0	0	-1	0
14859843	4011	2	0	-100	0	230	101300000	1000	0	0	-1	0
14872403	4008	2	0	-100	0	230	101300000	1000	0	0	-1	0
14884963	4012	0	0	-100	0	230	101300000	1000	0	0	-1	0
14897523	4014	0	0	-100	0	230	101300000	1000	0	0	-1	0
14910083	4017	0	0	-100	0	230	101300000	1000	0	0	-1	0
14922643	4014	0	0	-100	0	230	101300000	1000	0	0	-1	0
14935203	4010	0	0	-100	0	230	101300000	1000	0	0	-1	0
14947763	4012	3	0	-100	0	230	101300000	1000	0	0	-1	0
14960323	4008	0	0	-100	0	230	101300000	1000	0	0	-1	0
14972883	4019	0	0	-100	0	230	101300000	1000	0	0	-1	0
14985443	4015	0	0	-100	0	230	101300000	1000	0	0	-1	0
14998004	4012	0	0	-100	0	230	101300000	1000	0	0	-1	0
15010563	4009	0	0	-100	0	230	101300000	1000	0	0	-1	0
15023123	4008	3	0	-100	0	230	101300000	1000	0	0	-1	0
15035683	4015	0	0	-100	0	230	101300000	1000	0	0	-1	0
15048243	4009	0	0	-100	0	230	101300000	1000	0	0	-1	0
15060803	4006	2	0	-100	0	230	101300000	1000	0	0	-1	0
15073363	4019	0	0	-100	0	230	101300000	1000	0	0	-1	0
15085923	4013	0	0	-100	0	230	101300000	1000	0	0	-1	0
15098483	4011	4	0	-100	0	230	101300000	1000	0	0	-1	0
15111043	4009	0	0	-100	0	230	101300000	1000	0	0	-1	0
15123603	4018	0	0	-100	0	230	101300000	1000	0	0	-1	0
15136163	4015	0	0	-100	0	230	101300000	1000	0	0	-1	0
15148723	4010	0	0	-100	0	230	101300000	1000	0	0	-1	0
15161283	4009	2	0	-100	0	230	101300000	1000	0	0	-1	0
15173843	4011	1	0	-100	0	230	101300000	1000	0	0	-1	0
15186403	4018	0	0	-100	0	230	101300000	1000	0	0	-1	0
15198963	4013	0	0	-100	0	230	101300000	1000	0	0	-1	0
15211523	4013	0	0	-100	0	230	101300000	1000	0	0	-1	0
15224083	4008	1	0	-100	0	230	101300000	1000	0	0	-1	0
15236643	4021	0	0	-100	0	230	101300000	1000	0	0	-1	0
15249203	4015	0	0	-100	0	230	101300000	1000	0	0	-1	0
15261763	4008	3	0	-100	0	230	101300000	1000	0	0	-1	0
15274323	4016	0	0	-100	0	230	101300000	1000	0	0	-1	0
15286883	4007	0	0	-100	0	230	101300000	1000	0	0	-1	0
15299443	4013	0	0	-100	0	230	101300000	1000	0	0	-1	0
15312004	4011	0	0	-100	0	230	101300000	1000	0	0	-1	0
15324563	4013	4	0	-100	0	230	101300000	1000	0	0	-1	0
15337123	4011	0	0	-100	0	230	101300000	1000	0	0	-1	0
15349683	4019	0	0	-100	0	230	101300000	1000	0	0	-1	0
15362243	4013	0	0	-100	0	230	101300000	1000	0	0	-1	0
15374803	4011	2	0	-100	0	230	101300000	1000	0	0	-1	0
15387363	4007	0	0	-100	0	230	101300000	1000	0	0	-1	0
15399923	4016	0	0	-100	0	230	101300000	1000	0	0	-1	0
15412483	4007	0	0	-100	0	230	101300000	1000	0	0	-1	0
15425043	4012	2	0	-100	0	230	101300000	1000	0	0	-1	0
15437603	4014	0	0	-100	0	230	101300000	1000	0	0	-1	0
15450163	4017	0	0	-100	0	230	101300000	1000	0	0	-1	0
15462723	4013	0	0	-100	0	230	101300000	1000	0	0	-1	0
15475283	4009	0	0	-100	0	230	101300000	1000	0	0	-1	0
15487843	4009	3	0	-100	0	230	101300000	1000	0	0	-1	0
15500403	4011	0	0	-100	0	230	101300000	1000	0	0	-1	0
15512963	4014	0	0	-100	0	230	101300000	1000	0	0	-1	0
15525523	4006	0	0	-100	0	230	101300000	1000	0	0	-1	0
15538083	4009	0	0	-100	0	230	101300000	1000	0	0	-1	0
15550643	4018	0	0	-100	0	230	101300000	1000	0	0	-1	0
15563203	4015	0	0	-100	0	230	101300000	1000	0	0	-1	0
15575763	4008	0	0	-100	0	230	101300000	1000	0	0	-1	0
15588323	4009	3	0	-100	0	230	101300000	1000	0	0	-1	0
15600883	4011	4	0	-100	0	230	101300000	1000	0	0	-1	0
15613443	4012	2	0	-100	0	230	101300000	1000	0	0	-1	0
15626004	4013	0	0	-100	0	230	101300000	1000	0	0	-1	0
15638563	4012	4	0	-100	0	230	101300000	1000	0	0	-1	0
15651123	4009	3	0	-100	0	230	101300000	1000	0	0	-1	0
15663683	4012	4	0	-100	0	230	101300000	1000	0	0	-1	0
15676243	4012	2	0	-100	0	230	101300000	1000	0	0	-1	0
15688803	4007	3	0	-100	0	230	101300000	1000	0	0	-1	0
15701363	4011	1	0	-100	0	230	101300000	1000	0	0	-1	0
15713923	4010	3	0	-100	0	230	101300000	1000	0	0	-1	0
15726483	4008	2	0	-100	0	230	101300000	1000	0	0	-1	0
15739043	4007	2	0	-100	0	230	101300000	1000	0	0	-1	0
15751603	4009	3	0	-100	0	230	101300000	1000	0	0	-1	0
15764163	4011	4	0	-100	0	230	101300000	1000	0	0	-1	0
15776723	4014	1	0	-100	0	230	101300000	1000	0	0	-1	0
15789283	4008	0	0	-100	0	230	101300000	1000	0	0	-1	0
15801843	4012	0	0	-100	0	230	101300000	1000	0	0	-1	0
15814403	4016	0	0	-100	0	230	101300000	1000	0	0	-1	0
15826963	4019	0	0	-100	0	230	101300000	1000	0	0	-1	0
15839523	4010	2	0	-100	0	230	101300000	1000	0	0	-1	0
15852083	4008	3	0	-100	0	230	101300000	1000	0	0	-1	0
15864643	4011	0	0	-100	0	230	101300000	1000	0	0	-1	0
15877203	4006	0	0	-100	0	230	101300000	1000	0	0	-1	0
15889763	4014	0	0	-100	0	230	101300000	1000	0	0	-1	0
15902323	4011	0	0	-100	0	230	101300000	1000	0	0	-1	0
15914883	4008	0	0	-100	0	230	101300000	1000	0	0	-1	0
15927443	4011	1	0	-100	0	230	101300000	1000	0	0	-1	0
15940004	4011	0	0	-100	0	230	101300000	1000	0	0	-1	0
15952563	4012	0	0	-100	0	230	101300000	1000	0	0	-1	0
15965123	4017	0	0	-100	0	230	101300000	1000	0	0	-1	0
15977683	4017	0	0	-100	0	230	101300000	1000	0	0	-1	0
15990243	4017	0	0	-100	0	230	101300000	1000	0	0	-1	0
16002803	4018	0	0	-100	0	230	101300000	1000	0	0	-1	0
16015363	4012	0	0	-100	0	230	101300000	1000	0	0	-1	0
16027923	4007	0	0	-100	0	230	101300000	1000	0	0	-1	0
16040483	4009	4	0	-100	0	230	101300000	1000	0	0	-1	0
16053043	4008	2	0	-100	0	230	101300000	1000	0	0	-1	0
16065603	4011	0	0	-100	0	230	101300000	1000	0	0	-1	0
16078163	4014	0	0	-100	0	230	101300000	1000	0	0	-1	0
16090723	4017	0	0	-100	0	230	101300000	1000	0	0	-1	0
16103283	4013	0	0	-100	0	230	101300000	1000	0	0	-1	0
16115843	4012	0	0	-100	0	230	101300000	1000	0	0	-1	0
16128403	4011	2	0	-100	0	230	101300000	1000	0	0	-1	0
16140963	4011	2	0	-100	0	230	101300000	1000	0	0	-1	0
16153523	4008	2	0	-100	0	230	101300000	1000	0	0	-1	0
16166083	4014	0	0	-100	0	230	101300000	1000	0	0	-1	0
16178643	4019	0	0	-100	0	230	101300000	1000	0	0	-1	0
16191203	4012	0	0	-100	0	230	101300000	1000	0	0	-1	0
16203763	4011	0	0	-100	0	230	101300000	1000	0	0	-1	0
16216323	4009	0	0	-100	0	230	101300000	1000	0	0	-1	0
16228883	4011	3	0	-100	0	230	101300000	1000	0	0	-1	0
16241443	4011	0	0	-100	0	230	101300000	1000	0	0	-1	0
16254004	4009	4	0	-100	0	230	101300000	1000	0	0	-1	0
16266563	4013	0	0	-100	0	230	101300000	1000	0	0	-1	0
16279123	4014	4	0	-100	0	230	101300000	1000	0	0	-1	0
16291683	4007	1	0	-100	0	230	101300000	1000	0	0	-1	0
16304243	4013	0	0	-100	0	230	101300000	1000	0	0	-1	0
16316803	4010	4	0	-100	0	230	101300000	1000	0	0	-1	0
16329363	4015	0	0	-100	0	230	101300000	1000	0	0	-1	0
16341923	4013	0	0	-100	0	230	101300000	1000	0	0	-1	0
16354483	4019	0	0	-100	0	230	101300000	1000	0	0	-1	0
16367043	4014	0	0	-100	0	230	101300000	1000	0	0	-1	0
16379603	4011	4	0	-100	0	230	101300000	1000	0	0	-1	0
16392163	4015	0	0	-100	0	230	101300000	1000	0	0	-1	0
16404723	4011	0	0	-100	0	230	101300000	1000	0	0	-1	0
16417283	4008	2	0	-100	0	230	101300000	1000	0	0	-1	0
16429843	4013	0	0	-100	0	230	101300000	1000	0	0	-1	0
16442403	4018	0	0	-100	0	230	101300000	1000	0	0	-1	0
16454963	4011	0	0	-100	0	230	101300000	1000	0	0	-1	0
16467523	4013	3	0	-100	0	230	101300000	1000	0	0	-1	0
16480083	4014	0	0	-100	0	230	101300000	1000	0	0	-1	0
16492643	4018	0	0	-100	0	230	101300000	1000	0	0	-1	0
16505203	4008	0	0	-100	0	230	101300000	1000	0	0	-1	0
16517763	4008	2	0	-100	0	230	101300000	1000	0	0	-1	0
16530323	4017	0	0	-100	0	230	101300000	1000	0	0	-1	0
16542883	4012	3	0	-100	0	230	101300000	1000	0	0	-1	0
16555443	4018	0	0	-100	0	230	101300000	1000	0	0	-1	0
16568004	4014	0	0	-100	0	230	101300000	1000	0	0	-1	0
16580563	4009	1	0	-100	0	230	101300000	1000	0	0	-1	0
16593123	4017	0	0	-100	0	230	101300000	1000	0	0	-1	0
16605683	4013	2	0	-100	0	230	101300000	1000	0	0	-1	0
16668483	4013	0	0	-100	0	230	101300000	1000	0	0	-1	0
16681043	4017	0	0	-100	0	230	101300000	1000	0	0	-1	0
16693603	4015	0	0	-100	0	230	101300000	1000	0	0	-1	0
16706163	4009	0	0	-100	0	230	101300000	1000	0	0	-1	0
16718723	4009	4	0	-100	0	230	101300000	1000	0	0	-1	0
16731283	4013	0	0	-100	0	230	101300000	1000	0	0	-1	0
16743843	4016	0	0	-100	0	230	101300000	1000	0	0	-1	0
16756403	4016	0	0	-100	0	230	101300000	1000	0	0	-1	0
16768963	4010	0	0	-100	0	230	101300000	1000	0	0	-1	0
16781523	4011	3	0	-100	0	230	101300000	1000	0	0	-1	0
16794083	4012	0	0	-100	0	230	101300000	1000	0	0	-1	0
16806643	4016	0	0	-100	0	230	101300000	1000	0	0	-1	0
16882004	4016	0	0	-100	0	230	101300000	1000	0	0	-1	0
16894563	4014	0	0	-100	0	230	101300000	1000	0	0	-1	0
16907123	4012	0	0	-100	0	230	101300000	1000	0	0	-1	0
16919683	4011	0	0	-100	0	230	101300000	1000	0	0	-1	0
16932243	4012	5	0	-100	0	230	101300000	1000	0	0	-1	0
16944803	4011	0	0	-100	0	230	101300000	1000	0	0	-1	0
16957363	4016	0	0	-100	0	230	101300000	1000	0	0	-1	0
16969923	4008	0	0	-100	0	230	101300000	1000	0	0	-1	0
16982483	4013	0	0	-100	0	230	101300000	1000	0	0	-1	0
16995043	4014	0	0	-100	0	230	101300000	1000	0	0	-1	0
17007603	4010	0	0	-100	0	230	101300000	1000	0	0	-1	0
17032723	4017	0	0	-100	0	230	101300000	1000	0	0	-1	0
17045283	4015	0	0	-100	0	230	101300000	1000	0	0	-1	0
17057843	4008	0	0	-100	0	230	101300000	1000	0	0	-1	0
17070403	4013	3	0	-100	0	230	101300000	1000	0	0	-1	0
17082963	4011	4	0	-100	0	230	101300000	1000	0	0	-1	0
17095523	4011	4	0	-100	0	230	101300000	1000	0	0	-1	0
17108083	4009	2	0	-100	0	230	101300000	1000	0	0	-1	0
17120643	4013	0	0	-100	0	230	101300000	1000	0	0	-1	0
17133203	4016	0	0	-100	0	230	101300000	1000	0	0	-1	0
17145763	4015	0	0	-100	0	230	101300000	1000	0	0	-1	0
17158323	4008	0	0	-100	0	230	101300000	1000	0	0	-1	0
17170883	4014	3	0	-100	0	230	101300000	1000	0	0	-1	0
17183443	4009	1	0	-100	0	230	101300000	1000	0	0	-1	0
17196004	4011	0	0	-100	0	230	101300000	1000	0	0	-1	0
17208563	4017	0	0	-100	0	230	101300000	1000	0	0	-1	0
17221123	4013	0	0	-100	0	230	101300000	1000	0	0	-1	0
17233683	4016	0	0	-100	0	230	101300000	1000	0	0	-1	0
17246243	4010	0	0	-100	0	230	101300000	1000	0	0	-1	0
17258803	4014	0	0	-100	0	230	101300000	1000	0	0	-1	0
17271363	4011	1	0	-100	0	230	101300000	1000	0	0	-1	0
17283923	4018	0	0	-100	0	230	101300000	1000	0	0	-1	0
17296483	4018	0	0	-100	0	230	101300000	1000	0	0	-1	0
17309043	4016	0	0	-100	0	230	101300000	1000	0	0	-1	0
17321603	4008	0	0	-100	0	230	101300000	1000	0	0	-1	0
17334163	4012	5	0	-100	0	230	101300000	1000	0	0	-1	0
17346723	4011	2	0	-100	0	230	101300000	1000	0	0	-1	0
17359283	4011	0	0	-100	0	230	101300000	1000	0	0	-1	0
17371843	4018	0	0	-100	0	230	101300000	1000	0	0	-1	0
17384403	4016	0	0	-100	0	230	101300000	1000	0	0	-1	0
17396963	4012	0	0	-100	0	230	101300000	1000	0	0	-1	0
17409523	4013	0	0	-100	0	230	101300000	1000	0	0	-1	0
17422083	4009	0	0	-100	0	230	101300000	1000	0	0	-1	0
17434643	4011	4	0	-100	0	230	101300000	1000	0	0	-1	0
17447203	4009	0	0	-100	0	230	101300000	1000	0	0	-1	0
17459763	4017	0	0	-100	0	230	101300000	1000	0	0	-1	0
17472323	4013	0	0	-100	0	230	101300000	1000	0	0	-1	0
17484883	4011	0	0	-100	0	230	101300000	1000	0	0	-1	0
17497443	4007	4	0	-100	0	230	101300000	1000	0	0	-1	0
17510004	4010	0	0	-100	0	230	101300000	1000	0	0	-1	0
17522563	4017	0	0	-100	0	230	101300000	1000	0	0	-1	0
17535123	4020	0	0	-100	0	230	101300000	1000	0	0	-1	0
17547683	4016	0	0	-100	0	230	101300000	1000	0	0	-1	0
17560243	4016	0	0	-100	0	230	101300000	1000	0	0	-1	0
17572803	4009	0	0	-100	0	230	101300000	1000	0	0	-1	0
17585363	4012	2	0	-100	0	230	101300000	1000	0	0	-1	0
17597923	4008	3	0	-100	0	230	101300000	1000	0	0	-1	0
17610483	4014	0	0	-100	0	230	101300000	1000	0	0	-1	0
17623043	4015	0	0	-100	0	230	101300000	1000	0	0	-1	0
17635603	4017	0	0	-100	0	230	101300000	1000	0	0	-1	0
17648163	4017	0	0	-100	0	230	101300000	1000	0	0	-1	0
17660723	4016	0	0	-100	0	230	101300000	1000	0	0	-1	0
17673283	4016	0	0	-100	0	230	101300000	1000	0	0	-1	0
17685843	4013	0	0	-100	0	230	101300000	1000	0	0	-1	0
17698403	4012	0	0	-100	0	230	101300000	1000	0	0	-1	0
17710963	4012	0	0	-100	0	230	101300000	1000	0	0	-1	0
17723523	4011	1	0	-100	0	230	101300000	1000	0	0	-1	0
17736083	4013	4	0	-100	0	230	101300000	1000	0	0	-1	0
17748643	4012	2	0	-100	0	230	101300000	1000	0	0	-1	0
17761203	4010	4	0	-100	0	230	101300000	1000	0	0	-1	0
17773763	4012	2	0	-100	0	230	101300000	1000	0	0	-1	0
17786323	4007	1	0	-100	0	230	101300000	1000	0	0	-1	0
17798883	4012	0	0	-100	0	230	101300000	1000	0	0	-1	0
17811443	4013	0	0	-100	0	230	101300000	1000	0	0	-1	0
17824004	4006	3	0	-100	0	230	101300000	1000	0	0	-1	0
17836563	4016	0	0	-100	0	230	101300000	1000	0	0	-1	0
17849123	4013	0	0	-100	0	230	101300000	1000	0	0	-1	0
17861683	4015	0	0	-100	0	230	101300000	1000	0	0	-1	0
17874243	4015	0	0	-100	0	230	101300000	1000	0	0	-1	0
17886803	4012	0	0	-100	0	230	101300000	1000	0	0	-1	0
17899363	4013	0	0	-100	0	230	101300000	1000	0	0	-1	0
17911923	4007	3	0	-100	0	230	101300000	1000	0	0	-1	0
17924483	4014	0	0	-100	0	230	101300000	1000	0	0	-1	0
17937043	4016	0	0	-100	0	230	101300000	1000	0	0	-1	0
17949603	4017	0	0	-100	0	230	101300000	1000	0	0	-1	0
17962163	4013	0	0	-100	0	230	101300000	1000	0	0	-1	0
17974723	4011	0	0	-100	0	230	101300000	1000	0	0	-1	0
17987283	4011	4	0	-100	0	230	101300000	1000	0	0	-1	0
17999843	4012	2	0	-100	0	230	101300000	1000	0	0	-1	0
18012403	4010	1	0	-100	0	230	101300000	1000	0	0	-1	0
18024963	4008	0	0	-100	0	230	101300000	1000	0	0	-1	0
18037523	4010	1	0	-100	0	230	101300000	1000	0	0	-1	0
18050083	4012	1	0	-100	0	230	101300000	1000	0	0	-1	0
18062643	4018	0	0	-100	0	230	101300000	1000	0	0	-1	0
18075203	4018	0	0	-100	0	230	101300000	1000	0	0	-1	0
18087763	4016	0	0	-100	0	230	101300000	1000	0	0	-1	0
18100323	4012	0	0	-100	0	230	101300000	1000	0	0	-1	0
18112883	4008	0	0	-100	0	230	101300000	1000	0	0	-1	0
18125443	4011	0	0	-100	0	230	101300000	1000	0	0	-1	0
18138004	4013	0	0	-100	0	230	101300000	1000	0	0	-1	0
18150563	4011	2	0	-100	0	230	101300000	1000	0	0	-1	0
18163123	4012	0	0	-100	0	230	101300000	1000	0	0	-1	0
18175683	4016	0	0	-100	0	230	101300000	1000	0	0	-1	0
18188243	4017	0	0	-100	0	230	101300000	1000	0	0	-1	0
18200803	4017	0	0	-100	0	230	101300000	1000	0	0	-1	0
18213363	4016	0	0	-100	0	230	101300000	1000	0	0	-1	0
18225923	4015	0	0	-100	0	230	101300000	1000	0	0	-1	0
18238483	4012	0	0	-100	0	230	101300000	1000	0	0	-1	0
18251043	4011	0	0	-100	0	230	101300000	1000	0	0	-1	0
18263603	4011	0	0	-100	0	230	101300000	1000	0	0	-1	0
18276163	4011	0	0	-100	0	230	101300000	1000	0	0	-1	0
18288723	4009	0	0	-100	0	230	101300000	1000	0	0	-1	0
18301283	4011	0	0	-100	0	230	101300000	1000	0	0	-1	0
18313843	4009	4	0	-100	0	230	101300000	1000	0	0	-1	0
18326403	4009	2	0	-100	0	230	101300000	1000	0	0	-1	0
18338963	4010	1	0	-100	0	230	101300000	1000	0	0	-1	0
18351523	4017	0	0	-100	0	230	101300000	1000	0	0	-1	0
18364083	4018	0	0	-100	0	230	101300000	1000	0	0	-1	0
18376643	4016	0	0	-100	0	230	101300000	1000	0	0	-1	0
18389203	4015	0	0	-100	0	230	101300000	1000	0	0	-1	0
18401763	4016	0	0	-100	0	230	101300000	1000	0	0	-1	0
18414323	4016	0	0	-100	0	230	101300000	1000	0	0	-1	0
18426883	4013	0	0	-100	0	230	101300000	1000	0	0	-1	0
18439443	4014	0	0	-100	0	230	101300000	1000	0	0	-1	0
18452004	4011	0	0	-100	0	230	101300000	1000	0	0	-1	0
18464563	4012	0	0	-100	0	230	101300000	1000	0	0	-1	0
18477123	4014	0	0	-100	0	230	101300000	1000	0	0	-1	0
18489683	4013	0	0	-100	0	230	101300000	1000	0	0	-1	0
18502243	4013	0	0	-100	0	230	101300000	1000	0	0	-1	0
18514803	4011	0	0	-100	0	230	101300000	1000	0	0	-1	0
18527363	4009	0	0	-100	0	230	101300000	1000	0	0	-1	0
18539923	4011	0	0	-100	0	230	101300000	1000	0	0	-1	0
18552483	4012	0	0	-100	0	230	101300000	1000	0	0	-1	0
18565043	4008	5	0	-100	0	230	101300000	1000	0	0	-1	0
18577603	4009	1	0	-100	0	230	101300000	1000	0	0	-1	0
18590163	4008	0	0	-100	0	230	101300000	1000	0	0	-1	0
18602723	4013	0	0	-100	0	230	101300000	1000	0	0	-1	0
18615283	4019	0	0	-100	0	230	101300000	1000	0	0	-1	0
18627843	4015	0	0	-100	0	230	101300000	1000	0	0	-1	0
18640403	4016	0	0	-100	0	230	101300000	1000	0	0	-1	0
18652963	4015	0	0	-100	0	230	101300000	1000	0	0	-1	0
18665523	4012	0	0	-100	0	230	101300000	1000	0	0	-1	0
18678083	4008	0	0	-100	0	230	101300000	1000	0	0	-1	0
18690643	4013	1	0	-100	0	230	101300000	1000	0	0	-1	0
18703203	4009	4	0	-100	0	230	101300000	1000	0	0	-1	0
18715763	4009	2	0	-100	0	230	101300000	1000	0	0	-1	0
18728323	4009	0	0	-100	0	230	101300000	1000	0	0	-1	0
18740883	4016	0	0	-100	0	230	101300000	1000	0	0	-1	0
18753443	4017	0	0	-100	0	230	101300000	1000	0	0	-1	0
18766004	4014	0	0	-100	0	230	101300000	1000	0	0	-1	0
18778563	4011	0	0	-100	0	230	101300000	1000	0	0	-1	0
18791123	4012	0	0	-100	0	230	101300000	1000	0	0	-1	0
18803683	4009	0	0	-100	0	230	101300000	1000	0	0	-1	0
18816243	4012	4	0	-100	0	230	101300000	1000	0	0	-1	0
18828803	4009	3	0	-100	0	230	101300000	1000	0	0	-1	0
18841363	4019	0	0	-100	0	230	101300000	1000	0	0	-1	0
18853923	4016	0	0	-100	0	230	101300000	1000	0	0	-1	0
18866483	4014	0	0	-100	0	230	101300000	1000	0	0	-1	0
18879043	4010	0	0	-100	0	230	101300000	1000	0	0	-1	0
18891603	4009	2	0	-100	0	230	101300000	1000	0	0	-1	0
18904163	4013	0	0	-100	0	230	101300000	1000	0	0	-1	0
18916723	4015	0	0	-100	0	230	101300000	1000	0	0	-1	0
18929283	4016	0	0	-100	0	230	101300000	1000	0	0	-1	0
18941843	4013	0	0	-100	0	230	101300000	1000	0	0	-1	0
18954403	4011	0	0	-100	0	230	101300000	1000	0	0	-1	0
18966963	4011	0	0	-100	0	230	101300000	1000	0	0	-1	0
18979523	4008	3	0	-100	0	230	101300000	1000	0	0	-1	0
18992083	4012	0	0	-100	0	230	101300000	1000	0	0	-1	0
19004643	4017	0	0	-100	0	230	101300000	1000	0	0	-1	0
19017203	4011	0	0	-100	0	230	101300000	1000	0	0	-1	0
19029763	4012	0	0	-100	0	230	101300000	1000	0	0	-1	0
19042323	4008	4	0	-100	0	230	101300000	1000	0	0	-1	0
19054883	4011	4	0	-100	0	230	101300000	1000	0	0	-1	0
19067443	4010	2	0	-100	0	230	101300000	1000	0	0	-1	0
19080004	4008	0	0	-100	0	230	101300000	1000	0	0	-1	0
19092563	4009	2	0	-100	0	230	101300000	1000	0	0	-1	0
19105123	4011	2	0	-100	0	230	101300000	1000	0	0	-1	0
19117683	4012	3	0	-100	0	230	101300000	1000	0	0	-1	0
19130243	4010	3	0	-100	0	230	101300000	1000	0	0	-1	0
19142803	4008	2	0	-100	0	230	101300000	1000	0	0	-1	0
19155363	4008	1	0	-100	0	230	101300000	1000	0	0	-1	0
19167923	4011	1	0	-100	0	230	101300000	1000	0	0	-1	0
19180483	4014	0	0	-100	0	230	101300000	1000	0	0	-1	0
19193043	4018	0	0	-100	0	230	101300000	1000	0	0	-1	0
19205603	4016	0	0	-100	0	230	101300000	1000	0	0	-1	0
19218163	4021	0	0	-100	0	230	101300000	1000	0	0	-1	0
19230723	4017	0	0	-100	0	230	101300000	1000	0	0	-1	0
19243283	4014	0	0	-100	0	230	101300000	1000	0	0	-1	0
19255843	4012	0	0	-100	0	230	101300000	1000	0	0	-1	0
19268403	4008	0	0	-100	0	230	101300000	1000	0	0	-1	0
19280963	4007	0	0	-100	0	230	101300000	1000	0	0	-1	0
19293523	4012	0	0	-100	0	230	101300000	1000	0	0	-1	0
19306083	4011	4	0	-100	0	230	101300000	1000	0	0	-1	0
19318643	4011	1	0	-100	0	230	101300000	1000	0	0	-1	0
19331203	4016	0	0	-100	0	230	101300000	1000	0	0	-1	0
19343763	4017	0	0	-100	0	230	101300000	1000	0	0	-1	0
19356323	4018	0	0	-100	0	230	101300000	1000	0	0	-1	0
19368883	4016	0	0	-100	0	230	101300000	1000	0	0	-1	0
19381443	4016	0	0	-100	0	230	101300000	1000	0	0	-1	0
19394004	4009	0	0	-100	0	230	101300000	1000	0	0	-1	0
19406563	4011	0	0	-100	0	230	101300000	1000	0	0	-1	0
19419123	4006	0	0	-100	0	230	101300000	1000	0	0	-1	0
19431683	4013	4	0	-100	0	230	101300000	1000	0	0	-1	0
19444243	4013	2	0	-100	0	230	101300000	1000	0	0	-1	0
19456803	4013	1	0	-100	0	230	101300000	1000	0	0	-1	0
19469363	4008	0	0	-100	0	230	101300000	1000	0	0	-1	0
19481923	4009	0	0	-100	0	230	101300000	1000	0	0	-1	0
19494483	4011	0	0	-100	0	230	101300000	1000	0	0	-1	0
19507043	4011	0	0	-100	0	230	101300000	1000	0	0	-1	0
19519603	4011	0	0	-100	0	230	101300000	1000	0	0	-1	0
19532163	4011	0	0	-100	0	230	101300000	1000	0	0	-1	0
19544723	4012	0	0	-100	0	230	101300000	1000	0	0	-1	0
19594963	4011	0	0	-100	0	230	101300000	1000	0	0	-1	0
19607523	4013	0	0	-100	0	230	101300000	1000	0	0	-1	0
19620083	4015	0	0	-100	0	230	101300000	1000	0	0	-1	0
19632643	4019	0	0	-100	0	230	101300000	1000	0	0	-1	0
19645203	4014	0	0	-100	0	230	101300000	1000	0	0	-1	0
19657763	4018	0	0	-100	0	230	101300000	1000	0	0	-1	0
19670323	4019	0	0	-100	0	230	101300000	1000	0	0	-1	0
19682883	4018	0	0	-100	0	230	101300000	1000	0	0	-1	0
19695443	4016	0	0	-100	0	230	101300000	1000	0	0	-1	0
19708004	4010	0	0	-100	0	230	101300000	1000	0	0	-1	0
19720563	4012	0	0	-100	0	230	101300000	1000	0	0	-1	0
19795923	4012	2	0	-100	0	230	101300000	1000	0	0	-1	0
19808483	4013	3	0	-100	0	230	101300000	1000	0	0	-1	0
19821043	4009	0	0	-100	0	230	101300000	1000	0	0	-1	0
19833603	4007	0	0	-100	0	230	101300000	1000	0	0	-1	0
19846163	4012	0	0	-100	0	230	101300000	1000	0	0	-1	0
19858723	4016	0	0	-100	0	230	101300000	1000	0	0	-1	0
19871283	4015	0	0	-100	0	230	101300000	1000	0	0	-1	0
19883843	4018	0	0	-100	0	230	101300000	1000	0	0	-1	0
19896403	4015	0	0	-100	0	230	101300000	1000	0	0	-1	0
19908963	4019	0	0	-100	0	230	101300000	1000	0	0	-1	0
19921523	4014	0	0	-100	0	230	101300000	1000	0	0	-1	0
19971763	4011	4	0	-100	0	230	101300000	1000	0	0	-1	0
19984323	4012	0	0	-100	0	230	101300000	1000	0	0	-1	0
19996883	4012	0	0	-100	0	230	101300000	1000	0	0	-1	0
20009443	4008	0	0	-100	0	230	101300000	1000	0	0	-1	0
20022004	4016	0	0	-100	0	230	101300000	1000	0	0	-1	0
20034563	4015	0	0	-100	0	230	101300000	1000	0	0	-1	0
20047123	4013	0	0	-100	0	230	101300000	1000	0	0	-1	0
20059683	4021	0	0	-100	0	230	101300000	1000	0	0	-1	0
20072243	4011	2	0	-100	0	230	101300000	1000	0	0	-1	0
20084803	4012	3	0	-100	0	230	101300000	1000	0	0	-1	0
20097363	4012	4	0	-100	0	230	101300000	1000	0	0	-1	0
20109923	4014	0	0	-100	0	230	101300000	1000	0	0	-1	0
20122483	4008	0	0	-100	0	230	101300000	1000	0	0	-1	0
20135043	4012	0	0	-100	0	230	101300000	1000	0	0	-1	0
20147603	4014	0	0	-100	0	230	101300000	1000	0	0	-1	0
20160163	4017	0	0	-100	0	230	101300000	1000	0	0	-1	0
20172723	4008	1	0	-100	0	230	101300000	1000	0	0	-1	0
20185283	4007	4	0	-100	0	230	101300000	1000	0	0	-1	0
20197843	4011	4	0	-100	0	230	101300000	1000	0	0	-1	0
20210403	4013	4	0	-100	0	230	101300000	1000	0	0	-1	0
20222963	4012	3	0	-100	0	230	101300000	1000	0	0	-1	0
20235523	4012	0	0	-100	0	230	101300000	1000	0	0	-1	0
20248083	4011	4	0	-100	0	230	101300000	1000	0	0	-1	0
20260643	4011	2	0	-100	0	230	101300000	1000	0	0	-1	0
20273203	4015	0	0	-100	0	230	101300000	1000	0	0	-1	0
20285763	4021	0	0	-100	0	230	101300000	1000	0	0	-1	0
20298323	4017	0	0	-100	0	230	101300000	1000	0	0	-1	0
20310883	4012	0	0	-100	0	230	101300000	1000	0	0	-1	0
20323443	4010	0	0	-100	0	230	101300000	1000	0	0	-1	0
20336004	4012	0	0	-100	0	230	101300000	1000	0	0	-1	0
20348563	4017	0	0	-100	0	230	101300000	1000	0	0	-1	0
20361123	4013	0	0	-100	0	230	101300000	1000	0	0	-1	0
20373683	4017	0	0	-100	0	230	101300000	1000	0	0	-1	0
20386243	4008	1	0	-100	0	230	101300000	1000	0	0	-1	0
20398803	4016	0	0	-100	0	230	101300000	1000	0	0	-1	0
20411363	4012	0	0	-100	0	230	101300000	1000	0	0	-1	0
20423923	4009	0	0	-100	0	230	101300000	1000	0	0	-1	0
20436483	4011	4	0	-100	0	230	101300000	1000	0	0	-1	0
20449043	4012	0	0	-100	0	230	101300000	1000	0	0	-1	0
20461603	4018	0	0	-100	0	230	101300000	1000	0	0	-1	0
20474163	4015	0	0	-100	0	230	101300000	1000	0	0	-1	0
20486723	4013	0	0	-100	0	230	101300000	1000	0	0	-1	0
20499283	4010	4	0	-100	0	230	101300000	1000	0	0	-1	0
20511843	4015	0	0	-100	0	230	101300000	1000	0	0	-1	0
20524403	4017	0	0	-100	0	230	101300000	1000	0	0	-1	0
20536963	4021	0	0	-100	0	230	101300000	1000	0	0	-1	0
20549523	4008	0	0	-100	0	230	101300000	1000	0	0	-1	0
20562083	4012	1	0	-100	0	230	101300000	1000	0	0	-1	0
20574643	4017	0	0	-100	0	230	101300000	1000	0	0	-1	0
20587203	4010	0	0	-100	0	230	101300000	1000	0	0	-1	0
20599763	4006	0	0	-100	0	230	101300000	1000	0	0	-1	0
20612323	4007	2	0	-100	0	230	101300000	1000	0	0	-1	0
20624883	4012	3	0	-100	0	230	101300000	1000	0	0	-1	0
20637443	4012	0	0	-100	0	230	101300000	1000	0	0	-1	0
20650004	4008	2	0	-100	0	230	101300000	1000	0	0	-1	0
20662563	4018	0	0	-100	0	230	101300000	1000	0	0	-1	0
20675123	4011	0	0	-100	0	230	101300000	1000	0	0	-1	0
20687683	4011	4	0	-100	0	230	101300000	1000	0	0	-1	0
20700243	4009	0	0	-100	0	230	101300000	1000	0	0	-1	0
20712803	4014	0	0	-100	0	230	101300000	1000	0	0	-1	0
20725363	4015	0	0	-100	0	230	101300000	1000	0	0	-1	0
20737923	4016	0	0	-100	0	230	101300000	1000	0	0	-1	0
20750483	4010	0	0	-100	0	230	101300000	1000	0	0	-1	0
20763043	4014	2	0	-100	0	230	101300000	1000	0	0	-1	0
20775603	4009	2	0	-100	0	230	101300000	1000	0	0	-1	0
20788163	4012	0	0	-100	0	230	101300000	1000	0	0	-1	0
20800723	4017	0	0	-100	0	230	101300000	1000	0	0	-1	0
20813283	4009	0	0	-100	0	230	101300000	1000	0	0	-1	0
20825843	4014	2	0	-100	0	230	101300000	1000	0	0	-1	0
20838403	4010	4	0	-100	0	230	101300000	1000	0	0	-1	0
20850963	4014	0	0	-100	0	230	101300000	1000	0	0	-1	0
20863523	4016	0	0	-100	0	230	101300000	1000	0	0	-1	0
20876083	4015	0	0	-100	0	230	101300000	1000	0	0	-1	0
20888643	4015	0	0	-100	0	230	101300000	1000	0	0	-1	0
20901203	4009	0	0	-100	0	230	101300000	1000	0	0	-1	0
20913763	4011	3	0	-100	0	230	101300000	1000	0	0	-1	0
20926323	4009	3	0	-100	0	230	101300000	1000	0	0	-1	0
20938883	4014	0	0	-100	0	230	101300000	1000	0	0	-1	0
20951443	4019	0	0	-100	0	230	101300000	1000	0	0	-1	0
20964004	4007	1	0	-100	0	230	101300000	1000	0	0	-1	0
20976563	4015	0	0	-100	0	230	101300000	1000	0	0	-1	0
20989123	4009	0	0	-100	0	230	101300000	1000	0	0	-1	0
21001683	4012	2	0	-100	0	230	101300000	1000	0	0	-1	0
21014243	4013	2	0	-100	0	230	101300000	1000	0	0	-1	0
21026803	4009	0	0	-100	0	230	101300000	1000	0	0	-1	0
21039363	4012	0	0	-100	0	230	101300000	1000	0	0	-1	0
21051923	4012	0	0	-100	0	230	101300000	1000	0	0	-1	0
21064483	4013	0	0	-100	0	230	101300000	1000	0	0	-1	0
21077043	4014	0	0	-100	0	230	101300000	1000	0	0	-1	0
21089603	4006	1	0	-100	0	230	101300000	1000	0	0	-1	0
21102163	4009	1	0	-100	0	230	101300000	1000	0	0	-1	0
21114723	4011	1	0	-100	0	230	101300000	1000	0	0	-1	0
21127283	4014	0	0	-100	0	230	101300000	1000	0	0	-1	0
21139843	4014	0	0	-100	0	230	101300000	1000	0	0	-1	0
21152403	4012	0	0	-100	0	230	101300000	1000	0	0	-1	0
21164963	4017	0	0	-100	0	230	101300000	1000	0	0	-1	0
21177523	4017	0	0	-100	0	230	101300000	1000	0	0	-1	0
21190083	4012	0	0	-100	0	230	101300000	1000	0	0	-1	0
21202643	4018	0	0	-100	0	230	101300000	1000	0	0	-1	0
21215203	4017	0	0	-100	0	230	101300000	1000	0	0	-1	0
21227763	4009	0	0	-100	0	230	101300000	1000	0	0	-1	0
21240323	4011	0	0	-100	0	230	101300000	1000	0	0	-1	0
21252883	4012	3	0	-100	0	230	101300000	1000	0	0	-1	0
21265443	4013	0	0	-100	0	230	101300000	1000	0	0	-1	0
21278004	4008	0	0	-100	0	230	101300000	1000	0	0	-1	0
21290563	4019	0	0	-100	0	230	101300000	1000	0	0	-1	0
21303123	4017	0	0	-100	0	230	101300000	1000	0	0	-1	0
21315683	4016	0	0	-100	0	230	101300000	1000	0	0	-1	0
21328243	4015	0	0	-100	0	230	101300000	1000	0	0	-1	0
21340803	4013	0	0	-100	0	230	101300000	1000	0	0	-1	0
21353363	4012	0	0	-100	0	230	101300000	1000	0	0	-1	0
21365923	4007	0	0	-100	0	230	101300000	1000	0	0	-1	0
21378483	4017	4	0	-100	0	230	101300000	1000	0	0	-1	0
21391043	4008	2	0	-100	0	230	101300000	1000	0	0	-1	0
21403603	4017	0	0	-100	0	230	101300000	1000	0	0	-1	0
21416163	4015	0	0	-100	0	230	101300000	1000	0	0	-1	0
21428723	4008	0	0	-100	0	230	101300000	1000	0	0	-1	0
21441283	4011	5	0	-100	0	230	101300000	1000	0	0	-1	0
21453843	4009	0	0	-100	0	230	101300000	1000	0	0	-1	0
21466403	4013	0	0	-100	0	230	101300000	1000	0	0	-1	0
21478963	4017	0	0	-100	0	230	101300000	1000	0	0	-1	0
21491523	4016	0	0	-100	0	230	101300000	1000	0	0	-1	0
21504083	4011	0	0	-100	0	230	101300000	1000	0	0	-1	0
21516643	4011	3	0	-100	0	230	101300000	1000	0	0	-1	0
21529203	4019	0	0	-100	0	230	101300000	1000	0	0	-1	0
21541763	4015	0	0	-100	0	230	101300000	1000	0	0	-1	0
21554323	4007	0	0	-100	0	230	101300000	1000	0	0	-1	0
21566883	4011	3	0	-100	0	230	101300000	1000	0	0	-1	0
21579443	4017	0	0	-100	0	230	101300000	1000	0	0	-1	0
21592004	4010	0	0	-100	0	230	101300000	1000	0	0	-1	0
21604563	4009	0	0	-100	0	230	101300000	1000	0	0	-1	0
21617123	4011	0	0	-100	0	230	101300000	1000	0	0	-1	0
21629683	4013	3	0	-100	0	230	101300000	1000	0	0	-1	0
21642243	4009	2	0	-100	0	230	101300000	1000	0	0	-1	0
21654803	4009	1	0	-100	0	230	101300000	1000	0	0	-1	0
21667363	4009	0	0	-100	0	230	101300000	1000	0	0	-1	0
21679923	4015	0	0	-100	0	230	101300000	1000	0	0	-1	0
21692483	4021	0	0	-100	0	230	101300000	1000	0	0	-1	0
21705043	4018	0	0	-100	0	230	101300000	1000	0	0	-1	0
21717603	4015	0	0	-100	0	230	101300000	1000	0	0	-1	0
21730163	4011	0	0	-100	0	230	101300000	1000	0	0	-1	0
21742723	4012	0	0	-100	0	230	101300000	1000	0	0	-1	0
21755283	4011	2	0	-100	0	230	101300000	1000	0	0	-1	0
21767843	4020	0	0	-100	0	230	101300000	1000	0	0	-1	0
21780403	4018	0	0	-100	0	230	101300000	1000	0	0	-1	0
21792963	4018	0	0	-100	0	230	101300000	1000	0	0	-1	0
21805523	4015	0	0	-100	0	230	101300000	1000	0	0	-1	0
21818083	4014	0	0	-100	0	230	101300000	1000	0	0	-1	0
21830643	4011	0	0	-100	0	230	101300000	1000	0	0	-1	0
21843203	4010	0	0	-100	0	230	101300000	1000	0	0	-1	0
21855763	4009	0	0	-100	0	230	101300000	1000	0	0	-1	0
21868323	4006	0	0	-100	0	230	101300000	1000	0	0	-1	0
21880883	4010	4	0	-100	0	230	101300000	1000	0	0	-1	0
21893443	4009	1	0	-100	0	230	101300000	1000	0	0	-1	0
21906004	4008	4	0	-100	0	230	101300000	1000	0	0	-1	0
21918563	4013	0	0	-100	0	230	101300000	1000	0	0	-1	0
21931123	4008	0	0	-100	0	230	101300000	1000	0	0	-1	0
21943683	4009	2	0	-100	0	230	101300000	1000	0	0	-1	0
21956243	4018	0	0	-100	0	230	101300000	1000	0	0	-1	0
21968803	4014	0	0	-100	0	230	101300000	1000	0	0	-1	0
21981363	4013	0	0	-100	0	230	101300000	1000	0	0	-1	0
21993923	4010	1	0	-100	0	230	101300000	1000	0	0	-1	0
22006483	4009	2	0	-100	0	230	101300000	1000	0	0	-1	0
22019043	4018	0	0	-100	0	230	101300000	1000	0	0	-1	0
22031603	4011	0	0	-100	0	230	101300000	1000	0	0	-1	0
22044163	4014	4	0	-100	0	230	101300000	1000	0	0	-1	0
22056723	4009	0	0	-100	0	230	101300000	1000	0	0	-1	0
22069283	4019	0	0	-100	0	230	101300000	1000	0	0	-1	0
22081843	4015	0	0	-100	0	230	101300000	1000	0	0	-1	0
22094403	4006	0	0	-100	0	230	101300000	1000	0	0	-1	0
22106963	4010	0	0	-100	0	230	101300000	1000	0	0	-1	0
22119523	4011	0	0	-100	0	230	101300000	1000	0	0	-1	0
22132083	4008	4	0	-100	0	230	101300000	1000	0	0	-1	0
22144643	4012	3	0	-100	0	230	101300000	1000	0	0	-1	0
22157203	4007	3	0	-100	0	230	101300000	1000	0	0	-1	0
22169763	4012	0	0	-100	0	230	101300000	1000	0	0	-1	0
22182323	4013	0	0	-100	0	230	101300000	1000	0	0	-1	0
22194883	4017	0	0	-100	0	230	101300000	1000	0	0	-1	0
22207443	4016	0	0	-100	0	230	101300000	1000	0	0	-1	0
22220004	4006	1	0	-100	0	230	101300000	1000	0	0	-1	0
22232563	4012	0	0	-100	0	230	101300000	1000	0	0	-1	0
22245123	4007	0	0	-100	0	230	101300000	1000	0	0	-1	0
22257683	4012	4	0	-100	0	230	101300000	1000	0	0	-1	0
22270243	4011	2	0	-100	0	230	101300000	1000	0	0	-1	0
22282803	4010	3	0	-100	0	230	101300000	1000	0	0	-1	0
22295363	4012	0	0	-100	0	230	101300000	1000	0	0	-1	0
22307923	4014	0	0	-100	0	230	101300000	1000	0	0	-1	0
22320483	4019	0	0	-100	0	230	101300000	1000	0	0	-1	0
22333043	4021	0	0	-100	0	230	101300000	1000	0	0	-1	0
22345603	4015	0	0	-100	0	230	101300000	1000	0	0	-1	0
22358163	4013	0	0	-100	0	230	101300000	1000	0	0	-1	0
22370723	4013	1	0	-100	0	230	101300000	1000	0	0	-1	0
22383283	4009	1	0	-100	0	230	101300000	1000	0	0	-1	0
22395843	4008	0	0	-100	0	230	101300000	1000	0	0	-1	0
22408403	4011	2	0	-100	0	230	101300000	1000	0	0	-1	0
22420963	4011	2	0	-100	0	230	101300000	1000	0	0	-1	0
22433523	4012	0	0	-100	0	230	101300000	1000	0	0	-1	0
22446083	4016	0	0	-100	0	230	101300000	1000	0	0	-1	0
22458643	4018	0	0	-100	0	230	101300000	1000	0	0	-1	0
22471203	4014	0	0	-100	0	230	101300000	1000	0	0	-1	0
22483763	4012	0	0	-100	0	230	101300000	1000	0	0	-1	0
22496323	4009	0	0	-100	0	230	101300000	1000	0	0	-1	0
22508883	4013	4	0	-100	0	230	101300000	1000	0	0	-1	0
22521443	4011	4	0	-100	0	230	101300000	1000	0	0	-1	0
22534004	4012	0	0	-100	0	230	101300000	1000	0	0	-1	0
22546563	4009	4	0	-100	0	230	101300000	1000	0	0	-1	0
22559123	4008	4	0	-100	0	230	101300000	1000	0	0	-1	0
22571683	4012	4	0	-100	0	230	101300000	1000	0	0	-1	0
22584243	4011	0	0	-100	0	230	101300000	1000	0	0	-1	0
22596803	4008	0	0	-100	0	230	101300000	1000	0	0	-1	0
22609363	4009	0	0	-100	0	230	101300000	1000	0	0	-1	0
22621923	4009	0	0	-100	0	230	101300000	1000	0	0	-1	0
22634483	4013	0	0	-100	0	230	101300000	1000	0	0	-1	0
22659603	4014	0	0	-100	0	230	101300000	1000	0	0	-1	0
22672163	4012	0	0	-100	0	230	101300000	1000	0	0	-1	0
22684723	4011	0	0	-100	0	230	101300000	1000	0	0	-1	0
22697283	4007	0	0	-100	0	230	101300000	1000	0	0	-1	0
22709843	4014	3	0	-100	0	230	101300000	1000	0	0	-1	0
22722403	4009	0	0	-100	0	230	101300000	1000	0	0	-1	0
22734963	4014	0	0	-100	0	230	101300000	1000	0	0	-1	0
22747523	4017	0	0	-100	0	230	101300000	1000	0	0	-1	0
22760083	4016	0	0	-100	0	230	101300000	1000	0	0	-1	0
22772643	4016	0	0	-100	0	230	101300000	1000	0	0	-1	0
22785203	4012	0	0	-100	0	230	101300000	1000	0	0	-1	0
22797763	4010	0	0	-100	0	230	101300000	1000	0	0	-1	0
22810323	4009	3	0	-100	0	230	101300000	1000	0	0	-1	0
22885683	4017	0	0	-100	0	230	101300000	1000	0	0	-1	0
22898243	4014	0	0	-100	0	230	101300000	1000	0	0	-1	0
22910803	4017	0	0	-100	0	230	101300000	1000	0	0	-1	0
22923363	4017	0	0	-100	0	230	101300000	1000	0	0	-1	0
22935923	4015	0	0	-100	0	230	101300000	1000	0	0	-1	0
22948483	4017	0	0	-100	0	230	101300000	1000	0	0	-1	0
22961043	4019	0	0	-100	0	230	101300000	1000	0	0	-1	0
22973603	4018	0	0	-100	0	230	101300000	1000	0	0	-1	0
22986163	4020	0	0	-100	0	230	101300000	1000	0	0	-1	0
22998723	4021	0	0	-100	0	230	101300000	1000	0	0	-1	0
23011283	4018	0	0	-100	0	230	101300000	1000	0	0	-1	0
23023843	4017	0	0	-100	0	230	101300000	1000	0	0	-1	0
23036403	4017	0	0	-100	0	230	101300000	1000	0	0	-1	0
23048963	4015	0	0	-100	0	230	101300000	1000	0	0	-1	0
23061523	4019	0	0	-100	0	230	101300000	1000	0	0	-1	0
23074083	4015	0	0	-100	0	230	101300000	1000	0	0	-1	0
23086643	4017	0	0	-100	0	230	101300000	1000	0	0	-1	0
23099203	4018	0	0	-100	0	230	101300000	1000	0	0	-1	0
23111763	4016	0	0	-100	0	230	101300000	1000	0	0	-1	0
23124323	4019	0	0	-100	0	230	101300000	1000	0	0	-1	0
23136883	4018	0	0	-100	0	230	101300000	1000	0	0	-1	0
23149443	4018	0	0	-100	0	230	101300000	1000	0	0	-1	0
23162004	4006	0	0	-100	0	230	101300000	1000	0	0	-1	0
23174563	4015	0	0	-100	0	230	101300000	1000	0	0	-1	0
23187123	4014	0	0	-100	0	230	101300000	1000	0	0	-1	0
23199683	4013	0	0	-100	0	230	101300000	1000	0	0	-1	0
23212243	4012	0	0	-100	0	230	101300000	1000	0	0	-1	0
23224803	4011	0	0	-100	0	230	101300000	1000	0	0	-1	0
23237363	4016	0	0	-100	0	230	101300000	1000	0	0	-1	0
23249923	4012	0	0	-100	0	230	101300000	1000	0	0	-1	0
23262483	4012	0	0	-100	0	230	101300000	1000	0	0	-1	0
23275043	4012	0	0	-100	0	230	101300000	1000	0	0	-1	0
23287603	4011	0	0	-100	0	230	101300000	1000	0	0	-1	0
23300163	4010	0	0	-100	0	230	101300000	1000	0	0	-1	0
23312723	4013	0	0	-100	0	230	101300000	1000	0	0	-1	0
23325283	4013	0	0	-100	0	230	101300000	1000	0	0	-1	0
23337843	4014	0	0	-100	0	230	101300000	1000	0	0	-1	0
23350403	4015	0	0	-100	0	230	101300000	1000	0	0	-1	0
23362963	4013	0	0	-100	0	230	101300000	1000	0	0	-1	0
23375523	4007	1	0	-100	0	230	101300000	1000	0	0	-1	0
23388083	4010	4	0	-100	0	230	101300000	1000	0	0	-1	0
23400643	4012	4	0	-100	0	230	101300000	1000	0	0	-1	0
23413203	4013	3	0	-100	0	230	101300000	1000	0	0	-1	0
23425763	4011	1	0	-100	0	230	101300000	1000	0	0	-1	0
23438323	4012	4	0	-100	0	230	101300000	1000	0	0	-1	0
23450883	4012	3	0	-100	0	230	101300000	1000	0	0	-1	0
23463443	4011	4	0	-100	0	230	101300000	1000	0	0	-1	0
23476004	4014	0	0	-100	0	230	101300000	1000	0	0	-1	0
23488563	4012	0	0	-100	0	230	101300000	1000	0	0	-1	0
23501123	4008	0	0	-100	0	230	101300000	1000	0	0	-1	0
23513683	4015	0	0	-100	0	230	101300000	1000	0	0	-1	0
23526243	4018	0	0	-100	0	230	101300000	1000	0	0	-1	0
23538803	4018	0	0	-100	0	230	101300000	1000	0	0	-1	0
23551363	4021	0	0	-100	0	230	101300000	1000	0	0	-1	0
23563923	4013	0	0	-100	0	230	101300000	1000	0	0	-1	0
23576483	4008	1	0	-100	0	230	101300000	1000	0	0	-1	0
23589043	4011	2	0	-100	0	230	101300000	1000	0	0	-1	0
23601603	4012	4	0	-100	0	230	101300000	1000	0	0	-1	0
23614163	4011	0	0	-100	0	230	101300000	1000	0	0	-1	0
23626723	4015	0	0	-100	0	230	101300000	1000	0	0	-1	0
23639283	4021	0	0	-100	0	230	101300000	1000	0	0	-1	0
23651843	4011	1	0	-100	0	230	101300000	1000	0	0	-1	0
23664403	4013	1	0	-100	0	230	101300000	1000	0	0	-1	0
23676963	4012	0	0	-100	0	230	101300000	1000	0	0	-1	0
23689523	4013	0	0	-100	0	230	101300000	1000	0	0	-1	0
23702083	4013	0	0	-100	0	230	101300000	1000	0	0	-1	0
23714643	4013	0	0	-100	0	230	101300000	1000	0	0	-1	0
23727203	4015	0	0	-100	0	230	101300000	1000	0	0	-1	0
23739763	4015	0	0	-100	0	230	101300000	1000	0	0	-1	0
23752323	4015	0	0	-100	0	230	101300000	1000	0	0	-1	0
23764883	4017	0	0	-100	0	230	101300000	1000	0	0	-1	0
23777443	4016	0	0	-100	0	230	101300000	1000	0	0	-1	0
23790004	4005	2	0	-100	0	230	101300000	1000	0	0	-1	0
23802563	4018	0	0	-100	0	230	101300000	1000	0	0	-1	0
23815123	4008	0	0	-100	0	230	101300000	1000	0	0	-1	0
23827683	4010	4	0	-100	0	230	101300000	1000	0	0	-1	0
23840243	4014	4	0	-100	0	230	101300000	1000	0	0	-1	0
23852803	4011	0	0	-100	0	230	101300000	1000	0	0	-1	0
23865363	4010	0	0	-100	0	230	101300000	1000	0	0	-1	0
23877923	4011	0	0	-100	0	230	101300000	1000	0	0	-1	0
23890483	4012	0	0	-100	0	230	101300000	1000	0	0	-1	0
23903043	4018	0	0	-100	0	230	101300000	1000	0	0	-1	0
23915603	4019	0	0	-100	0	230	101300000	1000	0	0	-1	0
23928163	4011	0	0	-100	0	230	101300000	1000	0	0	-1	0
23940723	4011	2	0	-100	0	230	101300000	1000	0	0	-1	0
23953283	4010	3	0	-100	0	230	101300000	1000	0	0	-1	0
23965843	4009	0	0	-100	0	230	101300000	1000	0	0	-1	0
23978403	4011	0	0	-100	0	230	101300000	1000	0	0	-1	0
23990963	4008	0	0	-100	0	230	101300000	1000	0	0	-1	0
24003523	4008	0	0	-100	0	230	101300000	1000	0	0	-1	0
24016083	4009	0	0	-100	0	230	101300000	1000	0	0	-1	0
24028643	4014	0	0	-100	0	230	101300000	1000	0	0	-1	0
24041203	4016	0	0	-100	0	230	101300000	1000	0	0	-1	0
24053763	4015	0	0	-100	0	230	101300000	1000	0	0	-1	0
24066323	4015	0	0	-100	0	230	101300000	1000	0	0	-1	0
24078883	4016	0	0	-100	0	230	101300000	1000	0	0	-1	0
24091443	4017	0	0	-100	0	230	101300000	1000	0	0	-1	0
24104004	4008	4	0	-100	0	230	101300000	1000	0	0	-1	0
24116563	4021	0	0	-100	0	230	101300000	1000	0	0	-1	0
24129123	4018	0	0	-100	0	230	101300000	1000	0	0	-1	0
24141683	4016	0	0	-100	0	230	101300000	1000	0	0	-1	0
24154243	4015	0	0	-100	0	230	101300000	1000	0	0	-1	0
24166803	4015	0	0	-100	0	230	101300000	1000	0	0	-1	0
24179363	4012	0	0	-100	0	230	101300000	1000	0	0	-1	0
24191923	4007	2	0	-100	0	230	101300000	1000	0	0	-1	0
24204483	4012	1	0	-100	0	230	101300000	1000	0	0	-1	0
24217043	4009	1	0	-100	0	230	101300000	1000	0	0	-1	0
24229603	4009	1	0	-100	0	230	101300000	1000	0	0	-1	0
24242163	4010	1	0	-100	0	230	101300000	1000	0	0	-1	0
24254723	4015	0	0	-100	0	230	101300000	1000	0	0	-1	0
24267283	4018	0	0	-100	0	230	101300000	1000	0	0	-1	0
24279843	4016	0	0	-100	0	230	101300000	1000	0	0	-1	0
24292403	4011	0	0	-100	0	230	101300000	1000	0	0	-1	0
24304963	4011	0	0	-100	0	230	101300000	1000	0	0	-1	0
24317523	4008	0	0	-100	0	230	101300000	1000	0	0	-1	0
24330083	4012	4	0	-100	0	230	101300000	1000	0	0	-1	0
24342643	4009	3	0	-100	0	230	101300000	1000	0	0	-1	0
24355203	4011	2	0	-100	0	230	101300000	1000	0	0	-1	0
24367763	4010	1	0	-100	0	230	101300000	1000	0	0	-1	0
24380323	4015	0	0	-100	0	230	101300000	1000	0	0	-1	0
24392883	4019	0	0	-100	0	230	101300000	1000	0	0	-1	0
24405443	4019	0	0	-100	0	230	101300000	1000	0	0	-1	0
24418004	4008	4	0	-100	0	230	101300000	1000	0	0	-1	0
24430563	4017	0	0	-100	0	230	101300000	1000	0	0	-1	0
24443123	4011	0	0	-100	0	230	101300000	1000	0	0	-1	0
24455683	4014	0	0	-100	0	230	101300000	1000	0	0	-1	0
24468243	4022	0	0	-100	0	230	101300000	1000	0	0	-1	0
24480803	4017	0	0	-100	0	230	101300000	1000	0	0	-1	0
24493363	4019	0	0	-100	0	230	101300000	1000	0	0	-1	0
24505923	4016	0	0	-100	0	230	101300000	1000	0	0	-1	0
24518483	4018	0	0	-100	0	230	101300000	1000	0	0	-1	0
24531043	4017	0	0	-100	0	230	101300000	1000	0	0	-1	0
24543603	4016	0	0	-100	0	230	101300000	1000	0	0	-1	0
24556163	4010	0	0	-100	0	230	101300000	1000	0	0	-1	0
24568723	4011	2	0	-100	0	230	101300000	1000	0	0	-1	0
24581283	4010	3	0	-100	0	230	101300000	1000	0	0	-1	0
24593843	4012	0	0	-100	0	230	101300000	1000	0	0	-1	0
24606403	4011	0	0	-100	0	230	101300000	1000	0	0	-1	0
24618963	4014	0	0	-100	0	230	101300000	1000	0	0	-1	0
24631523	4016	0	0	-100	0	230	101300000	1000	0	0	-1	0
24644083	4016	0	0	-100	0	230	101300000	1000	0	0	-1	0
24656643	4017	0	0	-100	0	230	101300000	1000	0	0	-1	0
24669203	4016	0	0	-100	0	230	101300000	1000	0	0	-1	0
24681763	4014	0	0	-100	0	230	101300000	1000	0	0	-1	0
24694323	4014	0	0	-100	0	230	101300000	1000	0	0	-1	0
24706883	4017	0	0	-100	0	230	101300000	1000	0	0	-1	0
24719443	4018	0	0	-100	0	230	101300000	1000	0	0	-1	0
24732004	4007	3	0	-100	0	230	101300000	1000	0	0	-1	0
24744563	4018	0	0	-100	0	230	101300000	1000	0	0	-1	0
24757123	4011	1	0	-100	0	230	101300000	1000	0	0	-1	0
24769683	4010	1	0	-100	0	230	101300000	1000	0	0	-1	0
24782243	4011	0	0	-100	0	230	101300000	1000	0	0	-1	0
24794803	4008	0	0	-100	0	230	101300000	1000	0	0	-1	0
24807363	4009	1	0	-100	0	230	101300000	1000	0	0	-1	0
24819923	4008	0	0	-100	0	230	101300000	1000	0	0	-1	0
24832483	4011	0	0	-100	0	230	101300000	1000	0	0	-1	0
24845043	4014	1	0	-100	0	230	101300000	1000	0	0	-1	0
24857603	4016	0	0	-100	0	230	101300000	1000	0	0	-1	0
24870163	4017	0	0	-100	0	230	101300000	1000	0	0	-1	0
24882723	4012	0	0	-100	0	230	101300000	1000	0	0	-1	0
24895283	4017	0	0	-100	0	230	101300000	1000	0	0	-1	0
24907843	4017	0	0	-100	0	230	101300000	1000	0	0	-1	0
24920403	4015	0	0	-100	0	230	101300000	1000	0	0	-1	0
24932963	4012	0	0	-100	0	230	101300000	1000	0	0	-1	0
24945523	4011	0	0	-100	0	230	101300000	1000	0	0	-1	0
24958083	4009	0	0	-100	0	230	101300000	1000	0	0	-1	0
24970643	4011	2	0	-100	0	230	101300000	1000	0	0	-1	0
24983203	4010	4	0	-100	0	230	101300000	1000	0	0	-1	0
24995763	4012	1	0	-100	0	230	101300000	1000	0	0	-1	0
25008323	4009	0	0	-100	0	230	101300000	1000	0	0	-1	0
25020883	4011	0	0	-100	0	230	101300000	1000	0	0	-1	0
25033443	4014	0	0	-100	0	230	101300000	1000	0	0	-1	0
25046004	4007	3	0	-100	0	230	101300000	1000	0	0	-1	0
25058563	4018	0	0	-100	0	230	101300000	1000	0	0	-1	0
25071123	4017	0	0	-100	0	230	101300000	1000	0	0	-1	0
25083683	4017	0	0	-100	0	230	101300000	1000	0	0	-1	0
25096243	4018	0	0	-100	0	230	101300000	1000	0	0	-1	0
25108803	4012	0	0	-100	0	230	101300000	1000	0	0	-1	0
25121363	4011	0	0	-100	0	230	101300000	1000	0	0	-1	0
25133923	4014	0	0	-100	0	230	101300000	1000	0	0	-1	0
25146483	4017	0	0	-100	0	230	101300000	1000	0	0	-1	0
25159043	4017	0	0	-100	0	230	101300000	1000	0	0	-1	0
25171603	4018	0	0	-100	0	230	101300000	1000	0	0	-1	0
25184163	4013	0	0	-100	0	230	101300000	1000	0	0	-1	0
25196723	4013	0	0	-100	0	230	101300000	1000	0	0	-1	0
25209283	4017	0	0	-100	0	230	101300000	1000	0	0	-1	0
25221843	4018	0	0	-100	0	230	101300000	1000	0	0	-1	0
25234403	4012	0	0	-100	0	230	101300000	1000	0	0	-1	0
25246963	4009	0	0	-100	0	230	101300000	1000	0	0	-1	0
25259523	4011	0	0	-100	0	230	101300000	1000	0	0	-1	0
25272083	4011	3	0	-100	0	230	101300000	1000	0	0	-1	0
25284643	4009	2	0	-100	0	230	101300000	1000	0	0	-1	0
25297203	4011	4	0	-100	0	230	101300000	1000	0	0	-1	0
25309763	4010	4	0	-100	0	230	101300000	1000	0	0	-1	0
25322323	4008	4	0	-100	0	230	101300000	1000	0	0	-1	0
25334883	4014	3	0	-100	0	230	101300000	1000	0	0	-1	0
25347443	4009	0	0	-100	0	230	101300000	1000	0	0	-1	0
25360004	4015	0	0	-100	0	230	101300000	1000	0	0	-1	0
25372563	4009	0	0	-100	0	230	101300000	1000	0	0	-1	0
25385123	4009	0	0	-100	0	230	101300000	1000	0	0	-1	0
25397683	4009	0	0	-100	0	230	101300000	1000	0	0	-1	0
25410243	4011	0	0	-100	0	230	101300000	1000	0	0	-1	0
25422803	4009	0	0	-100	0	230	101300000	1000	0	0	-1	0
25435363	4011	0	0	-100	0	230	101300000	1000	0	0	-1	0
25447923	4016	0	0	-100	0	230	101300000	1000	0	0	-1	0
25460483	4018	0	0	-100	0	230	101300000	1000	0	0	-1	0
25473043	4017	0	0	-100	0	230	101300000	1000	0	0	-1	0
25485603	4016	0	0	-100	0	230	101300000	1000	0	0	-1	0
25498163	4016	0	0	-100	0	230	101300000	1000	0	0	-1	0
25510723	4019	0	0	-100	0	230	101300000	1000	0	0	-1	0
25523283	4018	0	0	-100	0	230	101300000	1000	0	0	-1	0
25535843	4016	0	0	-100	0	230	101300000	1000	0	0	-1	0
25548403	4016	0	0	-100	0	230	101300000	1000	0	0	-1	0
25586083	4017	0	0	-100	0	230	101300000	1000	0	0	-1	0
25598643	4018	0	0	-100	0	230	101300000	1000	0	0	-1	0
25611203	4018	0	0	-100	0	230	101300000	1000	0	0	-1	0
25623763	4014	0	0	-100	0	230	101300000	1000	0	0	-1	0
25636323	4011	0	0	-100	0	230	101300000	1000	0	0	-1	0
25648883	4009	4	0	-100	0	230	101300000	1000	0	0	-1	0
25661443	4011	3	0	-100	0	230	101300000	1000	0	0	-1	0
25674004	4012	0	0	-100	0	230	101300000	1000	0	0	-1	0
25686563	4006	0	0	-100	0	230	101300000	1000	0	0	-1	0
25699123	4011	0	0	-100	0	230	101300000	1000	0	0	-1	0
25711683	4016	0	0	-100	0	230	101300000	1000	0	0	-1	0
25812163	4008	0	0	-100	0	230	101300000	1000	0	0	-1	0
25824723	4010	4	0	-100	0	230	101300000	1000	0	0	-1	0
25837283	4008	4	0	-100	0	230	101300000	1000	0	0	-1	0
25849843	4010	4	0	-100	0	230	101300000	1000	0	0	-1	0
25862403	4013	4	0	-100	0	230	101300000	1000	0	0	-1	0
25874963	4011	0	0	-100	0	230	101300000	1000	0	0	-1	0
25887523	4011	0	0	-100	0	230	101300000	1000	0	0	-1	0
25900083	4012	0	0	-100	0	230	101300000	1000	0	0	-1	0
25912643	4011	0	0	-100	0	230	101300000	1000	0	0	-1	0
25925203	4011	0	0	-100	0	230	101300000	1000	0	0	-1	0
25937763	4012	0	0	-100	0	230	101300000	1000	0	0	-1	0
25950323	4011	0	0	-100	0	230	101300000	1000	0	0	-1	0
25975443	4014	3	0	-100	0	230	101300000	1000	0	0	-1	0
25988004	4014	0	0	-100	0	230	101300000	1000	0	0	-1	0
26000563	4010	5	0	-100	0	230	101300000	1000	0	0	-1	0
26013123	4011	4	0	-100	0	230	101300000	1000	0	0	-1	0
26025683	4008	3	0	-100	0	230	101300000	1000	0	0	-1	0
26038243	4011	2	0	-100	0	230	101300000	1000	0	0	-1	0
26050803	4012	0	0	-100	0	230	101300000	1000	0	0	-1	0
26063363	4017	0	0	-100	0	230	101300000	1000	0	0	-1	0
26075923	4018	0	0	-100	0	230	101300000	1000	0	0	-1	0
26088483	4018	0	0	-100	0	230	101300000	1000	0	0	-1	0
26101043	4016	0	0	-100	0	230	101300000	1000	0	0	-1	0
26113603	4017	0	0	-100	0	230	101300000	1000	0	0	-1	0
26126163	4011	0	0	-100	0	230	101300000	1000	0	0	-1	0
26138723	4013	1	0	-100	0	230	101300000	1000	0	0	-1	0
26151283	4012	4	0	-100	0	230	101300000	1000	0	0	-1	0
26163843	4010	4	0	-100	0	230	101300000	1000	0	0	-1	0
26176403	4012	0	0	-100	0	230	101300000	1000	0	0	-1	0
26188963	4016	0	0	-100	0	230	101300000	1000	0	0	-1	0
26201523	4010	0	0	-100	0	230	101300000	1000	0	0	-1	0
26214083	4008	4	0	-100	0	230	101300000	1000	0	0	-1	0
26226643	4011	0	0	-100	0	230	101300000	1000	0	0	-1	0
26239203	4018	0	0	-100	0	230	101300000	1000	0	0	-1	0
26251763	4018	0	0	-100	0	230	101300000	1000	0	0	-1	0
26264323	4015	0	0	-100	0	230	101300000	1000	0	0	-1	0
26276883	4015	0	0	-100	0	230	101300000	1000	0	0	-1	0
26289443	4016	0	0	-100	0	230	101300000	1000	0	0	-1	0
26302004	4011	0	0	-100	0	230	101300000	1000	0	0	-1	0
26314563	4010	0	0	-100	0	230	101300000	1000	0	0	-1	0
26327123	4010	0	0	-100	0	230	101300000	1000	0	0	-1	0
26339683	4011	0	0	-100	0	230	101300000	1000	0	0	-1	0
26352243	4009	0	0	-100	0	230	101300000	1000	0	0	-1	0
26364803	4012	0	0	-100	0	230	101300000	1000	0	0	-1	0
26377363	4012	4	0	-100	0	230	101300000	1000	0	0	-1	0
26389923	4012	4	0	-100	0	230	101300000	1000	0	0	-1	0
26402483	4009	0	0	-100	0	230	101300000	1000	0	0	-1	0
26415043	4011	0	0	-100	0	230	101300000	1000	0	0	-1	0
26427603	4012	0	0	-100	0	230	101300000	1000	0	0	-1	0
26440163	4012	0	0	-100	0	230	101300000	1000	0	0	-1	0
26452723	4012	0	0	-100	0	230	101300000	1000	0	0	-1	0
26465283	4011	2	0	-100	0	230	101300000	1000	0	0	-1	0
26477843	4010	4	0	-100	0	230	101300000	1000	0	0	-1	0
26490403	4009	2	0	-100	0	230	101300000	1000	0	0	-1	0
26502963	4012	3	0	-100	0	230	101300000	1000	0	0	-1	0
26515523	4010	3	0	-100	0	230	101300000	1000	0	0	-1	0
26528083	4011	3	0	-100	0	230	101300000	1000	0	0	-1	0
26540643	4012	0	0	-100	0	230	101300000	1000	0	0	-1	0
26553203	4009	0	0	-100	0	230	101300000	1000	0	0	-1	0
26565763	4018	0	0	-100	0	230	101300000	1000	0	0	-1	0
26578323	4015	0	0	-100	0	230	101300000	1000	0	0	-1	0
26590883	4013	1	0	-100	0	230	101300000	1000	0	0	-1	0
26603443	4013	0	0	-100	0	230	101300000	1000	0	0	-1	0
26616004	4011	0	0	-100	0	230	101300000	1000	0	0	-1	0
26628563	4007	4	0	-100	0	230	101300000	1000	0	0	-1	0
26641123	4009	0	0	-100	0	230	101300000	1000	0	0	-1	0
26653683	4011	0	0	-100	0	230	101300000	1000	0	0	-1	0
26666243	4013	0	0	-100	0	230	101300000	1000	0	0	-1	0
26678803	4014	0	0	-100	0	230	101300000	1000	0	0	-1	0
26691363	4018	0	0	-100	0	230	101300000	1000	0	0	-1	0
26703923	4015	0	0	-100	0	230	101300000	1000	0	0	-1	0
26716483	4009	0	0	-100	0	230	101300000	1000	0	0	-1	0
26729043	4013	4	0	-100	0	230	101300000	1000	0	0	-1	0
26741603	4008	0	0	-100	0	230	101300000	1000	0	0	-1	0
26754163	4013	0	0	-100	0	230	101300000	1000	0	0	-1	0
26766723	4017	0	0	-100	0	230	101300000	1000	0	0	-1	0
26779283	4012	0	0	-100	0	230	101300000	1000	0	0	-1	0
26791843	4011	1	0	-100	0	230	101300000	1000	0	0	-1	0
26804403	4010	0	0	-100	0	230	101300000	1000	0	0	-1	0
26816963	4013	0	0	-100	0	230	101300000	1000	0	0	-1	0
26829523	4015	0	0	-100	0	230	101300000	1000	0	0	-1	0
26842083	4014	0	0	-100	0	230	101300000	1000	0	0	-1	0
26854643	4009	3	0	-100	0	230	101300000	1000	0	0	-1	0
26867203	4006	0	0	-100	0	230	101300000	1000	0	0	-1	0
26879763	4015	0	0	-100	0	230	101300000	1000	0	0	-1	0
26892323	4019	0	0	-100	0	230	101300000	1000	0	0	-1	0
26904883	4011	1	0	-100	0	230	101300000	1000	0	0	-1	0
26917443	4008	3	0	-100	0	230	101300000	1000	0	0	-1	0
26930004	4015	0	0	-100	0	230	101300000	1000	0	0	-1	0
26942563	4015	0	0	-100	0	230	101300000	1000	0	0	-1	0
26955123	4015	0	0	-100	0	230	101300000	1000	0	0	-1	0
26967683	4018	0	0	-100	0	230	101300000	1000	0	0	-1	0
26980243	4012	0	0	-100	0	230	101300000	1000	0	0	-1	0
26992803	4009	1	0	-100	0	230	101300000	1000	0	0	-1	0
27005363	4007	4	0	-100	0	230	101300000	1000	0	0	-1	0
27017923	4011	3	0	-100	0	230	101300000	1000	0	0	-1	0
27030483	4008	0	0	-100	0	230	101300000	1000	0	0	-1	0
27043043	4011	0	0	-100	0	230	101300000	1000	0	0	-1	0
27055603	4014	0	0	-100	0	230	101300000	1000	0	0	-1	0
27068163	4019	0	0	-100	0	230	101300000	1000	0	0	-1	0
27080723	4019	0	0	-100	0	230	101300000	1000	0	0	-1	0
27093283	4018	0	0	-100	0	230	101300000	1000	0	0	-1	0
27105843	4012	0	0	-100	0	230	101300000	1000	0	0	-1	0
27118403	4008	0	0	-100	0	230	101300000	1000	0	0	-1	0
27130963	4009	1	0	-100	0	230	101300000	1000	0	0	-1	0
27143523	4012	4	0	-100	0	230	101300000	1000	0	0	-1	0
27156083	4012	0	0	-100	0	230	101300000	1000	0	0	-1	0
27168643	4015	0	0	-100	0	230	101300000	1000	0	0	-1	0
27181203	4017	0	0	-100	0	230	101300000	1000	0	0	-1	0
27193763	4011	0	0	-100	0	230	101300000	1000	0	0	-1	0
27206323	4008	3	0	-100	0	230	101300000	1000	0	0	-1	0
27218883	4009	0	0	-100	0	230	101300000	1000	0	0	-1	0
27231443	4012	0	0	-100	0	230	101300000	1000	0	0	-1	0
27244004	4015	0	0	-100	0	230	101300000	1000	0	0	-1	0
27256563	4016	0	0	-100	0	230	101300000	1000	0	0	-1	0
27269123	4015	0	0	-100	0	230	101300000	1000	0	0	-1	0
27281683	4018	0	0	-100	0	230	101300000	1000	0	0	-1	0
27294243	4014	0	0	-100	0	230	101300000	1000	0	0	-1	0
27306803	4011	0	0	-100	0	230	101300000	1000	0	0	-1	0
27319363	4012	2	0	-100	0	230	101300000	1000	0	0	-1	0
27331923	4011	4	0	-100	0	230	101300000	1000	0	0	-1	0
27344483	4011	4	0	-100	0	230	101300000	1000	0	0	-1	0
27357043	4015	3	0	-100	0	230	101300000	1000	0	0	-1	0
27369603	4009	0	0	-100	0	230	101300000	1000	0	0	-1	0
27382163	4007	0	0	-100	0	230	101300000	1000	0	0	-1	0
27394723	4012	0	0	-100	0	230	101300000	1000	0	0	-1	0
27407283	4019	0	0	-100	0	230	101300000	1000	0	0	-1	0
27419843	4017	0	0	-100	0	230	101300000	1000	0	0	-1	0
27432403	4017	0	0	-100	0	230	101300000	1000	0	0	-1	0
27444963	4012	1	0	-100	0	230	101300000	1000	0	0	-1	0
27457523	4009	1	0	-100	0	230	101300000	1000	0	0	-1	0
27470083	4010	4	0	-100	0	230	101300000	1000	0	0	-1	0
27482643	4011	3	0	-100	0	230	101300000	1000	0	0	-1	0
27495203	4009	3	0	-100	0	230	101300000	1000	0	0	-1	0
27507763	4013	2	0	-100	0	230	101300000	1000	0	0	-1	0
27520323	4008	0	0	-100	0	230	101300000	1000	0	0	-1	0
27532883	4010	1	0	-100	0	230	101300000	1000	0	0	-1	0
27545443	4011	0	0	-100	0	230	101300000	1000	0	0	-1	0
27558004	4019	0	0	-100	0	230	101300000	1000	0	0	-1	0
27570563	4013	0	0	-100	0	230	101300000	1000	0	0	-1	0
27583123	4012	0	0	-100	0	230	101300000	1000	0	0	-1	0
27595683	4015	0	0	-100	0	230	101300000	1000	0	0	-1	0
27608243	4014	0	0	-100	0	230	101300000	1000	0	0	-1	0
27620803	4018	0	0	-100	0	230	101300000	1000	0	0	-1	0
27633363	4008	0	0	-100	0	230	101300000	1000	0	0	-1	0
27645923	4009	3	0	-100	0	230	101300000	1000	0	0	-1	0
27658483	4013	4	0	-100	0	230	101300000	1000	0	0	-1	0
27671043	4009	0	0	-100	0	230	101300000	1000	0	0	-1	0
27683603	4013	0	0	-100	0	230	101300000	1000	0	0	-1	0
27696163	4017	0	0	-100	0	230	101300000	1000	0	0	-1	0
27708723	4018	0	0	-100	0	230	101300000	1000	0	0	-1	0
27721283	4019	0	0	-100	0	230	101300000	1000	0	0	-1	0
27733843	4016	0	0	-100	0	230	101300000	1000	0	0	-1	0
27746403	4014	0	0	-100	0	230	101300000	1000	0	0	-1	0
27758963	4010	2	0	-100	0	230	101300000	1000	0	0	-1	0
27771523	4009	3	0	-100	0	230	101300000	1000	0	0	-1	0
27784083	4011	4	0	-100	0	230	101300000	1000	0	0	-1	0
27796643	4011	4	0	-100	0	230	101300000	1000	0	0	-1	0
27809203	4012	2	0	-100	0	230	101300000	1000	0	0	-1	0
27821763	4011	4	0	-100	0	230	101300000	1000	0	0	-1	0
27834323	4009	0	0	-100	0	230	101300000	1000	0	0	-1	0
27846883	4010	0	0	-100	0	230	101300000	1000	0	0	-1	0
27859443	4016	0	0	-100	0	230	101300000	1000	0	0	-1	0
27872004	4008	0	0	-100	0	230	101300000	1000	0	0	-1	0
27884563	4018	0	0	-100	0	230	101300000	1000	0	0	-1	0
27897123	4014	0	0	-100	0	230	101300000	1000	0	0	-1	0
27909683	4016	0	0	-100	0	230	101300000	1000	0	0	-1	0
27922243	4017	0	0	-100	0	230	101300000	1000	0	0	-1	0
27934803	4019	0	0	-100	0	230	101300000	1000	0	0	-1	0
27947363	4014	0	0	-100	0	230	101300000	1000	0	0	-1	0
27959923	4008	0	0	-100	0	230	101300000	1000	0	0	-1	0
27972483	4012	2	0	-100	0	230	101300000	1000	0	0	-1	0
27985043	4009	4	0	-100	0	230	101300000	1000	0	0	-1	0
27997603	4010	0	0	-100	0	230	101300000	1000	0	0	-1	0
28010163	4010	0	0	-100	0	230	101300000	1000	0	0	-1	0
28022723	4011	0	0	-100	0	230	101300000	1000	0	0	-1	0
28035283	4011	0	0	-100	0	230	101300000	1000	0	0	-1	0
28047843	4013	0	0	-100	0	230	101300000	1000	0	0	-1	0
28060403	4015	0	0	-100	0	230	101300000	1000	0	0	-1	0
28072963	4016	0	0	-100	0	230	101300000	1000	0	0	-1	0
28085523	4017	0	0	-100	0	230	101300000	1000	0	0	-1	0
28098083	4017	0	0	-100	0	230	101300000	1000	0	0	-1	0
28110643	4017	0	0	-100	0	230	101300000	1000	0	0	-1	0
28123203	4015	0	0	-100	0	230	101300000	1000	0	0	-1	0
28135763	4018	0	0	-100	0	230	101300000	1000	0	0	-1	0
28148323	4016	0	0	-100	0	230	101300000	1000	0	0	-1	0
28160883	4017	0	0	-100	0	230	101300000	1000	0	0	-1	0
28173443	4016	0	0	-100	0	230	101300000	1000	0	0	-1	0
28186004	4012	0	0	-100	0	230	101300000	1000	0	0	-1	0
28198563	4011	0	0	-100	0	230	101300000	1000	0	0	-1	0
28211123	4007	3	0	-100	0	230	101300000	1000	0	0	-1	0
28223683	4012	3	0	-100	0	230	101300000	1000	0	0	-1	0
28236243	4010	4	0	-100	0	230	101300000	1000	0	0	-1	0
28248803	4010	0	0	-100	0	230	101300000	1000	0	0	-1	0
28261363	4011	0	0	-100	0	230	101300000	1000	0	0	-1	0
28273923	4013	0	0	-100	0	230	101300000	1000	0	0	-1	0
28286483	4015	0	0	-100	0	230	101300000	1000	0	0	-1	0
28299043	4013	0	0	-100	0	230	101300000	1000	0	0	-1	0
28311603	4016	0	0	-100	0	230	101300000	1000	0	0	-1	0
28324163	4022	0	0	-100	0	230	101300000	1000	0	0	-1	0
28336723	4011	0	0	-100	0	230	101300000	1000	0	0	-1	0
28349283	4009	2	0	-100	0	230	101300000	1000	0	0	-1	0
28361843	4011	3	0	-100	0	230	101300000	1000	0	0	-1	0
28374403	4010	0	0	-100	0	230	101300000	1000	0	0	-1	0
28386963	4011	0	0	-100	0	230	101300000	1000	0	0	-1	0
28399523	4015	0	0	-100	0	230	101300000	1000	0	0	-1	0
28412083	4018	0	0	-100	0	230	101300000	1000	0	0	-1	0
28424643	4012	0	0	-100	0	230	101300000	1000	0	0	-1	0
28437203	4008	1	0	-100	0	230	101300000	1000	0	0	-1	0
28449763	4011	3	0	-100	0	230	101300000	1000	0	0	-1	0
28462323	4010	0	0	-100	0	230	101300000	1000	0	0	-1	0
28474883	4012	0	0	-100	0	230	101300000	1000	0	0	-1	0
28487443	4018	0	0	-100	0	230	101300000	1000	0	0	-1	0
28500004	4012	0	0	-100	0	230	101300000	1000	0	0	-1	0
28512563	4009	3	0	-100	0	230	101300000	1000	0	0	-1	0
28525123	4010	0	0	-100	0	230	101300000	1000	0	0	-1	0
28537683	4017	0	0	-100	0	230	101300000	1000	0	0	-1	0
28550243	4013	0	0	-100	0	230	101300000	1000	0	0	-1	0
28562803	4012	3	0	-100	0	230	101300000	1000	0	0	-1	0
28575363	4011	0	0	-100	0	230	101300000	1000	0	0	-1	0
28587923	4017	0	0	-100	0	230	101300000	1000	0	0	-1	0
28600483	4017	0	0	-100	0	230	101300000	1000	0	0	-1	0
28613043	4009	1	0	-100	0	230	101300000	1000	0	0	-1	0
28625603	4013	2	0	-100	0	230	101300000	1000	0	0	-1	0
28638163	4011	0	0	-100	0	230	101300000	1000	0	0	-1	0
28650723	4014	0	0	-100	0	230	101300000	1000	0	0	-1	0
28675843	4012	0	0	-100	0	230	101300000	1000	0	0	-1	0
28688403	4012	3	0	-100	0	230	101300000	1000	0	0	-1	0
28700963	4010	0	0	-100	0	230	101300000	1000	0	0	-1	0
28713523	4011	0	0	-100	0	230	101300000	1000	0	0	-1	0
28726083	4016	0	0	-100	0	230	101300000	1000	0	0	-1	0
28738643	4017	0	0	-100	0	230	101300000	1000	0	0	-1	0
28751203	4013	0	0	-100	0	230	101300000	1000	0	0	-1	0
28763763	4008	2	0	-100	0	230	101300000	1000	0	0	-1	0
28776323	4009	3	0	-100	0	230	101300000	1000	0	0	-1	0
28788883	4013	1	0	-100	0	230	101300000	1000	0	0	-1	0
28801443	4011	0	0	-100	0	230	101300000	1000	0	0	-1	0
28864243	4008	0	0	-100	0	230	101300000	1000	0	0	-1	0
28876803	4007	0	0	-100	0	230	101300000	1000	0	0	-1	0
28889363	4012	0	0	-100	0	230	101300000	1000	0	0	-1	0
28901923	4016	0	0	-100	0	230	101300000	1000	0	0	-1	0
28914483	4016	0	0	-100	0	230	101300000	1000	0	0	-1	0
28927043	4009	2	0	-100	0	230	101300000	1000	0	0	-1	0
28939603	4011	4	0	-100	0	230	101300000	1000	0	0	-1	0
28952163	4011	0	0	-100	0	230	101300000	1000	0	0	-1	0
28964723	4017	0	0	-100	0	230	101300000	1000	0	0	-1	0
28977283	4016	0	0	-100	0	230	101300000	1000	0	0	-1	0
28989843	4012	0	0	-100	0	230	101300000	1000	0	0	-1	0
29002403	4006	3	0	-100	0	230	101300000	1000	0	0	-1	0
29014963	4009	0	0	-100	0	230	101300000	1000	0	0	-1	0
29027523	4011	0	0	-100	0	230	101300000	1000	0	0	-1	0
29040083	4018	0	0	-100	0	230	101300000	1000	0	0	-1	0
29052643	4018	0	0	-100	0	230	101300000	1000	0	0	-1	0
29065203	4010	0	0	-100	0	230	101300000	1000	0	0	-1	0
29077763	4008	1	0	-100	0	230	101300000	1000	0	0	-1	0
29090323	4008	1	0	-100	0	230	101300000	1000	0	0	-1	0
29102883	4011	3	0	-100	0	230	101300000	1000	0	0	-1	0
29115443	4013	4	0	-100	0	230	101300000	1000	0	0	-1	0
29128004	4015	0	0	-100	0	230	101300000	1000	0	0	-1	0
29140563	4012	0	0	-100	0	230	101300000	1000	0	0	-1	0
29153123	4008	0	0	-100	0	230	101300000	1000	0	0	-1	0
29165683	4011	0	0	-100	0	230	101300000	1000	0	0	-1	0
29178243	4012	0	0	-100	0	230	101300000	1000	0	0	-1	0
29190803	4009	0	0	-100	0	230	101300000	1000	0	0	-1	0
29203363	4015	0	0	-100	0	230	101300000	1000	0	0	-1	0
29215923	4018	0	0	-100	0	230	101300000	1000	0	0	-1	0
29228483	4013	0	0	-100	0	230	101300000	1000	0	0	-1	0
29241043	4012	1	0	-100	0	230	101300000	1000	0	0	-1	0
29253603	4008	3	0	-100	0	230	101300000	1000	0	0	-1	0
29266163	4011	3	0	-100	0	230	101300000	1000	0	0	-1	0
29278723	4011	0	0	-100	0	230	101300000	1000	0	0	-1	0
29291283	4009	0	0	-100	0	230	101300000	1000	0	0	-1	0
29303843	4010	0	0	-100	0	230	101300000	1000	0	0	-1	0
29316403	4015	0	0	-100	0	230	101300000	1000	0	0	-1	0
29328963	4016	0	0	-100	0	230	101300000	1000	0	0	-1	0
29341523	4016	0	0	-100	0	230	101300000	1000	0	0	-1	0
29354083	4016	0	0	-100	0	230	101300000	1000	0	0	-1	0
29366643	4015	0	0	-100	0	230	101300000	1000	0	0	-1	0
29379203	4015	0	0	-100	0	230	101300000	1000	0	0	-1	0
29391763	4017	0	0	-100	0	230	101300000	1000	0	0	-1	0
29404323	4017	0	0	-100	0	230	101300000	1000	0	0	-1	0
29416883	4017	0	0	-100	0	230	101300000	1000	0	0	-1	0
29429443	4018	0	0	-100	0	230	101300000	1000	0	0	-1	0
29442004	4008	0	0	-100	0	230	101300000	1000	0	0	-1	0
29454563	4011	2	0	-100	0	230	101300000	1000	0	0	-1	0
29467123	4008	4	0	-100	0	230	101300000	1000	0	0	-1	0
29479683	4008	0	0	-100	0	230	101300000	1000	0	0	-1	0
29492243	4010	0	0	-100	0	230	101300000	1000	0	0	-1	0
29504803	4007	0	0	-100	0	230	101300000	1000	0	0	-1	0
29517363	4012	0	0	-100	0	230	101300000	1000	0	0	-1	0
29529923	4011	0	0	-100	0	230	101300000	1000	0	0	-1	0
29542483	4016	0	0	-100	0	230	101300000	1000	0	0	-1	0
29555043	4016	0	0	-100	0	230	101300000	1000	0	0	-1	0
29567603	4018	0	0	-100	0	230	101300000	1000	0	0	-1	0
29580163	4015	0	0	-100	0	230	101300000	1000	0	0	-1	0
29592723	4015	0	0	-100	0	230	101300000	1000	0	0	-1	0
29605283	4016	0	0	-100	0	230	101300000	1000	0	0	-1	0
29617843	4017	0	0	-100	0	230	101300000	1000	0	0	-1	0
29630403	4018	0	0	-100	0	230	101300000	1000	0	0	-1	0
29642963	4011	2	0	-100	0	230	101300000	1000	0	0	-1	0
29655523	4013	1	0	-100	0	230	101300000	1000	0	0	-1	0
29668083	4010	0	0	-100	0	230	101300000	1000	0	0	-1	0
29680643	4016	0	0	-100	0	230	101300000	1000	0	0	-1	0
29693203	4018	0	0	-100	0	230	101300000	1000	0	0	-1	0
29705763	4012	0	0	-100	0	230	101300000	1000	0	0	-1	0
29718323	4006	2	0	-100	0	230	101300000	1000	0	0	-1	0
29730883	4014	1	0	-100	0	230	101300000	1000	0	0	-1	0
29743443	4012	0	0	-100	0	230	101300000	1000	0	0	-1	0
29756004	4011	2	0	-100	0	230	101300000	1000	0	0	-1	0
29768563	4012	0	0	-100	0	230	101300000	1000	0	0	-1	0
29781123	4012	4	0	-100	0	230	101300000	1000	0	0	-1	0
29793683	4009	0	0	-100	0	230	101300000	1000	0	0	-1	0
29806243	4011	0	0	-100	0	230	101300000	1000	0	0	-1	0
29818803	4015	0	0	-100	0	230	101300000	1000	0	0	-1	0
29831363	4012	0	0	-100	0	230	101300000	1000	0	0	-1	0
29843923	4012	4	0	-100	0	230	101300000	1000	0	0	-1	0
29856483	4008	0	0	-100	0	230	101300000	1000	0	0	-1	0
29869043	4012	0	0	-100	0	230	101300000	1000	0	0	-1	0
29881603	4015	0	0	-100	0	230	101300000	1000	0	0	-1	0
29894163	4012	0	0	-100	0	230	101300000	1000	0	0	-1	0
29906723	4007	4	0	-100	0	230	101300000	1000	0	0	-1	0
29919283	4013	2	0	-100	0	230	101300000	1000	0	0	-1	0
29931843	4011	0	0	-100	0	230	101300000	1000	0	0	-1	0
29944403	4018	0	0	-100	0	230	101300000	1000	0	0	-1	0
29956963	4012	0	0	-100	0	230	101300000	1000	0	0	-1	0
29969523	4014	3	0	-100	0	230	101300000	1000	0	0	-1	0
29982083	4013	0	0	-100	0	230	101300000	1000	0	0	-1	0
29994643	4010	0	0	-100	0	230	101300000	1000	0	0	-1	0
30007203	4012	0	0	-100	0	230	101300000	1000	0	0	-1	0
30019763	4015	0	0	-100	0	230	101300000	1000	0	0	-1	0
30032323	4008	1	0	-100	0	230	101300000	1000	0	0	-1	0
30044883	4009	4	0	-100	0	230	101300000	1000	0	0	-1	0
30057443	4011	0	0	-100	0	230	101300000	1000	0	0	-1	0
30070004	4008	2	0	-100	0	230	101300000	1000	0	0	-1	0
30082563	4016	0	0	-100	0	230	101300000	1000	0	0	-1	0
30095123	4011	3	0	-100	0	230	101300000	1000	0	0	-1	0
30107683	4011	0	0	-100	0	230	101300000	1000	0	0	-1	0
30120243	4013	0	0	-100	0	230	101300000	1000	0	0	-1	0
30132803	4019	0	0	-100	0	230	101300000	1000	0	0	-1	0
30145363	4012	0	0	-100	0	230	101300000	1000	0	0	-1	0
30157923	4009	3	0	-100	0	230	101300000	1000	0	0	-1	0
30170483	4008	0	0	-100	0	230	101300000	1000	0	0	-1	0
30183043	4015	0	0	-100	0	230	101300000	1000	0	0	-1	0
30195603	4013	0	0	-100	0	230	101300000	1000	0	0	-1	0
30208163	4008	1	0	-100	0	230	101300000	1000	0	0	-1	0
30220723	4010	0	0	-100	0	230	101300000	1000	0	0	-1	0
30233283	4019	0	0	-100	0	230	101300000	1000	0	0	-1	0
30245843	4012	0	0	-100	0	230	101300000	1000	0	0	-1	0
30258403	4009	0	0	-100	0	230	101300000	1000	0	0	-1	0
30270963	4012	0	0	-100	0	230	101300000	1000	0	0	-1	0
30283523	4014	0	0	-100	0	230	101300000	1000	0	0	-1	0
30296083	4009	1	0	-100	0	230	101300000	1000	0	0	-1	0
30308643	4008	4	0	-100	0	230	101300000	1000	0	0	-1	0
30321203	4008	0	0	-100	0	230	101300000	1000	0	0	-1	0
30333763	4011	0	0	-100	0	230	101300000	1000	0	0	-1	0
30346323	4017	0	0	-100	0	230	101300000	1000	0	0	-1	0
30358883	4014	0	0	-100	0	230	101300000	1000	0	0	-1	0
30371443	4009	3	0	-100	0	230	101300000	1000	0	0	-1	0
30384004	4015	0	0	-100	0	230	101300000	1000	0	0	-1	0
30396563	4015	0	0	-100	0	230	101300000	1000	0	0	-1	0
30409123	4017	0	0	-100	0	230	101300000	1000	0	0	-1	0
30421683	4013	0	0	-100	0	230	101300000	1000	0	0	-1	0
30434243	4009	0	0	-100	0	230	101300000	1000	0	0	-1	0
30446803	4012	4	0	-100	0	230	101300000	1000	0	0	-1	0
30459363	4011	0	0	-100	0	230	101300000	1000	0	0	-1	0
30471923	4017	0	0	-100	0	230	101300000	1000	0	0	-1	0
30484483	4013	0	0	-100	0	230	101300000	1000	0	0	-1	0
30497043	4011	1	0	-100	0	230	101300000	1000	0	0	-1	0
30509603	4011	4	0	-100	0	230	101300000	1000	0	0	-1	0
30522163	4012	4	0	-100	0	230	101300000	1000	0	0	-1	0
30534723	4011	0	0	-100	0	230	101300000	1000	0	0	-1	0
30547283	4016	0	0	-100	0	230	101300000	1000	0	0	-1	0
30559843	4014	0	0	-100	0	230	101300000	1000	0	0	-1	0
30572403	4014	2	0	-100	0	230	101300000	1000	0	0	-1	0
30584963	4010	0	0	-100	0	230	101300000	1000	0	0	-1	0
30597523	4016	0	0	-100	0	230	101300000	1000	0	0	-1	0
30610083	4016	0	0	-100	0	230	101300000	1000	0	0	-1	0
30622643	4019	0	0	-100	0	230	101300000	1000	0	0	-1	0
30635203	4013	0	0	-100	0	230	101300000	1000	0	0	-1	0
30647763	4008	1	0	-100	0	230	101300000	1000	0	0	-1	0
30660323	4011	3	0	-100	0	230	101300000	1000	0	0	-1	0
30672883	4012	4	0	-100	0	230	101300000	1000	0	0	-1	0
30685443	4011	0	0	-100	0	230	101300000	1000	0	0	-1	0
30698004	4017	0	0	-100	0	230	101300000	1000	0	0	-1	0
30710563	4010	0	0	-100	0	230	101300000	1000	0	0	-1	0
30723123	4007	0	0	-100	0	230	101300000	1000	0	0	-1	0
30735683	4016	0	0	-100	0	230	101300000	1000	0	0	-1	0
30748243	4016	0	0	-100	0	230	101300000	1000	0	0	-1	0
30760803	4010	1	0	-100	0	230	101300000	1000	0	0	-1	0
30773363	4011	4	0	-100	0	230	101300000	1000	0	0	-1	0
30785923	4012	0	0	-100	0	230	101300000	1000	0	0	-1	0
30798483	4011	0	0	-100	0	230	101300000	1000	0	0	-1	0
30811043	4016	0	0	-100	0	230	101300000	1000	0	0	-1	0
30823603	4014	0	0	-100	0	230	101300000	1000	0	0	-1	0
30836163	4016	0	0	-100	0	230	101300000	1000	0	0	-1	0
30848723	4017	0	0	-100	0	230	101300000	1000	0	0	-1	0
30861283	4018	0	0	-100	0	230	101300000	1000	0	0	-1	0
30873843	4012	0	0	-100	0	230	101300000	1000	0	0	-1	0
30886403	4008	2	0	-100	0	230	101300000	1000	0	0	-1	0
30898963	4014	0	0	-100	0	230	101300000	1000	0	0	-1	0
30911523	4013	0	0	-100	0	230	101300000	1000	0	0	-1	0
30924083	4019	0	0	-100	0	230	101300000	1000	0	0	-1	0
30936643	4016	0	0	-100	0	230	101300000	1000	0	0	-1	0
30949203	4009	2	0	-100	0	230	101300000	1000	0	0	-1	0
30961763	4009	0	0	-100	0	230	101300000	1000	0	0	-1	0
30974323	4012	0	0	-100	0	230	101300000	1000	0	0	-1	0
30986883	4018	0	0	-100	0	230	101300000	1000	0	0	-1	0
30999443	4010	2	0	-100	0	230	101300000	1000	0	0	-1	0
31012004	4013	0	0	-100	0	230	101300000	1000	0	0	-1	0
31024563	4009	0	0	-100	0	230	101300000	1000	0	0	-1	0
31037123	4012	0	0	-100	0	230	101300000	1000	0	0	-1	0
31049683	4016	0	0	-100	0	230	101300000	1000	0	0	-1	0
31062243	4018	0	0	-100	0	230	101300000	1000	0	0	-1	0
31074803	4007	1	0	-100	0	230	101300000	1000	0	0	-1	0
31087363	4010	0	0	-100	0	230	101300000	1000	0	0	-1	0
31099923	4013	0	0	-100	0	230	101300000	1000	0	0	-1	0
31112483	4018	0	0	-100	0	230	101300000	1000	0	0	-1	0
31125043	4012	0	0	-100	0	230	101300000	1000	0	0	-1	0
31137603	4012	4	0	-100	0	230	101300000	1000	0	0	-1	0
31150163	4010	0	0	-100	0	230	101300000	1000	0	0	-1	0
31162723	4016	0	0	-100	0	230	101300000	1000	0	0	-1	0
31175283	4010	1	0	-100	0	230	101300000	1000	0	0	-1	0
31187843	4013	1	0	-100	0	230	101300000	1000	0	0	-1	0
31200403	4013	0	0	-100	0	230	101300000	1000	0	0	-1	0
31212963	4019	0	0	-100	0	230	101300000	1000	0	0	-1	0
31225523	4011	2	0	-100	0	230	101300000	1000	0	0	-1	0
31238083	4007	0	0	-100	0	230	101300000	1000	0	0	-1	0
31250643	4014	0	0	-100	0	230	101300000	1000	0	0	-1	0
31263203	4012	1	0	-100	0	230	101300000	1000	0	0	-1	0
31275763	4012	4	0	-100	0	230	101300000	1000	0	0	-1	0
31288323	4010	0	0	-100	0	230	101300000	1000	0	0	-1	0
31300883	4018	0	0	-100	0	230	101300000	1000	0	0	-1	0
31313443	4007	3	0	-100	0	230	101300000	1000	0	0	-1	0
31326004	4014	0	0	-100	0	230	101300000	1000	0	0	-1	0
31338563	4011	0	0	-100	0	230	101300000	1000	0	0	-1	0
31351123	4016	0	0	-100	0	230	101300000	1000	0	0	-1	0
31363683	4011	3	0	-100	0	230	101300000	1000	0	0	-1	0
31376243	4013	0	0	-100	0	230	101300000	1000	0	0	-1	0
31388803	4019	0	0	-100	0	230	101300000	1000	0	0	-1	0
31401363	4011	4	0	-100	0	230	101300000	1000	0	0	-1	0
31413923	4009	0	0	-100	0	230	101300000	1000	0	0	-1	0
31426483	4018	0	0	-100	0	230	101300000	1000	0	0	-1	0
31439043	4011	4	0	-100	0	230	101300000	1000	0	0	-1	0
31451603	4011	0	0	-100	0	230	101300000	1000	0	0	-1	0
31464163	4021	0	0	-100	0	230	101300000	1000	0	0	-1	0
31476723	4007	3	0	-100	0	230	101300000	1000	0	0	-1	0
31489283	4012	0	0	-100	0	230	101300000	1000	0	0	-1	0
31501843	4017	0	0	-100	0	230	101300000	1000	0	0	-1	0
31514403	4007	3	0	-100	0	230	101300000	1000	0	0	-1	0
31526963	4015	0	0	-100	0	230	101300000	1000	0	0	-1	0
31539523	4016	0	0	-100	0	230	101300000	1000	0	0	-1	0
31552083	4012	4	0	-100	0	230	101300000	1000	0	0	-1	0
31577203	4017	0	0	-100	0	230	101300000	1000	0	0	-1	0
31589763	4008	1	0	-100	0	230	101300000	1000	0	0	-1	0
31602323	4010	0	0	-100	0	230	101300000	1000	0	0	-1	0
31614883	4016	0	0	-100	0	230	101300000	1000	0	0	-1	0
31627443	4018	0	0	-100	0	230	101300000	1000	0	0	-1	0
31640004	4009	0	0	-100	0	230	101300000	1000	0	0	-1	0
31652563	4011	0	0	-100	0	230	101300000	1000	0	0	-1	0
31665123	4014	0	0	-100	0	230	101300000	1000	0	0	-1	0
31677683	4015	0	0	-100	0	230	101300000	1000	0	0	-1	0
31690243	4008	3	0	-100	0	230	101300000	1000	0	0	-1	0
31702803	4011	0	0	-100	0	230	101300000	1000	0	0	-1	0
31715363	4016	0	0	-100	0	230	101300000	1000	0	0	-1	0
31778163	4017	0	0	-100	0	230	101300000	1000	0	0	-1	0
31790723	4016	0	0	-100	0	230	101300000	1000	0	0	-1	0
31803283	4012	0	0	-100	0	230	101300000	1000	0	0	-1	0
31815843	4010	4	0	-100	0	230	101300000	1000	0	0	-1	0
31828403	4010	0	0	-100	0	230	101300000	1000	0	0	-1	0
31840963	4016	0	0	-100	0	230	101300000	1000	0	0	-1	0
31853523	4011	0	0	-100	0	230	101300000	1000	0	0	-1	0
31866083	4007	4	0	-100	0	230	101300000	1000	0	0	-1	0
31878643	4011	2	0	-100	0	230	101300000	1000	0	0	-1	0
31891203	4013	0	0	-100	0	230	101300000	1000	0	0	-1	0
31903763	4012	3	0	-100	0	230	101300000	1000	0	0	-1	0
31916323	4011	4	0	-100	0	230	101300000	1000	0	0	-1	0
31954004	4013	0	0	-100	0	230	101300000	1000	0	0	-1	0
31966563	4012	4	0	-100	0	230	101300000	1000	0	0	-1	0
31979123	4006	0	0	-100	0	230	101300000	1000	0	0	-1	0
31991683	4011	0	0	-100	0	230	101300000	1000	0	0	-1	0
32004243	4012	5	0	-100	0	230	101300000	1000	0	0	-1	0
32016803	4008	4	0	-100	0	230	101300000	1000	0	0	-1	0
32029363	4011	3	0	-100	0	230	101300000	1000	0	0	-1	0
32041923	4011	3	0	-100	0	230	101300000	1000	0	0	-1	0
32054483	4012	2	0	-100	0	230	101300000	1000	0	0	-1	0
32067043	4008	2	0	-100	0	230	101300000	1000	0	0	-1	0
32079603	4008	2	0	-100	0	230	101300000	1000	0	0	-1	0
32092163	4012	3	0	-100	0	230	101300000	1000	0	0	-1	0
32104723	4012	4	0	-100	0	230	101300000	1000	0	0	-1	0
32117283	4013	0	0	-100	0	230	101300000	1000	0	0	-1	0
32129843	4014	0	0	-100	0	230	101300000	1000	0	0	-1	0
32142403	4018	0	0	-100	0	230	101300000	1000	0	0	-1	0
32154963	4015	0	0	-100	0	230	101300000	1000	0	0	-1	0
32167523	4012	0	0	-100	0	230	101300000	1000	0	0	-1	0
32180083	4013	0	0	-100	0	230	101300000	1000	0	0	-1	0
32192643	4010	1	0	-100	0	230	101300000	1000	0	0	-1	0
32205203	4008	1	0	-100	0	230	101300000	1000	0	0	-1	0
32217763	4011	3	0	-100	0	230	101300000	1000	0	0	-1	0
32230323	4007	1	0	-100	0	230	101300000	1000	0	0	-1	0
32242883	4007	0	0	-100	0	230	101300000	1000	0	0	-1	0
32255443	4014	0	0	-100	0	230	101300000	1000	0	0	-1	0
32268004	4011	4	0	-100	0	230	101300000	1000	0	0	-1	0
32280563	4019	0	0	-100	0	230	101300000	1000	0	0	-1	0
32293123	4017	0	0	-100	0	230	101300000	1000	0	0	-1	0
32305683	4019	0	0	-100	0	230	101300000	1000	0	0	-1	0
32318243	4016	0	0	-100	0	230	101300000	1000	0	0	-1	0
32330803	4011	0	0	-100	0	230	101300000	1000	0	0	-1	0
32343363	4012	0	0	-100	0	230	101300000	1000	0	0	-1	0
32355923	4012	0	0	-100	0	230	101300000	1000	0	0	-1	0
32368483	4018	0	0	-100	0	230	101300000	1000	0	0	-1	0
32381043	4014	0	0	-100	0	230	101300000	1000	0	0	-1	0
32393603	4014	0	0	-100	0	230	101300000	1000	0	0	-1	0
32406163	4013	0	0	-100	0	230	101300000	1000	0	0	-1	0
32418723	4013	0	0	-100	0	230	101300000	1000	0	0	-1	0
32431283	4019	0	0	-100	0	230	101300000	1000	0	0	-1	0
32443843	4018	0	0	-100	0	230	101300000	1000	0	0	-1	0
32456403	4019	0	0	-100	0	230	101300000	1000	0	0	-1	0
32468963	4017	0	0	-100	0	230	101300000	1000	0	0	-1	0
32481523	4017	0	0	-100	0	230	101300000	1000	0	0	-1	0
32494083	4015	0	0	-100	0	230	101300000	1000	0	0	-1	0
32506643	4017	0	0	-100	0	230	101300000	1000	0	0	-1	0
32519203	4014	0	0	-100	0	230	101300000	1000	0	0	-1	0
32531763	4018	0	0	-100	0	230	101300000	1000	0	0	-1	0
32544323	4017	0	0	-100	0	230	101300000	1000	0	0	-1	0
32556883	4018	0	0	-100	0	230	101300000	1000	0	0	-1	0
32569443	4012	0	0	-100	0	230	101300000	1000	0	0	-1	0
32582004	4009	0	0	-100	0	230	101300000	1000	0	0	-1	0
32594563	4012	3	0	-100	0	230	101300000	1000	0	0	-1	0
32607123	4008	0	0	-100	0	230	101300000	1000	0	0	-1	0
32619683	4005	0	0	-100	0	230	101300000	1000	0	0	-1	0
32632243	4010	0	0	-100	0	230	101300000	1000	0	0	-1	0
32644803	4011	0	0	-100	0	230	101300000	1000	0	0	-1	0
32657363	4010	0	0	-100	0	230	101300000	1000	0	0	-1	0
32669923	4009	0	0	-100	0	230	101300000	1000	0	0	-1	0
32682483	4010	0	0	-100	0	230	101300000	1000	0	0	-1	0
32695043	4009	0	0	-100	0	230	101300000	1000	0	0	-1	0
32707603	4014	0	0	-100	0	230	101300000	1000	0	0	-1	0
32720163	4015	0	0	-100	0	230	101300000	1000	0	0	-1	0
32732723	4016	0	0	-100	0	230	101300000	1000	0	0	-1	0
32745283	4015	0	0	-100	0	230	101300000	1000	0	0	-1	0
32757843	4018	0	0	-100	0	230	101300000	1000	0	0	-1	0
32770403	4017	0	0	-100	0	230	101300000	1000	0	0	-1	0
32782963	4016	0	0	-100	0	230	101300000	1000	0	0	-1	0
32795523	4015	0	0	-100	0	230	101300000	1000	0	0	-1	0
32808083	4019	0	0	-100	0	230	101300000	1000	0	0	-1	0
32820643	4018	0	0	-100	0	230	101300000	1000	0	0	-1	0
32833203	4019	0	0	-100	0	230	101300000	1000	0	0	-1	0
32845763	4017	0	0	-100	0	230	101300000	1000	0	0	-1	0
32858323	4016	0	0	-100	0	230	101300000	1000	0	0	-1	0
32870883	4014	0	0	-100	0	230	101300000	1000	0	0	-1	0
32883443	4015	0	0	-100	0	230	101300000	1000	0	0	-1	0
32896004	4012	0	0	-100	0	230	101300000	1000	0	0	-1	0
32908563	4012	0	0	-100	0	230	101300000	1000	0	0	-1	0
32921123	4016	0	0	-100	0	230	101300000	1000	0	0	-1	0
32933683	4017	0	0	-100	0	230	101300000	1000	0	0	-1	0
32946243	4018	0	0	-100	0	230	101300000	1000	0	0	-1	0
32958803	4017	0	0	-100	0	230	101300000	1000	0	0	-1	0
32971363	4012	0	0	-100	0	230	101300000	1000	0	0	-1	0
32983923	4012	3	0	-100	0	230	101300000	1000	0	0	-1	0
32996483	4012	0	0	-100	0	230	101300000	1000	0	0	-1	0
33009043	4009	0	0	-100	0	230	101300000	1000	0	0	-1	0
33021603	4017	0	0	-100	0	230	101300000	1000	0	0	-1	0
33034163	4017	0	0	-100	0	230	101300000	1000	0	0	-1	0
33046723	4009	0	0	-100	0	230	101300000	1000	0	0	-1	0
33059283	4011	2	0	-100	0	230	101300000	1000	0	0	-1	0
33071843	4013	0	0	-100	0	230	101300000	1000	0	0	-1	0
33084403	4009	0	0	-100	0	230	101300000	1000	0	0	-1	0
33096963	4017	0	0	-100	0	230	101300000	1000	0	0	-1	0
33109523	4016	0	0	-100	0	230	101300000	1000	0	0	-1	0
33122083	4013	0	0	-100	0	230	101300000	1000	0	0	-1	0
33134643	4007	0	0	-100	0	230	101300000	1000	0	0	-1	0
33147203	4011	4	0	-100	0	230	101300000	1000	0	0	-1	0
33159763	4015	0	0	-100	0	230	101300000	1000	0	0	-1	0
33172323	4010	1	0	-100	0	230	101300000	1000	0	0	-1	0
33184883	4010	0	0	-100	0	230	101300000	1000	0	0	-1	0
33197443	4018	0	0	-100	0	230	101300000	1000	0	0	-1	0
33210004	4012	0	0	-100	0	230	101300000	1000	0	0	-1	0
33222563	4011	0	0	-100	0	230	101300000	1000	0	0	-1	0
33235123	4017	0	0	-100	0	230	101300000	1000	0	0	-1	0
33247683	4012	2	0	-100	0	230	101300000	1000	0	0	-1	0
33260243	4012	0	0	-100	0	230	101300000	1000	0	0	-1	0
33272803	4016	0	0	-100	0	230	101300000	1000	0	0	-1	0
33285363	4009	2	0	-100	0	230	101300000	1000	0	0	-1	0
33297923	4011	3	0	-100	0	230	101300000	1000	0	0	-1	0
33310483	4013	0	0	-100	0	230	101300000	1000	0	0	-1	0
33323043	4015	0	0	-100	0	230	101300000	1000	0	0	-1	0
33335603	4021	0	0	-100	0	230	101300000	1000	0	0	-1	0
33348163	4011	0	0	-100	0	230	101300000	1000	0	0	-1	0
33360723	4012	4	0	-100	0	230	101300000	1000	0	0	-1	0
33373283	4006	0	0	-100	0	230	101300000	1000	0	0	-1	0
33385843	4016	0	0	-100	0	230	101300000	1000	0	0	-1	0
33398403	4016	0	0	-100	0	230	101300000	1000	0	0	-1	0
33410963	4017	0	0	-100	0	230	101300000	1000	0	0	-1	0
33423523	4013	0	0	-100	0	230	101300000	1000	0	0	-1	0
33436083	4008	1	0	-100	0	230	101300000	1000	0	0	-1	0
33448643	4009	0	0	-100	0	230	101300000	1000	0	0	-1	0
33461203	4009	0	0	-100	0	230	101300000	1000	0	0	-1	0
33473763	4009	0	0	-100	0	230	101300000	1000	0	0	-1	0
33486323	4008	2	0	-100	0	230	101300000	1000	0	0	-1	0
33498883	4010	4	0	-100	0	230	101300000	1000	0	0	-1	0
33511443	4011	0	0	-100	0	230	101300000	1000	0	0	-1	0
33524004	4012	0	0	-100	0	230	101300000	1000	0	0	-1	0
33536563	4016	0	0	-100	0	230	101300000	1000	0	0	-1	0
33549123	4018	0	0	-100	0	230	101300000	1000	0	0	-1	0
33561683	4011	2	0	-100	0	230	101300000	1000	0	0	-1	0
33574243	4009	3	0	-100	0	230	101300000	1000	0	0	-1	0
33586803	4010	0	0	-100	0	230	101300000	1000	0	0	-1	0
33599363	4015	0	0	-100	0	230	101300000	1000	0	0	-1	0
33611923	4017	0	0	-100	0	230	101300000	1000	0	0	-1	0
33624483	4013	0	0	-100	0	230	101300000	1000	0	0	-1	0
33637043	4011	4	0	-100	0	230	101300000	1000	0	0	-1	0
33649603	4011	0	0	-100	0	230	101300000	1000	0	0	-1	0
33662163	4015	0	0	-100	0	230	101300000	1000	0	0	-1	0
33674723	4015	0	0	-100	0	230	101300000	1000	0	0	-1	0
33687283	4021	0	0	-100	0	230	101300000	1000	0	0	-1	0
33699843	4012	2	0	-100	0	230	101300000	1000	0	0	-1	0
33712403	4012	2	0	-100	0	230	101300000	1000	0	0	-1	0
33724963	4012	1	0	-100	0	230	101300000	1000	0	0	-1	0
33737523	4011	0	0	-100	0	230	101300000	1000	0	0	-1	0
33750083	4012	0	0	-100	0	230	101300000	1000	0	0	-1	0
33762643	4012	0	0	-100	0	230	101300000	1000	0	0	-1	0
33775203	4016	0	0	-100	0	230	101300000	1000	0	0	-1	0
33787763	4018	0	0	-100	0	230	101300000	1000	0	0	-1	0
33800323	4017	0	0	-100	0	230	101300000	1000	0	0	-1	0
33812883	4015	0	0	-100	0	230	101300000	1000	0	0	-1	0
33825443	4017	0	0	-100	0	230	101300000	1000	0	0	-1	0
33838004	4007	2	0	-100	0	230	101300000	1000	0	0	-1	0
33850563	4022	0	0	-100	0	230	101300000	1000	0	0	-1	0
33863123	4014	0	0	-100	0	230	101300000	1000	0	0	-1	0
33875683	4011	1	0	-100	0	230	101300000	1000	0	0	-1	0
33888243	4011	1	0	-100	0	230	101300000	1000	0	0	-1	0
33900803	4009	2	0	-100	0	230	101300000	1000	0	0	-1	0
33913363	4013	3	0	-100	0	230	101300000	1000	0	0	-1	0
33925923	4007	4	0	-100	0	230	101300000	1000	0	0	-1	0
33938483	4009	0	0	-100	0	230	101300000	1000	0	0	-1	0
33951043	4009	0	0	-100	0	230	101300000	1000	0	0	-1	0
33963603	4015	0	0	-100	0	230	101300000	1000	0	0	-1	0
33976163	4019	0	0	-100	0	230	101300000	1000	0	0	-1	0
33988723	4019	0	0	-100	0	230	101300000	1000	0	0	-1	0
34001283	4013	0	0	-100	0	230	101300000	1000	0	0	-1	0
34013843	4013	0	0	-100	0	230	101300000	1000	0	0	-1	0
34026403	4007	2	0	-100	0	230	101300000	1000	0	0	-1	0
34038963	4007	5	0	-100	0	230	101300000	1000	0	0	-1	0
34051523	4007	4	0	-100	0	230	101300000	1000	0	0	-1	0
34064083	4010	0	0	-100	0	230	101300000	1000	0	0	-1	0
34076643	4011	0	0	-100	0	230	101300000	1000	0	0	-1	0
34089203	4016	0	0	-100	0	230	101300000	1000	0	0	-1	0
34101763	4017	0	0	-100	0	230	101300000	1000	0	0	-1	0
34114323	4017	0	0	-100	0	230	101300000	1000	0	0	-1	0
34126883	4014	0	0	-100	0	230	101300000	1000	0	0	-1	0
34139443	4007	2	0	-100	0	230	101300000	1000	0	0	-1	0
34152004	4015	0	0	-100	0	230	101300000	1000	0	0	-1	0
34164563	4013	0	0	-100	0	230	101300000	1000	0	0	-1	0
34177123	4009	0	0	-100	0	230	101300000	1000	0	0	-1	0
34189683	4012	0	0	-100	0	230	101300000	1000	0	0	-1	0
34202243	4015	0	0	-100	0	230	101300000	1000	0	0	-1	0
34214803	4016	0	0	-100	0	230	101300000	1000	0	0	-1	0
34227363	4009	0	0	-100	0	230	101300000	1000	0	0	-1	0
34239923	4012	3	0	-100	0	230	101300000	1000	0	0	-1	0
34252483	4009	0	0	-100	0	230	101300000	1000	0	0	-1	0
34265043	4011	0	0	-100	0	230	101300000	1000	0	0	-1	0
34277603	4016	0	0	-100	0	230	101300000	1000	0	0	-1	0
34290163	4018	0	0	-100	0	230	101300000	1000	0	0	-1	0
34302723	4016	0	0	-100	0	230	101300000	1000	0	0	-1	0
34315283	4013	0	0	-100	0	230	101300000	1000	0	0	-1	0
34327843	4010	1	0	-100	0	230	101300000	1000	0	0	-1	0
34340403	4011	2	0	-100	0	230	101300000	1000	0	0	-1	0
34352963	4008	3	0	-100	0	230	101300000	1000	0	0	-1	0
34365523	4013	4	0	-100	0	230	101300000	1000	0	0	-1	0
34378083	4010	3	0	-100	0	230	101300000	1000	0	0	-1	0
34390643	4010	0	0	-100	0	230	101300000	1000	0	0	-1	0
34403203	4010	0	0	-100	0	230	101300000	1000	0	0	-1	0
34415763	4016	0	0	-100	0	230	101300000	1000	0	0	-1	0
34428323	4016	0	0	-100	0	230	101300000	1000	0	0	-1	0
34440883	4012	0	0	-100	0	230	101300000	1000	0	0	-1	0
34453443	4012	3	0	-100	0	230	101300000	1000	0	0	-1	0
34466004	4019	0	0	-100	0	230	101300000	1000	0	0	-1	0
34478563	4016	0	0	-100	0	230	101300000	1000	0	0	-1	0
34491123	4017	0	0	-100	0	230	101300000	1000	0	0	-1	0
34503683	4012	0	0	-100	0	230	101300000	1000	0	0	-1	0
34516243	4012	3	0	-100	0	230	101300000	1000	0	0	-1	0
34528803	4009	0	0	-100	0	230	101300000	1000	0	0	-1	0
34541363	4012	0	0	-100	0	230	101300000	1000	0	0	-1	0
34553923	4015	0	0	-100	0	230	101300000	1000	0	0	-1	0
34566483	4010	0	0	-100	0	230	101300000	1000	0	0	-1	0
34579043	4011	4	0	-100	0	230	101300000	1000	0	0	-1	0
34591603	4011	0	0	-100	0	230	101300000	1000	0	0	-1	0
34604163	4014	0	0	-100	0	230	101300000	1000	0	0	-1	0
34616723	4016	0	0	-100	0	230	101300000	1000	0	0	-1	0
34629283	4017	0	0	-100	0	230	101300000	1000	0	0	-1	0
34679523	4008	3	0	-100	0	230	101300000	1000	0	0	-1	0
34692083	4011	4	0	-100	0	230	101300000	1000	0	0	-1	0
34704643	4011	0	0	-100	0	230	101300000	1000	0	0	-1	0
34717203	4011	0	0	-100	0	230	101300000	1000	0	0	-1	0
34729763	4017	0	0	-100	0	230	101300000	1000	0	0	-1	0
34742323	4015	0	0	-100	0	230	101300000	1000	0	0	-1	0
34754883	4016	0	0	-100	0	230	101300000	1000	0	0	-1	0
34767443	4017	0	0	-100	0	230	101300000	1000	0	0	-1	0
34780004	4007	0	0	-100	0	230	101300000	1000	0	0	-1	0
34792563	4007	3	0	-100	0	230	101300000	1000	0	0	-1	0
34805123	4009	2	0	-100	0	230	101300000	1000	0	0	-1	0
34867923	4010	4	0	-100	0	230	101300000	1000	0	0	-1	0
34880483	4013	0	0	-100	0	230	101300000	1000	0	0	-1	0
34893043	4016	0	0	-100	0	230	101300000	1000	0	0	-1	0
34905603	4017	0	0	-100	0	230	101300000	1000	0	0	-1	0
34918163	4017	0	0	-100	0	230	101300000	1000	0	0	-1	0
34930723	4008	0	0	-100	0	230	101300000	1000	0	0	-1	0
34943283	4011	4	0	-100	0	230	101300000	1000	0	0	-1	0
34955843	4009	0	0	-100	0	230	101300000	1000	0	0	-1	0
34968403	4014	0	0	-100	0	230	101300000	1000	0	0	-1	0
34980963	4018	0	0	-100	0	230	101300000	1000	0	0	-1	0
34993523	4012	0	0	-100	0	230	101300000	1000	0	0	-1	0
35006083	4008	4	0	-100	0	230	101300000	1000	0	0	-1	0
35018643	4007	0	0	-100	0	230	101300000	1000	0	0	-1	0
35031203	4011	0	0	-100	0	230	101300000	1000	0	0	-1	0
35043763	4016	0	0	-100	0	230	101300000	1000	0	0	-1	0
35056323	4015	0	0	-100	0	230	101300000	1000	0	0	-1	0
35068883	4022	0	0	-100	0	230	101300000	1000	0	0	-1	0
35081443	4012	0	0	-100	0	230	101300000	1000	0	0	-1	0
35094004	4013	0	0	-100	0	230	101300000	1000	0	0	-1	0
35106563	4011	0	0	-100	0	230	101300000	1000	0	0	-1	0
35119123	4017	0	0	-100	0	230	101300000	1000	0	0	-1	0
35131683	4012	2	0	-100	0	230	101300000	1000	0	0	-1	0
35144243	4007	0	0	-100	0	230	101300000	1000	0	0	-1	0
35156803	4019	0	0	-100	0	230	101300000	1000	0	0	-1	0
35169363	4011	3	0	-100	0	230	101300000	1000	0	0	-1	0
35181923	4011	0	0	-100	0	230	101300000	1000	0	0	-1	0
35194483	4017	0	0	-100	0	230	101300000	1000	0	0	-1	0
35207043	4010	0	0	-100	0	230	101300000	1000	0	0	-1	0
35219603	4014	0	0	-100	0	230	101300000	1000	0	0	-1	0
35232163	4012	0	0	-100	0	230	101300000	1000	0	0	-1	0
35244723	4009	0	0	-100	0	230	101300000	1000	0	0	-1	0
35257283	4018	0	0	-100	0	230	101300000	1000	0	0	-1	0
35269843	4012	1	0	-100	0	230	101300000	1000	0	0	-1	0
35282403	4018	0	0	-100	0	230	101300000	1000	0	0	-1	0
35294963	4011	2	0	-100	0	230	101300000	1000	0	0	-1	0
35307523	4010	0	0	-100	0	230	101300000	1000	0	0	-1	0
35320083	4015	0	0	-100	0	230	101300000	1000	0	0	-1	0
35332643	4011	2	0	-100	0	230	101300000	1000	0	0	-1	0
35345203	4009	0	0	-100	0	230	101300000	1000	0	0	-1	0
35357763	4017	0	0	-100	0	230	101300000	1000	0	0	-1	0
35370323	4009	0	0	-100	0	230	101300000	1000	0	0	-1	0
35382883	4012	3	0	-100	0	230	101300000	1000	0	0	-1	0
35395443	4013	0	0	-100	0	230	101300000	1000	0	0	-1	0
35408004	4008	2	0	-100	0	230	101300000	1000	0	0	-1	0
35420563	4009	2	0	-100	0	230	101300000	1000	0	0	-1	0
35433123	4007	0	0	-100	0	230	101300000	1000	0	0	-1	0
35445683	4015	0	0	-100	0	230	101300000	1000	0	0	-1	0
35458243	4012	0	0	-100	0	230	101300000	1000	0	0	-1	0
35470803	4014	4	0	-100	0	230	101300000	1000	0	0	-1	0
35483363	4013	0	0	-100	0	230	101300000	1000	0	0	-1	0
35495923	4018	0	0	-100	0	230	101300000	1000	0	0	-1	0
35508483	4012	4	0	-100	0	230	101300000	1000	0	0	-1	0
35521043	4015	0	0	-100	0	230	101300000	1000	0	0	-1	0
35533603	4017	0	0	-100	0	230	101300000	1000	0	0	-1	0
35546163	4011	1	0	-100	0	230	101300000	1000	0	0	-1	0
35558723	4012	4	0	-100	0	230	101300000	1000	0	0	-1	0
35571283	4009	0	0	-100	0	230	101300000	1000	0	0	-1	0
35583843	4017	0	0	-100	0	230	101300000	1000	0	0	-1	0
35596403	4008	1	0	-100	0	230	101300000	1000	0	0	-1	0
35608963	4013	0	0	-100	0	230	101300000	1000	0	0	-1	0
35621523	4016	0	0	-100	0	230	101300000	1000	0	0	-1	0
35634083	4018	0	0	-100	0	230	101300000	1000	0	0	-1	0
35646643	4010	4	0	-100	0	230	101300000	1000	0	0	-1	0
35659203	4012	3	0	-100	0	230	101300000	1000	0	0	-1	0
35671763	4010	0	0	-100	0	230	101300000	1000	0	0	-1	0
35684323	4017	0	0	-100	0	230	101300000	1000	0	0	-1	0
35696883	4019	0	0	-100	0	230	101300000	1000	0	0	-1	0
35709443	4010	4	0	-100	0	230	101300000	1000	0	0	-1	0
35722004	4015	0	0	-100	0	230	101300000	1000	0	0	-1	0
35734563	4012	0	0	-100	0	230	101300000	1000	0	0	-1	0
35747123	4017	0	0	-100	0	230	101300000	1000	0	0	-1	0
35759683	4011	0	0	-100	0	230	101300000	1000	0	0	-1	0
35772243	4011	4	0	-100	0	230	101300000	1000	0	0	-1	0
35784803	4011	0	0	-100	0	230	101300000	1000	0	0	-1	0
35797363	4015	0	0	-100	0	230	101300000	1000	0	0	-1	0
35809923	4016	0	0	-100	0	230	101300000	1000	0	0	-1	0
35822483	4014	0	0	-100	0	230	101300000	1000	0	0	-1	0
35835043	4011	3	0	-100	0	230	101300000	1000	0	0	-1	0
35847603	4012	4	0	-100	0	230	101300000	1000	0	0	-1	0
35860163	4011	0	0	-100	0	230	101300000	1000	0	0	-1	0
35872723	4017	0	0	-100	0	230	101300000	1000	0	0	-1	0
35885283	4018	0	0	-100	0	230	101300000	1000	0	0	-1	0
35897843	4014	0	0	-100	0	230	101300000	1000	0	0	-1	0
35910403	4010	2	0	-100	0	230	101300000	1000	0	0	-1	0
35922963	4016	0	0	-100	0	230	101300000	1000	0	0	-1	0
35935523	4013	0	0	-100	0	230	101300000	1000	0	0	-1	0
35948083	4015	0	0	-100	0	230	101300000	1000	0	0	-1	0
35960643	4015	0	0	-100	0	230	101300000	1000	0	0	-1	0
35973203	4012	1	0	-100	0	230	101300000	1000	0	0	-1	0
35985763	4012	4	0	-100	0	230	101300000	1000	0	0	-1	0
35998323	4012	0	0	-100	0	230	101300000	1000	0	0	-1	0
36010883	4016	0	0	-100	0	230	101300000	1000	0	0	-1	0
36023443	4019	0	0	-100	0	230	101300000	1000	0	0	-1	0
36036004	4012	0	0	-100	0	230	101300000	1000	0	0	-1	0
36048563	4009	0	0	-100	0	230	101300000	1000	0	0	-1	0
36061123	4015	0	0	-100	0	230	101300000	1000	0	0	-1	0
36073683	4016	0	0	-100	0	230	101300000	1000	0	0	-1	0
36086243	4008	2	0	-100	0	230	101300000	1000	0	0	-1	0
36098803	4012	0	0	-100	0	230	101300000	1000	0	0	-1	0
36111363	4017	0	0	-100	0	230	101300000	1000	0	0	-1	0
36123923	4009	2	0	-100	0	230	101300000	1000	0	0	-1	0
36136483	4011	0	0	-100	0	230	101300000	1000	0	0	-1	0
36149043	4018	0	0	-100	0	230	101300000	1000	0	0	-1	0
36161603	4012	0	0	-100	0	230	101300000	1000	0	0	-1	0
36174163	4011	0	0	-100	0	230	101300000	1000	0	0	-1	0
36186723	4016	0	0	-100	0	230	101300000	1000	0	0	-1	0
36199283	4012	0	0	-100	0	230	101300000	1000	0	0	-1	0
36211843	4011	2	0	-100	0	230	101300000	1000	0	0	-1	0
36224403	4010	0	0	-100	0	230	101300000	1000	0	0	-1	0
36236963	4010	0	0	-100	0	230	101300000	1000	0	0	-1	0
36249523	4015	0	0	-100	0	230	101300000	1000	0	0	-1	0
36262083	4017	0	0	-100	0	230	101300000	1000	0	0	-1	0
36274643	4016	0	0	-100	0	230	101300000	1000	0	0	-1	0
