timestamp	voltage	current	windSpeed	pitchAngle	rpm	temperature	ambientPressure	humidity	accelerationX	accelerationY	accelerationZ	currentSink
7034070	5014	0	0	-100	0	230	101300000	1000	0	0	-1	0
7041523	5011	1	0	-100	0	230	101300000	1000	0	0	-1	0
7054083	5008	2	0	-100	0	230	101300000	1000	0	0	-1	0
7066643	5006	4	0	-100	0	230	101300000	1000	0	0	-1	0
7079203	5009	4	0	-100	0	230	101300000	1000	0	0	-1	0
7091763	5006	4	0	-100	0	230	101300000	1000	0	0	-1	0
7104323	5005	3	0	-100	0	230	101300000	1000	0	0	-1	0
7116883	5009	2	0	-100	0	230	101300000	1000	0	0	-1	0
7129443	5005	3	0	-100	0	230	101300000	1000	0	0	-1	0
7142004	5011	0	0	-100	0	230	101300000	1000	0	0	-1	0
7154563	5006	3	0	-100	0	230	101300000	1000	0	0	-1	0
7167123	5010	1	0	-100	0	230	101300000	1000	0	0	-1	0
7179683	5011	0	0	-100	0	230	101300000	1000	0	0	-1	0
7192243	5013	0	0	-100	0	230	101300000	1000	0	0	-1	0
7204803	5016	0	0	-100	0	230	101300000	1000	0	0	-1	0
7217363	5012	0	0	-100	0	230	101300000	1000	0	0	-1	0
7229923	5012	0	0	-100	0	230	101300000	1000	0	0	-1	0
7242483	5009	0	0	-100	0	230	101300000	1000	0	0	-1	0
7255043	5005	0	0	-100	0	230	101300000	1000	0	0	-1	0
7267603	5006	0	0	-100	0	230	101300000	1000	0	0	-1	0
7280163	5014	0	0	-100	0	230	101300000	1000	0	0	-1	0
7292723	5006	0	0	-100	0	230	101300000	1000	0	0	-1	0
7305283	5006	1	0	-100	0	230	101300000	1000	0	0	-1	0
7317843	5008	4	0	-100	0	230	101300000	1000	0	0	-1	0
7330403	5011	0	0	-100	0	230	101300000	1000	0	0	-1	0
7342963	5014	0	0	-100	0	230	101300000	1000	0	0	-1	0
7355523	5006	0	0	-100	0	230	101300000	1000	0	0	-1	0
7368083	5010	4	0	-100	0	230	101300000	1000	0	0	-1	0
7380643	5006	2	0	-100	0	230	101300000	1000	0	0	-1	0
7393203	5010	0	0	-100	0	230	101300000	1000	0	0	-1	0
7405763	5016	0	0	-100	0	230	101300000	1000	0	0	-1	0
7418323	5014	0	0	-100	0	230	101300000	1000	0	0	-1	0
7430883	5012	0	0	-100	0	230	101300000	1000	0	0	-1	0
7443443	5014	0	0	-100	0	230	101300000	1000	0	0	-1	0
7456004	5014	0	0	-100	0	230	101300000	1000	0	0	-1	0
7468563	5008	3	0	-100	0	230	101300000	1000	0	0	-1	0
7481123	5014	0	0	-100	0	230	101300000	1000	0	0	-1	0
7493683	5014	0	0	-100	0	230	101300000	1000	0	0	-1	0
7506243	5009	0	0	-100	0	230	101300000	1000	0	0	-1	0
7518803	5006	4	0	-100	0	230	101300000	1000	0	0	-1	0
7531363	5017	0	0	-100	0	230	101300000	1000	0	0	-1	0
7543923	5016	0	0	-100	0	230	101300000	1000	0	0	-1	0
7556483	5009	0	0	-100	0	230	101300000	1000	0	0	-1	0
7569043	5005	0	0	-100	0	230	101300000	1000	0	0	-1	0
7581603	5010	4	0	-100	0	230	101300000	1000	0	0	-1	0
7594163	5016	2	0	-100	0	230	101300000	1000	0	0	-1	0
7606723	5008	1	0	-100	0	230	101300000	1000	0	0	-1	0
7619283	5008	0	0	-100	0	230	101300000	1000	0	0	-1	0
7631843	5015	0	0	-100	0	230	101300000	1000	0	0	-1	0
7644403	5015	0	0	-100	0	230	101300000	1000	0	0	-1	0
7656963	5011	0	0	-100	0	230	101300000	1000	0	0	-1	0
7707203	5011	0	0	-100	0	230	101300000	1000	0	0	-1	0
7719763	5012	0	0	-100	0	230	101300000	1000	0	0	-1	0
7732323	5011	0	0	-100	0	230	101300000	1000	0	0	-1	0
7744883	5008	4	0	-100	0	230	101300000	1000	0	0	-1	0
7757443	5007	4	0	-100	0	230	101300000	1000	0	0	-1	0
7770004	5019	0	0	-100	0	230	101300000	1000	0	0	-1	0
7782563	5009	0	0	-100	0	230	101300000	1000	0	0	-1	0
7795123	5006	0	0	-100	0	230	101300000	1000	0	0	-1	0
7807683	5014	0	0	-100	0	230	101300000	1000	0	0	-1	0
7820243	5012	0	0	-100	0	230	101300000	1000	0	0	-1	0
7832803	5012	0	0	-100	0	230	101300000	1000	0	0	-1	0
7908163	5022	0	0	-100	0	230	101300000	1000	0	0	-1	0
7920723	5011	0	0	-100	0	230	101300000	1000	0	0	-1	0
7933283	5004	1	0	-100	0	230	101300000	1000	0	0	-1	0
7945843	5009	4	0	-100	0	230	101300000	1000	0	0	-1	0
7958403	5007	0	0	-100	0	230	101300000	1000	0	0	-1	0
7970963	5009	0	0	-100	0	230	101300000	1000	0	0	-1	0
7983523	5012	0	0	-100	0	230	101300000	1000	0	0	-1	0
7996083	5017	0	0	-100	0	230	101300000	1000	0	0	-1	0
8008643	5016	0	0	-100	0	230	101300000	1000	0	0	-1	0
8021203	5014	0	0	-100	0	230	101300000	1000	0	0	-1	0
8033763	5009	0	0	-100	0	230	101300000	1000	0	0	-1	0
8071443	5005	0	0	-100	0	230	101300000	1000	0	0	-1	0
8084004	5013	0	0	-100	0	230	101300000	1000	0	0	-1	0
8096563	5012	0	0	-100	0	230	101300000	1000	0	0	-1	0
8109123	5014	0	0	-100	0	230	101300000	1000	0	0	-1	0
8121683	5010	0	0	-100	0	230	101300000	1000	0	0	-1	0
8134243	5013	0	0	-100	0	230	101300000	1000	0	0	-1	0
8146803	5014	0	0	-100	0	230	101300000	1000	0	0	-1	0
8159363	5012	0	0	-100	0	230	101300000	1000	0	0	-1	0
8171923	5012	0	0	-100	0	230	101300000	1000	0	0	-1	0
8184483	5012	0	0	-100	0	230	101300000	1000	0	0	-1	0
8197043	5012	0	0	-100	0	230	101300000	1000	0	0	-1	0
8209603	5010	0	0	-100	0	230	101300000	1000	0	0	-1	0
8222163	5019	0	0	-100	0	230	101300000	1000	0	0	-1	0
8234723	5006	0	0	-100	0	230	101300000	1000	0	0	-1	0
8247283	5010	2	0	-100	0	230	101300000	1000	0	0	-1	0
8259843	5010	4	0	-100	0	230	101300000	1000	0	0	-1	0
8272403	5009	4	0	-100	0	230	101300000	1000	0	0	-1	0
8284963	5006	4	0	-100	0	230	101300000	1000	0	0	-1	0
8297523	5006	4	0	-100	0	230	101300000	1000	0	0	-1	0
8310083	5010	4	0	-100	0	230	101300000	1000	0	0	-1	0
8322643	5010	4	0	-100	0	230	101300000	1000	0	0	-1	0
8335203	5011	3	0	-100	0	230	101300000	1000	0	0	-1	0
8347763	5006	1	0	-100	0	230	101300000	1000	0	0	-1	0
8360323	5005	0	0	-100	0	230	101300000	1000	0	0	-1	0
8372883	5009	0	0	-100	0	230	101300000	1000	0	0	-1	0
8385443	5009	0	0	-100	0	230	101300000	1000	0	0	-1	0
8398004	5021	0	0	-100	0	230	101300000	1000	0	0	-1	0
8410563	5006	0	0	-100	0	230	101300000	1000	0	0	-1	0
8423123	5005	0	0	-100	0	230	101300000	1000	0	0	-1	0
8435683	5011	4	0	-100	0	230	101300000	1000	0	0	-1	0
8448243	5010	2	0	-100	0	230	101300000	1000	0	0	-1	0
8460803	5006	0	0	-100	0	230	101300000	1000	0	0	-1	0
8473363	5007	0	0	-100	0	230	101300000	1000	0	0	-1	0
8485923	5002	0	0	-100	0	230	101300000	1000	0	0	-1	0
8498483	5010	0	0	-100	0	230	101300000	1000	0	0	-1	0
8511043	5006	0	0	-100	0	230	101300000	1000	0	0	-1	0
8523603	5010	0	0	-100	0	230	101300000	1000	0	0	-1	0
8536163	5021	0	0	-100	0	230	101300000	1000	0	0	-1	0
8548723	5014	0	0	-100	0	230	101300000	1000	0	0	-1	0
8561283	5012	0	0	-100	0	230	101300000	1000	0	0	-1	0
8573843	5010	0	0	-100	0	230	101300000	1000	0	0	-1	0
8586403	5010	0	0	-100	0	230	101300000	1000	0	0	-1	0
8598963	5009	0	0	-100	0	230	101300000	1000	0	0	-1	0
8611523	5009	0	0	-100	0	230	101300000	1000	0	0	-1	0
8624083	5009	0	0	-100	0	230	101300000	1000	0	0	-1	0
8636643	5009	0	0	-100	0	230	101300000	1000	0	0	-1	0
8649203	5010	0	0	-100	0	230	101300000	1000	0	0	-1	0
8661763	5006	0	0	-100	0	230	101300000	1000	0	0	-1	0
8674323	5012	0	0	-100	0	230	101300000	1000	0	0	-1	0
8686883	5010	0	0	-100	0	230	101300000	1000	0	0	-1	0
8699443	5014	0	0	-100	0	230	101300000	1000	0	0	-1	0
8712004	5018	0	0	-100	0	230	101300000	1000	0	0	-1	0
8724563	5010	0	0	-100	0	230	101300000	1000	0	0	-1	0
8737123	5012	0	0	-100	0	230	101300000	1000	0	0	-1	0
8749683	5009	0	0	-100	0	230	101300000	1000	0	0	-1	0
8762243	5009	0	0	-100	0	230	101300000	1000	0	0	-1	0
8774803	5009	1	0	-100	0	230	101300000	1000	0	0	-1	0
8787363	5009	4	0	-100	0	230	101300000	1000	0	0	-1	0
8799923	5012	0	0	-100	0	230	101300000	1000	0	0	-1	0
8812483	5012	0	0	-100	0	230	101300000	1000	0	0	-1	0
8825043	5011	0	0	-100	0	230	101300000	1000	0	0	-1	0
8837603	5009	0	0	-100	0	230	101300000	1000	0	0	-1	0
8850163	5012	0	0	-100	0	230	101300000	1000	0	0	-1	0
8862723	5006	4	0	-100	0	230	101300000	1000	0	0	-1	0
8875283	5012	0	0	-100	0	230	101300000	1000	0	0	-1	0
8887843	5012	0	0	-100	0	230	101300000	1000	0	0	-1	0
8900403	5006	2	0	-100	0	230	101300000	1000	0	0	-1	0
8912963	5006	4	0	-100	0	230	101300000	1000	0	0	-1	0
8925523	5008	0	0	-100	0	230	101300000	1000	0	0	-1	0
8938083	5014	0	0	-100	0	230	101300000	1000	0	0	-1	0
8950643	5011	0	0	-100	0	230	101300000	1000	0	0	-1	0
8963203	5008	0	0	-100	0	230	101300000	1000	0	0	-1	0
8975763	5008	4	0	-100	0	230	101300000	1000	0	0	-1	0
8988323	5010	0	0	-100	0	230	101300000	1000	0	0	-1	0
9000883	5011	0	0	-100	0	230	101300000	1000	0	0	-1	0
9013443	5009	4	0	-100	0	230	101300000	1000	0	0	-1	0
9026004	5015	0	0	-100	0	230	101300000	1000	0	0	-1	0
9038563	5012	0	0	-100	0	230	101300000	1000	0	0	-1	0
9051123	5008	0	0	-100	0	230	101300000	1000	0	0	-1	0
9063683	5006	0	0	-100	0	230	101300000	1000	0	0	-1	0
9076243	5010	3	0	-100	0	230	101300000	1000	0	0	-1	0
9088803	5005	3	0	-100	0	230	101300000	1000	0	0	-1	0
9101363	5008	0	0	-100	0	230	101300000	1000	0	0	-1	0
9113923	5009	0	0	-100	0	230	101300000	1000	0	0	-1	0
9126483	5017	0	0	-100	0	230	101300000	1000	0	0	-1	0
9139043	5011	0	0	-100	0	230	101300000	1000	0	0	-1	0
9151603	5015	0	0	-100	0	230	101300000	1000	0	0	-1	0
9164163	5020	0	0	-100	0	230	101300000	1000	0	0	-1	0
9176723	5011	0	0	-100	0	230	101300000	1000	0	0	-1	0
9189283	5007	1	0	-100	0	230	101300000	1000	0	0	-1	0
9201843	5008	3	0	-100	0	230	101300000	1000	0	0	-1	0
9214403	5015	0	0	-100	0	230	101300000	1000	0	0	-1	0
9226963	5009	0	0	-100	0	230	101300000	1000	0	0	-1	0
9239523	5008	0	0	-100	0	230	101300000	1000	0	0	-1	0
9252083	5006	0	0	-100	0	230	101300000	1000	0	0	-1	0
9264643	5006	2	0	-100	0	230	101300000	1000	0	0	-1	0
9277203	5015	0	0	-100	0	230	101300000	1000	0	0	-1	0
9289763	5011	0	0	-100	0	230	101300000	1000	0	0	-1	0
9302323	5010	0	0	-100	0	230	101300000	1000	0	0	-1	0
9314883	5008	0	0	-100	0	230	101300000	1000	0	0	-1	0
9327443	5005	0	0	-100	0	230	101300000	1000	0	0	-1	0
9340004	5018	0	0	-100	0	230	101300000	1000	0	0	-1	0
9352563	5006	0	0	-100	0	230	101300000	1000	0	0	-1	0
9365123	5008	0	0	-100	0	230	101300000	1000	0	0	-1	0
9377683	5007	5	0	-100	0	230	101300000	1000	0	0	-1	0
9390243	5011	4	0	-100	0	230	101300000	1000	0	0	-1	0
9402803	5005	4	0	-100	0	230	101300000	1000	0	0	-1	0
9415363	5008	2	0	-100	0	230	101300000	1000	0	0	-1	0
9427923	5006	1	0	-100	0	230	101300000	1000	0	0	-1	0
9440483	5005	0	0	-100	0	230	101300000	1000	0	0	-1	0
9453043	5006	2	0	-100	0	230	101300000	1000	0	0	-1	0
9465603	5009	4	0	-100	0	230	101300000	1000	0	0	-1	0
9478163	5014	4	0	-100	0	230	101300000	1000	0	0	-1	0
9490723	5005	0	0	-100	0	230	101300000	1000	0	0	-1	0
9503283	5007	0	0	-100	0	230	101300000	1000	0	0	-1	0
9515843	5010	0	0	-100	0	230	101300000	1000	0	0	-1	0
9528403	5010	0	0	-100	0	230	101300000	1000	0	0	-1	0
9540963	5012	0	0	-100	0	230	101300000	1000	0	0	-1	0
9553523	5014	0	0	-100	0	230	101300000	1000	0	0	-1	0
9566083	5015	0	0	-100	0	230	101300000	1000	0	0	-1	0
9578643	5010	0	0	-100	0	230	101300000	1000	0	0	-1	0
9591203	5006	2	0	-100	0	230	101300000	1000	0	0	-1	0
9603763	5010	2	0	-100	0	230	101300000	1000	0	0	-1	0
9616323	5006	2	0	-100	0	230	101300000	1000	0	0	-1	0
9628883	5007	4	0	-100	0	230	101300000	1000	0	0	-1	0
9641443	5006	4	0	-100	0	230	101300000	1000	0	0	-1	0
9654004	5015	0	0	-100	0	230	101300000	1000	0	0	-1	0
9666563	5008	4	0	-100	0	230	101300000	1000	0	0	-1	0
9679123	5005	4	0	-100	0	230	101300000	1000	0	0	-1	0
9691683	5010	4	0	-100	0	230	101300000	1000	0	0	-1	0
9704243	5004	0	0	-100	0	230	101300000	1000	0	0	-1	0
9716803	5006	0	0	-100	0	230	101300000	1000	0	0	-1	0
9729363	5007	0	0	-100	0	230	101300000	1000	0	0	-1	0
9741923	5006	0	0	-100	0	230	101300000	1000	0	0	-1	0
9754483	5010	0	0	-100	0	230	101300000	1000	0	0	-1	0
9767043	5009	0	0	-100	0	230	101300000	1000	0	0	-1	0
9779603	5008	0	0	-100	0	230	101300000	1000	0	0	-1	0
9792163	5018	0	0	-100	0	230	101300000	1000	0	0	-1	0
9804723	5014	0	0	-100	0	230	101300000	1000	0	0	-1	0
9817283	5011	0	0	-100	0	230	101300000	1000	0	0	-1	0
9829843	5010	0	0	-100	0	230	101300000	1000	0	0	-1	0
9842403	5005	0	0	-100	0	230	101300000	1000	0	0	-1	0
9854963	5006	3	0	-100	0	230	101300000	1000	0	0	-1	0
9867523	5009	0	0	-100	0	230	101300000	1000	0	0	-1	0
9880083	5015	0	0	-100	0	230	101300000	1000	0	0	-1	0
9892643	5010	0	0	-100	0	230	101300000	1000	0	0	-1	0
9905203	5010	0	0	-100	0	230	101300000	1000	0	0	-1	0
9917763	5010	4	0	-100	0	230	101300000	1000	0	0	-1	0
9930323	5006	4	0	-100	0	230	101300000	1000	0	0	-1	0
9942883	5004	3	0	-100	0	230	101300000	1000	0	0	-1	0
9955443	5010	0	0	-100	0	230	101300000	1000	0	0	-1	0
9968004	5010	3	0	-100	0	230	101300000	1000	0	0	-1	0
9980563	5014	0	0	-100	0	230	101300000	1000	0	0	-1	0
9993123	5014	0	0	-100	0	230	101300000	1000	0	0	-1	0
10005683	5011	0	0	-100	0	230	101300000	1000	0	0	-1	0
10018243	5006	0	0	-100	0	230	101300000	1000	0	0	-1	0
10030803	5009	5	0	-100	0	230	101300000	1000	0	0	-1	0
10043363	5006	4	0	-100	0	230	101300000	1000	0	0	-1	0
10055923	5006	4	0	-100	0	230	101300000	1000	0	0	-1	0
10068483	5005	4	0	-100	0	230	101300000	1000	0	0	-1	0
10081043	5011	0	0	-100	0	230	101300000	1000	0	0	-1	0
10093603	5012	0	0	-100	0	230	101300000	1000	0	0	-1	0
10106163	5017	0	0	-100	0	230	101300000	1000	0	0	-1	0
10118723	5006	0	0	-100	0	230	101300000	1000	0	0	-1	0
10131283	5010	4	0	-100	0	230	101300000	1000	0	0	-1	0
10143843	5005	4	0	-100	0	230	101300000	1000	0	0	-1	0
10156403	5011	0	0	-100	0	230	101300000	1000	0	0	-1	0
10168963	5013	0	0	-100	0	230	101300000	1000	0	0	-1	0
10181523	5016	0	0	-100	0	230	101300000	1000	0	0	-1	0
10194083	5012	0	0	-100	0	230	101300000	1000	0	0	-1	0
10206643	5009	0	0	-100	0	230	101300000	1000	0	0	-1	0
10219203	5008	4	0	-100	0	230	101300000	1000	0	0	-1	0
10231763	5005	2	0	-100	0	230	101300000	1000	0	0	-1	0
10244323	5012	0	0	-100	0	230	101300000	1000	0	0	-1	0
10256883	5012	0	0	-100	0	230	101300000	1000	0	0	-1	0
10269443	5012	0	0	-100	0	230	101300000	1000	0	0	-1	0
10282004	5019	0	0	-100	0	230	101300000	1000	0	0	-1	0
10294563	5006	4	0	-100	0	230	101300000	1000	0	0	-1	0
10307123	5011	0	0	-100	0	230	101300000	1000	0	0	-1	0
10319683	5014	0	0	-100	0	230	101300000	1000	0	0	-1	0
10332243	5006	0	0	-100	0	230	101300000	1000	0	0	-1	0
10344803	5009	1	0	-100	0	230	101300000	1000	0	0	-1	0
10357363	5006	4	0	-100	0	230	101300000	1000	0	0	-1	0
10369923	5011	0	0	-100	0	230	101300000	1000	0	0	-1	0
10382483	5013	0	0	-100	0	230	101300000	1000	0	0	-1	0
10395043	5006	0	0	-100	0	230	101300000	1000	0	0	-1	0
10407603	5006	1	0	-100	0	230	101300000	1000	0	0	-1	0
10420163	5012	3	0	-100	0	230	101300000	1000	0	0	-1	0
10432723	5009	0	0	-100	0	230	101300000	1000	0	0	-1	0
10445283	5012	0	0	-100	0	230	101300000	1000	0	0	-1	0
10457843	5014	0	0	-100	0	230	101300000	1000	0	0	-1	0
10470403	5006	0	0	-100	0	230	101300000	1000	0	0	-1	0
10482963	5008	4	0	-100	0	230	101300000	1000	0	0	-1	0
10495523	5009	0	0	-100	0	230	101300000	1000	0	0	-1	0
10508083	5013	0	0	-100	0	230	101300000	1000	0	0	-1	0
10520643	5009	0	0	-100	0	230	101300000	1000	0	0	-1	0
10533203	5009	5	0	-100	0	230	101300000	1000	0	0	-1	0
10545763	5006	0	0	-100	0	230	101300000	1000	0	0	-1	0
10558323	5016	0	0	-100	0	230	101300000	1000	0	0	-1	0
10570883	5011	0	0	-100	0	230	101300000	1000	0	0	-1	0
10583443	5006	0	0	-100	0	230	101300000	1000	0	0	-1	0
10596004	5014	0	0	-100	0	230	101300000	1000	0	0	-1	0
10608563	5004	2	0	-100	0	230	101300000	1000	0	0	-1	0
10621123	5011	0	0	-100	0	230	101300000	1000	0	0	-1	0
10633683	5012	0	0	-100	0	230	101300000	1000	0	0	-1	0
10646243	5007	1	0	-100	0	230	101300000	1000	0	0	-1	0
10658803	5008	2	0	-100	0	230	101300000	1000	0	0	-1	0
10671363	5013	0	0	-100	0	230	101300000	1000	0	0	-1	0
10683923	5006	0	0	-100	0	230	101300000	1000	0	0	-1	0
10696483	5006	5	0	-100	0	230	101300000	1000	0	0	-1	0
10709043	5012	0	0	-100	0	230	101300000	1000	0	0	-1	0
10721603	5006	0	0	-100	0	230	101300000	1000	0	0	-1	0
10734163	5012	2	0	-100	0	230	101300000	1000	0	0	-1	0
10746723	5011	0	0	-100	0	230	101300000	1000	0	0	-1	0
10771843	5010	4	0	-100	0	230	101300000	1000	0	0	-1	0
10784403	5010	0	0	-100	0	230	101300000	1000	0	0	-1	0
10796963	5012	0	0	-100	0	230	101300000	1000	0	0	-1	0
10809523	5004	0	0	-100	0	230	101300000	1000	0	0	-1	0
10822083	5007	5	0	-100	0	230	101300000	1000	0	0	-1	0
10834643	5007	0	0	-100	0	230	101300000	1000	0	0	-1	0
10847203	5008	0	0	-100	0	230	101300000	1000	0	0	-1	0
10859763	5005	5	0	-100	0	230	101300000	1000	0	0	-1	0
10872323	5012	0	0	-100	0	230	101300000	1000	0	0	-1	0
10884883	5010	0	0	-100	0	230	101300000	1000	0	0	-1	0
10897443	5010	3	0	-100	0	230	101300000	1000	0	0	-1	0
10947683	5005	4	0	-100	0	230	101300000	1000	0	0	-1	0
10960243	5014	0	0	-100	0	230	101300000	1000	0	0	-1	0
10972803	5011	0	0	-100	0	230	101300000	1000	0	0	-1	0
10985363	5012	4	0	-100	0	230	101300000	1000	0	0	-1	0
10997923	5011	0	0	-100	0	230	101300000	1000	0	0	-1	0
11010483	5010	0	0	-100	0	230	101300000	1000	0	0	-1	0
11023043	5008	4	0	-100	0	230	101300000	1000	0	0	-1	0
11035603	5011	0	0	-100	0	230	101300000	1000	0	0	-1	0
11048163	5020	0	0	-100	0	230	101300000	1000	0	0	-1	0
11060723	5006	0	0	-100	0	230	101300000	1000	0	0	-1	0
11073283	5010	5	0	-100	0	230	101300000	1000	0	0	-1	0
11085843	5008	3	0	-100	0	230	101300000	1000	0	0	-1	0
11098403	5011	0	0	-100	0	230	101300000	1000	0	0	-1	0
11110963	5016	0	0	-100	0	230	101300000	1000	0	0	-1	0
11123523	5009	0	0	-100	0	230	101300000	1000	0	0	-1	0
11136083	5004	1	0	-100	0	230	101300000	1000	0	0	-1	0
11148643	5006	4	0	-100	0	230	101300000	1000	0	0	-1	0
11161203	5005	4	0	-100	0	230	101300000	1000	0	0	-1	0
11173763	5010	0	0	-100	0	230	101300000	1000	0	0	-1	0
11186323	5012	0	0	-100	0	230	101300000	1000	0	0	-1	0
11198883	5012	0	0	-100	0	230	101300000	1000	0	0	-1	0
11211443	5006	0	0	-100	0	230	101300000	1000	0	0	-1	0
11224004	5021	0	0	-100	0	230	101300000	1000	0	0	-1	0
11236563	5008	3	0	-100	0	230	101300000	1000	0	0	-1	0
11249123	5011	0	0	-100	0	230	101300000	1000	0	0	-1	0
11261683	5012	0	0	-100	0	230	101300000	1000	0	0	-1	0
11274243	5010	0	0	-100	0	230	101300000	1000	0	0	-1	0
11286803	5006	0	0	-100	0	230	101300000	1000	0	0	-1	0
11299363	5009	6	0	-100	0	230	101300000	1000	0	0	-1	0
11311923	5012	0	0	-100	0	230	101300000	1000	0	0	-1	0
11324483	5011	0	0	-100	0	230	101300000	1000	0	0	-1	0
11337043	5005	0	0	-100	0	230	101300000	1000	0	0	-1	0
11349603	5004	4	0	-100	0	230	101300000	1000	0	0	-1	0
11362163	5019	0	0	-100	0	230	101300000	1000	0	0	-1	0
11374723	5005	0	0	-100	0	230	101300000	1000	0	0	-1	0
11387283	5005	0	0	-100	0	230	101300000	1000	0	0	-1	0
11399843	5011	0	0	-100	0	230	101300000	1000	0	0	-1	0
11412403	5009	7	0	-100	0	230	101300000	1000	0	0	-1	0
11424963	5009	0	0	-100	0	230	101300000	1000	0	0	-1	0
11437523	5014	0	0	-100	0	230	101300000	1000	0	0	-1	0
11450083	5006	0	0	-100	0	230	101300000	1000	0	0	-1	0
11462643	5005	2	0	-100	0	230	101300000	1000	0	0	-1	0
11475203	5014	0	0	-100	0	230	101300000	1000	0	0	-1	0
11487763	5009	0	0	-100	0	230	101300000	1000	0	0	-1	0
11500323	5010	4	0	-100	0	230	101300000	1000	0	0	-1	0
11512883	5014	0	0	-100	0	230	101300000	1000	0	0	-1	0
11525443	5010	2	0	-100	0	230	101300000	1000	0	0	-1	0
11538004	5010	2	0	-100	0	230	101300000	1000	0	0	-1	0
11550563	5006	0	0	-100	0	230	101300000	1000	0	0	-1	0
11563123	5005	4	0	-100	0	230	101300000	1000	0	0	-1	0
11575683	5016	0	0	-100	0	230	101300000	1000	0	0	-1	0
11588243	5006	0	0	-100	0	230	101300000	1000	0	0	-1	0
11600803	5010	4	0	-100	0	230	101300000	1000	0	0	-1	0
11613363	5015	0	0	-100	0	230	101300000	1000	0	0	-1	0
11625923	5010	0	0	-100	0	230	101300000	1000	0	0	-1	0
11638483	5004	0	0	-100	0	230	101300000	1000	0	0	-1	0
11651043	5006	2	0	-100	0	230	101300000	1000	0	0	-1	0
11663603	5015	0	0	-100	0	230	101300000	1000	0	0	-1	0
11676163	5015	0	0	-100	0	230	101300000	1000	0	0	-1	0
11688723	5011	0	0	-100	0	230	101300000	1000	0	0	-1	0
11701283	5008	0	0	-100	0	230	101300000	1000	0	0	-1	0
11713843	5009	4	0	-100	0	230	101300000	1000	0	0	-1	0
11726403	5015	0	0	-100	0	230	101300000	1000	0	0	-1	0
11738963	5005	0	0	-100	0	230	101300000	1000	0	0	-1	0
11751523	5009	0	0	-100	0	230	101300000	1000	0	0	-1	0
11764083	5008	0	0	-100	0	230	101300000	1000	0	0	-1	0
11776643	5006	3	0	-100	0	230	101300000	1000	0	0	-1	0
11789203	5012	0	0	-100	0	230	101300000	1000	0	0	-1	0
11801763	5009	0	0	-100	0	230	101300000	1000	0	0	-1	0
11814323	5005	2	0	-100	0	230	101300000	1000	0	0	-1	0
11826883	5011	0	0	-100	0	230	101300000	1000	0	0	-1	0
11839443	5010	0	0	-100	0	230	101300000	1000	0	0	-1	0
11852004	5018	0	0	-100	0	230	101300000	1000	0	0	-1	0
11864563	5009	0	0	-100	0	230	101300000	1000	0	0	-1	0
11877123	5012	0	0	-100	0	230	101300000	1000	0	0	-1	0
11889683	5004	0	0	-100	0	230	101300000	1000	0	0	-1	0
11902243	5009	3	0	-100	0	230	101300000	1000	0	0	-1	0
11914803	5012	0	0	-100	0	230	101300000	1000	0	0	-1	0
11927363	5010	0	0	-100	0	230	101300000	1000	0	0	-1	0
11939923	5007	0	0	-100	0	230	101300000	1000	0	0	-1	0
11952483	5008	1	0	-100	0	230	101300000	1000	0	0	-1	0
11965043	5016	0	0	-100	0	230	101300000	1000	0	0	-1	0
11977603	5007	0	0	-100	0	230	101300000	1000	0	0	-1	0
11990163	5016	0	0	-100	0	230	101300000	1000	0	0	-1	0
12002723	5011	0	0	-100	0	230	101300000	1000	0	0	-1	0
12015283	5009	4	0	-100	0	230	101300000	1000	0	0	-1	0
12027843	5010	0	0	-100	0	230	101300000	1000	0	0	-1	0
12040403	5014	0	0	-100	0	230	101300000	1000	0	0	-1	0
12052963	5005	0	0	-100	0	230	101300000	1000	0	0	-1	0
12065523	5009	0	0	-100	0	230	101300000	1000	0	0	-1	0
12078083	5011	0	0	-100	0	230	101300000	1000	0	0	-1	0
12090643	5007	4	0	-100	0	230	101300000	1000	0	0	-1	0
12103203	5012	0	0	-100	0	230	101300000	1000	0	0	-1	0
12115763	5006	0	0	-100	0	230	101300000	1000	0	0	-1	0
12128323	5008	3	0	-100	0	230	101300000	1000	0	0	-1	0
12140883	5015	0	0	-100	0	230	101300000	1000	0	0	-1	0
12153443	5006	0	0	-100	0	230	101300000	1000	0	0	-1	0
12166004	5010	0	0	-100	0	230	101300000	1000	0	0	-1	0
12178563	5015	0	0	-100	0	230	101300000	1000	0	0	-1	0
12191123	5007	0	0	-100	0	230	101300000	1000	0	0	-1	0
12203683	5009	5	0	-100	0	230	101300000	1000	0	0	-1	0
12216243	5006	2	0	-100	0	230	101300000	1000	0	0	-1	0
12228803	5012	0	0	-100	0	230	101300000	1000	0	0	-1	0
12241363	5010	0	0	-100	0	230	101300000	1000	0	0	-1	0
12253923	5009	2	0	-100	0	230	101300000	1000	0	0	-1	0
12266483	5015	0	0	-100	0	230	101300000	1000	0	0	-1	0
12279043	5011	0	0	-100	0	230	101300000	1000	0	0	-1	0
12291603	5004	0	0	-100	0	230	101300000	1000	0	0	-1	0
12304163	5014	3	0	-100	0	230	101300000	1000	0	0	-1	0
12316723	5016	0	0	-100	0	230	101300000	1000	0	0	-1	0
12329283	5011	0	0	-100	0	230	101300000	1000	0	0	-1	0
12341843	5008	4	0	-100	0	230	101300000	1000	0	0	-1	0
12354403	5013	0	0	-100	0	230	101300000	1000	0	0	-1	0
12366963	5006	0	0	-100	0	230	101300000	1000	0	0	-1	0
12379523	5006	4	0	-100	0	230	101300000	1000	0	0	-1	0
12392083	5014	0	0	-100	0	230	101300000	1000	0	0	-1	0
12404643	5011	0	0	-100	0	230	101300000	1000	0	0	-1	0
12417203	5007	4	0	-100	0	230	101300000	1000	0	0	-1	0
12429763	5012	0	0	-100	0	230	101300000	1000	0	0	-1	0
12442323	5005	0	0	-100	0	230	101300000	1000	0	0	-1	0
12454883	5008	1	0	-100	0	230	101300000	1000	0	0	-1	0
12467443	5014	0	0	-100	0	230	101300000	1000	0	0	-1	0
12480004	5016	0	0	-100	0	230	101300000	1000	0	0	-1	0
12492563	5004	1	0	-100	0	230	101300000	1000	0	0	-1	0
12505123	5014	0	0	-100	0	230	101300000	1000	0	0	-1	0
12517683	5005	0	0	-100	0	230	101300000	1000	0	0	-1	0
12530243	5005	3	0	-100	0	230	101300000	1000	0	0	-1	0
12542803	5012	0	0	-100	0	230	101300000	1000	0	0	-1	0
12555363	5009	0	0	-100	0	230	101300000	1000	0	0	-1	0
12567923	5006	0	0	-100	0	230	101300000	1000	0	0	-1	0
12580483	5013	0	0	-100	0	230	101300000	1000	0	0	-1	0
12593043	5009	0	0	-100	0	230	101300000	1000	0	0	-1	0
12605603	5008	4	0	-100	0	230	101300000	1000	0	0	-1	0
12618163	5021	0	0	-100	0	230	101300000	1000	0	0	-1	0
12630723	5011	0	0	-100	0	230	101300000	1000	0	0	-1	0
12643283	5009	4	0	-100	0	230	101300000	1000	0	0	-1	0
12655843	5006	2	0	-100	0	230	101300000	1000	0	0	-1	0
12668403	5011	0	0	-100	0	230	101300000	1000	0	0	-1	0
12680963	5004	0	0	-100	0	230	101300000	1000	0	0	-1	0
12693523	5006	3	0	-100	0	230	101300000	1000	0	0	-1	0
12706083	5012	0	0	-100	0	230	101300000	1000	0	0	-1	0
12718643	5009	5	0	-100	0	230	101300000	1000	0	0	-1	0
12731203	5016	0	0	-100	0	230	101300000	1000	0	0	-1	0
12743763	5011	0	0	-100	0	230	101300000	1000	0	0	-1	0
12756323	5009	0	0	-100	0	230	101300000	1000	0	0	-1	0
12768883	5006	4	0	-100	0	230	101300000	1000	0	0	-1	0
12781443	5006	3	0	-100	0	230	101300000	1000	0	0	-1	0
12794004	5010	0	0	-100	0	230	101300000	1000	0	0	-1	0
12806563	5010	0	0	-100	0	230	101300000	1000	0	0	-1	0
12819123	5011	0	0	-100	0	230	101300000	1000	0	0	-1	0
12831683	5015	0	0	-100	0	230	101300000	1000	0	0	-1	0
12844243	5012	0	0	-100	0	230	101300000	1000	0	0	-1	0
12856803	5015	0	0	-100	0	230	101300000	1000	0	0	-1	0
12869363	5014	0	0	-100	0	230	101300000	1000	0	0	-1	0
12881923	5011	0	0	-100	0	230	101300000	1000	0	0	-1	0
12894483	5006	0	0	-100	0	230	101300000	1000	0	0	-1	0
12907043	5007	1	0	-100	0	230	101300000	1000	0	0	-1	0
12919603	5006	4	0	-100	0	230	101300000	1000	0	0	-1	0
12932163	5011	4	0	-100	0	230	101300000	1000	0	0	-1	0
12944723	5008	3	0	-100	0	230	101300000	1000	0	0	-1	0
12957283	5008	0	0	-100	0	230	101300000	1000	0	0	-1	0
12969843	5008	1	0	-100	0	230	101300000	1000	0	0	-1	0
12982403	5010	1	0	-100	0	230	101300000	1000	0	0	-1	0
12994963	5010	0	0	-100	0	230	101300000	1000	0	0	-1	0
13007523	5009	0	0	-100	0	230	101300000	1000	0	0	-1	0
13020083	5014	0	0	-100	0	230	101300000	1000	0	0	-1	0
13032643	5014	0	0	-100	0	230	101300000	1000	0	0	-1	0
13045203	5007	0	0	-100	0	230	101300000	1000	0	0	-1	0
13057763	5006	4	0	-100	0	230	101300000	1000	0	0	-1	0
13070323	5008	1	0	-100	0	230	101300000	1000	0	0	-1	0
13082883	5007	0	0	-100	0	230	101300000	1000	0	0	-1	0
13095443	5012	0	0	-100	0	230	101300000	1000	0	0	-1	0
13108004	5022	0	0	-100	0	230	101300000	1000	0	0	-1	0
13120563	5012	4	0	-100	0	230	101300000	1000	0	0	-1	0
13133123	5008	0	0	-100	0	230	101300000	1000	0	0	-1	0
13145683	5015	0	0	-100	0	230	101300000	1000	0	0	-1	0
13158243	5007	0	0	-100	0	230	101300000	1000	0	0	-1	0
13170803	5007	4	0	-100	0	230	101300000	1000	0	0	-1	0
13183363	5005	2	0	-100	0	230	101300000	1000	0	0	-1	0
13195923	5011	0	0	-100	0	230	101300000	1000	0	0	-1	0
13208483	5012	0	0	-100	0	230	101300000	1000	0	0	-1	0
13221043	5009	0	0	-100	0	230	101300000	1000	0	0	-1	0
13233603	5008	3	0	-100	0	230	101300000	1000	0	0	-1	0
13246163	5015	0	0	-100	0	230	101300000	1000	0	0	-1	0
13258723	5011	0	0	-100	0	230	101300000	1000	0	0	-1	0
13271283	5011	0	0	-100	0	230	101300000	1000	0	0	-1	0
13283843	5005	0	0	-100	0	230	101300000	1000	0	0	-1	0
13296403	5006	4	0	-100	0	230	101300000	1000	0	0	-1	0
13308963	5010	0	0	-100	0	230	101300000	1000	0	0	-1	0
13321523	5014	0	0	-100	0	230	101300000	1000	0	0	-1	0
13334083	5007	0	0	-100	0	230	101300000	1000	0	0	-1	0
13346643	5009	1	0	-100	0	230	101300000	1000	0	0	-1	0
13359203	5006	3	0	-100	0	230	101300000	1000	0	0	-1	0
13371763	5012	0	0	-100	0	230	101300000	1000	0	0	-1	0
13384323	5012	0	0	-100	0	230	101300000	1000	0	0	-1	0
13396883	5007	0	0	-100	0	230	101300000	1000	0	0	-1	0
13409443	5009	4	0	-100	0	230	101300000	1000	0	0	-1	0
13422004	5015	0	0	-100	0	230	101300000	1000	0	0	-1	0
13434563	5011	0	0	-100	0	230	101300000	1000	0	0	-1	0
13447123	5016	0	0	-100	0	230	101300000	1000	0	0	-1	0
13459683	5014	0	0	-100	0	230	101300000	1000	0	0	-1	0
13472243	5009	0	0	-100	0	230	101300000	1000	0	0	-1	0
13484803	5007	5	0	-100	0	230	101300000	1000	0	0	-1	0
13497363	5010	0	0	-100	0	230	101300000	1000	0	0	-1	0
13509923	5013	0	0	-100	0	230	101300000	1000	0	0	-1	0
13522483	5011	0	0	-100	0	230	101300000	1000	0	0	-1	0
13535043	5006	0	0	-100	0	230	101300000	1000	0	0	-1	0
13547603	5005	5	0	-100	0	230	101300000	1000	0	0	-1	0
13560163	5026	0	0	-100	0	230	101300000	1000	0	0	-1	0
13572723	5007	0	0	-100	0	230	101300000	1000	0	0	-1	0
13585283	5009	4	0	-100	0	230	101300000	1000	0	0	-1	0
13597843	5012	0	0	-100	0	230	101300000	1000	0	0	-1	0
13610403	5011	0	0	-100	0	230	101300000	1000	0	0	-1	0
13622963	5005	0	0	-100	0	230	101300000	1000	0	0	-1	0
13660643	5011	0	0	-100	0	230	101300000	1000	0	0	-1	0
13673203	5015	0	0	-100	0	230	101300000	1000	0	0	-1	0
13685763	5006	0	0	-100	0	230	101300000	1000	0	0	-1	0
13698323	5009	4	0	-100	0	230	101300000	1000	0	0	-1	0
13710883	5005	2	0	-100	0	230	101300000	1000	0	0	-1	0
13723443	5012	0	0	-100	0	230	101300000	1000	0	0	-1	0
13736004	5018	0	0	-100	0	230	101300000	1000	0	0	-1	0
13748563	5005	2	0	-100	0	230	101300000	1000	0	0	-1	0
13761123	5013	0	0	-100	0	230	101300000	1000	0	0	-1	0
13773683	5006	0	0	-100	0	230	101300000	1000	0	0	-1	0
13786243	5009	4	0	-100	0	230	101300000	1000	0	0	-1	0
13798803	5016	0	0	-100	0	230	101300000	1000	0	0	-1	0
13861603	5010	0	0	-100	0	230	101300000	1000	0	0	-1	0
13874163	5012	0	0	-100	0	230	101300000	1000	0	0	-1	0
13886723	5005	4	0	-100	0	230	101300000	1000	0	0	-1	0
13899283	5010	0	0	-100	0	230	101300000	1000	0	0	-1	0
13911843	5014	0	0	-100	0	230	101300000	1000	0	0	-1	0
13924403	5007	0	0	-100	0	230	101300000	1000	0	0	-1	0
13936963	5010	3	0	-100	0	230	101300000	1000	0	0	-1	0
13949523	5010	0	0	-100	0	230	101300000	1000	0	0	-1	0
13962083	5014	0	0	-100	0	230	101300000	1000	0	0	-1	0
13974643	5007	0	0	-100	0	230	101300000	1000	0	0	-1	0
13987203	5005	2	0	-100	0	230	101300000	1000	0	0	-1	0
763	5013	0	0	-100	0	230	101300000	1000	0	0	-1	0
14012323	5009	0	0	-100	0	230	101300000	1000	0	0	-1	0
14024883	5006	0	0	-100	0	230	101300000	1000	0	0	-1	0
14037443	5010	4	0	-100	0	230	101300000	1000	0	0	-1	0
14050004	5015	0	0	-100	0	230	101300000	1000	0	0	-1	0
14062563	5006	1	0	-100	0	230	101300000	1000	0	0	-1	0
14075123	5009	0	0	-100	0	230	101300000	1000	0	0	-1	0
14087683	5016	0	0	-100	0	230	101300000	1000	0	0	-1	0
14100243	5011	0	0	-100	0	230	101300000	1000	0	0	-1	0
14112803	5012	0	0	-100	0	230	101300000	1000	0	0	-1	0
14125363	5009	1	0	-100	0	230	101300000	1000	0	0	-1	0
14137923	5005	5	0	-100	0	230	101300000	1000	0	0	-1	0
14150483	5006	0	0	-100	0	230	101300000	1000	0	0	-1	0
14163043	5015	0	0	-100	0	230	101300000	1000	0	0	-1	0
14175603	5014	0	0	-100	0	230	101300000	1000	0	0	-1	0
14188163	5015	0	0	-100	0	230	101300000	1000	0	0	-1	0
14200723	5009	0	0	-100	0	230	101300000	1000	0	0	-1	0
14213283	5009	4	0	-100	0	230	101300000	1000	0	0	-1	0
14225843	5016	0	0	-100	0	230	101300000	1000	0	0	-1	0
14238403	5010	0	0	-100	0	230	101300000	1000	0	0	-1	0
14250963	5005	0	0	-100	0	230	101300000	1000	0	0	-1	0
14263523	5006	4	0	-100	0	230	101300000	1000	0	0	-1	0
14276083	5008	0	0	-100	0	230	101300000	1000	0	0	-1	0
14288643	5012	0	0	-100	0	230	101300000	1000	0	0	-1	0
14301203	5007	0	0	-100	0	230	101300000	1000	0	0	-1	0
14313763	5008	4	0	-100	0	230	101300000	1000	0	0	-1	0
14326323	5009	0	0	-100	0	230	101300000	1000	0	0	-1	0
14338883	5012	0	0	-100	0	230	101300000	1000	0	0	-1	0
14351443	5009	0	0	-100	0	230	101300000	1000	0	0	-1	0
14364004	5020	0	0	-100	0	230	101300000	1000	0	0	-1	0
14376563	5004	3	0	-100	0	230	101300000	1000	0	0	-1	0
14389123	5008	1	0	-100	0	230	101300000	1000	0	0	-1	0
14401683	5015	0	0	-100	0	230	101300000	1000	0	0	-1	0
14414243	5011	0	0	-100	0	230	101300000	1000	0	0	-1	0
14426803	5009	0	0	-100	0	230	101300000	1000	0	0	-1	0
14439363	5009	3	0	-100	0	230	101300000	1000	0	0	-1	0
14451923	5014	0	0	-100	0	230	101300000	1000	0	0	-1	0
14464483	5010	0	0	-100	0	230	101300000	1000	0	0	-1	0
14477043	5007	1	0	-100	0	230	101300000	1000	0	0	-1	0
14489603	5011	0	0	-100	0	230	101300000	1000	0	0	-1	0
14502163	5016	0	0	-100	0	230	101300000	1000	0	0	-1	0
14514723	5009	1	0	-100	0	230	101300000	1000	0	0	-1	0
14527283	5012	0	0	-100	0	230	101300000	1000	0	0	-1	0
14539843	5007	0	0	-100	0	230	101300000	1000	0	0	-1	0
14552403	5006	4	0	-100	0	230	101300000	1000	0	0	-1	0
14564963	5006	1	0	-100	0	230	101300000	1000	0	0	-1	0
14577523	5013	0	0	-100	0	230	101300000	1000	0	0	-1	0
14590083	5011	0	0	-100	0	230	101300000	1000	0	0	-1	0
14602643	5009	2	0	-100	0	230	101300000	1000	0	0	-1	0
14615203	5006	3	0	-100	0	230	101300000	1000	0	0	-1	0
14627763	5011	0	0	-100	0	230	101300000	1000	0	0	-1	0
14640323	5012	0	0	-100	0	230	101300000	1000	0	0	-1	0
14652883	5010	0	0	-100	0	230	101300000	1000	0	0	-1	0
14665443	5006	0	0	-100	0	230	101300000	1000	0	0	-1	0
14678004	5017	0	0	-100	0	230	101300000	1000	0	0	-1	0
14690563	5009	0	0	-100	0	230	101300000	1000	0	0	-1	0
14703123	5008	0	0	-100	0	230	101300000	1000	0	0	-1	0
14715683	5004	0	0	-100	0	230	101300000	1000	0	0	-1	0
14728243	5009	0	0	-100	0	230	101300000	1000	0	0	-1	0
14740803	5014	0	0	-100	0	230	101300000	1000	0	0	-1	0
14753363	5005	0	0	-100	0	230	101300000	1000	0	0	-1	0
14765923	5009	5	0	-100	0	230	101300000	1000	0	0	-1	0
14778483	5005	4	0	-100	0	230	101300000	1000	0	0	-1	0
14791043	5009	1	0	-100	0	230	101300000	1000	0	0	-1	0
14803603	5011	0	0	-100	0	230	101300000	1000	0	0	-1	0
14816163	5017	0	0	-100	0	230	101300000	1000	0	0	-1	0
14828723	5012	0	0	-100	0	230	101300000	1000	0	0	-1	0
14841283	5010	0	0	-100	0	230	101300000	1000	0	0	-1	0
14853843	5007	0	0	-100	0	230	101300000	1000	0	0	-1	0
14866403	5006	0	0	-100	0	230	101300000	1000	0	0	-1	0
14878963	5011	4	0	-100	0	230	101300000	1000	0	0	-1	0
14891523	5006	4	0	-100	0	230	101300000	1000	0	0	-1	0
14904083	5008	1	0	-100	0	230	101300000	1000	0	0	-1	0
14916643	5015	0	0	-100	0	230	101300000	1000	0	0	-1	0
14929203	5014	0	0	-100	0	230	101300000	1000	0	0	-1	0
14941763	5016	0	0	-100	0	230	101300000	1000	0	0	-1	0
14954323	5011	0	0	-100	0	230	101300000	1000	0	0	-1	0
14966883	5011	0	0	-100	0	230	101300000	1000	0	0	-1	0
14979443	5004	0	0	-100	0	230	101300000	1000	0	0	-1	0
14992004	5015	0	0	-100	0	230	101300000	1000	0	0	-1	0
15004563	5006	2	0	-100	0	230	101300000	1000	0	0	-1	0
15017123	5006	0	0	-100	0	230	101300000	1000	0	0	-1	0
15029683	5017	0	0	-100	0	230	101300000	1000	0	0	-1	0
15042243	5012	0	0	-100	0	230	101300000	1000	0	0	-1	0
15054803	5005	2	0	-100	0	230	101300000	1000	0	0	-1	0
15067363	5005	5	0	-100	0	230	101300000	1000	0	0	-1	0
15079923	5006	2	0	-100	0	230	101300000	1000	0	0	-1	0
15092483	5012	0	0	-100	0	230	101300000	1000	0	0	-1	0
15105043	5011	0	0	-100	0	230	101300000	1000	0	0	-1	0
15117603	5009	0	0	-100	0	230	101300000	1000	0	0	-1	0
15130163	5018	4	0	-100	0	230	101300000	1000	0	0	-1	0
15142723	5011	0	0	-100	0	230	101300000	1000	0	0	-1	0
15155283	5010	0	0	-100	0	230	101300000	1000	0	0	-1	0
15167843	5007	0	0	-100	0	230	101300000	1000	0	0	-1	0
15180403	5006	4	0	-100	0	230	101300000	1000	0	0	-1	0
15192963	5008	0	0	-100	0	230	101300000	1000	0	0	-1	0
15205523	5014	0	0	-100	0	230	101300000	1000	0	0	-1	0
15218083	5002	0	0	-100	0	230	101300000	1000	0	0	-1	0
15230643	5010	2	0	-100	0	230	101300000	1000	0	0	-1	0
15243203	5016	0	0	-100	0	230	101300000	1000	0	0	-1	0
15255763	5011	0	0	-100	0	230	101300000	1000	0	0	-1	0
15268323	5007	0	0	-100	0	230	101300000	1000	0	0	-1	0
15280883	5009	5	0	-100	0	230	101300000	1000	0	0	-1	0
15293443	5008	4	0	-100	0	230	101300000	1000	0	0	-1	0
15306004	5011	3	0	-100	0	230	101300000	1000	0	0	-1	0
15318563	5010	0	0	-100	0	230	101300000	1000	0	0	-1	0
15331123	5008	0	0	-100	0	230	101300000	1000	0	0	-1	0
15343683	5007	3	0	-100	0	230	101300000	1000	0	0	-1	0
15356243	5009	3	0	-100	0	230	101300000	1000	0	0	-1	0
15368803	5006	1	0	-100	0	230	101300000	1000	0	0	-1	0
15381363	5012	0	0	-100	0	230	101300000	1000	0	0	-1	0
15393923	5014	0	0	-100	0	230	101300000	1000	0	0	-1	0
15406483	5005	0	0	-100	0	230	101300000	1000	0	0	-1	0
15419043	5006	1	0	-100	0	230	101300000	1000	0	0	-1	0
15431603	5012	0	0	-100	0	230	101300000	1000	0	0	-1	0
15444163	5011	0	0	-100	0	230	101300000	1000	0	0	-1	0
15456723	5005	2	0	-100	0	230	101300000	1000	0	0	-1	0
15469283	5017	0	0	-100	0	230	101300000	1000	0	0	-1	0
15481843	5014	0	0	-100	0	230	101300000	1000	0	0	-1	0
15494403	5006	0	0	-100	0	230	101300000	1000	0	0	-1	0
15506963	5006	4	0	-100	0	230	101300000	1000	0	0	-1	0
15519523	5017	0	0	-100	0	230	101300000	1000	0	0	-1	0
15532083	5010	0	0	-100	0	230	101300000	1000	0	0	-1	0
15544643	5009	4	0	-100	0	230	101300000	1000	0	0	-1	0
15557203	5016	0	0	-100	0	230	101300000	1000	0	0	-1	0
15569763	5007	0	0	-100	0	230	101300000	1000	0	0	-1	0
15582323	5006	0	0	-100	0	230	101300000	1000	0	0	-1	0
15594883	5008	2	0	-100	0	230	101300000	1000	0	0	-1	0
15607443	5014	0	0	-100	0	230	101300000	1000	0	0	-1	0
15620004	5010	0	0	-100	0	230	101300000	1000	0	0	-1	0
15632563	5009	0	0	-100	0	230	101300000	1000	0	0	-1	0
15645123	5006	0	0	-100	0	230	101300000	1000	0	0	-1	0
15657683	5008	4	0	-100	0	230	101300000	1000	0	0	-1	0
15670243	5008	3	0	-100	0	230	101300000	1000	0	0	-1	0
15682803	5009	0	0	-100	0	230	101300000	1000	0	0	-1	0
15695363	5012	0	0	-100	0	230	101300000	1000	0	0	-1	0
15707923	5012	0	0	-100	0	230	101300000	1000	0	0	-1	0
15720483	5012	0	0	-100	0	230	101300000	1000	0	0	-1	0
15733043	5014	0	0	-100	0	230	101300000	1000	0	0	-1	0
15745603	5008	0	0	-100	0	230	101300000	1000	0	0	-1	0
15758163	5015	4	0	-100	0	230	101300000	1000	0	0	-1	0
15770723	5008	1	0	-100	0	230	101300000	1000	0	0	-1	0
15783283	5014	0	0	-100	0	230	101300000	1000	0	0	-1	0
15795843	5011	0	0	-100	0	230	101300000	1000	0	0	-1	0
15808403	5005	0	0	-100	0	230	101300000	1000	0	0	-1	0
15820963	5005	1	0	-100	0	230	101300000	1000	0	0	-1	0
15833523	5013	0	0	-100	0	230	101300000	1000	0	0	-1	0
15846083	5010	0	0	-100	0	230	101300000	1000	0	0	-1	0
15858643	5006	0	0	-100	0	230	101300000	1000	0	0	-1	0
15871203	5008	4	0	-100	0	230	101300000	1000	0	0	-1	0
15883763	5006	1	0	-100	0	230	101300000	1000	0	0	-1	0
15896323	5014	0	0	-100	0	230	101300000	1000	0	0	-1	0
15908883	5014	0	0	-100	0	230	101300000	1000	0	0	-1	0
15921443	5011	0	0	-100	0	230	101300000	1000	0	0	-1	0
15934004	5017	0	0	-100	0	230	101300000	1000	0	0	-1	0
15946563	5006	2	0	-100	0	230	101300000	1000	0	0	-1	0
15959123	5012	0	0	-100	0	230	101300000	1000	0	0	-1	0
15971683	5015	0	0	-100	0	230	101300000	1000	0	0	-1	0
15984243	5007	0	0	-100	0	230	101300000	1000	0	0	-1	0
15996803	5004	5	0	-100	0	230	101300000	1000	0	0	-1	0
16009363	5013	0	0	-100	0	230	101300000	1000	0	0	-1	0
16021923	5010	0	0	-100	0	230	101300000	1000	0	0	-1	0
16034483	5009	4	0	-100	0	230	101300000	1000	0	0	-1	0
16047043	5007	1	0	-100	0	230	101300000	1000	0	0	-1	0
16059603	5012	0	0	-100	0	230	101300000	1000	0	0	-1	0
16072163	5017	0	0	-100	0	230	101300000	1000	0	0	-1	0
16084723	5004	0	0	-100	0	230	101300000	1000	0	0	-1	0
16097283	5006	4	0	-100	0	230	101300000	1000	0	0	-1	0
16109843	5006	3	0	-100	0	230	101300000	1000	0	0	-1	0
16122403	5006	0	0	-100	0	230	101300000	1000	0	0	-1	0
16134963	5014	0	0	-100	0	230	101300000	1000	0	0	-1	0
16147523	5014	0	0	-100	0	230	101300000	1000	0	0	-1	0
16160083	5011	0	0	-100	0	230	101300000	1000	0	0	-1	0
16172643	5005	0	0	-100	0	230	101300000	1000	0	0	-1	0
16185203	5006	4	0	-100	0	230	101300000	1000	0	0	-1	0
16197763	5005	2	0	-100	0	230	101300000	1000	0	0	-1	0
16210323	5011	0	0	-100	0	230	101300000	1000	0	0	-1	0
16222883	5015	0	0	-100	0	230	101300000	1000	0	0	-1	0
16235443	5010	0	0	-100	0	230	101300000	1000	0	0	-1	0
16248004	5022	0	0	-100	0	230	101300000	1000	0	0	-1	0
16260563	5009	5	0	-100	0	230	101300000	1000	0	0	-1	0
16273123	5005	1	0	-100	0	230	101300000	1000	0	0	-1	0
16285683	5012	0	0	-100	0	230	101300000	1000	0	0	-1	0
16298243	5012	0	0	-100	0	230	101300000	1000	0	0	-1	0
16310803	5005	0	0	-100	0	230	101300000	1000	0	0	-1	0
16323363	5010	5	0	-100	0	230	101300000	1000	0	0	-1	0
16335923	5005	1	0	-100	0	230	101300000	1000	0	0	-1	0
16348483	5014	0	0	-100	0	230	101300000	1000	0	0	-1	0
16361043	5012	0	0	-100	0	230	101300000	1000	0	0	-1	0
16373603	5014	0	0	-100	0	230	101300000	1000	0	0	-1	0
16386163	5018	0	0	-100	0	230	101300000	1000	0	0	-1	0
16398723	5011	0	0	-100	0	230	101300000	1000	0	0	-1	0
16411283	5011	0	0	-100	0	230	101300000	1000	0	0	-1	0
16423843	5012	0	0	-100	0	230	101300000	1000	0	0	-1	0
16436403	5012	0	0	-100	0	230	101300000	1000	0	0	-1	0
16448963	5011	0	0	-100	0	230	101300000	1000	0	0	-1	0
16461523	5012	0	0	-100	0	230	101300000	1000	0	0	-1	0
16474083	5007	0	0	-100	0	230	101300000	1000	0	0	-1	0
16486643	5010	0	0	-100	0	230	101300000	1000	0	0	-1	0
16499203	5008	0	0	-100	0	230	101300000	1000	0	0	-1	0
16511763	5011	0	0	-100	0	230	101300000	1000	0	0	-1	0
16524323	5011	0	0	-100	0	230	101300000	1000	0	0	-1	0
16536883	5010	0	0	-100	0	230	101300000	1000	0	0	-1	0
16549443	5010	0	0	-100	0	230	101300000	1000	0	0	-1	0
16562004	5021	0	0	-100	0	230	101300000	1000	0	0	-1	0
16574563	5006	0	0	-100	0	230	101300000	1000	0	0	-1	0
16587123	5005	0	0	-100	0	230	101300000	1000	0	0	-1	0
16599683	5006	0	0	-100	0	230	101300000	1000	0	0	-1	0
16612243	5006	0	0	-100	0	230	101300000	1000	0	0	-1	0
16624803	5009	0	0	-100	0	230	101300000	1000	0	0	-1	0
16637363	5011	0	0	-100	0	230	101300000	1000	0	0	-1	0
16649923	5012	0	0	-100	0	230	101300000	1000	0	0	-1	0
16662483	5014	0	0	-100	0	230	101300000	1000	0	0	-1	0
16675043	5011	0	0	-100	0	230	101300000	1000	0	0	-1	0
16687603	5011	0	0	-100	0	230	101300000	1000	0	0	-1	0
16750403	5010	0	0	-100	0	230	101300000	1000	0	0	-1	0
16762963	5006	1	0	-100	0	230	101300000	1000	0	0	-1	0
16775523	5005	1	0	-100	0	230	101300000	1000	0	0	-1	0
16788083	5006	2	0	-100	0	230	101300000	1000	0	0	-1	0
16800643	5008	2	0	-100	0	230	101300000	1000	0	0	-1	0
16813203	5006	4	0	-100	0	230	101300000	1000	0	0	-1	0
16825763	5007	4	0	-100	0	230	101300000	1000	0	0	-1	0
16838323	5010	5	0	-100	0	230	101300000	1000	0	0	-1	0
16850883	5006	1	0	-100	0	230	101300000	1000	0	0	-1	0
16863443	5006	0	0	-100	0	230	101300000	1000	0	0	-1	0
16876004	5016	0	0	-100	0	230	101300000	1000	0	0	-1	0
16888563	5007	0	0	-100	0	230	101300000	1000	0	0	-1	0
16951363	5010	0	0	-100	0	230	101300000	1000	0	0	-1	0
16963923	5007	0	0	-100	0	230	101300000	1000	0	0	-1	0
16976483	5009	0	0	-100	0	230	101300000	1000	0	0	-1	0
16989043	5005	0	0	-100	0	230	101300000	1000	0	0	-1	0
17001603	5008	0	0	-100	0	230	101300000	1000	0	0	-1	0
17014163	5020	0	0	-100	0	230	101300000	1000	0	0	-1	0
17026723	5012	0	0	-100	0	230	101300000	1000	0	0	-1	0
17039283	5012	0	0	-100	0	230	101300000	1000	0	0	-1	0
17051843	5014	0	0	-100	0	230	101300000	1000	0	0	-1	0
17064403	5013	0	0	-100	0	230	101300000	1000	0	0	-1	0
17076963	5008	0	0	-100	0	230	101300000	1000	0	0	-1	0
17089523	5008	0	0	-100	0	230	101300000	1000	0	0	-1	0
17102083	5006	4	0	-100	0	230	101300000	1000	0	0	-1	0
17114643	5009	2	0	-100	0	230	101300000	1000	0	0	-1	0
17127203	5010	3	0	-100	0	230	101300000	1000	0	0	-1	0
17139763	5008	4	0	-100	0	230	101300000	1000	0	0	-1	0
17152323	5008	1	0	-100	0	230	101300000	1000	0	0	-1	0
17164883	5006	1	0	-100	0	230	101300000	1000	0	0	-1	0
17177443	5010	0	0	-100	0	230	101300000	1000	0	0	-1	0
17190004	5012	4	0	-100	0	230	101300000	1000	0	0	-1	0
17202563	5012	0	0	-100	0	230	101300000	1000	0	0	-1	0
17215123	5012	0	0	-100	0	230	101300000	1000	0	0	-1	0
17227683	5014	0	0	-100	0	230	101300000	1000	0	0	-1	0
17240243	5009	0	0	-100	0	230	101300000	1000	0	0	-1	0
17252803	5009	0	0	-100	0	230	101300000	1000	0	0	-1	0
17265363	5010	0	0	-100	0	230	101300000	1000	0	0	-1	0
17277923	5008	0	0	-100	0	230	101300000	1000	0	0	-1	0
17290483	5005	0	0	-100	0	230	101300000	1000	0	0	-1	0
17303043	5007	0	0	-100	0	230	101300000	1000	0	0	-1	0
17315603	5007	0	0	-100	0	230	101300000	1000	0	0	-1	0
17328163	5012	0	0	-100	0	230	101300000	1000	0	0	-1	0
17340723	5006	0	0	-100	0	230	101300000	1000	0	0	-1	0
17353283	5009	0	0	-100	0	230	101300000	1000	0	0	-1	0
17365843	5008	4	0	-100	0	230	101300000	1000	0	0	-1	0
17378403	5004	3	0	-100	0	230	101300000	1000	0	0	-1	0
17390963	5010	0	0	-100	0	230	101300000	1000	0	0	-1	0
17403523	5015	0	0	-100	0	230	101300000	1000	0	0	-1	0
17416083	5009	0	0	-100	0	230	101300000	1000	0	0	-1	0
17428643	5012	0	0	-100	0	230	101300000	1000	0	0	-1	0
17441203	5014	0	0	-100	0	230	101300000	1000	0	0	-1	0
17453763	5014	0	0	-100	0	230	101300000	1000	0	0	-1	0
17466323	5014	0	0	-100	0	230	101300000	1000	0	0	-1	0
17478883	5012	0	0	-100	0	230	101300000	1000	0	0	-1	0
17491443	5012	0	0	-100	0	230	101300000	1000	0	0	-1	0
17504004	5006	2	0	-100	0	230	101300000	1000	0	0	-1	0
17516563	5012	0	0	-100	0	230	101300000	1000	0	0	-1	0
17529123	5014	0	0	-100	0	230	101300000	1000	0	0	-1	0
17541683	5011	0	0	-100	0	230	101300000	1000	0	0	-1	0
17554243	5014	0	0	-100	0	230	101300000	1000	0	0	-1	0
17566803	5014	0	0	-100	0	230	101300000	1000	0	0	-1	0
17579363	5009	0	0	-100	0	230	101300000	1000	0	0	-1	0
17591923	5010	0	0	-100	0	230	101300000	1000	0	0	-1	0
17604483	5011	0	0	-100	0	230	101300000	1000	0	0	-1	0
17617043	5007	0	0	-100	0	230	101300000	1000	0	0	-1	0
17629603	5009	0	0	-100	0	230	101300000	1000	0	0	-1	0
17642163	5012	0	0	-100	0	230	101300000	1000	0	0	-1	0
17654723	5004	0	0	-100	0	230	101300000	1000	0	0	-1	0
17667283	5009	0	0	-100	0	230	101300000	1000	0	0	-1	0
17679843	5008	1	0	-100	0	230	101300000	1000	0	0	-1	0
17692403	5005	0	0	-100	0	230	101300000	1000	0	0	-1	0
17704963	5011	4	0	-100	0	230	101300000	1000	0	0	-1	0
17717523	5010	4	0	-100	0	230	101300000	1000	0	0	-1	0
17730083	5006	4	0	-100	0	230	101300000	1000	0	0	-1	0
17742643	5008	2	0	-100	0	230	101300000	1000	0	0	-1	0
17755203	5008	2	0	-100	0	230	101300000	1000	0	0	-1	0
17767763	5005	2	0	-100	0	230	101300000	1000	0	0	-1	0
17780323	5005	2	0	-100	0	230	101300000	1000	0	0	-1	0
17792883	5004	2	0	-100	0	230	101300000	1000	0	0	-1	0
17805443	5008	4	0	-100	0	230	101300000	1000	0	0	-1	0
17818004	5017	0	0	-100	0	230	101300000	1000	0	0	-1	0
17830563	5006	4	0	-100	0	230	101300000	1000	0	0	-1	0
17843123	5008	5	0	-100	0	230	101300000	1000	0	0	-1	0
17855683	5006	6	0	-100	0	230	101300000	1000	0	0	-1	0
17868243	5007	2	0	-100	0	230	101300000	1000	0	0	-1	0
17880803	5010	0	0	-100	0	230	101300000	1000	0	0	-1	0
17893363	5010	0	0	-100	0	230	101300000	1000	0	0	-1	0
17905923	5017	0	0	-100	0	230	101300000	1000	0	0	-1	0
17918483	5015	0	0	-100	0	230	101300000	1000	0	0	-1	0
17931043	5011	0	0	-100	0	230	101300000	1000	0	0	-1	0
17943603	5017	0	0	-100	0	230	101300000	1000	0	0	-1	0
17956163	5018	0	0	-100	0	230	101300000	1000	0	0	-1	0
17968723	5007	4	0	-100	0	230	101300000	1000	0	0	-1	0
17981283	5006	5	0	-100	0	230	101300000	1000	0	0	-1	0
17993843	5005	0	0	-100	0	230	101300000	1000	0	0	-1	0
18006403	5008	0	0	-100	0	230	101300000	1000	0	0	-1	0
18018963	5006	4	0	-100	0	230	101300000	1000	0	0	-1	0
18031523	5008	1	0	-100	0	230	101300000	1000	0	0	-1	0
18044083	5012	0	0	-100	0	230	101300000	1000	0	0	-1	0
18056643	5011	0	0	-100	0	230	101300000	1000	0	0	-1	0
18069203	5014	0	0	-100	0	230	101300000	1000	0	0	-1	0
18081763	5009	0	0	-100	0	230	101300000	1000	0	0	-1	0
18094323	5002	0	0	-100	0	230	101300000	1000	0	0	-1	0
18106883	5010	2	0	-100	0	230	101300000	1000	0	0	-1	0
18119443	5005	4	0	-100	0	230	101300000	1000	0	0	-1	0
18132004	5014	0	0	-100	0	230	101300000	1000	0	0	-1	0
18144563	5014	0	0	-100	0	230	101300000	1000	0	0	-1	0
18157123	5014	0	0	-100	0	230	101300000	1000	0	0	-1	0
18169683	5009	0	0	-100	0	230	101300000	1000	0	0	-1	0
18182243	5006	4	0	-100	0	230	101300000	1000	0	0	-1	0
18194803	5005	4	0	-100	0	230	101300000	1000	0	0	-1	0
18207363	5009	0	0	-100	0	230	101300000	1000	0	0	-1	0
18219923	5016	0	0	-100	0	230	101300000	1000	0	0	-1	0
18232483	5014	0	0	-100	0	230	101300000	1000	0	0	-1	0
18245043	5012	0	0	-100	0	230	101300000	1000	0	0	-1	0
18257603	5011	0	0	-100	0	230	101300000	1000	0	0	-1	0
18270163	5016	0	0	-100	0	230	101300000	1000	0	0	-1	0
18282723	5009	0	0	-100	0	230	101300000	1000	0	0	-1	0
18295283	5005	0	0	-100	0	230	101300000	1000	0	0	-1	0
18307843	5007	2	0	-100	0	230	101300000	1000	0	0	-1	0
18320403	5009	4	0	-100	0	230	101300000	1000	0	0	-1	0
18332963	5002	1	0	-100	0	230	101300000	1000	0	0	-1	0
18345523	5006	0	0	-100	0	230	101300000	1000	0	0	-1	0
18358083	5010	0	0	-100	0	230	101300000	1000	0	0	-1	0
18370643	5013	0	0	-100	0	230	101300000	1000	0	0	-1	0
18383203	5012	0	0	-100	0	230	101300000	1000	0	0	-1	0
18395763	5014	0	0	-100	0	230	101300000	1000	0	0	-1	0
18408323	5010	0	0	-100	0	230	101300000	1000	0	0	-1	0
18420883	5009	0	0	-100	0	230	101300000	1000	0	0	-1	0
18433443	5009	0	0	-100	0	230	101300000	1000	0	0	-1	0
18446004	5016	0	0	-100	0	230	101300000	1000	0	0	-1	0
18458563	5009	0	0	-100	0	230	101300000	1000	0	0	-1	0
18471123	5005	0	0	-100	0	230	101300000	1000	0	0	-1	0
18483683	5009	5	0	-100	0	230	101300000	1000	0	0	-1	0
18496243	5002	2	0	-100	0	230	101300000	1000	0	0	-1	0
18508803	5016	0	0	-100	0	230	101300000	1000	0	0	-1	0
18521363	5015	0	0	-100	0	230	101300000	1000	0	0	-1	0
18533923	5006	1	0	-100	0	230	101300000	1000	0	0	-1	0
18546483	5005	1	0	-100	0	230	101300000	1000	0	0	-1	0
18559043	5012	0	0	-100	0	230	101300000	1000	0	0	-1	0
18571603	5012	0	0	-100	0	230	101300000	1000	0	0	-1	0
18584163	5012	0	0	-100	0	230	101300000	1000	0	0	-1	0
18596723	5008	4	0	-100	0	230	101300000	1000	0	0	-1	0
18609283	5010	0	0	-100	0	230	101300000	1000	0	0	-1	0
18621843	5014	0	0	-100	0	230	101300000	1000	0	0	-1	0
18634403	5014	0	0	-100	0	230	101300000	1000	0	0	-1	0
18646963	5006	0	0	-100	0	230	101300000	1000	0	0	-1	0
18659523	5004	0	0	-100	0	230	101300000	1000	0	0	-1	0
18672083	5007	4	0	-100	0	230	101300000	1000	0	0	-1	0
18684643	5005	2	0	-100	0	230	101300000	1000	0	0	-1	0
18697203	5011	0	0	-100	0	230	101300000	1000	0	0	-1	0
18709763	5011	0	0	-100	0	230	101300000	1000	0	0	-1	0
18722323	5006	0	0	-100	0	230	101300000	1000	0	0	-1	0
18734883	5009	3	0	-100	0	230	101300000	1000	0	0	-1	0
18747443	5006	4	0	-100	0	230	101300000	1000	0	0	-1	0
18760004	5015	0	0	-100	0	230	101300000	1000	0	0	-1	0
18772563	5010	0	0	-100	0	230	101300000	1000	0	0	-1	0
18785123	5011	0	0	-100	0	230	101300000	1000	0	0	-1	0
18797683	5014	0	0	-100	0	230	101300000	1000	0	0	-1	0
18810243	5004	0	0	-100	0	230	101300000	1000	0	0	-1	0
18822803	5004	0	0	-100	0	230	101300000	1000	0	0	-1	0
18835363	5005	4	0	-100	0	230	101300000	1000	0	0	-1	0
18847923	5005	1	0	-100	0	230	101300000	1000	0	0	-1	0
18860483	5009	0	0	-100	0	230	101300000	1000	0	0	-1	0
18873043	5011	0	0	-100	0	230	101300000	1000	0	0	-1	0
18885603	5017	0	0	-100	0	230	101300000	1000	0	0	-1	0
18898163	5021	0	0	-100	0	230	101300000	1000	0	0	-1	0
18910723	5009	0	0	-100	0	230	101300000	1000	0	0	-1	0
18923283	5005	0	0	-100	0	230	101300000	1000	0	0	-1	0
18935843	5008	4	0	-100	0	230	101300000	1000	0	0	-1	0
18948403	5008	3	0	-100	0	230	101300000	1000	0	0	-1	0
18960963	5011	0	0	-100	0	230	101300000	1000	0	0	-1	0
18973523	5011	0	0	-100	0	230	101300000	1000	0	0	-1	0
18986083	5007	0	0	-100	0	230	101300000	1000	0	0	-1	0
18998643	5005	1	0	-100	0	230	101300000	1000	0	0	-1	0
19011203	5010	0	0	-100	0	230	101300000	1000	0	0	-1	0
19023763	5009	4	0	-100	0	230	101300000	1000	0	0	-1	0
19036323	5008	2	0	-100	0	230	101300000	1000	0	0	-1	0
19048883	5011	0	0	-100	0	230	101300000	1000	0	0	-1	0
19061443	5010	0	0	-100	0	230	101300000	1000	0	0	-1	0
19074004	5019	0	0	-100	0	230	101300000	1000	0	0	-1	0
19086563	5008	4	0	-100	0	230	101300000	1000	0	0	-1	0
19099123	5009	3	0	-100	0	230	101300000	1000	0	0	-1	0
19111683	5014	0	0	-100	0	230	101300000	1000	0	0	-1	0
19124243	5016	0	0	-100	0	230	101300000	1000	0	0	-1	0
19136803	5005	0	0	-100	0	230	101300000	1000	0	0	-1	0
19149363	5005	4	0	-100	0	230	101300000	1000	0	0	-1	0
19161923	5004	2	0	-100	0	230	101300000	1000	0	0	-1	0
19174483	5015	0	0	-100	0	230	101300000	1000	0	0	-1	0
19187043	5011	0	0	-100	0	230	101300000	1000	0	0	-1	0
19199603	5010	0	0	-100	0	230	101300000	1000	0	0	-1	0
19212163	5014	0	0	-100	0	230	101300000	1000	0	0	-1	0
19224723	5006	4	0	-100	0	230	101300000	1000	0	0	-1	0
19237283	5008	1	0	-100	0	230	101300000	1000	0	0	-1	0
19249843	5015	0	0	-100	0	230	101300000	1000	0	0	-1	0
19262403	5012	0	0	-100	0	230	101300000	1000	0	0	-1	0
19274963	5011	0	0	-100	0	230	101300000	1000	0	0	-1	0
19287523	5007	0	0	-100	0	230	101300000	1000	0	0	-1	0
19300083	5010	5	0	-100	0	230	101300000	1000	0	0	-1	0
19312643	5004	0	0	-100	0	230	101300000	1000	0	0	-1	0
19325203	5006	1	0	-100	0	230	101300000	1000	0	0	-1	0
19337763	5010	0	0	-100	0	230	101300000	1000	0	0	-1	0
19350323	5014	0	0	-100	0	230	101300000	1000	0	0	-1	0
19362883	5012	0	0	-100	0	230	101300000	1000	0	0	-1	0
19375443	5011	0	0	-100	0	230	101300000	1000	0	0	-1	0
19388004	5012	0	0	-100	0	230	101300000	1000	0	0	-1	0
19400563	5011	0	0	-100	0	230	101300000	1000	0	0	-1	0
19413123	5004	0	0	-100	0	230	101300000	1000	0	0	-1	0
19425683	5010	3	0	-100	0	230	101300000	1000	0	0	-1	0
19438243	5008	1	0	-100	0	230	101300000	1000	0	0	-1	0
19450803	5012	0	0	-100	0	230	101300000	1000	0	0	-1	0
19463363	5010	0	0	-100	0	230	101300000	1000	0	0	-1	0
19475923	5005	0	0	-100	0	230	101300000	1000	0	0	-1	0
19488483	5006	4	0	-100	0	230	101300000	1000	0	0	-1	0
19501043	5005	1	0	-100	0	230	101300000	1000	0	0	-1	0
19513603	5016	0	0	-100	0	230	101300000	1000	0	0	-1	0
19526163	5018	0	0	-100	0	230	101300000	1000	0	0	-1	0
19538723	5012	0	0	-100	0	230	101300000	1000	0	0	-1	0
19551283	5011	0	0	-100	0	230	101300000	1000	0	0	-1	0
19563843	5010	0	0	-100	0	230	101300000	1000	0	0	-1	0
19576403	5005	0	0	-100	0	230	101300000	1000	0	0	-1	0
19588963	5006	0	0	-100	0	230	101300000	1000	0	0	-1	0
19601523	5006	4	0	-100	0	230	101300000	1000	0	0	-1	0
19614083	5008	0	0	-100	0	230	101300000	1000	0	0	-1	0
19651763	5011	0	0	-100	0	230	101300000	1000	0	0	-1	0
19664323	5011	0	0	-100	0	230	101300000	1000	0	0	-1	0
19676883	5005	0	0	-100	0	230	101300000	1000	0	0	-1	0
19689443	5008	5	0	-100	0	230	101300000	1000	0	0	-1	0
19702004	5012	0	0	-100	0	230	101300000	1000	0	0	-1	0
19714563	5011	0	0	-100	0	230	101300000	1000	0	0	-1	0
19727123	5012	0	0	-100	0	230	101300000	1000	0	0	-1	0
19739683	5014	0	0	-100	0	230	101300000	1000	0	0	-1	0
19752243	5007	0	0	-100	0	230	101300000	1000	0	0	-1	0
19764803	5007	0	0	-100	0	230	101300000	1000	0	0	-1	0
19777363	5008	4	0	-100	0	230	101300000	1000	0	0	-1	0
19789923	5005	1	0	-100	0	230	101300000	1000	0	0	-1	0
19852723	5006	0	0	-100	0	230	101300000	1000	0	0	-1	0
19865283	5008	0	0	-100	0	230	101300000	1000	0	0	-1	0
19877843	5009	4	0	-100	0	230	101300000	1000	0	0	-1	0
19890403	5005	4	0	-100	0	230	101300000	1000	0	0	-1	0
19902963	5004	1	0	-100	0	230	101300000	1000	0	0	-1	0
19915523	5006	0	0	-100	0	230	101300000	1000	0	0	-1	0
19928083	5011	0	0	-100	0	230	101300000	1000	0	0	-1	0
19940643	5014	0	0	-100	0	230	101300000	1000	0	0	-1	0
19953203	5008	3	0	-100	0	230	101300000	1000	0	0	-1	0
19965763	5006	2	0	-100	0	230	101300000	1000	0	0	-1	0
19978323	5009	0	0	-100	0	230	101300000	1000	0	0	-1	0
20016004	5012	0	0	-100	0	230	101300000	1000	0	0	-1	0
20028563	5011	3	0	-100	0	230	101300000	1000	0	0	-1	0
20041123	5010	0	0	-100	0	230	101300000	1000	0	0	-1	0
20053683	5012	0	0	-100	0	230	101300000	1000	0	0	-1	0
20066243	5005	2	0	-100	0	230	101300000	1000	0	0	-1	0
20078803	5012	0	0	-100	0	230	101300000	1000	0	0	-1	0
20091363	5005	4	0	-100	0	230	101300000	1000	0	0	-1	0
20103923	5012	0	0	-100	0	230	101300000	1000	0	0	-1	0
20116483	5009	4	0	-100	0	230	101300000	1000	0	0	-1	0
20129043	5013	0	0	-100	0	230	101300000	1000	0	0	-1	0
20141603	5007	4	0	-100	0	230	101300000	1000	0	0	-1	0
20154163	5018	0	0	-100	0	230	101300000	1000	0	0	-1	0
20166723	5007	0	0	-100	0	230	101300000	1000	0	0	-1	0
20179283	5010	1	0	-100	0	230	101300000	1000	0	0	-1	0
20191843	5015	0	0	-100	0	230	101300000	1000	0	0	-1	0
20204403	5010	0	0	-100	0	230	101300000	1000	0	0	-1	0
20216963	5008	4	0	-100	0	230	101300000	1000	0	0	-1	0
20229523	5010	1	0	-100	0	230	101300000	1000	0	0	-1	0
20242083	5013	0	0	-100	0	230	101300000	1000	0	0	-1	0
20254643	5005	0	0	-100	0	230	101300000	1000	0	0	-1	0
20267203	5009	2	0	-100	0	230	101300000	1000	0	0	-1	0
20279763	5012	0	0	-100	0	230	101300000	1000	0	0	-1	0
20292323	5010	0	0	-100	0	230	101300000	1000	0	0	-1	0
20304883	5008	4	0	-100	0	230	101300000	1000	0	0	-1	0
20317443	5015	0	0	-100	0	230	101300000	1000	0	0	-1	0
20330004	5017	0	0	-100	0	230	101300000	1000	0	0	-1	0
20342563	5006	4	0	-100	0	230	101300000	1000	0	0	-1	0
20355123	5016	0	0	-100	0	230	101300000	1000	0	0	-1	0
20367683	5012	0	0	-100	0	230	101300000	1000	0	0	-1	0
20380243	5006	3	0	-100	0	230	101300000	1000	0	0	-1	0
20392803	5014	0	0	-100	0	230	101300000	1000	0	0	-1	0
20405363	5014	0	0	-100	0	230	101300000	1000	0	0	-1	0
20417923	5008	3	0	-100	0	230	101300000	1000	0	0	-1	0
20430483	5014	0	0	-100	0	230	101300000	1000	0	0	-1	0
20443043	5008	4	0	-100	0	230	101300000	1000	0	0	-1	0
20455603	5015	0	0	-100	0	230	101300000	1000	0	0	-1	0
20468163	5018	0	0	-100	0	230	101300000	1000	0	0	-1	0
20480723	5009	2	0	-100	0	230	101300000	1000	0	0	-1	0
20493283	5006	0	0	-100	0	230	101300000	1000	0	0	-1	0
20505843	5012	0	0	-100	0	230	101300000	1000	0	0	-1	0
20518403	5005	0	0	-100	0	230	101300000	1000	0	0	-1	0
20530963	5009	1	0	-100	0	230	101300000	1000	0	0	-1	0
20543523	5014	0	0	-100	0	230	101300000	1000	0	0	-1	0
20556083	5008	0	0	-100	0	230	101300000	1000	0	0	-1	0
20568643	5006	4	0	-100	0	230	101300000	1000	0	0	-1	0
20581203	5015	0	0	-100	0	230	101300000	1000	0	0	-1	0
20593763	5012	0	0	-100	0	230	101300000	1000	0	0	-1	0
20606323	5011	0	0	-100	0	230	101300000	1000	0	0	-1	0
20618883	5007	0	0	-100	0	230	101300000	1000	0	0	-1	0
20631443	5009	5	0	-100	0	230	101300000	1000	0	0	-1	0
20644004	5015	0	0	-100	0	230	101300000	1000	0	0	-1	0
20656563	5010	0	0	-100	0	230	101300000	1000	0	0	-1	0
20669123	5012	0	0	-100	0	230	101300000	1000	0	0	-1	0
20681683	5009	0	0	-100	0	230	101300000	1000	0	0	-1	0
20694243	5006	2	0	-100	0	230	101300000	1000	0	0	-1	0
20706803	5008	0	0	-100	0	230	101300000	1000	0	0	-1	0
20719363	5007	0	0	-100	0	230	101300000	1000	0	0	-1	0
20731923	5008	3	0	-100	0	230	101300000	1000	0	0	-1	0
20744483	5014	0	0	-100	0	230	101300000	1000	0	0	-1	0
20757043	5011	0	0	-100	0	230	101300000	1000	0	0	-1	0
20769603	5004	0	0	-100	0	230	101300000	1000	0	0	-1	0
20782163	5009	3	0	-100	0	230	101300000	1000	0	0	-1	0
20794723	5009	0	0	-100	0	230	101300000	1000	0	0	-1	0
20807283	5010	0	0	-100	0	230	101300000	1000	0	0	-1	0
20819843	5007	0	0	-100	0	230	101300000	1000	0	0	-1	0
20832403	5009	1	0	-100	0	230	101300000	1000	0	0	-1	0
20844963	5005	1	0	-100	0	230	101300000	1000	0	0	-1	0
20857523	5012	0	0	-100	0	230	101300000	1000	0	0	-1	0
20870083	5017	0	0	-100	0	230	101300000	1000	0	0	-1	0
20882643	5006	0	0	-100	0	230	101300000	1000	0	0	-1	0
20895203	5008	4	0	-100	0	230	101300000	1000	0	0	-1	0
20907763	5011	0	0	-100	0	230	101300000	1000	0	0	-1	0
20920323	5014	0	0	-100	0	230	101300000	1000	0	0	-1	0
20932883	5010	6	0	-100	0	230	101300000	1000	0	0	-1	0
20945443	5011	0	0	-100	0	230	101300000	1000	0	0	-1	0
20958004	5015	0	0	-100	0	230	101300000	1000	0	0	-1	0
20970563	5011	4	0	-100	0	230	101300000	1000	0	0	-1	0
20983123	5009	0	0	-100	0	230	101300000	1000	0	0	-1	0
20995683	5014	0	0	-100	0	230	101300000	1000	0	0	-1	0
21008243	5006	1	0	-100	0	230	101300000	1000	0	0	-1	0
21020803	5008	0	0	-100	0	230	101300000	1000	0	0	-1	0
21033363	5012	0	0	-100	0	230	101300000	1000	0	0	-1	0
21045923	5009	5	0	-100	0	230	101300000	1000	0	0	-1	0
21058483	5008	0	0	-100	0	230	101300000	1000	0	0	-1	0
21071043	5008	0	0	-100	0	230	101300000	1000	0	0	-1	0
21083603	5005	0	0	-100	0	230	101300000	1000	0	0	-1	0
21096163	5012	2	0	-100	0	230	101300000	1000	0	0	-1	0
21108723	5017	0	0	-100	0	230	101300000	1000	0	0	-1	0
21121283	5010	0	0	-100	0	230	101300000	1000	0	0	-1	0
21133843	5007	0	0	-100	0	230	101300000	1000	0	0	-1	0
21146403	5009	2	0	-100	0	230	101300000	1000	0	0	-1	0
21158963	5014	0	0	-100	0	230	101300000	1000	0	0	-1	0
21171523	5005	0	0	-100	0	230	101300000	1000	0	0	-1	0
21184083	5006	3	0	-100	0	230	101300000	1000	0	0	-1	0
21196643	5016	0	0	-100	0	230	101300000	1000	0	0	-1	0
21209203	5014	0	0	-100	0	230	101300000	1000	0	0	-1	0
21221763	5006	0	0	-100	0	230	101300000	1000	0	0	-1	0
21234323	5005	1	0	-100	0	230	101300000	1000	0	0	-1	0
21246883	5015	0	0	-100	0	230	101300000	1000	0	0	-1	0
21259443	5007	0	0	-100	0	230	101300000	1000	0	0	-1	0
21272004	5017	0	0	-100	0	230	101300000	1000	0	0	-1	0
21284563	5005	2	0	-100	0	230	101300000	1000	0	0	-1	0
21297123	5012	0	0	-100	0	230	101300000	1000	0	0	-1	0
21309683	5010	0	0	-100	0	230	101300000	1000	0	0	-1	0
21322243	5007	0	0	-100	0	230	101300000	1000	0	0	-1	0
21334803	5008	3	0	-100	0	230	101300000	1000	0	0	-1	0
21347363	5010	0	0	-100	0	230	101300000	1000	0	0	-1	0
21359923	5012	0	0	-100	0	230	101300000	1000	0	0	-1	0
21372483	5013	0	0	-100	0	230	101300000	1000	0	0	-1	0
21385043	5011	0	0	-100	0	230	101300000	1000	0	0	-1	0
21397603	5006	0	0	-100	0	230	101300000	1000	0	0	-1	0
21410163	5015	3	0	-100	0	230	101300000	1000	0	0	-1	0
21422723	5008	3	0	-100	0	230	101300000	1000	0	0	-1	0
21435283	5006	4	0	-100	0	230	101300000	1000	0	0	-1	0
21447843	5008	0	0	-100	0	230	101300000	1000	0	0	-1	0
21460403	5010	0	0	-100	0	230	101300000	1000	0	0	-1	0
21472963	5016	0	0	-100	0	230	101300000	1000	0	0	-1	0
21485523	5014	0	0	-100	0	230	101300000	1000	0	0	-1	0
21498083	5015	0	0	-100	0	230	101300000	1000	0	0	-1	0
21510643	5009	0	0	-100	0	230	101300000	1000	0	0	-1	0
21523203	5006	0	0	-100	0	230	101300000	1000	0	0	-1	0
21535763	5002	0	0	-100	0	230	101300000	1000	0	0	-1	0
21548323	5008	4	0	-100	0	230	101300000	1000	0	0	-1	0
21560883	5008	0	0	-100	0	230	101300000	1000	0	0	-1	0
21573443	5015	0	0	-100	0	230	101300000	1000	0	0	-1	0
21586004	5012	0	0	-100	0	230	101300000	1000	0	0	-1	0
21598563	5005	0	0	-100	0	230	101300000	1000	0	0	-1	0
21611123	5007	0	0	-100	0	230	101300000	1000	0	0	-1	0
21623683	5008	4	0	-100	0	230	101300000	1000	0	0	-1	0
21636243	5007	1	0	-100	0	230	101300000	1000	0	0	-1	0
21648803	5016	0	0	-100	0	230	101300000	1000	0	0	-1	0
21661363	5011	0	0	-100	0	230	101300000	1000	0	0	-1	0
21673923	5006	0	0	-100	0	230	101300000	1000	0	0	-1	0
21686483	5009	0	0	-100	0	230	101300000	1000	0	0	-1	0
21699043	5006	4	0	-100	0	230	101300000	1000	0	0	-1	0
21711603	5007	2	0	-100	0	230	101300000	1000	0	0	-1	0
21724163	5023	0	0	-100	0	230	101300000	1000	0	0	-1	0
21736723	5012	0	0	-100	0	230	101300000	1000	0	0	-1	0
21749283	5009	0	0	-100	0	230	101300000	1000	0	0	-1	0
21761843	5010	2	0	-100	0	230	101300000	1000	0	0	-1	0
21774403	5006	3	0	-100	0	230	101300000	1000	0	0	-1	0
21786963	5009	0	0	-100	0	230	101300000	1000	0	0	-1	0
21799523	5015	0	0	-100	0	230	101300000	1000	0	0	-1	0
21812083	5009	0	0	-100	0	230	101300000	1000	0	0	-1	0
21824643	5006	0	0	-100	0	230	101300000	1000	0	0	-1	0
21837203	5004	0	0	-100	0	230	101300000	1000	0	0	-1	0
21849763	5009	1	0	-100	0	230	101300000	1000	0	0	-1	0
21862323	5007	5	0	-100	0	230	101300000	1000	0	0	-1	0
21874883	5009	3	0	-100	0	230	101300000	1000	0	0	-1	0
21887443	5012	0	0	-100	0	230	101300000	1000	0	0	-1	0
21900004	5011	0	0	-100	0	230	101300000	1000	0	0	-1	0
21912563	5005	0	0	-100	0	230	101300000	1000	0	0	-1	0
21925123	5009	1	0	-100	0	230	101300000	1000	0	0	-1	0
21937683	5012	0	0	-100	0	230	101300000	1000	0	0	-1	0
21950243	5009	5	0	-100	0	230	101300000	1000	0	0	-1	0
21962803	5015	0	0	-100	0	230	101300000	1000	0	0	-1	0
21975363	5007	0	0	-100	0	230	101300000	1000	0	0	-1	0
21987923	5006	4	0	-100	0	230	101300000	1000	0	0	-1	0
22000483	5015	0	0	-100	0	230	101300000	1000	0	0	-1	0
22013043	5007	0	0	-100	0	230	101300000	1000	0	0	-1	0
22025603	5007	0	0	-100	0	230	101300000	1000	0	0	-1	0
22038163	5014	3	0	-100	0	230	101300000	1000	0	0	-1	0
22050723	5014	0	0	-100	0	230	101300000	1000	0	0	-1	0
22063283	5014	0	0	-100	0	230	101300000	1000	0	0	-1	0
22075843	5005	0	0	-100	0	230	101300000	1000	0	0	-1	0
22088403	5006	3	0	-100	0	230	101300000	1000	0	0	-1	0
22100963	5016	0	0	-100	0	230	101300000	1000	0	0	-1	0
22113523	5012	0	0	-100	0	230	101300000	1000	0	0	-1	0
22126083	5004	0	0	-100	0	230	101300000	1000	0	0	-1	0
22138643	5005	4	0	-100	0	230	101300000	1000	0	0	-1	0
22151203	5011	0	0	-100	0	230	101300000	1000	0	0	-1	0
22163763	5010	0	0	-100	0	230	101300000	1000	0	0	-1	0
22176323	5006	0	0	-100	0	230	101300000	1000	0	0	-1	0
22188883	5008	4	0	-100	0	230	101300000	1000	0	0	-1	0
22201443	5012	0	0	-100	0	230	101300000	1000	0	0	-1	0
22214004	5011	0	0	-100	0	230	101300000	1000	0	0	-1	0
22226563	5006	0	0	-100	0	230	101300000	1000	0	0	-1	0
22239123	5005	2	0	-100	0	230	101300000	1000	0	0	-1	0
22251683	5015	0	0	-100	0	230	101300000	1000	0	0	-1	0
22264243	5005	0	0	-100	0	230	101300000	1000	0	0	-1	0
22276803	5006	3	0	-100	0	230	101300000	1000	0	0	-1	0
22289363	5014	0	0	-100	0	230	101300000	1000	0	0	-1	0
22301923	5013	0	0	-100	0	230	101300000	1000	0	0	-1	0
22314483	5006	0	0	-100	0	230	101300000	1000	0	0	-1	0
22327043	5006	4	0	-100	0	230	101300000	1000	0	0	-1	0
22339603	5008	1	0	-100	0	230	101300000	1000	0	0	-1	0
22352163	5022	0	0	-100	0	230	101300000	1000	0	0	-1	0
22364723	5012	0	0	-100	0	230	101300000	1000	0	0	-1	0
22377283	5015	0	0	-100	0	230	101300000	1000	0	0	-1	0
22389843	5011	0	0	-100	0	230	101300000	1000	0	0	-1	0
22402403	5011	0	0	-100	0	230	101300000	1000	0	0	-1	0
22414963	5009	0	0	-100	0	230	101300000	1000	0	0	-1	0
22427523	5002	0	0	-100	0	230	101300000	1000	0	0	-1	0
22440083	5008	4	0	-100	0	230	101300000	1000	0	0	-1	0
22452643	5006	0	0	-100	0	230	101300000	1000	0	0	-1	0
22465203	5012	0	0	-100	0	230	101300000	1000	0	0	-1	0
22477763	5007	0	0	-100	0	230	101300000	1000	0	0	-1	0
22490323	5009	4	0	-100	0	230	101300000	1000	0	0	-1	0
22502883	5009	0	0	-100	0	230	101300000	1000	0	0	-1	0
22515443	5014	0	0	-100	0	230	101300000	1000	0	0	-1	0
22528004	5018	0	0	-100	0	230	101300000	1000	0	0	-1	0
22540563	5010	6	0	-100	0	230	101300000	1000	0	0	-1	0
22553123	5006	3	0	-100	0	230	101300000	1000	0	0	-1	0
22565683	5014	0	0	-100	0	230	101300000	1000	0	0	-1	0
22578243	5008	0	0	-100	0	230	101300000	1000	0	0	-1	0
22590803	5008	2	0	-100	0	230	101300000	1000	0	0	-1	0
22603363	5015	0	0	-100	0	230	101300000	1000	0	0	-1	0
22615923	5014	0	0	-100	0	230	101300000	1000	0	0	-1	0
22628483	5005	0	0	-100	0	230	101300000	1000	0	0	-1	0
22641043	5009	3	0	-100	0	230	101300000	1000	0	0	-1	0
22653603	5012	0	0	-100	0	230	101300000	1000	0	0	-1	0
22666163	5025	0	0	-100	0	230	101300000	1000	0	0	-1	0
22678723	5006	0	0	-100	0	230	101300000	1000	0	0	-1	0
22691283	5005	0	0	-100	0	230	101300000	1000	0	0	-1	0
22728963	5014	0	0	-100	0	230	101300000	1000	0	0	-1	0
22741523	5010	3	0	-100	0	230	101300000	1000	0	0	-1	0
22754083	5007	1	0	-100	0	230	101300000	1000	0	0	-1	0
22766643	5012	0	0	-100	0	230	101300000	1000	0	0	-1	0
22779203	5005	0	0	-100	0	230	101300000	1000	0	0	-1	0
22791763	5006	1	0	-100	0	230	101300000	1000	0	0	-1	0
22804323	5013	0	0	-100	0	230	101300000	1000	0	0	-1	0
22816883	5012	0	0	-100	0	230	101300000	1000	0	0	-1	0
22829443	5004	0	0	-100	0	230	101300000	1000	0	0	-1	0
22842004	5015	0	0	-100	0	230	101300000	1000	0	0	-1	0
22854563	5009	2	0	-100	0	230	101300000	1000	0	0	-1	0
22917363	5006	4	0	-100	0	230	101300000	1000	0	0	-1	0
22929923	5016	0	0	-100	0	230	101300000	1000	0	0	-1	0
22942483	5011	0	0	-100	0	230	101300000	1000	0	0	-1	0
22955043	5008	0	0	-100	0	230	101300000	1000	0	0	-1	0
22967603	5007	6	0	-100	0	230	101300000	1000	0	0	-1	0
22980163	5011	1	0	-100	0	230	101300000	1000	0	0	-1	0
22992723	5014	0	0	-100	0	230	101300000	1000	0	0	-1	0
23005283	5009	0	0	-100	0	230	101300000	1000	0	0	-1	0
23017843	5008	4	0	-100	0	230	101300000	1000	0	0	-1	0
23030403	5017	0	0	-100	0	230	101300000	1000	0	0	-1	0
23042963	5011	0	0	-100	0	230	101300000	1000	0	0	-1	0
23055523	5009	0	0	-100	0	230	101300000	1000	0	0	-1	0
23068083	5009	1	0	-100	0	230	101300000	1000	0	0	-1	0
23080643	5015	0	0	-100	0	230	101300000	1000	0	0	-1	0
23093203	5009	0	0	-100	0	230	101300000	1000	0	0	-1	0
23105763	5006	4	0	-100	0	230	101300000	1000	0	0	-1	0
23118323	5012	0	0	-100	0	230	101300000	1000	0	0	-1	0
23130883	5009	0	0	-100	0	230	101300000	1000	0	0	-1	0
23143443	5004	0	0	-100	0	230	101300000	1000	0	0	-1	0
23156004	5012	0	0	-100	0	230	101300000	1000	0	0	-1	0
23168563	5012	0	0	-100	0	230	101300000	1000	0	0	-1	0
23181123	5005	0	0	-100	0	230	101300000	1000	0	0	-1	0
23193683	5010	0	0	-100	0	230	101300000	1000	0	0	-1	0
23206243	5011	0	0	-100	0	230	101300000	1000	0	0	-1	0
23218803	5006	4	0	-100	0	230	101300000	1000	0	0	-1	0
23231363	5011	0	0	-100	0	230	101300000	1000	0	0	-1	0
23243923	5005	0	0	-100	0	230	101300000	1000	0	0	-1	0
23256483	5005	3	0	-100	0	230	101300000	1000	0	0	-1	0
23269043	5014	0	0	-100	0	230	101300000	1000	0	0	-1	0
23281603	5006	0	0	-100	0	230	101300000	1000	0	0	-1	0
23294163	5014	4	0	-100	0	230	101300000	1000	0	0	-1	0
23306723	5005	2	0	-100	0	230	101300000	1000	0	0	-1	0
23319283	5011	0	0	-100	0	230	101300000	1000	0	0	-1	0
23331843	5010	0	0	-100	0	230	101300000	1000	0	0	-1	0
23344403	5006	0	0	-100	0	230	101300000	1000	0	0	-1	0
23356963	5008	4	0	-100	0	230	101300000	1000	0	0	-1	0
23369523	5010	0	0	-100	0	230	101300000	1000	0	0	-1	0
23382083	5012	0	0	-100	0	230	101300000	1000	0	0	-1	0
23394643	5004	0	0	-100	0	230	101300000	1000	0	0	-1	0
23407203	5009	4	0	-100	0	230	101300000	1000	0	0	-1	0
23419763	5009	0	0	-100	0	230	101300000	1000	0	0	-1	0
23432323	5013	0	0	-100	0	230	101300000	1000	0	0	-1	0
23444883	5011	0	0	-100	0	230	101300000	1000	0	0	-1	0
23457443	5010	0	0	-100	0	230	101300000	1000	0	0	-1	0
23470004	5021	0	0	-100	0	230	101300000	1000	0	0	-1	0
23482563	5004	0	0	-100	0	230	101300000	1000	0	0	-1	0
23495123	5007	2	0	-100	0	230	101300000	1000	0	0	-1	0
23507683	5005	4	0	-100	0	230	101300000	1000	0	0	-1	0
23520243	5008	0	0	-100	0	230	101300000	1000	0	0	-1	0
23532803	5012	0	0	-100	0	230	101300000	1000	0	0	-1	0
23545363	5011	0	0	-100	0	230	101300000	1000	0	0	-1	0
23557923	5011	0	0	-100	0	230	101300000	1000	0	0	-1	0
23570483	5007	0	0	-100	0	230	101300000	1000	0	0	-1	0
23583043	5005	0	0	-100	0	230	101300000	1000	0	0	-1	0
23595603	5012	0	0	-100	0	230	101300000	1000	0	0	-1	0
23608163	5011	0	0	-100	0	230	101300000	1000	0	0	-1	0
23620723	5007	3	0	-100	0	230	101300000	1000	0	0	-1	0
23633283	5012	0	0	-100	0	230	101300000	1000	0	0	-1	0
23645843	5011	0	0	-100	0	230	101300000	1000	0	0	-1	0
23658403	5005	2	0	-100	0	230	101300000	1000	0	0	-1	0
23670963	5006	0	0	-100	0	230	101300000	1000	0	0	-1	0
23683523	5015	0	0	-100	0	230	101300000	1000	0	0	-1	0
23696083	5007	0	0	-100	0	230	101300000	1000	0	0	-1	0
23708643	5006	0	0	-100	0	230	101300000	1000	0	0	-1	0
23721203	5008	4	0	-100	0	230	101300000	1000	0	0	-1	0
23733763	5014	0	0	-100	0	230	101300000	1000	0	0	-1	0
23746323	5016	0	0	-100	0	230	101300000	1000	0	0	-1	0
23758883	5009	0	0	-100	0	230	101300000	1000	0	0	-1	0
23771443	5009	4	0	-100	0	230	101300000	1000	0	0	-1	0
23784004	5014	2	0	-100	0	230	101300000	1000	0	0	-1	0
23796563	5014	0	0	-100	0	230	101300000	1000	0	0	-1	0
23809123	5011	0	0	-100	0	230	101300000	1000	0	0	-1	0
23821683	5009	4	0	-100	0	230	101300000	1000	0	0	-1	0
23834243	5010	0	0	-100	0	230	101300000	1000	0	0	-1	0
23846803	5013	0	0	-100	0	230	101300000	1000	0	0	-1	0
23859363	5010	0	0	-100	0	230	101300000	1000	0	0	-1	0
23871923	5005	0	0	-100	0	230	101300000	1000	0	0	-1	0
23884483	5005	4	0	-100	0	230	101300000	1000	0	0	-1	0
23897043	5010	0	0	-100	0	230	101300000	1000	0	0	-1	0
23909603	5012	0	0	-100	0	230	101300000	1000	0	0	-1	0
23922163	5017	1	0	-100	0	230	101300000	1000	0	0	-1	0
23934723	5008	0	0	-100	0	230	101300000	1000	0	0	-1	0
23947283	5012	0	0	-100	0	230	101300000	1000	0	0	-1	0
23959843	5011	0	0	-100	0	230	101300000	1000	0	0	-1	0
23972403	5006	0	0	-100	0	230	101300000	1000	0	0	-1	0
23984963	5008	3	0	-100	0	230	101300000	1000	0	0	-1	0
23997523	5015	0	0	-100	0	230	101300000	1000	0	0	-1	0
24010083	5011	0	0	-100	0	230	101300000	1000	0	0	-1	0
24022643	5009	0	0	-100	0	230	101300000	1000	0	0	-1	0
24035203	5007	0	0	-100	0	230	101300000	1000	0	0	-1	0
24047763	5010	1	0	-100	0	230	101300000	1000	0	0	-1	0
24060323	5005	4	0	-100	0	230	101300000	1000	0	0	-1	0
24072883	5007	6	0	-100	0	230	101300000	1000	0	0	-1	0
24085443	5008	1	0	-100	0	230	101300000	1000	0	0	-1	0
24098004	5015	0	0	-100	0	230	101300000	1000	0	0	-1	0
24110563	5006	1	0	-100	0	230	101300000	1000	0	0	-1	0
24123123	5008	0	0	-100	0	230	101300000	1000	0	0	-1	0
24135683	5006	1	0	-100	0	230	101300000	1000	0	0	-1	0
24148243	5005	2	0	-100	0	230	101300000	1000	0	0	-1	0
24160803	5008	2	0	-100	0	230	101300000	1000	0	0	-1	0
24173363	5004	2	0	-100	0	230	101300000	1000	0	0	-1	0
24185923	5008	0	0	-100	0	230	101300000	1000	0	0	-1	0
24198483	5009	0	0	-100	0	230	101300000	1000	0	0	-1	0
24211043	5009	0	0	-100	0	230	101300000	1000	0	0	-1	0
24223603	5016	0	0	-100	0	230	101300000	1000	0	0	-1	0
24236163	5018	0	0	-100	0	230	101300000	1000	0	0	-1	0
24248723	5005	0	0	-100	0	230	101300000	1000	0	0	-1	0
24261283	5005	0	0	-100	0	230	101300000	1000	0	0	-1	0
24273843	5010	3	0	-100	0	230	101300000	1000	0	0	-1	0
24286403	5005	4	0	-100	0	230	101300000	1000	0	0	-1	0
24298963	5005	4	0	-100	0	230	101300000	1000	0	0	-1	0
24311523	5004	4	0	-100	0	230	101300000	1000	0	0	-1	0
24324083	5005	4	0	-100	0	230	101300000	1000	0	0	-1	0
24336643	5008	0	0	-100	0	230	101300000	1000	0	0	-1	0
24349203	5006	3	0	-100	0	230	101300000	1000	0	0	-1	0
24361763	5004	1	0	-100	0	230	101300000	1000	0	0	-1	0
24374323	5006	2	0	-100	0	230	101300000	1000	0	0	-1	0
24386883	5008	1	0	-100	0	230	101300000	1000	0	0	-1	0
24399443	5012	0	0	-100	0	230	101300000	1000	0	0	-1	0
24412004	5012	3	0	-100	0	230	101300000	1000	0	0	-1	0
24424563	5009	0	0	-100	0	230	101300000	1000	0	0	-1	0
24437123	5005	0	0	-100	0	230	101300000	1000	0	0	-1	0
24449683	5009	4	0	-100	0	230	101300000	1000	0	0	-1	0
24462243	5004	4	0	-100	0	230	101300000	1000	0	0	-1	0
24474803	5006	2	0	-100	0	230	101300000	1000	0	0	-1	0
24487363	5006	1	0	-100	0	230	101300000	1000	0	0	-1	0
24499923	5009	2	0	-100	0	230	101300000	1000	0	0	-1	0
24512483	5009	0	0	-100	0	230	101300000	1000	0	0	-1	0
24525043	5015	0	0	-100	0	230	101300000	1000	0	0	-1	0
24537603	5014	0	0	-100	0	230	101300000	1000	0	0	-1	0
24550163	5021	0	0	-100	0	230	101300000	1000	0	0	-1	0
24562723	5006	0	0	-100	0	230	101300000	1000	0	0	-1	0
24575283	5004	0	0	-100	0	230	101300000	1000	0	0	-1	0
24587843	5008	4	0	-100	0	230	101300000	1000	0	0	-1	0
24600403	5010	1	0	-100	0	230	101300000	1000	0	0	-1	0
24612963	5015	0	0	-100	0	230	101300000	1000	0	0	-1	0
24625523	5014	0	0	-100	0	230	101300000	1000	0	0	-1	0
24638083	5010	0	0	-100	0	230	101300000	1000	0	0	-1	0
24650643	5011	0	0	-100	0	230	101300000	1000	0	0	-1	0
24663203	5004	0	0	-100	0	230	101300000	1000	0	0	-1	0
24675763	5008	4	0	-100	0	230	101300000	1000	0	0	-1	0
24688323	5008	4	0	-100	0	230	101300000	1000	0	0	-1	0
24700883	5004	0	0	-100	0	230	101300000	1000	0	0	-1	0
24713443	5009	0	0	-100	0	230	101300000	1000	0	0	-1	0
24726004	5008	1	0	-100	0	230	101300000	1000	0	0	-1	0
24738563	5008	0	0	-100	0	230	101300000	1000	0	0	-1	0
24751123	5007	0	0	-100	0	230	101300000	1000	0	0	-1	0
24763683	5005	0	0	-100	0	230	101300000	1000	0	0	-1	0
24776243	5005	4	0	-100	0	230	101300000	1000	0	0	-1	0
24788803	5005	4	0	-100	0	230	101300000	1000	0	0	-1	0
24801363	5006	1	0	-100	0	230	101300000	1000	0	0	-1	0
24813923	5016	0	0	-100	0	230	101300000	1000	0	0	-1	0
24826483	5014	0	0	-100	0	230	101300000	1000	0	0	-1	0
24839043	5011	0	0	-100	0	230	101300000	1000	0	0	-1	0
24851603	5009	0	0	-100	0	230	101300000	1000	0	0	-1	0
24864163	5019	3	0	-100	0	230	101300000	1000	0	0	-1	0
24876723	5006	4	0	-100	0	230	101300000	1000	0	0	-1	0
24889283	5008	3	0	-100	0	230	101300000	1000	0	0	-1	0
24901843	5004	4	0	-100	0	230	101300000	1000	0	0	-1	0
24914403	5007	0	0	-100	0	230	101300000	1000	0	0	-1	0
24926963	5015	0	0	-100	0	230	101300000	1000	0	0	-1	0
24939523	5012	0	0	-100	0	230	101300000	1000	0	0	-1	0
24952083	5012	0	0	-100	0	230	101300000	1000	0	0	-1	0
24964643	5008	0	0	-100	0	230	101300000	1000	0	0	-1	0
24977203	5009	0	0	-100	0	230	101300000	1000	0	0	-1	0
24989763	5006	0	0	-100	0	230	101300000	1000	0	0	-1	0
25002323	5005	0	0	-100	0	230	101300000	1000	0	0	-1	0
25014883	5006	4	0	-100	0	230	101300000	1000	0	0	-1	0
25027443	5005	4	0	-100	0	230	101300000	1000	0	0	-1	0
25040004	5010	0	0	-100	0	230	101300000	1000	0	0	-1	0
25052563	5010	0	0	-100	0	230	101300000	1000	0	0	-1	0
25065123	5012	0	0	-100	0	230	101300000	1000	0	0	-1	0
25077683	5012	0	0	-100	0	230	101300000	1000	0	0	-1	0
25090243	5007	0	0	-100	0	230	101300000	1000	0	0	-1	0
25102803	5005	0	0	-100	0	230	101300000	1000	0	0	-1	0
25115363	5010	5	0	-100	0	230	101300000	1000	0	0	-1	0
25127923	5006	0	0	-100	0	230	101300000	1000	0	0	-1	0
25140483	5015	0	0	-100	0	230	101300000	1000	0	0	-1	0
25153043	5009	0	0	-100	0	230	101300000	1000	0	0	-1	0
25165603	5007	0	0	-100	0	230	101300000	1000	0	0	-1	0
25178163	5014	0	0	-100	0	230	101300000	1000	0	0	-1	0
25190723	5008	5	0	-100	0	230	101300000	1000	0	0	-1	0
25203283	5009	4	0	-100	0	230	101300000	1000	0	0	-1	0
25215843	5004	2	0	-100	0	230	101300000	1000	0	0	-1	0
25228403	5006	1	0	-100	0	230	101300000	1000	0	0	-1	0
25240963	5012	0	0	-100	0	230	101300000	1000	0	0	-1	0
25253523	5013	0	0	-100	0	230	101300000	1000	0	0	-1	0
25266083	5011	0	0	-100	0	230	101300000	1000	0	0	-1	0
25278643	5012	0	0	-100	0	230	101300000	1000	0	0	-1	0
25291203	5006	0	0	-100	0	230	101300000	1000	0	0	-1	0
25303763	5004	0	0	-100	0	230	101300000	1000	0	0	-1	0
25316323	5007	4	0	-100	0	230	101300000	1000	0	0	-1	0
25328883	5008	1	0	-100	0	230	101300000	1000	0	0	-1	0
25341443	5012	0	0	-100	0	230	101300000	1000	0	0	-1	0
25354004	5011	4	0	-100	0	230	101300000	1000	0	0	-1	0
25366563	5016	0	0	-100	0	230	101300000	1000	0	0	-1	0
25379123	5015	0	0	-100	0	230	101300000	1000	0	0	-1	0
25391683	5012	0	0	-100	0	230	101300000	1000	0	0	-1	0
25404243	5016	0	0	-100	0	230	101300000	1000	0	0	-1	0
25416803	5015	0	0	-100	0	230	101300000	1000	0	0	-1	0
25429363	5012	0	0	-100	0	230	101300000	1000	0	0	-1	0
25441923	5013	0	0	-100	0	230	101300000	1000	0	0	-1	0
25454483	5016	0	0	-100	0	230	101300000	1000	0	0	-1	0
25467043	5016	0	0	-100	0	230	101300000	1000	0	0	-1	0
25479603	5014	0	0	-100	0	230	101300000	1000	0	0	-1	0
25492163	5020	0	0	-100	0	230	101300000	1000	0	0	-1	0
25504723	5016	0	0	-100	0	230	101300000	1000	0	0	-1	0
25517283	5014	0	0	-100	0	230	101300000	1000	0	0	-1	0
25529843	5016	0	0	-100	0	230	101300000	1000	0	0	-1	0
25542403	5014	0	0	-100	0	230	101300000	1000	0	0	-1	0
25554963	5009	0	0	-100	0	230	101300000	1000	0	0	-1	0
25567523	5008	0	0	-100	0	230	101300000	1000	0	0	-1	0
25580083	5008	1	0	-100	0	230	101300000	1000	0	0	-1	0
25592643	5006	3	0	-100	0	230	101300000	1000	0	0	-1	0
25630323	5014	0	0	-100	0	230	101300000	1000	0	0	-1	0
25642883	5013	0	0	-100	0	230	101300000	1000	0	0	-1	0
25655443	5011	0	0	-100	0	230	101300000	1000	0	0	-1	0
25668004	5013	0	0	-100	0	230	101300000	1000	0	0	-1	0
25680563	5009	0	0	-100	0	230	101300000	1000	0	0	-1	0
25693123	5008	4	0	-100	0	230	101300000	1000	0	0	-1	0
25705683	5008	1	0	-100	0	230	101300000	1000	0	0	-1	0
25718243	5010	0	0	-100	0	230	101300000	1000	0	0	-1	0
25730803	5016	0	0	-100	0	230	101300000	1000	0	0	-1	0
25743363	5011	0	0	-100	0	230	101300000	1000	0	0	-1	0
25755923	5009	0	0	-100	0	230	101300000	1000	0	0	-1	0
25768483	5005	0	0	-100	0	230	101300000	1000	0	0	-1	0
25831283	5015	0	0	-100	0	230	101300000	1000	0	0	-1	0
25843843	5011	0	0	-100	0	230	101300000	1000	0	0	-1	0
25856403	5014	0	0	-100	0	230	101300000	1000	0	0	-1	0
25868963	5012	0	0	-100	0	230	101300000	1000	0	0	-1	0
25881523	5005	0	0	-100	0	230	101300000	1000	0	0	-1	0
25894083	5009	0	0	-100	0	230	101300000	1000	0	0	-1	0
25906643	5009	3	0	-100	0	230	101300000	1000	0	0	-1	0
25919203	5008	2	0	-100	0	230	101300000	1000	0	0	-1	0
25931763	5012	0	0	-100	0	230	101300000	1000	0	0	-1	0
25944323	5008	0	0	-100	0	230	101300000	1000	0	0	-1	0
25956883	5005	0	0	-100	0	230	101300000	1000	0	0	-1	0
25969443	5009	3	0	-100	0	230	101300000	1000	0	0	-1	0
26007123	5011	0	0	-100	0	230	101300000	1000	0	0	-1	0
26019683	5006	0	0	-100	0	230	101300000	1000	0	0	-1	0
26032243	5009	4	0	-100	0	230	101300000	1000	0	0	-1	0
26044803	5006	2	0	-100	0	230	101300000	1000	0	0	-1	0
26057363	5015	0	0	-100	0	230	101300000	1000	0	0	-1	0
26069923	5014	0	0	-100	0	230	101300000	1000	0	0	-1	0
26082483	5010	0	0	-100	0	230	101300000	1000	0	0	-1	0
26095043	5006	0	0	-100	0	230	101300000	1000	0	0	-1	0
26107603	5007	3	0	-100	0	230	101300000	1000	0	0	-1	0
26120163	5023	0	0	-100	0	230	101300000	1000	0	0	-1	0
26132723	5009	0	0	-100	0	230	101300000	1000	0	0	-1	0
26145283	5008	4	0	-100	0	230	101300000	1000	0	0	-1	0
26157843	5012	0	0	-100	0	230	101300000	1000	0	0	-1	0
26170403	5006	0	0	-100	0	230	101300000	1000	0	0	-1	0
26182963	5006	4	0	-100	0	230	101300000	1000	0	0	-1	0
26195523	5015	0	0	-100	0	230	101300000	1000	0	0	-1	0
26208083	5014	0	0	-100	0	230	101300000	1000	0	0	-1	0
26220643	5009	4	0	-100	0	230	101300000	1000	0	0	-1	0
26233203	5005	3	0	-100	0	230	101300000	1000	0	0	-1	0
26245763	5016	0	0	-100	0	230	101300000	1000	0	0	-1	0
26258323	5010	0	0	-100	0	230	101300000	1000	0	0	-1	0
26270883	5012	2	0	-100	0	230	101300000	1000	0	0	-1	0
26283443	5002	2	0	-100	0	230	101300000	1000	0	0	-1	0
26296004	5011	1	0	-100	0	230	101300000	1000	0	0	-1	0
26308563	5009	0	0	-100	0	230	101300000	1000	0	0	-1	0
26321123	5008	3	0	-100	0	230	101300000	1000	0	0	-1	0
26333683	5004	0	0	-100	0	230	101300000	1000	0	0	-1	0
26346243	5014	0	0	-100	0	230	101300000	1000	0	0	-1	0
26358803	5006	0	0	-100	0	230	101300000	1000	0	0	-1	0
26371363	5008	0	0	-100	0	230	101300000	1000	0	0	-1	0
26383923	5011	0	0	-100	0	230	101300000	1000	0	0	-1	0
26396483	5011	0	0	-100	0	230	101300000	1000	0	0	-1	0
26409043	5006	0	0	-100	0	230	101300000	1000	0	0	-1	0
26421603	5008	4	0	-100	0	230	101300000	1000	0	0	-1	0
26434163	5011	1	0	-100	0	230	101300000	1000	0	0	-1	0
26446723	5014	0	0	-100	0	230	101300000	1000	0	0	-1	0
26459283	5011	0	0	-100	0	230	101300000	1000	0	0	-1	0
26471843	5002	0	0	-100	0	230	101300000	1000	0	0	-1	0
26484403	5006	3	0	-100	0	230	101300000	1000	0	0	-1	0
26496963	5010	0	0	-100	0	230	101300000	1000	0	0	-1	0
26509523	5016	0	0	-100	0	230	101300000	1000	0	0	-1	0
26522083	5012	0	0	-100	0	230	101300000	1000	0	0	-1	0
26534643	5011	0	0	-100	0	230	101300000	1000	0	0	-1	0
26547203	5010	2	0	-100	0	230	101300000	1000	0	0	-1	0
26559763	5006	3	0	-100	0	230	101300000	1000	0	0	-1	0
26572323	5014	0	0	-100	0	230	101300000	1000	0	0	-1	0
26584883	5014	0	0	-100	0	230	101300000	1000	0	0	-1	0
26597443	5011	0	0	-100	0	230	101300000	1000	0	0	-1	0
26610004	5020	0	0	-100	0	230	101300000	1000	0	0	-1	0
26622563	5006	0	0	-100	0	230	101300000	1000	0	0	-1	0
26635123	5015	0	0	-100	0	230	101300000	1000	0	0	-1	0
26647683	5006	0	0	-100	0	230	101300000	1000	0	0	-1	0
26660243	5009	3	0	-100	0	230	101300000	1000	0	0	-1	0
26672803	5015	0	0	-100	0	230	101300000	1000	0	0	-1	0
26685363	5012	0	0	-100	0	230	101300000	1000	0	0	-1	0
26697923	5009	0	0	-100	0	230	101300000	1000	0	0	-1	0
26710483	5007	0	0	-100	0	230	101300000	1000	0	0	-1	0
26723043	5009	4	0	-100	0	230	101300000	1000	0	0	-1	0
26735603	5008	1	0	-100	0	230	101300000	1000	0	0	-1	0
26748163	5018	0	0	-100	0	230	101300000	1000	0	0	-1	0
26760723	5014	0	0	-100	0	230	101300000	1000	0	0	-1	0
26773283	5006	0	0	-100	0	230	101300000	1000	0	0	-1	0
26785843	5007	0	0	-100	0	230	101300000	1000	0	0	-1	0
26798403	5006	2	0	-100	0	230	101300000	1000	0	0	-1	0
26810963	5010	0	0	-100	0	230	101300000	1000	0	0	-1	0
26823523	5012	0	0	-100	0	230	101300000	1000	0	0	-1	0
26836083	5015	0	0	-100	0	230	101300000	1000	0	0	-1	0
26848643	5004	0	0	-100	0	230	101300000	1000	0	0	-1	0
26861203	5009	4	0	-100	0	230	101300000	1000	0	0	-1	0
26873763	5012	0	0	-100	0	230	101300000	1000	0	0	-1	0
26886323	5015	0	0	-100	0	230	101300000	1000	0	0	-1	0
26898883	5010	0	0	-100	0	230	101300000	1000	0	0	-1	0
26911443	5008	0	0	-100	0	230	101300000	1000	0	0	-1	0
26924004	5017	0	0	-100	0	230	101300000	1000	0	0	-1	0
26936563	5004	2	0	-100	0	230	101300000	1000	0	0	-1	0
26949123	5015	0	0	-100	0	230	101300000	1000	0	0	-1	0
26961683	5008	0	0	-100	0	230	101300000	1000	0	0	-1	0
26974243	5010	4	0	-100	0	230	101300000	1000	0	0	-1	0
26986803	5006	0	0	-100	0	230	101300000	1000	0	0	-1	0
26999363	5012	0	0	-100	0	230	101300000	1000	0	0	-1	0
27011923	5006	0	0	-100	0	230	101300000	1000	0	0	-1	0
27024483	5005	1	0	-100	0	230	101300000	1000	0	0	-1	0
27037043	5012	0	0	-100	0	230	101300000	1000	0	0	-1	0
27049603	5008	0	0	-100	0	230	101300000	1000	0	0	-1	0
27062163	5012	0	0	-100	0	230	101300000	1000	0	0	-1	0
27074723	5005	3	0	-100	0	230	101300000	1000	0	0	-1	0
27087283	5016	0	0	-100	0	230	101300000	1000	0	0	-1	0
27099843	5012	0	0	-100	0	230	101300000	1000	0	0	-1	0
27112403	5006	1	0	-100	0	230	101300000	1000	0	0	-1	0
27124963	5006	3	0	-100	0	230	101300000	1000	0	0	-1	0
27137523	5008	0	0	-100	0	230	101300000	1000	0	0	-1	0
27150083	5017	0	0	-100	0	230	101300000	1000	0	0	-1	0
27162643	5007	0	0	-100	0	230	101300000	1000	0	0	-1	0
27175203	5009	4	0	-100	0	230	101300000	1000	0	0	-1	0
27187763	5009	0	0	-100	0	230	101300000	1000	0	0	-1	0
27200323	5012	0	0	-100	0	230	101300000	1000	0	0	-1	0
27212883	5007	0	0	-100	0	230	101300000	1000	0	0	-1	0
27225443	5007	4	0	-100	0	230	101300000	1000	0	0	-1	0
27238004	5012	0	0	-100	0	230	101300000	1000	0	0	-1	0
27250563	5010	0	0	-100	0	230	101300000	1000	0	0	-1	0
27263123	5012	0	0	-100	0	230	101300000	1000	0	0	-1	0
27275683	5011	0	0	-100	0	230	101300000	1000	0	0	-1	0
27288243	5001	0	0	-100	0	230	101300000	1000	0	0	-1	0
27300803	5008	4	0	-100	0	230	101300000	1000	0	0	-1	0
27313363	5006	1	0	-100	0	230	101300000	1000	0	0	-1	0
27325923	5012	0	0	-100	0	230	101300000	1000	0	0	-1	0
27338483	5006	0	0	-100	0	230	101300000	1000	0	0	-1	0
27351043	5008	4	0	-100	0	230	101300000	1000	0	0	-1	0
27363603	5009	0	0	-100	0	230	101300000	1000	0	0	-1	0
27376163	5022	0	0	-100	0	230	101300000	1000	0	0	-1	0
27388723	5009	0	0	-100	0	230	101300000	1000	0	0	-1	0
27401283	5007	4	0	-100	0	230	101300000	1000	0	0	-1	0
27413843	5008	2	0	-100	0	230	101300000	1000	0	0	-1	0
27426403	5008	1	0	-100	0	230	101300000	1000	0	0	-1	0
27438963	5011	0	0	-100	0	230	101300000	1000	0	0	-1	0
27451523	5012	0	0	-100	0	230	101300000	1000	0	0	-1	0
27464083	5012	0	0	-100	0	230	101300000	1000	0	0	-1	0
27476643	5004	0	0	-100	0	230	101300000	1000	0	0	-1	0
27489203	5006	4	0	-100	0	230	101300000	1000	0	0	-1	0
27501763	5010	0	0	-100	0	230	101300000	1000	0	0	-1	0
27514323	5014	0	0	-100	0	230	101300000	1000	0	0	-1	0
27526883	5011	0	0	-100	0	230	101300000	1000	0	0	-1	0
27539443	5005	0	0	-100	0	230	101300000	1000	0	0	-1	0
27552004	5020	0	0	-100	0	230	101300000	1000	0	0	-1	0
27564563	5005	2	0	-100	0	230	101300000	1000	0	0	-1	0
27577123	5016	0	0	-100	0	230	101300000	1000	0	0	-1	0
27589683	5014	0	0	-100	0	230	101300000	1000	0	0	-1	0
27602243	5005	0	0	-100	0	230	101300000	1000	0	0	-1	0
27614803	5008	2	0	-100	0	230	101300000	1000	0	0	-1	0
27627363	5009	0	0	-100	0	230	101300000	1000	0	0	-1	0
27639923	5014	0	0	-100	0	230	101300000	1000	0	0	-1	0
27652483	5008	0	0	-100	0	230	101300000	1000	0	0	-1	0
27665043	5012	1	0	-100	0	230	101300000	1000	0	0	-1	0
27677603	5006	1	0	-100	0	230	101300000	1000	0	0	-1	0
27690163	5016	0	0	-100	0	230	101300000	1000	0	0	-1	0
27702723	5015	0	0	-100	0	230	101300000	1000	0	0	-1	0
27715283	5011	0	0	-100	0	230	101300000	1000	0	0	-1	0
27727843	5006	0	0	-100	0	230	101300000	1000	0	0	-1	0
27740403	5008	2	0	-100	0	230	101300000	1000	0	0	-1	0
27752963	5012	0	0	-100	0	230	101300000	1000	0	0	-1	0
27765523	5012	0	0	-100	0	230	101300000	1000	0	0	-1	0
27778083	5011	0	0	-100	0	230	101300000	1000	0	0	-1	0
27790643	5005	0	0	-100	0	230	101300000	1000	0	0	-1	0
27803203	5009	0	0	-100	0	230	101300000	1000	0	0	-1	0
27815763	5011	0	0	-100	0	230	101300000	1000	0	0	-1	0
27828323	5006	5	0	-100	0	230	101300000	1000	0	0	-1	0
27840883	5008	1	0	-100	0	230	101300000	1000	0	0	-1	0
27853443	5014	0	0	-100	0	230	101300000	1000	0	0	-1	0
27866004	5011	0	0	-100	0	230	101300000	1000	0	0	-1	0
27878563	5011	0	0	-100	0	230	101300000	1000	0	0	-1	0
27891123	5007	0	0	-100	0	230	101300000	1000	0	0	-1	0
27903683	5006	0	0	-100	0	230	101300000	1000	0	0	-1	0
27916243	5006	1	0	-100	0	230	101300000	1000	0	0	-1	0
27928803	5008	4	0	-100	0	230	101300000	1000	0	0	-1	0
27941363	5005	4	0	-100	0	230	101300000	1000	0	0	-1	0
27953923	5010	3	0	-100	0	230	101300000	1000	0	0	-1	0
27966483	5010	0	0	-100	0	230	101300000	1000	0	0	-1	0
27979043	5012	0	0	-100	0	230	101300000	1000	0	0	-1	0
27991603	5015	0	0	-100	0	230	101300000	1000	0	0	-1	0
28004163	5017	0	0	-100	0	230	101300000	1000	0	0	-1	0
28016723	5004	0	0	-100	0	230	101300000	1000	0	0	-1	0
28029283	5002	0	0	-100	0	230	101300000	1000	0	0	-1	0
28041843	5009	1	0	-100	0	230	101300000	1000	0	0	-1	0
28054403	5007	4	0	-100	0	230	101300000	1000	0	0	-1	0
28066963	5009	5	0	-100	0	230	101300000	1000	0	0	-1	0
28079523	5006	3	0	-100	0	230	101300000	1000	0	0	-1	0
28092083	5005	1	0	-100	0	230	101300000	1000	0	0	-1	0
28104643	5010	0	0	-100	0	230	101300000	1000	0	0	-1	0
28117203	5012	0	0	-100	0	230	101300000	1000	0	0	-1	0
28129763	5011	0	0	-100	0	230	101300000	1000	0	0	-1	0
28142323	5007	0	0	-100	0	230	101300000	1000	0	0	-1	0
28154883	5006	3	0	-100	0	230	101300000	1000	0	0	-1	0
28167443	5010	4	0	-100	0	230	101300000	1000	0	0	-1	0
28180004	5012	0	0	-100	0	230	101300000	1000	0	0	-1	0
28192563	5009	2	0	-100	0	230	101300000	1000	0	0	-1	0
28205123	5008	0	0	-100	0	230	101300000	1000	0	0	-1	0
28217683	5015	0	0	-100	0	230	101300000	1000	0	0	-1	0
28230243	5016	0	0	-100	0	230	101300000	1000	0	0	-1	0
28242803	5011	0	0	-100	0	230	101300000	1000	0	0	-1	0
28255363	5004	0	0	-100	0	230	101300000	1000	0	0	-1	0
28267923	5008	1	0	-100	0	230	101300000	1000	0	0	-1	0
28280483	5015	0	0	-100	0	230	101300000	1000	0	0	-1	0
28293043	5016	0	0	-100	0	230	101300000	1000	0	0	-1	0
28305603	5007	0	0	-100	0	230	101300000	1000	0	0	-1	0
28318163	5011	0	0	-100	0	230	101300000	1000	0	0	-1	0
28330723	5009	4	0	-100	0	230	101300000	1000	0	0	-1	0
28343283	5006	4	0	-100	0	230	101300000	1000	0	0	-1	0
28355843	5009	3	0	-100	0	230	101300000	1000	0	0	-1	0
28368403	5007	6	0	-100	0	230	101300000	1000	0	0	-1	0
28380963	5009	4	0	-100	0	230	101300000	1000	0	0	-1	0
28393523	5010	4	0	-100	0	230	101300000	1000	0	0	-1	0
28406083	5007	5	0	-100	0	230	101300000	1000	0	0	-1	0
28418643	5010	4	0	-100	0	230	101300000	1000	0	0	-1	0
28431203	5007	0	0	-100	0	230	101300000	1000	0	0	-1	0
28443763	5006	0	0	-100	0	230	101300000	1000	0	0	-1	0
28456323	5007	0	0	-100	0	230	101300000	1000	0	0	-1	0
28468883	5010	0	0	-100	0	230	101300000	1000	0	0	-1	0
28481443	5008	0	0	-100	0	230	101300000	1000	0	0	-1	0
28494004	5019	0	0	-100	0	230	101300000	1000	0	0	-1	0
28506563	5005	0	0	-100	0	230	101300000	1000	0	0	-1	0
28519123	5007	0	0	-100	0	230	101300000	1000	0	0	-1	0
28531683	5009	0	0	-100	0	230	101300000	1000	0	0	-1	0
28544243	5007	0	0	-100	0	230	101300000	1000	0	0	-1	0
28556803	5006	0	0	-100	0	230	101300000	1000	0	0	-1	0
28569363	5005	0	0	-100	0	230	101300000	1000	0	0	-1	0
28581923	5007	0	0	-100	0	230	101300000	1000	0	0	-1	0
28594483	5005	0	0	-100	0	230	101300000	1000	0	0	-1	0
28607043	5009	0	0	-100	0	230	101300000	1000	0	0	-1	0
28619603	5005	0	0	-100	0	230	101300000	1000	0	0	-1	0
28632163	5016	0	0	-100	0	230	101300000	1000	0	0	-1	0
28644723	5012	0	0	-100	0	230	101300000	1000	0	0	-1	0
28657283	5008	0	0	-100	0	230	101300000	1000	0	0	-1	0
28669843	5014	0	0	-100	0	230	101300000	1000	0	0	-1	0
28682403	5016	0	0	-100	0	230	101300000	1000	0	0	-1	0
28694963	5011	0	0	-100	0	230	101300000	1000	0	0	-1	0
28707523	5014	0	0	-100	0	230	101300000	1000	0	0	-1	0
28720083	5006	1	0	-100	0	230	101300000	1000	0	0	-1	0
28732643	5008	4	0	-100	0	230	101300000	1000	0	0	-1	0
28745203	5011	3	0	-100	0	230	101300000	1000	0	0	-1	0
28757763	5009	5	0	-100	0	230	101300000	1000	0	0	-1	0
28770323	5007	1	0	-100	0	230	101300000	1000	0	0	-1	0
28782883	5006	0	0	-100	0	230	101300000	1000	0	0	-1	0
28795443	5007	0	0	-100	0	230	101300000	1000	0	0	-1	0
28808004	5016	0	0	-100	0	230	101300000	1000	0	0	-1	0
28820563	5011	0	0	-100	0	230	101300000	1000	0	0	-1	0
28833123	5010	0	0	-100	0	230	101300000	1000	0	0	-1	0
28845683	5002	2	0	-100	0	230	101300000	1000	0	0	-1	0
28883363	5007	5	0	-100	0	230	101300000	1000	0	0	-1	0
28895923	5014	0	0	-100	0	230	101300000	1000	0	0	-1	0
28908483	5012	0	0	-100	0	230	101300000	1000	0	0	-1	0
28921043	5010	0	0	-100	0	230	101300000	1000	0	0	-1	0
28933603	5008	0	0	-100	0	230	101300000	1000	0	0	-1	0
28946163	5014	0	0	-100	0	230	101300000	1000	0	0	-1	0
28958723	5006	0	0	-100	0	230	101300000	1000	0	0	-1	0
28971283	5004	1	0	-100	0	230	101300000	1000	0	0	-1	0
28983843	5009	4	0	-100	0	230	101300000	1000	0	0	-1	0
28996403	5009	1	0	-100	0	230	101300000	1000	0	0	-1	0
29008963	5008	0	0	-100	0	230	101300000	1000	0	0	-1	0
29021523	5009	0	0	-100	0	230	101300000	1000	0	0	-1	0
29034083	5007	0	0	-100	0	230	101300000	1000	0	0	-1	0
29046643	5014	0	0	-100	0	230	101300000	1000	0	0	-1	0
29059203	5012	0	0	-100	0	230	101300000	1000	0	0	-1	0
29071763	5012	0	0	-100	0	230	101300000	1000	0	0	-1	0
29084323	5010	1	0	-100	0	230	101300000	1000	0	0	-1	0
29096883	5006	3	0	-100	0	230	101300000	1000	0	0	-1	0
29109443	5007	4	0	-100	0	230	101300000	1000	0	0	-1	0
29122004	5021	0	0	-100	0	230	101300000	1000	0	0	-1	0
29134563	5012	0	0	-100	0	230	101300000	1000	0	0	-1	0
29147123	5011	0	0	-100	0	230	101300000	1000	0	0	-1	0
29159683	5015	0	0	-100	0	230	101300000	1000	0	0	-1	0
29172243	5010	0	0	-100	0	230	101300000	1000	0	0	-1	0
29184803	5008	3	0	-100	0	230	101300000	1000	0	0	-1	0
29197363	5010	4	0	-100	0	230	101300000	1000	0	0	-1	0
29209923	5006	0	0	-100	0	230	101300000	1000	0	0	-1	0
29222483	5006	0	0	-100	0	230	101300000	1000	0	0	-1	0
29235043	5009	0	0	-100	0	230	101300000	1000	0	0	-1	0
29247603	5014	0	0	-100	0	230	101300000	1000	0	0	-1	0
29260163	5020	0	0	-100	0	230	101300000	1000	0	0	-1	0
29272723	5014	0	0	-100	0	230	101300000	1000	0	0	-1	0
29285283	5016	0	0	-100	0	230	101300000	1000	0	0	-1	0
29297843	5011	0	0	-100	0	230	101300000	1000	0	0	-1	0
29310403	5008	0	0	-100	0	230	101300000	1000	0	0	-1	0
29322963	5009	0	0	-100	0	230	101300000	1000	0	0	-1	0
29335523	5005	0	0	-100	0	230	101300000	1000	0	0	-1	0
29348083	5010	4	0	-100	0	230	101300000	1000	0	0	-1	0
29360643	5005	4	0	-100	0	230	101300000	1000	0	0	-1	0
29373203	5006	4	0	-100	0	230	101300000	1000	0	0	-1	0
29385763	5006	4	0	-100	0	230	101300000	1000	0	0	-1	0
29398323	5005	5	0	-100	0	230	101300000	1000	0	0	-1	0
29410883	5006	0	0	-100	0	230	101300000	1000	0	0	-1	0
29423443	5006	0	0	-100	0	230	101300000	1000	0	0	-1	0
29436004	5021	0	0	-100	0	230	101300000	1000	0	0	-1	0
29448563	5011	0	0	-100	0	230	101300000	1000	0	0	-1	0
29461123	5010	0	0	-100	0	230	101300000	1000	0	0	-1	0
29473683	5006	0	0	-100	0	230	101300000	1000	0	0	-1	0
29486243	5008	0	0	-100	0	230	101300000	1000	0	0	-1	0
29498803	5005	0	0	-100	0	230	101300000	1000	0	0	-1	0
29511363	5009	2	0	-100	0	230	101300000	1000	0	0	-1	0
29523923	5008	1	0	-100	0	230	101300000	1000	0	0	-1	0
29536483	5011	0	0	-100	0	230	101300000	1000	0	0	-1	0
29549043	5014	0	0	-100	0	230	101300000	1000	0	0	-1	0
29561603	5011	0	0	-100	0	230	101300000	1000	0	0	-1	0
29574163	5016	0	0	-100	0	230	101300000	1000	0	0	-1	0
29586723	5002	0	0	-100	0	230	101300000	1000	0	0	-1	0
29599283	5008	4	0	-100	0	230	101300000	1000	0	0	-1	0
29611843	5008	3	0	-100	0	230	101300000	1000	0	0	-1	0
29624403	5006	2	0	-100	0	230	101300000	1000	0	0	-1	0
29636963	5006	1	0	-100	0	230	101300000	1000	0	0	-1	0
29649523	5016	0	0	-100	0	230	101300000	1000	0	0	-1	0
29662083	5011	0	0	-100	0	230	101300000	1000	0	0	-1	0
29674643	5010	0	0	-100	0	230	101300000	1000	0	0	-1	0
29687203	5005	0	0	-100	0	230	101300000	1000	0	0	-1	0
29699763	5005	0	0	-100	0	230	101300000	1000	0	0	-1	0
29712323	5006	0	0	-100	0	230	101300000	1000	0	0	-1	0
29724883	5005	0	0	-100	0	230	101300000	1000	0	0	-1	0
29737443	5009	0	0	-100	0	230	101300000	1000	0	0	-1	0
29750004	5017	0	0	-100	0	230	101300000	1000	0	0	-1	0
29762563	5005	0	0	-100	0	230	101300000	1000	0	0	-1	0
29775123	5007	0	0	-100	0	230	101300000	1000	0	0	-1	0
29787683	5009	0	0	-100	0	230	101300000	1000	0	0	-1	0
29800243	5011	0	0	-100	0	230	101300000	1000	0	0	-1	0
29812803	5006	0	0	-100	0	230	101300000	1000	0	0	-1	0
29825363	5004	0	0	-100	0	230	101300000	1000	0	0	-1	0
29837923	5008	4	0	-100	0	230	101300000	1000	0	0	-1	0
29850483	5008	1	0	-100	0	230	101300000	1000	0	0	-1	0
29863043	5012	0	0	-100	0	230	101300000	1000	0	0	-1	0
29875603	5010	0	0	-100	0	230	101300000	1000	0	0	-1	0
29888163	5015	4	0	-100	0	230	101300000	1000	0	0	-1	0
29900723	5013	0	0	-100	0	230	101300000	1000	0	0	-1	0
29913283	5006	0	0	-100	0	230	101300000	1000	0	0	-1	0
29925843	5006	4	0	-100	0	230	101300000	1000	0	0	-1	0
29938403	5014	0	0	-100	0	230	101300000	1000	0	0	-1	0
29950963	5006	0	0	-100	0	230	101300000	1000	0	0	-1	0
29963523	5002	3	0	-100	0	230	101300000	1000	0	0	-1	0
29976083	5015	0	0	-100	0	230	101300000	1000	0	0	-1	0
29988643	5010	0	0	-100	0	230	101300000	1000	0	0	-1	0
30001203	5006	4	0	-100	0	230	101300000	1000	0	0	-1	0
30013763	5015	0	0	-100	0	230	101300000	1000	0	0	-1	0
30026323	5014	0	0	-100	0	230	101300000	1000	0	0	-1	0
30038883	5010	4	0	-100	0	230	101300000	1000	0	0	-1	0
30051443	5012	0	0	-100	0	230	101300000	1000	0	0	-1	0
30064004	5014	0	0	-100	0	230	101300000	1000	0	0	-1	0
30076563	5006	4	0	-100	0	230	101300000	1000	0	0	-1	0
30089123	5013	0	0	-100	0	230	101300000	1000	0	0	-1	0
30101683	5006	0	0	-100	0	230	101300000	1000	0	0	-1	0
30114243	5006	1	0	-100	0	230	101300000	1000	0	0	-1	0
30126803	5012	0	0	-100	0	230	101300000	1000	0	0	-1	0
30139363	5010	4	0	-100	0	230	101300000	1000	0	0	-1	0
30151923	5010	0	0	-100	0	230	101300000	1000	0	0	-1	0
30164483	5010	0	0	-100	0	230	101300000	1000	0	0	-1	0
30177043	5004	0	0	-100	0	230	101300000	1000	0	0	-1	0
30189603	5014	0	0	-100	0	230	101300000	1000	0	0	-1	0
30202163	5014	0	0	-100	0	230	101300000	1000	0	0	-1	0
30214723	5004	3	0	-100	0	230	101300000	1000	0	0	-1	0
30227283	5015	0	0	-100	0	230	101300000	1000	0	0	-1	0
30239843	5009	0	0	-100	0	230	101300000	1000	0	0	-1	0
30252403	5008	4	0	-100	0	230	101300000	1000	0	0	-1	0
30264963	5009	0	0	-100	0	230	101300000	1000	0	0	-1	0
30277523	5012	0	0	-100	0	230	101300000	1000	0	0	-1	0
30290083	5006	4	0	-100	0	230	101300000	1000	0	0	-1	0
30302643	5014	0	0	-100	0	230	101300000	1000	0	0	-1	0
30315203	5009	0	0	-100	0	230	101300000	1000	0	0	-1	0
30327763	5009	3	0	-100	0	230	101300000	1000	0	0	-1	0
30340323	5008	3	0	-100	0	230	101300000	1000	0	0	-1	0
30352883	5015	0	0	-100	0	230	101300000	1000	0	0	-1	0
30365443	5007	0	0	-100	0	230	101300000	1000	0	0	-1	0
30378004	5015	0	0	-100	0	230	101300000	1000	0	0	-1	0
30390563	5010	0	0	-100	0	230	101300000	1000	0	0	-1	0
30403123	5011	0	0	-100	0	230	101300000	1000	0	0	-1	0
30415683	5005	0	0	-100	0	230	101300000	1000	0	0	-1	0
30428243	5008	5	0	-100	0	230	101300000	1000	0	0	-1	0
30440803	5007	0	0	-100	0	230	101300000	1000	0	0	-1	0
30453363	5012	0	0	-100	0	230	101300000	1000	0	0	-1	0
30465923	5005	0	0	-100	0	230	101300000	1000	0	0	-1	0
30478483	5010	4	0	-100	0	230	101300000	1000	0	0	-1	0
30491043	5006	0	0	-100	0	230	101300000	1000	0	0	-1	0
30503603	5014	0	0	-100	0	230	101300000	1000	0	0	-1	0
30516163	5012	0	0	-100	0	230	101300000	1000	0	0	-1	0
30528723	5006	4	0	-100	0	230	101300000	1000	0	0	-1	0
30541283	5019	0	0	-100	0	230	101300000	1000	0	0	-1	0
30553843	5010	0	0	-100	0	230	101300000	1000	0	0	-1	0
30566403	5008	4	0	-100	0	230	101300000	1000	0	0	-1	0
30578963	5012	0	0	-100	0	230	101300000	1000	0	0	-1	0
30591523	5008	0	0	-100	0	230	101300000	1000	0	0	-1	0
30604083	5008	0	0	-100	0	230	101300000	1000	0	0	-1	0
30616643	5011	0	0	-100	0	230	101300000	1000	0	0	-1	0
30629203	5007	4	0	-100	0	230	101300000	1000	0	0	-1	0
30641763	5007	0	0	-100	0	230	101300000	1000	0	0	-1	0
30654323	5011	0	0	-100	0	230	101300000	1000	0	0	-1	0
30666883	5007	5	0	-100	0	230	101300000	1000	0	0	-1	0
30679443	5010	0	0	-100	0	230	101300000	1000	0	0	-1	0
30692004	5008	0	0	-100	0	230	101300000	1000	0	0	-1	0
30704563	5002	0	0	-100	0	230	101300000	1000	0	0	-1	0
30717123	5006	1	0	-100	0	230	101300000	1000	0	0	-1	0
30729683	5011	0	0	-100	0	230	101300000	1000	0	0	-1	0
30742243	5006	4	0	-100	0	230	101300000	1000	0	0	-1	0
30754803	5014	0	0	-100	0	230	101300000	1000	0	0	-1	0
30767363	5006	4	0	-100	0	230	101300000	1000	0	0	-1	0
30779923	5012	0	0	-100	0	230	101300000	1000	0	0	-1	0
30792483	5006	0	0	-100	0	230	101300000	1000	0	0	-1	0
30805043	5008	1	0	-100	0	230	101300000	1000	0	0	-1	0
30817603	5011	0	0	-100	0	230	101300000	1000	0	0	-1	0
30830163	5014	2	0	-100	0	230	101300000	1000	0	0	-1	0
30842723	5008	0	0	-100	0	230	101300000	1000	0	0	-1	0
30855283	5006	3	0	-100	0	230	101300000	1000	0	0	-1	0
30867843	5015	0	0	-100	0	230	101300000	1000	0	0	-1	0
30880403	5007	3	0	-100	0	230	101300000	1000	0	0	-1	0
30892963	5011	0	0	-100	0	230	101300000	1000	0	0	-1	0
30905523	5011	0	0	-100	0	230	101300000	1000	0	0	-1	0
30918083	5006	4	0	-100	0	230	101300000	1000	0	0	-1	0
30930643	5014	0	0	-100	0	230	101300000	1000	0	0	-1	0
30943203	5006	0	0	-100	0	230	101300000	1000	0	0	-1	0
30955763	5004	3	0	-100	0	230	101300000	1000	0	0	-1	0
30968323	5012	0	0	-100	0	230	101300000	1000	0	0	-1	0
30980883	5006	0	0	-100	0	230	101300000	1000	0	0	-1	0
30993443	5008	1	0	-100	0	230	101300000	1000	0	0	-1	0
31006004	5012	0	0	-100	0	230	101300000	1000	0	0	-1	0
31018563	5007	4	0	-100	0	230	101300000	1000	0	0	-1	0
31031123	5010	0	0	-100	0	230	101300000	1000	0	0	-1	0
31043683	5010	0	0	-100	0	230	101300000	1000	0	0	-1	0
31056243	5005	0	0	-100	0	230	101300000	1000	0	0	-1	0
31068803	5010	3	0	-100	0	230	101300000	1000	0	0	-1	0
31081363	5009	0	0	-100	0	230	101300000	1000	0	0	-1	0
31093923	5012	0	0	-100	0	230	101300000	1000	0	0	-1	0
31106483	5006	0	0	-100	0	230	101300000	1000	0	0	-1	0
31119043	5006	4	0	-100	0	230	101300000	1000	0	0	-1	0
31131603	5012	0	0	-100	0	230	101300000	1000	0	0	-1	0
31144163	5012	0	0	-100	0	230	101300000	1000	0	0	-1	0
31156723	5006	4	0	-100	0	230	101300000	1000	0	0	-1	0
31169283	5008	2	0	-100	0	230	101300000	1000	0	0	-1	0
31181843	5007	0	0	-100	0	230	101300000	1000	0	0	-1	0
31194403	5015	0	0	-100	0	230	101300000	1000	0	0	-1	0
31206963	5005	0	0	-100	0	230	101300000	1000	0	0	-1	0
31219523	5005	1	0	-100	0	230	101300000	1000	0	0	-1	0
31232083	5015	0	0	-100	0	230	101300000	1000	0	0	-1	0
31244643	5006	0	0	-100	0	230	101300000	1000	0	0	-1	0
31257203	5009	4	0	-100	0	230	101300000	1000	0	0	-1	0
31269763	5011	0	0	-100	0	230	101300000	1000	0	0	-1	0
31282323	5011	0	0	-100	0	230	101300000	1000	0	0	-1	0
31294883	5010	2	0	-100	0	230	101300000	1000	0	0	-1	0
31307443	5005	3	0	-100	0	230	101300000	1000	0	0	-1	0
31320004	5014	3	0	-100	0	230	101300000	1000	0	0	-1	0
31332563	5011	0	0	-100	0	230	101300000	1000	0	0	-1	0
31345123	5006	0	0	-100	0	230	101300000	1000	0	0	-1	0
31357683	5006	2	0	-100	0	230	101300000	1000	0	0	-1	0
31370243	5012	0	0	-100	0	230	101300000	1000	0	0	-1	0
31382803	5008	0	0	-100	0	230	101300000	1000	0	0	-1	0
31395363	5008	4	0	-100	0	230	101300000	1000	0	0	-1	0
31407923	5010	0	0	-100	0	230	101300000	1000	0	0	-1	0
31420483	5010	0	0	-100	0	230	101300000	1000	0	0	-1	0
31433043	5007	0	0	-100	0	230	101300000	1000	0	0	-1	0
31445603	5006	0	0	-100	0	230	101300000	1000	0	0	-1	0
31458163	5017	0	0	-100	0	230	101300000	1000	0	0	-1	0
31470723	5006	0	0	-100	0	230	101300000	1000	0	0	-1	0
31483283	5006	4	0	-100	0	230	101300000	1000	0	0	-1	0
31495843	5008	0	0	-100	0	230	101300000	1000	0	0	-1	0
31508403	5015	0	0	-100	0	230	101300000	1000	0	0	-1	0
31520963	5011	0	0	-100	0	230	101300000	1000	0	0	-1	0
31533523	5011	0	0	-100	0	230	101300000	1000	0	0	-1	0
31546083	5007	0	0	-100	0	230	101300000	1000	0	0	-1	0
31558643	5005	1	0	-100	0	230	101300000	1000	0	0	-1	0
31571203	5015	0	0	-100	0	230	101300000	1000	0	0	-1	0
31583763	5011	0	0	-100	0	230	101300000	1000	0	0	-1	0
31596323	5005	0	0	-100	0	230	101300000	1000	0	0	-1	0
31608883	5006	4	0	-100	0	230	101300000	1000	0	0	-1	0
31621443	5011	0	0	-100	0	230	101300000	1000	0	0	-1	0
31634004	5011	2	0	-100	0	230	101300000	1000	0	0	-1	0
31646563	5014	0	0	-100	0	230	101300000	1000	0	0	-1	0
31659123	5006	0	0	-100	0	230	101300000	1000	0	0	-1	0
31671683	5006	4	0	-100	0	230	101300000	1000	0	0	-1	0
31684243	5006	1	0	-100	0	230	101300000	1000	0	0	-1	0
31696803	5015	0	0	-100	0	230	101300000	1000	0	0	-1	0
31709363	5014	0	0	-100	0	230	101300000	1000	0	0	-1	0
31721923	5011	0	0	-100	0	230	101300000	1000	0	0	-1	0
31784723	5009	4	0	-100	0	230	101300000	1000	0	0	-1	0
31797283	5014	0	0	-100	0	230	101300000	1000	0	0	-1	0
31809843	5010	0	0	-100	0	230	101300000	1000	0	0	-1	0
31822403	5006	5	0	-100	0	230	101300000	1000	0	0	-1	0
31834963	5011	0	0	-100	0	230	101300000	1000	0	0	-1	0
31847523	5011	0	0	-100	0	230	101300000	1000	0	0	-1	0
31860083	5005	4	0	-100	0	230	101300000	1000	0	0	-1	0
31872643	5015	0	0	-100	0	230	101300000	1000	0	0	-1	0
31885203	5005	0	0	-100	0	230	101300000	1000	0	0	-1	0
31897763	5006	1	0	-100	0	230	101300000	1000	0	0	-1	0
31910323	5012	0	0	-100	0	230	101300000	1000	0	0	-1	0
31922883	5006	0	0	-100	0	230	101300000	1000	0	0	-1	0
31973123	5011	4	0	-100	0	230	101300000	1000	0	0	-1	0
31985683	5005	2	0	-100	0	230	101300000	1000	0	0	-1	0
31998243	5012	0	0	-100	0	230	101300000	1000	0	0	-1	0
32010803	5009	0	0	-100	0	230	101300000	1000	0	0	-1	0
32023363	5008	3	0	-100	0	230	101300000	1000	0	0	-1	0
32035923	5007	0	0	-100	0	230	101300000	1000	0	0	-1	0
32048483	5012	0	0	-100	0	230	101300000	1000	0	0	-1	0
32061043	5006	0	0	-100	0	230	101300000	1000	0	0	-1	0
32073603	5006	2	0	-100	0	230	101300000	1000	0	0	-1	0
32086163	5020	0	0	-100	0	230	101300000	1000	0	0	-1	0
32098723	5008	0	0	-100	0	230	101300000	1000	0	0	-1	0
32111283	5004	4	0	-100	0	230	101300000	1000	0	0	-1	0
32123843	5016	0	0	-100	0	230	101300000	1000	0	0	-1	0
32136403	5008	0	0	-100	0	230	101300000	1000	0	0	-1	0
32148963	5014	0	0	-100	0	230	101300000	1000	0	0	-1	0
32161523	5010	0	0	-100	0	230	101300000	1000	0	0	-1	0
32174083	5007	5	0	-100	0	230	101300000	1000	0	0	-1	0
32186643	5010	1	0	-100	0	230	101300000	1000	0	0	-1	0
32199203	5016	0	0	-100	0	230	101300000	1000	0	0	-1	0
32211763	5011	0	0	-100	0	230	101300000	1000	0	0	-1	0
32224323	5006	0	0	-100	0	230	101300000	1000	0	0	-1	0
32236883	5007	0	0	-100	0	230	101300000	1000	0	0	-1	0
32249443	5007	0	0	-100	0	230	101300000	1000	0	0	-1	0
32262004	5014	0	0	-100	0	230	101300000	1000	0	0	-1	0
32274563	5014	0	0	-100	0	230	101300000	1000	0	0	-1	0
32287123	5014	0	0	-100	0	230	101300000	1000	0	0	-1	0
32299683	5014	0	0	-100	0	230	101300000	1000	0	0	-1	0
32312243	5014	0	0	-100	0	230	101300000	1000	0	0	-1	0
32324803	5010	0	0	-100	0	230	101300000	1000	0	0	-1	0
32337363	5009	0	0	-100	0	230	101300000	1000	0	0	-1	0
32349923	5006	4	0	-100	0	230	101300000	1000	0	0	-1	0
32362483	5005	1	0	-100	0	230	101300000	1000	0	0	-1	0
32375043	5007	0	0	-100	0	230	101300000	1000	0	0	-1	0
32387603	5014	0	0	-100	0	230	101300000	1000	0	0	-1	0
32400163	5021	0	0	-100	0	230	101300000	1000	0	0	-1	0
32412723	5012	0	0	-100	0	230	101300000	1000	0	0	-1	0
32425283	5009	0	0	-100	0	230	101300000	1000	0	0	-1	0
32437843	5004	0	0	-100	0	230	101300000	1000	0	0	-1	0
32450403	5005	4	0	-100	0	230	101300000	1000	0	0	-1	0
32462963	5004	3	0	-100	0	230	101300000	1000	0	0	-1	0
32475523	5015	0	0	-100	0	230	101300000	1000	0	0	-1	0
32488083	5012	0	0	-100	0	230	101300000	1000	0	0	-1	0
32500643	5011	0	0	-100	0	230	101300000	1000	0	0	-1	0
32513203	5009	0	0	-100	0	230	101300000	1000	0	0	-1	0
32525763	5004	0	0	-100	0	230	101300000	1000	0	0	-1	0
32538323	5010	4	0	-100	0	230	101300000	1000	0	0	-1	0
32550883	5009	1	0	-100	0	230	101300000	1000	0	0	-1	0
32563443	5010	0	0	-100	0	230	101300000	1000	0	0	-1	0
32576004	5012	3	0	-100	0	230	101300000	1000	0	0	-1	0
32588563	5012	0	0	-100	0	230	101300000	1000	0	0	-1	0
32601123	5010	0	0	-100	0	230	101300000	1000	0	0	-1	0
32613683	5006	0	0	-100	0	230	101300000	1000	0	0	-1	0
32626243	5006	0	0	-100	0	230	101300000	1000	0	0	-1	0
32638803	5006	6	0	-100	0	230	101300000	1000	0	0	-1	0
32651363	5006	4	0	-100	0	230	101300000	1000	0	0	-1	0
32663923	5010	0	0	-100	0	230	101300000	1000	0	0	-1	0
32676483	5013	0	0	-100	0	230	101300000	1000	0	0	-1	0
32689043	5014	0	0	-100	0	230	101300000	1000	0	0	-1	0
32701603	5004	0	0	-100	0	230	101300000	1000	0	0	-1	0
32714163	5014	2	0	-100	0	230	101300000	1000	0	0	-1	0
32726723	5015	0	0	-100	0	230	101300000	1000	0	0	-1	0
32739283	5010	0	0	-100	0	230	101300000	1000	0	0	-1	0
32751843	5006	0	0	-100	0	230	101300000	1000	0	0	-1	0
32764403	5008	3	0	-100	0	230	101300000	1000	0	0	-1	0
32776963	5017	0	0	-100	0	230	101300000	1000	0	0	-1	0
32789523	5014	0	0	-100	0	230	101300000	1000	0	0	-1	0
32802083	5007	0	0	-100	0	230	101300000	1000	0	0	-1	0
32814643	5005	4	0	-100	0	230	101300000	1000	0	0	-1	0
32827203	5006	0	0	-100	0	230	101300000	1000	0	0	-1	0
32839763	5015	0	0	-100	0	230	101300000	1000	0	0	-1	0
32852323	5011	0	0	-100	0	230	101300000	1000	0	0	-1	0
32864883	5015	0	0	-100	0	230	101300000	1000	0	0	-1	0
32877443	5011	0	0	-100	0	230	101300000	1000	0	0	-1	0
32890004	5021	0	0	-100	0	230	101300000	1000	0	0	-1	0
32902563	5009	4	0	-100	0	230	101300000	1000	0	0	-1	0
32915123	5008	0	0	-100	0	230	101300000	1000	0	0	-1	0
32927683	5015	0	0	-100	0	230	101300000	1000	0	0	-1	0
32940243	5010	0	0	-100	0	230	101300000	1000	0	0	-1	0
32952803	5004	0	0	-100	0	230	101300000	1000	0	0	-1	0
32965363	5006	2	0	-100	0	230	101300000	1000	0	0	-1	0
32977923	5012	0	0	-100	0	230	101300000	1000	0	0	-1	0
32990483	5010	0	0	-100	0	230	101300000	1000	0	0	-1	0
33003043	5006	2	0	-100	0	230	101300000	1000	0	0	-1	0
33015603	5011	0	0	-100	0	230	101300000	1000	0	0	-1	0
33028163	5013	1	0	-100	0	230	101300000	1000	0	0	-1	0
33040723	5008	3	0	-100	0	230	101300000	1000	0	0	-1	0
33053283	5005	0	0	-100	0	230	101300000	1000	0	0	-1	0
33065843	5009	1	0	-100	0	230	101300000	1000	0	0	-1	0
33078403	5008	0	0	-100	0	230	101300000	1000	0	0	-1	0
33090963	5009	0	0	-100	0	230	101300000	1000	0	0	-1	0
33103523	5006	1	0	-100	0	230	101300000	1000	0	0	-1	0
33116083	5008	0	0	-100	0	230	101300000	1000	0	0	-1	0
33128643	5004	2	0	-100	0	230	101300000	1000	0	0	-1	0
33141203	5010	0	0	-100	0	230	101300000	1000	0	0	-1	0
33153763	5010	0	0	-100	0	230	101300000	1000	0	0	-1	0
33166323	5011	0	0	-100	0	230	101300000	1000	0	0	-1	0
33178883	5010	0	0	-100	0	230	101300000	1000	0	0	-1	0
33191443	5007	1	0	-100	0	230	101300000	1000	0	0	-1	0
33204004	5011	0	0	-100	0	230	101300000	1000	0	0	-1	0
33216563	5005	2	0	-100	0	230	101300000	1000	0	0	-1	0
33229123	5006	3	0	-100	0	230	101300000	1000	0	0	-1	0
33241683	5005	2	0	-100	0	230	101300000	1000	0	0	-1	0
33254243	5009	3	0	-100	0	230	101300000	1000	0	0	-1	0
33266803	5005	3	0	-100	0	230	101300000	1000	0	0	-1	0
33279363	5008	4	0	-100	0	230	101300000	1000	0	0	-1	0
33291923	5010	4	0	-100	0	230	101300000	1000	0	0	-1	0
33304483	5007	6	0	-100	0	230	101300000	1000	0	0	-1	0
33317043	5006	0	0	-100	0	230	101300000	1000	0	0	-1	0
33329603	5008	0	0	-100	0	230	101300000	1000	0	0	-1	0
33342163	5012	0	0	-100	0	230	101300000	1000	0	0	-1	0
33354723	5007	0	0	-100	0	230	101300000	1000	0	0	-1	0
33367283	5010	0	0	-100	0	230	101300000	1000	0	0	-1	0
33379843	5011	0	0	-100	0	230	101300000	1000	0	0	-1	0
33392403	5012	0	0	-100	0	230	101300000	1000	0	0	-1	0
33404963	5009	0	0	-100	0	230	101300000	1000	0	0	-1	0
33417523	5010	0	0	-100	0	230	101300000	1000	0	0	-1	0
33430083	5008	0	0	-100	0	230	101300000	1000	0	0	-1	0
33442643	5008	0	0	-100	0	230	101300000	1000	0	0	-1	0
33455203	5011	0	0	-100	0	230	101300000	1000	0	0	-1	0
33467763	5010	0	0	-100	0	230	101300000	1000	0	0	-1	0
33480323	5011	0	0	-100	0	230	101300000	1000	0	0	-1	0
33492883	5011	0	0	-100	0	230	101300000	1000	0	0	-1	0
33505443	5012	0	0	-100	0	230	101300000	1000	0	0	-1	0
33518004	5010	0	0	-100	0	230	101300000	1000	0	0	-1	0
33530563	5012	0	0	-100	0	230	101300000	1000	0	0	-1	0
33543123	5014	0	0	-100	0	230	101300000	1000	0	0	-1	0
33555683	5015	0	0	-100	0	230	101300000	1000	0	0	-1	0
33568243	5015	0	0	-100	0	230	101300000	1000	0	0	-1	0
33580803	5014	0	0	-100	0	230	101300000	1000	0	0	-1	0
33593363	5010	0	0	-100	0	230	101300000	1000	0	0	-1	0
33605923	5010	0	0	-100	0	230	101300000	1000	0	0	-1	0
33618483	5008	0	0	-100	0	230	101300000	1000	0	0	-1	0
33631043	5004	0	0	-100	0	230	101300000	1000	0	0	-1	0
33643603	5009	3	0	-100	0	230	101300000	1000	0	0	-1	0
33656163	5011	1	0	-100	0	230	101300000	1000	0	0	-1	0
33668723	5010	0	0	-100	0	230	101300000	1000	0	0	-1	0
33681283	5008	1	0	-100	0	230	101300000	1000	0	0	-1	0
33693843	5006	0	0	-100	0	230	101300000	1000	0	0	-1	0
33706403	5005	0	0	-100	0	230	101300000	1000	0	0	-1	0
33718963	5005	1	0	-100	0	230	101300000	1000	0	0	-1	0
33731523	5006	4	0	-100	0	230	101300000	1000	0	0	-1	0
33744083	5009	4	0	-100	0	230	101300000	1000	0	0	-1	0
33756643	5006	4	0	-100	0	230	101300000	1000	0	0	-1	0
33769203	5005	4	0	-100	0	230	101300000	1000	0	0	-1	0
33781763	5010	4	0	-100	0	230	101300000	1000	0	0	-1	0
33794323	5005	4	0	-100	0	230	101300000	1000	0	0	-1	0
33806883	5008	2	0	-100	0	230	101300000	1000	0	0	-1	0
33819443	5006	3	0	-100	0	230	101300000	1000	0	0	-1	0
33832004	5016	0	0	-100	0	230	101300000	1000	0	0	-1	0
33844563	5012	0	0	-100	0	230	101300000	1000	0	0	-1	0
33857123	5012	0	0	-100	0	230	101300000	1000	0	0	-1	0
33869683	5015	0	0	-100	0	230	101300000	1000	0	0	-1	0
33882243	5015	0	0	-100	0	230	101300000	1000	0	0	-1	0
33894803	5013	0	0	-100	0	230	101300000	1000	0	0	-1	0
33907363	5012	0	0	-100	0	230	101300000	1000	0	0	-1	0
33919923	5010	0	0	-100	0	230	101300000	1000	0	0	-1	0
33932483	5002	2	0	-100	0	230	101300000	1000	0	0	-1	0
33945043	5009	4	0	-100	0	230	101300000	1000	0	0	-1	0
33957603	5006	5	0	-100	0	230	101300000	1000	0	0	-1	0
33970163	5012	0	0	-100	0	230	101300000	1000	0	0	-1	0
33982723	5006	0	0	-100	0	230	101300000	1000	0	0	-1	0
33995283	5012	0	0	-100	0	230	101300000	1000	0	0	-1	0
34007843	5015	0	0	-100	0	230	101300000	1000	0	0	-1	0
34020403	5012	0	0	-100	0	230	101300000	1000	0	0	-1	0
34032963	5012	0	0	-100	0	230	101300000	1000	0	0	-1	0
34045523	5006	3	0	-100	0	230	101300000	1000	0	0	-1	0
34058083	5007	5	0	-100	0	230	101300000	1000	0	0	-1	0
34070643	5006	0	0	-100	0	230	101300000	1000	0	0	-1	0
34083203	5005	0	0	-100	0	230	101300000	1000	0	0	-1	0
34095763	5009	0	0	-100	0	230	101300000	1000	0	0	-1	0
34108323	5011	0	0	-100	0	230	101300000	1000	0	0	-1	0
34120883	5011	0	0	-100	0	230	101300000	1000	0	0	-1	0
34133443	5008	1	0	-100	0	230	101300000	1000	0	0	-1	0
34146004	5015	0	0	-100	0	230	101300000	1000	0	0	-1	0
34158563	5004	0	0	-100	0	230	101300000	1000	0	0	-1	0
34171123	5010	0	0	-100	0	230	101300000	1000	0	0	-1	0
34183683	5014	0	0	-100	0	230	101300000	1000	0	0	-1	0
34196243	5015	0	0	-100	0	230	101300000	1000	0	0	-1	0
34208803	5008	1	0	-100	0	230	101300000	1000	0	0	-1	0
34221363	5006	4	0	-100	0	230	101300000	1000	0	0	-1	0
34233923	5004	0	0	-100	0	230	101300000	1000	0	0	-1	0
34246483	5008	0	0	-100	0	230	101300000	1000	0	0	-1	0
34259043	5014	0	0	-100	0	230	101300000	1000	0	0	-1	0
34271603	5015	0	0	-100	0	230	101300000	1000	0	0	-1	0
34284163	5018	0	0	-100	0	230	101300000	1000	0	0	-1	0
34296723	5006	4	0	-100	0	230	101300000	1000	0	0	-1	0
34309283	5007	0	0	-100	0	230	101300000	1000	0	0	-1	0
34321843	5008	0	0	-100	0	230	101300000	1000	0	0	-1	0
34334403	5014	0	0	-100	0	230	101300000	1000	0	0	-1	0
34346963	5015	0	0	-100	0	230	101300000	1000	0	0	-1	0
34359523	5008	1	0	-100	0	230	101300000	1000	0	0	-1	0
34372083	5008	4	0	-100	0	230	101300000	1000	0	0	-1	0
34384643	5007	6	0	-100	0	230	101300000	1000	0	0	-1	0
34397203	5007	0	0	-100	0	230	101300000	1000	0	0	-1	0
34409763	5005	0	0	-100	0	230	101300000	1000	0	0	-1	0
34422323	5004	0	0	-100	0	230	101300000	1000	0	0	-1	0
34434883	5006	0	0	-100	0	230	101300000	1000	0	0	-1	0
34447443	5009	0	0	-100	0	230	101300000	1000	0	0	-1	0
34460004	5021	0	0	-100	0	230	101300000	1000	0	0	-1	0
34472563	5011	0	0	-100	0	230	101300000	1000	0	0	-1	0
34485123	5015	0	0	-100	0	230	101300000	1000	0	0	-1	0
34497683	5012	0	0	-100	0	230	101300000	1000	0	0	-1	0
34510243	5013	0	0	-100	0	230	101300000	1000	0	0	-1	0
34522803	5009	0	0	-100	0	230	101300000	1000	0	0	-1	0
34535363	5005	2	0	-100	0	230	101300000	1000	0	0	-1	0
34547923	5009	3	0	-100	0	230	101300000	1000	0	0	-1	0
34560483	5008	1	0	-100	0	230	101300000	1000	0	0	-1	0
34573043	5005	2	0	-100	0	230	101300000	1000	0	0	-1	0
34585603	5006	0	0	-100	0	230	101300000	1000	0	0	-1	0
34598163	5014	3	0	-100	0	230	101300000	1000	0	0	-1	0
34610723	5008	3	0	-100	0	230	101300000	1000	0	0	-1	0
34623283	5005	4	0	-100	0	230	101300000	1000	0	0	-1	0
34635843	5008	3	0	-100	0	230	101300000	1000	0	0	-1	0
34648403	5008	3	0	-100	0	230	101300000	1000	0	0	-1	0
34660963	5005	2	0	-100	0	230	101300000	1000	0	0	-1	0
34673523	5009	0	0	-100	0	230	101300000	1000	0	0	-1	0
34686083	5011	0	0	-100	0	230	101300000	1000	0	0	-1	0
34698643	5015	0	0	-100	0	230	101300000	1000	0	0	-1	0
34711203	5015	0	0	-100	0	230	101300000	1000	0	0	-1	0
34723763	5016	0	0	-100	0	230	101300000	1000	0	0	-1	0
34736323	5015	0	0	-100	0	230	101300000	1000	0	0	-1	0
34748883	5011	0	0	-100	0	230	101300000	1000	0	0	-1	0
34761443	5011	0	0	-100	0	230	101300000	1000	0	0	-1	0
34774004	5017	0	0	-100	0	230	101300000	1000	0	0	-1	0
34786563	5005	0	0	-100	0	230	101300000	1000	0	0	-1	0
34799123	5006	0	0	-100	0	230	101300000	1000	0	0	-1	0
34811683	5010	2	0	-100	0	230	101300000	1000	0	0	-1	0
34824243	5006	4	0	-100	0	230	101300000	1000	0	0	-1	0
34836803	5008	4	0	-100	0	230	101300000	1000	0	0	-1	0
34849363	5009	4	0	-100	0	230	101300000	1000	0	0	-1	0
34861923	5009	4	0	-100	0	230	101300000	1000	0	0	-1	0
34874483	5006	4	0	-100	0	230	101300000	1000	0	0	-1	0
34887043	5006	4	0	-100	0	230	101300000	1000	0	0	-1	0
34899603	5008	1	0	-100	0	230	101300000	1000	0	0	-1	0
34912163	5014	2	0	-100	0	230	101300000	1000	0	0	-1	0
34924723	5010	0	0	-100	0	230	101300000	1000	0	0	-1	0
34937283	5015	0	0	-100	0	230	101300000	1000	0	0	-1	0
34949843	5016	0	0	-100	0	230	101300000	1000	0	0	-1	0
34962403	5011	0	0	-100	0	230	101300000	1000	0	0	-1	0
34974963	5007	2	0	-100	0	230	101300000	1000	0	0	-1	0
34987523	5006	4	0	-100	0	230	101300000	1000	0	0	-1	0
35000083	5009	5	0	-100	0	230	101300000	1000	0	0	-1	0
35012643	5007	3	0	-100	0	230	101300000	1000	0	0	-1	0
35025203	5010	3	0	-100	0	230	101300000	1000	0	0	-1	0
35037763	5006	3	0	-100	0	230	101300000	1000	0	0	-1	0
35050323	5007	2	0	-100	0	230	101300000	1000	0	0	-1	0
35062883	5009	0	0	-100	0	230	101300000	1000	0	0	-1	0
35075443	5015	0	0	-100	0	230	101300000	1000	0	0	-1	0
35088004	5015	5	0	-100	0	230	101300000	1000	0	0	-1	0
35100563	5004	3	0	-100	0	230	101300000	1000	0	0	-1	0
35113123	5011	3	0	-100	0	230	101300000	1000	0	0	-1	0
35125683	5006	0	0	-100	0	230	101300000	1000	0	0	-1	0
35138243	5010	0	0	-100	0	230	101300000	1000	0	0	-1	0
35150803	5015	0	0	-100	0	230	101300000	1000	0	0	-1	0
35163363	5016	0	0	-100	0	230	101300000	1000	0	0	-1	0
35175923	5004	1	0	-100	0	230	101300000	1000	0	0	-1	0
35188483	5009	2	0	-100	0	230	101300000	1000	0	0	-1	0
35201043	5008	3	0	-100	0	230	101300000	1000	0	0	-1	0
35213603	5010	3	0	-100	0	230	101300000	1000	0	0	-1	0
35226163	5014	1	0	-100	0	230	101300000	1000	0	0	-1	0
35238723	5002	0	0	-100	0	230	101300000	1000	0	0	-1	0
35251283	5008	0	0	-100	0	230	101300000	1000	0	0	-1	0
35263843	5010	0	0	-100	0	230	101300000	1000	0	0	-1	0
35276403	5012	0	0	-100	0	230	101300000	1000	0	0	-1	0
35288963	5017	0	0	-100	0	230	101300000	1000	0	0	-1	0
35301523	5009	0	0	-100	0	230	101300000	1000	0	0	-1	0
35314083	5010	0	0	-100	0	230	101300000	1000	0	0	-1	0
35326643	5005	1	0	-100	0	230	101300000	1000	0	0	-1	0
35339203	5009	2	0	-100	0	230	101300000	1000	0	0	-1	0
35351763	5007	4	0	-100	0	230	101300000	1000	0	0	-1	0
35364323	5009	4	0	-100	0	230	101300000	1000	0	0	-1	0
35376883	5008	4	0	-100	0	230	101300000	1000	0	0	-1	0
35389443	5008	2	0	-100	0	230	101300000	1000	0	0	-1	0
35402004	5016	0	0	-100	0	230	101300000	1000	0	0	-1	0
35414563	5010	4	0	-100	0	230	101300000	1000	0	0	-1	0
35427123	5006	1	0	-100	0	230	101300000	1000	0	0	-1	0
35439683	5006	0	0	-100	0	230	101300000	1000	0	0	-1	0
35452243	5011	0	0	-100	0	230	101300000	1000	0	0	-1	0
35464803	5014	0	0	-100	0	230	101300000	1000	0	0	-1	0
35477363	5012	0	0	-100	0	230	101300000	1000	0	0	-1	0
35489923	5008	0	0	-100	0	230	101300000	1000	0	0	-1	0
35502483	5006	3	0	-100	0	230	101300000	1000	0	0	-1	0
35515043	5006	1	0	-100	0	230	101300000	1000	0	0	-1	0
35527603	5009	0	0	-100	0	230	101300000	1000	0	0	-1	0
35540163	5021	0	0	-100	0	230	101300000	1000	0	0	-1	0
35552723	5011	0	0	-100	0	230	101300000	1000	0	0	-1	0
35565283	5015	0	0	-100	0	230	101300000	1000	0	0	-1	0
35577843	5015	0	0	-100	0	230	101300000	1000	0	0	-1	0
35590403	5006	0	0	-100	0	230	101300000	1000	0	0	-1	0
35602963	5006	2	0	-100	0	230	101300000	1000	0	0	-1	0
35615523	5005	4	0	-100	0	230	101300000	1000	0	0	-1	0
35628083	5006	0	0	-100	0	230	101300000	1000	0	0	-1	0
35640643	5006	2	0	-100	0	230	101300000	1000	0	0	-1	0
35653203	5005	2	0	-100	0	230	101300000	1000	0	0	-1	0
35665763	5010	0	0	-100	0	230	101300000	1000	0	0	-1	0
35678323	5016	0	0	-100	0	230	101300000	1000	0	0	-1	0
35690883	5015	0	0	-100	0	230	101300000	1000	0	0	-1	0
35703443	5014	0	0	-100	0	230	101300000	1000	0	0	-1	0
35716004	5010	3	0	-100	0	230	101300000	1000	0	0	-1	0
35728563	5015	0	0	-100	0	230	101300000	1000	0	0	-1	0
35741123	5012	0	0	-100	0	230	101300000	1000	0	0	-1	0
35753683	5017	0	0	-100	0	230	101300000	1000	0	0	-1	0
35766243	5011	0	0	-100	0	230	101300000	1000	0	0	-1	0
35778803	5012	0	0	-100	0	230	101300000	1000	0	0	-1	0
35791363	5011	0	0	-100	0	230	101300000	1000	0	0	-1	0
35803923	5012	0	0	-100	0	230	101300000	1000	0	0	-1	0
35816483	5012	0	0	-100	0	230	101300000	1000	0	0	-1	0
35829043	5014	0	0	-100	0	230	101300000	1000	0	0	-1	0
35841603	5015	0	0	-100	0	230	101300000	1000	0	0	-1	0
35854163	5021	0	0	-100	0	230	101300000	1000	0	0	-1	0
35866723	5014	0	0	-100	0	230	101300000	1000	0	0	-1	0
35879283	5015	0	0	-100	0	230	101300000	1000	0	0	-1	0
35891843	5013	0	0	-100	0	230	101300000	1000	0	0	-1	0
35904403	5012	0	0	-100	0	230	101300000	1000	0	0	-1	0
35916963	5014	0	0	-100	0	230	101300000	1000	0	0	-1	0
35929523	5012	0	0	-100	0	230	101300000	1000	0	0	-1	0
35942083	5014	0	0	-100	0	230	101300000	1000	0	0	-1	0
35954643	5009	0	0	-100	0	230	101300000	1000	0	0	-1	0
35967203	5011	0	0	-100	0	230	101300000	1000	0	0	-1	0
35979763	5013	0	0	-100	0	230	101300000	1000	0	0	-1	0
35992323	5010	0	0	-100	0	230	101300000	1000	0	0	-1	0
36004883	5004	2	0	-100	0	230	101300000	1000	0	0	-1	0
36017443	5008	4	0	-100	0	230	101300000	1000	0	0	-1	0
36030004	5020	0	0	-100	0	230	101300000	1000	0	0	-1	0
36042563	5007	0	0	-100	0	230	101300000	1000	0	0	-1	0
36055123	5007	0	0	-100	0	230	101300000	1000	0	0	-1	0
36067683	5009	0	0	-100	0	230	101300000	1000	0	0	-1	0
36080243	5012	0	0	-100	0	230	101300000	1000	0	0	-1	0
36092803	5015	0	0	-100	0	230	101300000	1000	0	0	-1	0
36105363	5016	0	0	-100	0	230	101300000	1000	0	0	-1	0
36117923	5015	0	0	-100	0	230	101300000	1000	0	0	-1	0
36130483	5011	0	0	-100	0	230	101300000	1000	0	0	-1	0
36143043	5009	0	0	-100	0	230	101300000	1000	0	0	-1	0
36155603	5008	0	0	-100	0	230	101300000	1000	0	0	-1	0
36168163	5014	4	0	-100	0	230	101300000	1000	0	0	-1	0
36180723	5007	3	0	-100	0	230	101300000	1000	0	0	-1	0
36193283	5005	0	0	-100	0	230	101300000	1000	0	0	-1	0
36205843	5006	0	0	-100	0	230	101300000	1000	0	0	-1	0
