timestamp	voltage	current	windSpeed	pitchAngle	rpm	temperature	ambientPressure	humidity	accelerationX	accelerationY	accelerationZ	currentSink
7041070	6016	0	0	-100	0	230	101300000	1000	0	0	-1	0
7048523	6008	3	0	-100	0	230	101300000	1000	0	0	-1	0
7061083	6012	0	0	-100	0	230	101300000	1000	0	0	-1	0
7073643	6016	0	0	-100	0	230	101300000	1000	0	0	-1	0
7086203	6011	2	0	-100	0	230	101300000	1000	0	0	-1	0
7098763	6016	0	0	-100	0	230	101300000	1000	0	0	-1	0
7111323	6010	0	0	-100	0	230	101300000	1000	0	0	-1	0
7123883	6018	0	0	-100	0	230	101300000	1000	0	0	-1	0
7136443	6008	0	0	-100	0	230	101300000	1000	0	0	-1	0
7149004	6012	3	0	-100	0	230	101300000	1000	0	0	-1	0
7161563	6012	1	0	-100	0	230	101300000	1000	0	0	-1	0
7174123	6017	0	0	-100	0	230	101300000	1000	0	0	-1	0
7186683	6008	2	0	-100	0	230	101300000	1000	0	0	-1	0
7199243	6010	0	0	-100	0	230	101300000	1000	0	0	-1	0
7211803	6014	0	0	-100	0	230	101300000	1000	0	0	-1	0
7224363	6010	4	0	-100	0	230	101300000	1000	0	0	-1	0
7236923	6017	0	0	-100	0	230	101300000	1000	0	0	-1	0
7249483	6014	0	0	-100	0	230	101300000	1000	0	0	-1	0
7262043	6007	0	0	-100	0	230	101300000	1000	0	0	-1	0
7274603	6022	0	0	-100	0	230	101300000	1000	0	0	-1	0
7287163	6016	3	0	-100	0	230	101300000	1000	0	0	-1	0
7299723	6008	0	0	-100	0	230	101300000	1000	0	0	-1	0
7312283	6014	0	0	-100	0	230	101300000	1000	0	0	-1	0
7324843	6014	4	0	-100	0	230	101300000	1000	0	0	-1	0
7337403	6015	0	0	-100	0	230	101300000	1000	0	0	-1	0
7349963	6010	1	0	-100	0	230	101300000	1000	0	0	-1	0
7375083	6016	0	0	-100	0	230	101300000	1000	0	0	-1	0
7387643	6010	4	0	-100	0	230	101300000	1000	0	0	-1	0
7400203	6012	0	0	-100	0	230	101300000	1000	0	0	-1	0
7412763	6019	0	0	-100	0	230	101300000	1000	0	0	-1	0
7425323	6010	4	0	-100	0	230	101300000	1000	0	0	-1	0
7437883	6011	0	0	-100	0	230	101300000	1000	0	0	-1	0
7450443	6016	0	0	-100	0	230	101300000	1000	0	0	-1	0
7463004	6017	0	0	-100	0	230	101300000	1000	0	0	-1	0
7475563	6008	0	0	-100	0	230	101300000	1000	0	0	-1	0
7488123	6016	0	0	-100	0	230	101300000	1000	0	0	-1	0
7500683	6008	3	0	-100	0	230	101300000	1000	0	0	-1	0
7513243	6005	0	0	-100	0	230	101300000	1000	0	0	-1	0
7525803	6015	0	0	-100	0	230	101300000	1000	0	0	-1	0
7538363	6013	0	0	-100	0	230	101300000	1000	0	0	-1	0
7550923	6008	2	0	-100	0	230	101300000	1000	0	0	-1	0
7563483	6008	1	0	-100	0	230	101300000	1000	0	0	-1	0
7576043	6015	0	0	-100	0	230	101300000	1000	0	0	-1	0
7588603	6019	0	0	-100	0	230	101300000	1000	0	0	-1	0
7601163	6015	3	0	-100	0	230	101300000	1000	0	0	-1	0
7613723	6013	0	0	-100	0	230	101300000	1000	0	0	-1	0
7626283	6012	0	0	-100	0	230	101300000	1000	0	0	-1	0
7638843	6012	7	0	-100	0	230	101300000	1000	0	0	-1	0
7651403	6013	0	0	-100	0	230	101300000	1000	0	0	-1	0
7663963	6015	0	0	-100	0	230	101300000	1000	0	0	-1	0
7676523	6008	4	0	-100	0	230	101300000	1000	0	0	-1	0
7689083	6008	0	0	-100	0	230	101300000	1000	0	0	-1	0
7701643	6012	0	0	-100	0	230	101300000	1000	0	0	-1	0
7714203	6006	4	0	-100	0	230	101300000	1000	0	0	-1	0
7726763	6008	0	0	-100	0	230	101300000	1000	0	0	-1	0
7739323	6016	0	0	-100	0	230	101300000	1000	0	0	-1	0
7751883	6019	0	0	-100	0	230	101300000	1000	0	0	-1	0
7764443	6010	4	0	-100	0	230	101300000	1000	0	0	-1	0
7777004	6021	0	0	-100	0	230	101300000	1000	0	0	-1	0
7789563	6010	3	0	-100	0	230	101300000	1000	0	0	-1	0
7802123	6007	0	0	-100	0	230	101300000	1000	0	0	-1	0
7814683	6016	0	0	-100	0	230	101300000	1000	0	0	-1	0
7827243	6012	1	0	-100	0	230	101300000	1000	0	0	-1	0
7839803	6007	0	0	-100	0	230	101300000	1000	0	0	-1	0
7852363	6016	0	0	-100	0	230	101300000	1000	0	0	-1	0
7864923	6012	0	0	-100	0	230	101300000	1000	0	0	-1	0
7877483	6014	3	0	-100	0	230	101300000	1000	0	0	-1	0
7890043	6010	0	0	-100	0	230	101300000	1000	0	0	-1	0
7902603	6017	0	0	-100	0	230	101300000	1000	0	0	-1	0
7915163	6023	0	0	-100	0	230	101300000	1000	0	0	-1	0
7927723	6012	5	0	-100	0	230	101300000	1000	0	0	-1	0
7940283	6014	0	0	-100	0	230	101300000	1000	0	0	-1	0
7952843	6013	0	0	-100	0	230	101300000	1000	0	0	-1	0
7965403	6014	4	0	-100	0	230	101300000	1000	0	0	-1	0
7977963	6009	0	0	-100	0	230	101300000	1000	0	0	-1	0
8078443	6012	2	0	-100	0	230	101300000	1000	0	0	-1	0
8091004	6025	0	0	-100	0	230	101300000	1000	0	0	-1	0
8103563	6016	0	0	-100	0	230	101300000	1000	0	0	-1	0
8116123	6006	1	0	-100	0	230	101300000	1000	0	0	-1	0
8128683	6017	0	0	-100	0	230	101300000	1000	0	0	-1	0
8141243	6008	4	0	-100	0	230	101300000	1000	0	0	-1	0
8153803	6012	0	0	-100	0	230	101300000	1000	0	0	-1	0
8166363	6019	0	0	-100	0	230	101300000	1000	0	0	-1	0
8178923	6012	4	0	-100	0	230	101300000	1000	0	0	-1	0
8191483	6016	0	0	-100	0	230	101300000	1000	0	0	-1	0
8204043	6008	5	0	-100	0	230	101300000	1000	0	0	-1	0
8279403	6016	0	0	-100	0	230	101300000	1000	0	0	-1	0
8291963	6008	0	0	-100	0	230	101300000	1000	0	0	-1	0
8304523	6012	2	0	-100	0	230	101300000	1000	0	0	-1	0
8317083	6010	0	0	-100	0	230	101300000	1000	0	0	-1	0
8329643	6016	0	0	-100	0	230	101300000	1000	0	0	-1	0
8342203	6012	0	0	-100	0	230	101300000	1000	0	0	-1	0
8354763	6018	0	0	-100	0	230	101300000	1000	0	0	-1	0
8367323	6010	2	0	-100	0	230	101300000	1000	0	0	-1	0
8379883	6008	0	0	-100	0	230	101300000	1000	0	0	-1	0
8392443	6014	0	0	-100	0	230	101300000	1000	0	0	-1	0
8405004	6014	0	0	-100	0	230	101300000	1000	0	0	-1	0
8417563	6020	0	0	-100	0	230	101300000	1000	0	0	-1	0
8430123	6012	1	0	-100	0	230	101300000	1000	0	0	-1	0
8442683	6009	0	0	-100	0	230	101300000	1000	0	0	-1	0
8455243	6017	0	0	-100	0	230	101300000	1000	0	0	-1	0
8467803	6008	3	0	-100	0	230	101300000	1000	0	0	-1	0
8480363	6013	0	0	-100	0	230	101300000	1000	0	0	-1	0
8492923	6014	0	0	-100	0	230	101300000	1000	0	0	-1	0
8505483	6010	0	0	-100	0	230	101300000	1000	0	0	-1	0
8518043	6021	0	0	-100	0	230	101300000	1000	0	0	-1	0
8530603	6007	1	0	-100	0	230	101300000	1000	0	0	-1	0
8543163	6025	0	0	-100	0	230	101300000	1000	0	0	-1	0
8555723	6011	4	0	-100	0	230	101300000	1000	0	0	-1	0
8568283	6017	0	0	-100	0	230	101300000	1000	0	0	-1	0
8580843	6008	5	0	-100	0	230	101300000	1000	0	0	-1	0
8593403	6016	0	0	-100	0	230	101300000	1000	0	0	-1	0
8605963	6011	2	0	-100	0	230	101300000	1000	0	0	-1	0
8618523	6008	1	0	-100	0	230	101300000	1000	0	0	-1	0
8631083	6016	0	0	-100	0	230	101300000	1000	0	0	-1	0
8643643	6010	1	0	-100	0	230	101300000	1000	0	0	-1	0
8656203	6011	0	0	-100	0	230	101300000	1000	0	0	-1	0
8668763	6019	0	0	-100	0	230	101300000	1000	0	0	-1	0
8681323	6010	0	0	-100	0	230	101300000	1000	0	0	-1	0
8693883	6018	0	0	-100	0	230	101300000	1000	0	0	-1	0
8706443	6009	4	0	-100	0	230	101300000	1000	0	0	-1	0
8719004	6014	0	0	-100	0	230	101300000	1000	0	0	-1	0
8731563	6008	1	0	-100	0	230	101300000	1000	0	0	-1	0
8744123	6012	0	0	-100	0	230	101300000	1000	0	0	-1	0
8756683	6019	0	0	-100	0	230	101300000	1000	0	0	-1	0
8769243	6011	5	0	-100	0	230	101300000	1000	0	0	-1	0
8781803	6012	0	0	-100	0	230	101300000	1000	0	0	-1	0
8794363	6016	0	0	-100	0	230	101300000	1000	0	0	-1	0
8806923	6010	3	0	-100	0	230	101300000	1000	0	0	-1	0
8819483	6012	0	0	-100	0	230	101300000	1000	0	0	-1	0
8832043	6016	0	0	-100	0	230	101300000	1000	0	0	-1	0
8844603	6013	7	0	-100	0	230	101300000	1000	0	0	-1	0
8857163	6025	0	0	-100	0	230	101300000	1000	0	0	-1	0
8869723	6008	1	0	-100	0	230	101300000	1000	0	0	-1	0
8882283	6010	0	0	-100	0	230	101300000	1000	0	0	-1	0
8894843	6014	0	0	-100	0	230	101300000	1000	0	0	-1	0
8907403	6012	0	0	-100	0	230	101300000	1000	0	0	-1	0
8919963	6012	0	0	-100	0	230	101300000	1000	0	0	-1	0
8932523	6017	0	0	-100	0	230	101300000	1000	0	0	-1	0
8945083	6009	2	0	-100	0	230	101300000	1000	0	0	-1	0
8957643	6008	0	0	-100	0	230	101300000	1000	0	0	-1	0
8970203	6016	0	0	-100	0	230	101300000	1000	0	0	-1	0
8982763	6013	3	0	-100	0	230	101300000	1000	0	0	-1	0
8995323	6010	0	0	-100	0	230	101300000	1000	0	0	-1	0
9007883	6014	0	0	-100	0	230	101300000	1000	0	0	-1	0
9020443	6008	2	0	-100	0	230	101300000	1000	0	0	-1	0
9033004	6025	0	0	-100	0	230	101300000	1000	0	0	-1	0
9045563	6016	0	0	-100	0	230	101300000	1000	0	0	-1	0
9058123	6008	4	0	-100	0	230	101300000	1000	0	0	-1	0
9070683	6012	0	0	-100	0	230	101300000	1000	0	0	-1	0
9083243	6016	0	0	-100	0	230	101300000	1000	0	0	-1	0
9095803	6012	5	0	-100	0	230	101300000	1000	0	0	-1	0
9108363	6015	0	0	-100	0	230	101300000	1000	0	0	-1	0
9120923	6017	0	0	-100	0	230	101300000	1000	0	0	-1	0
9133483	6012	3	0	-100	0	230	101300000	1000	0	0	-1	0
9146043	6013	0	0	-100	0	230	101300000	1000	0	0	-1	0
9158603	6009	0	0	-100	0	230	101300000	1000	0	0	-1	0
9171163	6019	2	0	-100	0	230	101300000	1000	0	0	-1	0
9183723	6014	0	0	-100	0	230	101300000	1000	0	0	-1	0
9196283	6018	0	0	-100	0	230	101300000	1000	0	0	-1	0
9208843	6008	2	0	-100	0	230	101300000	1000	0	0	-1	0
9221403	6005	0	0	-100	0	230	101300000	1000	0	0	-1	0
9233963	6013	0	0	-100	0	230	101300000	1000	0	0	-1	0
9246523	6015	0	0	-100	0	230	101300000	1000	0	0	-1	0
9259083	6012	2	0	-100	0	230	101300000	1000	0	0	-1	0
9271643	6011	4	0	-100	0	230	101300000	1000	0	0	-1	0
9284203	6010	0	0	-100	0	230	101300000	1000	0	0	-1	0
9296763	6017	0	0	-100	0	230	101300000	1000	0	0	-1	0
9309323	6018	0	0	-100	0	230	101300000	1000	0	0	-1	0
9321883	6007	3	0	-100	0	230	101300000	1000	0	0	-1	0
9334443	6015	4	0	-100	0	230	101300000	1000	0	0	-1	0
9347004	6023	0	0	-100	0	230	101300000	1000	0	0	-1	0
9359563	6017	0	0	-100	0	230	101300000	1000	0	0	-1	0
9372123	6009	2	0	-100	0	230	101300000	1000	0	0	-1	0
9384683	6008	0	0	-100	0	230	101300000	1000	0	0	-1	0
9397243	6016	0	0	-100	0	230	101300000	1000	0	0	-1	0
9409803	6011	0	0	-100	0	230	101300000	1000	0	0	-1	0
9422363	6012	2	0	-100	0	230	101300000	1000	0	0	-1	0
9434923	6016	0	0	-100	0	230	101300000	1000	0	0	-1	0
9447483	6016	0	0	-100	0	230	101300000	1000	0	0	-1	0
9460043	6012	4	0	-100	0	230	101300000	1000	0	0	-1	0
9472603	6011	0	0	-100	0	230	101300000	1000	0	0	-1	0
9485163	6024	0	0	-100	0	230	101300000	1000	0	0	-1	0
9497723	6013	3	0	-100	0	230	101300000	1000	0	0	-1	0
9510283	6008	0	0	-100	0	230	101300000	1000	0	0	-1	0
9522843	6014	0	0	-100	0	230	101300000	1000	0	0	-1	0
9535403	6014	0	0	-100	0	230	101300000	1000	0	0	-1	0
9547963	6012	4	0	-100	0	230	101300000	1000	0	0	-1	0
9560523	6017	0	0	-100	0	230	101300000	1000	0	0	-1	0
9573083	6010	3	0	-100	0	230	101300000	1000	0	0	-1	0
9585643	6013	0	0	-100	0	230	101300000	1000	0	0	-1	0
9598203	6012	0	0	-100	0	230	101300000	1000	0	0	-1	0
9610763	6009	1	0	-100	0	230	101300000	1000	0	0	-1	0
9623323	6008	3	0	-100	0	230	101300000	1000	0	0	-1	0
9635883	6010	4	0	-100	0	230	101300000	1000	0	0	-1	0
9648443	6009	4	0	-100	0	230	101300000	1000	0	0	-1	0
9661004	6020	0	0	-100	0	230	101300000	1000	0	0	-1	0
9673563	6010	4	0	-100	0	230	101300000	1000	0	0	-1	0
9686123	6012	2	0	-100	0	230	101300000	1000	0	0	-1	0
9698683	6012	0	0	-100	0	230	101300000	1000	0	0	-1	0
9711243	6013	0	0	-100	0	230	101300000	1000	0	0	-1	0
9723803	6011	2	0	-100	0	230	101300000	1000	0	0	-1	0
9736363	6014	0	0	-100	0	230	101300000	1000	0	0	-1	0
9748923	6014	0	0	-100	0	230	101300000	1000	0	0	-1	0
9761483	6012	1	0	-100	0	230	101300000	1000	0	0	-1	0
9774043	6010	1	0	-100	0	230	101300000	1000	0	0	-1	0
9786603	6016	0	0	-100	0	230	101300000	1000	0	0	-1	0
9799163	6028	0	0	-100	0	230	101300000	1000	0	0	-1	0
9811723	6014	0	0	-100	0	230	101300000	1000	0	0	-1	0
9824283	6019	0	0	-100	0	230	101300000	1000	0	0	-1	0
9836843	6012	0	0	-100	0	230	101300000	1000	0	0	-1	0
9849403	6019	0	0	-100	0	230	101300000	1000	0	0	-1	0
9861963	6012	0	0	-100	0	230	101300000	1000	0	0	-1	0
9874523	6010	0	0	-100	0	230	101300000	1000	0	0	-1	0
9887083	6007	0	0	-100	0	230	101300000	1000	0	0	-1	0
9899643	6011	4	0	-100	0	230	101300000	1000	0	0	-1	0
9912203	6012	5	0	-100	0	230	101300000	1000	0	0	-1	0
9924763	6012	5	0	-100	0	230	101300000	1000	0	0	-1	0
9937323	6014	4	0	-100	0	230	101300000	1000	0	0	-1	0
9949883	6014	1	0	-100	0	230	101300000	1000	0	0	-1	0
9962443	6005	0	0	-100	0	230	101300000	1000	0	0	-1	0
9975004	6023	0	0	-100	0	230	101300000	1000	0	0	-1	0
9987563	6011	0	0	-100	0	230	101300000	1000	0	0	-1	0
10000123	6013	0	0	-100	0	230	101300000	1000	0	0	-1	0
10012683	6017	0	0	-100	0	230	101300000	1000	0	0	-1	0
10025243	6017	0	0	-100	0	230	101300000	1000	0	0	-1	0
10037803	6018	0	0	-100	0	230	101300000	1000	0	0	-1	0
10050363	6020	0	0	-100	0	230	101300000	1000	0	0	-1	0
10062923	6018	0	0	-100	0	230	101300000	1000	0	0	-1	0
10075483	6016	0	0	-100	0	230	101300000	1000	0	0	-1	0
10088043	6017	0	0	-100	0	230	101300000	1000	0	0	-1	0
10100603	6010	0	0	-100	0	230	101300000	1000	0	0	-1	0
10113163	6020	0	0	-100	0	230	101300000	1000	0	0	-1	0
10125723	6012	0	0	-100	0	230	101300000	1000	0	0	-1	0
10138283	6015	0	0	-100	0	230	101300000	1000	0	0	-1	0
10150843	6011	0	0	-100	0	230	101300000	1000	0	0	-1	0
10163403	6011	0	0	-100	0	230	101300000	1000	0	0	-1	0
10175963	6008	0	0	-100	0	230	101300000	1000	0	0	-1	0
10188523	6010	4	0	-100	0	230	101300000	1000	0	0	-1	0
10201083	6006	5	0	-100	0	230	101300000	1000	0	0	-1	0
10213643	6004	3	0	-100	0	230	101300000	1000	0	0	-1	0
10226203	6008	2	0	-100	0	230	101300000	1000	0	0	-1	0
10238763	6010	1	0	-100	0	230	101300000	1000	0	0	-1	0
10251323	6011	1	0	-100	0	230	101300000	1000	0	0	-1	0
10263883	6012	0	0	-100	0	230	101300000	1000	0	0	-1	0
10276443	6018	0	0	-100	0	230	101300000	1000	0	0	-1	0
10289004	6017	1	0	-100	0	230	101300000	1000	0	0	-1	0
10301563	6015	0	0	-100	0	230	101300000	1000	0	0	-1	0
10314123	6007	0	0	-100	0	230	101300000	1000	0	0	-1	0
10326683	6012	4	0	-100	0	230	101300000	1000	0	0	-1	0
10339243	6012	3	0	-100	0	230	101300000	1000	0	0	-1	0
10351803	6010	5	0	-100	0	230	101300000	1000	0	0	-1	0
10364363	6012	1	0	-100	0	230	101300000	1000	0	0	-1	0
10376923	6012	0	0	-100	0	230	101300000	1000	0	0	-1	0
10389483	6017	0	0	-100	0	230	101300000	1000	0	0	-1	0
10402043	6015	0	0	-100	0	230	101300000	1000	0	0	-1	0
10414603	6015	0	0	-100	0	230	101300000	1000	0	0	-1	0
10427163	6016	0	0	-100	0	230	101300000	1000	0	0	-1	0
10439723	6013	0	0	-100	0	230	101300000	1000	0	0	-1	0
10452283	6012	2	0	-100	0	230	101300000	1000	0	0	-1	0
10464843	6012	3	0	-100	0	230	101300000	1000	0	0	-1	0
10477403	6014	4	0	-100	0	230	101300000	1000	0	0	-1	0
10489963	6014	4	0	-100	0	230	101300000	1000	0	0	-1	0
10502523	6010	6	0	-100	0	230	101300000	1000	0	0	-1	0
10515083	6012	4	0	-100	0	230	101300000	1000	0	0	-1	0
10527643	6008	4	0	-100	0	230	101300000	1000	0	0	-1	0
10540203	6008	2	0	-100	0	230	101300000	1000	0	0	-1	0
10552763	6010	2	0	-100	0	230	101300000	1000	0	0	-1	0
10565323	6012	1	0	-100	0	230	101300000	1000	0	0	-1	0
10577883	6012	0	0	-100	0	230	101300000	1000	0	0	-1	0
10590443	6010	3	0	-100	0	230	101300000	1000	0	0	-1	0
10603004	6022	0	0	-100	0	230	101300000	1000	0	0	-1	0
10615563	6010	0	0	-100	0	230	101300000	1000	0	0	-1	0
10628123	6013	0	0	-100	0	230	101300000	1000	0	0	-1	0
10640683	6019	0	0	-100	0	230	101300000	1000	0	0	-1	0
10653243	6018	0	0	-100	0	230	101300000	1000	0	0	-1	0
10665803	6017	0	0	-100	0	230	101300000	1000	0	0	-1	0
10678363	6016	0	0	-100	0	230	101300000	1000	0	0	-1	0
10690923	6009	1	0	-100	0	230	101300000	1000	0	0	-1	0
10703483	6009	3	0	-100	0	230	101300000	1000	0	0	-1	0
10716043	6010	4	0	-100	0	230	101300000	1000	0	0	-1	0
10728603	6012	4	0	-100	0	230	101300000	1000	0	0	-1	0
10741163	6012	0	0	-100	0	230	101300000	1000	0	0	-1	0
10753723	6010	0	0	-100	0	230	101300000	1000	0	0	-1	0
10766283	6015	0	0	-100	0	230	101300000	1000	0	0	-1	0
10778843	6017	0	0	-100	0	230	101300000	1000	0	0	-1	0
10791403	6018	0	0	-100	0	230	101300000	1000	0	0	-1	0
10803963	6010	2	0	-100	0	230	101300000	1000	0	0	-1	0
10816523	6012	4	0	-100	0	230	101300000	1000	0	0	-1	0
10829083	6012	4	0	-100	0	230	101300000	1000	0	0	-1	0
10841643	6012	4	0	-100	0	230	101300000	1000	0	0	-1	0
10854203	6011	4	0	-100	0	230	101300000	1000	0	0	-1	0
10866763	6010	4	0	-100	0	230	101300000	1000	0	0	-1	0
10879323	6008	4	0	-100	0	230	101300000	1000	0	0	-1	0
10891883	6013	4	0	-100	0	230	101300000	1000	0	0	-1	0
10904443	6012	4	0	-100	0	230	101300000	1000	0	0	-1	0
10917004	6022	0	0	-100	0	230	101300000	1000	0	0	-1	0
10929563	6013	4	0	-100	0	230	101300000	1000	0	0	-1	0
10942123	6012	4	0	-100	0	230	101300000	1000	0	0	-1	0
10954683	6009	5	0	-100	0	230	101300000	1000	0	0	-1	0
10979803	6009	0	0	-100	0	230	101300000	1000	0	0	-1	0
10992363	6014	0	0	-100	0	230	101300000	1000	0	0	-1	0
11004923	6014	0	0	-100	0	230	101300000	1000	0	0	-1	0
11017483	6016	0	0	-100	0	230	101300000	1000	0	0	-1	0
11030043	6016	0	0	-100	0	230	101300000	1000	0	0	-1	0
11042603	6018	0	0	-100	0	230	101300000	1000	0	0	-1	0
11055163	6025	0	0	-100	0	230	101300000	1000	0	0	-1	0
11067723	6016	0	0	-100	0	230	101300000	1000	0	0	-1	0
11080283	6013	0	0	-100	0	230	101300000	1000	0	0	-1	0
11092843	6011	0	0	-100	0	230	101300000	1000	0	0	-1	0
11105403	6010	0	0	-100	0	230	101300000	1000	0	0	-1	0
11117963	6011	4	0	-100	0	230	101300000	1000	0	0	-1	0
11193323	6013	0	0	-100	0	230	101300000	1000	0	0	-1	0
11205883	6012	0	0	-100	0	230	101300000	1000	0	0	-1	0
11218443	6011	0	0	-100	0	230	101300000	1000	0	0	-1	0
11231004	6021	0	0	-100	0	230	101300000	1000	0	0	-1	0
11243563	6012	1	0	-100	0	230	101300000	1000	0	0	-1	0
11256123	6012	4	0	-100	0	230	101300000	1000	0	0	-1	0
11268683	6010	4	0	-100	0	230	101300000	1000	0	0	-1	0
11281243	6010	4	0	-100	0	230	101300000	1000	0	0	-1	0
11293803	6014	6	0	-100	0	230	101300000	1000	0	0	-1	0
11306363	6010	4	0	-100	0	230	101300000	1000	0	0	-1	0
11318923	6012	4	0	-100	0	230	101300000	1000	0	0	-1	0
11331483	6012	0	0	-100	0	230	101300000	1000	0	0	-1	0
11344043	6011	3	0	-100	0	230	101300000	1000	0	0	-1	0
11356603	6007	0	0	-100	0	230	101300000	1000	0	0	-1	0
11369163	6018	0	0	-100	0	230	101300000	1000	0	0	-1	0
11381723	6010	0	0	-100	0	230	101300000	1000	0	0	-1	0
11394283	6010	0	0	-100	0	230	101300000	1000	0	0	-1	0
11406843	6012	0	0	-100	0	230	101300000	1000	0	0	-1	0
11419403	6014	0	0	-100	0	230	101300000	1000	0	0	-1	0
11431963	6013	0	0	-100	0	230	101300000	1000	0	0	-1	0
11444523	6010	0	0	-100	0	230	101300000	1000	0	0	-1	0
11457083	6014	0	0	-100	0	230	101300000	1000	0	0	-1	0
11469643	6013	0	0	-100	0	230	101300000	1000	0	0	-1	0
11482203	6014	0	0	-100	0	230	101300000	1000	0	0	-1	0
11494763	6012	4	0	-100	0	230	101300000	1000	0	0	-1	0
11507323	6016	3	0	-100	0	230	101300000	1000	0	0	-1	0
11519883	6010	0	0	-100	0	230	101300000	1000	0	0	-1	0
11532443	6015	0	0	-100	0	230	101300000	1000	0	0	-1	0
11545004	6015	1	0	-100	0	230	101300000	1000	0	0	-1	0
11557563	6016	0	0	-100	0	230	101300000	1000	0	0	-1	0
11570123	6010	3	0	-100	0	230	101300000	1000	0	0	-1	0
11582683	6016	4	0	-100	0	230	101300000	1000	0	0	-1	0
11595243	6007	0	0	-100	0	230	101300000	1000	0	0	-1	0
11607803	6012	0	0	-100	0	230	101300000	1000	0	0	-1	0
11620363	6014	0	0	-100	0	230	101300000	1000	0	0	-1	0
11632923	6018	0	0	-100	0	230	101300000	1000	0	0	-1	0
11645483	6016	0	0	-100	0	230	101300000	1000	0	0	-1	0
11658043	6015	0	0	-100	0	230	101300000	1000	0	0	-1	0
11670603	6010	0	0	-100	0	230	101300000	1000	0	0	-1	0
11683163	6019	0	0	-100	0	230	101300000	1000	0	0	-1	0
11695723	6011	4	0	-100	0	230	101300000	1000	0	0	-1	0
11708283	6010	5	0	-100	0	230	101300000	1000	0	0	-1	0
11720843	6009	0	0	-100	0	230	101300000	1000	0	0	-1	0
11733403	6010	0	0	-100	0	230	101300000	1000	0	0	-1	0
11745963	6012	0	0	-100	0	230	101300000	1000	0	0	-1	0
11758523	6011	0	0	-100	0	230	101300000	1000	0	0	-1	0
11771083	6011	0	0	-100	0	230	101300000	1000	0	0	-1	0
11783643	6012	0	0	-100	0	230	101300000	1000	0	0	-1	0
11796203	6016	0	0	-100	0	230	101300000	1000	0	0	-1	0
11808763	6016	0	0	-100	0	230	101300000	1000	0	0	-1	0
11821323	6016	0	0	-100	0	230	101300000	1000	0	0	-1	0
11833883	6017	0	0	-100	0	230	101300000	1000	0	0	-1	0
11846443	6020	0	0	-100	0	230	101300000	1000	0	0	-1	0
11859004	6014	0	0	-100	0	230	101300000	1000	0	0	-1	0
11871563	6012	0	0	-100	0	230	101300000	1000	0	0	-1	0
11884123	6008	0	0	-100	0	230	101300000	1000	0	0	-1	0
11896683	6012	4	0	-100	0	230	101300000	1000	0	0	-1	0
11909243	6010	2	0	-100	0	230	101300000	1000	0	0	-1	0
11921803	6016	0	0	-100	0	230	101300000	1000	0	0	-1	0
11934363	6019	0	0	-100	0	230	101300000	1000	0	0	-1	0
11946923	6017	0	0	-100	0	230	101300000	1000	0	0	-1	0
11959483	6015	0	0	-100	0	230	101300000	1000	0	0	-1	0
11972043	6011	0	0	-100	0	230	101300000	1000	0	0	-1	0
11984603	6008	1	0	-100	0	230	101300000	1000	0	0	-1	0
11997163	6021	4	0	-100	0	230	101300000	1000	0	0	-1	0
12009723	6010	3	0	-100	0	230	101300000	1000	0	0	-1	0
12022283	6008	2	0	-100	0	230	101300000	1000	0	0	-1	0
12034843	6013	0	0	-100	0	230	101300000	1000	0	0	-1	0
12047403	6017	0	0	-100	0	230	101300000	1000	0	0	-1	0
12059963	6015	0	0	-100	0	230	101300000	1000	0	0	-1	0
12072523	6012	0	0	-100	0	230	101300000	1000	0	0	-1	0
12085083	6010	0	0	-100	0	230	101300000	1000	0	0	-1	0
12097643	6006	0	0	-100	0	230	101300000	1000	0	0	-1	0
12110203	6011	0	0	-100	0	230	101300000	1000	0	0	-1	0
12122763	6012	4	0	-100	0	230	101300000	1000	0	0	-1	0
12135323	6012	1	0	-100	0	230	101300000	1000	0	0	-1	0
12147883	6017	0	0	-100	0	230	101300000	1000	0	0	-1	0
12160443	6016	0	0	-100	0	230	101300000	1000	0	0	-1	0
12173004	6012	0	0	-100	0	230	101300000	1000	0	0	-1	0
12185563	6012	0	0	-100	0	230	101300000	1000	0	0	-1	0
12198123	6014	0	0	-100	0	230	101300000	1000	0	0	-1	0
12210683	6014	0	0	-100	0	230	101300000	1000	0	0	-1	0
12223243	6012	0	0	-100	0	230	101300000	1000	0	0	-1	0
12235803	6011	0	0	-100	0	230	101300000	1000	0	0	-1	0
12248363	6013	0	0	-100	0	230	101300000	1000	0	0	-1	0
12260923	6012	0	0	-100	0	230	101300000	1000	0	0	-1	0
12273483	6011	0	0	-100	0	230	101300000	1000	0	0	-1	0
12286043	6013	0	0	-100	0	230	101300000	1000	0	0	-1	0
12298603	6013	0	0	-100	0	230	101300000	1000	0	0	-1	0
12311163	6020	0	0	-100	0	230	101300000	1000	0	0	-1	0
12323723	6016	0	0	-100	0	230	101300000	1000	0	0	-1	0
12336283	6014	0	0	-100	0	230	101300000	1000	0	0	-1	0
12348843	6018	0	0	-100	0	230	101300000	1000	0	0	-1	0
12361403	6010	0	0	-100	0	230	101300000	1000	0	0	-1	0
12373963	6010	2	0	-100	0	230	101300000	1000	0	0	-1	0
12386523	6010	4	0	-100	0	230	101300000	1000	0	0	-1	0
12399083	6010	4	0	-100	0	230	101300000	1000	0	0	-1	0
12411643	6010	4	0	-100	0	230	101300000	1000	0	0	-1	0
12424203	6012	4	0	-100	0	230	101300000	1000	0	0	-1	0
12436763	6012	5	0	-100	0	230	101300000	1000	0	0	-1	0
12449323	6012	0	0	-100	0	230	101300000	1000	0	0	-1	0
12461883	6007	0	0	-100	0	230	101300000	1000	0	0	-1	0
12474443	6008	0	0	-100	0	230	101300000	1000	0	0	-1	0
12487004	6022	0	0	-100	0	230	101300000	1000	0	0	-1	0
12499563	6007	1	0	-100	0	230	101300000	1000	0	0	-1	0
12512123	6007	0	0	-100	0	230	101300000	1000	0	0	-1	0
12524683	6012	5	0	-100	0	230	101300000	1000	0	0	-1	0
12537243	6010	4	0	-100	0	230	101300000	1000	0	0	-1	0
12549803	6007	2	0	-100	0	230	101300000	1000	0	0	-1	0
12562363	6015	0	0	-100	0	230	101300000	1000	0	0	-1	0
12574923	6013	0	0	-100	0	230	101300000	1000	0	0	-1	0
12587483	6013	0	0	-100	0	230	101300000	1000	0	0	-1	0
12600043	6008	0	0	-100	0	230	101300000	1000	0	0	-1	0
12612603	6012	1	0	-100	0	230	101300000	1000	0	0	-1	0
12625163	6020	2	0	-100	0	230	101300000	1000	0	0	-1	0
12637723	6010	4	0	-100	0	230	101300000	1000	0	0	-1	0
12650283	6010	3	0	-100	0	230	101300000	1000	0	0	-1	0
12662843	6006	4	0	-100	0	230	101300000	1000	0	0	-1	0
12675403	6012	2	0	-100	0	230	101300000	1000	0	0	-1	0
12687963	6014	1	0	-100	0	230	101300000	1000	0	0	-1	0
12700523	6012	3	0	-100	0	230	101300000	1000	0	0	-1	0
12713083	6008	4	0	-100	0	230	101300000	1000	0	0	-1	0
12725643	6007	4	0	-100	0	230	101300000	1000	0	0	-1	0
12738203	6012	4	0	-100	0	230	101300000	1000	0	0	-1	0
12750763	6007	0	0	-100	0	230	101300000	1000	0	0	-1	0
12763323	6010	0	0	-100	0	230	101300000	1000	0	0	-1	0
12775883	6007	0	0	-100	0	230	101300000	1000	0	0	-1	0
12788443	6010	4	0	-100	0	230	101300000	1000	0	0	-1	0
12801004	6021	0	0	-100	0	230	101300000	1000	0	0	-1	0
12813563	6020	0	0	-100	0	230	101300000	1000	0	0	-1	0
12826123	6016	0	0	-100	0	230	101300000	1000	0	0	-1	0
12838683	6015	0	0	-100	0	230	101300000	1000	0	0	-1	0
12851243	6016	0	0	-100	0	230	101300000	1000	0	0	-1	0
12863803	6012	0	0	-100	0	230	101300000	1000	0	0	-1	0
12876363	6014	3	0	-100	0	230	101300000	1000	0	0	-1	0
12888923	6010	2	0	-100	0	230	101300000	1000	0	0	-1	0
12901483	6008	1	0	-100	0	230	101300000	1000	0	0	-1	0
12914043	6016	0	0	-100	0	230	101300000	1000	0	0	-1	0
12926603	6017	0	0	-100	0	230	101300000	1000	0	0	-1	0
12939163	6018	0	0	-100	0	230	101300000	1000	0	0	-1	0
12951723	6007	0	0	-100	0	230	101300000	1000	0	0	-1	0
12964283	6010	2	0	-100	0	230	101300000	1000	0	0	-1	0
12976843	6015	0	0	-100	0	230	101300000	1000	0	0	-1	0
12989403	6018	0	0	-100	0	230	101300000	1000	0	0	-1	0
13001963	6015	0	0	-100	0	230	101300000	1000	0	0	-1	0
13014523	6011	0	0	-100	0	230	101300000	1000	0	0	-1	0
13027083	6008	0	0	-100	0	230	101300000	1000	0	0	-1	0
13039643	6012	3	0	-100	0	230	101300000	1000	0	0	-1	0
13052203	6008	4	0	-100	0	230	101300000	1000	0	0	-1	0
13064763	6010	3	0	-100	0	230	101300000	1000	0	0	-1	0
13077323	6013	0	0	-100	0	230	101300000	1000	0	0	-1	0
13089883	6014	0	0	-100	0	230	101300000	1000	0	0	-1	0
13102443	6015	0	0	-100	0	230	101300000	1000	0	0	-1	0
13115004	6022	0	0	-100	0	230	101300000	1000	0	0	-1	0
13127563	6012	4	0	-100	0	230	101300000	1000	0	0	-1	0
13140123	6010	3	0	-100	0	230	101300000	1000	0	0	-1	0
13152683	6012	0	0	-100	0	230	101300000	1000	0	0	-1	0
13165243	6013	0	0	-100	0	230	101300000	1000	0	0	-1	0
13177803	6012	4	0	-100	0	230	101300000	1000	0	0	-1	0
13190363	6010	3	0	-100	0	230	101300000	1000	0	0	-1	0
13202923	6019	0	0	-100	0	230	101300000	1000	0	0	-1	0
13215483	6013	0	0	-100	0	230	101300000	1000	0	0	-1	0
13228043	6011	3	0	-100	0	230	101300000	1000	0	0	-1	0
13240603	6008	2	0	-100	0	230	101300000	1000	0	0	-1	0
13253163	6016	0	0	-100	0	230	101300000	1000	0	0	-1	0
13265723	6016	0	0	-100	0	230	101300000	1000	0	0	-1	0
13278283	6012	0	0	-100	0	230	101300000	1000	0	0	-1	0
13290843	6008	0	0	-100	0	230	101300000	1000	0	0	-1	0
13303403	6011	1	0	-100	0	230	101300000	1000	0	0	-1	0
13315963	6009	4	0	-100	0	230	101300000	1000	0	0	-1	0
13328523	6010	1	0	-100	0	230	101300000	1000	0	0	-1	0
13341083	6014	0	0	-100	0	230	101300000	1000	0	0	-1	0
13353643	6012	0	0	-100	0	230	101300000	1000	0	0	-1	0
13366203	6010	0	0	-100	0	230	101300000	1000	0	0	-1	0
13378763	6012	4	0	-100	0	230	101300000	1000	0	0	-1	0
13391323	6010	5	0	-100	0	230	101300000	1000	0	0	-1	0
13403883	6010	2	0	-100	0	230	101300000	1000	0	0	-1	0
13416443	6012	0	0	-100	0	230	101300000	1000	0	0	-1	0
13429004	6013	0	0	-100	0	230	101300000	1000	0	0	-1	0
13441563	6016	0	0	-100	0	230	101300000	1000	0	0	-1	0
13454123	6007	0	0	-100	0	230	101300000	1000	0	0	-1	0
13466683	6012	4	0	-100	0	230	101300000	1000	0	0	-1	0
13479243	6010	0	0	-100	0	230	101300000	1000	0	0	-1	0
13491803	6016	0	0	-100	0	230	101300000	1000	0	0	-1	0
13504363	6017	0	0	-100	0	230	101300000	1000	0	0	-1	0
13516923	6013	0	0	-100	0	230	101300000	1000	0	0	-1	0
13529483	6011	0	0	-100	0	230	101300000	1000	0	0	-1	0
13542043	6010	0	0	-100	0	230	101300000	1000	0	0	-1	0
13554603	6008	1	0	-100	0	230	101300000	1000	0	0	-1	0
13567163	6018	3	0	-100	0	230	101300000	1000	0	0	-1	0
13579723	6013	3	0	-100	0	230	101300000	1000	0	0	-1	0
13592283	6010	2	0	-100	0	230	101300000	1000	0	0	-1	0
13604843	6012	4	0	-100	0	230	101300000	1000	0	0	-1	0
13617403	6010	2	0	-100	0	230	101300000	1000	0	0	-1	0
13629963	6010	2	0	-100	0	230	101300000	1000	0	0	-1	0
13642523	6010	4	0	-100	0	230	101300000	1000	0	0	-1	0
13655083	6008	4	0	-100	0	230	101300000	1000	0	0	-1	0
13667643	6009	3	0	-100	0	230	101300000	1000	0	0	-1	0
13680203	6008	3	0	-100	0	230	101300000	1000	0	0	-1	0
13692763	6012	0	0	-100	0	230	101300000	1000	0	0	-1	0
13705323	6012	1	0	-100	0	230	101300000	1000	0	0	-1	0
13717883	6008	1	0	-100	0	230	101300000	1000	0	0	-1	0
13730443	6012	1	0	-100	0	230	101300000	1000	0	0	-1	0
13743004	6014	0	0	-100	0	230	101300000	1000	0	0	-1	0
13755563	6006	1	0	-100	0	230	101300000	1000	0	0	-1	0
13768123	6014	3	0	-100	0	230	101300000	1000	0	0	-1	0
13780683	6008	3	0	-100	0	230	101300000	1000	0	0	-1	0
13793243	6009	1	0	-100	0	230	101300000	1000	0	0	-1	0
13805803	6012	2	0	-100	0	230	101300000	1000	0	0	-1	0
13818363	6010	0	0	-100	0	230	101300000	1000	0	0	-1	0
13830923	6017	0	0	-100	0	230	101300000	1000	0	0	-1	0
13843483	6016	0	0	-100	0	230	101300000	1000	0	0	-1	0
13856043	6016	0	0	-100	0	230	101300000	1000	0	0	-1	0
13893723	6009	0	0	-100	0	230	101300000	1000	0	0	-1	0
13906283	6010	0	0	-100	0	230	101300000	1000	0	0	-1	0
13918843	6006	0	0	-100	0	230	101300000	1000	0	0	-1	0
13931403	6011	4	0	-100	0	230	101300000	1000	0	0	-1	0
13943963	6012	3	0	-100	0	230	101300000	1000	0	0	-1	0
13956523	6012	1	0	-100	0	230	101300000	1000	0	0	-1	0
13969083	6008	2	0	-100	0	230	101300000	1000	0	0	-1	0
13981643	6012	1	0	-100	0	230	101300000	1000	0	0	-1	0
13994203	6016	0	0	-100	0	230	101300000	1000	0	0	-1	0
14006763	6016	0	0	-100	0	230	101300000	1000	0	0	-1	0
14019323	6019	0	0	-100	0	230	101300000	1000	0	0	-1	0
14031883	6010	0	0	-100	0	230	101300000	1000	0	0	-1	0
14094683	6011	0	0	-100	0	230	101300000	1000	0	0	-1	0
14107243	6012	0	0	-100	0	230	101300000	1000	0	0	-1	0
14119803	6022	0	0	-100	0	230	101300000	1000	0	0	-1	0
14132363	6014	0	0	-100	0	230	101300000	1000	0	0	-1	0
14144923	6016	0	0	-100	0	230	101300000	1000	0	0	-1	0
14157483	6015	0	0	-100	0	230	101300000	1000	0	0	-1	0
14170043	6015	0	0	-100	0	230	101300000	1000	0	0	-1	0
14182603	6010	0	0	-100	0	230	101300000	1000	0	0	-1	0
14195163	6016	0	0	-100	0	230	101300000	1000	0	0	-1	0
14207723	6008	0	0	-100	0	230	101300000	1000	0	0	-1	0
14220283	6009	2	0	-100	0	230	101300000	1000	0	0	-1	0
14232843	6013	4	0	-100	0	230	101300000	1000	0	0	-1	0
14270523	6014	0	0	-100	0	230	101300000	1000	0	0	-1	0
14283083	6010	0	0	-100	0	230	101300000	1000	0	0	-1	0
14295643	6012	4	0	-100	0	230	101300000	1000	0	0	-1	0
14308203	6012	2	0	-100	0	230	101300000	1000	0	0	-1	0
14320763	6010	0	0	-100	0	230	101300000	1000	0	0	-1	0
14333323	6015	0	0	-100	0	230	101300000	1000	0	0	-1	0
14345883	6014	0	0	-100	0	230	101300000	1000	0	0	-1	0
14358443	6014	0	0	-100	0	230	101300000	1000	0	0	-1	0
14371004	6017	0	0	-100	0	230	101300000	1000	0	0	-1	0
14383563	6015	0	0	-100	0	230	101300000	1000	0	0	-1	0
14396123	6016	0	0	-100	0	230	101300000	1000	0	0	-1	0
14408683	6010	0	0	-100	0	230	101300000	1000	0	0	-1	0
14421243	6012	0	0	-100	0	230	101300000	1000	0	0	-1	0
14433803	6010	0	0	-100	0	230	101300000	1000	0	0	-1	0
14446363	6008	0	0	-100	0	230	101300000	1000	0	0	-1	0
14458923	6010	0	0	-100	0	230	101300000	1000	0	0	-1	0
14471483	6005	0	0	-100	0	230	101300000	1000	0	0	-1	0
14484043	6010	0	0	-100	0	230	101300000	1000	0	0	-1	0
14496603	6007	0	0	-100	0	230	101300000	1000	0	0	-1	0
14509163	6017	0	0	-100	0	230	101300000	1000	0	0	-1	0
14521723	6015	0	0	-100	0	230	101300000	1000	0	0	-1	0
14534283	6011	0	0	-100	0	230	101300000	1000	0	0	-1	0
14546843	6008	0	0	-100	0	230	101300000	1000	0	0	-1	0
14559403	6008	0	0	-100	0	230	101300000	1000	0	0	-1	0
14571963	6008	0	0	-100	0	230	101300000	1000	0	0	-1	0
14584523	6008	0	0	-100	0	230	101300000	1000	0	0	-1	0
14597083	6012	1	0	-100	0	230	101300000	1000	0	0	-1	0
14609643	6006	0	0	-100	0	230	101300000	1000	0	0	-1	0
14622203	6007	0	0	-100	0	230	101300000	1000	0	0	-1	0
14634763	6007	0	0	-100	0	230	101300000	1000	0	0	-1	0
14647323	6012	2	0	-100	0	230	101300000	1000	0	0	-1	0
14659883	6004	1	0	-100	0	230	101300000	1000	0	0	-1	0
14672443	6010	0	0	-100	0	230	101300000	1000	0	0	-1	0
14685004	6021	0	0	-100	0	230	101300000	1000	0	0	-1	0
14697563	6006	0	0	-100	0	230	101300000	1000	0	0	-1	0
14710123	6010	0	0	-100	0	230	101300000	1000	0	0	-1	0
14722683	6015	0	0	-100	0	230	101300000	1000	0	0	-1	0
14735243	6016	0	0	-100	0	230	101300000	1000	0	0	-1	0
14747803	6014	0	0	-100	0	230	101300000	1000	0	0	-1	0
14760363	6017	0	0	-100	0	230	101300000	1000	0	0	-1	0
14772923	6019	0	0	-100	0	230	101300000	1000	0	0	-1	0
14785483	6012	0	0	-100	0	230	101300000	1000	0	0	-1	0
14798043	6012	1	0	-100	0	230	101300000	1000	0	0	-1	0
14810603	6008	4	0	-100	0	230	101300000	1000	0	0	-1	0
14823163	6016	0	0	-100	0	230	101300000	1000	0	0	-1	0
14835723	6015	0	0	-100	0	230	101300000	1000	0	0	-1	0
14848283	6018	0	0	-100	0	230	101300000	1000	0	0	-1	0
14860843	6011	0	0	-100	0	230	101300000	1000	0	0	-1	0
14873403	6012	3	0	-100	0	230	101300000	1000	0	0	-1	0
14885963	6007	0	0	-100	0	230	101300000	1000	0	0	-1	0
14898523	6015	0	0	-100	0	230	101300000	1000	0	0	-1	0
14911083	6016	0	0	-100	0	230	101300000	1000	0	0	-1	0
14923643	6008	1	0	-100	0	230	101300000	1000	0	0	-1	0
14936203	6010	5	0	-100	0	230	101300000	1000	0	0	-1	0
14948763	6008	0	0	-100	0	230	101300000	1000	0	0	-1	0
14961323	6016	0	0	-100	0	230	101300000	1000	0	0	-1	0
14973883	6014	0	0	-100	0	230	101300000	1000	0	0	-1	0
14986443	6012	0	0	-100	0	230	101300000	1000	0	0	-1	0
14999004	6017	0	0	-100	0	230	101300000	1000	0	0	-1	0
15011563	6008	0	0	-100	0	230	101300000	1000	0	0	-1	0
15024123	6010	0	0	-100	0	230	101300000	1000	0	0	-1	0
15036683	6011	0	0	-100	0	230	101300000	1000	0	0	-1	0
15049243	6016	0	0	-100	0	230	101300000	1000	0	0	-1	0
15061803	6014	0	0	-100	0	230	101300000	1000	0	0	-1	0
15074363	6016	0	0	-100	0	230	101300000	1000	0	0	-1	0
15086923	6012	0	0	-100	0	230	101300000	1000	0	0	-1	0
15099483	6012	1	0	-100	0	230	101300000	1000	0	0	-1	0
15112043	6012	0	0	-100	0	230	101300000	1000	0	0	-1	0
15124603	6012	3	0	-100	0	230	101300000	1000	0	0	-1	0
15137163	6016	4	0	-100	0	230	101300000	1000	0	0	-1	0
15149723	6010	0	0	-100	0	230	101300000	1000	0	0	-1	0
15162283	6011	0	0	-100	0	230	101300000	1000	0	0	-1	0
15174843	6012	0	0	-100	0	230	101300000	1000	0	0	-1	0
15187403	6017	0	0	-100	0	230	101300000	1000	0	0	-1	0
15199963	6014	0	0	-100	0	230	101300000	1000	0	0	-1	0
15212523	6014	0	0	-100	0	230	101300000	1000	0	0	-1	0
15225083	6012	0	0	-100	0	230	101300000	1000	0	0	-1	0
15237643	6014	0	0	-100	0	230	101300000	1000	0	0	-1	0
15250203	6017	0	0	-100	0	230	101300000	1000	0	0	-1	0
15262763	6021	0	0	-100	0	230	101300000	1000	0	0	-1	0
15275323	6015	0	0	-100	0	230	101300000	1000	0	0	-1	0
15287883	6008	3	0	-100	0	230	101300000	1000	0	0	-1	0
15300443	6008	6	0	-100	0	230	101300000	1000	0	0	-1	0
15313004	6021	0	0	-100	0	230	101300000	1000	0	0	-1	0
15325563	6005	0	0	-100	0	230	101300000	1000	0	0	-1	0
15338123	6008	0	0	-100	0	230	101300000	1000	0	0	-1	0
15350683	6015	0	0	-100	0	230	101300000	1000	0	0	-1	0
15363243	6013	0	0	-100	0	230	101300000	1000	0	0	-1	0
15375803	6019	0	0	-100	0	230	101300000	1000	0	0	-1	0
15388363	6008	2	0	-100	0	230	101300000	1000	0	0	-1	0
15400923	6010	4	0	-100	0	230	101300000	1000	0	0	-1	0
15413483	6010	1	0	-100	0	230	101300000	1000	0	0	-1	0
15426043	6008	0	0	-100	0	230	101300000	1000	0	0	-1	0
15438603	6012	0	0	-100	0	230	101300000	1000	0	0	-1	0
15451163	6016	0	0	-100	0	230	101300000	1000	0	0	-1	0
15463723	6009	0	0	-100	0	230	101300000	1000	0	0	-1	0
15476283	6010	0	0	-100	0	230	101300000	1000	0	0	-1	0
15488843	6012	0	0	-100	0	230	101300000	1000	0	0	-1	0
15501403	6012	0	0	-100	0	230	101300000	1000	0	0	-1	0
15513963	6015	0	0	-100	0	230	101300000	1000	0	0	-1	0
15526523	6016	0	0	-100	0	230	101300000	1000	0	0	-1	0
15539083	6014	0	0	-100	0	230	101300000	1000	0	0	-1	0
15551643	6017	0	0	-100	0	230	101300000	1000	0	0	-1	0
15564203	6014	1	0	-100	0	230	101300000	1000	0	0	-1	0
15576763	6009	1	0	-100	0	230	101300000	1000	0	0	-1	0
15589323	6008	4	0	-100	0	230	101300000	1000	0	0	-1	0
15601883	6012	4	0	-100	0	230	101300000	1000	0	0	-1	0
15614443	6008	0	0	-100	0	230	101300000	1000	0	0	-1	0
15627004	6022	0	0	-100	0	230	101300000	1000	0	0	-1	0
15639563	6013	0	0	-100	0	230	101300000	1000	0	0	-1	0
15652123	6014	0	0	-100	0	230	101300000	1000	0	0	-1	0
15664683	6016	0	0	-100	0	230	101300000	1000	0	0	-1	0
15677243	6016	0	0	-100	0	230	101300000	1000	0	0	-1	0
15689803	6016	0	0	-100	0	230	101300000	1000	0	0	-1	0
15702363	6018	0	0	-100	0	230	101300000	1000	0	0	-1	0
15714923	6019	0	0	-100	0	230	101300000	1000	0	0	-1	0
15727483	6016	0	0	-100	0	230	101300000	1000	0	0	-1	0
15740043	6014	0	0	-100	0	230	101300000	1000	0	0	-1	0
15752603	6014	0	0	-100	0	230	101300000	1000	0	0	-1	0
15765163	6024	0	0	-100	0	230	101300000	1000	0	0	-1	0
15777723	6016	0	0	-100	0	230	101300000	1000	0	0	-1	0
15790283	6012	0	0	-100	0	230	101300000	1000	0	0	-1	0
15802843	6014	0	0	-100	0	230	101300000	1000	0	0	-1	0
15815403	6011	0	0	-100	0	230	101300000	1000	0	0	-1	0
15827963	6008	0	0	-100	0	230	101300000	1000	0	0	-1	0
15840523	6008	4	0	-100	0	230	101300000	1000	0	0	-1	0
15853083	6010	5	0	-100	0	230	101300000	1000	0	0	-1	0
15865643	6013	4	0	-100	0	230	101300000	1000	0	0	-1	0
15878203	6010	3	0	-100	0	230	101300000	1000	0	0	-1	0
15890763	6008	0	0	-100	0	230	101300000	1000	0	0	-1	0
15903323	6010	0	0	-100	0	230	101300000	1000	0	0	-1	0
15915883	6011	0	0	-100	0	230	101300000	1000	0	0	-1	0
15928443	6013	0	0	-100	0	230	101300000	1000	0	0	-1	0
15941004	6013	0	0	-100	0	230	101300000	1000	0	0	-1	0
15953563	6016	0	0	-100	0	230	101300000	1000	0	0	-1	0
15966123	6015	0	0	-100	0	230	101300000	1000	0	0	-1	0
15978683	6014	0	0	-100	0	230	101300000	1000	0	0	-1	0
15991243	6010	2	0	-100	0	230	101300000	1000	0	0	-1	0
16003803	6009	2	0	-100	0	230	101300000	1000	0	0	-1	0
16016363	6012	0	0	-100	0	230	101300000	1000	0	0	-1	0
16028923	6014	0	0	-100	0	230	101300000	1000	0	0	-1	0
16041483	6015	0	0	-100	0	230	101300000	1000	0	0	-1	0
16054043	6014	0	0	-100	0	230	101300000	1000	0	0	-1	0
16066603	6008	1	0	-100	0	230	101300000	1000	0	0	-1	0
16079163	6018	2	0	-100	0	230	101300000	1000	0	0	-1	0
16091723	6009	1	0	-100	0	230	101300000	1000	0	0	-1	0
16104283	6010	1	0	-100	0	230	101300000	1000	0	0	-1	0
16116843	6010	1	0	-100	0	230	101300000	1000	0	0	-1	0
16129403	6010	3	0	-100	0	230	101300000	1000	0	0	-1	0
16141963	6010	3	0	-100	0	230	101300000	1000	0	0	-1	0
16154523	6010	4	0	-100	0	230	101300000	1000	0	0	-1	0
16167083	6012	1	0	-100	0	230	101300000	1000	0	0	-1	0
16179643	6012	0	0	-100	0	230	101300000	1000	0	0	-1	0
16192203	6014	0	0	-100	0	230	101300000	1000	0	0	-1	0
16204763	6016	0	0	-100	0	230	101300000	1000	0	0	-1	0
16217323	6018	0	0	-100	0	230	101300000	1000	0	0	-1	0
16229883	6012	1	0	-100	0	230	101300000	1000	0	0	-1	0
16242443	6006	3	0	-100	0	230	101300000	1000	0	0	-1	0
16255004	6020	0	0	-100	0	230	101300000	1000	0	0	-1	0
16267563	6011	0	0	-100	0	230	101300000	1000	0	0	-1	0
16280123	6010	0	0	-100	0	230	101300000	1000	0	0	-1	0
16292683	6010	0	0	-100	0	230	101300000	1000	0	0	-1	0
16305243	6012	0	0	-100	0	230	101300000	1000	0	0	-1	0
16317803	6017	0	0	-100	0	230	101300000	1000	0	0	-1	0
16330363	6015	0	0	-100	0	230	101300000	1000	0	0	-1	0
16342923	6011	0	0	-100	0	230	101300000	1000	0	0	-1	0
16355483	6013	5	0	-100	0	230	101300000	1000	0	0	-1	0
16368043	6012	0	0	-100	0	230	101300000	1000	0	0	-1	0
16380603	6010	0	0	-100	0	230	101300000	1000	0	0	-1	0
16393163	6022	0	0	-100	0	230	101300000	1000	0	0	-1	0
16405723	6013	0	0	-100	0	230	101300000	1000	0	0	-1	0
16418283	6008	3	0	-100	0	230	101300000	1000	0	0	-1	0
16430843	6012	4	0	-100	0	230	101300000	1000	0	0	-1	0
16443403	6008	0	0	-100	0	230	101300000	1000	0	0	-1	0
16455963	6009	0	0	-100	0	230	101300000	1000	0	0	-1	0
16468523	6016	0	0	-100	0	230	101300000	1000	0	0	-1	0
16481083	6016	0	0	-100	0	230	101300000	1000	0	0	-1	0
16493643	6014	0	0	-100	0	230	101300000	1000	0	0	-1	0
16506203	6014	0	0	-100	0	230	101300000	1000	0	0	-1	0
16518763	6008	3	0	-100	0	230	101300000	1000	0	0	-1	0
16531323	6008	3	0	-100	0	230	101300000	1000	0	0	-1	0
16543883	6008	6	0	-100	0	230	101300000	1000	0	0	-1	0
16556443	6012	0	0	-100	0	230	101300000	1000	0	0	-1	0
16569004	6021	0	0	-100	0	230	101300000	1000	0	0	-1	0
16581563	6011	0	0	-100	0	230	101300000	1000	0	0	-1	0
16594123	6015	0	0	-100	0	230	101300000	1000	0	0	-1	0
16606683	6013	0	0	-100	0	230	101300000	1000	0	0	-1	0
16619243	6013	0	0	-100	0	230	101300000	1000	0	0	-1	0
16631803	6016	0	0	-100	0	230	101300000	1000	0	0	-1	0
16644363	6017	0	0	-100	0	230	101300000	1000	0	0	-1	0
16656923	6012	0	0	-100	0	230	101300000	1000	0	0	-1	0
16669483	6013	0	0	-100	0	230	101300000	1000	0	0	-1	0
16682043	6013	0	0	-100	0	230	101300000	1000	0	0	-1	0
16694603	6016	0	0	-100	0	230	101300000	1000	0	0	-1	0
16707163	6018	0	0	-100	0	230	101300000	1000	0	0	-1	0
16719723	6016	0	0	-100	0	230	101300000	1000	0	0	-1	0
16732283	6012	0	0	-100	0	230	101300000	1000	0	0	-1	0
16744843	6008	0	0	-100	0	230	101300000	1000	0	0	-1	0
16757403	6008	0	0	-100	0	230	101300000	1000	0	0	-1	0
16769963	6012	5	0	-100	0	230	101300000	1000	0	0	-1	0
16782523	6010	4	0	-100	0	230	101300000	1000	0	0	-1	0
16795083	6009	6	0	-100	0	230	101300000	1000	0	0	-1	0
16807643	6010	5	0	-100	0	230	101300000	1000	0	0	-1	0
16820203	6014	2	0	-100	0	230	101300000	1000	0	0	-1	0
16832763	6012	4	0	-100	0	230	101300000	1000	0	0	-1	0
16845323	6014	4	0	-100	0	230	101300000	1000	0	0	-1	0
16857883	6012	4	0	-100	0	230	101300000	1000	0	0	-1	0
16870443	6008	2	0	-100	0	230	101300000	1000	0	0	-1	0
16883004	6012	2	0	-100	0	230	101300000	1000	0	0	-1	0
16895563	6013	0	0	-100	0	230	101300000	1000	0	0	-1	0
16908123	6010	0	0	-100	0	230	101300000	1000	0	0	-1	0
16920683	6012	4	0	-100	0	230	101300000	1000	0	0	-1	0
16933243	6008	2	0	-100	0	230	101300000	1000	0	0	-1	0
16945803	6012	1	0	-100	0	230	101300000	1000	0	0	-1	0
16970923	6013	0	0	-100	0	230	101300000	1000	0	0	-1	0
16983483	6008	0	0	-100	0	230	101300000	1000	0	0	-1	0
16996043	6013	4	0	-100	0	230	101300000	1000	0	0	-1	0
17008603	6008	1	0	-100	0	230	101300000	1000	0	0	-1	0
17021163	6021	0	0	-100	0	230	101300000	1000	0	0	-1	0
17033723	6016	0	0	-100	0	230	101300000	1000	0	0	-1	0
17046283	6019	0	0	-100	0	230	101300000	1000	0	0	-1	0
17058843	6017	0	0	-100	0	230	101300000	1000	0	0	-1	0
17071403	6009	0	0	-100	0	230	101300000	1000	0	0	-1	0
17083963	6012	4	0	-100	0	230	101300000	1000	0	0	-1	0
17096523	6010	0	0	-100	0	230	101300000	1000	0	0	-1	0
17109083	6014	0	0	-100	0	230	101300000	1000	0	0	-1	0
17171883	6017	0	0	-100	0	230	101300000	1000	0	0	-1	0
17184443	6013	0	0	-100	0	230	101300000	1000	0	0	-1	0
17197004	6019	0	0	-100	0	230	101300000	1000	0	0	-1	0
17209563	6010	4	0	-100	0	230	101300000	1000	0	0	-1	0
17222123	6015	0	0	-100	0	230	101300000	1000	0	0	-1	0
17234683	6015	0	0	-100	0	230	101300000	1000	0	0	-1	0
17247243	6011	1	0	-100	0	230	101300000	1000	0	0	-1	0
17259803	6012	0	0	-100	0	230	101300000	1000	0	0	-1	0
17272363	6017	0	0	-100	0	230	101300000	1000	0	0	-1	0
17284923	6012	0	0	-100	0	230	101300000	1000	0	0	-1	0
17297483	6014	2	0	-100	0	230	101300000	1000	0	0	-1	0
17310043	6015	0	0	-100	0	230	101300000	1000	0	0	-1	0
17322603	6014	4	0	-100	0	230	101300000	1000	0	0	-1	0
17335163	6024	0	0	-100	0	230	101300000	1000	0	0	-1	0
17347723	6014	0	0	-100	0	230	101300000	1000	0	0	-1	0
17360283	6015	1	0	-100	0	230	101300000	1000	0	0	-1	0
17372843	6011	1	0	-100	0	230	101300000	1000	0	0	-1	0
17385403	6015	0	0	-100	0	230	101300000	1000	0	0	-1	0
17397963	6007	0	0	-100	0	230	101300000	1000	0	0	-1	0
17410523	6010	4	0	-100	0	230	101300000	1000	0	0	-1	0
17423083	6012	1	0	-100	0	230	101300000	1000	0	0	-1	0
17435643	6017	0	0	-100	0	230	101300000	1000	0	0	-1	0
17448203	6017	0	0	-100	0	230	101300000	1000	0	0	-1	0
17460763	6012	0	0	-100	0	230	101300000	1000	0	0	-1	0
17473323	6010	0	0	-100	0	230	101300000	1000	0	0	-1	0
17485883	6014	3	0	-100	0	230	101300000	1000	0	0	-1	0
17498443	6013	3	0	-100	0	230	101300000	1000	0	0	-1	0
17511004	6018	5	0	-100	0	230	101300000	1000	0	0	-1	0
17523563	6013	0	0	-100	0	230	101300000	1000	0	0	-1	0
17536123	6015	0	0	-100	0	230	101300000	1000	0	0	-1	0
17548683	6009	1	0	-100	0	230	101300000	1000	0	0	-1	0
17561243	6008	4	0	-100	0	230	101300000	1000	0	0	-1	0
17573803	6011	0	0	-100	0	230	101300000	1000	0	0	-1	0
17586363	6017	0	0	-100	0	230	101300000	1000	0	0	-1	0
17598923	6012	0	0	-100	0	230	101300000	1000	0	0	-1	0
17611483	6010	0	0	-100	0	230	101300000	1000	0	0	-1	0
17624043	6004	0	0	-100	0	230	101300000	1000	0	0	-1	0
17636603	6010	4	0	-100	0	230	101300000	1000	0	0	-1	0
17649163	6015	1	0	-100	0	230	101300000	1000	0	0	-1	0
17661723	6015	0	0	-100	0	230	101300000	1000	0	0	-1	0
17674283	6015	0	0	-100	0	230	101300000	1000	0	0	-1	0
17686843	6012	0	0	-100	0	230	101300000	1000	0	0	-1	0
17699403	6009	3	0	-100	0	230	101300000	1000	0	0	-1	0
17711963	6019	0	0	-100	0	230	101300000	1000	0	0	-1	0
17724523	6011	6	0	-100	0	230	101300000	1000	0	0	-1	0
17737083	6008	0	0	-100	0	230	101300000	1000	0	0	-1	0
17749643	6013	0	0	-100	0	230	101300000	1000	0	0	-1	0
17762203	6008	0	0	-100	0	230	101300000	1000	0	0	-1	0
17774763	6008	2	0	-100	0	230	101300000	1000	0	0	-1	0
17787323	6014	0	0	-100	0	230	101300000	1000	0	0	-1	0
17799883	6009	0	0	-100	0	230	101300000	1000	0	0	-1	0
17812443	6014	5	0	-100	0	230	101300000	1000	0	0	-1	0
17825004	6017	0	0	-100	0	230	101300000	1000	0	0	-1	0
17837563	6016	0	0	-100	0	230	101300000	1000	0	0	-1	0
17850123	6008	0	0	-100	0	230	101300000	1000	0	0	-1	0
17862683	6010	3	0	-100	0	230	101300000	1000	0	0	-1	0
17875243	6015	0	0	-100	0	230	101300000	1000	0	0	-1	0
17887803	6016	0	0	-100	0	230	101300000	1000	0	0	-1	0
17900363	6012	0	0	-100	0	230	101300000	1000	0	0	-1	0
17912923	6011	4	0	-100	0	230	101300000	1000	0	0	-1	0
17925483	6014	1	0	-100	0	230	101300000	1000	0	0	-1	0
17938043	6019	0	0	-100	0	230	101300000	1000	0	0	-1	0
17950603	6011	0	0	-100	0	230	101300000	1000	0	0	-1	0
17963163	6018	3	0	-100	0	230	101300000	1000	0	0	-1	0
17975723	6010	0	0	-100	0	230	101300000	1000	0	0	-1	0
17988283	6016	0	0	-100	0	230	101300000	1000	0	0	-1	0
18000843	6015	0	0	-100	0	230	101300000	1000	0	0	-1	0
18013403	6008	4	0	-100	0	230	101300000	1000	0	0	-1	0
18025963	6008	2	0	-100	0	230	101300000	1000	0	0	-1	0
18038523	6019	0	0	-100	0	230	101300000	1000	0	0	-1	0
18051083	6015	0	0	-100	0	230	101300000	1000	0	0	-1	0
18063643	6008	0	0	-100	0	230	101300000	1000	0	0	-1	0
18076203	6008	5	0	-100	0	230	101300000	1000	0	0	-1	0
18088763	6008	2	0	-100	0	230	101300000	1000	0	0	-1	0
18101323	6014	0	0	-100	0	230	101300000	1000	0	0	-1	0
18113883	6014	0	0	-100	0	230	101300000	1000	0	0	-1	0
18126443	6017	0	0	-100	0	230	101300000	1000	0	0	-1	0
18139004	6021	0	0	-100	0	230	101300000	1000	0	0	-1	0
18151563	6012	5	0	-100	0	230	101300000	1000	0	0	-1	0
18164123	6010	0	0	-100	0	230	101300000	1000	0	0	-1	0
18176683	6017	0	0	-100	0	230	101300000	1000	0	0	-1	0
18189243	6017	0	0	-100	0	230	101300000	1000	0	0	-1	0
18201803	6008	0	0	-100	0	230	101300000	1000	0	0	-1	0
18214363	6012	4	0	-100	0	230	101300000	1000	0	0	-1	0
18226923	6010	4	0	-100	0	230	101300000	1000	0	0	-1	0
18239483	6012	0	0	-100	0	230	101300000	1000	0	0	-1	0
18252043	6015	0	0	-100	0	230	101300000	1000	0	0	-1	0
18264603	6014	0	0	-100	0	230	101300000	1000	0	0	-1	0
18277163	6021	0	0	-100	0	230	101300000	1000	0	0	-1	0
18289723	6010	0	0	-100	0	230	101300000	1000	0	0	-1	0
18302283	6009	2	0	-100	0	230	101300000	1000	0	0	-1	0
18314843	6013	4	0	-100	0	230	101300000	1000	0	0	-1	0
18327403	6008	3	0	-100	0	230	101300000	1000	0	0	-1	0
18339963	6008	0	0	-100	0	230	101300000	1000	0	0	-1	0
18352523	6015	0	0	-100	0	230	101300000	1000	0	0	-1	0
18365083	6018	0	0	-100	0	230	101300000	1000	0	0	-1	0
18377643	6017	0	0	-100	0	230	101300000	1000	0	0	-1	0
18390203	6013	0	0	-100	0	230	101300000	1000	0	0	-1	0
18402763	6012	0	0	-100	0	230	101300000	1000	0	0	-1	0
18415323	6008	0	0	-100	0	230	101300000	1000	0	0	-1	0
18427883	6010	4	0	-100	0	230	101300000	1000	0	0	-1	0
18440443	6010	4	0	-100	0	230	101300000	1000	0	0	-1	0
18453004	6015	0	0	-100	0	230	101300000	1000	0	0	-1	0
18465563	6010	0	0	-100	0	230	101300000	1000	0	0	-1	0
18478123	6016	0	0	-100	0	230	101300000	1000	0	0	-1	0
18490683	6014	0	0	-100	0	230	101300000	1000	0	0	-1	0
18503243	6014	0	0	-100	0	230	101300000	1000	0	0	-1	0
18515803	6013	0	0	-100	0	230	101300000	1000	0	0	-1	0
18528363	6007	0	0	-100	0	230	101300000	1000	0	0	-1	0
18540923	6012	0	0	-100	0	230	101300000	1000	0	0	-1	0
18553483	6016	0	0	-100	0	230	101300000	1000	0	0	-1	0
18566043	6012	3	0	-100	0	230	101300000	1000	0	0	-1	0
18578603	6014	0	0	-100	0	230	101300000	1000	0	0	-1	0
18591163	6021	4	0	-100	0	230	101300000	1000	0	0	-1	0
18603723	6016	0	0	-100	0	230	101300000	1000	0	0	-1	0
18616283	6006	0	0	-100	0	230	101300000	1000	0	0	-1	0
18628843	6012	2	0	-100	0	230	101300000	1000	0	0	-1	0
18641403	6010	0	0	-100	0	230	101300000	1000	0	0	-1	0
18653963	6012	4	0	-100	0	230	101300000	1000	0	0	-1	0
18666523	6016	0	0	-100	0	230	101300000	1000	0	0	-1	0
18679083	6012	6	0	-100	0	230	101300000	1000	0	0	-1	0
18691643	6018	0	0	-100	0	230	101300000	1000	0	0	-1	0
18704203	6008	0	0	-100	0	230	101300000	1000	0	0	-1	0
18716763	6016	0	0	-100	0	230	101300000	1000	0	0	-1	0
18729323	6011	0	0	-100	0	230	101300000	1000	0	0	-1	0
18741883	6010	4	0	-100	0	230	101300000	1000	0	0	-1	0
18754443	6013	0	0	-100	0	230	101300000	1000	0	0	-1	0
18767004	6020	0	0	-100	0	230	101300000	1000	0	0	-1	0
18779563	6013	0	0	-100	0	230	101300000	1000	0	0	-1	0
18792123	6009	4	0	-100	0	230	101300000	1000	0	0	-1	0
18804683	6012	0	0	-100	0	230	101300000	1000	0	0	-1	0
18817243	6012	3	0	-100	0	230	101300000	1000	0	0	-1	0
18829803	6016	0	0	-100	0	230	101300000	1000	0	0	-1	0
18842363	6012	4	0	-100	0	230	101300000	1000	0	0	-1	0
18854923	6014	0	0	-100	0	230	101300000	1000	0	0	-1	0
18867483	6005	0	0	-100	0	230	101300000	1000	0	0	-1	0
18880043	6010	4	0	-100	0	230	101300000	1000	0	0	-1	0
18892603	6016	0	0	-100	0	230	101300000	1000	0	0	-1	0
18905163	6026	0	0	-100	0	230	101300000	1000	0	0	-1	0
18917723	6016	0	0	-100	0	230	101300000	1000	0	0	-1	0
18930283	6012	0	0	-100	0	230	101300000	1000	0	0	-1	0
18942843	6011	0	0	-100	0	230	101300000	1000	0	0	-1	0
18955403	6008	0	0	-100	0	230	101300000	1000	0	0	-1	0
18967963	6014	2	0	-100	0	230	101300000	1000	0	0	-1	0
18980523	6010	4	0	-100	0	230	101300000	1000	0	0	-1	0
18993083	6012	0	0	-100	0	230	101300000	1000	0	0	-1	0
19005643	6016	0	0	-100	0	230	101300000	1000	0	0	-1	0
19018203	6017	0	0	-100	0	230	101300000	1000	0	0	-1	0
19030763	6008	0	0	-100	0	230	101300000	1000	0	0	-1	0
19043323	6014	4	0	-100	0	230	101300000	1000	0	0	-1	0
19055883	6008	4	0	-100	0	230	101300000	1000	0	0	-1	0
19068443	6015	0	0	-100	0	230	101300000	1000	0	0	-1	0
19081004	6013	2	0	-100	0	230	101300000	1000	0	0	-1	0
19093563	6015	0	0	-100	0	230	101300000	1000	0	0	-1	0
19106123	6014	0	0	-100	0	230	101300000	1000	0	0	-1	0
19118683	6012	0	0	-100	0	230	101300000	1000	0	0	-1	0
19131243	6012	0	0	-100	0	230	101300000	1000	0	0	-1	0
19143803	6004	0	0	-100	0	230	101300000	1000	0	0	-1	0
19156363	6013	4	0	-100	0	230	101300000	1000	0	0	-1	0
19168923	6010	3	0	-100	0	230	101300000	1000	0	0	-1	0
19181483	6012	0	0	-100	0	230	101300000	1000	0	0	-1	0
19194043	6017	0	0	-100	0	230	101300000	1000	0	0	-1	0
19206603	6014	0	0	-100	0	230	101300000	1000	0	0	-1	0
19219163	6024	0	0	-100	0	230	101300000	1000	0	0	-1	0
19231723	6015	0	0	-100	0	230	101300000	1000	0	0	-1	0
19244283	6004	0	0	-100	0	230	101300000	1000	0	0	-1	0
19256843	6010	4	0	-100	0	230	101300000	1000	0	0	-1	0
19269403	6008	1	0	-100	0	230	101300000	1000	0	0	-1	0
19281963	6012	0	0	-100	0	230	101300000	1000	0	0	-1	0
19294523	6016	0	0	-100	0	230	101300000	1000	0	0	-1	0
19307083	6017	0	0	-100	0	230	101300000	1000	0	0	-1	0
19319643	6015	0	0	-100	0	230	101300000	1000	0	0	-1	0
19332203	6010	0	0	-100	0	230	101300000	1000	0	0	-1	0
19344763	6011	2	0	-100	0	230	101300000	1000	0	0	-1	0
19357323	6008	3	0	-100	0	230	101300000	1000	0	0	-1	0
19369883	6012	0	0	-100	0	230	101300000	1000	0	0	-1	0
19382443	6012	0	0	-100	0	230	101300000	1000	0	0	-1	0
19395004	6020	0	0	-100	0	230	101300000	1000	0	0	-1	0
19407563	6008	2	0	-100	0	230	101300000	1000	0	0	-1	0
19420123	6013	0	0	-100	0	230	101300000	1000	0	0	-1	0
19432683	6012	0	0	-100	0	230	101300000	1000	0	0	-1	0
19445243	6008	0	0	-100	0	230	101300000	1000	0	0	-1	0
19457803	6006	3	0	-100	0	230	101300000	1000	0	0	-1	0
19470363	6016	0	0	-100	0	230	101300000	1000	0	0	-1	0
19482923	6012	0	0	-100	0	230	101300000	1000	0	0	-1	0
19495483	6007	0	0	-100	0	230	101300000	1000	0	0	-1	0
19508043	6012	4	0	-100	0	230	101300000	1000	0	0	-1	0
19520603	6008	1	0	-100	0	230	101300000	1000	0	0	-1	0
19533163	6028	0	0	-100	0	230	101300000	1000	0	0	-1	0
19545723	6016	0	0	-100	0	230	101300000	1000	0	0	-1	0
19558283	6008	0	0	-100	0	230	101300000	1000	0	0	-1	0
19570843	6012	3	0	-100	0	230	101300000	1000	0	0	-1	0
19583403	6013	0	0	-100	0	230	101300000	1000	0	0	-1	0
19595963	6020	0	0	-100	0	230	101300000	1000	0	0	-1	0
19608523	6017	0	0	-100	0	230	101300000	1000	0	0	-1	0
19621083	6012	0	0	-100	0	230	101300000	1000	0	0	-1	0
19633643	6009	0	0	-100	0	230	101300000	1000	0	0	-1	0
19646203	6009	3	0	-100	0	230	101300000	1000	0	0	-1	0
19658763	6016	0	0	-100	0	230	101300000	1000	0	0	-1	0
19671323	6016	0	0	-100	0	230	101300000	1000	0	0	-1	0
19683883	6013	0	0	-100	0	230	101300000	1000	0	0	-1	0
19696443	6012	0	0	-100	0	230	101300000	1000	0	0	-1	0
19709004	6025	0	0	-100	0	230	101300000	1000	0	0	-1	0
19721563	6012	3	0	-100	0	230	101300000	1000	0	0	-1	0
19734123	6012	0	0	-100	0	230	101300000	1000	0	0	-1	0
19746683	6016	0	0	-100	0	230	101300000	1000	0	0	-1	0
19759243	6012	0	0	-100	0	230	101300000	1000	0	0	-1	0
19771803	6012	4	0	-100	0	230	101300000	1000	0	0	-1	0
19784363	6021	0	0	-100	0	230	101300000	1000	0	0	-1	0
19796923	6016	0	0	-100	0	230	101300000	1000	0	0	-1	0
19809483	6008	0	0	-100	0	230	101300000	1000	0	0	-1	0
19822043	6010	4	0	-100	0	230	101300000	1000	0	0	-1	0
19834603	6011	1	0	-100	0	230	101300000	1000	0	0	-1	0
19847163	6025	0	0	-100	0	230	101300000	1000	0	0	-1	0
19872283	6015	0	0	-100	0	230	101300000	1000	0	0	-1	0
19884843	6012	3	0	-100	0	230	101300000	1000	0	0	-1	0
19897403	6010	0	0	-100	0	230	101300000	1000	0	0	-1	0
19909963	6014	0	0	-100	0	230	101300000	1000	0	0	-1	0
19922523	6015	0	0	-100	0	230	101300000	1000	0	0	-1	0
19935083	6008	0	0	-100	0	230	101300000	1000	0	0	-1	0
19947643	6012	4	0	-100	0	230	101300000	1000	0	0	-1	0
19960203	6016	4	0	-100	0	230	101300000	1000	0	0	-1	0
19972763	6009	2	0	-100	0	230	101300000	1000	0	0	-1	0
19985323	6008	1	0	-100	0	230	101300000	1000	0	0	-1	0
19997883	6021	0	0	-100	0	230	101300000	1000	0	0	-1	0
20010443	6012	0	0	-100	0	230	101300000	1000	0	0	-1	0
20023004	6016	0	0	-100	0	230	101300000	1000	0	0	-1	0
20110923	6015	0	0	-100	0	230	101300000	1000	0	0	-1	0
20123483	6012	0	0	-100	0	230	101300000	1000	0	0	-1	0
20136043	6005	0	0	-100	0	230	101300000	1000	0	0	-1	0
20148603	6010	4	0	-100	0	230	101300000	1000	0	0	-1	0
20161163	6020	0	0	-100	0	230	101300000	1000	0	0	-1	0
20173723	6015	0	0	-100	0	230	101300000	1000	0	0	-1	0
20186283	6017	0	0	-100	0	230	101300000	1000	0	0	-1	0
20198843	6012	0	0	-100	0	230	101300000	1000	0	0	-1	0
20211403	6013	4	0	-100	0	230	101300000	1000	0	0	-1	0
20223963	6008	2	0	-100	0	230	101300000	1000	0	0	-1	0
20236523	6013	0	0	-100	0	230	101300000	1000	0	0	-1	0
20249083	6014	0	0	-100	0	230	101300000	1000	0	0	-1	0
20286763	6008	3	0	-100	0	230	101300000	1000	0	0	-1	0
20299323	6012	0	0	-100	0	230	101300000	1000	0	0	-1	0
20311883	6014	0	0	-100	0	230	101300000	1000	0	0	-1	0
20324443	6012	0	0	-100	0	230	101300000	1000	0	0	-1	0
20337004	6021	0	0	-100	0	230	101300000	1000	0	0	-1	0
20349563	6008	4	0	-100	0	230	101300000	1000	0	0	-1	0
20362123	6012	6	0	-100	0	230	101300000	1000	0	0	-1	0
20374683	6016	0	0	-100	0	230	101300000	1000	0	0	-1	0
20387243	6016	0	0	-100	0	230	101300000	1000	0	0	-1	0
20399803	6008	0	0	-100	0	230	101300000	1000	0	0	-1	0
20412363	6012	3	0	-100	0	230	101300000	1000	0	0	-1	0
20424923	6014	0	0	-100	0	230	101300000	1000	0	0	-1	0
20437483	6012	0	0	-100	0	230	101300000	1000	0	0	-1	0
20450043	6010	2	0	-100	0	230	101300000	1000	0	0	-1	0
20462603	6016	0	0	-100	0	230	101300000	1000	0	0	-1	0
20475163	6014	0	0	-100	0	230	101300000	1000	0	0	-1	0
20487723	6016	0	0	-100	0	230	101300000	1000	0	0	-1	0
20500283	6007	0	0	-100	0	230	101300000	1000	0	0	-1	0
20512843	6008	3	0	-100	0	230	101300000	1000	0	0	-1	0
20525403	6017	0	0	-100	0	230	101300000	1000	0	0	-1	0
20537963	6010	4	0	-100	0	230	101300000	1000	0	0	-1	0
20550523	6015	0	0	-100	0	230	101300000	1000	0	0	-1	0
20563083	6010	0	0	-100	0	230	101300000	1000	0	0	-1	0
20575643	6009	0	0	-100	0	230	101300000	1000	0	0	-1	0
20588203	6014	0	0	-100	0	230	101300000	1000	0	0	-1	0
20600763	6010	0	0	-100	0	230	101300000	1000	0	0	-1	0
20613323	6008	4	0	-100	0	230	101300000	1000	0	0	-1	0
20625883	6016	0	0	-100	0	230	101300000	1000	0	0	-1	0
20638443	6016	0	0	-100	0	230	101300000	1000	0	0	-1	0
20651004	6025	0	0	-100	0	230	101300000	1000	0	0	-1	0
20663563	6012	4	0	-100	0	230	101300000	1000	0	0	-1	0
20676123	6010	1	0	-100	0	230	101300000	1000	0	0	-1	0
20688683	6017	0	0	-100	0	230	101300000	1000	0	0	-1	0
20701243	6008	0	0	-100	0	230	101300000	1000	0	0	-1	0
20713803	6008	4	0	-100	0	230	101300000	1000	0	0	-1	0
20726363	6016	0	0	-100	0	230	101300000	1000	0	0	-1	0
20738923	6013	0	0	-100	0	230	101300000	1000	0	0	-1	0
20751483	6009	0	0	-100	0	230	101300000	1000	0	0	-1	0
20764043	6010	4	0	-100	0	230	101300000	1000	0	0	-1	0
20776603	6012	0	0	-100	0	230	101300000	1000	0	0	-1	0
20789163	6022	0	0	-100	0	230	101300000	1000	0	0	-1	0
20801723	6012	0	0	-100	0	230	101300000	1000	0	0	-1	0
20814283	6008	0	0	-100	0	230	101300000	1000	0	0	-1	0
20826843	6012	4	0	-100	0	230	101300000	1000	0	0	-1	0
20839403	6012	3	0	-100	0	230	101300000	1000	0	0	-1	0
20851963	6014	0	0	-100	0	230	101300000	1000	0	0	-1	0
20864523	6013	0	0	-100	0	230	101300000	1000	0	0	-1	0
20877083	6015	0	0	-100	0	230	101300000	1000	0	0	-1	0
20889643	6010	0	0	-100	0	230	101300000	1000	0	0	-1	0
20902203	6011	3	0	-100	0	230	101300000	1000	0	0	-1	0
20914763	6010	4	0	-100	0	230	101300000	1000	0	0	-1	0
20927323	6010	2	0	-100	0	230	101300000	1000	0	0	-1	0
20939883	6014	0	0	-100	0	230	101300000	1000	0	0	-1	0
20952443	6016	0	0	-100	0	230	101300000	1000	0	0	-1	0
20965004	6013	2	0	-100	0	230	101300000	1000	0	0	-1	0
20977563	6016	0	0	-100	0	230	101300000	1000	0	0	-1	0
20990123	6015	0	0	-100	0	230	101300000	1000	0	0	-1	0
21002683	6012	0	0	-100	0	230	101300000	1000	0	0	-1	0
21015243	6010	0	0	-100	0	230	101300000	1000	0	0	-1	0
21027803	6012	4	0	-100	0	230	101300000	1000	0	0	-1	0
21040363	6008	4	0	-100	0	230	101300000	1000	0	0	-1	0
21052923	6010	2	0	-100	0	230	101300000	1000	0	0	-1	0
21065483	6012	0	0	-100	0	230	101300000	1000	0	0	-1	0
21078043	6017	0	0	-100	0	230	101300000	1000	0	0	-1	0
21090603	6016	0	0	-100	0	230	101300000	1000	0	0	-1	0
21103163	6018	0	0	-100	0	230	101300000	1000	0	0	-1	0
21115723	6010	0	0	-100	0	230	101300000	1000	0	0	-1	0
21128283	6010	4	0	-100	0	230	101300000	1000	0	0	-1	0
21140843	6012	1	0	-100	0	230	101300000	1000	0	0	-1	0
21153403	6021	0	0	-100	0	230	101300000	1000	0	0	-1	0
21165963	6017	0	0	-100	0	230	101300000	1000	0	0	-1	0
21178523	6007	0	0	-100	0	230	101300000	1000	0	0	-1	0
21191083	6014	4	0	-100	0	230	101300000	1000	0	0	-1	0
21203643	6010	2	0	-100	0	230	101300000	1000	0	0	-1	0
21216203	6016	0	0	-100	0	230	101300000	1000	0	0	-1	0
21228763	6008	0	0	-100	0	230	101300000	1000	0	0	-1	0
21241323	6012	4	0	-100	0	230	101300000	1000	0	0	-1	0
21253883	6012	2	0	-100	0	230	101300000	1000	0	0	-1	0
21266443	6018	0	0	-100	0	230	101300000	1000	0	0	-1	0
21279004	6015	2	0	-100	0	230	101300000	1000	0	0	-1	0
21291563	6013	0	0	-100	0	230	101300000	1000	0	0	-1	0
21304123	6008	0	0	-100	0	230	101300000	1000	0	0	-1	0
21316683	6010	6	0	-100	0	230	101300000	1000	0	0	-1	0
21329243	6009	1	0	-100	0	230	101300000	1000	0	0	-1	0
21341803	6014	0	0	-100	0	230	101300000	1000	0	0	-1	0
21354363	6018	0	0	-100	0	230	101300000	1000	0	0	-1	0
21366923	6017	0	0	-100	0	230	101300000	1000	0	0	-1	0
21379483	6007	0	0	-100	0	230	101300000	1000	0	0	-1	0
21392043	6014	3	0	-100	0	230	101300000	1000	0	0	-1	0
21404603	6012	3	0	-100	0	230	101300000	1000	0	0	-1	0
21417163	6018	1	0	-100	0	230	101300000	1000	0	0	-1	0
21429723	6014	0	0	-100	0	230	101300000	1000	0	0	-1	0
21442283	6015	0	0	-100	0	230	101300000	1000	0	0	-1	0
21454843	6004	0	0	-100	0	230	101300000	1000	0	0	-1	0
21467403	6012	3	0	-100	0	230	101300000	1000	0	0	-1	0
21479963	6008	0	0	-100	0	230	101300000	1000	0	0	-1	0
21492523	6017	0	0	-100	0	230	101300000	1000	0	0	-1	0
21505083	6017	0	0	-100	0	230	101300000	1000	0	0	-1	0
21517643	6013	0	0	-100	0	230	101300000	1000	0	0	-1	0
21530203	6010	0	0	-100	0	230	101300000	1000	0	0	-1	0
21542763	6012	4	0	-100	0	230	101300000	1000	0	0	-1	0
21555323	6016	0	0	-100	0	230	101300000	1000	0	0	-1	0
21567883	6014	0	0	-100	0	230	101300000	1000	0	0	-1	0
21580443	6014	0	0	-100	0	230	101300000	1000	0	0	-1	0
21593004	6020	0	0	-100	0	230	101300000	1000	0	0	-1	0
21605563	6007	0	0	-100	0	230	101300000	1000	0	0	-1	0
21618123	6013	2	0	-100	0	230	101300000	1000	0	0	-1	0
21630683	6010	4	0	-100	0	230	101300000	1000	0	0	-1	0
21643243	6009	1	0	-100	0	230	101300000	1000	0	0	-1	0
21655803	6012	2	0	-100	0	230	101300000	1000	0	0	-1	0
21668363	6018	0	0	-100	0	230	101300000	1000	0	0	-1	0
21680923	6020	0	0	-100	0	230	101300000	1000	0	0	-1	0
21693483	6017	0	0	-100	0	230	101300000	1000	0	0	-1	0
21706043	6018	0	0	-100	0	230	101300000	1000	0	0	-1	0
21718603	6016	0	0	-100	0	230	101300000	1000	0	0	-1	0
21731163	6020	0	0	-100	0	230	101300000	1000	0	0	-1	0
21743723	6010	0	0	-100	0	230	101300000	1000	0	0	-1	0
21756283	6010	4	0	-100	0	230	101300000	1000	0	0	-1	0
21768843	6010	3	0	-100	0	230	101300000	1000	0	0	-1	0
21781403	6010	0	0	-100	0	230	101300000	1000	0	0	-1	0
21793963	6012	0	0	-100	0	230	101300000	1000	0	0	-1	0
21806523	6013	0	0	-100	0	230	101300000	1000	0	0	-1	0
21819083	6010	0	0	-100	0	230	101300000	1000	0	0	-1	0
21831643	6012	4	0	-100	0	230	101300000	1000	0	0	-1	0
21844203	6008	2	0	-100	0	230	101300000	1000	0	0	-1	0
21856763	6012	2	0	-100	0	230	101300000	1000	0	0	-1	0
21869323	6009	1	0	-100	0	230	101300000	1000	0	0	-1	0
21881883	6016	0	0	-100	0	230	101300000	1000	0	0	-1	0
21894443	6017	0	0	-100	0	230	101300000	1000	0	0	-1	0
21907004	6017	2	0	-100	0	230	101300000	1000	0	0	-1	0
21919563	6008	0	0	-100	0	230	101300000	1000	0	0	-1	0
21932123	6016	2	0	-100	0	230	101300000	1000	0	0	-1	0
21944683	6009	3	0	-100	0	230	101300000	1000	0	0	-1	0
21957243	6016	0	0	-100	0	230	101300000	1000	0	0	-1	0
21969803	6017	0	0	-100	0	230	101300000	1000	0	0	-1	0
21982363	6008	0	0	-100	0	230	101300000	1000	0	0	-1	0
21994923	6008	4	0	-100	0	230	101300000	1000	0	0	-1	0
22007483	6014	0	0	-100	0	230	101300000	1000	0	0	-1	0
22020043	6007	0	0	-100	0	230	101300000	1000	0	0	-1	0
22032603	6012	4	0	-100	0	230	101300000	1000	0	0	-1	0
22045163	6021	0	0	-100	0	230	101300000	1000	0	0	-1	0
22057723	6016	0	0	-100	0	230	101300000	1000	0	0	-1	0
22070283	6015	0	0	-100	0	230	101300000	1000	0	0	-1	0
22082843	6008	0	0	-100	0	230	101300000	1000	0	0	-1	0
22095403	6013	3	0	-100	0	230	101300000	1000	0	0	-1	0
22107963	6016	0	0	-100	0	230	101300000	1000	0	0	-1	0
22120523	6013	0	0	-100	0	230	101300000	1000	0	0	-1	0
22133083	6012	4	0	-100	0	230	101300000	1000	0	0	-1	0
22145643	6014	0	0	-100	0	230	101300000	1000	0	0	-1	0
22158203	6014	0	0	-100	0	230	101300000	1000	0	0	-1	0
22170763	6012	2	0	-100	0	230	101300000	1000	0	0	-1	0
22183323	6016	0	0	-100	0	230	101300000	1000	0	0	-1	0
22195883	6010	0	0	-100	0	230	101300000	1000	0	0	-1	0
22208443	6008	2	0	-100	0	230	101300000	1000	0	0	-1	0
22221004	6016	0	0	-100	0	230	101300000	1000	0	0	-1	0
22233563	6010	0	0	-100	0	230	101300000	1000	0	0	-1	0
22246123	6012	4	0	-100	0	230	101300000	1000	0	0	-1	0
22258683	6016	0	0	-100	0	230	101300000	1000	0	0	-1	0
22271243	6013	0	0	-100	0	230	101300000	1000	0	0	-1	0
22283803	6010	4	0	-100	0	230	101300000	1000	0	0	-1	0
22296363	6018	0	0	-100	0	230	101300000	1000	0	0	-1	0
22308923	6010	0	0	-100	0	230	101300000	1000	0	0	-1	0
22321483	6010	1	0	-100	0	230	101300000	1000	0	0	-1	0
22334043	6016	0	0	-100	0	230	101300000	1000	0	0	-1	0
22346603	6011	0	0	-100	0	230	101300000	1000	0	0	-1	0
22359163	6021	2	0	-100	0	230	101300000	1000	0	0	-1	0
22371723	6019	0	0	-100	0	230	101300000	1000	0	0	-1	0
22384283	6008	0	0	-100	0	230	101300000	1000	0	0	-1	0
22396843	6010	3	0	-100	0	230	101300000	1000	0	0	-1	0
22409403	6016	0	0	-100	0	230	101300000	1000	0	0	-1	0
22421963	6008	0	0	-100	0	230	101300000	1000	0	0	-1	0
22434523	6008	2	0	-100	0	230	101300000	1000	0	0	-1	0
22447083	6017	0	0	-100	0	230	101300000	1000	0	0	-1	0
22459643	6008	0	0	-100	0	230	101300000	1000	0	0	-1	0
22472203	6012	1	0	-100	0	230	101300000	1000	0	0	-1	0
22484763	6016	0	0	-100	0	230	101300000	1000	0	0	-1	0
22497323	6004	0	0	-100	0	230	101300000	1000	0	0	-1	0
22509883	6012	4	0	-100	0	230	101300000	1000	0	0	-1	0
22522443	6021	0	0	-100	0	230	101300000	1000	0	0	-1	0
22535004	6012	0	0	-100	0	230	101300000	1000	0	0	-1	0
22547563	6008	0	0	-100	0	230	101300000	1000	0	0	-1	0
22560123	6008	1	0	-100	0	230	101300000	1000	0	0	-1	0
22572683	6016	0	0	-100	0	230	101300000	1000	0	0	-1	0
22585243	6008	0	0	-100	0	230	101300000	1000	0	0	-1	0
22597803	6012	0	0	-100	0	230	101300000	1000	0	0	-1	0
22610363	6016	0	0	-100	0	230	101300000	1000	0	0	-1	0
22622923	6010	0	0	-100	0	230	101300000	1000	0	0	-1	0
22635483	6009	0	0	-100	0	230	101300000	1000	0	0	-1	0
22648043	6013	0	0	-100	0	230	101300000	1000	0	0	-1	0
22660603	6012	4	0	-100	0	230	101300000	1000	0	0	-1	0
22673163	6024	0	0	-100	0	230	101300000	1000	0	0	-1	0
22685723	6010	0	0	-100	0	230	101300000	1000	0	0	-1	0
22698283	6012	5	0	-100	0	230	101300000	1000	0	0	-1	0
22710843	6010	2	0	-100	0	230	101300000	1000	0	0	-1	0
22723403	6016	0	0	-100	0	230	101300000	1000	0	0	-1	0
22735963	6014	0	0	-100	0	230	101300000	1000	0	0	-1	0
22748523	6012	0	0	-100	0	230	101300000	1000	0	0	-1	0
22761083	6008	1	0	-100	0	230	101300000	1000	0	0	-1	0
22773643	6016	0	0	-100	0	230	101300000	1000	0	0	-1	0
22786203	6012	0	0	-100	0	230	101300000	1000	0	0	-1	0
22798763	6011	0	0	-100	0	230	101300000	1000	0	0	-1	0
22811323	6008	0	0	-100	0	230	101300000	1000	0	0	-1	0
22823883	6009	1	0	-100	0	230	101300000	1000	0	0	-1	0
22836443	6013	0	0	-100	0	230	101300000	1000	0	0	-1	0
22849004	6017	0	0	-100	0	230	101300000	1000	0	0	-1	0
22861563	6020	0	0	-100	0	230	101300000	1000	0	0	-1	0
22874123	6012	0	0	-100	0	230	101300000	1000	0	0	-1	0
22886683	6012	4	0	-100	0	230	101300000	1000	0	0	-1	0
22899243	6012	0	0	-100	0	230	101300000	1000	0	0	-1	0
22911803	6015	0	0	-100	0	230	101300000	1000	0	0	-1	0
22924363	6013	3	0	-100	0	230	101300000	1000	0	0	-1	0
22936923	6015	0	0	-100	0	230	101300000	1000	0	0	-1	0
22949483	6016	0	0	-100	0	230	101300000	1000	0	0	-1	0
22999723	6013	4	0	-100	0	230	101300000	1000	0	0	-1	0
23012283	6016	0	0	-100	0	230	101300000	1000	0	0	-1	0
23024843	6012	0	0	-100	0	230	101300000	1000	0	0	-1	0
23037403	6012	4	0	-100	0	230	101300000	1000	0	0	-1	0
23049963	6012	0	0	-100	0	230	101300000	1000	0	0	-1	0
23062523	6016	0	0	-100	0	230	101300000	1000	0	0	-1	0
23075083	6008	0	0	-100	0	230	101300000	1000	0	0	-1	0
23087643	6008	4	0	-100	0	230	101300000	1000	0	0	-1	0
23100203	6015	0	0	-100	0	230	101300000	1000	0	0	-1	0
23112763	6017	0	0	-100	0	230	101300000	1000	0	0	-1	0
23125323	6010	0	0	-100	0	230	101300000	1000	0	0	-1	0
23137883	6012	0	0	-100	0	230	101300000	1000	0	0	-1	0
23150443	6008	3	0	-100	0	230	101300000	1000	0	0	-1	0
23213243	6009	4	0	-100	0	230	101300000	1000	0	0	-1	0
23225803	6011	0	0	-100	0	230	101300000	1000	0	0	-1	0
23238363	6016	0	0	-100	0	230	101300000	1000	0	0	-1	0
23250923	6008	4	0	-100	0	230	101300000	1000	0	0	-1	0
23263483	6016	0	0	-100	0	230	101300000	1000	0	0	-1	0
23276043	6013	0	0	-100	0	230	101300000	1000	0	0	-1	0
23288603	6009	1	0	-100	0	230	101300000	1000	0	0	-1	0
23301163	6022	0	0	-100	0	230	101300000	1000	0	0	-1	0
23313723	6014	0	0	-100	0	230	101300000	1000	0	0	-1	0
23326283	6012	5	0	-100	0	230	101300000	1000	0	0	-1	0
23338843	6016	0	0	-100	0	230	101300000	1000	0	0	-1	0
23351403	6015	0	0	-100	0	230	101300000	1000	0	0	-1	0
23363963	6007	0	0	-100	0	230	101300000	1000	0	0	-1	0
23376523	6012	0	0	-100	0	230	101300000	1000	0	0	-1	0
23389083	6016	0	0	-100	0	230	101300000	1000	0	0	-1	0
23401643	6008	0	0	-100	0	230	101300000	1000	0	0	-1	0
23414203	6008	4	0	-100	0	230	101300000	1000	0	0	-1	0
23426763	6016	0	0	-100	0	230	101300000	1000	0	0	-1	0
23439323	6008	0	0	-100	0	230	101300000	1000	0	0	-1	0
23451883	6012	3	0	-100	0	230	101300000	1000	0	0	-1	0
23464443	6013	0	0	-100	0	230	101300000	1000	0	0	-1	0
23477004	6012	0	0	-100	0	230	101300000	1000	0	0	-1	0
23489563	6010	0	0	-100	0	230	101300000	1000	0	0	-1	0
23502123	6012	4	0	-100	0	230	101300000	1000	0	0	-1	0
23514683	6013	0	0	-100	0	230	101300000	1000	0	0	-1	0
23527243	6016	0	0	-100	0	230	101300000	1000	0	0	-1	0
23539803	6009	0	0	-100	0	230	101300000	1000	0	0	-1	0
23552363	6008	4	0	-100	0	230	101300000	1000	0	0	-1	0
23564923	6020	0	0	-100	0	230	101300000	1000	0	0	-1	0
23577483	6012	0	0	-100	0	230	101300000	1000	0	0	-1	0
23590043	6011	2	0	-100	0	230	101300000	1000	0	0	-1	0
23602603	6012	2	0	-100	0	230	101300000	1000	0	0	-1	0
23615163	6024	0	0	-100	0	230	101300000	1000	0	0	-1	0
23627723	6011	0	0	-100	0	230	101300000	1000	0	0	-1	0
23640283	6011	0	0	-100	0	230	101300000	1000	0	0	-1	0
23652843	6007	4	0	-100	0	230	101300000	1000	0	0	-1	0
23665403	6008	1	0	-100	0	230	101300000	1000	0	0	-1	0
23677963	6015	1	0	-100	0	230	101300000	1000	0	0	-1	0
23690523	6012	0	0	-100	0	230	101300000	1000	0	0	-1	0
23703083	6016	0	0	-100	0	230	101300000	1000	0	0	-1	0
23715643	6010	0	0	-100	0	230	101300000	1000	0	0	-1	0
23728203	6008	0	0	-100	0	230	101300000	1000	0	0	-1	0
23740763	6011	5	0	-100	0	230	101300000	1000	0	0	-1	0
23753323	6014	3	0	-100	0	230	101300000	1000	0	0	-1	0
23765883	6006	4	0	-100	0	230	101300000	1000	0	0	-1	0
23778443	6009	0	0	-100	0	230	101300000	1000	0	0	-1	0
23791004	6021	0	0	-100	0	230	101300000	1000	0	0	-1	0
23803563	6012	0	0	-100	0	230	101300000	1000	0	0	-1	0
23816123	6018	0	0	-100	0	230	101300000	1000	0	0	-1	0
23828683	6016	0	0	-100	0	230	101300000	1000	0	0	-1	0
23841243	6021	0	0	-100	0	230	101300000	1000	0	0	-1	0
23853803	6016	0	0	-100	0	230	101300000	1000	0	0	-1	0
23866363	6020	0	0	-100	0	230	101300000	1000	0	0	-1	0
23878923	6024	0	0	-100	0	230	101300000	1000	0	0	-1	0
23891483	6020	0	0	-100	0	230	101300000	1000	0	0	-1	0
23904043	6016	0	0	-100	0	230	101300000	1000	0	0	-1	0
23916603	6012	0	0	-100	0	230	101300000	1000	0	0	-1	0
23929163	6017	0	0	-100	0	230	101300000	1000	0	0	-1	0
23941723	6013	0	0	-100	0	230	101300000	1000	0	0	-1	0
23954283	6010	2	0	-100	0	230	101300000	1000	0	0	-1	0
23966843	6009	3	0	-100	0	230	101300000	1000	0	0	-1	0
23979403	6010	4	0	-100	0	230	101300000	1000	0	0	-1	0
23991963	6010	4	0	-100	0	230	101300000	1000	0	0	-1	0
24004523	6013	4	0	-100	0	230	101300000	1000	0	0	-1	0
24017083	6011	4	0	-100	0	230	101300000	1000	0	0	-1	0
24029643	6012	3	0	-100	0	230	101300000	1000	0	0	-1	0
24042203	6009	1	0	-100	0	230	101300000	1000	0	0	-1	0
24054763	6008	2	0	-100	0	230	101300000	1000	0	0	-1	0
24067323	6014	1	0	-100	0	230	101300000	1000	0	0	-1	0
24079883	6014	0	0	-100	0	230	101300000	1000	0	0	-1	0
24092443	6015	0	0	-100	0	230	101300000	1000	0	0	-1	0
24105004	6016	5	0	-100	0	230	101300000	1000	0	0	-1	0
24117563	6017	0	0	-100	0	230	101300000	1000	0	0	-1	0
24130123	6015	0	0	-100	0	230	101300000	1000	0	0	-1	0
24142683	6016	0	0	-100	0	230	101300000	1000	0	0	-1	0
24155243	6013	0	0	-100	0	230	101300000	1000	0	0	-1	0
24167803	6017	0	0	-100	0	230	101300000	1000	0	0	-1	0
24180363	6017	0	0	-100	0	230	101300000	1000	0	0	-1	0
24192923	6013	0	0	-100	0	230	101300000	1000	0	0	-1	0
24205483	6016	0	0	-100	0	230	101300000	1000	0	0	-1	0
24218043	6016	0	0	-100	0	230	101300000	1000	0	0	-1	0
24230603	6011	0	0	-100	0	230	101300000	1000	0	0	-1	0
24243163	6019	0	0	-100	0	230	101300000	1000	0	0	-1	0
24255723	6007	0	0	-100	0	230	101300000	1000	0	0	-1	0
24268283	6010	0	0	-100	0	230	101300000	1000	0	0	-1	0
24280843	6008	0	0	-100	0	230	101300000	1000	0	0	-1	0
24293403	6012	5	0	-100	0	230	101300000	1000	0	0	-1	0
24305963	6010	5	0	-100	0	230	101300000	1000	0	0	-1	0
24318523	6008	4	0	-100	0	230	101300000	1000	0	0	-1	0
24331083	6012	4	0	-100	0	230	101300000	1000	0	0	-1	0
24343643	6006	3	0	-100	0	230	101300000	1000	0	0	-1	0
24356203	6010	2	0	-100	0	230	101300000	1000	0	0	-1	0
24368763	6009	2	0	-100	0	230	101300000	1000	0	0	-1	0
24381323	6009	4	0	-100	0	230	101300000	1000	0	0	-1	0
24393883	6010	4	0	-100	0	230	101300000	1000	0	0	-1	0
24406443	6012	4	0	-100	0	230	101300000	1000	0	0	-1	0
24419004	6018	0	0	-100	0	230	101300000	1000	0	0	-1	0
24431563	6012	4	0	-100	0	230	101300000	1000	0	0	-1	0
24444123	6012	4	0	-100	0	230	101300000	1000	0	0	-1	0
24456683	6008	2	0	-100	0	230	101300000	1000	0	0	-1	0
24469243	6011	0	0	-100	0	230	101300000	1000	0	0	-1	0
24481803	6007	2	0	-100	0	230	101300000	1000	0	0	-1	0
24494363	6007	3	0	-100	0	230	101300000	1000	0	0	-1	0
24506923	6008	3	0	-100	0	230	101300000	1000	0	0	-1	0
24519483	6012	1	0	-100	0	230	101300000	1000	0	0	-1	0
24532043	6016	0	0	-100	0	230	101300000	1000	0	0	-1	0
24544603	6016	0	0	-100	0	230	101300000	1000	0	0	-1	0
24557163	6028	0	0	-100	0	230	101300000	1000	0	0	-1	0
24569723	6013	0	0	-100	0	230	101300000	1000	0	0	-1	0
24582283	6012	0	0	-100	0	230	101300000	1000	0	0	-1	0
24594843	6008	5	0	-100	0	230	101300000	1000	0	0	-1	0
24607403	6011	0	0	-100	0	230	101300000	1000	0	0	-1	0
24619963	6014	0	0	-100	0	230	101300000	1000	0	0	-1	0
24632523	6012	0	0	-100	0	230	101300000	1000	0	0	-1	0
24645083	6008	0	0	-100	0	230	101300000	1000	0	0	-1	0
24657643	6014	5	0	-100	0	230	101300000	1000	0	0	-1	0
24670203	6012	1	0	-100	0	230	101300000	1000	0	0	-1	0
24682763	6014	0	0	-100	0	230	101300000	1000	0	0	-1	0
24695323	6020	0	0	-100	0	230	101300000	1000	0	0	-1	0
24707883	6017	0	0	-100	0	230	101300000	1000	0	0	-1	0
24720443	6010	0	0	-100	0	230	101300000	1000	0	0	-1	0
24733004	6021	0	0	-100	0	230	101300000	1000	0	0	-1	0
24745563	6008	1	0	-100	0	230	101300000	1000	0	0	-1	0
24758123	6011	0	0	-100	0	230	101300000	1000	0	0	-1	0
24770683	6013	0	0	-100	0	230	101300000	1000	0	0	-1	0
24783243	6008	0	0	-100	0	230	101300000	1000	0	0	-1	0
24795803	6011	4	0	-100	0	230	101300000	1000	0	0	-1	0
24808363	6007	0	0	-100	0	230	101300000	1000	0	0	-1	0
24820923	6016	0	0	-100	0	230	101300000	1000	0	0	-1	0
24833483	6008	0	0	-100	0	230	101300000	1000	0	0	-1	0
24846043	6021	4	0	-100	0	230	101300000	1000	0	0	-1	0
24858603	6008	4	0	-100	0	230	101300000	1000	0	0	-1	0
24871163	6016	0	0	-100	0	230	101300000	1000	0	0	-1	0
24883723	6008	2	0	-100	0	230	101300000	1000	0	0	-1	0
24896283	6012	0	0	-100	0	230	101300000	1000	0	0	-1	0
24908843	6017	0	0	-100	0	230	101300000	1000	0	0	-1	0
24921403	6016	0	0	-100	0	230	101300000	1000	0	0	-1	0
24933963	6012	0	0	-100	0	230	101300000	1000	0	0	-1	0
24946523	6008	4	0	-100	0	230	101300000	1000	0	0	-1	0
24959083	6014	0	0	-100	0	230	101300000	1000	0	0	-1	0
24971643	6016	0	0	-100	0	230	101300000	1000	0	0	-1	0
24984203	6011	0	0	-100	0	230	101300000	1000	0	0	-1	0
24996763	6012	4	0	-100	0	230	101300000	1000	0	0	-1	0
25009323	6011	0	0	-100	0	230	101300000	1000	0	0	-1	0
25021883	6013	0	0	-100	0	230	101300000	1000	0	0	-1	0
25034443	6015	0	0	-100	0	230	101300000	1000	0	0	-1	0
25047004	6020	0	0	-100	0	230	101300000	1000	0	0	-1	0
25059563	6015	0	0	-100	0	230	101300000	1000	0	0	-1	0
25072123	6006	0	0	-100	0	230	101300000	1000	0	0	-1	0
25084683	6005	0	0	-100	0	230	101300000	1000	0	0	-1	0
25097243	6012	4	0	-100	0	230	101300000	1000	0	0	-1	0
25109803	6008	2	0	-100	0	230	101300000	1000	0	0	-1	0
25122363	6016	0	0	-100	0	230	101300000	1000	0	0	-1	0
25134923	6016	0	0	-100	0	230	101300000	1000	0	0	-1	0
25147483	6014	0	0	-100	0	230	101300000	1000	0	0	-1	0
25160043	6007	0	0	-100	0	230	101300000	1000	0	0	-1	0
25172603	6010	4	0	-100	0	230	101300000	1000	0	0	-1	0
25185163	6018	3	0	-100	0	230	101300000	1000	0	0	-1	0
25197723	6012	2	0	-100	0	230	101300000	1000	0	0	-1	0
25210283	6016	0	0	-100	0	230	101300000	1000	0	0	-1	0
25222843	6008	0	0	-100	0	230	101300000	1000	0	0	-1	0
25235403	6010	3	0	-100	0	230	101300000	1000	0	0	-1	0
25247963	6015	0	0	-100	0	230	101300000	1000	0	0	-1	0
25260523	6013	0	0	-100	0	230	101300000	1000	0	0	-1	0
25273083	6012	4	0	-100	0	230	101300000	1000	0	0	-1	0
25285643	6014	0	0	-100	0	230	101300000	1000	0	0	-1	0
25298203	6013	0	0	-100	0	230	101300000	1000	0	0	-1	0
25310763	6007	0	0	-100	0	230	101300000	1000	0	0	-1	0
25323323	6008	1	0	-100	0	230	101300000	1000	0	0	-1	0
25335883	6016	0	0	-100	0	230	101300000	1000	0	0	-1	0
25348443	6012	3	0	-100	0	230	101300000	1000	0	0	-1	0
25361004	6015	3	0	-100	0	230	101300000	1000	0	0	-1	0
25373563	6007	0	0	-100	0	230	101300000	1000	0	0	-1	0
25386123	6014	0	0	-100	0	230	101300000	1000	0	0	-1	0
25398683	6009	0	0	-100	0	230	101300000	1000	0	0	-1	0
25411243	6013	3	0	-100	0	230	101300000	1000	0	0	-1	0
25423803	6014	0	0	-100	0	230	101300000	1000	0	0	-1	0
25436363	6007	0	0	-100	0	230	101300000	1000	0	0	-1	0
25448923	6008	4	0	-100	0	230	101300000	1000	0	0	-1	0
25461483	6014	0	0	-100	0	230	101300000	1000	0	0	-1	0
25474043	6011	0	0	-100	0	230	101300000	1000	0	0	-1	0
25486603	6010	5	0	-100	0	230	101300000	1000	0	0	-1	0
25499163	6021	0	0	-100	0	230	101300000	1000	0	0	-1	0
25511723	6020	0	0	-100	0	230	101300000	1000	0	0	-1	0
25524283	6003	0	0	-100	0	230	101300000	1000	0	0	-1	0
25536843	6010	2	0	-100	0	230	101300000	1000	0	0	-1	0
25549403	6012	0	0	-100	0	230	101300000	1000	0	0	-1	0
25561963	6014	0	0	-100	0	230	101300000	1000	0	0	-1	0
25574523	6008	0	0	-100	0	230	101300000	1000	0	0	-1	0
25587083	6008	4	0	-100	0	230	101300000	1000	0	0	-1	0
25599643	6008	1	0	-100	0	230	101300000	1000	0	0	-1	0
25612203	6020	0	0	-100	0	230	101300000	1000	0	0	-1	0
25624763	6016	0	0	-100	0	230	101300000	1000	0	0	-1	0
25637323	6015	0	0	-100	0	230	101300000	1000	0	0	-1	0
25649883	6010	0	0	-100	0	230	101300000	1000	0	0	-1	0
25662443	6008	0	0	-100	0	230	101300000	1000	0	0	-1	0
25675004	6020	0	0	-100	0	230	101300000	1000	0	0	-1	0
25687563	6012	4	0	-100	0	230	101300000	1000	0	0	-1	0
25700123	6009	4	0	-100	0	230	101300000	1000	0	0	-1	0
25712683	6008	2	0	-100	0	230	101300000	1000	0	0	-1	0
25725243	6014	0	0	-100	0	230	101300000	1000	0	0	-1	0
25737803	6014	0	0	-100	0	230	101300000	1000	0	0	-1	0
25750363	6017	0	0	-100	0	230	101300000	1000	0	0	-1	0
25762923	6012	0	0	-100	0	230	101300000	1000	0	0	-1	0
25775483	6009	4	0	-100	0	230	101300000	1000	0	0	-1	0
25788043	6014	1	0	-100	0	230	101300000	1000	0	0	-1	0
25800603	6017	0	0	-100	0	230	101300000	1000	0	0	-1	0
25813163	6020	0	0	-100	0	230	101300000	1000	0	0	-1	0
25825723	6009	4	0	-100	0	230	101300000	1000	0	0	-1	0
25838283	6008	3	0	-100	0	230	101300000	1000	0	0	-1	0
25850843	6018	0	0	-100	0	230	101300000	1000	0	0	-1	0
25863403	6013	0	0	-100	0	230	101300000	1000	0	0	-1	0
25875963	6012	0	0	-100	0	230	101300000	1000	0	0	-1	0
25888523	6010	0	0	-100	0	230	101300000	1000	0	0	-1	0
25926203	6010	2	0	-100	0	230	101300000	1000	0	0	-1	0
25938763	6014	0	0	-100	0	230	101300000	1000	0	0	-1	0
25951323	6014	0	0	-100	0	230	101300000	1000	0	0	-1	0
25963883	6014	0	0	-100	0	230	101300000	1000	0	0	-1	0
25976443	6017	0	0	-100	0	230	101300000	1000	0	0	-1	0
25989004	6015	1	0	-100	0	230	101300000	1000	0	0	-1	0
26001563	6017	0	0	-100	0	230	101300000	1000	0	0	-1	0
26014123	6017	0	0	-100	0	230	101300000	1000	0	0	-1	0
26026683	6017	0	0	-100	0	230	101300000	1000	0	0	-1	0
26039243	6017	0	0	-100	0	230	101300000	1000	0	0	-1	0
26051803	6017	0	0	-100	0	230	101300000	1000	0	0	-1	0
26064363	6015	0	0	-100	0	230	101300000	1000	0	0	-1	0
26127163	6018	2	0	-100	0	230	101300000	1000	0	0	-1	0
26139723	6008	3	0	-100	0	230	101300000	1000	0	0	-1	0
26152283	6012	0	0	-100	0	230	101300000	1000	0	0	-1	0
26164843	6016	0	0	-100	0	230	101300000	1000	0	0	-1	0
26177403	6014	0	0	-100	0	230	101300000	1000	0	0	-1	0
26189963	6012	0	0	-100	0	230	101300000	1000	0	0	-1	0
26202523	6012	0	0	-100	0	230	101300000	1000	0	0	-1	0
26215083	6013	0	0	-100	0	230	101300000	1000	0	0	-1	0
26227643	6017	0	0	-100	0	230	101300000	1000	0	0	-1	0
26240203	6017	0	0	-100	0	230	101300000	1000	0	0	-1	0
26252763	6014	0	0	-100	0	230	101300000	1000	0	0	-1	0
26265323	6013	0	0	-100	0	230	101300000	1000	0	0	-1	0
26303004	6020	0	0	-100	0	230	101300000	1000	0	0	-1	0
26315563	6007	1	0	-100	0	230	101300000	1000	0	0	-1	0
26328123	6014	5	0	-100	0	230	101300000	1000	0	0	-1	0
26340683	6008	5	0	-100	0	230	101300000	1000	0	0	-1	0
26353243	6013	3	0	-100	0	230	101300000	1000	0	0	-1	0
26365803	6012	3	0	-100	0	230	101300000	1000	0	0	-1	0
26378363	6014	0	0	-100	0	230	101300000	1000	0	0	-1	0
26390923	6017	0	0	-100	0	230	101300000	1000	0	0	-1	0
26403483	6015	0	0	-100	0	230	101300000	1000	0	0	-1	0
26416043	6008	0	0	-100	0	230	101300000	1000	0	0	-1	0
26428603	6012	4	0	-100	0	230	101300000	1000	0	0	-1	0
26441163	6016	4	0	-100	0	230	101300000	1000	0	0	-1	0
26453723	6006	3	0	-100	0	230	101300000	1000	0	0	-1	0
26466283	6010	0	0	-100	0	230	101300000	1000	0	0	-1	0
26478843	6016	0	0	-100	0	230	101300000	1000	0	0	-1	0
26491403	6021	0	0	-100	0	230	101300000	1000	0	0	-1	0
26503963	6016	0	0	-100	0	230	101300000	1000	0	0	-1	0
26516523	6016	0	0	-100	0	230	101300000	1000	0	0	-1	0
26529083	6011	0	0	-100	0	230	101300000	1000	0	0	-1	0
26541643	6014	1	0	-100	0	230	101300000	1000	0	0	-1	0
26554203	6012	2	0	-100	0	230	101300000	1000	0	0	-1	0
26566763	6012	0	0	-100	0	230	101300000	1000	0	0	-1	0
26579323	6017	0	0	-100	0	230	101300000	1000	0	0	-1	0
26591883	6008	0	0	-100	0	230	101300000	1000	0	0	-1	0
26604443	6013	1	0	-100	0	230	101300000	1000	0	0	-1	0
26617004	6016	0	0	-100	0	230	101300000	1000	0	0	-1	0
26629563	6008	0	0	-100	0	230	101300000	1000	0	0	-1	0
26642123	6012	4	0	-100	0	230	101300000	1000	0	0	-1	0
26654683	6017	0	0	-100	0	230	101300000	1000	0	0	-1	0
26667243	6011	0	0	-100	0	230	101300000	1000	0	0	-1	0
26679803	6012	4	0	-100	0	230	101300000	1000	0	0	-1	0
26692363	6006	1	0	-100	0	230	101300000	1000	0	0	-1	0
26704923	6017	0	0	-100	0	230	101300000	1000	0	0	-1	0
26717483	6013	0	0	-100	0	230	101300000	1000	0	0	-1	0
26730043	6008	4	0	-100	0	230	101300000	1000	0	0	-1	0
26742603	6023	0	0	-100	0	230	101300000	1000	0	0	-1	0
26755163	6021	0	0	-100	0	230	101300000	1000	0	0	-1	0
26767723	6020	0	0	-100	0	230	101300000	1000	0	0	-1	0
26780283	6007	0	0	-100	0	230	101300000	1000	0	0	-1	0
26792843	6014	4	0	-100	0	230	101300000	1000	0	0	-1	0
26805403	6010	2	0	-100	0	230	101300000	1000	0	0	-1	0
26817963	6017	0	0	-100	0	230	101300000	1000	0	0	-1	0
26830523	6008	0	0	-100	0	230	101300000	1000	0	0	-1	0
26843083	6014	4	0	-100	0	230	101300000	1000	0	0	-1	0
26855643	6010	0	0	-100	0	230	101300000	1000	0	0	-1	0
26868203	6016	0	0	-100	0	230	101300000	1000	0	0	-1	0
26880763	6011	0	0	-100	0	230	101300000	1000	0	0	-1	0
26893323	6009	0	0	-100	0	230	101300000	1000	0	0	-1	0
26905883	6014	3	0	-100	0	230	101300000	1000	0	0	-1	0
26918443	6012	0	0	-100	0	230	101300000	1000	0	0	-1	0
26931004	6018	4	0	-100	0	230	101300000	1000	0	0	-1	0
26943563	6016	0	0	-100	0	230	101300000	1000	0	0	-1	0
26956123	6009	0	0	-100	0	230	101300000	1000	0	0	-1	0
26968683	6012	4	0	-100	0	230	101300000	1000	0	0	-1	0
26981243	6010	3	0	-100	0	230	101300000	1000	0	0	-1	0
26993803	6014	0	0	-100	0	230	101300000	1000	0	0	-1	0
27006363	6012	0	0	-100	0	230	101300000	1000	0	0	-1	0
27018923	6008	0	0	-100	0	230	101300000	1000	0	0	-1	0
27031483	6010	3	0	-100	0	230	101300000	1000	0	0	-1	0
27044043	6011	0	0	-100	0	230	101300000	1000	0	0	-1	0
27056603	6016	0	0	-100	0	230	101300000	1000	0	0	-1	0
27069163	6024	0	0	-100	0	230	101300000	1000	0	0	-1	0
27081723	6007	0	0	-100	0	230	101300000	1000	0	0	-1	0
27094283	6008	3	0	-100	0	230	101300000	1000	0	0	-1	0
27106843	6014	0	0	-100	0	230	101300000	1000	0	0	-1	0
27119403	6017	0	0	-100	0	230	101300000	1000	0	0	-1	0
27131963	6008	0	0	-100	0	230	101300000	1000	0	0	-1	0
27144523	6010	5	0	-100	0	230	101300000	1000	0	0	-1	0
27157083	6012	0	0	-100	0	230	101300000	1000	0	0	-1	0
27169643	6016	0	0	-100	0	230	101300000	1000	0	0	-1	0
27182203	6015	0	0	-100	0	230	101300000	1000	0	0	-1	0
27194763	6012	0	0	-100	0	230	101300000	1000	0	0	-1	0
27207323	6012	4	0	-100	0	230	101300000	1000	0	0	-1	0
27219883	6019	0	0	-100	0	230	101300000	1000	0	0	-1	0
27232443	6017	0	0	-100	0	230	101300000	1000	0	0	-1	0
27245004	6022	0	0	-100	0	230	101300000	1000	0	0	-1	0
27257563	6012	3	0	-100	0	230	101300000	1000	0	0	-1	0
27270123	6015	0	0	-100	0	230	101300000	1000	0	0	-1	0
27282683	6013	0	0	-100	0	230	101300000	1000	0	0	-1	0
27295243	6009	2	0	-100	0	230	101300000	1000	0	0	-1	0
27307803	6012	1	0	-100	0	230	101300000	1000	0	0	-1	0
27320363	6014	0	0	-100	0	230	101300000	1000	0	0	-1	0
27332923	6010	0	0	-100	0	230	101300000	1000	0	0	-1	0
27345483	6012	4	0	-100	0	230	101300000	1000	0	0	-1	0
27358043	6011	0	0	-100	0	230	101300000	1000	0	0	-1	0
27370603	6015	0	0	-100	0	230	101300000	1000	0	0	-1	0
27383163	6012	0	0	-100	0	230	101300000	1000	0	0	-1	0
27395723	6008	1	0	-100	0	230	101300000	1000	0	0	-1	0
27408283	6016	0	0	-100	0	230	101300000	1000	0	0	-1	0
27420843	6009	0	0	-100	0	230	101300000	1000	0	0	-1	0
27433403	6012	5	0	-100	0	230	101300000	1000	0	0	-1	0
27445963	6008	2	0	-100	0	230	101300000	1000	0	0	-1	0
27458523	6017	0	0	-100	0	230	101300000	1000	0	0	-1	0
27471083	6013	0	0	-100	0	230	101300000	1000	0	0	-1	0
27483643	6009	0	0	-100	0	230	101300000	1000	0	0	-1	0
27496203	6009	2	0	-100	0	230	101300000	1000	0	0	-1	0
27508763	6016	0	0	-100	0	230	101300000	1000	0	0	-1	0
27521323	6013	0	0	-100	0	230	101300000	1000	0	0	-1	0
27533883	6010	0	0	-100	0	230	101300000	1000	0	0	-1	0
27546443	6012	2	0	-100	0	230	101300000	1000	0	0	-1	0
27559004	6013	2	0	-100	0	230	101300000	1000	0	0	-1	0
27571563	6009	0	0	-100	0	230	101300000	1000	0	0	-1	0
27584123	6008	4	0	-100	0	230	101300000	1000	0	0	-1	0
27596683	6020	0	0	-100	0	230	101300000	1000	0	0	-1	0
27609243	6011	0	0	-100	0	230	101300000	1000	0	0	-1	0
27621803	6012	4	0	-100	0	230	101300000	1000	0	0	-1	0
27634363	6013	0	0	-100	0	230	101300000	1000	0	0	-1	0
27646923	6012	0	0	-100	0	230	101300000	1000	0	0	-1	0
27659483	6012	5	0	-100	0	230	101300000	1000	0	0	-1	0
27672043	6012	0	0	-100	0	230	101300000	1000	0	0	-1	0
27684603	6014	0	0	-100	0	230	101300000	1000	0	0	-1	0
27697163	6018	3	0	-100	0	230	101300000	1000	0	0	-1	0
27709723	6012	0	0	-100	0	230	101300000	1000	0	0	-1	0
27722283	6016	0	0	-100	0	230	101300000	1000	0	0	-1	0
27734843	6008	0	0	-100	0	230	101300000	1000	0	0	-1	0
27747403	6010	3	0	-100	0	230	101300000	1000	0	0	-1	0
27759963	6016	0	0	-100	0	230	101300000	1000	0	0	-1	0
27772523	6015	0	0	-100	0	230	101300000	1000	0	0	-1	0
27785083	6012	5	0	-100	0	230	101300000	1000	0	0	-1	0
27797643	6008	0	0	-100	0	230	101300000	1000	0	0	-1	0
27810203	6017	0	0	-100	0	230	101300000	1000	0	0	-1	0
27822763	6012	0	0	-100	0	230	101300000	1000	0	0	-1	0
27835323	6010	1	0	-100	0	230	101300000	1000	0	0	-1	0
27847883	6016	0	0	-100	0	230	101300000	1000	0	0	-1	0
27860443	6013	0	0	-100	0	230	101300000	1000	0	0	-1	0
27873004	6017	1	0	-100	0	230	101300000	1000	0	0	-1	0
27885563	6012	0	0	-100	0	230	101300000	1000	0	0	-1	0
27898123	6008	0	0	-100	0	230	101300000	1000	0	0	-1	0
27910683	6010	4	0	-100	0	230	101300000	1000	0	0	-1	0
27923243	6013	0	0	-100	0	230	101300000	1000	0	0	-1	0
27935803	6016	0	0	-100	0	230	101300000	1000	0	0	-1	0
27948363	6012	0	0	-100	0	230	101300000	1000	0	0	-1	0
27960923	6007	0	0	-100	0	230	101300000	1000	0	0	-1	0
27973483	6008	2	0	-100	0	230	101300000	1000	0	0	-1	0
27986043	6016	0	0	-100	0	230	101300000	1000	0	0	-1	0
27998603	6010	0	0	-100	0	230	101300000	1000	0	0	-1	0
28011163	6018	3	0	-100	0	230	101300000	1000	0	0	-1	0
28023723	6014	0	0	-100	0	230	101300000	1000	0	0	-1	0
28036283	6021	0	0	-100	0	230	101300000	1000	0	0	-1	0
28048843	6016	0	0	-100	0	230	101300000	1000	0	0	-1	0
28061403	6015	0	0	-100	0	230	101300000	1000	0	0	-1	0
28073963	6012	0	0	-100	0	230	101300000	1000	0	0	-1	0
28086523	6008	0	0	-100	0	230	101300000	1000	0	0	-1	0
28099083	6012	3	0	-100	0	230	101300000	1000	0	0	-1	0
28111643	6010	4	0	-100	0	230	101300000	1000	0	0	-1	0
28124203	6010	4	0	-100	0	230	101300000	1000	0	0	-1	0
28136763	6012	4	0	-100	0	230	101300000	1000	0	0	-1	0
28149323	6012	2	0	-100	0	230	101300000	1000	0	0	-1	0
28161883	6016	0	0	-100	0	230	101300000	1000	0	0	-1	0
28174443	6019	0	0	-100	0	230	101300000	1000	0	0	-1	0
28187004	6017	4	0	-100	0	230	101300000	1000	0	0	-1	0
28199563	6011	0	0	-100	0	230	101300000	1000	0	0	-1	0
28212123	6016	0	0	-100	0	230	101300000	1000	0	0	-1	0
28224683	6017	0	0	-100	0	230	101300000	1000	0	0	-1	0
28237243	6014	0	0	-100	0	230	101300000	1000	0	0	-1	0
28249803	6014	0	0	-100	0	230	101300000	1000	0	0	-1	0
28262363	6016	0	0	-100	0	230	101300000	1000	0	0	-1	0
28274923	6012	0	0	-100	0	230	101300000	1000	0	0	-1	0
28287483	6012	0	0	-100	0	230	101300000	1000	0	0	-1	0
28300043	6011	0	0	-100	0	230	101300000	1000	0	0	-1	0
28312603	6010	0	0	-100	0	230	101300000	1000	0	0	-1	0
28325163	6015	0	0	-100	0	230	101300000	1000	0	0	-1	0
28337723	6010	5	0	-100	0	230	101300000	1000	0	0	-1	0
28350283	6010	0	0	-100	0	230	101300000	1000	0	0	-1	0
28362843	6014	0	0	-100	0	230	101300000	1000	0	0	-1	0
28375403	6015	0	0	-100	0	230	101300000	1000	0	0	-1	0
28387963	6007	4	0	-100	0	230	101300000	1000	0	0	-1	0
28400523	6019	0	0	-100	0	230	101300000	1000	0	0	-1	0
28413083	6015	0	0	-100	0	230	101300000	1000	0	0	-1	0
28425643	6007	0	0	-100	0	230	101300000	1000	0	0	-1	0
28438203	6012	3	0	-100	0	230	101300000	1000	0	0	-1	0
28450763	6014	0	0	-100	0	230	101300000	1000	0	0	-1	0
28463323	6014	0	0	-100	0	230	101300000	1000	0	0	-1	0
28475883	6015	0	0	-100	0	230	101300000	1000	0	0	-1	0
28488443	6012	3	0	-100	0	230	101300000	1000	0	0	-1	0
28501004	6019	0	0	-100	0	230	101300000	1000	0	0	-1	0
28513563	6016	0	0	-100	0	230	101300000	1000	0	0	-1	0
28526123	6016	0	0	-100	0	230	101300000	1000	0	0	-1	0
28538683	6012	0	0	-100	0	230	101300000	1000	0	0	-1	0
28551243	6012	0	0	-100	0	230	101300000	1000	0	0	-1	0
28563803	6012	3	0	-100	0	230	101300000	1000	0	0	-1	0
28576363	6008	4	0	-100	0	230	101300000	1000	0	0	-1	0
28588923	6014	1	0	-100	0	230	101300000	1000	0	0	-1	0
28601483	6012	0	0	-100	0	230	101300000	1000	0	0	-1	0
28614043	6020	0	0	-100	0	230	101300000	1000	0	0	-1	0
28626603	6016	0	0	-100	0	230	101300000	1000	0	0	-1	0
28639163	6020	0	0	-100	0	230	101300000	1000	0	0	-1	0
28651723	6010	0	0	-100	0	230	101300000	1000	0	0	-1	0
28664283	6012	3	0	-100	0	230	101300000	1000	0	0	-1	0
28676843	6011	0	0	-100	0	230	101300000	1000	0	0	-1	0
28689403	6016	0	0	-100	0	230	101300000	1000	0	0	-1	0
28701963	6011	0	0	-100	0	230	101300000	1000	0	0	-1	0
28714523	6007	0	0	-100	0	230	101300000	1000	0	0	-1	0
28727083	6011	4	0	-100	0	230	101300000	1000	0	0	-1	0
28739643	6009	1	0	-100	0	230	101300000	1000	0	0	-1	0
28752203	6017	0	0	-100	0	230	101300000	1000	0	0	-1	0
28764763	6013	0	0	-100	0	230	101300000	1000	0	0	-1	0
28777323	6009	0	0	-100	0	230	101300000	1000	0	0	-1	0
28789883	6009	4	0	-100	0	230	101300000	1000	0	0	-1	0
28802443	6013	0	0	-100	0	230	101300000	1000	0	0	-1	0
28815004	6021	0	0	-100	0	230	101300000	1000	0	0	-1	0
28827563	6016	4	0	-100	0	230	101300000	1000	0	0	-1	0
28840123	6013	0	0	-100	0	230	101300000	1000	0	0	-1	0
28852683	6017	0	0	-100	0	230	101300000	1000	0	0	-1	0
28865243	6008	0	0	-100	0	230	101300000	1000	0	0	-1	0
28877803	6012	4	0	-100	0	230	101300000	1000	0	0	-1	0
28890363	6019	0	0	-100	0	230	101300000	1000	0	0	-1	0
28902923	6016	0	0	-100	0	230	101300000	1000	0	0	-1	0
28915483	6012	0	0	-100	0	230	101300000	1000	0	0	-1	0
28928043	6012	4	0	-100	0	230	101300000	1000	0	0	-1	0
28940603	6013	0	0	-100	0	230	101300000	1000	0	0	-1	0
28953163	6022	0	0	-100	0	230	101300000	1000	0	0	-1	0
28965723	6008	0	0	-100	0	230	101300000	1000	0	0	-1	0
29053643	6012	1	0	-100	0	230	101300000	1000	0	0	-1	0
29066203	6019	0	0	-100	0	230	101300000	1000	0	0	-1	0
29078763	6008	0	0	-100	0	230	101300000	1000	0	0	-1	0
29091323	6010	4	0	-100	0	230	101300000	1000	0	0	-1	0
29103883	6016	0	0	-100	0	230	101300000	1000	0	0	-1	0
29116443	6008	0	0	-100	0	230	101300000	1000	0	0	-1	0
29129004	6017	0	0	-100	0	230	101300000	1000	0	0	-1	0
29141563	6015	0	0	-100	0	230	101300000	1000	0	0	-1	0
29154123	6005	0	0	-100	0	230	101300000	1000	0	0	-1	0
29166683	6006	2	0	-100	0	230	101300000	1000	0	0	-1	0
29179243	6016	0	0	-100	0	230	101300000	1000	0	0	-1	0
29242043	6011	0	0	-100	0	230	101300000	1000	0	0	-1	0
29254603	6007	0	0	-100	0	230	101300000	1000	0	0	-1	0
29267163	6021	0	0	-100	0	230	101300000	1000	0	0	-1	0
29279723	6012	0	0	-100	0	230	101300000	1000	0	0	-1	0
29292283	6012	3	0	-100	0	230	101300000	1000	0	0	-1	0
29304843	6018	0	0	-100	0	230	101300000	1000	0	0	-1	0
29317403	6008	0	0	-100	0	230	101300000	1000	0	0	-1	0
29329963	6008	4	0	-100	0	230	101300000	1000	0	0	-1	0
29342523	6017	0	0	-100	0	230	101300000	1000	0	0	-1	0
29355083	6015	0	0	-100	0	230	101300000	1000	0	0	-1	0
29367643	6010	5	0	-100	0	230	101300000	1000	0	0	-1	0
29380203	6014	0	0	-100	0	230	101300000	1000	0	0	-1	0
29392763	6010	0	0	-100	0	230	101300000	1000	0	0	-1	0
29405323	6014	0	0	-100	0	230	101300000	1000	0	0	-1	0
29417883	6014	0	0	-100	0	230	101300000	1000	0	0	-1	0
29430443	6010	4	0	-100	0	230	101300000	1000	0	0	-1	0
29443004	6017	4	0	-100	0	230	101300000	1000	0	0	-1	0
29455563	6011	0	0	-100	0	230	101300000	1000	0	0	-1	0
29468123	6010	4	0	-100	0	230	101300000	1000	0	0	-1	0
29480683	6018	0	0	-100	0	230	101300000	1000	0	0	-1	0
29493243	6010	0	0	-100	0	230	101300000	1000	0	0	-1	0
29505803	6013	3	0	-100	0	230	101300000	1000	0	0	-1	0
29518363	6016	0	0	-100	0	230	101300000	1000	0	0	-1	0
29530923	6008	0	0	-100	0	230	101300000	1000	0	0	-1	0
29543483	6012	0	0	-100	0	230	101300000	1000	0	0	-1	0
29556043	6016	0	0	-100	0	230	101300000	1000	0	0	-1	0
29568603	6008	0	0	-100	0	230	101300000	1000	0	0	-1	0
29581163	6017	1	0	-100	0	230	101300000	1000	0	0	-1	0
29593723	6016	0	0	-100	0	230	101300000	1000	0	0	-1	0
29606283	6016	0	0	-100	0	230	101300000	1000	0	0	-1	0
29618843	6008	1	0	-100	0	230	101300000	1000	0	0	-1	0
29631403	6008	4	0	-100	0	230	101300000	1000	0	0	-1	0
29643963	6012	0	0	-100	0	230	101300000	1000	0	0	-1	0
29656523	6010	0	0	-100	0	230	101300000	1000	0	0	-1	0
29669083	6008	0	0	-100	0	230	101300000	1000	0	0	-1	0
29681643	6010	1	0	-100	0	230	101300000	1000	0	0	-1	0
29694203	6017	0	0	-100	0	230	101300000	1000	0	0	-1	0
29706763	6008	0	0	-100	0	230	101300000	1000	0	0	-1	0
29719323	6008	3	0	-100	0	230	101300000	1000	0	0	-1	0
29731883	6016	0	0	-100	0	230	101300000	1000	0	0	-1	0
29744443	6008	0	0	-100	0	230	101300000	1000	0	0	-1	0
29757004	6018	0	0	-100	0	230	101300000	1000	0	0	-1	0
29769563	6007	3	0	-100	0	230	101300000	1000	0	0	-1	0
29782123	6014	0	0	-100	0	230	101300000	1000	0	0	-1	0
29794683	6013	0	0	-100	0	230	101300000	1000	0	0	-1	0
29807243	6014	4	0	-100	0	230	101300000	1000	0	0	-1	0
29819803	6014	0	0	-100	0	230	101300000	1000	0	0	-1	0
29832363	6016	0	0	-100	0	230	101300000	1000	0	0	-1	0
29844923	6010	0	0	-100	0	230	101300000	1000	0	0	-1	0
29857483	6012	2	0	-100	0	230	101300000	1000	0	0	-1	0
29870043	6016	0	0	-100	0	230	101300000	1000	0	0	-1	0
29882603	6008	0	0	-100	0	230	101300000	1000	0	0	-1	0
29895163	6019	0	0	-100	0	230	101300000	1000	0	0	-1	0
29907723	6013	0	0	-100	0	230	101300000	1000	0	0	-1	0
29920283	6013	3	0	-100	0	230	101300000	1000	0	0	-1	0
29932843	6014	0	0	-100	0	230	101300000	1000	0	0	-1	0
29945403	6015	0	0	-100	0	230	101300000	1000	0	0	-1	0
29957963	6012	4	0	-100	0	230	101300000	1000	0	0	-1	0
29970523	6016	0	0	-100	0	230	101300000	1000	0	0	-1	0
29983083	6013	0	0	-100	0	230	101300000	1000	0	0	-1	0
29995643	6012	0	0	-100	0	230	101300000	1000	0	0	-1	0
30008203	6008	2	0	-100	0	230	101300000	1000	0	0	-1	0
30020763	6021	0	0	-100	0	230	101300000	1000	0	0	-1	0
30033323	6016	0	0	-100	0	230	101300000	1000	0	0	-1	0
30045883	6008	0	0	-100	0	230	101300000	1000	0	0	-1	0
30058443	6009	5	0	-100	0	230	101300000	1000	0	0	-1	0
30071004	6016	0	0	-100	0	230	101300000	1000	0	0	-1	0
30083563	6018	0	0	-100	0	230	101300000	1000	0	0	-1	0
30096123	6012	0	0	-100	0	230	101300000	1000	0	0	-1	0
30108683	6009	3	0	-100	0	230	101300000	1000	0	0	-1	0
30121243	6011	2	0	-100	0	230	101300000	1000	0	0	-1	0
30133803	6017	0	0	-100	0	230	101300000	1000	0	0	-1	0
30146363	6012	0	0	-100	0	230	101300000	1000	0	0	-1	0
30158923	6012	0	0	-100	0	230	101300000	1000	0	0	-1	0
30171483	6017	0	0	-100	0	230	101300000	1000	0	0	-1	0
30184043	6011	0	0	-100	0	230	101300000	1000	0	0	-1	0
30196603	6014	3	0	-100	0	230	101300000	1000	0	0	-1	0
30209163	6026	0	0	-100	0	230	101300000	1000	0	0	-1	0
30221723	6012	0	0	-100	0	230	101300000	1000	0	0	-1	0
30234283	6012	5	0	-100	0	230	101300000	1000	0	0	-1	0
30246843	6011	0	0	-100	0	230	101300000	1000	0	0	-1	0
30259403	6017	0	0	-100	0	230	101300000	1000	0	0	-1	0
30271963	6010	0	0	-100	0	230	101300000	1000	0	0	-1	0
30284523	6008	1	0	-100	0	230	101300000	1000	0	0	-1	0
30297083	6014	0	0	-100	0	230	101300000	1000	0	0	-1	0
30309643	6007	0	0	-100	0	230	101300000	1000	0	0	-1	0
30322203	6007	4	0	-100	0	230	101300000	1000	0	0	-1	0
30334763	6010	3	0	-100	0	230	101300000	1000	0	0	-1	0
30347323	6020	0	0	-100	0	230	101300000	1000	0	0	-1	0
30359883	6014	0	0	-100	0	230	101300000	1000	0	0	-1	0
30372443	6008	0	0	-100	0	230	101300000	1000	0	0	-1	0
30385004	6013	0	0	-100	0	230	101300000	1000	0	0	-1	0
30397563	6016	0	0	-100	0	230	101300000	1000	0	0	-1	0
30410123	6017	0	0	-100	0	230	101300000	1000	0	0	-1	0
30422683	6008	4	0	-100	0	230	101300000	1000	0	0	-1	0
30435243	6013	0	0	-100	0	230	101300000	1000	0	0	-1	0
30447803	6015	0	0	-100	0	230	101300000	1000	0	0	-1	0
30460363	6012	3	0	-100	0	230	101300000	1000	0	0	-1	0
30472923	6008	2	0	-100	0	230	101300000	1000	0	0	-1	0
30485483	6019	0	0	-100	0	230	101300000	1000	0	0	-1	0
30498043	6008	0	0	-100	0	230	101300000	1000	0	0	-1	0
30510603	6010	0	0	-100	0	230	101300000	1000	0	0	-1	0
30523163	6018	0	0	-100	0	230	101300000	1000	0	0	-1	0
30535723	6014	2	0	-100	0	230	101300000	1000	0	0	-1	0
30548283	6008	1	0	-100	0	230	101300000	1000	0	0	-1	0
30560843	6015	0	0	-100	0	230	101300000	1000	0	0	-1	0
30573403	6009	0	0	-100	0	230	101300000	1000	0	0	-1	0
30585963	6012	3	0	-100	0	230	101300000	1000	0	0	-1	0
30598523	6021	0	0	-100	0	230	101300000	1000	0	0	-1	0
30611083	6014	0	0	-100	0	230	101300000	1000	0	0	-1	0
30623643	6008	4	0	-100	0	230	101300000	1000	0	0	-1	0
30636203	6017	0	0	-100	0	230	101300000	1000	0	0	-1	0
30648763	6013	0	0	-100	0	230	101300000	1000	0	0	-1	0
30661323	6012	4	0	-100	0	230	101300000	1000	0	0	-1	0
30673883	6012	3	0	-100	0	230	101300000	1000	0	0	-1	0
30686443	6016	0	0	-100	0	230	101300000	1000	0	0	-1	0
30699004	6016	0	0	-100	0	230	101300000	1000	0	0	-1	0
30711563	6011	1	0	-100	0	230	101300000	1000	0	0	-1	0
30724123	6011	2	0	-100	0	230	101300000	1000	0	0	-1	0
30736683	6017	0	0	-100	0	230	101300000	1000	0	0	-1	0
30749243	6014	0	0	-100	0	230	101300000	1000	0	0	-1	0
30761803	6008	4	0	-100	0	230	101300000	1000	0	0	-1	0
30774363	6016	0	0	-100	0	230	101300000	1000	0	0	-1	0
30786923	6012	0	0	-100	0	230	101300000	1000	0	0	-1	0
30799483	6014	4	0	-100	0	230	101300000	1000	0	0	-1	0
30812043	6012	0	0	-100	0	230	101300000	1000	0	0	-1	0
30824603	6012	0	0	-100	0	230	101300000	1000	0	0	-1	0
30837163	6021	3	0	-100	0	230	101300000	1000	0	0	-1	0
30849723	6013	0	0	-100	0	230	101300000	1000	0	0	-1	0
30862283	6010	0	0	-100	0	230	101300000	1000	0	0	-1	0
30874843	6011	6	0	-100	0	230	101300000	1000	0	0	-1	0
30887403	6014	0	0	-100	0	230	101300000	1000	0	0	-1	0
30899963	6013	0	0	-100	0	230	101300000	1000	0	0	-1	0
30912523	6013	0	0	-100	0	230	101300000	1000	0	0	-1	0
30925083	6011	2	0	-100	0	230	101300000	1000	0	0	-1	0
30937643	6008	2	0	-100	0	230	101300000	1000	0	0	-1	0
30950203	6016	0	0	-100	0	230	101300000	1000	0	0	-1	0
30962763	6014	0	0	-100	0	230	101300000	1000	0	0	-1	0
30975323	6008	0	0	-100	0	230	101300000	1000	0	0	-1	0
30987883	6010	4	0	-100	0	230	101300000	1000	0	0	-1	0
31000443	6016	0	0	-100	0	230	101300000	1000	0	0	-1	0
31013004	6022	0	0	-100	0	230	101300000	1000	0	0	-1	0
31025563	6011	4	0	-100	0	230	101300000	1000	0	0	-1	0
31038123	6010	0	0	-100	0	230	101300000	1000	0	0	-1	0
31050683	6013	0	0	-100	0	230	101300000	1000	0	0	-1	0
31063243	6010	4	0	-100	0	230	101300000	1000	0	0	-1	0
31075803	6015	0	0	-100	0	230	101300000	1000	0	0	-1	0
31088363	6012	0	0	-100	0	230	101300000	1000	0	0	-1	0
31100923	6011	5	0	-100	0	230	101300000	1000	0	0	-1	0
31113483	6012	0	0	-100	0	230	101300000	1000	0	0	-1	0
31126043	6008	0	0	-100	0	230	101300000	1000	0	0	-1	0
31138603	6012	0	0	-100	0	230	101300000	1000	0	0	-1	0
31151163	6024	0	0	-100	0	230	101300000	1000	0	0	-1	0
31163723	6010	3	0	-100	0	230	101300000	1000	0	0	-1	0
31176283	6017	0	0	-100	0	230	101300000	1000	0	0	-1	0
31188843	6010	3	0	-100	0	230	101300000	1000	0	0	-1	0
31201403	6014	0	0	-100	0	230	101300000	1000	0	0	-1	0
31213963	6008	3	0	-100	0	230	101300000	1000	0	0	-1	0
31226523	6011	0	0	-100	0	230	101300000	1000	0	0	-1	0
31239083	6018	0	0	-100	0	230	101300000	1000	0	0	-1	0
31251643	6009	0	0	-100	0	230	101300000	1000	0	0	-1	0
31264203	6008	2	0	-100	0	230	101300000	1000	0	0	-1	0
31276763	6013	0	0	-100	0	230	101300000	1000	0	0	-1	0
31289323	6008	3	0	-100	0	230	101300000	1000	0	0	-1	0
31301883	6016	0	0	-100	0	230	101300000	1000	0	0	-1	0
31314443	6016	3	0	-100	0	230	101300000	1000	0	0	-1	0
31327004	6015	1	0	-100	0	230	101300000	1000	0	0	-1	0
31339563	6014	4	0	-100	0	230	101300000	1000	0	0	-1	0
31352123	6021	0	0	-100	0	230	101300000	1000	0	0	-1	0
31364683	6012	0	0	-100	0	230	101300000	1000	0	0	-1	0
31377243	6012	0	0	-100	0	230	101300000	1000	0	0	-1	0
31389803	6015	0	0	-100	0	230	101300000	1000	0	0	-1	0
31402363	6007	4	0	-100	0	230	101300000	1000	0	0	-1	0
31414923	6016	0	0	-100	0	230	101300000	1000	0	0	-1	0
31427483	6016	0	0	-100	0	230	101300000	1000	0	0	-1	0
31440043	6013	0	0	-100	0	230	101300000	1000	0	0	-1	0
31452603	6012	4	0	-100	0	230	101300000	1000	0	0	-1	0
31465163	6015	0	0	-100	0	230	101300000	1000	0	0	-1	0
31477723	6017	0	0	-100	0	230	101300000	1000	0	0	-1	0
31490283	6015	0	0	-100	0	230	101300000	1000	0	0	-1	0
31502843	6012	4	0	-100	0	230	101300000	1000	0	0	-1	0
31515403	6010	0	0	-100	0	230	101300000	1000	0	0	-1	0
31527963	6016	0	0	-100	0	230	101300000	1000	0	0	-1	0
31540523	6012	0	0	-100	0	230	101300000	1000	0	0	-1	0
31553083	6010	4	0	-100	0	230	101300000	1000	0	0	-1	0
31565643	6016	0	0	-100	0	230	101300000	1000	0	0	-1	0
31578203	6019	0	0	-100	0	230	101300000	1000	0	0	-1	0
31590763	6012	4	0	-100	0	230	101300000	1000	0	0	-1	0
31603323	6010	0	0	-100	0	230	101300000	1000	0	0	-1	0
31615883	6014	0	0	-100	0	230	101300000	1000	0	0	-1	0
31628443	6011	1	0	-100	0	230	101300000	1000	0	0	-1	0
31641004	6019	0	0	-100	0	230	101300000	1000	0	0	-1	0
31653563	6007	0	0	-100	0	230	101300000	1000	0	0	-1	0
31666123	6015	0	0	-100	0	230	101300000	1000	0	0	-1	0
31678683	6013	0	0	-100	0	230	101300000	1000	0	0	-1	0
31691243	6010	4	0	-100	0	230	101300000	1000	0	0	-1	0
31703803	6010	0	0	-100	0	230	101300000	1000	0	0	-1	0
31716363	6017	0	0	-100	0	230	101300000	1000	0	0	-1	0
31728923	6008	2	0	-100	0	230	101300000	1000	0	0	-1	0
31741483	6008	0	0	-100	0	230	101300000	1000	0	0	-1	0
31754043	6011	0	0	-100	0	230	101300000	1000	0	0	-1	0
31766603	6014	4	0	-100	0	230	101300000	1000	0	0	-1	0
31779163	6024	0	0	-100	0	230	101300000	1000	0	0	-1	0
31791723	6012	3	0	-100	0	230	101300000	1000	0	0	-1	0
31804283	6012	0	0	-100	0	230	101300000	1000	0	0	-1	0
31816843	6012	0	0	-100	0	230	101300000	1000	0	0	-1	0
31829403	6007	0	0	-100	0	230	101300000	1000	0	0	-1	0
31841963	6017	0	0	-100	0	230	101300000	1000	0	0	-1	0
31854523	6008	3	0	-100	0	230	101300000	1000	0	0	-1	0
31867083	6014	0	0	-100	0	230	101300000	1000	0	0	-1	0
31879643	6013	0	0	-100	0	230	101300000	1000	0	0	-1	0
31892203	6009	1	0	-100	0	230	101300000	1000	0	0	-1	0
31904763	6017	0	0	-100	0	230	101300000	1000	0	0	-1	0
31917323	6010	3	0	-100	0	230	101300000	1000	0	0	-1	0
31955004	6013	0	0	-100	0	230	101300000	1000	0	0	-1	0
31967563	6003	0	0	-100	0	230	101300000	1000	0	0	-1	0
31980123	6015	0	0	-100	0	230	101300000	1000	0	0	-1	0
31992683	6013	0	0	-100	0	230	101300000	1000	0	0	-1	0
32005243	6018	0	0	-100	0	230	101300000	1000	0	0	-1	0
32017803	6010	4	0	-100	0	230	101300000	1000	0	0	-1	0
32030363	6008	0	0	-100	0	230	101300000	1000	0	0	-1	0
32042923	6014	0	0	-100	0	230	101300000	1000	0	0	-1	0
32055483	6021	0	0	-100	0	230	101300000	1000	0	0	-1	0
32068043	6006	1	0	-100	0	230	101300000	1000	0	0	-1	0
32080603	6012	1	0	-100	0	230	101300000	1000	0	0	-1	0
32093163	6025	0	0	-100	0	230	101300000	1000	0	0	-1	0
32168523	6007	4	0	-100	0	230	101300000	1000	0	0	-1	0
32181083	6008	0	0	-100	0	230	101300000	1000	0	0	-1	0
32193643	6015	0	0	-100	0	230	101300000	1000	0	0	-1	0
32206203	6015	0	0	-100	0	230	101300000	1000	0	0	-1	0
32218763	6012	4	0	-100	0	230	101300000	1000	0	0	-1	0
32231323	6016	0	0	-100	0	230	101300000	1000	0	0	-1	0
32243883	6018	0	0	-100	0	230	101300000	1000	0	0	-1	0
32256443	6009	1	0	-100	0	230	101300000	1000	0	0	-1	0
32269004	6021	0	0	-100	0	230	101300000	1000	0	0	-1	0
32281563	6016	0	0	-100	0	230	101300000	1000	0	0	-1	0
32294123	6017	0	0	-100	0	230	101300000	1000	0	0	-1	0
32306683	6012	1	0	-100	0	230	101300000	1000	0	0	-1	0
32319243	6011	5	0	-100	0	230	101300000	1000	0	0	-1	0
32331803	6013	0	0	-100	0	230	101300000	1000	0	0	-1	0
32344363	6020	0	0	-100	0	230	101300000	1000	0	0	-1	0
32356923	6010	4	0	-100	0	230	101300000	1000	0	0	-1	0
32369483	6012	0	0	-100	0	230	101300000	1000	0	0	-1	0
32382043	6016	0	0	-100	0	230	101300000	1000	0	0	-1	0
32394603	6018	0	0	-100	0	230	101300000	1000	0	0	-1	0
32407163	6017	0	0	-100	0	230	101300000	1000	0	0	-1	0
32419723	6012	4	0	-100	0	230	101300000	1000	0	0	-1	0
32432283	6008	0	0	-100	0	230	101300000	1000	0	0	-1	0
32444843	6014	0	0	-100	0	230	101300000	1000	0	0	-1	0
32457403	6016	0	0	-100	0	230	101300000	1000	0	0	-1	0
32469963	6008	2	0	-100	0	230	101300000	1000	0	0	-1	0
32482523	6011	3	0	-100	0	230	101300000	1000	0	0	-1	0
32495083	6015	0	0	-100	0	230	101300000	1000	0	0	-1	0
32507643	6017	0	0	-100	0	230	101300000	1000	0	0	-1	0
32520203	6012	1	0	-100	0	230	101300000	1000	0	0	-1	0
32532763	6012	3	0	-100	0	230	101300000	1000	0	0	-1	0
32545323	6013	0	0	-100	0	230	101300000	1000	0	0	-1	0
32557883	6016	0	0	-100	0	230	101300000	1000	0	0	-1	0
32570443	6004	0	0	-100	0	230	101300000	1000	0	0	-1	0
32583004	6016	2	0	-100	0	230	101300000	1000	0	0	-1	0
32595563	6008	2	0	-100	0	230	101300000	1000	0	0	-1	0
32608123	6008	2	0	-100	0	230	101300000	1000	0	0	-1	0
32620683	6012	0	0	-100	0	230	101300000	1000	0	0	-1	0
32633243	6007	0	0	-100	0	230	101300000	1000	0	0	-1	0
32645803	6011	0	0	-100	0	230	101300000	1000	0	0	-1	0
32658363	6013	0	0	-100	0	230	101300000	1000	0	0	-1	0
32670923	6010	4	0	-100	0	230	101300000	1000	0	0	-1	0
32683483	6016	0	0	-100	0	230	101300000	1000	0	0	-1	0
32696043	6008	0	0	-100	0	230	101300000	1000	0	0	-1	0
32708603	6012	3	0	-100	0	230	101300000	1000	0	0	-1	0
32721163	6026	0	0	-100	0	230	101300000	1000	0	0	-1	0
32733723	6016	0	0	-100	0	230	101300000	1000	0	0	-1	0
32746283	6007	0	0	-100	0	230	101300000	1000	0	0	-1	0
32758843	6012	3	0	-100	0	230	101300000	1000	0	0	-1	0
32771403	6014	0	0	-100	0	230	101300000	1000	0	0	-1	0
32783963	6017	0	0	-100	0	230	101300000	1000	0	0	-1	0
32796523	6006	0	0	-100	0	230	101300000	1000	0	0	-1	0
32809083	6007	3	0	-100	0	230	101300000	1000	0	0	-1	0
32821643	6020	0	0	-100	0	230	101300000	1000	0	0	-1	0
32834203	6010	0	0	-100	0	230	101300000	1000	0	0	-1	0
32846763	6014	0	0	-100	0	230	101300000	1000	0	0	-1	0
32859323	6013	0	0	-100	0	230	101300000	1000	0	0	-1	0
32871883	6012	1	0	-100	0	230	101300000	1000	0	0	-1	0
32884443	6014	0	0	-100	0	230	101300000	1000	0	0	-1	0
32897004	6022	0	0	-100	0	230	101300000	1000	0	0	-1	0
32909563	6021	0	0	-100	0	230	101300000	1000	0	0	-1	0
32922123	6014	0	0	-100	0	230	101300000	1000	0	0	-1	0
32934683	6010	3	0	-100	0	230	101300000	1000	0	0	-1	0
32947243	6017	0	0	-100	0	230	101300000	1000	0	0	-1	0
32959803	6015	2	0	-100	0	230	101300000	1000	0	0	-1	0
32972363	6012	0	0	-100	0	230	101300000	1000	0	0	-1	0
32984923	6013	0	0	-100	0	230	101300000	1000	0	0	-1	0
32997483	6010	4	0	-100	0	230	101300000	1000	0	0	-1	0
33010043	6012	0	0	-100	0	230	101300000	1000	0	0	-1	0
33022603	6014	0	0	-100	0	230	101300000	1000	0	0	-1	0
33035163	6016	4	0	-100	0	230	101300000	1000	0	0	-1	0
33047723	6011	0	0	-100	0	230	101300000	1000	0	0	-1	0
33060283	6014	0	0	-100	0	230	101300000	1000	0	0	-1	0
33072843	6009	0	0	-100	0	230	101300000	1000	0	0	-1	0
33085403	6012	4	0	-100	0	230	101300000	1000	0	0	-1	0
33097963	6014	1	0	-100	0	230	101300000	1000	0	0	-1	0
33110523	6016	0	0	-100	0	230	101300000	1000	0	0	-1	0
33123083	6012	0	0	-100	0	230	101300000	1000	0	0	-1	0
33135643	6007	0	0	-100	0	230	101300000	1000	0	0	-1	0
33148203	6010	4	0	-100	0	230	101300000	1000	0	0	-1	0
33160763	6012	0	0	-100	0	230	101300000	1000	0	0	-1	0
33173323	6016	0	0	-100	0	230	101300000	1000	0	0	-1	0
33185883	6015	0	0	-100	0	230	101300000	1000	0	0	-1	0
33198443	6008	0	0	-100	0	230	101300000	1000	0	0	-1	0
33211004	6016	0	0	-100	0	230	101300000	1000	0	0	-1	0
33223563	6015	0	0	-100	0	230	101300000	1000	0	0	-1	0
33236123	6015	0	0	-100	0	230	101300000	1000	0	0	-1	0
33248683	6012	5	0	-100	0	230	101300000	1000	0	0	-1	0
33261243	6012	1	0	-100	0	230	101300000	1000	0	0	-1	0
33273803	6016	0	0	-100	0	230	101300000	1000	0	0	-1	0
33286363	6016	0	0	-100	0	230	101300000	1000	0	0	-1	0
33298923	6012	4	0	-100	0	230	101300000	1000	0	0	-1	0
33311483	6014	1	0	-100	0	230	101300000	1000	0	0	-1	0
33324043	6017	0	0	-100	0	230	101300000	1000	0	0	-1	0
33336603	6015	0	0	-100	0	230	101300000	1000	0	0	-1	0
33349163	6020	4	0	-100	0	230	101300000	1000	0	0	-1	0
33361723	6014	0	0	-100	0	230	101300000	1000	0	0	-1	0
33374283	6015	0	0	-100	0	230	101300000	1000	0	0	-1	0
33386843	6010	0	0	-100	0	230	101300000	1000	0	0	-1	0
33399403	6011	5	0	-100	0	230	101300000	1000	0	0	-1	0
33411963	6006	3	0	-100	0	230	101300000	1000	0	0	-1	0
33424523	6015	0	0	-100	0	230	101300000	1000	0	0	-1	0
33437083	6011	0	0	-100	0	230	101300000	1000	0	0	-1	0
33449643	6012	4	0	-100	0	230	101300000	1000	0	0	-1	0
33462203	6012	2	0	-100	0	230	101300000	1000	0	0	-1	0
33474763	6017	0	0	-100	0	230	101300000	1000	0	0	-1	0
33487323	6015	0	0	-100	0	230	101300000	1000	0	0	-1	0
33499883	6010	0	0	-100	0	230	101300000	1000	0	0	-1	0
33512443	6009	2	0	-100	0	230	101300000	1000	0	0	-1	0
33525004	6016	4	0	-100	0	230	101300000	1000	0	0	-1	0
33537563	6013	0	0	-100	0	230	101300000	1000	0	0	-1	0
33550123	6007	0	0	-100	0	230	101300000	1000	0	0	-1	0
33562683	6008	4	0	-100	0	230	101300000	1000	0	0	-1	0
33575243	6012	0	0	-100	0	230	101300000	1000	0	0	-1	0
33587803	6017	0	0	-100	0	230	101300000	1000	0	0	-1	0
33600363	6011	0	0	-100	0	230	101300000	1000	0	0	-1	0
33612923	6009	2	0	-100	0	230	101300000	1000	0	0	-1	0
33625483	6010	0	0	-100	0	230	101300000	1000	0	0	-1	0
33638043	6012	0	0	-100	0	230	101300000	1000	0	0	-1	0
33650603	6008	0	0	-100	0	230	101300000	1000	0	0	-1	0
33663163	6022	4	0	-100	0	230	101300000	1000	0	0	-1	0
33675723	6012	0	0	-100	0	230	101300000	1000	0	0	-1	0
33688283	6018	0	0	-100	0	230	101300000	1000	0	0	-1	0
33700843	6017	0	0	-100	0	230	101300000	1000	0	0	-1	0
33713403	6010	0	0	-100	0	230	101300000	1000	0	0	-1	0
33725963	6012	4	0	-100	0	230	101300000	1000	0	0	-1	0
33738523	6010	4	0	-100	0	230	101300000	1000	0	0	-1	0
33751083	6012	0	0	-100	0	230	101300000	1000	0	0	-1	0
33763643	6016	0	0	-100	0	230	101300000	1000	0	0	-1	0
33776203	6015	0	0	-100	0	230	101300000	1000	0	0	-1	0
33788763	6012	0	0	-100	0	230	101300000	1000	0	0	-1	0
33801323	6008	0	0	-100	0	230	101300000	1000	0	0	-1	0
33813883	6011	6	0	-100	0	230	101300000	1000	0	0	-1	0
33826443	6012	4	0	-100	0	230	101300000	1000	0	0	-1	0
33839004	6016	0	0	-100	0	230	101300000	1000	0	0	-1	0
33851563	6012	0	0	-100	0	230	101300000	1000	0	0	-1	0
33864123	6018	0	0	-100	0	230	101300000	1000	0	0	-1	0
33876683	6014	0	0	-100	0	230	101300000	1000	0	0	-1	0
33889243	6010	0	0	-100	0	230	101300000	1000	0	0	-1	0
33901803	6012	4	0	-100	0	230	101300000	1000	0	0	-1	0
33914363	6010	0	0	-100	0	230	101300000	1000	0	0	-1	0
33926923	6016	0	0	-100	0	230	101300000	1000	0	0	-1	0
33939483	6007	0	0	-100	0	230	101300000	1000	0	0	-1	0
33952043	6010	3	0	-100	0	230	101300000	1000	0	0	-1	0
33964603	6016	0	0	-100	0	230	101300000	1000	0	0	-1	0
33977163	6021	0	0	-100	0	230	101300000	1000	0	0	-1	0
33989723	6012	3	0	-100	0	230	101300000	1000	0	0	-1	0
34002283	6013	0	0	-100	0	230	101300000	1000	0	0	-1	0
34014843	6015	0	0	-100	0	230	101300000	1000	0	0	-1	0
34027403	6008	6	0	-100	0	230	101300000	1000	0	0	-1	0
34039963	6017	0	0	-100	0	230	101300000	1000	0	0	-1	0
34052523	6008	0	0	-100	0	230	101300000	1000	0	0	-1	0
34065083	6009	3	0	-100	0	230	101300000	1000	0	0	-1	0
34077643	6016	0	0	-100	0	230	101300000	1000	0	0	-1	0
34090203	6009	0	0	-100	0	230	101300000	1000	0	0	-1	0
34102763	6009	2	0	-100	0	230	101300000	1000	0	0	-1	0
34115323	6017	0	0	-100	0	230	101300000	1000	0	0	-1	0
34127883	6015	0	0	-100	0	230	101300000	1000	0	0	-1	0
34140443	6006	4	0	-100	0	230	101300000	1000	0	0	-1	0
34153004	6020	2	0	-100	0	230	101300000	1000	0	0	-1	0
34165563	6016	0	0	-100	0	230	101300000	1000	0	0	-1	0
34178123	6012	0	0	-100	0	230	101300000	1000	0	0	-1	0
34190683	6010	2	0	-100	0	230	101300000	1000	0	0	-1	0
34203243	6019	0	0	-100	0	230	101300000	1000	0	0	-1	0
34215803	6015	0	0	-100	0	230	101300000	1000	0	0	-1	0
34228363	6009	0	0	-100	0	230	101300000	1000	0	0	-1	0
34240923	6008	0	0	-100	0	230	101300000	1000	0	0	-1	0
34253483	6012	3	0	-100	0	230	101300000	1000	0	0	-1	0
34266043	6011	0	0	-100	0	230	101300000	1000	0	0	-1	0
34278603	6013	0	0	-100	0	230	101300000	1000	0	0	-1	0
34291163	6017	0	0	-100	0	230	101300000	1000	0	0	-1	0
34303723	6011	5	0	-100	0	230	101300000	1000	0	0	-1	0
34316283	6014	0	0	-100	0	230	101300000	1000	0	0	-1	0
34328843	6016	0	0	-100	0	230	101300000	1000	0	0	-1	0
34341403	6011	0	0	-100	0	230	101300000	1000	0	0	-1	0
34353963	6008	0	0	-100	0	230	101300000	1000	0	0	-1	0
34366523	6008	3	0	-100	0	230	101300000	1000	0	0	-1	0
34379083	6018	0	0	-100	0	230	101300000	1000	0	0	-1	0
34391643	6016	0	0	-100	0	230	101300000	1000	0	0	-1	0
34404203	6008	0	0	-100	0	230	101300000	1000	0	0	-1	0
34416763	6012	4	0	-100	0	230	101300000	1000	0	0	-1	0
34429323	6008	1	0	-100	0	230	101300000	1000	0	0	-1	0
34441883	6018	0	0	-100	0	230	101300000	1000	0	0	-1	0
34454443	6011	0	0	-100	0	230	101300000	1000	0	0	-1	0
34467004	6022	0	0	-100	0	230	101300000	1000	0	0	-1	0
34479563	6015	0	0	-100	0	230	101300000	1000	0	0	-1	0
34492123	6013	0	0	-100	0	230	101300000	1000	0	0	-1	0
34504683	6010	4	0	-100	0	230	101300000	1000	0	0	-1	0
34517243	6014	0	0	-100	0	230	101300000	1000	0	0	-1	0
34529803	6012	0	0	-100	0	230	101300000	1000	0	0	-1	0
34542363	6010	4	0	-100	0	230	101300000	1000	0	0	-1	0
34554923	6018	0	0	-100	0	230	101300000	1000	0	0	-1	0
34567483	6015	0	0	-100	0	230	101300000	1000	0	0	-1	0
34580043	6011	1	0	-100	0	230	101300000	1000	0	0	-1	0
34592603	6010	1	0	-100	0	230	101300000	1000	0	0	-1	0
34605163	6021	0	0	-100	0	230	101300000	1000	0	0	-1	0
34617723	6012	0	0	-100	0	230	101300000	1000	0	0	-1	0
34630283	6012	4	0	-100	0	230	101300000	1000	0	0	-1	0
34642843	6008	3	0	-100	0	230	101300000	1000	0	0	-1	0
34655403	6007	3	0	-100	0	230	101300000	1000	0	0	-1	0
34667963	6017	0	0	-100	0	230	101300000	1000	0	0	-1	0
34680523	6012	0	0	-100	0	230	101300000	1000	0	0	-1	0
34693083	6008	3	0	-100	0	230	101300000	1000	0	0	-1	0
34705643	6013	0	0	-100	0	230	101300000	1000	0	0	-1	0
34718203	6008	3	0	-100	0	230	101300000	1000	0	0	-1	0
34730763	6015	0	0	-100	0	230	101300000	1000	0	0	-1	0
34743323	6013	3	0	-100	0	230	101300000	1000	0	0	-1	0
34755883	6015	0	0	-100	0	230	101300000	1000	0	0	-1	0
34768443	6010	4	0	-100	0	230	101300000	1000	0	0	-1	0
34781004	6015	3	0	-100	0	230	101300000	1000	0	0	-1	0
34793563	6008	0	0	-100	0	230	101300000	1000	0	0	-1	0
34806123	6012	0	0	-100	0	230	101300000	1000	0	0	-1	0
34818683	6009	0	0	-100	0	230	101300000	1000	0	0	-1	0
34831243	6009	2	0	-100	0	230	101300000	1000	0	0	-1	0
34843803	6016	0	0	-100	0	230	101300000	1000	0	0	-1	0
34868923	6013	0	0	-100	0	230	101300000	1000	0	0	-1	0
34881483	6009	1	0	-100	0	230	101300000	1000	0	0	-1	0
34894043	6011	0	0	-100	0	230	101300000	1000	0	0	-1	0
34906603	6009	2	0	-100	0	230	101300000	1000	0	0	-1	0
34919163	6021	0	0	-100	0	230	101300000	1000	0	0	-1	0
34931723	6012	1	0	-100	0	230	101300000	1000	0	0	-1	0
34944283	6008	0	0	-100	0	230	101300000	1000	0	0	-1	0
34956843	6012	0	0	-100	0	230	101300000	1000	0	0	-1	0
34969403	6010	0	0	-100	0	230	101300000	1000	0	0	-1	0
34981963	6017	0	0	-100	0	230	101300000	1000	0	0	-1	0
34994523	6008	0	0	-100	0	230	101300000	1000	0	0	-1	0
35007083	6016	0	0	-100	0	230	101300000	1000	0	0	-1	0
35069883	6008	4	0	-100	0	230	101300000	1000	0	0	-1	0
35082443	6015	0	0	-100	0	230	101300000	1000	0	0	-1	0
35095004	6015	0	0	-100	0	230	101300000	1000	0	0	-1	0
35107563	6013	0	0	-100	0	230	101300000	1000	0	0	-1	0
35120123	6009	1	0	-100	0	230	101300000	1000	0	0	-1	0
35132683	6008	0	0	-100	0	230	101300000	1000	0	0	-1	0
35145243	6010	0	0	-100	0	230	101300000	1000	0	0	-1	0
35157803	6012	0	0	-100	0	230	101300000	1000	0	0	-1	0
35170363	6008	2	0	-100	0	230	101300000	1000	0	0	-1	0
35182923	6016	0	0	-100	0	230	101300000	1000	0	0	-1	0
35195483	6008	1	0	-100	0	230	101300000	1000	0	0	-1	0
35208043	6010	1	0	-100	0	230	101300000	1000	0	0	-1	0
35233163	6016	0	0	-100	0	230	101300000	1000	0	0	-1	0
35245723	6016	0	0	-100	0	230	101300000	1000	0	0	-1	0
35258283	6009	0	0	-100	0	230	101300000	1000	0	0	-1	0
35270843	6008	3	0	-100	0	230	101300000	1000	0	0	-1	0
35283403	6016	0	0	-100	0	230	101300000	1000	0	0	-1	0
35295963	6005	0	0	-100	0	230	101300000	1000	0	0	-1	0
35308523	6010	1	0	-100	0	230	101300000	1000	0	0	-1	0
35321083	6016	0	0	-100	0	230	101300000	1000	0	0	-1	0
35333643	6010	0	0	-100	0	230	101300000	1000	0	0	-1	0
35346203	6009	3	0	-100	0	230	101300000	1000	0	0	-1	0
35358763	6020	0	0	-100	0	230	101300000	1000	0	0	-1	0
35371323	6016	0	0	-100	0	230	101300000	1000	0	0	-1	0
35383883	6005	0	0	-100	0	230	101300000	1000	0	0	-1	0
35396443	6010	3	0	-100	0	230	101300000	1000	0	0	-1	0
35409004	6015	4	0	-100	0	230	101300000	1000	0	0	-1	0
35421563	6013	0	0	-100	0	230	101300000	1000	0	0	-1	0
35434123	6011	4	0	-100	0	230	101300000	1000	0	0	-1	0
35446683	6020	0	0	-100	0	230	101300000	1000	0	0	-1	0
35459243	6010	0	0	-100	0	230	101300000	1000	0	0	-1	0
35471803	6012	3	0	-100	0	230	101300000	1000	0	0	-1	0
35484363	6015	0	0	-100	0	230	101300000	1000	0	0	-1	0
35496923	6007	0	0	-100	0	230	101300000	1000	0	0	-1	0
35509483	6010	2	0	-100	0	230	101300000	1000	0	0	-1	0
35522043	6017	0	0	-100	0	230	101300000	1000	0	0	-1	0
35534603	6010	4	0	-100	0	230	101300000	1000	0	0	-1	0
35547163	6020	0	0	-100	0	230	101300000	1000	0	0	-1	0
35559723	6012	0	0	-100	0	230	101300000	1000	0	0	-1	0
35572283	6008	0	0	-100	0	230	101300000	1000	0	0	-1	0
35584843	6010	3	0	-100	0	230	101300000	1000	0	0	-1	0
35597403	6020	0	0	-100	0	230	101300000	1000	0	0	-1	0
35609963	6012	0	0	-100	0	230	101300000	1000	0	0	-1	0
35622523	6012	4	0	-100	0	230	101300000	1000	0	0	-1	0
35635083	6016	0	0	-100	0	230	101300000	1000	0	0	-1	0
35647643	6011	0	0	-100	0	230	101300000	1000	0	0	-1	0
35660203	6012	3	0	-100	0	230	101300000	1000	0	0	-1	0
35672763	6016	0	0	-100	0	230	101300000	1000	0	0	-1	0
35685323	6010	0	0	-100	0	230	101300000	1000	0	0	-1	0
35697883	6012	5	0	-100	0	230	101300000	1000	0	0	-1	0
35710443	6021	0	0	-100	0	230	101300000	1000	0	0	-1	0
35723004	6019	0	0	-100	0	230	101300000	1000	0	0	-1	0
35735563	6014	1	0	-100	0	230	101300000	1000	0	0	-1	0
35748123	6006	3	0	-100	0	230	101300000	1000	0	0	-1	0
35760683	6018	0	0	-100	0	230	101300000	1000	0	0	-1	0
35773243	6012	0	0	-100	0	230	101300000	1000	0	0	-1	0
35785803	6008	0	0	-100	0	230	101300000	1000	0	0	-1	0
35798363	6010	4	0	-100	0	230	101300000	1000	0	0	-1	0
35810923	6019	0	0	-100	0	230	101300000	1000	0	0	-1	0
35823483	6008	0	0	-100	0	230	101300000	1000	0	0	-1	0
35836043	6012	4	0	-100	0	230	101300000	1000	0	0	-1	0
35848603	6016	0	0	-100	0	230	101300000	1000	0	0	-1	0
35861163	6021	0	0	-100	0	230	101300000	1000	0	0	-1	0
35873723	6010	4	0	-100	0	230	101300000	1000	0	0	-1	0
35886283	6014	0	0	-100	0	230	101300000	1000	0	0	-1	0
35898843	6012	5	0	-100	0	230	101300000	1000	0	0	-1	0
35911403	6020	0	0	-100	0	230	101300000	1000	0	0	-1	0
35923963	6010	4	0	-100	0	230	101300000	1000	0	0	-1	0
35936523	6016	0	0	-100	0	230	101300000	1000	0	0	-1	0
35949083	6012	4	0	-100	0	230	101300000	1000	0	0	-1	0
35961643	6016	0	0	-100	0	230	101300000	1000	0	0	-1	0
35974203	6012	0	0	-100	0	230	101300000	1000	0	0	-1	0
35986763	6014	2	0	-100	0	230	101300000	1000	0	0	-1	0
35999323	6019	0	0	-100	0	230	101300000	1000	0	0	-1	0
36011883	6012	0	0	-100	0	230	101300000	1000	0	0	-1	0
36024443	6010	0	0	-100	0	230	101300000	1000	0	0	-1	0
36037004	6019	0	0	-100	0	230	101300000	1000	0	0	-1	0
36049563	6019	0	0	-100	0	230	101300000	1000	0	0	-1	0
36062123	6014	0	0	-100	0	230	101300000	1000	0	0	-1	0
36074683	6012	4	0	-100	0	230	101300000	1000	0	0	-1	0
36087243	6015	0	0	-100	0	230	101300000	1000	0	0	-1	0
36099803	6015	0	0	-100	0	230	101300000	1000	0	0	-1	0
36112363	6009	3	0	-100	0	230	101300000	1000	0	0	-1	0
36124923	6013	0	0	-100	0	230	101300000	1000	0	0	-1	0
36137483	6019	0	0	-100	0	230	101300000	1000	0	0	-1	0
36150043	6010	3	0	-100	0	230	101300000	1000	0	0	-1	0
36162603	6012	0	0	-100	0	230	101300000	1000	0	0	-1	0
36175163	6021	0	0	-100	0	230	101300000	1000	0	0	-1	0
36187723	6013	4	0	-100	0	230	101300000	1000	0	0	-1	0
36200283	6010	0	0	-100	0	230	101300000	1000	0	0	-1	0
36212843	6011	0	0	-100	0	230	101300000	1000	0	0	-1	0
36225403	6008	0	0	-100	0	230	101300000	1000	0	0	-1	0
36237963	6008	1	0	-100	0	230	101300000	1000	0	0	-1	0
36250523	6015	0	0	-100	0	230	101300000	1000	0	0	-1	0
36263083	6010	0	0	-100	0	230	101300000	1000	0	0	-1	0
36275643	6013	0	0	-100	0	230	101300000	1000	0	0	-1	0
36288203	6017	0	0	-100	0	230	101300000	1000	0	0	-1	0
36300763	6007	0	0	-100	0	230	101300000	1000	0	0	-1	0
36313323	6012	4	0	-100	0	230	101300000	1000	0	0	-1	0
36325883	6016	0	0	-100	0	230	101300000	1000	0	0	-1	0
36338443	6014	0	0	-100	0	230	101300000	1000	0	0	-1	0
36351004	6022	0	0	-100	0	230	101300000	1000	0	0	-1	0
36363563	6010	0	0	-100	0	230	101300000	1000	0	0	-1	0
36376123	6004	4	0	-100	0	230	101300000	1000	0	0	-1	0
36388683	6012	0	0	-100	0	230	101300000	1000	0	0	-1	0
36401243	6014	0	0	-100	0	230	101300000	1000	0	0	-1	0
36413803	6013	0	0	-100	0	230	101300000	1000	0	0	-1	0
36426363	6012	0	0	-100	0	230	101300000	1000	0	0	-1	0
36438923	6011	0	0	-100	0	230	101300000	1000	0	0	-1	0
36451483	6010	0	0	-100	0	230	101300000	1000	0	0	-1	0
36464043	6010	7	0	-100	0	230	101300000	1000	0	0	-1	0
