timestamp	voltage	current	windSpeed	pitchAngle	rpm	temperature	ambientPressure	humidity	accelerationX	accelerationY	accelerationZ	currentSink
7035070	7018	4	0	-100	0	230	101300000	1000	0	0	-1	0
7042523	7025	0	0	-100	0	230	101300000	1000	0	0	-1	0
7055083	7023	0	0	-100	0	230	101300000	1000	0	0	-1	0
7067643	7021	0	0	-100	0	230	101300000	1000	0	0	-1	0
7080203	7020	3	0	-100	0	230	101300000	1000	0	0	-1	0
7092763	7026	0	0	-100	0	230	101300000	1000	0	0	-1	0
7105323	7021	0	0	-100	0	230	101300000	1000	0	0	-1	0
7117883	7018	0	0	-100	0	230	101300000	1000	0	0	-1	0
7130443	7018	4	0	-100	0	230	101300000	1000	0	0	-1	0
7143004	7025	0	0	-100	0	230	101300000	1000	0	0	-1	0
7155563	7022	3	0	-100	0	230	101300000	1000	0	0	-1	0
7168123	7016	2	0	-100	0	230	101300000	1000	0	0	-1	0
7180683	7025	0	0	-100	0	230	101300000	1000	0	0	-1	0
7193243	7025	0	0	-100	0	230	101300000	1000	0	0	-1	0
7205803	7027	0	0	-100	0	230	101300000	1000	0	0	-1	0
7218363	7025	0	0	-100	0	230	101300000	1000	0	0	-1	0
7230923	7018	0	0	-100	0	230	101300000	1000	0	0	-1	0
7243483	7021	2	0	-100	0	230	101300000	1000	0	0	-1	0
7256043	7018	3	0	-100	0	230	101300000	1000	0	0	-1	0
7268603	7020	2	0	-100	0	230	101300000	1000	0	0	-1	0
7281163	7023	0	0	-100	0	230	101300000	1000	0	0	-1	0
7293723	7020	0	0	-100	0	230	101300000	1000	0	0	-1	0
7306283	7020	3	0	-100	0	230	101300000	1000	0	0	-1	0
7318843	7027	0	0	-100	0	230	101300000	1000	0	0	-1	0
7331403	7022	0	0	-100	0	230	101300000	1000	0	0	-1	0
7343963	7021	0	0	-100	0	230	101300000	1000	0	0	-1	0
7356523	7016	0	0	-100	0	230	101300000	1000	0	0	-1	0
7369083	7018	3	0	-100	0	230	101300000	1000	0	0	-1	0
7381643	7025	0	0	-100	0	230	101300000	1000	0	0	-1	0
7394203	7023	0	0	-100	0	230	101300000	1000	0	0	-1	0
7406763	7022	0	0	-100	0	230	101300000	1000	0	0	-1	0
7419323	7008	0	0	-100	0	230	101300000	1000	0	0	-1	0
7431883	7024	3	0	-100	0	230	101300000	1000	0	0	-1	0
7444443	7018	1	0	-100	0	230	101300000	1000	0	0	-1	0
7457004	7025	3	0	-100	0	230	101300000	1000	0	0	-1	0
7469563	7023	0	0	-100	0	230	101300000	1000	0	0	-1	0
7482123	7017	0	0	-100	0	230	101300000	1000	0	0	-1	0
7494683	7022	0	0	-100	0	230	101300000	1000	0	0	-1	0
7507243	7017	1	0	-100	0	230	101300000	1000	0	0	-1	0
7519803	7020	4	0	-100	0	230	101300000	1000	0	0	-1	0
7532363	7018	1	0	-100	0	230	101300000	1000	0	0	-1	0
7544923	7021	0	0	-100	0	230	101300000	1000	0	0	-1	0
7557483	7030	0	0	-100	0	230	101300000	1000	0	0	-1	0
7570043	7025	0	0	-100	0	230	101300000	1000	0	0	-1	0
7582603	7025	0	0	-100	0	230	101300000	1000	0	0	-1	0
7595163	7022	0	0	-100	0	230	101300000	1000	0	0	-1	0
7607723	7027	0	0	-100	0	230	101300000	1000	0	0	-1	0
7620283	7023	0	0	-100	0	230	101300000	1000	0	0	-1	0
7632843	7027	0	0	-100	0	230	101300000	1000	0	0	-1	0
7645403	7018	0	0	-100	0	230	101300000	1000	0	0	-1	0
7657963	7016	0	0	-100	0	230	101300000	1000	0	0	-1	0
7670523	7021	0	0	-100	0	230	101300000	1000	0	0	-1	0
7683083	7025	0	0	-100	0	230	101300000	1000	0	0	-1	0
7695643	7023	0	0	-100	0	230	101300000	1000	0	0	-1	0
7708203	7023	0	0	-100	0	230	101300000	1000	0	0	-1	0
7720763	7028	0	0	-100	0	230	101300000	1000	0	0	-1	0
7733323	7019	0	0	-100	0	230	101300000	1000	0	0	-1	0
7745883	7030	0	0	-100	0	230	101300000	1000	0	0	-1	0
7758443	7025	0	0	-100	0	230	101300000	1000	0	0	-1	0
7771004	7014	0	0	-100	0	230	101300000	1000	0	0	-1	0
7783563	7025	0	0	-100	0	230	101300000	1000	0	0	-1	0
7796123	7014	0	0	-100	0	230	101300000	1000	0	0	-1	0
7808683	7020	0	0	-100	0	230	101300000	1000	0	0	-1	0
7821243	7022	0	0	-100	0	230	101300000	1000	0	0	-1	0
7833803	7021	0	0	-100	0	230	101300000	1000	0	0	-1	0
7846363	7016	0	0	-100	0	230	101300000	1000	0	0	-1	0
7858923	7018	0	0	-100	0	230	101300000	1000	0	0	-1	0
7871483	7018	0	0	-100	0	230	101300000	1000	0	0	-1	0
7884043	7019	0	0	-100	0	230	101300000	1000	0	0	-1	0
7896603	7021	0	0	-100	0	230	101300000	1000	0	0	-1	0
7909163	7022	0	0	-100	0	230	101300000	1000	0	0	-1	0
7921723	7022	4	0	-100	0	230	101300000	1000	0	0	-1	0
7934283	7024	2	0	-100	0	230	101300000	1000	0	0	-1	0
7946843	7022	2	0	-100	0	230	101300000	1000	0	0	-1	0
7959403	7024	0	0	-100	0	230	101300000	1000	0	0	-1	0
7971963	7024	0	0	-100	0	230	101300000	1000	0	0	-1	0
8022203	7022	0	0	-100	0	230	101300000	1000	0	0	-1	0
8034763	7026	0	0	-100	0	230	101300000	1000	0	0	-1	0
8047323	7019	0	0	-100	0	230	101300000	1000	0	0	-1	0
8059883	7022	0	0	-100	0	230	101300000	1000	0	0	-1	0
8072443	7020	1	0	-100	0	230	101300000	1000	0	0	-1	0
8085004	7025	0	0	-100	0	230	101300000	1000	0	0	-1	0
8097563	7022	0	0	-100	0	230	101300000	1000	0	0	-1	0
8110123	7019	0	0	-100	0	230	101300000	1000	0	0	-1	0
8122683	7022	0	0	-100	0	230	101300000	1000	0	0	-1	0
8135243	7023	0	0	-100	0	230	101300000	1000	0	0	-1	0
8147803	7025	0	0	-100	0	230	101300000	1000	0	0	-1	0
8160363	7024	0	0	-100	0	230	101300000	1000	0	0	-1	0
8172923	7016	0	0	-100	0	230	101300000	1000	0	0	-1	0
8185483	7021	3	0	-100	0	230	101300000	1000	0	0	-1	0
8198043	7022	0	0	-100	0	230	101300000	1000	0	0	-1	0
8210603	7025	0	0	-100	0	230	101300000	1000	0	0	-1	0
8223163	7019	0	0	-100	0	230	101300000	1000	0	0	-1	0
8235723	7020	3	0	-100	0	230	101300000	1000	0	0	-1	0
8248283	7029	0	0	-100	0	230	101300000	1000	0	0	-1	0
8260843	7019	0	0	-100	0	230	101300000	1000	0	0	-1	0
8273403	7022	4	0	-100	0	230	101300000	1000	0	0	-1	0
8285963	7021	0	0	-100	0	230	101300000	1000	0	0	-1	0
8298523	7025	0	0	-100	0	230	101300000	1000	0	0	-1	0
8311083	7020	0	0	-100	0	230	101300000	1000	0	0	-1	0
8323643	7018	3	0	-100	0	230	101300000	1000	0	0	-1	0
8336203	7030	0	0	-100	0	230	101300000	1000	0	0	-1	0
8348763	7019	0	0	-100	0	230	101300000	1000	0	0	-1	0
8361323	7012	1	0	-100	0	230	101300000	1000	0	0	-1	0
8373883	7020	2	0	-100	0	230	101300000	1000	0	0	-1	0
8386443	7021	0	0	-100	0	230	101300000	1000	0	0	-1	0
8399004	7022	0	0	-100	0	230	101300000	1000	0	0	-1	0
8411563	7021	0	0	-100	0	230	101300000	1000	0	0	-1	0
8424123	7017	0	0	-100	0	230	101300000	1000	0	0	-1	0
8436683	7027	0	0	-100	0	230	101300000	1000	0	0	-1	0
8449243	7018	0	0	-100	0	230	101300000	1000	0	0	-1	0
8461803	7022	4	0	-100	0	230	101300000	1000	0	0	-1	0
8474363	7021	4	0	-100	0	230	101300000	1000	0	0	-1	0
8486923	7020	3	0	-100	0	230	101300000	1000	0	0	-1	0
8499483	7022	0	0	-100	0	230	101300000	1000	0	0	-1	0
8512043	7024	0	0	-100	0	230	101300000	1000	0	0	-1	0
8524603	7024	0	0	-100	0	230	101300000	1000	0	0	-1	0
8537163	7023	0	0	-100	0	230	101300000	1000	0	0	-1	0
8549723	7028	0	0	-100	0	230	101300000	1000	0	0	-1	0
8562283	7023	0	0	-100	0	230	101300000	1000	0	0	-1	0
8574843	7023	0	0	-100	0	230	101300000	1000	0	0	-1	0
8587403	7020	0	0	-100	0	230	101300000	1000	0	0	-1	0
8599963	7022	3	0	-100	0	230	101300000	1000	0	0	-1	0
8612523	7018	2	0	-100	0	230	101300000	1000	0	0	-1	0
8625083	7018	1	0	-100	0	230	101300000	1000	0	0	-1	0
8637643	7022	0	0	-100	0	230	101300000	1000	0	0	-1	0
8650203	7028	0	0	-100	0	230	101300000	1000	0	0	-1	0
8662763	7027	0	0	-100	0	230	101300000	1000	0	0	-1	0
8675323	7017	0	0	-100	0	230	101300000	1000	0	0	-1	0
8687883	7023	0	0	-100	0	230	101300000	1000	0	0	-1	0
8700443	7016	0	0	-100	0	230	101300000	1000	0	0	-1	0
8713004	7025	0	0	-100	0	230	101300000	1000	0	0	-1	0
8725563	7018	2	0	-100	0	230	101300000	1000	0	0	-1	0
8738123	7019	0	0	-100	0	230	101300000	1000	0	0	-1	0
8750683	7023	0	0	-100	0	230	101300000	1000	0	0	-1	0
8763243	7021	0	0	-100	0	230	101300000	1000	0	0	-1	0
8775803	7018	1	0	-100	0	230	101300000	1000	0	0	-1	0
8788363	7028	0	0	-100	0	230	101300000	1000	0	0	-1	0
8800923	7023	0	0	-100	0	230	101300000	1000	0	0	-1	0
8813483	7021	1	0	-100	0	230	101300000	1000	0	0	-1	0
8826043	7023	0	0	-100	0	230	101300000	1000	0	0	-1	0
8838603	7019	0	0	-100	0	230	101300000	1000	0	0	-1	0
8851163	7022	4	0	-100	0	230	101300000	1000	0	0	-1	0
8863723	7026	0	0	-100	0	230	101300000	1000	0	0	-1	0
8876283	7021	0	0	-100	0	230	101300000	1000	0	0	-1	0
8888843	7022	4	0	-100	0	230	101300000	1000	0	0	-1	0
8901403	7022	0	0	-100	0	230	101300000	1000	0	0	-1	0
8913963	7025	0	0	-100	0	230	101300000	1000	0	0	-1	0
8926523	7025	0	0	-100	0	230	101300000	1000	0	0	-1	0
8939083	7018	0	0	-100	0	230	101300000	1000	0	0	-1	0
8951643	7019	4	0	-100	0	230	101300000	1000	0	0	-1	0
8964203	7025	0	0	-100	0	230	101300000	1000	0	0	-1	0
8976763	7021	0	0	-100	0	230	101300000	1000	0	0	-1	0
8989323	7017	4	0	-100	0	230	101300000	1000	0	0	-1	0
9001883	7022	0	0	-100	0	230	101300000	1000	0	0	-1	0
9014443	7026	0	0	-100	0	230	101300000	1000	0	0	-1	0
9027004	7018	1	0	-100	0	230	101300000	1000	0	0	-1	0
9039563	7016	0	0	-100	0	230	101300000	1000	0	0	-1	0
9052123	7014	4	0	-100	0	230	101300000	1000	0	0	-1	0
9064683	7030	0	0	-100	0	230	101300000	1000	0	0	-1	0
9077243	7021	0	0	-100	0	230	101300000	1000	0	0	-1	0
9089803	7019	4	0	-100	0	230	101300000	1000	0	0	-1	0
9102363	7030	0	0	-100	0	230	101300000	1000	0	0	-1	0
9114923	7021	0	0	-100	0	230	101300000	1000	0	0	-1	0
9127483	7020	2	0	-100	0	230	101300000	1000	0	0	-1	0
9140043	7030	0	0	-100	0	230	101300000	1000	0	0	-1	0
9152603	7016	0	0	-100	0	230	101300000	1000	0	0	-1	0
9165163	7018	2	0	-100	0	230	101300000	1000	0	0	-1	0
9177723	7024	0	0	-100	0	230	101300000	1000	0	0	-1	0
9190283	7021	0	0	-100	0	230	101300000	1000	0	0	-1	0
9202843	7020	4	0	-100	0	230	101300000	1000	0	0	-1	0
9215403	7020	0	0	-100	0	230	101300000	1000	0	0	-1	0
9227963	7022	0	0	-100	0	230	101300000	1000	0	0	-1	0
9240523	7025	0	0	-100	0	230	101300000	1000	0	0	-1	0
9253083	7016	0	0	-100	0	230	101300000	1000	0	0	-1	0
9265643	7022	2	0	-100	0	230	101300000	1000	0	0	-1	0
9278203	7023	0	0	-100	0	230	101300000	1000	0	0	-1	0
9290763	7016	0	0	-100	0	230	101300000	1000	0	0	-1	0
9303323	7018	3	0	-100	0	230	101300000	1000	0	0	-1	0
9315883	7029	0	0	-100	0	230	101300000	1000	0	0	-1	0
9328443	7025	0	0	-100	0	230	101300000	1000	0	0	-1	0
9341004	7023	0	0	-100	0	230	101300000	1000	0	0	-1	0
9353563	7012	0	0	-100	0	230	101300000	1000	0	0	-1	0
9366123	7014	4	0	-100	0	230	101300000	1000	0	0	-1	0
9378683	7016	0	0	-100	0	230	101300000	1000	0	0	-1	0
9391243	7030	0	0	-100	0	230	101300000	1000	0	0	-1	0
9403803	7023	0	0	-100	0	230	101300000	1000	0	0	-1	0
9416363	7020	0	0	-100	0	230	101300000	1000	0	0	-1	0
9428923	7022	4	0	-100	0	230	101300000	1000	0	0	-1	0
9441483	7020	0	0	-100	0	230	101300000	1000	0	0	-1	0
9454043	7025	0	0	-100	0	230	101300000	1000	0	0	-1	0
9466603	7025	0	0	-100	0	230	101300000	1000	0	0	-1	0
9479163	7021	0	0	-100	0	230	101300000	1000	0	0	-1	0
9491723	7018	0	0	-100	0	230	101300000	1000	0	0	-1	0
9504283	7025	0	0	-100	0	230	101300000	1000	0	0	-1	0
9516843	7021	0	0	-100	0	230	101300000	1000	0	0	-1	0
9529403	7030	0	0	-100	0	230	101300000	1000	0	0	-1	0
9541963	7021	0	0	-100	0	230	101300000	1000	0	0	-1	0
9554523	7018	1	0	-100	0	230	101300000	1000	0	0	-1	0
9567083	7024	0	0	-100	0	230	101300000	1000	0	0	-1	0
9579643	7020	0	0	-100	0	230	101300000	1000	0	0	-1	0
9592203	7016	4	0	-100	0	230	101300000	1000	0	0	-1	0
9604763	7024	0	0	-100	0	230	101300000	1000	0	0	-1	0
9617323	7015	0	0	-100	0	230	101300000	1000	0	0	-1	0
9629883	7021	0	0	-100	0	230	101300000	1000	0	0	-1	0
9642443	7021	0	0	-100	0	230	101300000	1000	0	0	-1	0
9655004	7025	0	0	-100	0	230	101300000	1000	0	0	-1	0
9667563	7018	4	0	-100	0	230	101300000	1000	0	0	-1	0
9680123	7023	0	0	-100	0	230	101300000	1000	0	0	-1	0
9692683	7027	0	0	-100	0	230	101300000	1000	0	0	-1	0
9705243	7018	0	0	-100	0	230	101300000	1000	0	0	-1	0
9717803	7018	2	0	-100	0	230	101300000	1000	0	0	-1	0
9730363	7030	0	0	-100	0	230	101300000	1000	0	0	-1	0
9742923	7023	0	0	-100	0	230	101300000	1000	0	0	-1	0
9755483	7022	4	0	-100	0	230	101300000	1000	0	0	-1	0
9768043	7021	0	0	-100	0	230	101300000	1000	0	0	-1	0
9780603	7021	0	0	-100	0	230	101300000	1000	0	0	-1	0
9793163	7020	4	0	-100	0	230	101300000	1000	0	0	-1	0
9805723	7025	0	0	-100	0	230	101300000	1000	0	0	-1	0
9818283	7025	0	0	-100	0	230	101300000	1000	0	0	-1	0
9830843	7022	4	0	-100	0	230	101300000	1000	0	0	-1	0
9843403	7025	0	0	-100	0	230	101300000	1000	0	0	-1	0
9855963	7021	0	0	-100	0	230	101300000	1000	0	0	-1	0
9868523	7022	2	0	-100	0	230	101300000	1000	0	0	-1	0
9881083	7018	0	0	-100	0	230	101300000	1000	0	0	-1	0
9893643	7023	0	0	-100	0	230	101300000	1000	0	0	-1	0
9906203	7018	0	0	-100	0	230	101300000	1000	0	0	-1	0
9918763	7018	4	0	-100	0	230	101300000	1000	0	0	-1	0
9931323	7019	0	0	-100	0	230	101300000	1000	0	0	-1	0
9943883	7022	0	0	-100	0	230	101300000	1000	0	0	-1	0
9956443	7016	0	0	-100	0	230	101300000	1000	0	0	-1	0
9969004	7016	0	0	-100	0	230	101300000	1000	0	0	-1	0
9981563	7022	0	0	-100	0	230	101300000	1000	0	0	-1	0
9994123	7016	0	0	-100	0	230	101300000	1000	0	0	-1	0
10006683	7022	4	0	-100	0	230	101300000	1000	0	0	-1	0
10019243	7025	0	0	-100	0	230	101300000	1000	0	0	-1	0
10031803	7020	0	0	-100	0	230	101300000	1000	0	0	-1	0
10044363	7022	0	0	-100	0	230	101300000	1000	0	0	-1	0
10056923	7023	0	0	-100	0	230	101300000	1000	0	0	-1	0
10069483	7021	4	0	-100	0	230	101300000	1000	0	0	-1	0
10082043	7023	0	0	-100	0	230	101300000	1000	0	0	-1	0
10094603	7022	0	0	-100	0	230	101300000	1000	0	0	-1	0
10107163	7020	3	0	-100	0	230	101300000	1000	0	0	-1	0
10119723	7028	0	0	-100	0	230	101300000	1000	0	0	-1	0
10132283	7019	0	0	-100	0	230	101300000	1000	0	0	-1	0
10144843	7018	4	0	-100	0	230	101300000	1000	0	0	-1	0
10157403	7028	0	0	-100	0	230	101300000	1000	0	0	-1	0
10169963	7024	0	0	-100	0	230	101300000	1000	0	0	-1	0
10182523	7021	4	0	-100	0	230	101300000	1000	0	0	-1	0
10195083	7027	0	0	-100	0	230	101300000	1000	0	0	-1	0
10207643	7020	0	0	-100	0	230	101300000	1000	0	0	-1	0
10220203	7018	1	0	-100	0	230	101300000	1000	0	0	-1	0
10232763	7023	0	0	-100	0	230	101300000	1000	0	0	-1	0
10245323	7015	6	0	-100	0	230	101300000	1000	0	0	-1	0
10257883	7029	0	0	-100	0	230	101300000	1000	0	0	-1	0
10270443	7021	0	0	-100	0	230	101300000	1000	0	0	-1	0
10283004	7029	0	0	-100	0	230	101300000	1000	0	0	-1	0
10295563	7023	0	0	-100	0	230	101300000	1000	0	0	-1	0
10308123	7012	0	0	-100	0	230	101300000	1000	0	0	-1	0
10320683	7022	3	0	-100	0	230	101300000	1000	0	0	-1	0
10333243	7027	0	0	-100	0	230	101300000	1000	0	0	-1	0
10345803	7021	0	0	-100	0	230	101300000	1000	0	0	-1	0
10358363	7027	0	0	-100	0	230	101300000	1000	0	0	-1	0
10370923	7017	0	0	-100	0	230	101300000	1000	0	0	-1	0
10383483	7021	4	0	-100	0	230	101300000	1000	0	0	-1	0
10396043	7027	0	0	-100	0	230	101300000	1000	0	0	-1	0
10408603	7021	0	0	-100	0	230	101300000	1000	0	0	-1	0
10421163	7018	4	0	-100	0	230	101300000	1000	0	0	-1	0
10433723	7031	0	0	-100	0	230	101300000	1000	0	0	-1	0
10446283	7025	0	0	-100	0	230	101300000	1000	0	0	-1	0
10458843	7018	0	0	-100	0	230	101300000	1000	0	0	-1	0
10471403	7021	5	0	-100	0	230	101300000	1000	0	0	-1	0
10483963	7022	0	0	-100	0	230	101300000	1000	0	0	-1	0
10496523	7025	0	0	-100	0	230	101300000	1000	0	0	-1	0
10509083	7025	0	0	-100	0	230	101300000	1000	0	0	-1	0
10521643	7021	0	0	-100	0	230	101300000	1000	0	0	-1	0
10534203	7020	0	0	-100	0	230	101300000	1000	0	0	-1	0
10546763	7028	0	0	-100	0	230	101300000	1000	0	0	-1	0
10559323	7017	0	0	-100	0	230	101300000	1000	0	0	-1	0
10571883	7016	0	0	-100	0	230	101300000	1000	0	0	-1	0
10584443	7024	3	0	-100	0	230	101300000	1000	0	0	-1	0
10597004	7024	0	0	-100	0	230	101300000	1000	0	0	-1	0
10609563	7025	0	0	-100	0	230	101300000	1000	0	0	-1	0
10622123	7012	0	0	-100	0	230	101300000	1000	0	0	-1	0
10634683	7020	3	0	-100	0	230	101300000	1000	0	0	-1	0
10647243	7024	0	0	-100	0	230	101300000	1000	0	0	-1	0
10659803	7025	0	0	-100	0	230	101300000	1000	0	0	-1	0
10672363	7023	0	0	-100	0	230	101300000	1000	0	0	-1	0
10684923	7020	2	0	-100	0	230	101300000	1000	0	0	-1	0
10697483	7029	0	0	-100	0	230	101300000	1000	0	0	-1	0
10710043	7028	0	0	-100	0	230	101300000	1000	0	0	-1	0
10722603	7022	0	0	-100	0	230	101300000	1000	0	0	-1	0
10735163	7022	0	0	-100	0	230	101300000	1000	0	0	-1	0
10747723	7018	2	0	-100	0	230	101300000	1000	0	0	-1	0
10760283	7025	0	0	-100	0	230	101300000	1000	0	0	-1	0
10772843	7018	0	0	-100	0	230	101300000	1000	0	0	-1	0
10785403	7021	4	0	-100	0	230	101300000	1000	0	0	-1	0
10797963	7027	0	0	-100	0	230	101300000	1000	0	0	-1	0
10810523	7025	0	0	-100	0	230	101300000	1000	0	0	-1	0
10823083	7018	0	0	-100	0	230	101300000	1000	0	0	-1	0
10835643	7022	0	0	-100	0	230	101300000	1000	0	0	-1	0
10848203	7032	0	0	-100	0	230	101300000	1000	0	0	-1	0
10860763	7023	0	0	-100	0	230	101300000	1000	0	0	-1	0
10923563	7021	2	0	-100	0	230	101300000	1000	0	0	-1	0
10936123	7012	2	0	-100	0	230	101300000	1000	0	0	-1	0
10948683	7025	0	0	-100	0	230	101300000	1000	0	0	-1	0
10961243	7019	0	0	-100	0	230	101300000	1000	0	0	-1	0
10973803	7022	2	0	-100	0	230	101300000	1000	0	0	-1	0
10986363	7021	0	0	-100	0	230	101300000	1000	0	0	-1	0
10998923	7023	0	0	-100	0	230	101300000	1000	0	0	-1	0
11011483	7022	0	0	-100	0	230	101300000	1000	0	0	-1	0
11024043	7021	0	0	-100	0	230	101300000	1000	0	0	-1	0
11036603	7018	3	0	-100	0	230	101300000	1000	0	0	-1	0
11049163	7020	1	0	-100	0	230	101300000	1000	0	0	-1	0
11099403	7022	2	0	-100	0	230	101300000	1000	0	0	-1	0
11111963	7023	0	0	-100	0	230	101300000	1000	0	0	-1	0
11124523	7023	0	0	-100	0	230	101300000	1000	0	0	-1	0
11137083	7022	1	0	-100	0	230	101300000	1000	0	0	-1	0
11149643	7019	0	0	-100	0	230	101300000	1000	0	0	-1	0
11162203	7032	0	0	-100	0	230	101300000	1000	0	0	-1	0
11174763	7026	0	0	-100	0	230	101300000	1000	0	0	-1	0
11187323	7017	0	0	-100	0	230	101300000	1000	0	0	-1	0
11199883	7021	0	0	-100	0	230	101300000	1000	0	0	-1	0
11212443	7020	3	0	-100	0	230	101300000	1000	0	0	-1	0
11225004	7020	0	0	-100	0	230	101300000	1000	0	0	-1	0
11237563	7029	0	0	-100	0	230	101300000	1000	0	0	-1	0
11250123	7015	0	0	-100	0	230	101300000	1000	0	0	-1	0
11262683	7027	0	0	-100	0	230	101300000	1000	0	0	-1	0
11275243	7019	0	0	-100	0	230	101300000	1000	0	0	-1	0
11287803	7020	0	0	-100	0	230	101300000	1000	0	0	-1	0
11300363	7016	0	0	-100	0	230	101300000	1000	0	0	-1	0
11312923	7022	3	0	-100	0	230	101300000	1000	0	0	-1	0
11325483	7018	1	0	-100	0	230	101300000	1000	0	0	-1	0
11338043	7024	0	0	-100	0	230	101300000	1000	0	0	-1	0
11350603	7022	0	0	-100	0	230	101300000	1000	0	0	-1	0
11363163	7023	0	0	-100	0	230	101300000	1000	0	0	-1	0
11375723	7020	0	0	-100	0	230	101300000	1000	0	0	-1	0
11388283	7021	2	0	-100	0	230	101300000	1000	0	0	-1	0
11400843	7020	4	0	-100	0	230	101300000	1000	0	0	-1	0
11413403	7018	2	0	-100	0	230	101300000	1000	0	0	-1	0
11425963	7027	0	0	-100	0	230	101300000	1000	0	0	-1	0
11438523	7025	0	0	-100	0	230	101300000	1000	0	0	-1	0
11451083	7020	0	0	-100	0	230	101300000	1000	0	0	-1	0
11463643	7022	4	0	-100	0	230	101300000	1000	0	0	-1	0
11476203	7020	0	0	-100	0	230	101300000	1000	0	0	-1	0
11488763	7026	0	0	-100	0	230	101300000	1000	0	0	-1	0
11501323	7016	0	0	-100	0	230	101300000	1000	0	0	-1	0
11513883	7016	0	0	-100	0	230	101300000	1000	0	0	-1	0
11526443	7020	4	0	-100	0	230	101300000	1000	0	0	-1	0
11539004	7022	0	0	-100	0	230	101300000	1000	0	0	-1	0
11551563	7023	0	0	-100	0	230	101300000	1000	0	0	-1	0
11564123	7025	0	0	-100	0	230	101300000	1000	0	0	-1	0
11576683	7028	0	0	-100	0	230	101300000	1000	0	0	-1	0
11589243	7030	0	0	-100	0	230	101300000	1000	0	0	-1	0
11601803	7023	0	0	-100	0	230	101300000	1000	0	0	-1	0
11614363	7021	0	0	-100	0	230	101300000	1000	0	0	-1	0
11626923	7027	0	0	-100	0	230	101300000	1000	0	0	-1	0
11639483	7023	0	0	-100	0	230	101300000	1000	0	0	-1	0
11652043	7019	0	0	-100	0	230	101300000	1000	0	0	-1	0
11664603	7021	0	0	-100	0	230	101300000	1000	0	0	-1	0
11677163	7018	0	0	-100	0	230	101300000	1000	0	0	-1	0
11689723	7018	5	0	-100	0	230	101300000	1000	0	0	-1	0
11702283	7020	2	0	-100	0	230	101300000	1000	0	0	-1	0
11714843	7025	0	0	-100	0	230	101300000	1000	0	0	-1	0
11727403	7025	0	0	-100	0	230	101300000	1000	0	0	-1	0
11739963	7019	0	0	-100	0	230	101300000	1000	0	0	-1	0
11752523	7020	0	0	-100	0	230	101300000	1000	0	0	-1	0
11765083	7018	0	0	-100	0	230	101300000	1000	0	0	-1	0
11777643	7018	3	0	-100	0	230	101300000	1000	0	0	-1	0
11790203	7020	0	0	-100	0	230	101300000	1000	0	0	-1	0
11802763	7030	0	0	-100	0	230	101300000	1000	0	0	-1	0
11815323	7021	0	0	-100	0	230	101300000	1000	0	0	-1	0
11827883	7023	0	0	-100	0	230	101300000	1000	0	0	-1	0
11840443	7019	0	0	-100	0	230	101300000	1000	0	0	-1	0
11853004	7029	0	0	-100	0	230	101300000	1000	0	0	-1	0
11865563	7025	0	0	-100	0	230	101300000	1000	0	0	-1	0
11878123	7019	0	0	-100	0	230	101300000	1000	0	0	-1	0
11890683	7021	4	0	-100	0	230	101300000	1000	0	0	-1	0
11903243	7018	1	0	-100	0	230	101300000	1000	0	0	-1	0
11915803	7026	0	0	-100	0	230	101300000	1000	0	0	-1	0
11928363	7020	0	0	-100	0	230	101300000	1000	0	0	-1	0
11940923	7022	4	0	-100	0	230	101300000	1000	0	0	-1	0
11953483	7022	0	0	-100	0	230	101300000	1000	0	0	-1	0
11966043	7023	0	0	-100	0	230	101300000	1000	0	0	-1	0
11978603	7020	0	0	-100	0	230	101300000	1000	0	0	-1	0
11991163	7020	4	0	-100	0	230	101300000	1000	0	0	-1	0
12003723	7030	0	0	-100	0	230	101300000	1000	0	0	-1	0
12016283	7025	0	0	-100	0	230	101300000	1000	0	0	-1	0
12028843	7022	2	0	-100	0	230	101300000	1000	0	0	-1	0
12041403	7020	1	0	-100	0	230	101300000	1000	0	0	-1	0
12053963	7025	0	0	-100	0	230	101300000	1000	0	0	-1	0
12066523	7022	0	0	-100	0	230	101300000	1000	0	0	-1	0
12079083	7016	1	0	-100	0	230	101300000	1000	0	0	-1	0
12091643	7024	0	0	-100	0	230	101300000	1000	0	0	-1	0
12104203	7020	0	0	-100	0	230	101300000	1000	0	0	-1	0
12116763	7018	4	0	-100	0	230	101300000	1000	0	0	-1	0
12129323	7016	0	0	-100	0	230	101300000	1000	0	0	-1	0
12141883	7027	0	0	-100	0	230	101300000	1000	0	0	-1	0
12154443	7019	0	0	-100	0	230	101300000	1000	0	0	-1	0
12167004	7024	0	0	-100	0	230	101300000	1000	0	0	-1	0
12179563	7023	0	0	-100	0	230	101300000	1000	0	0	-1	0
12192123	7012	0	0	-100	0	230	101300000	1000	0	0	-1	0
12204683	7019	1	0	-100	0	230	101300000	1000	0	0	-1	0
12217243	7019	1	0	-100	0	230	101300000	1000	0	0	-1	0
12229803	7025	0	0	-100	0	230	101300000	1000	0	0	-1	0
12242363	7019	0	0	-100	0	230	101300000	1000	0	0	-1	0
12254923	7020	1	0	-100	0	230	101300000	1000	0	0	-1	0
12267483	7025	0	0	-100	0	230	101300000	1000	0	0	-1	0
12280043	7021	0	0	-100	0	230	101300000	1000	0	0	-1	0
12292603	7022	4	0	-100	0	230	101300000	1000	0	0	-1	0
12305163	7022	1	0	-100	0	230	101300000	1000	0	0	-1	0
12317723	7025	0	0	-100	0	230	101300000	1000	0	0	-1	0
12330283	7022	0	0	-100	0	230	101300000	1000	0	0	-1	0
12342843	7022	5	0	-100	0	230	101300000	1000	0	0	-1	0
12355403	7021	0	0	-100	0	230	101300000	1000	0	0	-1	0
12367963	7022	0	0	-100	0	230	101300000	1000	0	0	-1	0
12380523	7018	4	0	-100	0	230	101300000	1000	0	0	-1	0
12393083	7021	0	0	-100	0	230	101300000	1000	0	0	-1	0
12405643	7020	0	0	-100	0	230	101300000	1000	0	0	-1	0
12418203	7024	0	0	-100	0	230	101300000	1000	0	0	-1	0
12430763	7025	0	0	-100	0	230	101300000	1000	0	0	-1	0
12443323	7014	4	0	-100	0	230	101300000	1000	0	0	-1	0
12455883	7025	0	0	-100	0	230	101300000	1000	0	0	-1	0
12468443	7016	0	0	-100	0	230	101300000	1000	0	0	-1	0
12481004	7020	0	0	-100	0	230	101300000	1000	0	0	-1	0
12493563	7023	0	0	-100	0	230	101300000	1000	0	0	-1	0
12506123	7014	4	0	-100	0	230	101300000	1000	0	0	-1	0
12518683	7019	0	0	-100	0	230	101300000	1000	0	0	-1	0
12531243	7021	0	0	-100	0	230	101300000	1000	0	0	-1	0
12543803	7017	0	0	-100	0	230	101300000	1000	0	0	-1	0
12556363	7023	0	0	-100	0	230	101300000	1000	0	0	-1	0
12568923	7021	0	0	-100	0	230	101300000	1000	0	0	-1	0
12581483	7020	3	0	-100	0	230	101300000	1000	0	0	-1	0
12594043	7030	0	0	-100	0	230	101300000	1000	0	0	-1	0
12606603	7019	0	0	-100	0	230	101300000	1000	0	0	-1	0
12619163	7022	2	0	-100	0	230	101300000	1000	0	0	-1	0
12631723	7021	0	0	-100	0	230	101300000	1000	0	0	-1	0
12644283	7024	0	0	-100	0	230	101300000	1000	0	0	-1	0
12656843	7018	0	0	-100	0	230	101300000	1000	0	0	-1	0
12669403	7020	4	0	-100	0	230	101300000	1000	0	0	-1	0
12681963	7027	0	0	-100	0	230	101300000	1000	0	0	-1	0
12694523	7025	0	0	-100	0	230	101300000	1000	0	0	-1	0
12707083	7016	0	0	-100	0	230	101300000	1000	0	0	-1	0
12719643	7020	4	0	-100	0	230	101300000	1000	0	0	-1	0
12732203	7020	0	0	-100	0	230	101300000	1000	0	0	-1	0
12744763	7028	0	0	-100	0	230	101300000	1000	0	0	-1	0
12757323	7017	0	0	-100	0	230	101300000	1000	0	0	-1	0
12769883	7020	0	0	-100	0	230	101300000	1000	0	0	-1	0
12782443	7022	4	0	-100	0	230	101300000	1000	0	0	-1	0
12795004	7018	0	0	-100	0	230	101300000	1000	0	0	-1	0
12807563	7023	0	0	-100	0	230	101300000	1000	0	0	-1	0
12820123	7012	0	0	-100	0	230	101300000	1000	0	0	-1	0
12832683	7022	4	0	-100	0	230	101300000	1000	0	0	-1	0
12845243	7032	0	0	-100	0	230	101300000	1000	0	0	-1	0
12857803	7017	0	0	-100	0	230	101300000	1000	0	0	-1	0
12870363	7027	0	0	-100	0	230	101300000	1000	0	0	-1	0
12882923	7019	0	0	-100	0	230	101300000	1000	0	0	-1	0
12895483	7024	0	0	-100	0	230	101300000	1000	0	0	-1	0
12908043	7027	0	0	-100	0	230	101300000	1000	0	0	-1	0
12920603	7020	2	0	-100	0	230	101300000	1000	0	0	-1	0
12933163	7027	0	0	-100	0	230	101300000	1000	0	0	-1	0
12945723	7016	2	0	-100	0	230	101300000	1000	0	0	-1	0
12958283	7023	0	0	-100	0	230	101300000	1000	0	0	-1	0
12970843	7018	3	0	-100	0	230	101300000	1000	0	0	-1	0
12983403	7030	0	0	-100	0	230	101300000	1000	0	0	-1	0
12995963	7020	0	0	-100	0	230	101300000	1000	0	0	-1	0
13008523	7018	3	0	-100	0	230	101300000	1000	0	0	-1	0
13021083	7024	0	0	-100	0	230	101300000	1000	0	0	-1	0
13033643	7020	0	0	-100	0	230	101300000	1000	0	0	-1	0
13046203	7020	0	0	-100	0	230	101300000	1000	0	0	-1	0
13058763	7019	0	0	-100	0	230	101300000	1000	0	0	-1	0
13071323	7014	5	0	-100	0	230	101300000	1000	0	0	-1	0
13083883	7023	0	0	-100	0	230	101300000	1000	0	0	-1	0
13096443	7025	0	0	-100	0	230	101300000	1000	0	0	-1	0
13109004	7029	0	0	-100	0	230	101300000	1000	0	0	-1	0
13121563	7026	0	0	-100	0	230	101300000	1000	0	0	-1	0
13134123	7017	0	0	-100	0	230	101300000	1000	0	0	-1	0
13146683	7022	4	0	-100	0	230	101300000	1000	0	0	-1	0
13159243	7027	0	0	-100	0	230	101300000	1000	0	0	-1	0
13171803	7021	0	0	-100	0	230	101300000	1000	0	0	-1	0
13184363	7024	4	0	-100	0	230	101300000	1000	0	0	-1	0
13196923	7021	0	0	-100	0	230	101300000	1000	0	0	-1	0
13209483	7014	1	0	-100	0	230	101300000	1000	0	0	-1	0
13222043	7022	0	0	-100	0	230	101300000	1000	0	0	-1	0
13234603	7019	0	0	-100	0	230	101300000	1000	0	0	-1	0
13247163	7022	4	0	-100	0	230	101300000	1000	0	0	-1	0
13259723	7027	0	0	-100	0	230	101300000	1000	0	0	-1	0
13272283	7016	0	0	-100	0	230	101300000	1000	0	0	-1	0
13284843	7019	0	0	-100	0	230	101300000	1000	0	0	-1	0
13297403	7025	0	0	-100	0	230	101300000	1000	0	0	-1	0
13309963	7018	0	0	-100	0	230	101300000	1000	0	0	-1	0
13322523	7024	1	0	-100	0	230	101300000	1000	0	0	-1	0
13335083	7025	0	0	-100	0	230	101300000	1000	0	0	-1	0
13347643	7018	2	0	-100	0	230	101300000	1000	0	0	-1	0
13360203	7025	0	0	-100	0	230	101300000	1000	0	0	-1	0
13372763	7022	5	0	-100	0	230	101300000	1000	0	0	-1	0
13385323	7017	0	0	-100	0	230	101300000	1000	0	0	-1	0
13397883	7020	5	0	-100	0	230	101300000	1000	0	0	-1	0
13410443	7030	0	0	-100	0	230	101300000	1000	0	0	-1	0
13423004	7030	0	0	-100	0	230	101300000	1000	0	0	-1	0
13435563	7021	0	0	-100	0	230	101300000	1000	0	0	-1	0
13448123	7014	0	0	-100	0	230	101300000	1000	0	0	-1	0
13460683	7021	1	0	-100	0	230	101300000	1000	0	0	-1	0
13473243	7023	0	0	-100	0	230	101300000	1000	0	0	-1	0
13485803	7018	3	0	-100	0	230	101300000	1000	0	0	-1	0
13498363	7027	0	0	-100	0	230	101300000	1000	0	0	-1	0
13510923	7019	2	0	-100	0	230	101300000	1000	0	0	-1	0
13523483	7025	0	0	-100	0	230	101300000	1000	0	0	-1	0
13536043	7027	4	0	-100	0	230	101300000	1000	0	0	-1	0
13548603	7030	0	0	-100	0	230	101300000	1000	0	0	-1	0
13561163	7020	0	0	-100	0	230	101300000	1000	0	0	-1	0
13573723	7020	1	0	-100	0	230	101300000	1000	0	0	-1	0
13586283	7023	0	0	-100	0	230	101300000	1000	0	0	-1	0
13598843	7019	0	0	-100	0	230	101300000	1000	0	0	-1	0
13611403	7022	4	0	-100	0	230	101300000	1000	0	0	-1	0
13623963	7025	0	0	-100	0	230	101300000	1000	0	0	-1	0
13636523	7016	0	0	-100	0	230	101300000	1000	0	0	-1	0
13649083	7020	0	0	-100	0	230	101300000	1000	0	0	-1	0
13661643	7023	0	0	-100	0	230	101300000	1000	0	0	-1	0
13674203	7020	0	0	-100	0	230	101300000	1000	0	0	-1	0
13686763	7020	2	0	-100	0	230	101300000	1000	0	0	-1	0
13699323	7022	0	0	-100	0	230	101300000	1000	0	0	-1	0
13711883	7025	0	0	-100	0	230	101300000	1000	0	0	-1	0
13724443	7022	1	0	-100	0	230	101300000	1000	0	0	-1	0
13737004	7024	0	0	-100	0	230	101300000	1000	0	0	-1	0
13749563	7025	0	0	-100	0	230	101300000	1000	0	0	-1	0
13762123	7008	0	0	-100	0	230	101300000	1000	0	0	-1	0
13774683	7020	2	0	-100	0	230	101300000	1000	0	0	-1	0
13787243	7032	0	0	-100	0	230	101300000	1000	0	0	-1	0
13799803	7021	0	0	-100	0	230	101300000	1000	0	0	-1	0
13812363	7021	0	0	-100	0	230	101300000	1000	0	0	-1	0
13824923	7020	0	0	-100	0	230	101300000	1000	0	0	-1	0
13837483	7030	0	0	-100	0	230	101300000	1000	0	0	-1	0
13850043	7021	0	0	-100	0	230	101300000	1000	0	0	-1	0
13862603	7022	2	0	-100	0	230	101300000	1000	0	0	-1	0
13875163	7023	0	0	-100	0	230	101300000	1000	0	0	-1	0
13887723	7018	0	0	-100	0	230	101300000	1000	0	0	-1	0
13900283	7021	0	0	-100	0	230	101300000	1000	0	0	-1	0
13912843	7020	2	0	-100	0	230	101300000	1000	0	0	-1	0
13925403	7021	0	0	-100	0	230	101300000	1000	0	0	-1	0
14000763	7024	0	0	-100	0	230	101300000	1000	0	0	-1	0
14013323	7019	0	0	-100	0	230	101300000	1000	0	0	-1	0
14025883	7014	0	0	-100	0	230	101300000	1000	0	0	-1	0
14038443	7022	0	0	-100	0	230	101300000	1000	0	0	-1	0
14051004	7027	0	0	-100	0	230	101300000	1000	0	0	-1	0
14063563	7021	2	0	-100	0	230	101300000	1000	0	0	-1	0
14076123	7012	1	0	-100	0	230	101300000	1000	0	0	-1	0
14088683	7022	0	0	-100	0	230	101300000	1000	0	0	-1	0
14101243	7027	0	0	-100	0	230	101300000	1000	0	0	-1	0
14113803	7014	0	0	-100	0	230	101300000	1000	0	0	-1	0
14126363	7020	4	0	-100	0	230	101300000	1000	0	0	-1	0
14138923	7022	0	0	-100	0	230	101300000	1000	0	0	-1	0
14151483	7027	0	0	-100	0	230	101300000	1000	0	0	-1	0
14164043	7023	0	0	-100	0	230	101300000	1000	0	0	-1	0
14176603	7023	0	0	-100	0	230	101300000	1000	0	0	-1	0
14189163	7017	0	0	-100	0	230	101300000	1000	0	0	-1	0
14201723	7019	0	0	-100	0	230	101300000	1000	0	0	-1	0
14214283	7016	4	0	-100	0	230	101300000	1000	0	0	-1	0
14226843	7021	0	0	-100	0	230	101300000	1000	0	0	-1	0
14239403	7027	0	0	-100	0	230	101300000	1000	0	0	-1	0
14251963	7017	0	0	-100	0	230	101300000	1000	0	0	-1	0
14264523	7018	0	0	-100	0	230	101300000	1000	0	0	-1	0
14277083	7022	1	0	-100	0	230	101300000	1000	0	0	-1	0
14289643	7022	2	0	-100	0	230	101300000	1000	0	0	-1	0
14302203	7018	1	0	-100	0	230	101300000	1000	0	0	-1	0
14314763	7030	0	0	-100	0	230	101300000	1000	0	0	-1	0
14327323	7019	0	0	-100	0	230	101300000	1000	0	0	-1	0
14339883	7021	0	0	-100	0	230	101300000	1000	0	0	-1	0
14352443	7018	0	0	-100	0	230	101300000	1000	0	0	-1	0
14365004	7027	0	0	-100	0	230	101300000	1000	0	0	-1	0
14377563	7027	0	0	-100	0	230	101300000	1000	0	0	-1	0
14390123	7017	0	0	-100	0	230	101300000	1000	0	0	-1	0
14402683	7018	0	0	-100	0	230	101300000	1000	0	0	-1	0
14415243	7021	2	0	-100	0	230	101300000	1000	0	0	-1	0
14427803	7018	3	0	-100	0	230	101300000	1000	0	0	-1	0
14440363	7029	0	0	-100	0	230	101300000	1000	0	0	-1	0
14452923	7025	0	0	-100	0	230	101300000	1000	0	0	-1	0
14465483	7016	0	0	-100	0	230	101300000	1000	0	0	-1	0
14478043	7020	3	0	-100	0	230	101300000	1000	0	0	-1	0
14490603	7022	0	0	-100	0	230	101300000	1000	0	0	-1	0
14503163	7028	0	0	-100	0	230	101300000	1000	0	0	-1	0
14515723	7025	0	0	-100	0	230	101300000	1000	0	0	-1	0
14528283	7025	0	0	-100	0	230	101300000	1000	0	0	-1	0
14540843	7014	0	0	-100	0	230	101300000	1000	0	0	-1	0
14553403	7020	0	0	-100	0	230	101300000	1000	0	0	-1	0
14565963	7018	0	0	-100	0	230	101300000	1000	0	0	-1	0
14578523	7018	0	0	-100	0	230	101300000	1000	0	0	-1	0
14591083	7021	0	0	-100	0	230	101300000	1000	0	0	-1	0
14603643	7021	0	0	-100	0	230	101300000	1000	0	0	-1	0
14616203	7023	0	0	-100	0	230	101300000	1000	0	0	-1	0
14628763	7021	0	0	-100	0	230	101300000	1000	0	0	-1	0
14641323	7014	0	0	-100	0	230	101300000	1000	0	0	-1	0
14653883	7019	0	0	-100	0	230	101300000	1000	0	0	-1	0
14666443	7017	0	0	-100	0	230	101300000	1000	0	0	-1	0
14679004	7027	0	0	-100	0	230	101300000	1000	0	0	-1	0
14691563	7022	1	0	-100	0	230	101300000	1000	0	0	-1	0
14704123	7014	1	0	-100	0	230	101300000	1000	0	0	-1	0
14716683	7025	0	0	-100	0	230	101300000	1000	0	0	-1	0
14729243	7023	0	0	-100	0	230	101300000	1000	0	0	-1	0
14741803	7025	0	0	-100	0	230	101300000	1000	0	0	-1	0
14754363	7016	0	0	-100	0	230	101300000	1000	0	0	-1	0
14766923	7021	4	0	-100	0	230	101300000	1000	0	0	-1	0
14779483	7016	3	0	-100	0	230	101300000	1000	0	0	-1	0
14792043	7024	0	0	-100	0	230	101300000	1000	0	0	-1	0
14804603	7019	0	0	-100	0	230	101300000	1000	0	0	-1	0
14817163	7021	4	0	-100	0	230	101300000	1000	0	0	-1	0
14829723	7019	2	0	-100	0	230	101300000	1000	0	0	-1	0
14842283	7023	0	0	-100	0	230	101300000	1000	0	0	-1	0
14854843	7027	0	0	-100	0	230	101300000	1000	0	0	-1	0
14867403	7025	0	0	-100	0	230	101300000	1000	0	0	-1	0
14879963	7020	0	0	-100	0	230	101300000	1000	0	0	-1	0
14892523	7018	0	0	-100	0	230	101300000	1000	0	0	-1	0
14905083	7018	4	0	-100	0	230	101300000	1000	0	0	-1	0
14917643	7018	1	0	-100	0	230	101300000	1000	0	0	-1	0
14930203	7027	0	0	-100	0	230	101300000	1000	0	0	-1	0
14942763	7026	0	0	-100	0	230	101300000	1000	0	0	-1	0
14955323	7019	0	0	-100	0	230	101300000	1000	0	0	-1	0
14967883	7021	0	0	-100	0	230	101300000	1000	0	0	-1	0
14980443	7022	4	0	-100	0	230	101300000	1000	0	0	-1	0
14993004	7018	0	0	-100	0	230	101300000	1000	0	0	-1	0
15005563	7023	0	0	-100	0	230	101300000	1000	0	0	-1	0
15018123	7017	0	0	-100	0	230	101300000	1000	0	0	-1	0
15030683	7018	2	0	-100	0	230	101300000	1000	0	0	-1	0
15043243	7022	0	0	-100	0	230	101300000	1000	0	0	-1	0
15055803	7021	0	0	-100	0	230	101300000	1000	0	0	-1	0
15068363	7019	0	0	-100	0	230	101300000	1000	0	0	-1	0
15080923	7018	4	0	-100	0	230	101300000	1000	0	0	-1	0
15093483	7016	2	0	-100	0	230	101300000	1000	0	0	-1	0
15106043	7018	1	0	-100	0	230	101300000	1000	0	0	-1	0
15118603	7023	0	0	-100	0	230	101300000	1000	0	0	-1	0
15131163	7023	0	0	-100	0	230	101300000	1000	0	0	-1	0
15143723	7022	0	0	-100	0	230	101300000	1000	0	0	-1	0
15156283	7027	0	0	-100	0	230	101300000	1000	0	0	-1	0
15168843	7030	0	0	-100	0	230	101300000	1000	0	0	-1	0
15181403	7023	0	0	-100	0	230	101300000	1000	0	0	-1	0
15193963	7019	0	0	-100	0	230	101300000	1000	0	0	-1	0
15206523	7022	3	0	-100	0	230	101300000	1000	0	0	-1	0
15219083	7016	0	0	-100	0	230	101300000	1000	0	0	-1	0
15231643	7025	0	0	-100	0	230	101300000	1000	0	0	-1	0
15244203	7028	0	0	-100	0	230	101300000	1000	0	0	-1	0
15256763	7025	0	0	-100	0	230	101300000	1000	0	0	-1	0
15269323	7017	0	0	-100	0	230	101300000	1000	0	0	-1	0
15281883	7021	0	0	-100	0	230	101300000	1000	0	0	-1	0
15294443	7018	0	0	-100	0	230	101300000	1000	0	0	-1	0
15307004	7023	0	0	-100	0	230	101300000	1000	0	0	-1	0
15319563	7022	2	0	-100	0	230	101300000	1000	0	0	-1	0
15332123	7012	4	0	-100	0	230	101300000	1000	0	0	-1	0
15344683	7019	3	0	-100	0	230	101300000	1000	0	0	-1	0
15357243	7016	4	0	-100	0	230	101300000	1000	0	0	-1	0
15369803	7022	2	0	-100	0	230	101300000	1000	0	0	-1	0
15382363	7020	3	0	-100	0	230	101300000	1000	0	0	-1	0
15394923	7020	0	0	-100	0	230	101300000	1000	0	0	-1	0
15407483	7022	0	0	-100	0	230	101300000	1000	0	0	-1	0
15420043	7023	0	0	-100	0	230	101300000	1000	0	0	-1	0
15432603	7028	0	0	-100	0	230	101300000	1000	0	0	-1	0
15445163	7028	0	0	-100	0	230	101300000	1000	0	0	-1	0
15457723	7023	0	0	-100	0	230	101300000	1000	0	0	-1	0
15470283	7025	0	0	-100	0	230	101300000	1000	0	0	-1	0
15482843	7016	0	0	-100	0	230	101300000	1000	0	0	-1	0
15495403	7018	2	0	-100	0	230	101300000	1000	0	0	-1	0
15507963	7023	0	0	-100	0	230	101300000	1000	0	0	-1	0
15520523	7024	0	0	-100	0	230	101300000	1000	0	0	-1	0
15533083	7027	0	0	-100	0	230	101300000	1000	0	0	-1	0
15545643	7021	0	0	-100	0	230	101300000	1000	0	0	-1	0
15558203	7018	0	0	-100	0	230	101300000	1000	0	0	-1	0
15570763	7021	0	0	-100	0	230	101300000	1000	0	0	-1	0
15583323	7016	4	0	-100	0	230	101300000	1000	0	0	-1	0
15595883	7021	0	0	-100	0	230	101300000	1000	0	0	-1	0
15608443	7025	0	0	-100	0	230	101300000	1000	0	0	-1	0
15621004	7021	0	0	-100	0	230	101300000	1000	0	0	-1	0
15633563	7018	0	0	-100	0	230	101300000	1000	0	0	-1	0
15646123	7014	0	0	-100	0	230	101300000	1000	0	0	-1	0
15658683	7021	4	0	-100	0	230	101300000	1000	0	0	-1	0
15671243	7016	2	0	-100	0	230	101300000	1000	0	0	-1	0
15683803	7027	0	0	-100	0	230	101300000	1000	0	0	-1	0
15696363	7026	0	0	-100	0	230	101300000	1000	0	0	-1	0
15708923	7025	0	0	-100	0	230	101300000	1000	0	0	-1	0
15721483	7021	0	0	-100	0	230	101300000	1000	0	0	-1	0
15734043	7015	0	0	-100	0	230	101300000	1000	0	0	-1	0
15746603	7018	3	0	-100	0	230	101300000	1000	0	0	-1	0
15759163	7018	0	0	-100	0	230	101300000	1000	0	0	-1	0
15771723	7026	0	0	-100	0	230	101300000	1000	0	0	-1	0
15784283	7023	0	0	-100	0	230	101300000	1000	0	0	-1	0
15796843	7022	0	0	-100	0	230	101300000	1000	0	0	-1	0
15809403	7017	0	0	-100	0	230	101300000	1000	0	0	-1	0
15821963	7020	0	0	-100	0	230	101300000	1000	0	0	-1	0
15834523	7020	3	0	-100	0	230	101300000	1000	0	0	-1	0
15847083	7022	0	0	-100	0	230	101300000	1000	0	0	-1	0
15859643	7025	0	0	-100	0	230	101300000	1000	0	0	-1	0
15872203	7023	0	0	-100	0	230	101300000	1000	0	0	-1	0
15884763	7025	0	0	-100	0	230	101300000	1000	0	0	-1	0
15897323	7012	0	0	-100	0	230	101300000	1000	0	0	-1	0
15909883	7016	0	0	-100	0	230	101300000	1000	0	0	-1	0
15922443	7018	0	0	-100	0	230	101300000	1000	0	0	-1	0
15935004	7025	0	0	-100	0	230	101300000	1000	0	0	-1	0
15947563	7017	0	0	-100	0	230	101300000	1000	0	0	-1	0
15960123	7016	5	0	-100	0	230	101300000	1000	0	0	-1	0
15972683	7021	4	0	-100	0	230	101300000	1000	0	0	-1	0
15985243	7018	4	0	-100	0	230	101300000	1000	0	0	-1	0
15997803	7020	0	0	-100	0	230	101300000	1000	0	0	-1	0
16010363	7018	0	0	-100	0	230	101300000	1000	0	0	-1	0
16022923	7029	0	0	-100	0	230	101300000	1000	0	0	-1	0
16035483	7028	0	0	-100	0	230	101300000	1000	0	0	-1	0
16048043	7028	0	0	-100	0	230	101300000	1000	0	0	-1	0
16060603	7029	0	0	-100	0	230	101300000	1000	0	0	-1	0
16073163	7022	0	0	-100	0	230	101300000	1000	0	0	-1	0
16085723	7019	0	0	-100	0	230	101300000	1000	0	0	-1	0
16098283	7020	1	0	-100	0	230	101300000	1000	0	0	-1	0
16110843	7032	0	0	-100	0	230	101300000	1000	0	0	-1	0
16123403	7021	0	0	-100	0	230	101300000	1000	0	0	-1	0
16135963	7018	4	0	-100	0	230	101300000	1000	0	0	-1	0
16148523	7029	0	0	-100	0	230	101300000	1000	0	0	-1	0
16161083	7023	0	0	-100	0	230	101300000	1000	0	0	-1	0
16173643	7016	0	0	-100	0	230	101300000	1000	0	0	-1	0
16186203	7023	3	0	-100	0	230	101300000	1000	0	0	-1	0
16198763	7020	3	0	-100	0	230	101300000	1000	0	0	-1	0
16211323	7014	4	0	-100	0	230	101300000	1000	0	0	-1	0
16223883	7019	0	0	-100	0	230	101300000	1000	0	0	-1	0
16236443	7032	0	0	-100	0	230	101300000	1000	0	0	-1	0
16249004	7016	4	0	-100	0	230	101300000	1000	0	0	-1	0
16261563	7023	0	0	-100	0	230	101300000	1000	0	0	-1	0
16274123	7014	0	0	-100	0	230	101300000	1000	0	0	-1	0
16286683	7022	4	0	-100	0	230	101300000	1000	0	0	-1	0
16299243	7016	3	0	-100	0	230	101300000	1000	0	0	-1	0
16311803	7028	0	0	-100	0	230	101300000	1000	0	0	-1	0
16324363	7025	0	0	-100	0	230	101300000	1000	0	0	-1	0
16336923	7018	0	0	-100	0	230	101300000	1000	0	0	-1	0
16349483	7022	3	0	-100	0	230	101300000	1000	0	0	-1	0
16362043	7021	0	0	-100	0	230	101300000	1000	0	0	-1	0
16374603	7023	0	0	-100	0	230	101300000	1000	0	0	-1	0
16387163	7023	0	0	-100	0	230	101300000	1000	0	0	-1	0
16399723	7021	0	0	-100	0	230	101300000	1000	0	0	-1	0
16412283	7016	4	0	-100	0	230	101300000	1000	0	0	-1	0
16424843	7021	2	0	-100	0	230	101300000	1000	0	0	-1	0
16437403	7027	0	0	-100	0	230	101300000	1000	0	0	-1	0
16449963	7025	0	0	-100	0	230	101300000	1000	0	0	-1	0
16462523	7017	0	0	-100	0	230	101300000	1000	0	0	-1	0
16475083	7018	2	0	-100	0	230	101300000	1000	0	0	-1	0
16487643	7018	1	0	-100	0	230	101300000	1000	0	0	-1	0
16500203	7023	0	0	-100	0	230	101300000	1000	0	0	-1	0
16512763	7016	0	0	-100	0	230	101300000	1000	0	0	-1	0
16525323	7012	2	0	-100	0	230	101300000	1000	0	0	-1	0
16537883	7023	0	0	-100	0	230	101300000	1000	0	0	-1	0
16550443	7019	0	0	-100	0	230	101300000	1000	0	0	-1	0
16563004	7025	1	0	-100	0	230	101300000	1000	0	0	-1	0
16575563	7021	0	0	-100	0	230	101300000	1000	0	0	-1	0
16588123	7016	3	0	-100	0	230	101300000	1000	0	0	-1	0
16600683	7027	0	0	-100	0	230	101300000	1000	0	0	-1	0
16613243	7023	0	0	-100	0	230	101300000	1000	0	0	-1	0
16625803	7018	0	0	-100	0	230	101300000	1000	0	0	-1	0
16638363	7018	7	0	-100	0	230	101300000	1000	0	0	-1	0
16650923	7016	2	0	-100	0	230	101300000	1000	0	0	-1	0
16663483	7021	0	0	-100	0	230	101300000	1000	0	0	-1	0
16676043	7027	0	0	-100	0	230	101300000	1000	0	0	-1	0
16688603	7025	0	0	-100	0	230	101300000	1000	0	0	-1	0
16701163	7018	0	0	-100	0	230	101300000	1000	0	0	-1	0
16713723	7022	4	0	-100	0	230	101300000	1000	0	0	-1	0
16726283	7018	4	0	-100	0	230	101300000	1000	0	0	-1	0
16738843	7018	0	0	-100	0	230	101300000	1000	0	0	-1	0
16751403	7027	0	0	-100	0	230	101300000	1000	0	0	-1	0
16763963	7026	0	0	-100	0	230	101300000	1000	0	0	-1	0
16776523	7021	0	0	-100	0	230	101300000	1000	0	0	-1	0
16789083	7022	0	0	-100	0	230	101300000	1000	0	0	-1	0
16801643	7022	4	0	-100	0	230	101300000	1000	0	0	-1	0
16814203	7019	3	0	-100	0	230	101300000	1000	0	0	-1	0
16826763	7022	1	0	-100	0	230	101300000	1000	0	0	-1	0
16889563	7019	4	0	-100	0	230	101300000	1000	0	0	-1	0
16902123	7016	0	0	-100	0	230	101300000	1000	0	0	-1	0
16914683	7025	0	0	-100	0	230	101300000	1000	0	0	-1	0
16927243	7017	0	0	-100	0	230	101300000	1000	0	0	-1	0
16939803	7023	0	0	-100	0	230	101300000	1000	0	0	-1	0
16952363	7022	3	0	-100	0	230	101300000	1000	0	0	-1	0
16964923	7022	0	0	-100	0	230	101300000	1000	0	0	-1	0
16977483	7029	0	0	-100	0	230	101300000	1000	0	0	-1	0
16990043	7024	0	0	-100	0	230	101300000	1000	0	0	-1	0
17002603	7023	0	0	-100	0	230	101300000	1000	0	0	-1	0
17015163	7027	0	0	-100	0	230	101300000	1000	0	0	-1	0
17027723	7025	0	0	-100	0	230	101300000	1000	0	0	-1	0
17077963	7022	0	0	-100	0	230	101300000	1000	0	0	-1	0
17090523	7019	0	0	-100	0	230	101300000	1000	0	0	-1	0
17103083	7023	0	0	-100	0	230	101300000	1000	0	0	-1	0
17115643	7025	0	0	-100	0	230	101300000	1000	0	0	-1	0
17128203	7027	0	0	-100	0	230	101300000	1000	0	0	-1	0
17140763	7032	0	0	-100	0	230	101300000	1000	0	0	-1	0
17153323	7014	1	0	-100	0	230	101300000	1000	0	0	-1	0
17165883	7022	0	0	-100	0	230	101300000	1000	0	0	-1	0
17178443	7022	0	0	-100	0	230	101300000	1000	0	0	-1	0
17191004	7022	0	0	-100	0	230	101300000	1000	0	0	-1	0
17203563	7020	1	0	-100	0	230	101300000	1000	0	0	-1	0
17216123	7012	2	0	-100	0	230	101300000	1000	0	0	-1	0
17228683	7020	2	0	-100	0	230	101300000	1000	0	0	-1	0
17241243	7019	3	0	-100	0	230	101300000	1000	0	0	-1	0
17253803	7018	3	0	-100	0	230	101300000	1000	0	0	-1	0
17266363	7024	4	0	-100	0	230	101300000	1000	0	0	-1	0
17278923	7020	4	0	-100	0	230	101300000	1000	0	0	-1	0
17291483	7022	4	0	-100	0	230	101300000	1000	0	0	-1	0
17304043	7020	4	0	-100	0	230	101300000	1000	0	0	-1	0
17316603	7018	3	0	-100	0	230	101300000	1000	0	0	-1	0
17329163	7016	4	0	-100	0	230	101300000	1000	0	0	-1	0
17341723	7020	2	0	-100	0	230	101300000	1000	0	0	-1	0
17354283	7016	2	0	-100	0	230	101300000	1000	0	0	-1	0
17366843	7019	0	0	-100	0	230	101300000	1000	0	0	-1	0
17379403	7020	0	0	-100	0	230	101300000	1000	0	0	-1	0
17391963	7025	0	0	-100	0	230	101300000	1000	0	0	-1	0
17404523	7026	0	0	-100	0	230	101300000	1000	0	0	-1	0
17417083	7025	0	0	-100	0	230	101300000	1000	0	0	-1	0
17429643	7027	0	0	-100	0	230	101300000	1000	0	0	-1	0
17442203	7025	0	0	-100	0	230	101300000	1000	0	0	-1	0
17454763	7018	0	0	-100	0	230	101300000	1000	0	0	-1	0
17467323	7010	0	0	-100	0	230	101300000	1000	0	0	-1	0
17479883	7017	0	0	-100	0	230	101300000	1000	0	0	-1	0
17492443	7020	5	0	-100	0	230	101300000	1000	0	0	-1	0
17505004	7024	0	0	-100	0	230	101300000	1000	0	0	-1	0
17517563	7021	0	0	-100	0	230	101300000	1000	0	0	-1	0
17530123	7013	0	0	-100	0	230	101300000	1000	0	0	-1	0
17542683	7023	0	0	-100	0	230	101300000	1000	0	0	-1	0
17555243	7021	0	0	-100	0	230	101300000	1000	0	0	-1	0
17567803	7018	0	0	-100	0	230	101300000	1000	0	0	-1	0
17580363	7020	0	0	-100	0	230	101300000	1000	0	0	-1	0
17592923	7022	1	0	-100	0	230	101300000	1000	0	0	-1	0
17605483	7016	3	0	-100	0	230	101300000	1000	0	0	-1	0
17618043	7022	0	0	-100	0	230	101300000	1000	0	0	-1	0
17630603	7023	0	0	-100	0	230	101300000	1000	0	0	-1	0
17643163	7027	0	0	-100	0	230	101300000	1000	0	0	-1	0
17655723	7027	0	0	-100	0	230	101300000	1000	0	0	-1	0
17668283	7027	0	0	-100	0	230	101300000	1000	0	0	-1	0
17680843	7023	0	0	-100	0	230	101300000	1000	0	0	-1	0
17693403	7027	0	0	-100	0	230	101300000	1000	0	0	-1	0
17705963	7030	0	0	-100	0	230	101300000	1000	0	0	-1	0
17718523	7023	0	0	-100	0	230	101300000	1000	0	0	-1	0
17731083	7030	0	0	-100	0	230	101300000	1000	0	0	-1	0
17743643	7028	0	0	-100	0	230	101300000	1000	0	0	-1	0
17756203	7027	0	0	-100	0	230	101300000	1000	0	0	-1	0
17768763	7025	0	0	-100	0	230	101300000	1000	0	0	-1	0
17781323	7017	0	0	-100	0	230	101300000	1000	0	0	-1	0
17793883	7019	0	0	-100	0	230	101300000	1000	0	0	-1	0
17806443	7019	0	0	-100	0	230	101300000	1000	0	0	-1	0
17819004	7027	0	0	-100	0	230	101300000	1000	0	0	-1	0
17831563	7021	4	0	-100	0	230	101300000	1000	0	0	-1	0
17844123	7012	4	0	-100	0	230	101300000	1000	0	0	-1	0
17856683	7018	0	0	-100	0	230	101300000	1000	0	0	-1	0
17869243	7023	0	0	-100	0	230	101300000	1000	0	0	-1	0
17881803	7021	0	0	-100	0	230	101300000	1000	0	0	-1	0
17894363	7017	0	0	-100	0	230	101300000	1000	0	0	-1	0
17906923	7019	0	0	-100	0	230	101300000	1000	0	0	-1	0
17919483	7023	0	0	-100	0	230	101300000	1000	0	0	-1	0
17932043	7019	0	0	-100	0	230	101300000	1000	0	0	-1	0
17944603	7020	3	0	-100	0	230	101300000	1000	0	0	-1	0
17957163	7027	0	0	-100	0	230	101300000	1000	0	0	-1	0
17969723	7023	0	0	-100	0	230	101300000	1000	0	0	-1	0
17982283	7018	0	0	-100	0	230	101300000	1000	0	0	-1	0
17994843	7024	4	0	-100	0	230	101300000	1000	0	0	-1	0
18007403	7029	0	0	-100	0	230	101300000	1000	0	0	-1	0
18019963	7026	0	0	-100	0	230	101300000	1000	0	0	-1	0
18032523	7022	0	0	-100	0	230	101300000	1000	0	0	-1	0
18045083	7021	4	0	-100	0	230	101300000	1000	0	0	-1	0
18057643	7024	0	0	-100	0	230	101300000	1000	0	0	-1	0
18070203	7027	0	0	-100	0	230	101300000	1000	0	0	-1	0
18082763	7016	0	0	-100	0	230	101300000	1000	0	0	-1	0
18095323	7014	1	0	-100	0	230	101300000	1000	0	0	-1	0
18107883	7022	0	0	-100	0	230	101300000	1000	0	0	-1	0
18120443	7019	2	0	-100	0	230	101300000	1000	0	0	-1	0
18133004	7020	0	0	-100	0	230	101300000	1000	0	0	-1	0
18145563	7029	0	0	-100	0	230	101300000	1000	0	0	-1	0
18158123	7011	0	0	-100	0	230	101300000	1000	0	0	-1	0
18170683	7019	2	0	-100	0	230	101300000	1000	0	0	-1	0
18183243	7025	0	0	-100	0	230	101300000	1000	0	0	-1	0
18195803	7018	0	0	-100	0	230	101300000	1000	0	0	-1	0
18208363	7020	4	0	-100	0	230	101300000	1000	0	0	-1	0
18220923	7028	0	0	-100	0	230	101300000	1000	0	0	-1	0
18233483	7022	0	0	-100	0	230	101300000	1000	0	0	-1	0
18246043	7016	0	0	-100	0	230	101300000	1000	0	0	-1	0
18258603	7022	3	0	-100	0	230	101300000	1000	0	0	-1	0
18271163	7016	2	0	-100	0	230	101300000	1000	0	0	-1	0
18283723	7030	0	0	-100	0	230	101300000	1000	0	0	-1	0
18296283	7023	0	0	-100	0	230	101300000	1000	0	0	-1	0
18308843	7022	0	0	-100	0	230	101300000	1000	0	0	-1	0
18321403	7021	0	0	-100	0	230	101300000	1000	0	0	-1	0
18333963	7020	4	0	-100	0	230	101300000	1000	0	0	-1	0
18346523	7021	0	0	-100	0	230	101300000	1000	0	0	-1	0
18359083	7025	0	0	-100	0	230	101300000	1000	0	0	-1	0
18371643	7023	0	0	-100	0	230	101300000	1000	0	0	-1	0
18384203	7022	0	0	-100	0	230	101300000	1000	0	0	-1	0
18396763	7014	0	0	-100	0	230	101300000	1000	0	0	-1	0
18409323	7012	4	0	-100	0	230	101300000	1000	0	0	-1	0
18421883	7024	0	0	-100	0	230	101300000	1000	0	0	-1	0
18434443	7023	0	0	-100	0	230	101300000	1000	0	0	-1	0
18447004	7021	1	0	-100	0	230	101300000	1000	0	0	-1	0
18459563	7022	0	0	-100	0	230	101300000	1000	0	0	-1	0
18472123	7016	4	0	-100	0	230	101300000	1000	0	0	-1	0
18484683	7022	0	0	-100	0	230	101300000	1000	0	0	-1	0
18497243	7023	0	0	-100	0	230	101300000	1000	0	0	-1	0
18509803	7019	0	0	-100	0	230	101300000	1000	0	0	-1	0
18522363	7019	0	0	-100	0	230	101300000	1000	0	0	-1	0
18534923	7022	2	0	-100	0	230	101300000	1000	0	0	-1	0
18547483	7032	0	0	-100	0	230	101300000	1000	0	0	-1	0
18560043	7022	0	0	-100	0	230	101300000	1000	0	0	-1	0
18572603	7021	0	0	-100	0	230	101300000	1000	0	0	-1	0
18585163	7019	0	0	-100	0	230	101300000	1000	0	0	-1	0
18597723	7019	0	0	-100	0	230	101300000	1000	0	0	-1	0
18610283	7022	3	0	-100	0	230	101300000	1000	0	0	-1	0
18622843	7025	0	0	-100	0	230	101300000	1000	0	0	-1	0
18635403	7020	0	0	-100	0	230	101300000	1000	0	0	-1	0
18647963	7018	1	0	-100	0	230	101300000	1000	0	0	-1	0
18660523	7023	0	0	-100	0	230	101300000	1000	0	0	-1	0
18673083	7021	0	0	-100	0	230	101300000	1000	0	0	-1	0
18685643	7022	0	0	-100	0	230	101300000	1000	0	0	-1	0
18698203	7023	0	0	-100	0	230	101300000	1000	0	0	-1	0
18710763	7019	0	0	-100	0	230	101300000	1000	0	0	-1	0
18723323	7014	0	0	-100	0	230	101300000	1000	0	0	-1	0
18735883	7021	0	0	-100	0	230	101300000	1000	0	0	-1	0
18748443	7018	4	0	-100	0	230	101300000	1000	0	0	-1	0
18761004	7022	0	0	-100	0	230	101300000	1000	0	0	-1	0
18773563	7023	0	0	-100	0	230	101300000	1000	0	0	-1	0
18786123	7014	0	0	-100	0	230	101300000	1000	0	0	-1	0
18798683	7016	4	0	-100	0	230	101300000	1000	0	0	-1	0
18811243	7025	0	0	-100	0	230	101300000	1000	0	0	-1	0
18823803	7023	0	0	-100	0	230	101300000	1000	0	0	-1	0
18836363	7019	4	0	-100	0	230	101300000	1000	0	0	-1	0
18848923	7019	0	0	-100	0	230	101300000	1000	0	0	-1	0
18861483	7021	0	0	-100	0	230	101300000	1000	0	0	-1	0
18874043	7020	4	0	-100	0	230	101300000	1000	0	0	-1	0
18886603	7032	0	0	-100	0	230	101300000	1000	0	0	-1	0
18899163	7023	0	0	-100	0	230	101300000	1000	0	0	-1	0
18911723	7022	2	0	-100	0	230	101300000	1000	0	0	-1	0
18924283	7024	0	0	-100	0	230	101300000	1000	0	0	-1	0
18936843	7020	0	0	-100	0	230	101300000	1000	0	0	-1	0
18949403	7018	4	0	-100	0	230	101300000	1000	0	0	-1	0
18961963	7022	0	0	-100	0	230	101300000	1000	0	0	-1	0
18974523	7027	0	0	-100	0	230	101300000	1000	0	0	-1	0
18987083	7019	0	0	-100	0	230	101300000	1000	0	0	-1	0
18999643	7016	4	0	-100	0	230	101300000	1000	0	0	-1	0
19012203	7022	0	0	-100	0	230	101300000	1000	0	0	-1	0
19024763	7025	0	0	-100	0	230	101300000	1000	0	0	-1	0
19037323	7012	0	0	-100	0	230	101300000	1000	0	0	-1	0
19049883	7018	2	0	-100	0	230	101300000	1000	0	0	-1	0
19062443	7023	0	0	-100	0	230	101300000	1000	0	0	-1	0
19075004	7021	0	0	-100	0	230	101300000	1000	0	0	-1	0
19087563	7017	0	0	-100	0	230	101300000	1000	0	0	-1	0
19100123	7011	3	0	-100	0	230	101300000	1000	0	0	-1	0
19112683	7025	0	0	-100	0	230	101300000	1000	0	0	-1	0
19125243	7021	0	0	-100	0	230	101300000	1000	0	0	-1	0
19137803	7012	0	0	-100	0	230	101300000	1000	0	0	-1	0
19150363	7018	1	0	-100	0	230	101300000	1000	0	0	-1	0
19162923	7025	0	0	-100	0	230	101300000	1000	0	0	-1	0
19175483	7022	4	0	-100	0	230	101300000	1000	0	0	-1	0
19188043	7023	0	0	-100	0	230	101300000	1000	0	0	-1	0
19200603	7021	0	0	-100	0	230	101300000	1000	0	0	-1	0
19213163	7020	0	0	-100	0	230	101300000	1000	0	0	-1	0
19225723	7023	0	0	-100	0	230	101300000	1000	0	0	-1	0
19238283	7021	5	0	-100	0	230	101300000	1000	0	0	-1	0
19250843	7023	0	0	-100	0	230	101300000	1000	0	0	-1	0
19263403	7027	0	0	-100	0	230	101300000	1000	0	0	-1	0
19275963	7018	0	0	-100	0	230	101300000	1000	0	0	-1	0
19288523	7018	4	0	-100	0	230	101300000	1000	0	0	-1	0
19301083	7022	0	0	-100	0	230	101300000	1000	0	0	-1	0
19313643	7028	0	0	-100	0	230	101300000	1000	0	0	-1	0
19326203	7020	0	0	-100	0	230	101300000	1000	0	0	-1	0
19338763	7016	4	0	-100	0	230	101300000	1000	0	0	-1	0
19351323	7015	0	0	-100	0	230	101300000	1000	0	0	-1	0
19363883	7021	0	0	-100	0	230	101300000	1000	0	0	-1	0
19376443	7016	0	0	-100	0	230	101300000	1000	0	0	-1	0
19389004	7020	0	0	-100	0	230	101300000	1000	0	0	-1	0
19401563	7027	0	0	-100	0	230	101300000	1000	0	0	-1	0
19414123	7014	0	0	-100	0	230	101300000	1000	0	0	-1	0
19426683	7019	3	0	-100	0	230	101300000	1000	0	0	-1	0
19439243	7027	0	0	-100	0	230	101300000	1000	0	0	-1	0
19451803	7021	0	0	-100	0	230	101300000	1000	0	0	-1	0
19464363	7019	0	0	-100	0	230	101300000	1000	0	0	-1	0
19476923	7024	0	0	-100	0	230	101300000	1000	0	0	-1	0
19489483	7021	0	0	-100	0	230	101300000	1000	0	0	-1	0
19502043	7022	2	0	-100	0	230	101300000	1000	0	0	-1	0
19514603	7022	0	0	-100	0	230	101300000	1000	0	0	-1	0
19527163	7027	0	0	-100	0	230	101300000	1000	0	0	-1	0
19539723	7018	0	0	-100	0	230	101300000	1000	0	0	-1	0
19552283	7022	3	0	-100	0	230	101300000	1000	0	0	-1	0
19564843	7028	0	0	-100	0	230	101300000	1000	0	0	-1	0
19577403	7021	0	0	-100	0	230	101300000	1000	0	0	-1	0
19589963	7017	0	0	-100	0	230	101300000	1000	0	0	-1	0
19602523	7018	3	0	-100	0	230	101300000	1000	0	0	-1	0
19615083	7022	0	0	-100	0	230	101300000	1000	0	0	-1	0
19627643	7025	0	0	-100	0	230	101300000	1000	0	0	-1	0
19640203	7024	3	0	-100	0	230	101300000	1000	0	0	-1	0
19652763	7022	0	0	-100	0	230	101300000	1000	0	0	-1	0
19665323	7015	0	0	-100	0	230	101300000	1000	0	0	-1	0
19677883	7020	0	0	-100	0	230	101300000	1000	0	0	-1	0
19690443	7022	2	0	-100	0	230	101300000	1000	0	0	-1	0
19703004	7022	0	0	-100	0	230	101300000	1000	0	0	-1	0
19715563	7026	0	0	-100	0	230	101300000	1000	0	0	-1	0
19728123	7014	0	0	-100	0	230	101300000	1000	0	0	-1	0
19740683	7019	0	0	-100	0	230	101300000	1000	0	0	-1	0
19753243	7020	2	0	-100	0	230	101300000	1000	0	0	-1	0
19778363	7020	0	0	-100	0	230	101300000	1000	0	0	-1	0
19790923	7020	4	0	-100	0	230	101300000	1000	0	0	-1	0
19803483	7021	0	0	-100	0	230	101300000	1000	0	0	-1	0
19816043	7026	0	0	-100	0	230	101300000	1000	0	0	-1	0
19828603	7016	0	0	-100	0	230	101300000	1000	0	0	-1	0
19841163	7020	3	0	-100	0	230	101300000	1000	0	0	-1	0
19853723	7022	0	0	-100	0	230	101300000	1000	0	0	-1	0
19866283	7014	0	0	-100	0	230	101300000	1000	0	0	-1	0
19878843	7018	2	0	-100	0	230	101300000	1000	0	0	-1	0
19891403	7030	0	0	-100	0	230	101300000	1000	0	0	-1	0
19903963	7021	0	0	-100	0	230	101300000	1000	0	0	-1	0
19916523	7020	3	0	-100	0	230	101300000	1000	0	0	-1	0
19991883	7021	0	0	-100	0	230	101300000	1000	0	0	-1	0
20004443	7022	4	0	-100	0	230	101300000	1000	0	0	-1	0
20017004	7021	0	0	-100	0	230	101300000	1000	0	0	-1	0
20029563	7020	1	0	-100	0	230	101300000	1000	0	0	-1	0
20042123	7023	0	0	-100	0	230	101300000	1000	0	0	-1	0
20054683	7023	0	0	-100	0	230	101300000	1000	0	0	-1	0
20067243	7019	0	0	-100	0	230	101300000	1000	0	0	-1	0
20079803	7021	2	0	-100	0	230	101300000	1000	0	0	-1	0
20092363	7026	0	0	-100	0	230	101300000	1000	0	0	-1	0
20104923	7018	0	0	-100	0	230	101300000	1000	0	0	-1	0
20117483	7021	4	0	-100	0	230	101300000	1000	0	0	-1	0
20130043	7022	0	0	-100	0	230	101300000	1000	0	0	-1	0
20142603	7025	0	0	-100	0	230	101300000	1000	0	0	-1	0
20155163	7022	0	0	-100	0	230	101300000	1000	0	0	-1	0
20167723	7018	1	0	-100	0	230	101300000	1000	0	0	-1	0
20180283	7030	0	0	-100	0	230	101300000	1000	0	0	-1	0
20192843	7021	0	0	-100	0	230	101300000	1000	0	0	-1	0
20205403	7016	0	0	-100	0	230	101300000	1000	0	0	-1	0
20217963	7020	4	0	-100	0	230	101300000	1000	0	0	-1	0
20230523	7022	3	0	-100	0	230	101300000	1000	0	0	-1	0
20243083	7023	0	0	-100	0	230	101300000	1000	0	0	-1	0
20255643	7025	0	0	-100	0	230	101300000	1000	0	0	-1	0
20268203	7022	0	0	-100	0	230	101300000	1000	0	0	-1	0
20280763	7022	4	0	-100	0	230	101300000	1000	0	0	-1	0
20293323	7012	2	0	-100	0	230	101300000	1000	0	0	-1	0
20305883	7027	0	0	-100	0	230	101300000	1000	0	0	-1	0
20318443	7025	0	0	-100	0	230	101300000	1000	0	0	-1	0
20331004	7032	0	0	-100	0	230	101300000	1000	0	0	-1	0
20343563	7020	4	0	-100	0	230	101300000	1000	0	0	-1	0
20356123	7023	0	0	-100	0	230	101300000	1000	0	0	-1	0
20368683	7023	0	0	-100	0	230	101300000	1000	0	0	-1	0
20381243	7021	6	0	-100	0	230	101300000	1000	0	0	-1	0
20393803	7022	0	0	-100	0	230	101300000	1000	0	0	-1	0
20406363	7023	0	0	-100	0	230	101300000	1000	0	0	-1	0
20418923	7018	0	0	-100	0	230	101300000	1000	0	0	-1	0
20431483	7020	3	0	-100	0	230	101300000	1000	0	0	-1	0
20444043	7022	0	0	-100	0	230	101300000	1000	0	0	-1	0
20456603	7025	0	0	-100	0	230	101300000	1000	0	0	-1	0
20469163	7022	0	0	-100	0	230	101300000	1000	0	0	-1	0
20481723	7019	4	0	-100	0	230	101300000	1000	0	0	-1	0
20494283	7024	0	0	-100	0	230	101300000	1000	0	0	-1	0
20506843	7023	0	0	-100	0	230	101300000	1000	0	0	-1	0
20519403	7016	0	0	-100	0	230	101300000	1000	0	0	-1	0
20531963	7014	4	0	-100	0	230	101300000	1000	0	0	-1	0
20544523	7024	0	0	-100	0	230	101300000	1000	0	0	-1	0
20557083	7028	0	0	-100	0	230	101300000	1000	0	0	-1	0
20569643	7027	0	0	-100	0	230	101300000	1000	0	0	-1	0
20582203	7025	0	0	-100	0	230	101300000	1000	0	0	-1	0
20594763	7016	0	0	-100	0	230	101300000	1000	0	0	-1	0
20607323	7008	0	0	-100	0	230	101300000	1000	0	0	-1	0
20619883	7018	4	0	-100	0	230	101300000	1000	0	0	-1	0
20632443	7018	4	0	-100	0	230	101300000	1000	0	0	-1	0
20645004	7018	0	0	-100	0	230	101300000	1000	0	0	-1	0
20657563	7029	0	0	-100	0	230	101300000	1000	0	0	-1	0
20670123	7021	0	0	-100	0	230	101300000	1000	0	0	-1	0
20682683	7025	0	0	-100	0	230	101300000	1000	0	0	-1	0
20695243	7021	0	0	-100	0	230	101300000	1000	0	0	-1	0
20707803	7014	0	0	-100	0	230	101300000	1000	0	0	-1	0
20720363	7022	3	0	-100	0	230	101300000	1000	0	0	-1	0
20732923	7020	2	0	-100	0	230	101300000	1000	0	0	-1	0
20745483	7027	0	0	-100	0	230	101300000	1000	0	0	-1	0
20758043	7025	0	0	-100	0	230	101300000	1000	0	0	-1	0
20770603	7026	0	0	-100	0	230	101300000	1000	0	0	-1	0
20783163	7029	0	0	-100	0	230	101300000	1000	0	0	-1	0
20795723	7024	0	0	-100	0	230	101300000	1000	0	0	-1	0
20808283	7025	0	0	-100	0	230	101300000	1000	0	0	-1	0
20820843	7025	0	0	-100	0	230	101300000	1000	0	0	-1	0
20833403	7019	0	0	-100	0	230	101300000	1000	0	0	-1	0
20845963	7016	0	0	-100	0	230	101300000	1000	0	0	-1	0
20858523	7016	0	0	-100	0	230	101300000	1000	0	0	-1	0
20871083	7025	0	0	-100	0	230	101300000	1000	0	0	-1	0
20883643	7022	3	0	-100	0	230	101300000	1000	0	0	-1	0
20896203	7021	0	0	-100	0	230	101300000	1000	0	0	-1	0
20908763	7025	0	0	-100	0	230	101300000	1000	0	0	-1	0
20921323	7011	0	0	-100	0	230	101300000	1000	0	0	-1	0
20933883	7022	2	0	-100	0	230	101300000	1000	0	0	-1	0
20946443	7024	0	0	-100	0	230	101300000	1000	0	0	-1	0
20959004	7018	2	0	-100	0	230	101300000	1000	0	0	-1	0
20971563	7018	0	0	-100	0	230	101300000	1000	0	0	-1	0
20984123	7016	0	0	-100	0	230	101300000	1000	0	0	-1	0
20996683	7022	0	0	-100	0	230	101300000	1000	0	0	-1	0
21009243	7020	4	0	-100	0	230	101300000	1000	0	0	-1	0
21021803	7018	1	0	-100	0	230	101300000	1000	0	0	-1	0
21034363	7026	0	0	-100	0	230	101300000	1000	0	0	-1	0
21046923	7022	0	0	-100	0	230	101300000	1000	0	0	-1	0
21059483	7021	4	0	-100	0	230	101300000	1000	0	0	-1	0
21072043	7019	0	0	-100	0	230	101300000	1000	0	0	-1	0
21084603	7023	0	0	-100	0	230	101300000	1000	0	0	-1	0
21097163	7020	0	0	-100	0	230	101300000	1000	0	0	-1	0
21109723	7020	3	0	-100	0	230	101300000	1000	0	0	-1	0
21122283	7027	0	0	-100	0	230	101300000	1000	0	0	-1	0
21134843	7021	0	0	-100	0	230	101300000	1000	0	0	-1	0
21147403	7018	0	0	-100	0	230	101300000	1000	0	0	-1	0
21159963	7021	0	0	-100	0	230	101300000	1000	0	0	-1	0
21172523	7027	0	0	-100	0	230	101300000	1000	0	0	-1	0
21185083	7018	0	0	-100	0	230	101300000	1000	0	0	-1	0
21197643	7024	4	0	-100	0	230	101300000	1000	0	0	-1	0
21210203	7020	0	0	-100	0	230	101300000	1000	0	0	-1	0
21222763	7027	0	0	-100	0	230	101300000	1000	0	0	-1	0
21235323	7016	0	0	-100	0	230	101300000	1000	0	0	-1	0
21247883	7023	0	0	-100	0	230	101300000	1000	0	0	-1	0
21260443	7016	0	0	-100	0	230	101300000	1000	0	0	-1	0
21273004	7027	0	0	-100	0	230	101300000	1000	0	0	-1	0
21285563	7018	2	0	-100	0	230	101300000	1000	0	0	-1	0
21298123	7021	0	0	-100	0	230	101300000	1000	0	0	-1	0
21310683	7023	0	0	-100	0	230	101300000	1000	0	0	-1	0
21323243	7020	0	0	-100	0	230	101300000	1000	0	0	-1	0
21335803	7024	3	0	-100	0	230	101300000	1000	0	0	-1	0
21348363	7018	0	0	-100	0	230	101300000	1000	0	0	-1	0
21360923	7028	0	0	-100	0	230	101300000	1000	0	0	-1	0
21373483	7025	0	0	-100	0	230	101300000	1000	0	0	-1	0
21386043	7021	0	0	-100	0	230	101300000	1000	0	0	-1	0
21398603	7021	0	0	-100	0	230	101300000	1000	0	0	-1	0
21411163	7019	0	0	-100	0	230	101300000	1000	0	0	-1	0
21423723	7022	1	0	-100	0	230	101300000	1000	0	0	-1	0
21436283	7025	0	0	-100	0	230	101300000	1000	0	0	-1	0
21448843	7027	0	0	-100	0	230	101300000	1000	0	0	-1	0
21461403	7026	0	0	-100	0	230	101300000	1000	0	0	-1	0
21473963	7016	0	0	-100	0	230	101300000	1000	0	0	-1	0
21486523	7022	2	0	-100	0	230	101300000	1000	0	0	-1	0
21499083	7022	4	0	-100	0	230	101300000	1000	0	0	-1	0
21511643	7024	0	0	-100	0	230	101300000	1000	0	0	-1	0
21524203	7032	0	0	-100	0	230	101300000	1000	0	0	-1	0
21536763	7027	0	0	-100	0	230	101300000	1000	0	0	-1	0
21549323	7017	0	0	-100	0	230	101300000	1000	0	0	-1	0
21561883	7016	0	0	-100	0	230	101300000	1000	0	0	-1	0
21574443	7019	0	0	-100	0	230	101300000	1000	0	0	-1	0
21587004	7023	0	0	-100	0	230	101300000	1000	0	0	-1	0
21599563	7022	2	0	-100	0	230	101300000	1000	0	0	-1	0
21612123	7016	1	0	-100	0	230	101300000	1000	0	0	-1	0
21624683	7025	0	0	-100	0	230	101300000	1000	0	0	-1	0
21637243	7025	0	0	-100	0	230	101300000	1000	0	0	-1	0
21649803	7023	0	0	-100	0	230	101300000	1000	0	0	-1	0
21662363	7030	0	0	-100	0	230	101300000	1000	0	0	-1	0
21674923	7022	0	0	-100	0	230	101300000	1000	0	0	-1	0
21687483	7018	0	0	-100	0	230	101300000	1000	0	0	-1	0
21700043	7022	4	0	-100	0	230	101300000	1000	0	0	-1	0
21712603	7024	0	0	-100	0	230	101300000	1000	0	0	-1	0
21725163	7032	0	0	-100	0	230	101300000	1000	0	0	-1	0
21737723	7018	0	0	-100	0	230	101300000	1000	0	0	-1	0
21750283	7020	4	0	-100	0	230	101300000	1000	0	0	-1	0
21762843	7018	3	0	-100	0	230	101300000	1000	0	0	-1	0
21775403	7018	0	0	-100	0	230	101300000	1000	0	0	-1	0
21787963	7030	0	0	-100	0	230	101300000	1000	0	0	-1	0
21800523	7027	0	0	-100	0	230	101300000	1000	0	0	-1	0
21813083	7023	0	0	-100	0	230	101300000	1000	0	0	-1	0
21825643	7020	0	0	-100	0	230	101300000	1000	0	0	-1	0
21838203	7018	4	0	-100	0	230	101300000	1000	0	0	-1	0
21850763	7020	1	0	-100	0	230	101300000	1000	0	0	-1	0
21863323	7016	0	0	-100	0	230	101300000	1000	0	0	-1	0
21875883	7023	0	0	-100	0	230	101300000	1000	0	0	-1	0
21888443	7018	0	0	-100	0	230	101300000	1000	0	0	-1	0
21901004	7023	0	0	-100	0	230	101300000	1000	0	0	-1	0
21913563	7024	0	0	-100	0	230	101300000	1000	0	0	-1	0
21926123	7017	0	0	-100	0	230	101300000	1000	0	0	-1	0
21938683	7021	0	0	-100	0	230	101300000	1000	0	0	-1	0
21951243	7018	0	0	-100	0	230	101300000	1000	0	0	-1	0
21963803	7022	5	0	-100	0	230	101300000	1000	0	0	-1	0
21976363	7022	0	0	-100	0	230	101300000	1000	0	0	-1	0
21988923	7025	0	0	-100	0	230	101300000	1000	0	0	-1	0
22001483	7021	0	0	-100	0	230	101300000	1000	0	0	-1	0
22014043	7016	0	0	-100	0	230	101300000	1000	0	0	-1	0
22026603	7018	4	0	-100	0	230	101300000	1000	0	0	-1	0
22039163	7027	0	0	-100	0	230	101300000	1000	0	0	-1	0
22051723	7023	0	0	-100	0	230	101300000	1000	0	0	-1	0
22064283	7018	0	0	-100	0	230	101300000	1000	0	0	-1	0
22076843	7020	0	0	-100	0	230	101300000	1000	0	0	-1	0
22089403	7027	0	0	-100	0	230	101300000	1000	0	0	-1	0
22101963	7022	0	0	-100	0	230	101300000	1000	0	0	-1	0
22114523	7022	4	0	-100	0	230	101300000	1000	0	0	-1	0
22127083	7029	0	0	-100	0	230	101300000	1000	0	0	-1	0
22139643	7023	0	0	-100	0	230	101300000	1000	0	0	-1	0
22152203	7022	0	0	-100	0	230	101300000	1000	0	0	-1	0
22164763	7019	0	0	-100	0	230	101300000	1000	0	0	-1	0
22177323	7010	4	0	-100	0	230	101300000	1000	0	0	-1	0
22189883	7022	1	0	-100	0	230	101300000	1000	0	0	-1	0
22202443	7027	0	0	-100	0	230	101300000	1000	0	0	-1	0
22215004	7025	0	0	-100	0	230	101300000	1000	0	0	-1	0
22227563	7018	4	0	-100	0	230	101300000	1000	0	0	-1	0
22240123	7016	2	0	-100	0	230	101300000	1000	0	0	-1	0
22252683	7027	0	0	-100	0	230	101300000	1000	0	0	-1	0
22265243	7022	0	0	-100	0	230	101300000	1000	0	0	-1	0
22277803	7023	0	0	-100	0	230	101300000	1000	0	0	-1	0
22290363	7018	0	0	-100	0	230	101300000	1000	0	0	-1	0
22302923	7016	4	0	-100	0	230	101300000	1000	0	0	-1	0
22315483	7020	0	0	-100	0	230	101300000	1000	0	0	-1	0
22328043	7029	0	0	-100	0	230	101300000	1000	0	0	-1	0
22340603	7025	0	0	-100	0	230	101300000	1000	0	0	-1	0
22353163	7016	0	0	-100	0	230	101300000	1000	0	0	-1	0
22365723	7021	2	0	-100	0	230	101300000	1000	0	0	-1	0
22378283	7022	2	0	-100	0	230	101300000	1000	0	0	-1	0
22390843	7028	0	0	-100	0	230	101300000	1000	0	0	-1	0
22403403	7023	0	0	-100	0	230	101300000	1000	0	0	-1	0
22415963	7021	0	0	-100	0	230	101300000	1000	0	0	-1	0
22428523	7021	0	0	-100	0	230	101300000	1000	0	0	-1	0
22441083	7022	4	0	-100	0	230	101300000	1000	0	0	-1	0
22453643	7022	2	0	-100	0	230	101300000	1000	0	0	-1	0
22466203	7024	0	0	-100	0	230	101300000	1000	0	0	-1	0
22478763	7023	0	0	-100	0	230	101300000	1000	0	0	-1	0
22491323	7022	0	0	-100	0	230	101300000	1000	0	0	-1	0
22503883	7030	0	0	-100	0	230	101300000	1000	0	0	-1	0
22516443	7023	0	0	-100	0	230	101300000	1000	0	0	-1	0
22529004	7021	0	0	-100	0	230	101300000	1000	0	0	-1	0
22541563	7020	0	0	-100	0	230	101300000	1000	0	0	-1	0
22554123	7012	0	0	-100	0	230	101300000	1000	0	0	-1	0
22566683	7016	0	0	-100	0	230	101300000	1000	0	0	-1	0
22579243	7018	0	0	-100	0	230	101300000	1000	0	0	-1	0
22591803	7019	0	0	-100	0	230	101300000	1000	0	0	-1	0
22604363	7017	0	0	-100	0	230	101300000	1000	0	0	-1	0
22616923	7022	0	0	-100	0	230	101300000	1000	0	0	-1	0
22629483	7027	0	0	-100	0	230	101300000	1000	0	0	-1	0
22642043	7021	0	0	-100	0	230	101300000	1000	0	0	-1	0
22654603	7021	0	0	-100	0	230	101300000	1000	0	0	-1	0
22667163	7027	0	0	-100	0	230	101300000	1000	0	0	-1	0
22679723	7023	0	0	-100	0	230	101300000	1000	0	0	-1	0
22692283	7021	0	0	-100	0	230	101300000	1000	0	0	-1	0
22704843	7023	0	0	-100	0	230	101300000	1000	0	0	-1	0
22717403	7018	0	0	-100	0	230	101300000	1000	0	0	-1	0
22729963	7020	0	0	-100	0	230	101300000	1000	0	0	-1	0
22742523	7021	0	0	-100	0	230	101300000	1000	0	0	-1	0
22755083	7018	0	0	-100	0	230	101300000	1000	0	0	-1	0
22767643	7018	0	0	-100	0	230	101300000	1000	0	0	-1	0
22780203	7022	0	0	-100	0	230	101300000	1000	0	0	-1	0
22792763	7025	0	0	-100	0	230	101300000	1000	0	0	-1	0
22805323	7014	0	0	-100	0	230	101300000	1000	0	0	-1	0
22817883	7019	0	0	-100	0	230	101300000	1000	0	0	-1	0
22830443	7021	0	0	-100	0	230	101300000	1000	0	0	-1	0
22843004	7025	0	0	-100	0	230	101300000	1000	0	0	-1	0
22855563	7016	0	0	-100	0	230	101300000	1000	0	0	-1	0
22868123	7008	0	0	-100	0	230	101300000	1000	0	0	-1	0
22880683	7016	0	0	-100	0	230	101300000	1000	0	0	-1	0
22893243	7018	0	0	-100	0	230	101300000	1000	0	0	-1	0
22905803	7018	0	0	-100	0	230	101300000	1000	0	0	-1	0
22918363	7018	0	0	-100	0	230	101300000	1000	0	0	-1	0
22930923	7018	4	0	-100	0	230	101300000	1000	0	0	-1	0
22943483	7024	4	0	-100	0	230	101300000	1000	0	0	-1	0
22956043	7021	0	0	-100	0	230	101300000	1000	0	0	-1	0
22968603	7025	0	0	-100	0	230	101300000	1000	0	0	-1	0
22981163	7019	0	0	-100	0	230	101300000	1000	0	0	-1	0
23043963	7018	0	0	-100	0	230	101300000	1000	0	0	-1	0
23056523	7022	4	0	-100	0	230	101300000	1000	0	0	-1	0
23069083	7018	0	0	-100	0	230	101300000	1000	0	0	-1	0
23081643	7030	0	0	-100	0	230	101300000	1000	0	0	-1	0
23094203	7023	0	0	-100	0	230	101300000	1000	0	0	-1	0
23106763	7022	0	0	-100	0	230	101300000	1000	0	0	-1	0
23119323	7016	4	0	-100	0	230	101300000	1000	0	0	-1	0
23131883	7018	1	0	-100	0	230	101300000	1000	0	0	-1	0
23144443	7025	0	0	-100	0	230	101300000	1000	0	0	-1	0
23157004	7020	3	0	-100	0	230	101300000	1000	0	0	-1	0
23169563	7021	0	0	-100	0	230	101300000	1000	0	0	-1	0
23182123	7010	0	0	-100	0	230	101300000	1000	0	0	-1	0
23194683	7018	4	0	-100	0	230	101300000	1000	0	0	-1	0
23207243	7024	0	0	-100	0	230	101300000	1000	0	0	-1	0
23219803	7027	0	0	-100	0	230	101300000	1000	0	0	-1	0
23232363	7027	0	0	-100	0	230	101300000	1000	0	0	-1	0
23244923	7025	0	0	-100	0	230	101300000	1000	0	0	-1	0
23257483	7019	0	0	-100	0	230	101300000	1000	0	0	-1	0
23270043	7021	4	0	-100	0	230	101300000	1000	0	0	-1	0
23282603	7020	2	0	-100	0	230	101300000	1000	0	0	-1	0
23295163	7027	0	0	-100	0	230	101300000	1000	0	0	-1	0
23307723	7029	0	0	-100	0	230	101300000	1000	0	0	-1	0
23320283	7025	0	0	-100	0	230	101300000	1000	0	0	-1	0
23332843	7025	0	0	-100	0	230	101300000	1000	0	0	-1	0
23345403	7020	0	0	-100	0	230	101300000	1000	0	0	-1	0
23357963	7022	4	0	-100	0	230	101300000	1000	0	0	-1	0
23370523	7018	2	0	-100	0	230	101300000	1000	0	0	-1	0
23383083	7028	0	0	-100	0	230	101300000	1000	0	0	-1	0
23395643	7023	0	0	-100	0	230	101300000	1000	0	0	-1	0
23408203	7019	0	0	-100	0	230	101300000	1000	0	0	-1	0
23420763	7025	0	0	-100	0	230	101300000	1000	0	0	-1	0
23433323	7015	0	0	-100	0	230	101300000	1000	0	0	-1	0
23445883	7021	0	0	-100	0	230	101300000	1000	0	0	-1	0
23458443	7021	0	0	-100	0	230	101300000	1000	0	0	-1	0
23471004	7022	0	0	-100	0	230	101300000	1000	0	0	-1	0
23483563	7014	0	0	-100	0	230	101300000	1000	0	0	-1	0
23496123	7010	0	0	-100	0	230	101300000	1000	0	0	-1	0
23508683	7019	0	0	-100	0	230	101300000	1000	0	0	-1	0
23521243	7019	0	0	-100	0	230	101300000	1000	0	0	-1	0
23533803	7024	3	0	-100	0	230	101300000	1000	0	0	-1	0
23546363	7022	4	0	-100	0	230	101300000	1000	0	0	-1	0
23558923	7018	4	0	-100	0	230	101300000	1000	0	0	-1	0
23571483	7018	4	0	-100	0	230	101300000	1000	0	0	-1	0
23584043	7018	3	0	-100	0	230	101300000	1000	0	0	-1	0
23596603	7021	0	0	-100	0	230	101300000	1000	0	0	-1	0
23609163	7018	0	0	-100	0	230	101300000	1000	0	0	-1	0
23621723	7022	0	0	-100	0	230	101300000	1000	0	0	-1	0
23634283	7028	0	0	-100	0	230	101300000	1000	0	0	-1	0
23646843	7023	0	0	-100	0	230	101300000	1000	0	0	-1	0
23659403	7023	0	0	-100	0	230	101300000	1000	0	0	-1	0
23671963	7028	0	0	-100	0	230	101300000	1000	0	0	-1	0
23684523	7025	0	0	-100	0	230	101300000	1000	0	0	-1	0
23697083	7027	0	0	-100	0	230	101300000	1000	0	0	-1	0
23709643	7023	0	0	-100	0	230	101300000	1000	0	0	-1	0
23722203	7023	0	0	-100	0	230	101300000	1000	0	0	-1	0
23734763	7023	0	0	-100	0	230	101300000	1000	0	0	-1	0
23747323	7015	0	0	-100	0	230	101300000	1000	0	0	-1	0
23759883	7019	0	0	-100	0	230	101300000	1000	0	0	-1	0
23772443	7014	0	0	-100	0	230	101300000	1000	0	0	-1	0
23785004	7025	0	0	-100	0	230	101300000	1000	0	0	-1	0
23797563	7022	2	0	-100	0	230	101300000	1000	0	0	-1	0
23810123	7012	0	0	-100	0	230	101300000	1000	0	0	-1	0
23822683	7025	0	0	-100	0	230	101300000	1000	0	0	-1	0
23835243	7025	0	0	-100	0	230	101300000	1000	0	0	-1	0
23847803	7022	0	0	-100	0	230	101300000	1000	0	0	-1	0
23860363	7024	2	0	-100	0	230	101300000	1000	0	0	-1	0
23872923	7020	0	0	-100	0	230	101300000	1000	0	0	-1	0
23885483	7028	0	0	-100	0	230	101300000	1000	0	0	-1	0
23898043	7023	0	0	-100	0	230	101300000	1000	0	0	-1	0
23910603	7018	0	0	-100	0	230	101300000	1000	0	0	-1	0
23923163	7021	1	0	-100	0	230	101300000	1000	0	0	-1	0
23935723	7022	0	0	-100	0	230	101300000	1000	0	0	-1	0
23948283	7028	0	0	-100	0	230	101300000	1000	0	0	-1	0
23960843	7026	0	0	-100	0	230	101300000	1000	0	0	-1	0
23973403	7025	0	0	-100	0	230	101300000	1000	0	0	-1	0
23985963	7021	0	0	-100	0	230	101300000	1000	0	0	-1	0
23998523	7018	0	0	-100	0	230	101300000	1000	0	0	-1	0
24011083	7017	1	0	-100	0	230	101300000	1000	0	0	-1	0
24023643	7021	1	0	-100	0	230	101300000	1000	0	0	-1	0
24036203	7022	2	0	-100	0	230	101300000	1000	0	0	-1	0
24048763	7021	4	0	-100	0	230	101300000	1000	0	0	-1	0
24061323	7014	4	0	-100	0	230	101300000	1000	0	0	-1	0
24073883	7022	0	0	-100	0	230	101300000	1000	0	0	-1	0
24086443	7025	0	0	-100	0	230	101300000	1000	0	0	-1	0
24099004	7022	1	0	-100	0	230	101300000	1000	0	0	-1	0
24111563	7028	0	0	-100	0	230	101300000	1000	0	0	-1	0
24124123	7025	0	0	-100	0	230	101300000	1000	0	0	-1	0
24136683	7022	0	0	-100	0	230	101300000	1000	0	0	-1	0
24149243	7025	0	0	-100	0	230	101300000	1000	0	0	-1	0
24161803	7030	0	0	-100	0	230	101300000	1000	0	0	-1	0
24174363	7026	0	0	-100	0	230	101300000	1000	0	0	-1	0
24186923	7026	0	0	-100	0	230	101300000	1000	0	0	-1	0
24199483	7023	0	0	-100	0	230	101300000	1000	0	0	-1	0
24212043	7020	0	0	-100	0	230	101300000	1000	0	0	-1	0
24224603	7022	3	0	-100	0	230	101300000	1000	0	0	-1	0
24237163	7018	2	0	-100	0	230	101300000	1000	0	0	-1	0
24249723	7032	0	0	-100	0	230	101300000	1000	0	0	-1	0
24262283	7025	0	0	-100	0	230	101300000	1000	0	0	-1	0
24274843	7021	0	0	-100	0	230	101300000	1000	0	0	-1	0
24287403	7019	0	0	-100	0	230	101300000	1000	0	0	-1	0
24299963	7022	3	0	-100	0	230	101300000	1000	0	0	-1	0
24312523	7022	0	0	-100	0	230	101300000	1000	0	0	-1	0
24325083	7025	0	0	-100	0	230	101300000	1000	0	0	-1	0
24337643	7027	0	0	-100	0	230	101300000	1000	0	0	-1	0
24350203	7021	0	0	-100	0	230	101300000	1000	0	0	-1	0
24362763	7018	0	0	-100	0	230	101300000	1000	0	0	-1	0
24375323	7014	0	0	-100	0	230	101300000	1000	0	0	-1	0
24387883	7022	3	0	-100	0	230	101300000	1000	0	0	-1	0
24400443	7019	0	0	-100	0	230	101300000	1000	0	0	-1	0
24413004	7022	3	0	-100	0	230	101300000	1000	0	0	-1	0
24425563	7025	0	0	-100	0	230	101300000	1000	0	0	-1	0
24438123	7016	6	0	-100	0	230	101300000	1000	0	0	-1	0
24450683	7024	0	0	-100	0	230	101300000	1000	0	0	-1	0
24463243	7027	0	0	-100	0	230	101300000	1000	0	0	-1	0
24475803	7016	0	0	-100	0	230	101300000	1000	0	0	-1	0
24488363	7018	4	0	-100	0	230	101300000	1000	0	0	-1	0
24500923	7018	0	0	-100	0	230	101300000	1000	0	0	-1	0
24513483	7025	0	0	-100	0	230	101300000	1000	0	0	-1	0
24526043	7021	0	0	-100	0	230	101300000	1000	0	0	-1	0
24538603	7022	0	0	-100	0	230	101300000	1000	0	0	-1	0
24551163	7030	0	0	-100	0	230	101300000	1000	0	0	-1	0
24563723	7025	0	0	-100	0	230	101300000	1000	0	0	-1	0
24576283	7021	0	0	-100	0	230	101300000	1000	0	0	-1	0
24588843	7021	2	0	-100	0	230	101300000	1000	0	0	-1	0
24601403	7018	4	0	-100	0	230	101300000	1000	0	0	-1	0
24613963	7018	4	0	-100	0	230	101300000	1000	0	0	-1	0
24626523	7022	0	0	-100	0	230	101300000	1000	0	0	-1	0
24639083	7028	0	0	-100	0	230	101300000	1000	0	0	-1	0
24651643	7023	0	0	-100	0	230	101300000	1000	0	0	-1	0
24664203	7025	0	0	-100	0	230	101300000	1000	0	0	-1	0
24676763	7019	0	0	-100	0	230	101300000	1000	0	0	-1	0
24689323	7014	3	0	-100	0	230	101300000	1000	0	0	-1	0
24701883	7020	2	0	-100	0	230	101300000	1000	0	0	-1	0
24714443	7026	0	0	-100	0	230	101300000	1000	0	0	-1	0
24727004	7021	0	0	-100	0	230	101300000	1000	0	0	-1	0
24739563	7020	0	0	-100	0	230	101300000	1000	0	0	-1	0
24752123	7014	4	0	-100	0	230	101300000	1000	0	0	-1	0
24764683	7027	0	0	-100	0	230	101300000	1000	0	0	-1	0
24777243	7021	0	0	-100	0	230	101300000	1000	0	0	-1	0
24789803	7021	0	0	-100	0	230	101300000	1000	0	0	-1	0
24802363	7022	2	0	-100	0	230	101300000	1000	0	0	-1	0
24814923	7025	0	0	-100	0	230	101300000	1000	0	0	-1	0
24827483	7027	0	0	-100	0	230	101300000	1000	0	0	-1	0
24840043	7027	0	0	-100	0	230	101300000	1000	0	0	-1	0
24852603	7023	0	0	-100	0	230	101300000	1000	0	0	-1	0
24865163	7017	0	0	-100	0	230	101300000	1000	0	0	-1	0
24877723	7018	3	0	-100	0	230	101300000	1000	0	0	-1	0
24890283	7024	0	0	-100	0	230	101300000	1000	0	0	-1	0
24902843	7021	0	0	-100	0	230	101300000	1000	0	0	-1	0
24915403	7028	0	0	-100	0	230	101300000	1000	0	0	-1	0
24927963	7023	0	0	-100	0	230	101300000	1000	0	0	-1	0
24940523	7027	0	0	-100	0	230	101300000	1000	0	0	-1	0
24953083	7018	0	0	-100	0	230	101300000	1000	0	0	-1	0
24965643	7019	2	0	-100	0	230	101300000	1000	0	0	-1	0
24978203	7020	1	0	-100	0	230	101300000	1000	0	0	-1	0
24990763	7025	0	0	-100	0	230	101300000	1000	0	0	-1	0
25003323	7019	0	0	-100	0	230	101300000	1000	0	0	-1	0
25015883	7021	0	0	-100	0	230	101300000	1000	0	0	-1	0
25028443	7020	0	0	-100	0	230	101300000	1000	0	0	-1	0
25041004	7025	0	0	-100	0	230	101300000	1000	0	0	-1	0
25053563	7025	0	0	-100	0	230	101300000	1000	0	0	-1	0
25066123	7017	0	0	-100	0	230	101300000	1000	0	0	-1	0
25078683	7019	0	0	-100	0	230	101300000	1000	0	0	-1	0
25091243	7022	3	0	-100	0	230	101300000	1000	0	0	-1	0
25103803	7025	0	0	-100	0	230	101300000	1000	0	0	-1	0
25116363	7023	0	0	-100	0	230	101300000	1000	0	0	-1	0
25128923	7018	0	0	-100	0	230	101300000	1000	0	0	-1	0
25141483	7020	3	0	-100	0	230	101300000	1000	0	0	-1	0
25154043	7020	0	0	-100	0	230	101300000	1000	0	0	-1	0
25166603	7025	0	0	-100	0	230	101300000	1000	0	0	-1	0
25179163	7023	0	0	-100	0	230	101300000	1000	0	0	-1	0
25191723	7023	0	0	-100	0	230	101300000	1000	0	0	-1	0
25204283	7021	0	0	-100	0	230	101300000	1000	0	0	-1	0
25216843	7018	0	0	-100	0	230	101300000	1000	0	0	-1	0
25229403	7022	0	0	-100	0	230	101300000	1000	0	0	-1	0
25241963	7019	1	0	-100	0	230	101300000	1000	0	0	-1	0
25254523	7027	0	0	-100	0	230	101300000	1000	0	0	-1	0
25267083	7025	0	0	-100	0	230	101300000	1000	0	0	-1	0
25279643	7020	0	0	-100	0	230	101300000	1000	0	0	-1	0
25292203	7025	0	0	-100	0	230	101300000	1000	0	0	-1	0
25304763	7023	0	0	-100	0	230	101300000	1000	0	0	-1	0
25317323	7012	0	0	-100	0	230	101300000	1000	0	0	-1	0
25329883	7022	4	0	-100	0	230	101300000	1000	0	0	-1	0
25342443	7018	1	0	-100	0	230	101300000	1000	0	0	-1	0
25355004	7016	3	0	-100	0	230	101300000	1000	0	0	-1	0
25367563	7023	0	0	-100	0	230	101300000	1000	0	0	-1	0
25380123	7016	0	0	-100	0	230	101300000	1000	0	0	-1	0
25392683	7016	5	0	-100	0	230	101300000	1000	0	0	-1	0
25405243	7020	1	0	-100	0	230	101300000	1000	0	0	-1	0
25417803	7028	0	0	-100	0	230	101300000	1000	0	0	-1	0
25430363	7027	0	0	-100	0	230	101300000	1000	0	0	-1	0
25442923	7017	0	0	-100	0	230	101300000	1000	0	0	-1	0
25455483	7021	0	0	-100	0	230	101300000	1000	0	0	-1	0
25468043	7016	4	0	-100	0	230	101300000	1000	0	0	-1	0
25480603	7025	0	0	-100	0	230	101300000	1000	0	0	-1	0
25493163	7019	0	0	-100	0	230	101300000	1000	0	0	-1	0
25505723	7021	0	0	-100	0	230	101300000	1000	0	0	-1	0
25518283	7016	5	0	-100	0	230	101300000	1000	0	0	-1	0
25530843	7022	0	0	-100	0	230	101300000	1000	0	0	-1	0
25543403	7025	0	0	-100	0	230	101300000	1000	0	0	-1	0
25555963	7022	0	0	-100	0	230	101300000	1000	0	0	-1	0
25568523	7018	0	0	-100	0	230	101300000	1000	0	0	-1	0
25581083	7022	4	0	-100	0	230	101300000	1000	0	0	-1	0
25593643	7016	0	0	-100	0	230	101300000	1000	0	0	-1	0
25606203	7025	0	0	-100	0	230	101300000	1000	0	0	-1	0
25618763	7017	0	0	-100	0	230	101300000	1000	0	0	-1	0
25631323	7016	3	0	-100	0	230	101300000	1000	0	0	-1	0
25643883	7022	0	0	-100	0	230	101300000	1000	0	0	-1	0
25656443	7022	0	0	-100	0	230	101300000	1000	0	0	-1	0
25669004	7022	2	0	-100	0	230	101300000	1000	0	0	-1	0
25681563	7023	0	0	-100	0	230	101300000	1000	0	0	-1	0
25694123	7017	0	0	-100	0	230	101300000	1000	0	0	-1	0
25706683	7021	0	0	-100	0	230	101300000	1000	0	0	-1	0
25719243	7016	0	0	-100	0	230	101300000	1000	0	0	-1	0
25731803	7021	4	0	-100	0	230	101300000	1000	0	0	-1	0
25744363	7018	3	0	-100	0	230	101300000	1000	0	0	-1	0
25756923	7020	1	0	-100	0	230	101300000	1000	0	0	-1	0
25769483	7027	0	0	-100	0	230	101300000	1000	0	0	-1	0
25782043	7022	0	0	-100	0	230	101300000	1000	0	0	-1	0
25794603	7023	0	0	-100	0	230	101300000	1000	0	0	-1	0
25807163	7021	0	0	-100	0	230	101300000	1000	0	0	-1	0
25819723	7021	0	0	-100	0	230	101300000	1000	0	0	-1	0
25832283	7020	2	0	-100	0	230	101300000	1000	0	0	-1	0
25844843	7022	0	0	-100	0	230	101300000	1000	0	0	-1	0
25857403	7030	0	0	-100	0	230	101300000	1000	0	0	-1	0
25869963	7023	0	0	-100	0	230	101300000	1000	0	0	-1	0
25882523	7018	0	0	-100	0	230	101300000	1000	0	0	-1	0
25932763	7019	4	0	-100	0	230	101300000	1000	0	0	-1	0
25945323	7018	0	0	-100	0	230	101300000	1000	0	0	-1	0
25957883	7021	0	0	-100	0	230	101300000	1000	0	0	-1	0
25970443	7021	4	0	-100	0	230	101300000	1000	0	0	-1	0
25983004	7018	0	0	-100	0	230	101300000	1000	0	0	-1	0
25995563	7027	0	0	-100	0	230	101300000	1000	0	0	-1	0
26008123	7014	0	0	-100	0	230	101300000	1000	0	0	-1	0
26020683	7018	4	0	-100	0	230	101300000	1000	0	0	-1	0
26033243	7024	0	0	-100	0	230	101300000	1000	0	0	-1	0
26045803	7027	0	0	-100	0	230	101300000	1000	0	0	-1	0
26058363	7021	0	0	-100	0	230	101300000	1000	0	0	-1	0
26070923	7025	0	0	-100	0	230	101300000	1000	0	0	-1	0
26108603	7022	0	0	-100	0	230	101300000	1000	0	0	-1	0
26121163	7025	0	0	-100	0	230	101300000	1000	0	0	-1	0
26133723	7018	0	0	-100	0	230	101300000	1000	0	0	-1	0
26146283	7018	0	0	-100	0	230	101300000	1000	0	0	-1	0
26158843	7022	1	0	-100	0	230	101300000	1000	0	0	-1	0
26171403	7023	0	0	-100	0	230	101300000	1000	0	0	-1	0
26183963	7030	0	0	-100	0	230	101300000	1000	0	0	-1	0
26196523	7020	0	0	-100	0	230	101300000	1000	0	0	-1	0
26209083	7020	1	0	-100	0	230	101300000	1000	0	0	-1	0
26221643	7028	0	0	-100	0	230	101300000	1000	0	0	-1	0
26234203	7018	0	0	-100	0	230	101300000	1000	0	0	-1	0
26246763	7020	3	0	-100	0	230	101300000	1000	0	0	-1	0
26259323	7015	0	0	-100	0	230	101300000	1000	0	0	-1	0
26271883	7020	0	0	-100	0	230	101300000	1000	0	0	-1	0
26284443	7018	1	0	-100	0	230	101300000	1000	0	0	-1	0
26297004	7016	2	0	-100	0	230	101300000	1000	0	0	-1	0
26309563	7019	0	0	-100	0	230	101300000	1000	0	0	-1	0
26322123	7012	4	0	-100	0	230	101300000	1000	0	0	-1	0
26334683	7027	0	0	-100	0	230	101300000	1000	0	0	-1	0
26347243	7023	0	0	-100	0	230	101300000	1000	0	0	-1	0
26359803	7017	1	0	-100	0	230	101300000	1000	0	0	-1	0
26372363	7019	3	0	-100	0	230	101300000	1000	0	0	-1	0
26384923	7027	0	0	-100	0	230	101300000	1000	0	0	-1	0
26397483	7027	0	0	-100	0	230	101300000	1000	0	0	-1	0
26410043	7021	0	0	-100	0	230	101300000	1000	0	0	-1	0
26422603	7021	2	0	-100	0	230	101300000	1000	0	0	-1	0
26435163	7022	2	0	-100	0	230	101300000	1000	0	0	-1	0
26447723	7022	2	0	-100	0	230	101300000	1000	0	0	-1	0
26460283	7024	0	0	-100	0	230	101300000	1000	0	0	-1	0
26472843	7029	0	0	-100	0	230	101300000	1000	0	0	-1	0
26485403	7025	0	0	-100	0	230	101300000	1000	0	0	-1	0
26497963	7022	0	0	-100	0	230	101300000	1000	0	0	-1	0
26510523	7023	0	0	-100	0	230	101300000	1000	0	0	-1	0
26523083	7021	0	0	-100	0	230	101300000	1000	0	0	-1	0
26535643	7016	0	0	-100	0	230	101300000	1000	0	0	-1	0
26548203	7024	3	0	-100	0	230	101300000	1000	0	0	-1	0
26560763	7021	3	0	-100	0	230	101300000	1000	0	0	-1	0
26573323	7014	2	0	-100	0	230	101300000	1000	0	0	-1	0
26585883	7020	2	0	-100	0	230	101300000	1000	0	0	-1	0
26598443	7021	0	0	-100	0	230	101300000	1000	0	0	-1	0
26611004	7022	5	0	-100	0	230	101300000	1000	0	0	-1	0
26623563	7023	0	0	-100	0	230	101300000	1000	0	0	-1	0
26636123	7019	0	0	-100	0	230	101300000	1000	0	0	-1	0
26648683	7022	0	0	-100	0	230	101300000	1000	0	0	-1	0
26661243	7018	0	0	-100	0	230	101300000	1000	0	0	-1	0
26673803	7019	0	0	-100	0	230	101300000	1000	0	0	-1	0
26686363	7022	3	0	-100	0	230	101300000	1000	0	0	-1	0
26698923	7022	0	0	-100	0	230	101300000	1000	0	0	-1	0
26711483	7027	0	0	-100	0	230	101300000	1000	0	0	-1	0
26724043	7023	0	0	-100	0	230	101300000	1000	0	0	-1	0
26736603	7026	0	0	-100	0	230	101300000	1000	0	0	-1	0
26749163	7022	0	0	-100	0	230	101300000	1000	0	0	-1	0
26761723	7023	0	0	-100	0	230	101300000	1000	0	0	-1	0
26774283	7023	0	0	-100	0	230	101300000	1000	0	0	-1	0
26786843	7021	0	0	-100	0	230	101300000	1000	0	0	-1	0
26799403	7018	0	0	-100	0	230	101300000	1000	0	0	-1	0
26811963	7025	0	0	-100	0	230	101300000	1000	0	0	-1	0
26824523	7021	0	0	-100	0	230	101300000	1000	0	0	-1	0
26837083	7019	0	0	-100	0	230	101300000	1000	0	0	-1	0
26849643	7016	4	0	-100	0	230	101300000	1000	0	0	-1	0
26862203	7024	2	0	-100	0	230	101300000	1000	0	0	-1	0
26874763	7020	3	0	-100	0	230	101300000	1000	0	0	-1	0
26887323	7011	3	0	-100	0	230	101300000	1000	0	0	-1	0
26899883	7018	1	0	-100	0	230	101300000	1000	0	0	-1	0
26912443	7018	1	0	-100	0	230	101300000	1000	0	0	-1	0
26925004	7022	0	0	-100	0	230	101300000	1000	0	0	-1	0
26937563	7022	2	0	-100	0	230	101300000	1000	0	0	-1	0
26950123	7014	3	0	-100	0	230	101300000	1000	0	0	-1	0
26962683	7022	0	0	-100	0	230	101300000	1000	0	0	-1	0
26975243	7029	0	0	-100	0	230	101300000	1000	0	0	-1	0
26987803	7028	0	0	-100	0	230	101300000	1000	0	0	-1	0
27000363	7023	0	0	-100	0	230	101300000	1000	0	0	-1	0
27012923	7025	0	0	-100	0	230	101300000	1000	0	0	-1	0
27025483	7022	0	0	-100	0	230	101300000	1000	0	0	-1	0
27038043	7020	0	0	-100	0	230	101300000	1000	0	0	-1	0
27050603	7014	0	0	-100	0	230	101300000	1000	0	0	-1	0
27063163	7021	0	0	-100	0	230	101300000	1000	0	0	-1	0
27075723	7019	0	0	-100	0	230	101300000	1000	0	0	-1	0
27088283	7021	0	0	-100	0	230	101300000	1000	0	0	-1	0
27100843	7024	4	0	-100	0	230	101300000	1000	0	0	-1	0
27113403	7020	3	0	-100	0	230	101300000	1000	0	0	-1	0
27125963	7018	4	0	-100	0	230	101300000	1000	0	0	-1	0
27138523	7018	2	0	-100	0	230	101300000	1000	0	0	-1	0
27151083	7020	2	0	-100	0	230	101300000	1000	0	0	-1	0
27163643	7018	2	0	-100	0	230	101300000	1000	0	0	-1	0
27176203	7025	0	0	-100	0	230	101300000	1000	0	0	-1	0
27188763	7023	0	0	-100	0	230	101300000	1000	0	0	-1	0
27201323	7019	0	0	-100	0	230	101300000	1000	0	0	-1	0
27213883	7025	0	0	-100	0	230	101300000	1000	0	0	-1	0
27226443	7025	0	0	-100	0	230	101300000	1000	0	0	-1	0
27239004	7020	4	0	-100	0	230	101300000	1000	0	0	-1	0
27251563	7027	0	0	-100	0	230	101300000	1000	0	0	-1	0
27264123	7015	0	0	-100	0	230	101300000	1000	0	0	-1	0
27276683	7025	0	0	-100	0	230	101300000	1000	0	0	-1	0
27289243	7020	0	0	-100	0	230	101300000	1000	0	0	-1	0
27301803	7027	0	0	-100	0	230	101300000	1000	0	0	-1	0
27314363	7022	0	0	-100	0	230	101300000	1000	0	0	-1	0
27326923	7021	0	0	-100	0	230	101300000	1000	0	0	-1	0
27339483	7019	0	0	-100	0	230	101300000	1000	0	0	-1	0
27352043	7022	0	0	-100	0	230	101300000	1000	0	0	-1	0
27364603	7018	0	0	-100	0	230	101300000	1000	0	0	-1	0
27377163	7016	2	0	-100	0	230	101300000	1000	0	0	-1	0
27389723	7026	0	0	-100	0	230	101300000	1000	0	0	-1	0
27402283	7024	0	0	-100	0	230	101300000	1000	0	0	-1	0
27414843	7027	0	0	-100	0	230	101300000	1000	0	0	-1	0
27427403	7023	0	0	-100	0	230	101300000	1000	0	0	-1	0
27439963	7021	0	0	-100	0	230	101300000	1000	0	0	-1	0
27452523	7021	0	0	-100	0	230	101300000	1000	0	0	-1	0
27465083	7023	0	0	-100	0	230	101300000	1000	0	0	-1	0
27477643	7016	0	0	-100	0	230	101300000	1000	0	0	-1	0
27490203	7021	6	0	-100	0	230	101300000	1000	0	0	-1	0
27502763	7018	4	0	-100	0	230	101300000	1000	0	0	-1	0
27515323	7016	3	0	-100	0	230	101300000	1000	0	0	-1	0
27527883	7020	4	0	-100	0	230	101300000	1000	0	0	-1	0
27540443	7024	3	0	-100	0	230	101300000	1000	0	0	-1	0
27553004	7020	0	0	-100	0	230	101300000	1000	0	0	-1	0
27565563	7016	2	0	-100	0	230	101300000	1000	0	0	-1	0
27578123	7012	3	0	-100	0	230	101300000	1000	0	0	-1	0
27590683	7022	0	0	-100	0	230	101300000	1000	0	0	-1	0
27603243	7022	0	0	-100	0	230	101300000	1000	0	0	-1	0
27615803	7030	0	0	-100	0	230	101300000	1000	0	0	-1	0
27628363	7026	0	0	-100	0	230	101300000	1000	0	0	-1	0
27640923	7027	0	0	-100	0	230	101300000	1000	0	0	-1	0
27653483	7016	0	0	-100	0	230	101300000	1000	0	0	-1	0
27666043	7020	4	0	-100	0	230	101300000	1000	0	0	-1	0
27678603	7022	1	0	-100	0	230	101300000	1000	0	0	-1	0
27691163	7021	0	0	-100	0	230	101300000	1000	0	0	-1	0
27703723	7023	0	0	-100	0	230	101300000	1000	0	0	-1	0
27716283	7027	0	0	-100	0	230	101300000	1000	0	0	-1	0
27728843	7021	0	0	-100	0	230	101300000	1000	0	0	-1	0
27741403	7022	0	0	-100	0	230	101300000	1000	0	0	-1	0
27753963	7022	3	0	-100	0	230	101300000	1000	0	0	-1	0
27766523	7022	3	0	-100	0	230	101300000	1000	0	0	-1	0
27779083	7021	0	0	-100	0	230	101300000	1000	0	0	-1	0
27791643	7027	0	0	-100	0	230	101300000	1000	0	0	-1	0
27804203	7025	0	0	-100	0	230	101300000	1000	0	0	-1	0
27816763	7019	0	0	-100	0	230	101300000	1000	0	0	-1	0
27829323	7009	2	0	-100	0	230	101300000	1000	0	0	-1	0
27841883	7021	4	0	-100	0	230	101300000	1000	0	0	-1	0
27854443	7024	0	0	-100	0	230	101300000	1000	0	0	-1	0
27867004	7018	4	0	-100	0	230	101300000	1000	0	0	-1	0
27879563	7023	0	0	-100	0	230	101300000	1000	0	0	-1	0
27892123	7017	0	0	-100	0	230	101300000	1000	0	0	-1	0
27904683	7020	0	0	-100	0	230	101300000	1000	0	0	-1	0
27917243	7020	3	0	-100	0	230	101300000	1000	0	0	-1	0
27929803	7016	3	0	-100	0	230	101300000	1000	0	0	-1	0
27942363	7022	0	0	-100	0	230	101300000	1000	0	0	-1	0
27954923	7032	0	0	-100	0	230	101300000	1000	0	0	-1	0
27967483	7024	0	0	-100	0	230	101300000	1000	0	0	-1	0
27980043	7027	0	0	-100	0	230	101300000	1000	0	0	-1	0
27992603	7023	0	0	-100	0	230	101300000	1000	0	0	-1	0
28005163	7021	0	0	-100	0	230	101300000	1000	0	0	-1	0
28017723	7021	0	0	-100	0	230	101300000	1000	0	0	-1	0
28030283	7021	0	0	-100	0	230	101300000	1000	0	0	-1	0
28042843	7020	5	0	-100	0	230	101300000	1000	0	0	-1	0
28055403	7022	4	0	-100	0	230	101300000	1000	0	0	-1	0
28067963	7024	4	0	-100	0	230	101300000	1000	0	0	-1	0
28080523	7020	4	0	-100	0	230	101300000	1000	0	0	-1	0
28093083	7017	0	0	-100	0	230	101300000	1000	0	0	-1	0
28105643	7020	0	0	-100	0	230	101300000	1000	0	0	-1	0
28118203	7021	0	0	-100	0	230	101300000	1000	0	0	-1	0
28130763	7023	0	0	-100	0	230	101300000	1000	0	0	-1	0
28143323	7018	0	0	-100	0	230	101300000	1000	0	0	-1	0
28155883	7027	0	0	-100	0	230	101300000	1000	0	0	-1	0
28168443	7023	0	0	-100	0	230	101300000	1000	0	0	-1	0
28181004	7020	0	0	-100	0	230	101300000	1000	0	0	-1	0
28193563	7020	1	0	-100	0	230	101300000	1000	0	0	-1	0
28206123	7012	0	0	-100	0	230	101300000	1000	0	0	-1	0
28218683	7021	0	0	-100	0	230	101300000	1000	0	0	-1	0
28231243	7030	0	0	-100	0	230	101300000	1000	0	0	-1	0
28243803	7027	0	0	-100	0	230	101300000	1000	0	0	-1	0
28256363	7019	0	0	-100	0	230	101300000	1000	0	0	-1	0
28268923	7014	0	0	-100	0	230	101300000	1000	0	0	-1	0
28281483	7020	1	0	-100	0	230	101300000	1000	0	0	-1	0
28294043	7032	0	0	-100	0	230	101300000	1000	0	0	-1	0
28306603	7023	0	0	-100	0	230	101300000	1000	0	0	-1	0
28319163	7019	0	0	-100	0	230	101300000	1000	0	0	-1	0
28331723	7022	1	0	-100	0	230	101300000	1000	0	0	-1	0
28344283	7018	3	0	-100	0	230	101300000	1000	0	0	-1	0
28356843	7025	0	0	-100	0	230	101300000	1000	0	0	-1	0
28369403	7021	0	0	-100	0	230	101300000	1000	0	0	-1	0
28381963	7016	6	0	-100	0	230	101300000	1000	0	0	-1	0
28394523	7024	0	0	-100	0	230	101300000	1000	0	0	-1	0
28407083	7025	0	0	-100	0	230	101300000	1000	0	0	-1	0
28419643	7019	0	0	-100	0	230	101300000	1000	0	0	-1	0
28432203	7016	0	0	-100	0	230	101300000	1000	0	0	-1	0
28444763	7021	0	0	-100	0	230	101300000	1000	0	0	-1	0
28457323	7017	2	0	-100	0	230	101300000	1000	0	0	-1	0
28469883	7018	4	0	-100	0	230	101300000	1000	0	0	-1	0
28482443	7020	3	0	-100	0	230	101300000	1000	0	0	-1	0
28495004	7025	0	0	-100	0	230	101300000	1000	0	0	-1	0
28507563	7018	0	0	-100	0	230	101300000	1000	0	0	-1	0
28520123	7014	1	0	-100	0	230	101300000	1000	0	0	-1	0
28532683	7023	0	0	-100	0	230	101300000	1000	0	0	-1	0
28545243	7020	0	0	-100	0	230	101300000	1000	0	0	-1	0
28557803	7027	0	0	-100	0	230	101300000	1000	0	0	-1	0
28570363	7025	0	0	-100	0	230	101300000	1000	0	0	-1	0
28582923	7028	0	0	-100	0	230	101300000	1000	0	0	-1	0
28595483	7019	1	0	-100	0	230	101300000	1000	0	0	-1	0
28608043	7019	3	0	-100	0	230	101300000	1000	0	0	-1	0
28620603	7022	2	0	-100	0	230	101300000	1000	0	0	-1	0
28633163	7019	1	0	-100	0	230	101300000	1000	0	0	-1	0
28645723	7018	0	0	-100	0	230	101300000	1000	0	0	-1	0
28658283	7014	0	0	-100	0	230	101300000	1000	0	0	-1	0
28670843	7022	4	0	-100	0	230	101300000	1000	0	0	-1	0
28683403	7022	3	0	-100	0	230	101300000	1000	0	0	-1	0
28695963	7018	4	0	-100	0	230	101300000	1000	0	0	-1	0
28708523	7024	3	0	-100	0	230	101300000	1000	0	0	-1	0
28721083	7024	3	0	-100	0	230	101300000	1000	0	0	-1	0
28733643	7022	2	0	-100	0	230	101300000	1000	0	0	-1	0
28746203	7019	2	0	-100	0	230	101300000	1000	0	0	-1	0
28758763	7018	1	0	-100	0	230	101300000	1000	0	0	-1	0
28771323	7012	2	0	-100	0	230	101300000	1000	0	0	-1	0
28783883	7018	1	0	-100	0	230	101300000	1000	0	0	-1	0
28821563	7018	0	0	-100	0	230	101300000	1000	0	0	-1	0
28834123	7012	2	0	-100	0	230	101300000	1000	0	0	-1	0
28846683	7027	0	0	-100	0	230	101300000	1000	0	0	-1	0
28859243	7025	0	0	-100	0	230	101300000	1000	0	0	-1	0
28871803	7030	0	0	-100	0	230	101300000	1000	0	0	-1	0
28884363	7022	0	0	-100	0	230	101300000	1000	0	0	-1	0
28896923	7028	0	0	-100	0	230	101300000	1000	0	0	-1	0
28909483	7029	0	0	-100	0	230	101300000	1000	0	0	-1	0
28922043	7021	0	0	-100	0	230	101300000	1000	0	0	-1	0
28934603	7016	4	0	-100	0	230	101300000	1000	0	0	-1	0
28947163	7022	4	0	-100	0	230	101300000	1000	0	0	-1	0
29009963	7017	1	0	-100	0	230	101300000	1000	0	0	-1	0
29022523	7020	0	0	-100	0	230	101300000	1000	0	0	-1	0
29035083	7021	0	0	-100	0	230	101300000	1000	0	0	-1	0
29047643	7023	0	0	-100	0	230	101300000	1000	0	0	-1	0
29060203	7023	0	0	-100	0	230	101300000	1000	0	0	-1	0
29072763	7022	0	0	-100	0	230	101300000	1000	0	0	-1	0
29085323	7016	2	0	-100	0	230	101300000	1000	0	0	-1	0
29097883	7024	3	0	-100	0	230	101300000	1000	0	0	-1	0
29110443	7018	4	0	-100	0	230	101300000	1000	0	0	-1	0
29123004	7025	0	0	-100	0	230	101300000	1000	0	0	-1	0
29135563	7019	0	0	-100	0	230	101300000	1000	0	0	-1	0
29148123	7012	0	0	-100	0	230	101300000	1000	0	0	-1	0
29160683	7022	0	0	-100	0	230	101300000	1000	0	0	-1	0
29173243	7025	0	0	-100	0	230	101300000	1000	0	0	-1	0
29185803	7028	0	0	-100	0	230	101300000	1000	0	0	-1	0
29198363	7018	1	0	-100	0	230	101300000	1000	0	0	-1	0
29210923	7018	0	0	-100	0	230	101300000	1000	0	0	-1	0
29223483	7022	0	0	-100	0	230	101300000	1000	0	0	-1	0
29236043	7030	0	0	-100	0	230	101300000	1000	0	0	-1	0
29248603	7022	0	0	-100	0	230	101300000	1000	0	0	-1	0
29261163	7018	3	0	-100	0	230	101300000	1000	0	0	-1	0
29273723	7022	4	0	-100	0	230	101300000	1000	0	0	-1	0
29286283	7019	0	0	-100	0	230	101300000	1000	0	0	-1	0
29298843	7027	0	0	-100	0	230	101300000	1000	0	0	-1	0
29311403	7024	0	0	-100	0	230	101300000	1000	0	0	-1	0
29323963	7021	4	0	-100	0	230	101300000	1000	0	0	-1	0
29336523	7016	0	0	-100	0	230	101300000	1000	0	0	-1	0
29349083	7023	0	0	-100	0	230	101300000	1000	0	0	-1	0
29361643	7028	0	0	-100	0	230	101300000	1000	0	0	-1	0
29374203	7016	1	0	-100	0	230	101300000	1000	0	0	-1	0
29386763	7020	2	0	-100	0	230	101300000	1000	0	0	-1	0
29399323	7012	5	0	-100	0	230	101300000	1000	0	0	-1	0
29411883	7019	0	0	-100	0	230	101300000	1000	0	0	-1	0
29424443	7023	0	0	-100	0	230	101300000	1000	0	0	-1	0
29437004	7019	3	0	-100	0	230	101300000	1000	0	0	-1	0
29449563	7023	0	0	-100	0	230	101300000	1000	0	0	-1	0
29462123	7014	3	0	-100	0	230	101300000	1000	0	0	-1	0
29474683	7019	0	0	-100	0	230	101300000	1000	0	0	-1	0
29487243	7019	0	0	-100	0	230	101300000	1000	0	0	-1	0
29499803	7022	0	0	-100	0	230	101300000	1000	0	0	-1	0
29512363	7019	0	0	-100	0	230	101300000	1000	0	0	-1	0
29524923	7016	2	0	-100	0	230	101300000	1000	0	0	-1	0
29537483	7016	3	0	-100	0	230	101300000	1000	0	0	-1	0
29550043	7020	0	0	-100	0	230	101300000	1000	0	0	-1	0
29562603	7021	0	0	-100	0	230	101300000	1000	0	0	-1	0
29575163	7025	0	0	-100	0	230	101300000	1000	0	0	-1	0
29587723	7018	2	0	-100	0	230	101300000	1000	0	0	-1	0
29600283	7018	0	0	-100	0	230	101300000	1000	0	0	-1	0
29612843	7023	0	0	-100	0	230	101300000	1000	0	0	-1	0
29625403	7021	0	0	-100	0	230	101300000	1000	0	0	-1	0
29637963	7022	3	0	-100	0	230	101300000	1000	0	0	-1	0
29650523	7016	0	0	-100	0	230	101300000	1000	0	0	-1	0
29663083	7022	0	0	-100	0	230	101300000	1000	0	0	-1	0
29675643	7022	0	0	-100	0	230	101300000	1000	0	0	-1	0
29688203	7021	0	0	-100	0	230	101300000	1000	0	0	-1	0
29700763	7023	0	0	-100	0	230	101300000	1000	0	0	-1	0
29713323	7017	0	0	-100	0	230	101300000	1000	0	0	-1	0
29725883	7026	0	0	-100	0	230	101300000	1000	0	0	-1	0
29738443	7025	0	0	-100	0	230	101300000	1000	0	0	-1	0
29751004	7014	3	0	-100	0	230	101300000	1000	0	0	-1	0
29763563	7032	0	0	-100	0	230	101300000	1000	0	0	-1	0
29776123	7011	1	0	-100	0	230	101300000	1000	0	0	-1	0
29788683	7020	0	0	-100	0	230	101300000	1000	0	0	-1	0
29801243	7018	2	0	-100	0	230	101300000	1000	0	0	-1	0
29813803	7021	3	0	-100	0	230	101300000	1000	0	0	-1	0
29826363	7020	4	0	-100	0	230	101300000	1000	0	0	-1	0
29838923	7020	4	0	-100	0	230	101300000	1000	0	0	-1	0
29851483	7021	4	0	-100	0	230	101300000	1000	0	0	-1	0
29864043	7019	3	0	-100	0	230	101300000	1000	0	0	-1	0
29876603	7019	1	0	-100	0	230	101300000	1000	0	0	-1	0
29889163	7028	0	0	-100	0	230	101300000	1000	0	0	-1	0
29901723	7025	0	0	-100	0	230	101300000	1000	0	0	-1	0
29914283	7021	0	0	-100	0	230	101300000	1000	0	0	-1	0
29926843	7018	0	0	-100	0	230	101300000	1000	0	0	-1	0
29939403	7012	0	0	-100	0	230	101300000	1000	0	0	-1	0
29951963	7023	4	0	-100	0	230	101300000	1000	0	0	-1	0
29964523	7021	4	0	-100	0	230	101300000	1000	0	0	-1	0
29977083	7021	4	0	-100	0	230	101300000	1000	0	0	-1	0
29989643	7018	3	0	-100	0	230	101300000	1000	0	0	-1	0
30002203	7020	3	0	-100	0	230	101300000	1000	0	0	-1	0
30014763	7024	3	0	-100	0	230	101300000	1000	0	0	-1	0
30027323	7019	0	0	-100	0	230	101300000	1000	0	0	-1	0
30039883	7018	0	0	-100	0	230	101300000	1000	0	0	-1	0
30052443	7020	0	0	-100	0	230	101300000	1000	0	0	-1	0
30065004	7027	0	0	-100	0	230	101300000	1000	0	0	-1	0
30077563	7014	0	0	-100	0	230	101300000	1000	0	0	-1	0
30090123	7006	0	0	-100	0	230	101300000	1000	0	0	-1	0
30102683	7019	0	0	-100	0	230	101300000	1000	0	0	-1	0
30115243	7020	4	0	-100	0	230	101300000	1000	0	0	-1	0
30127803	7019	3	0	-100	0	230	101300000	1000	0	0	-1	0
30140363	7018	2	0	-100	0	230	101300000	1000	0	0	-1	0
30152923	7018	3	0	-100	0	230	101300000	1000	0	0	-1	0
30165483	7022	0	0	-100	0	230	101300000	1000	0	0	-1	0
30178043	7030	0	0	-100	0	230	101300000	1000	0	0	-1	0
30190603	7022	0	0	-100	0	230	101300000	1000	0	0	-1	0
30203163	7027	0	0	-100	0	230	101300000	1000	0	0	-1	0
30215723	7023	0	0	-100	0	230	101300000	1000	0	0	-1	0
30228283	7022	0	0	-100	0	230	101300000	1000	0	0	-1	0
30240843	7016	0	0	-100	0	230	101300000	1000	0	0	-1	0
30253403	7017	0	0	-100	0	230	101300000	1000	0	0	-1	0
30265963	7022	3	0	-100	0	230	101300000	1000	0	0	-1	0
30278523	7022	2	0	-100	0	230	101300000	1000	0	0	-1	0
30291083	7022	4	0	-100	0	230	101300000	1000	0	0	-1	0
30303643	7020	2	0	-100	0	230	101300000	1000	0	0	-1	0
30316203	7024	0	0	-100	0	230	101300000	1000	0	0	-1	0
30328763	7031	0	0	-100	0	230	101300000	1000	0	0	-1	0
30341323	7015	0	0	-100	0	230	101300000	1000	0	0	-1	0
30353883	7021	0	0	-100	0	230	101300000	1000	0	0	-1	0
30366443	7025	0	0	-100	0	230	101300000	1000	0	0	-1	0
30379004	7026	0	0	-100	0	230	101300000	1000	0	0	-1	0
30391563	7018	3	0	-100	0	230	101300000	1000	0	0	-1	0
30404123	7012	1	0	-100	0	230	101300000	1000	0	0	-1	0
30416683	7030	0	0	-100	0	230	101300000	1000	0	0	-1	0
30429243	7025	0	0	-100	0	230	101300000	1000	0	0	-1	0
30441803	7020	0	0	-100	0	230	101300000	1000	0	0	-1	0
30454363	7024	3	0	-100	0	230	101300000	1000	0	0	-1	0
30466923	7020	1	0	-100	0	230	101300000	1000	0	0	-1	0
30479483	7027	0	0	-100	0	230	101300000	1000	0	0	-1	0
30492043	7025	0	0	-100	0	230	101300000	1000	0	0	-1	0
30504603	7025	0	0	-100	0	230	101300000	1000	0	0	-1	0
30517163	7019	0	0	-100	0	230	101300000	1000	0	0	-1	0
30529723	7021	0	0	-100	0	230	101300000	1000	0	0	-1	0
30542283	7022	3	0	-100	0	230	101300000	1000	0	0	-1	0
30554843	7024	0	0	-100	0	230	101300000	1000	0	0	-1	0
30567403	7028	0	0	-100	0	230	101300000	1000	0	0	-1	0
30579963	7014	0	0	-100	0	230	101300000	1000	0	0	-1	0
30592523	7018	3	0	-100	0	230	101300000	1000	0	0	-1	0
30605083	7025	0	0	-100	0	230	101300000	1000	0	0	-1	0
30617643	7021	0	0	-100	0	230	101300000	1000	0	0	-1	0
30630203	7020	4	0	-100	0	230	101300000	1000	0	0	-1	0
30642763	7027	0	0	-100	0	230	101300000	1000	0	0	-1	0
30655323	7022	0	0	-100	0	230	101300000	1000	0	0	-1	0
30667883	7023	0	0	-100	0	230	101300000	1000	0	0	-1	0
30680443	7018	0	0	-100	0	230	101300000	1000	0	0	-1	0
30693004	7027	0	0	-100	0	230	101300000	1000	0	0	-1	0
30705563	7019	0	0	-100	0	230	101300000	1000	0	0	-1	0
30718123	7019	0	0	-100	0	230	101300000	1000	0	0	-1	0
30730683	7016	0	0	-100	0	230	101300000	1000	0	0	-1	0
30743243	7022	3	0	-100	0	230	101300000	1000	0	0	-1	0
30755803	7020	0	0	-100	0	230	101300000	1000	0	0	-1	0
30768363	7023	0	0	-100	0	230	101300000	1000	0	0	-1	0
30780923	7025	0	0	-100	0	230	101300000	1000	0	0	-1	0
30793483	7018	0	0	-100	0	230	101300000	1000	0	0	-1	0
30806043	7016	4	0	-100	0	230	101300000	1000	0	0	-1	0
30818603	7024	0	0	-100	0	230	101300000	1000	0	0	-1	0
30831163	7030	0	0	-100	0	230	101300000	1000	0	0	-1	0
30843723	7022	0	0	-100	0	230	101300000	1000	0	0	-1	0
30856283	7020	2	0	-100	0	230	101300000	1000	0	0	-1	0
30868843	7023	0	0	-100	0	230	101300000	1000	0	0	-1	0
30881403	7022	0	0	-100	0	230	101300000	1000	0	0	-1	0
30893963	7019	0	0	-100	0	230	101300000	1000	0	0	-1	0
30906523	7019	2	0	-100	0	230	101300000	1000	0	0	-1	0
30919083	7022	0	0	-100	0	230	101300000	1000	0	0	-1	0
30931643	7028	0	0	-100	0	230	101300000	1000	0	0	-1	0
30944203	7021	0	0	-100	0	230	101300000	1000	0	0	-1	0
30956763	7018	4	0	-100	0	230	101300000	1000	0	0	-1	0
30969323	7012	1	0	-100	0	230	101300000	1000	0	0	-1	0
30981883	7025	0	0	-100	0	230	101300000	1000	0	0	-1	0
30994443	7021	0	0	-100	0	230	101300000	1000	0	0	-1	0
31007004	7027	0	0	-100	0	230	101300000	1000	0	0	-1	0
31019563	7022	3	0	-100	0	230	101300000	1000	0	0	-1	0
31032123	7011	1	0	-100	0	230	101300000	1000	0	0	-1	0
31044683	7022	0	0	-100	0	230	101300000	1000	0	0	-1	0
31057243	7026	0	0	-100	0	230	101300000	1000	0	0	-1	0
31069803	7029	0	0	-100	0	230	101300000	1000	0	0	-1	0
31082363	7021	0	0	-100	0	230	101300000	1000	0	0	-1	0
31094923	7020	0	0	-100	0	230	101300000	1000	0	0	-1	0
31107483	7020	0	0	-100	0	230	101300000	1000	0	0	-1	0
31120043	7016	0	0	-100	0	230	101300000	1000	0	0	-1	0
31132603	7018	0	0	-100	0	230	101300000	1000	0	0	-1	0
31145163	7019	0	0	-100	0	230	101300000	1000	0	0	-1	0
31157723	7022	0	0	-100	0	230	101300000	1000	0	0	-1	0
31170283	7020	0	0	-100	0	230	101300000	1000	0	0	-1	0
31182843	7022	0	0	-100	0	230	101300000	1000	0	0	-1	0
31195403	7021	0	0	-100	0	230	101300000	1000	0	0	-1	0
31207963	7025	0	0	-100	0	230	101300000	1000	0	0	-1	0
31220523	7021	0	0	-100	0	230	101300000	1000	0	0	-1	0
31233083	7019	0	0	-100	0	230	101300000	1000	0	0	-1	0
31245643	7018	0	0	-100	0	230	101300000	1000	0	0	-1	0
31258203	7017	0	0	-100	0	230	101300000	1000	0	0	-1	0
31270763	7021	2	0	-100	0	230	101300000	1000	0	0	-1	0
31283323	7011	5	0	-100	0	230	101300000	1000	0	0	-1	0
31295883	7020	2	0	-100	0	230	101300000	1000	0	0	-1	0
31308443	7020	3	0	-100	0	230	101300000	1000	0	0	-1	0
31321004	7022	0	0	-100	0	230	101300000	1000	0	0	-1	0
31333563	7018	1	0	-100	0	230	101300000	1000	0	0	-1	0
31346123	7010	3	0	-100	0	230	101300000	1000	0	0	-1	0
31358683	7022	3	0	-100	0	230	101300000	1000	0	0	-1	0
31371243	7024	2	0	-100	0	230	101300000	1000	0	0	-1	0
31383803	7018	0	0	-100	0	230	101300000	1000	0	0	-1	0
31396363	7021	0	0	-100	0	230	101300000	1000	0	0	-1	0
31408923	7021	0	0	-100	0	230	101300000	1000	0	0	-1	0
31421483	7025	0	0	-100	0	230	101300000	1000	0	0	-1	0
31434043	7026	0	0	-100	0	230	101300000	1000	0	0	-1	0
31446603	7027	0	0	-100	0	230	101300000	1000	0	0	-1	0
31459163	7020	0	0	-100	0	230	101300000	1000	0	0	-1	0
31471723	7024	2	0	-100	0	230	101300000	1000	0	0	-1	0
31484283	7016	0	0	-100	0	230	101300000	1000	0	0	-1	0
31496843	7016	0	0	-100	0	230	101300000	1000	0	0	-1	0
31509403	7021	0	0	-100	0	230	101300000	1000	0	0	-1	0
31521963	7025	0	0	-100	0	230	101300000	1000	0	0	-1	0
31534523	7027	0	0	-100	0	230	101300000	1000	0	0	-1	0
31547083	7020	4	0	-100	0	230	101300000	1000	0	0	-1	0
31559643	7020	0	0	-100	0	230	101300000	1000	0	0	-1	0
31572203	7016	0	0	-100	0	230	101300000	1000	0	0	-1	0
31584763	7023	0	0	-100	0	230	101300000	1000	0	0	-1	0
31597323	7020	0	0	-100	0	230	101300000	1000	0	0	-1	0
31609883	7025	0	0	-100	0	230	101300000	1000	0	0	-1	0
31622443	7020	2	0	-100	0	230	101300000	1000	0	0	-1	0
31635004	7026	0	0	-100	0	230	101300000	1000	0	0	-1	0
31647563	7023	0	0	-100	0	230	101300000	1000	0	0	-1	0
31660123	7019	0	0	-100	0	230	101300000	1000	0	0	-1	0
31672683	7022	0	0	-100	0	230	101300000	1000	0	0	-1	0
31685243	7020	4	0	-100	0	230	101300000	1000	0	0	-1	0
31697803	7019	0	0	-100	0	230	101300000	1000	0	0	-1	0
31710363	7019	0	0	-100	0	230	101300000	1000	0	0	-1	0
31722923	7024	0	0	-100	0	230	101300000	1000	0	0	-1	0
31735483	7027	0	0	-100	0	230	101300000	1000	0	0	-1	0
31748043	7020	0	0	-100	0	230	101300000	1000	0	0	-1	0
31760603	7020	1	0	-100	0	230	101300000	1000	0	0	-1	0
31773163	7020	1	0	-100	0	230	101300000	1000	0	0	-1	0
31785723	7022	3	0	-100	0	230	101300000	1000	0	0	-1	0
31798283	7020	4	0	-100	0	230	101300000	1000	0	0	-1	0
31810843	7022	4	0	-100	0	230	101300000	1000	0	0	-1	0
31823403	7020	4	0	-100	0	230	101300000	1000	0	0	-1	0
31835963	7021	3	0	-100	0	230	101300000	1000	0	0	-1	0
31886203	7024	0	0	-100	0	230	101300000	1000	0	0	-1	0
31898763	7023	0	0	-100	0	230	101300000	1000	0	0	-1	0
31911323	7015	0	0	-100	0	230	101300000	1000	0	0	-1	0
31923883	7023	0	0	-100	0	230	101300000	1000	0	0	-1	0
31936443	7021	0	0	-100	0	230	101300000	1000	0	0	-1	0
31949004	7019	0	0	-100	0	230	101300000	1000	0	0	-1	0
31961563	7020	0	0	-100	0	230	101300000	1000	0	0	-1	0
31974123	7010	0	0	-100	0	230	101300000	1000	0	0	-1	0
31986683	7014	0	0	-100	0	230	101300000	1000	0	0	-1	0
31999243	7019	0	0	-100	0	230	101300000	1000	0	0	-1	0
32011803	7018	3	0	-100	0	230	101300000	1000	0	0	-1	0
32024363	7020	2	0	-100	0	230	101300000	1000	0	0	-1	0
32087163	7023	0	0	-100	0	230	101300000	1000	0	0	-1	0
32099723	7025	0	0	-100	0	230	101300000	1000	0	0	-1	0
32112283	7030	0	0	-100	0	230	101300000	1000	0	0	-1	0
32124843	7028	0	0	-100	0	230	101300000	1000	0	0	-1	0
32137403	7025	0	0	-100	0	230	101300000	1000	0	0	-1	0
32149963	7027	0	0	-100	0	230	101300000	1000	0	0	-1	0
32162523	7021	0	0	-100	0	230	101300000	1000	0	0	-1	0
32175083	7023	0	0	-100	0	230	101300000	1000	0	0	-1	0
32187643	7023	0	0	-100	0	230	101300000	1000	0	0	-1	0
32200203	7018	0	0	-100	0	230	101300000	1000	0	0	-1	0
32212763	7020	0	0	-100	0	230	101300000	1000	0	0	-1	0
32225323	7008	0	0	-100	0	230	101300000	1000	0	0	-1	0
32237883	7019	0	0	-100	0	230	101300000	1000	0	0	-1	0
32250443	7019	0	0	-100	0	230	101300000	1000	0	0	-1	0
32263004	7027	0	0	-100	0	230	101300000	1000	0	0	-1	0
32275563	7018	0	0	-100	0	230	101300000	1000	0	0	-1	0
32288123	7019	0	0	-100	0	230	101300000	1000	0	0	-1	0
32300683	7017	0	0	-100	0	230	101300000	1000	0	0	-1	0
32313243	7022	0	0	-100	0	230	101300000	1000	0	0	-1	0
32325803	7023	0	0	-100	0	230	101300000	1000	0	0	-1	0
32338363	7016	0	0	-100	0	230	101300000	1000	0	0	-1	0
32350923	7021	0	0	-100	0	230	101300000	1000	0	0	-1	0
32363483	7019	0	0	-100	0	230	101300000	1000	0	0	-1	0
32376043	7023	0	0	-100	0	230	101300000	1000	0	0	-1	0
32388603	7020	0	0	-100	0	230	101300000	1000	0	0	-1	0
32401163	7021	0	0	-100	0	230	101300000	1000	0	0	-1	0
32413723	7021	2	0	-100	0	230	101300000	1000	0	0	-1	0
32426283	7022	3	0	-100	0	230	101300000	1000	0	0	-1	0
32438843	7022	3	0	-100	0	230	101300000	1000	0	0	-1	0
32451403	7032	0	0	-100	0	230	101300000	1000	0	0	-1	0
32463963	7027	0	0	-100	0	230	101300000	1000	0	0	-1	0
32476523	7019	0	0	-100	0	230	101300000	1000	0	0	-1	0
32489083	7018	0	0	-100	0	230	101300000	1000	0	0	-1	0
32501643	7022	4	0	-100	0	230	101300000	1000	0	0	-1	0
32514203	7018	1	0	-100	0	230	101300000	1000	0	0	-1	0
32526763	7021	0	0	-100	0	230	101300000	1000	0	0	-1	0
32539323	7019	0	0	-100	0	230	101300000	1000	0	0	-1	0
32551883	7025	0	0	-100	0	230	101300000	1000	0	0	-1	0
32564443	7023	0	0	-100	0	230	101300000	1000	0	0	-1	0
32577004	7014	0	0	-100	0	230	101300000	1000	0	0	-1	0
32589563	7023	0	0	-100	0	230	101300000	1000	0	0	-1	0
32602123	7016	0	0	-100	0	230	101300000	1000	0	0	-1	0
32614683	7022	0	0	-100	0	230	101300000	1000	0	0	-1	0
32627243	7018	0	0	-100	0	230	101300000	1000	0	0	-1	0
32639803	7021	2	0	-100	0	230	101300000	1000	0	0	-1	0
32652363	7024	4	0	-100	0	230	101300000	1000	0	0	-1	0
32664923	7020	1	0	-100	0	230	101300000	1000	0	0	-1	0
32677483	7019	0	0	-100	0	230	101300000	1000	0	0	-1	0
32690043	7018	0	0	-100	0	230	101300000	1000	0	0	-1	0
32702603	7018	0	0	-100	0	230	101300000	1000	0	0	-1	0
32715163	7016	2	0	-100	0	230	101300000	1000	0	0	-1	0
32727723	7016	3	0	-100	0	230	101300000	1000	0	0	-1	0
32740283	7022	2	0	-100	0	230	101300000	1000	0	0	-1	0
32752843	7020	3	0	-100	0	230	101300000	1000	0	0	-1	0
32765403	7019	0	0	-100	0	230	101300000	1000	0	0	-1	0
32777963	7021	0	0	-100	0	230	101300000	1000	0	0	-1	0
32790523	7020	0	0	-100	0	230	101300000	1000	0	0	-1	0
32803083	7018	0	0	-100	0	230	101300000	1000	0	0	-1	0
32815643	7019	0	0	-100	0	230	101300000	1000	0	0	-1	0
32828203	7021	0	0	-100	0	230	101300000	1000	0	0	-1	0
32840763	7021	0	0	-100	0	230	101300000	1000	0	0	-1	0
32853323	7017	0	0	-100	0	230	101300000	1000	0	0	-1	0
32865883	7027	0	0	-100	0	230	101300000	1000	0	0	-1	0
32878443	7022	0	0	-100	0	230	101300000	1000	0	0	-1	0
32891004	7018	4	0	-100	0	230	101300000	1000	0	0	-1	0
32903563	7026	0	0	-100	0	230	101300000	1000	0	0	-1	0
32916123	7018	0	0	-100	0	230	101300000	1000	0	0	-1	0
32928683	7025	0	0	-100	0	230	101300000	1000	0	0	-1	0
32941243	7032	0	0	-100	0	230	101300000	1000	0	0	-1	0
32953803	7027	0	0	-100	0	230	101300000	1000	0	0	-1	0
32966363	7024	0	0	-100	0	230	101300000	1000	0	0	-1	0
32978923	7022	0	0	-100	0	230	101300000	1000	0	0	-1	0
32991483	7023	0	0	-100	0	230	101300000	1000	0	0	-1	0
33004043	7023	0	0	-100	0	230	101300000	1000	0	0	-1	0
33016603	7016	0	0	-100	0	230	101300000	1000	0	0	-1	0
33029163	7019	4	0	-100	0	230	101300000	1000	0	0	-1	0
33041723	7021	0	0	-100	0	230	101300000	1000	0	0	-1	0
33054283	7026	0	0	-100	0	230	101300000	1000	0	0	-1	0
33066843	7023	0	0	-100	0	230	101300000	1000	0	0	-1	0
33079403	7021	0	0	-100	0	230	101300000	1000	0	0	-1	0
33091963	7019	0	0	-100	0	230	101300000	1000	0	0	-1	0
33104523	7014	0	0	-100	0	230	101300000	1000	0	0	-1	0
33117083	7022	3	0	-100	0	230	101300000	1000	0	0	-1	0
33129643	7021	4	0	-100	0	230	101300000	1000	0	0	-1	0
33142203	7022	1	0	-100	0	230	101300000	1000	0	0	-1	0
33154763	7022	0	0	-100	0	230	101300000	1000	0	0	-1	0
33167323	7021	0	0	-100	0	230	101300000	1000	0	0	-1	0
33179883	7024	0	0	-100	0	230	101300000	1000	0	0	-1	0
33192443	7025	0	0	-100	0	230	101300000	1000	0	0	-1	0
33205004	7021	0	0	-100	0	230	101300000	1000	0	0	-1	0
33217563	7022	0	0	-100	0	230	101300000	1000	0	0	-1	0
33230123	7012	6	0	-100	0	230	101300000	1000	0	0	-1	0
33242683	7022	1	0	-100	0	230	101300000	1000	0	0	-1	0
33255243	7026	0	0	-100	0	230	101300000	1000	0	0	-1	0
33267803	7019	0	0	-100	0	230	101300000	1000	0	0	-1	0
33280363	7021	1	0	-100	0	230	101300000	1000	0	0	-1	0
33292923	7024	0	0	-100	0	230	101300000	1000	0	0	-1	0
33305483	7025	0	0	-100	0	230	101300000	1000	0	0	-1	0
33318043	7017	0	0	-100	0	230	101300000	1000	0	0	-1	0
33330603	7020	0	0	-100	0	230	101300000	1000	0	0	-1	0
33343163	7025	0	0	-100	0	230	101300000	1000	0	0	-1	0
33355723	7018	0	0	-100	0	230	101300000	1000	0	0	-1	0
33368283	7018	4	0	-100	0	230	101300000	1000	0	0	-1	0
33380843	7020	0	0	-100	0	230	101300000	1000	0	0	-1	0
33393403	7030	0	0	-100	0	230	101300000	1000	0	0	-1	0
33405963	7021	0	0	-100	0	230	101300000	1000	0	0	-1	0
33418523	7022	3	0	-100	0	230	101300000	1000	0	0	-1	0
33431083	7021	0	0	-100	0	230	101300000	1000	0	0	-1	0
33443643	7027	0	0	-100	0	230	101300000	1000	0	0	-1	0
33456203	7021	0	0	-100	0	230	101300000	1000	0	0	-1	0
33468763	7024	4	0	-100	0	230	101300000	1000	0	0	-1	0
33481323	7008	2	0	-100	0	230	101300000	1000	0	0	-1	0
33493883	7032	0	0	-100	0	230	101300000	1000	0	0	-1	0
33506443	7019	0	0	-100	0	230	101300000	1000	0	0	-1	0
33519004	7028	0	0	-100	0	230	101300000	1000	0	0	-1	0
33531563	7018	3	0	-100	0	230	101300000	1000	0	0	-1	0
33544123	7023	0	0	-100	0	230	101300000	1000	0	0	-1	0
33556683	7022	0	0	-100	0	230	101300000	1000	0	0	-1	0
33569243	7018	0	0	-100	0	230	101300000	1000	0	0	-1	0
33581803	7022	2	0	-100	0	230	101300000	1000	0	0	-1	0
33594363	7025	0	0	-100	0	230	101300000	1000	0	0	-1	0
33606923	7023	0	0	-100	0	230	101300000	1000	0	0	-1	0
33619483	7019	0	0	-100	0	230	101300000	1000	0	0	-1	0
33632043	7016	0	0	-100	0	230	101300000	1000	0	0	-1	0
33644603	7018	4	0	-100	0	230	101300000	1000	0	0	-1	0
33657163	7024	0	0	-100	0	230	101300000	1000	0	0	-1	0
33669723	7027	0	0	-100	0	230	101300000	1000	0	0	-1	0
33682283	7025	0	0	-100	0	230	101300000	1000	0	0	-1	0
33694843	7018	0	0	-100	0	230	101300000	1000	0	0	-1	0
33707403	7019	0	0	-100	0	230	101300000	1000	0	0	-1	0
33719963	7020	4	0	-100	0	230	101300000	1000	0	0	-1	0
33732523	7027	0	0	-100	0	230	101300000	1000	0	0	-1	0
33745083	7026	0	0	-100	0	230	101300000	1000	0	0	-1	0
33757643	7022	0	0	-100	0	230	101300000	1000	0	0	-1	0
33770203	7022	3	0	-100	0	230	101300000	1000	0	0	-1	0
33782763	7022	0	0	-100	0	230	101300000	1000	0	0	-1	0
33795323	7019	0	0	-100	0	230	101300000	1000	0	0	-1	0
33807883	7021	0	0	-100	0	230	101300000	1000	0	0	-1	0
33820443	7015	0	0	-100	0	230	101300000	1000	0	0	-1	0
33833004	7023	0	0	-100	0	230	101300000	1000	0	0	-1	0
33845563	7030	0	0	-100	0	230	101300000	1000	0	0	-1	0
33858123	7019	0	0	-100	0	230	101300000	1000	0	0	-1	0
33870683	7018	4	0	-100	0	230	101300000	1000	0	0	-1	0
33883243	7016	1	0	-100	0	230	101300000	1000	0	0	-1	0
33895803	7027	0	0	-100	0	230	101300000	1000	0	0	-1	0
33908363	7020	0	0	-100	0	230	101300000	1000	0	0	-1	0
33920923	7020	3	0	-100	0	230	101300000	1000	0	0	-1	0
33933483	7020	0	0	-100	0	230	101300000	1000	0	0	-1	0
33946043	7016	0	0	-100	0	230	101300000	1000	0	0	-1	0
33958603	7018	4	0	-100	0	230	101300000	1000	0	0	-1	0
33971163	7022	0	0	-100	0	230	101300000	1000	0	0	-1	0
33983723	7025	0	0	-100	0	230	101300000	1000	0	0	-1	0
33996283	7018	0	0	-100	0	230	101300000	1000	0	0	-1	0
34008843	7018	1	0	-100	0	230	101300000	1000	0	0	-1	0
34021403	7027	0	0	-100	0	230	101300000	1000	0	0	-1	0
34033963	7016	0	0	-100	0	230	101300000	1000	0	0	-1	0
34046523	7022	1	0	-100	0	230	101300000	1000	0	0	-1	0
34059083	7030	0	0	-100	0	230	101300000	1000	0	0	-1	0
34071643	7022	0	0	-100	0	230	101300000	1000	0	0	-1	0
34084203	7018	4	0	-100	0	230	101300000	1000	0	0	-1	0
34096763	7023	0	0	-100	0	230	101300000	1000	0	0	-1	0
34109323	7019	0	0	-100	0	230	101300000	1000	0	0	-1	0
34121883	7022	3	0	-100	0	230	101300000	1000	0	0	-1	0
34134443	7022	0	0	-100	0	230	101300000	1000	0	0	-1	0
34147004	7021	3	0	-100	0	230	101300000	1000	0	0	-1	0
34159563	7020	0	0	-100	0	230	101300000	1000	0	0	-1	0
34172123	7011	4	0	-100	0	230	101300000	1000	0	0	-1	0
34184683	7029	0	0	-100	0	230	101300000	1000	0	0	-1	0
34197243	7023	0	0	-100	0	230	101300000	1000	0	0	-1	0
34209803	7018	4	0	-100	0	230	101300000	1000	0	0	-1	0
34222363	7024	0	0	-100	0	230	101300000	1000	0	0	-1	0
34234923	7023	0	0	-100	0	230	101300000	1000	0	0	-1	0
34247483	7019	0	0	-100	0	230	101300000	1000	0	0	-1	0
34260043	7020	3	0	-100	0	230	101300000	1000	0	0	-1	0
34272603	7021	1	0	-100	0	230	101300000	1000	0	0	-1	0
34285163	7025	0	0	-100	0	230	101300000	1000	0	0	-1	0
34297723	7025	0	0	-100	0	230	101300000	1000	0	0	-1	0
34310283	7025	0	0	-100	0	230	101300000	1000	0	0	-1	0
34322843	7019	0	0	-100	0	230	101300000	1000	0	0	-1	0
34335403	7032	0	0	-100	0	230	101300000	1000	0	0	-1	0
34347963	7025	0	0	-100	0	230	101300000	1000	0	0	-1	0
34360523	7020	1	0	-100	0	230	101300000	1000	0	0	-1	0
34373083	7022	0	0	-100	0	230	101300000	1000	0	0	-1	0
34385643	7023	0	0	-100	0	230	101300000	1000	0	0	-1	0
34398203	7018	0	0	-100	0	230	101300000	1000	0	0	-1	0
34410763	7018	3	0	-100	0	230	101300000	1000	0	0	-1	0
34423323	7011	0	0	-100	0	230	101300000	1000	0	0	-1	0
34435883	7025	0	0	-100	0	230	101300000	1000	0	0	-1	0
34448443	7020	0	0	-100	0	230	101300000	1000	0	0	-1	0
34461004	7025	0	0	-100	0	230	101300000	1000	0	0	-1	0
34473563	7024	0	0	-100	0	230	101300000	1000	0	0	-1	0
34486123	7015	0	0	-100	0	230	101300000	1000	0	0	-1	0
34498683	7020	0	0	-100	0	230	101300000	1000	0	0	-1	0
34511243	7022	4	0	-100	0	230	101300000	1000	0	0	-1	0
34523803	7025	0	0	-100	0	230	101300000	1000	0	0	-1	0
34536363	7025	0	0	-100	0	230	101300000	1000	0	0	-1	0
34548923	7018	0	0	-100	0	230	101300000	1000	0	0	-1	0
34561483	7021	3	0	-100	0	230	101300000	1000	0	0	-1	0
34574043	7022	0	0	-100	0	230	101300000	1000	0	0	-1	0
34586603	7028	0	0	-100	0	230	101300000	1000	0	0	-1	0
34599163	7021	0	0	-100	0	230	101300000	1000	0	0	-1	0
34611723	7018	0	0	-100	0	230	101300000	1000	0	0	-1	0
34624283	7022	4	0	-100	0	230	101300000	1000	0	0	-1	0
34636843	7025	0	0	-100	0	230	101300000	1000	0	0	-1	0
34649403	7027	0	0	-100	0	230	101300000	1000	0	0	-1	0
34661963	7018	3	0	-100	0	230	101300000	1000	0	0	-1	0
34674523	7023	0	0	-100	0	230	101300000	1000	0	0	-1	0
34687083	7023	0	0	-100	0	230	101300000	1000	0	0	-1	0
34699643	7024	4	0	-100	0	230	101300000	1000	0	0	-1	0
34712203	7023	0	0	-100	0	230	101300000	1000	0	0	-1	0
34724763	7022	0	0	-100	0	230	101300000	1000	0	0	-1	0
34737323	7010	2	0	-100	0	230	101300000	1000	0	0	-1	0
34749883	7020	3	0	-100	0	230	101300000	1000	0	0	-1	0
34762443	7022	0	0	-100	0	230	101300000	1000	0	0	-1	0
34800123	7014	0	0	-100	0	230	101300000	1000	0	0	-1	0
34812683	7018	0	0	-100	0	230	101300000	1000	0	0	-1	0
34825243	7024	2	0	-100	0	230	101300000	1000	0	0	-1	0
34837803	7026	0	0	-100	0	230	101300000	1000	0	0	-1	0
34850363	7019	0	0	-100	0	230	101300000	1000	0	0	-1	0
34862923	7018	3	0	-100	0	230	101300000	1000	0	0	-1	0
34875483	7022	0	0	-100	0	230	101300000	1000	0	0	-1	0
34888043	7023	0	0	-100	0	230	101300000	1000	0	0	-1	0
34900603	7021	3	0	-100	0	230	101300000	1000	0	0	-1	0
34913163	7022	0	0	-100	0	230	101300000	1000	0	0	-1	0
34925723	7025	0	0	-100	0	230	101300000	1000	0	0	-1	0
35001083	7018	0	0	-100	0	230	101300000	1000	0	0	-1	0
35013643	7021	5	0	-100	0	230	101300000	1000	0	0	-1	0
35026203	7022	0	0	-100	0	230	101300000	1000	0	0	-1	0
35038763	7025	0	0	-100	0	230	101300000	1000	0	0	-1	0
35051323	7017	0	0	-100	0	230	101300000	1000	0	0	-1	0
35063883	7016	0	0	-100	0	230	101300000	1000	0	0	-1	0
35076443	7022	2	0	-100	0	230	101300000	1000	0	0	-1	0
35089004	7018	0	0	-100	0	230	101300000	1000	0	0	-1	0
35101563	7027	0	0	-100	0	230	101300000	1000	0	0	-1	0
35114123	7015	0	0	-100	0	230	101300000	1000	0	0	-1	0
35126683	7017	0	0	-100	0	230	101300000	1000	0	0	-1	0
35139243	7018	4	0	-100	0	230	101300000	1000	0	0	-1	0
35151803	7024	0	0	-100	0	230	101300000	1000	0	0	-1	0
35164363	7026	0	0	-100	0	230	101300000	1000	0	0	-1	0
35176923	7021	0	0	-100	0	230	101300000	1000	0	0	-1	0
35189483	7016	0	0	-100	0	230	101300000	1000	0	0	-1	0
35202043	7020	2	0	-100	0	230	101300000	1000	0	0	-1	0
35214603	7025	0	0	-100	0	230	101300000	1000	0	0	-1	0
35227163	7025	0	0	-100	0	230	101300000	1000	0	0	-1	0
35239723	7020	0	0	-100	0	230	101300000	1000	0	0	-1	0
35252283	7020	2	0	-100	0	230	101300000	1000	0	0	-1	0
35264843	7025	0	0	-100	0	230	101300000	1000	0	0	-1	0
35277403	7021	0	0	-100	0	230	101300000	1000	0	0	-1	0
35289963	7020	2	0	-100	0	230	101300000	1000	0	0	-1	0
35302523	7027	0	0	-100	0	230	101300000	1000	0	0	-1	0
35315083	7027	0	0	-100	0	230	101300000	1000	0	0	-1	0
35327643	7016	0	0	-100	0	230	101300000	1000	0	0	-1	0
35340203	7018	2	0	-100	0	230	101300000	1000	0	0	-1	0
35352763	7028	0	0	-100	0	230	101300000	1000	0	0	-1	0
35365323	7017	0	0	-100	0	230	101300000	1000	0	0	-1	0
35377883	7019	3	0	-100	0	230	101300000	1000	0	0	-1	0
35390443	7021	0	0	-100	0	230	101300000	1000	0	0	-1	0
35403004	7018	2	0	-100	0	230	101300000	1000	0	0	-1	0
35415563	7014	0	0	-100	0	230	101300000	1000	0	0	-1	0
35428123	7010	3	0	-100	0	230	101300000	1000	0	0	-1	0
35440683	7023	0	0	-100	0	230	101300000	1000	0	0	-1	0
35453243	7020	0	0	-100	0	230	101300000	1000	0	0	-1	0
35465803	7022	3	0	-100	0	230	101300000	1000	0	0	-1	0
35478363	7022	0	0	-100	0	230	101300000	1000	0	0	-1	0
35490923	7029	0	0	-100	0	230	101300000	1000	0	0	-1	0
35503483	7025	0	0	-100	0	230	101300000	1000	0	0	-1	0
35516043	7021	2	0	-100	0	230	101300000	1000	0	0	-1	0
35528603	7022	0	0	-100	0	230	101300000	1000	0	0	-1	0
35541163	7029	0	0	-100	0	230	101300000	1000	0	0	-1	0
35553723	7021	0	0	-100	0	230	101300000	1000	0	0	-1	0
35566283	7022	4	0	-100	0	230	101300000	1000	0	0	-1	0
35578843	7018	1	0	-100	0	230	101300000	1000	0	0	-1	0
35591403	7027	0	0	-100	0	230	101300000	1000	0	0	-1	0
35603963	7020	0	0	-100	0	230	101300000	1000	0	0	-1	0
35616523	7020	4	0	-100	0	230	101300000	1000	0	0	-1	0
35629083	7025	0	0	-100	0	230	101300000	1000	0	0	-1	0
35641643	7023	0	0	-100	0	230	101300000	1000	0	0	-1	0
35654203	7023	0	0	-100	0	230	101300000	1000	0	0	-1	0
35666763	7020	0	0	-100	0	230	101300000	1000	0	0	-1	0
35679323	7010	5	0	-100	0	230	101300000	1000	0	0	-1	0
35691883	7016	3	0	-100	0	230	101300000	1000	0	0	-1	0
35704443	7030	0	0	-100	0	230	101300000	1000	0	0	-1	0
35717004	7020	2	0	-100	0	230	101300000	1000	0	0	-1	0
35729563	7018	0	0	-100	0	230	101300000	1000	0	0	-1	0
35742123	7014	3	0	-100	0	230	101300000	1000	0	0	-1	0
35754683	7023	0	0	-100	0	230	101300000	1000	0	0	-1	0
35767243	7021	0	0	-100	0	230	101300000	1000	0	0	-1	0
35779803	7021	6	0	-100	0	230	101300000	1000	0	0	-1	0
35792363	7027	0	0	-100	0	230	101300000	1000	0	0	-1	0
35804923	7021	0	0	-100	0	230	101300000	1000	0	0	-1	0
35817483	7014	0	0	-100	0	230	101300000	1000	0	0	-1	0
35830043	7024	2	0	-100	0	230	101300000	1000	0	0	-1	0
35842603	7021	4	0	-100	0	230	101300000	1000	0	0	-1	0
35855163	7024	0	0	-100	0	230	101300000	1000	0	0	-1	0
35867723	7023	0	0	-100	0	230	101300000	1000	0	0	-1	0
35880283	7020	0	0	-100	0	230	101300000	1000	0	0	-1	0
35892843	7024	1	0	-100	0	230	101300000	1000	0	0	-1	0
35905403	7024	0	0	-100	0	230	101300000	1000	0	0	-1	0
35917963	7016	0	0	-100	0	230	101300000	1000	0	0	-1	0
35930523	7018	0	0	-100	0	230	101300000	1000	0	0	-1	0
35943083	7023	0	0	-100	0	230	101300000	1000	0	0	-1	0
35955643	7021	0	0	-100	0	230	101300000	1000	0	0	-1	0
35968203	7021	0	0	-100	0	230	101300000	1000	0	0	-1	0
35980763	7027	0	0	-100	0	230	101300000	1000	0	0	-1	0
35993323	7012	0	0	-100	0	230	101300000	1000	0	0	-1	0
36005883	7020	2	0	-100	0	230	101300000	1000	0	0	-1	0
36018443	7027	0	0	-100	0	230	101300000	1000	0	0	-1	0
36031004	7028	0	0	-100	0	230	101300000	1000	0	0	-1	0
36043563	7022	0	0	-100	0	230	101300000	1000	0	0	-1	0
36056123	7017	0	0	-100	0	230	101300000	1000	0	0	-1	0
36068683	7022	4	0	-100	0	230	101300000	1000	0	0	-1	0
36081243	7023	0	0	-100	0	230	101300000	1000	0	0	-1	0
36093803	7022	0	0	-100	0	230	101300000	1000	0	0	-1	0
36106363	7020	4	0	-100	0	230	101300000	1000	0	0	-1	0
36118923	7027	0	0	-100	0	230	101300000	1000	0	0	-1	0
36131483	7022	0	0	-100	0	230	101300000	1000	0	0	-1	0
36144043	7020	4	0	-100	0	230	101300000	1000	0	0	-1	0
36156603	7019	0	0	-100	0	230	101300000	1000	0	0	-1	0
36169163	7025	0	0	-100	0	230	101300000	1000	0	0	-1	0
36181723	7018	2	0	-100	0	230	101300000	1000	0	0	-1	0
