timestamp	voltage	current	windSpeed	pitchAngle	rpm	temperature	ambientPressure	humidity	accelerationX	accelerationY	accelerationZ	currentSink
7032070	8022	4	0	-100	0	230	101300000	1000	0	0	-1	0
7039523	8032	0	0	-100	0	230	101300000	1000	0	0	-1	0
7052083	8029	0	0	-100	0	230	101300000	1000	0	0	-1	0
7064643	8025	0	0	-100	0	230	101300000	1000	0	0	-1	0
7077203	8022	0	0	-100	0	230	101300000	1000	0	0	-1	0
7089763	8025	3	0	-100	0	230	101300000	1000	0	0	-1	0
7102323	8024	2	0	-100	0	230	101300000	1000	0	0	-1	0
7114883	8026	0	0	-100	0	230	101300000	1000	0	0	-1	0
7127443	8029	0	0	-100	0	230	101300000	1000	0	0	-1	0
7140004	8020	4	0	-100	0	230	101300000	1000	0	0	-1	0
7152563	8029	0	0	-100	0	230	101300000	1000	0	0	-1	0
7165123	8027	0	0	-100	0	230	101300000	1000	0	0	-1	0
7177683	8024	0	0	-100	0	230	101300000	1000	0	0	-1	0
7190243	8018	0	0	-100	0	230	101300000	1000	0	0	-1	0
7202803	8029	4	0	-100	0	230	101300000	1000	0	0	-1	0
7215363	8022	4	0	-100	0	230	101300000	1000	0	0	-1	0
7227923	8024	3	0	-100	0	230	101300000	1000	0	0	-1	0
7240483	8020	4	0	-100	0	230	101300000	1000	0	0	-1	0
7253043	8022	3	0	-100	0	230	101300000	1000	0	0	-1	0
7265603	8024	1	0	-100	0	230	101300000	1000	0	0	-1	0
7278163	8020	0	0	-100	0	230	101300000	1000	0	0	-1	0
7290723	8027	0	0	-100	0	230	101300000	1000	0	0	-1	0
7303283	8027	0	0	-100	0	230	101300000	1000	0	0	-1	0
7315843	8020	0	0	-100	0	230	101300000	1000	0	0	-1	0
7328403	8020	0	0	-100	0	230	101300000	1000	0	0	-1	0
7340963	8022	4	0	-100	0	230	101300000	1000	0	0	-1	0
7353523	8024	2	0	-100	0	230	101300000	1000	0	0	-1	0
7366083	8025	0	0	-100	0	230	101300000	1000	0	0	-1	0
7378643	8025	0	0	-100	0	230	101300000	1000	0	0	-1	0
7391203	8020	0	0	-100	0	230	101300000	1000	0	0	-1	0
7403763	8020	4	0	-100	0	230	101300000	1000	0	0	-1	0
7416323	8022	2	0	-100	0	230	101300000	1000	0	0	-1	0
7428883	8033	0	0	-100	0	230	101300000	1000	0	0	-1	0
7441443	8032	0	0	-100	0	230	101300000	1000	0	0	-1	0
7454004	8020	4	0	-100	0	230	101300000	1000	0	0	-1	0
7466563	8029	0	0	-100	0	230	101300000	1000	0	0	-1	0
7479123	8027	0	0	-100	0	230	101300000	1000	0	0	-1	0
7491683	8018	0	0	-100	0	230	101300000	1000	0	0	-1	0
7504243	8018	0	0	-100	0	230	101300000	1000	0	0	-1	0
7516803	8022	4	0	-100	0	230	101300000	1000	0	0	-1	0
7529363	8020	3	0	-100	0	230	101300000	1000	0	0	-1	0
7541923	8025	0	0	-100	0	230	101300000	1000	0	0	-1	0
7554483	8027	0	0	-100	0	230	101300000	1000	0	0	-1	0
7567043	8029	0	0	-100	0	230	101300000	1000	0	0	-1	0
7579603	8022	5	0	-100	0	230	101300000	1000	0	0	-1	0
7592163	8018	3	0	-100	0	230	101300000	1000	0	0	-1	0
7604723	8026	1	0	-100	0	230	101300000	1000	0	0	-1	0
7617283	8025	0	0	-100	0	230	101300000	1000	0	0	-1	0
7629843	8025	0	0	-100	0	230	101300000	1000	0	0	-1	0
7642403	8024	0	0	-100	0	230	101300000	1000	0	0	-1	0
7654963	8022	0	0	-100	0	230	101300000	1000	0	0	-1	0
7667523	8022	0	0	-100	0	230	101300000	1000	0	0	-1	0
7680083	8020	0	0	-100	0	230	101300000	1000	0	0	-1	0
7692643	8026	2	0	-100	0	230	101300000	1000	0	0	-1	0
7705203	8022	1	0	-100	0	230	101300000	1000	0	0	-1	0
7717763	8025	0	0	-100	0	230	101300000	1000	0	0	-1	0
7730323	8034	0	0	-100	0	230	101300000	1000	0	0	-1	0
7742883	8027	0	0	-100	0	230	101300000	1000	0	0	-1	0
7755443	8027	0	0	-100	0	230	101300000	1000	0	0	-1	0
7768004	8020	1	0	-100	0	230	101300000	1000	0	0	-1	0
7780563	8027	0	0	-100	0	230	101300000	1000	0	0	-1	0
7793123	8029	0	0	-100	0	230	101300000	1000	0	0	-1	0
7805683	8032	0	0	-100	0	230	101300000	1000	0	0	-1	0
7818243	8027	0	0	-100	0	230	101300000	1000	0	0	-1	0
7830803	8027	0	0	-100	0	230	101300000	1000	0	0	-1	0
7843363	8023	0	0	-100	0	230	101300000	1000	0	0	-1	0
7855923	8022	0	0	-100	0	230	101300000	1000	0	0	-1	0
7868483	8018	0	0	-100	0	230	101300000	1000	0	0	-1	0
7881043	8027	0	0	-100	0	230	101300000	1000	0	0	-1	0
7893603	8024	4	0	-100	0	230	101300000	1000	0	0	-1	0
7906163	8015	2	0	-100	0	230	101300000	1000	0	0	-1	0
7918723	8027	0	0	-100	0	230	101300000	1000	0	0	-1	0
7931283	8025	0	0	-100	0	230	101300000	1000	0	0	-1	0
7943843	8032	0	0	-100	0	230	101300000	1000	0	0	-1	0
7956403	8025	0	0	-100	0	230	101300000	1000	0	0	-1	0
7968963	8029	0	0	-100	0	230	101300000	1000	0	0	-1	0
7981523	8029	0	0	-100	0	230	101300000	1000	0	0	-1	0
7994083	8025	0	0	-100	0	230	101300000	1000	0	0	-1	0
8006643	8022	0	0	-100	0	230	101300000	1000	0	0	-1	0
8019203	8024	0	0	-100	0	230	101300000	1000	0	0	-1	0
8031763	8020	0	0	-100	0	230	101300000	1000	0	0	-1	0
8044323	8025	0	0	-100	0	230	101300000	1000	0	0	-1	0
8056883	8022	0	0	-100	0	230	101300000	1000	0	0	-1	0
8069443	8027	0	0	-100	0	230	101300000	1000	0	0	-1	0
8082004	8018	0	0	-100	0	230	101300000	1000	0	0	-1	0
8094563	8023	0	0	-100	0	230	101300000	1000	0	0	-1	0
8107123	8032	0	0	-100	0	230	101300000	1000	0	0	-1	0
8119683	8027	0	0	-100	0	230	101300000	1000	0	0	-1	0
8132243	8025	0	0	-100	0	230	101300000	1000	0	0	-1	0
8144803	8025	0	0	-100	0	230	101300000	1000	0	0	-1	0
8157363	8027	0	0	-100	0	230	101300000	1000	0	0	-1	0
8169923	8032	0	0	-100	0	230	101300000	1000	0	0	-1	0
8182483	8025	0	0	-100	0	230	101300000	1000	0	0	-1	0
8195043	8032	0	0	-100	0	230	101300000	1000	0	0	-1	0
8207603	8026	0	0	-100	0	230	101300000	1000	0	0	-1	0
8220163	8011	1	0	-100	0	230	101300000	1000	0	0	-1	0
8232723	8024	1	0	-100	0	230	101300000	1000	0	0	-1	0
8245283	8022	0	0	-100	0	230	101300000	1000	0	0	-1	0
8257843	8025	0	0	-100	0	230	101300000	1000	0	0	-1	0
8270403	8022	0	0	-100	0	230	101300000	1000	0	0	-1	0
8282963	8016	0	0	-100	0	230	101300000	1000	0	0	-1	0
8295523	8022	1	0	-100	0	230	101300000	1000	0	0	-1	0
8308083	8024	0	0	-100	0	230	101300000	1000	0	0	-1	0
8320643	8027	0	0	-100	0	230	101300000	1000	0	0	-1	0
8333203	8020	0	0	-100	0	230	101300000	1000	0	0	-1	0
8345763	8020	0	0	-100	0	230	101300000	1000	0	0	-1	0
8358323	8026	2	0	-100	0	230	101300000	1000	0	0	-1	0
8370883	8026	0	0	-100	0	230	101300000	1000	0	0	-1	0
8383443	8034	0	0	-100	0	230	101300000	1000	0	0	-1	0
8396004	8013	1	0	-100	0	230	101300000	1000	0	0	-1	0
8408563	8032	0	0	-100	0	230	101300000	1000	0	0	-1	0
8421123	8029	0	0	-100	0	230	101300000	1000	0	0	-1	0
8433683	8025	0	0	-100	0	230	101300000	1000	0	0	-1	0
8446243	8027	0	0	-100	0	230	101300000	1000	0	0	-1	0
8458803	8025	0	0	-100	0	230	101300000	1000	0	0	-1	0
8471363	8032	0	0	-100	0	230	101300000	1000	0	0	-1	0
8483923	8032	0	0	-100	0	230	101300000	1000	0	0	-1	0
8496483	8029	0	0	-100	0	230	101300000	1000	0	0	-1	0
8509043	8027	0	0	-100	0	230	101300000	1000	0	0	-1	0
8521603	8032	0	0	-100	0	230	101300000	1000	0	0	-1	0
8534163	8013	0	0	-100	0	230	101300000	1000	0	0	-1	0
8546723	8020	0	0	-100	0	230	101300000	1000	0	0	-1	0
8559283	8020	0	0	-100	0	230	101300000	1000	0	0	-1	0
8571843	8020	0	0	-100	0	230	101300000	1000	0	0	-1	0
8584403	8020	0	0	-100	0	230	101300000	1000	0	0	-1	0
8596963	8029	0	0	-100	0	230	101300000	1000	0	0	-1	0
8609523	8027	0	0	-100	0	230	101300000	1000	0	0	-1	0
8622083	8034	0	0	-100	0	230	101300000	1000	0	0	-1	0
8634643	8032	0	0	-100	0	230	101300000	1000	0	0	-1	0
8647203	8027	0	0	-100	0	230	101300000	1000	0	0	-1	0
8659763	8022	0	0	-100	0	230	101300000	1000	0	0	-1	0
8672323	8027	0	0	-100	0	230	101300000	1000	0	0	-1	0
8684883	8022	0	0	-100	0	230	101300000	1000	0	0	-1	0
8697443	8024	0	0	-100	0	230	101300000	1000	0	0	-1	0
8710004	8027	0	0	-100	0	230	101300000	1000	0	0	-1	0
8722563	8022	4	0	-100	0	230	101300000	1000	0	0	-1	0
8735123	8029	4	0	-100	0	230	101300000	1000	0	0	-1	0
8747683	8022	0	0	-100	0	230	101300000	1000	0	0	-1	0
8760243	8023	0	0	-100	0	230	101300000	1000	0	0	-1	0
8772803	8027	0	0	-100	0	230	101300000	1000	0	0	-1	0
8785363	8020	1	0	-100	0	230	101300000	1000	0	0	-1	0
8797923	8026	3	0	-100	0	230	101300000	1000	0	0	-1	0
8810483	8024	2	0	-100	0	230	101300000	1000	0	0	-1	0
8823043	8032	0	0	-100	0	230	101300000	1000	0	0	-1	0
8835603	8025	0	0	-100	0	230	101300000	1000	0	0	-1	0
8848163	8020	0	0	-100	0	230	101300000	1000	0	0	-1	0
8860723	8025	0	0	-100	0	230	101300000	1000	0	0	-1	0
8873283	8022	0	0	-100	0	230	101300000	1000	0	0	-1	0
8885843	8024	3	0	-100	0	230	101300000	1000	0	0	-1	0
8898403	8022	3	0	-100	0	230	101300000	1000	0	0	-1	0
8910963	8029	0	0	-100	0	230	101300000	1000	0	0	-1	0
8923523	8029	0	0	-100	0	230	101300000	1000	0	0	-1	0
8936083	8025	0	0	-100	0	230	101300000	1000	0	0	-1	0
8948643	8020	0	0	-100	0	230	101300000	1000	0	0	-1	0
8961203	8026	4	0	-100	0	230	101300000	1000	0	0	-1	0
8973763	8022	0	0	-100	0	230	101300000	1000	0	0	-1	0
8986323	8032	0	0	-100	0	230	101300000	1000	0	0	-1	0
8998883	8025	0	0	-100	0	230	101300000	1000	0	0	-1	0
9011443	8015	0	0	-100	0	230	101300000	1000	0	0	-1	0
9024004	8022	0	0	-100	0	230	101300000	1000	0	0	-1	0
9036563	8027	0	0	-100	0	230	101300000	1000	0	0	-1	0
9049123	8027	0	0	-100	0	230	101300000	1000	0	0	-1	0
9061683	8020	0	0	-100	0	230	101300000	1000	0	0	-1	0
9074243	8020	3	0	-100	0	230	101300000	1000	0	0	-1	0
9086803	8027	0	0	-100	0	230	101300000	1000	0	0	-1	0
9099363	8025	0	0	-100	0	230	101300000	1000	0	0	-1	0
9111923	8025	0	0	-100	0	230	101300000	1000	0	0	-1	0
9124483	8024	0	0	-100	0	230	101300000	1000	0	0	-1	0
9137043	8022	4	0	-100	0	230	101300000	1000	0	0	-1	0
9149603	8027	0	0	-100	0	230	101300000	1000	0	0	-1	0
9162163	8018	0	0	-100	0	230	101300000	1000	0	0	-1	0
9174723	8027	0	0	-100	0	230	101300000	1000	0	0	-1	0
9187283	8022	0	0	-100	0	230	101300000	1000	0	0	-1	0
9199843	8024	1	0	-100	0	230	101300000	1000	0	0	-1	0
9212403	8032	0	0	-100	0	230	101300000	1000	0	0	-1	0
9224963	8027	0	0	-100	0	230	101300000	1000	0	0	-1	0
9237523	8022	0	0	-100	0	230	101300000	1000	0	0	-1	0
9250083	8024	4	0	-100	0	230	101300000	1000	0	0	-1	0
9262643	8020	3	0	-100	0	230	101300000	1000	0	0	-1	0
9275203	8029	0	0	-100	0	230	101300000	1000	0	0	-1	0
9287763	8029	0	0	-100	0	230	101300000	1000	0	0	-1	0
9300323	8027	0	0	-100	0	230	101300000	1000	0	0	-1	0
9312883	8020	0	0	-100	0	230	101300000	1000	0	0	-1	0
9325443	8022	0	0	-100	0	230	101300000	1000	0	0	-1	0
9338004	8027	0	0	-100	0	230	101300000	1000	0	0	-1	0
9350563	8022	0	0	-100	0	230	101300000	1000	0	0	-1	0
9363123	8027	0	0	-100	0	230	101300000	1000	0	0	-1	0
9375683	8029	0	0	-100	0	230	101300000	1000	0	0	-1	0
9388243	8024	0	0	-100	0	230	101300000	1000	0	0	-1	0
9400803	8024	2	0	-100	0	230	101300000	1000	0	0	-1	0
9413363	8024	1	0	-100	0	230	101300000	1000	0	0	-1	0
9425923	8024	0	0	-100	0	230	101300000	1000	0	0	-1	0
9438483	8032	0	0	-100	0	230	101300000	1000	0	0	-1	0
9451043	8029	0	0	-100	0	230	101300000	1000	0	0	-1	0
9463603	8032	0	0	-100	0	230	101300000	1000	0	0	-1	0
9476163	8022	0	0	-100	0	230	101300000	1000	0	0	-1	0
9488723	8027	0	0	-100	0	230	101300000	1000	0	0	-1	0
9501283	8029	0	0	-100	0	230	101300000	1000	0	0	-1	0
9513843	8024	0	0	-100	0	230	101300000	1000	0	0	-1	0
9526403	8022	3	0	-100	0	230	101300000	1000	0	0	-1	0
9538963	8024	2	0	-100	0	230	101300000	1000	0	0	-1	0
9551523	8027	1	0	-100	0	230	101300000	1000	0	0	-1	0
9564083	8027	0	0	-100	0	230	101300000	1000	0	0	-1	0
9576643	8022	2	0	-100	0	230	101300000	1000	0	0	-1	0
9589203	8018	2	0	-100	0	230	101300000	1000	0	0	-1	0
9601763	8020	4	0	-100	0	230	101300000	1000	0	0	-1	0
9614323	8024	2	0	-100	0	230	101300000	1000	0	0	-1	0
9626883	8024	4	0	-100	0	230	101300000	1000	0	0	-1	0
9639443	8024	2	0	-100	0	230	101300000	1000	0	0	-1	0
9652004	8025	0	0	-100	0	230	101300000	1000	0	0	-1	0
9664563	8020	0	0	-100	0	230	101300000	1000	0	0	-1	0
9677123	8025	0	0	-100	0	230	101300000	1000	0	0	-1	0
9689683	8025	0	0	-100	0	230	101300000	1000	0	0	-1	0
9702243	8027	0	0	-100	0	230	101300000	1000	0	0	-1	0
9714803	8029	0	0	-100	0	230	101300000	1000	0	0	-1	0
9727363	8025	0	0	-100	0	230	101300000	1000	0	0	-1	0
9739923	8027	0	0	-100	0	230	101300000	1000	0	0	-1	0
9752483	8034	0	0	-100	0	230	101300000	1000	0	0	-1	0
9765043	8029	0	0	-100	0	230	101300000	1000	0	0	-1	0
9777603	8024	1	0	-100	0	230	101300000	1000	0	0	-1	0
9790163	8015	0	0	-100	0	230	101300000	1000	0	0	-1	0
9802723	8026	3	0	-100	0	230	101300000	1000	0	0	-1	0
9815283	8022	3	0	-100	0	230	101300000	1000	0	0	-1	0
9827843	8024	3	0	-100	0	230	101300000	1000	0	0	-1	0
9840403	8022	4	0	-100	0	230	101300000	1000	0	0	-1	0
9852963	8026	5	0	-100	0	230	101300000	1000	0	0	-1	0
9865523	8025	2	0	-100	0	230	101300000	1000	0	0	-1	0
9878083	8026	3	0	-100	0	230	101300000	1000	0	0	-1	0
9928323	8022	1	0	-100	0	230	101300000	1000	0	0	-1	0
9940883	8022	1	0	-100	0	230	101300000	1000	0	0	-1	0
9953443	8022	1	0	-100	0	230	101300000	1000	0	0	-1	0
9966004	8026	1	0	-100	0	230	101300000	1000	0	0	-1	0
9978563	8027	0	0	-100	0	230	101300000	1000	0	0	-1	0
9991123	8029	0	0	-100	0	230	101300000	1000	0	0	-1	0
10003683	8036	0	0	-100	0	230	101300000	1000	0	0	-1	0
10016243	8029	0	0	-100	0	230	101300000	1000	0	0	-1	0
10028803	8032	0	0	-100	0	230	101300000	1000	0	0	-1	0
10041363	8031	0	0	-100	0	230	101300000	1000	0	0	-1	0
10053923	8027	0	0	-100	0	230	101300000	1000	0	0	-1	0
10066483	8024	1	0	-100	0	230	101300000	1000	0	0	-1	0
10129283	8034	0	0	-100	0	230	101300000	1000	0	0	-1	0
10141843	8031	0	0	-100	0	230	101300000	1000	0	0	-1	0
10154403	8022	1	0	-100	0	230	101300000	1000	0	0	-1	0
10166963	8026	3	0	-100	0	230	101300000	1000	0	0	-1	0
10179523	8025	0	0	-100	0	230	101300000	1000	0	0	-1	0
10192083	8027	0	0	-100	0	230	101300000	1000	0	0	-1	0
10204643	8029	0	0	-100	0	230	101300000	1000	0	0	-1	0
10217203	8020	0	0	-100	0	230	101300000	1000	0	0	-1	0
10229763	8024	3	0	-100	0	230	101300000	1000	0	0	-1	0
10242323	8024	0	0	-100	0	230	101300000	1000	0	0	-1	0
10254883	8027	0	0	-100	0	230	101300000	1000	0	0	-1	0
10267443	8031	0	0	-100	0	230	101300000	1000	0	0	-1	0
10280004	8024	0	0	-100	0	230	101300000	1000	0	0	-1	0
10292563	8022	0	0	-100	0	230	101300000	1000	0	0	-1	0
10305123	8025	0	0	-100	0	230	101300000	1000	0	0	-1	0
10317683	8022	0	0	-100	0	230	101300000	1000	0	0	-1	0
10330243	8026	4	0	-100	0	230	101300000	1000	0	0	-1	0
10342803	8022	0	0	-100	0	230	101300000	1000	0	0	-1	0
10355363	8025	0	0	-100	0	230	101300000	1000	0	0	-1	0
10367923	8027	0	0	-100	0	230	101300000	1000	0	0	-1	0
10380483	8026	2	0	-100	0	230	101300000	1000	0	0	-1	0
10393043	8020	0	0	-100	0	230	101300000	1000	0	0	-1	0
10405603	8029	0	0	-100	0	230	101300000	1000	0	0	-1	0
10418163	8017	2	0	-100	0	230	101300000	1000	0	0	-1	0
10430723	8022	0	0	-100	0	230	101300000	1000	0	0	-1	0
10443283	8032	0	0	-100	0	230	101300000	1000	0	0	-1	0
10455843	8029	0	0	-100	0	230	101300000	1000	0	0	-1	0
10468403	8026	4	0	-100	0	230	101300000	1000	0	0	-1	0
10480963	8027	0	0	-100	0	230	101300000	1000	0	0	-1	0
10493523	8036	0	0	-100	0	230	101300000	1000	0	0	-1	0
10506083	8026	1	0	-100	0	230	101300000	1000	0	0	-1	0
10518643	8024	0	0	-100	0	230	101300000	1000	0	0	-1	0
10531203	8025	0	0	-100	0	230	101300000	1000	0	0	-1	0
10543763	8029	0	0	-100	0	230	101300000	1000	0	0	-1	0
10556323	8024	4	0	-100	0	230	101300000	1000	0	0	-1	0
10568883	8020	0	0	-100	0	230	101300000	1000	0	0	-1	0
10581443	8029	0	0	-100	0	230	101300000	1000	0	0	-1	0
10594004	8020	4	0	-100	0	230	101300000	1000	0	0	-1	0
10606563	8022	4	0	-100	0	230	101300000	1000	0	0	-1	0
10619123	8020	0	0	-100	0	230	101300000	1000	0	0	-1	0
10631683	8032	0	0	-100	0	230	101300000	1000	0	0	-1	0
10644243	8024	0	0	-100	0	230	101300000	1000	0	0	-1	0
10656803	8026	2	0	-100	0	230	101300000	1000	0	0	-1	0
10669363	8024	0	0	-100	0	230	101300000	1000	0	0	-1	0
10681923	8022	0	0	-100	0	230	101300000	1000	0	0	-1	0
10694483	8029	0	0	-100	0	230	101300000	1000	0	0	-1	0
10707043	8029	0	0	-100	0	230	101300000	1000	0	0	-1	0
10719603	8022	1	0	-100	0	230	101300000	1000	0	0	-1	0
10732163	8018	4	0	-100	0	230	101300000	1000	0	0	-1	0
10744723	8022	0	0	-100	0	230	101300000	1000	0	0	-1	0
10757283	8025	0	0	-100	0	230	101300000	1000	0	0	-1	0
10769843	8032	0	0	-100	0	230	101300000	1000	0	0	-1	0
10782403	8026	0	0	-100	0	230	101300000	1000	0	0	-1	0
10794963	8024	3	0	-100	0	230	101300000	1000	0	0	-1	0
10807523	8015	0	0	-100	0	230	101300000	1000	0	0	-1	0
10820083	8025	0	0	-100	0	230	101300000	1000	0	0	-1	0
10832643	8027	0	0	-100	0	230	101300000	1000	0	0	-1	0
10845203	8032	0	0	-100	0	230	101300000	1000	0	0	-1	0
10857763	8022	0	0	-100	0	230	101300000	1000	0	0	-1	0
10870323	8026	2	0	-100	0	230	101300000	1000	0	0	-1	0
10882883	8024	0	0	-100	0	230	101300000	1000	0	0	-1	0
10895443	8029	0	0	-100	0	230	101300000	1000	0	0	-1	0
10908004	8020	3	0	-100	0	230	101300000	1000	0	0	-1	0
10920563	8022	1	0	-100	0	230	101300000	1000	0	0	-1	0
10933123	8022	0	0	-100	0	230	101300000	1000	0	0	-1	0
10945683	8027	0	0	-100	0	230	101300000	1000	0	0	-1	0
10958243	8034	0	0	-100	0	230	101300000	1000	0	0	-1	0
10970803	8022	2	0	-100	0	230	101300000	1000	0	0	-1	0
10983363	8020	0	0	-100	0	230	101300000	1000	0	0	-1	0
10995923	8027	0	0	-100	0	230	101300000	1000	0	0	-1	0
11008483	8029	0	0	-100	0	230	101300000	1000	0	0	-1	0
11021043	8027	0	0	-100	0	230	101300000	1000	0	0	-1	0
11033603	8022	1	0	-100	0	230	101300000	1000	0	0	-1	0
11046163	8018	4	0	-100	0	230	101300000	1000	0	0	-1	0
11058723	8018	3	0	-100	0	230	101300000	1000	0	0	-1	0
11071283	8022	0	0	-100	0	230	101300000	1000	0	0	-1	0
11083843	8029	0	0	-100	0	230	101300000	1000	0	0	-1	0
11096403	8027	0	0	-100	0	230	101300000	1000	0	0	-1	0
11108963	8029	0	0	-100	0	230	101300000	1000	0	0	-1	0
11121523	8029	0	0	-100	0	230	101300000	1000	0	0	-1	0
11134083	8026	0	0	-100	0	230	101300000	1000	0	0	-1	0
11146643	8024	3	0	-100	0	230	101300000	1000	0	0	-1	0
11159203	8022	5	0	-100	0	230	101300000	1000	0	0	-1	0
11171763	8027	4	0	-100	0	230	101300000	1000	0	0	-1	0
11184323	8029	1	0	-100	0	230	101300000	1000	0	0	-1	0
11196883	8022	0	0	-100	0	230	101300000	1000	0	0	-1	0
11209443	8022	0	0	-100	0	230	101300000	1000	0	0	-1	0
11222004	8025	0	0	-100	0	230	101300000	1000	0	0	-1	0
11234563	8022	0	0	-100	0	230	101300000	1000	0	0	-1	0
11247123	8025	0	0	-100	0	230	101300000	1000	0	0	-1	0
11259683	8025	0	0	-100	0	230	101300000	1000	0	0	-1	0
11272243	8027	0	0	-100	0	230	101300000	1000	0	0	-1	0
11284803	8027	0	0	-100	0	230	101300000	1000	0	0	-1	0
11297363	8027	0	0	-100	0	230	101300000	1000	0	0	-1	0
11309923	8029	0	0	-100	0	230	101300000	1000	0	0	-1	0
11322483	8027	0	0	-100	0	230	101300000	1000	0	0	-1	0
11335043	8029	0	0	-100	0	230	101300000	1000	0	0	-1	0
11347603	8025	0	0	-100	0	230	101300000	1000	0	0	-1	0
11360163	8020	0	0	-100	0	230	101300000	1000	0	0	-1	0
11372723	8029	0	0	-100	0	230	101300000	1000	0	0	-1	0
11385283	8023	0	0	-100	0	230	101300000	1000	0	0	-1	0
11397843	8027	0	0	-100	0	230	101300000	1000	0	0	-1	0
11410403	8029	0	0	-100	0	230	101300000	1000	0	0	-1	0
11422963	8029	0	0	-100	0	230	101300000	1000	0	0	-1	0
11435523	8022	3	0	-100	0	230	101300000	1000	0	0	-1	0
11448083	8020	2	0	-100	0	230	101300000	1000	0	0	-1	0
11460643	8024	1	0	-100	0	230	101300000	1000	0	0	-1	0
11473203	8018	2	0	-100	0	230	101300000	1000	0	0	-1	0
11485763	8022	2	0	-100	0	230	101300000	1000	0	0	-1	0
11498323	8022	3	0	-100	0	230	101300000	1000	0	0	-1	0
11510883	8022	1	0	-100	0	230	101300000	1000	0	0	-1	0
11523443	8024	0	0	-100	0	230	101300000	1000	0	0	-1	0
11536004	8022	0	0	-100	0	230	101300000	1000	0	0	-1	0
11548563	8022	3	0	-100	0	230	101300000	1000	0	0	-1	0
11561123	8024	4	0	-100	0	230	101300000	1000	0	0	-1	0
11573683	8024	3	0	-100	0	230	101300000	1000	0	0	-1	0
11586243	8022	4	0	-100	0	230	101300000	1000	0	0	-1	0
11598803	8022	4	0	-100	0	230	101300000	1000	0	0	-1	0
11611363	8027	0	0	-100	0	230	101300000	1000	0	0	-1	0
11623923	8020	0	0	-100	0	230	101300000	1000	0	0	-1	0
11636483	8024	0	0	-100	0	230	101300000	1000	0	0	-1	0
11649043	8024	0	0	-100	0	230	101300000	1000	0	0	-1	0
11661603	8029	0	0	-100	0	230	101300000	1000	0	0	-1	0
11674163	8023	0	0	-100	0	230	101300000	1000	0	0	-1	0
11686723	8023	0	0	-100	0	230	101300000	1000	0	0	-1	0
11699283	8032	0	0	-100	0	230	101300000	1000	0	0	-1	0
11711843	8031	0	0	-100	0	230	101300000	1000	0	0	-1	0
11724403	8026	0	0	-100	0	230	101300000	1000	0	0	-1	0
11736963	8020	0	0	-100	0	230	101300000	1000	0	0	-1	0
11749523	8020	4	0	-100	0	230	101300000	1000	0	0	-1	0
11762083	8016	0	0	-100	0	230	101300000	1000	0	0	-1	0
11774643	8024	0	0	-100	0	230	101300000	1000	0	0	-1	0
11787203	8027	0	0	-100	0	230	101300000	1000	0	0	-1	0
11799763	8027	0	0	-100	0	230	101300000	1000	0	0	-1	0
11812323	8027	0	0	-100	0	230	101300000	1000	0	0	-1	0
11824883	8032	0	0	-100	0	230	101300000	1000	0	0	-1	0
11837443	8022	2	0	-100	0	230	101300000	1000	0	0	-1	0
11850004	8027	0	0	-100	0	230	101300000	1000	0	0	-1	0
11862563	8027	0	0	-100	0	230	101300000	1000	0	0	-1	0
11875123	8025	0	0	-100	0	230	101300000	1000	0	0	-1	0
11887683	8034	0	0	-100	0	230	101300000	1000	0	0	-1	0
11900243	8024	1	0	-100	0	230	101300000	1000	0	0	-1	0
11912803	8018	2	0	-100	0	230	101300000	1000	0	0	-1	0
11925363	8027	0	0	-100	0	230	101300000	1000	0	0	-1	0
11937923	8032	0	0	-100	0	230	101300000	1000	0	0	-1	0
11950483	8031	0	0	-100	0	230	101300000	1000	0	0	-1	0
11963043	8027	0	0	-100	0	230	101300000	1000	0	0	-1	0
11975603	8025	0	0	-100	0	230	101300000	1000	0	0	-1	0
11988163	8018	0	0	-100	0	230	101300000	1000	0	0	-1	0
12000723	8022	0	0	-100	0	230	101300000	1000	0	0	-1	0
12013283	8022	1	0	-100	0	230	101300000	1000	0	0	-1	0
12025843	8022	2	0	-100	0	230	101300000	1000	0	0	-1	0
12038403	8022	0	0	-100	0	230	101300000	1000	0	0	-1	0
12050963	8024	0	0	-100	0	230	101300000	1000	0	0	-1	0
12063523	8029	0	0	-100	0	230	101300000	1000	0	0	-1	0
12076083	8027	0	0	-100	0	230	101300000	1000	0	0	-1	0
12088643	8029	0	0	-100	0	230	101300000	1000	0	0	-1	0
12101203	8024	0	0	-100	0	230	101300000	1000	0	0	-1	0
12113763	8026	3	0	-100	0	230	101300000	1000	0	0	-1	0
12126323	8018	0	0	-100	0	230	101300000	1000	0	0	-1	0
12138883	8025	0	0	-100	0	230	101300000	1000	0	0	-1	0
12151443	8023	0	0	-100	0	230	101300000	1000	0	0	-1	0
12164004	8017	1	0	-100	0	230	101300000	1000	0	0	-1	0
12176563	8025	0	0	-100	0	230	101300000	1000	0	0	-1	0
12189123	8029	0	0	-100	0	230	101300000	1000	0	0	-1	0
12201683	8034	0	0	-100	0	230	101300000	1000	0	0	-1	0
12214243	8029	0	0	-100	0	230	101300000	1000	0	0	-1	0
12226803	8022	0	0	-100	0	230	101300000	1000	0	0	-1	0
12239363	8020	2	0	-100	0	230	101300000	1000	0	0	-1	0
12251923	8022	1	0	-100	0	230	101300000	1000	0	0	-1	0
12264483	8022	2	0	-100	0	230	101300000	1000	0	0	-1	0
12277043	8018	3	0	-100	0	230	101300000	1000	0	0	-1	0
12289603	8026	3	0	-100	0	230	101300000	1000	0	0	-1	0
12302163	8018	3	0	-100	0	230	101300000	1000	0	0	-1	0
12314723	8027	4	0	-100	0	230	101300000	1000	0	0	-1	0
12327283	8022	0	0	-100	0	230	101300000	1000	0	0	-1	0
12339843	8022	0	0	-100	0	230	101300000	1000	0	0	-1	0
12352403	8020	0	0	-100	0	230	101300000	1000	0	0	-1	0
12364963	8023	0	0	-100	0	230	101300000	1000	0	0	-1	0
12377523	8025	0	0	-100	0	230	101300000	1000	0	0	-1	0
12390083	8027	0	0	-100	0	230	101300000	1000	0	0	-1	0
12402643	8027	0	0	-100	0	230	101300000	1000	0	0	-1	0
12415203	8025	0	0	-100	0	230	101300000	1000	0	0	-1	0
12427763	8025	0	0	-100	0	230	101300000	1000	0	0	-1	0
12440323	8025	0	0	-100	0	230	101300000	1000	0	0	-1	0
12452883	8032	0	0	-100	0	230	101300000	1000	0	0	-1	0
12465443	8029	0	0	-100	0	230	101300000	1000	0	0	-1	0
12478004	8020	3	0	-100	0	230	101300000	1000	0	0	-1	0
12490563	8029	0	0	-100	0	230	101300000	1000	0	0	-1	0
12503123	8020	1	0	-100	0	230	101300000	1000	0	0	-1	0
12515683	8026	4	0	-100	0	230	101300000	1000	0	0	-1	0
12528243	8022	0	0	-100	0	230	101300000	1000	0	0	-1	0
12540803	8022	0	0	-100	0	230	101300000	1000	0	0	-1	0
12553363	8029	0	0	-100	0	230	101300000	1000	0	0	-1	0
12565923	8032	0	0	-100	0	230	101300000	1000	0	0	-1	0
12578483	8032	0	0	-100	0	230	101300000	1000	0	0	-1	0
12591043	8032	0	0	-100	0	230	101300000	1000	0	0	-1	0
12603603	8027	0	0	-100	0	230	101300000	1000	0	0	-1	0
12616163	8016	0	0	-100	0	230	101300000	1000	0	0	-1	0
12628723	8026	0	0	-100	0	230	101300000	1000	0	0	-1	0
12641283	8026	3	0	-100	0	230	101300000	1000	0	0	-1	0
12653843	8022	3	0	-100	0	230	101300000	1000	0	0	-1	0
12666403	8024	4	0	-100	0	230	101300000	1000	0	0	-1	0
12678963	8025	0	0	-100	0	230	101300000	1000	0	0	-1	0
12691523	8022	0	0	-100	0	230	101300000	1000	0	0	-1	0
12704083	8022	0	0	-100	0	230	101300000	1000	0	0	-1	0
12716643	8022	0	0	-100	0	230	101300000	1000	0	0	-1	0
12729203	8024	0	0	-100	0	230	101300000	1000	0	0	-1	0
12741763	8024	0	0	-100	0	230	101300000	1000	0	0	-1	0
12754323	8022	0	0	-100	0	230	101300000	1000	0	0	-1	0
12766883	8024	0	0	-100	0	230	101300000	1000	0	0	-1	0
12779443	8027	0	0	-100	0	230	101300000	1000	0	0	-1	0
12792004	8029	0	0	-100	0	230	101300000	1000	0	0	-1	0
12804563	8022	0	0	-100	0	230	101300000	1000	0	0	-1	0
12842243	8034	0	0	-100	0	230	101300000	1000	0	0	-1	0
12854803	8029	0	0	-100	0	230	101300000	1000	0	0	-1	0
12867363	8022	0	0	-100	0	230	101300000	1000	0	0	-1	0
12879923	8024	0	0	-100	0	230	101300000	1000	0	0	-1	0
12892483	8024	1	0	-100	0	230	101300000	1000	0	0	-1	0
12905043	8026	3	0	-100	0	230	101300000	1000	0	0	-1	0
12917603	8020	4	0	-100	0	230	101300000	1000	0	0	-1	0
12930163	8015	0	0	-100	0	230	101300000	1000	0	0	-1	0
12942723	8025	0	0	-100	0	230	101300000	1000	0	0	-1	0
12955283	8027	0	0	-100	0	230	101300000	1000	0	0	-1	0
12967843	8027	0	0	-100	0	230	101300000	1000	0	0	-1	0
13043203	8027	0	0	-100	0	230	101300000	1000	0	0	-1	0
13055763	8022	0	0	-100	0	230	101300000	1000	0	0	-1	0
13068323	8027	0	0	-100	0	230	101300000	1000	0	0	-1	0
13080883	8034	0	0	-100	0	230	101300000	1000	0	0	-1	0
13093443	8034	0	0	-100	0	230	101300000	1000	0	0	-1	0
13106004	8026	5	0	-100	0	230	101300000	1000	0	0	-1	0
13118563	8024	3	0	-100	0	230	101300000	1000	0	0	-1	0
13131123	8026	3	0	-100	0	230	101300000	1000	0	0	-1	0
13143683	8024	4	0	-100	0	230	101300000	1000	0	0	-1	0
13156243	8029	0	0	-100	0	230	101300000	1000	0	0	-1	0
13168803	8020	0	0	-100	0	230	101300000	1000	0	0	-1	0
13181363	8020	0	0	-100	0	230	101300000	1000	0	0	-1	0
13193923	8024	0	0	-100	0	230	101300000	1000	0	0	-1	0
13206483	8027	0	0	-100	0	230	101300000	1000	0	0	-1	0
13219043	8029	0	0	-100	0	230	101300000	1000	0	0	-1	0
13231603	8029	0	0	-100	0	230	101300000	1000	0	0	-1	0
13244163	8021	0	0	-100	0	230	101300000	1000	0	0	-1	0
13256723	8029	0	0	-100	0	230	101300000	1000	0	0	-1	0
13269283	8022	1	0	-100	0	230	101300000	1000	0	0	-1	0
13281843	8026	2	0	-100	0	230	101300000	1000	0	0	-1	0
13294403	8022	4	0	-100	0	230	101300000	1000	0	0	-1	0
13306963	8026	3	0	-100	0	230	101300000	1000	0	0	-1	0
13319523	8024	3	0	-100	0	230	101300000	1000	0	0	-1	0
13332083	8025	0	0	-100	0	230	101300000	1000	0	0	-1	0
13344643	8020	0	0	-100	0	230	101300000	1000	0	0	-1	0
13357203	8022	0	0	-100	0	230	101300000	1000	0	0	-1	0
13369763	8020	0	0	-100	0	230	101300000	1000	0	0	-1	0
13382323	8027	0	0	-100	0	230	101300000	1000	0	0	-1	0
13394883	8025	0	0	-100	0	230	101300000	1000	0	0	-1	0
13407443	8027	0	0	-100	0	230	101300000	1000	0	0	-1	0
13420004	8018	2	0	-100	0	230	101300000	1000	0	0	-1	0
13432563	8029	0	0	-100	0	230	101300000	1000	0	0	-1	0
13445123	8024	0	0	-100	0	230	101300000	1000	0	0	-1	0
13457683	8018	3	0	-100	0	230	101300000	1000	0	0	-1	0
13470243	8027	4	0	-100	0	230	101300000	1000	0	0	-1	0
13482803	8022	0	0	-100	0	230	101300000	1000	0	0	-1	0
13495363	8020	0	0	-100	0	230	101300000	1000	0	0	-1	0
13507923	8022	0	0	-100	0	230	101300000	1000	0	0	-1	0
13520483	8027	0	0	-100	0	230	101300000	1000	0	0	-1	0
13533043	8029	0	0	-100	0	230	101300000	1000	0	0	-1	0
13545603	8029	0	0	-100	0	230	101300000	1000	0	0	-1	0
13558163	8025	0	0	-100	0	230	101300000	1000	0	0	-1	0
13570723	8022	2	0	-100	0	230	101300000	1000	0	0	-1	0
13583283	8027	4	0	-100	0	230	101300000	1000	0	0	-1	0
13595843	8024	0	0	-100	0	230	101300000	1000	0	0	-1	0
13608403	8029	0	0	-100	0	230	101300000	1000	0	0	-1	0
13620963	8022	1	0	-100	0	230	101300000	1000	0	0	-1	0
13633523	8018	0	0	-100	0	230	101300000	1000	0	0	-1	0
13646083	8025	0	0	-100	0	230	101300000	1000	0	0	-1	0
13658643	8029	0	0	-100	0	230	101300000	1000	0	0	-1	0
13671203	8032	0	0	-100	0	230	101300000	1000	0	0	-1	0
13683763	8025	0	0	-100	0	230	101300000	1000	0	0	-1	0
13696323	8024	2	0	-100	0	230	101300000	1000	0	0	-1	0
13708883	8022	0	0	-100	0	230	101300000	1000	0	0	-1	0
13721443	8022	0	0	-100	0	230	101300000	1000	0	0	-1	0
13734004	8013	3	0	-100	0	230	101300000	1000	0	0	-1	0
13746563	8022	1	0	-100	0	230	101300000	1000	0	0	-1	0
13759123	8020	0	0	-100	0	230	101300000	1000	0	0	-1	0
13771683	8029	0	0	-100	0	230	101300000	1000	0	0	-1	0
13784243	8033	0	0	-100	0	230	101300000	1000	0	0	-1	0
13796803	8027	2	0	-100	0	230	101300000	1000	0	0	-1	0
13809363	8029	0	0	-100	0	230	101300000	1000	0	0	-1	0
13821923	8022	1	0	-100	0	230	101300000	1000	0	0	-1	0
13834483	8018	0	0	-100	0	230	101300000	1000	0	0	-1	0
13847043	8022	0	0	-100	0	230	101300000	1000	0	0	-1	0
13859603	8029	0	0	-100	0	230	101300000	1000	0	0	-1	0
13872163	8015	0	0	-100	0	230	101300000	1000	0	0	-1	0
13884723	8022	4	0	-100	0	230	101300000	1000	0	0	-1	0
13897283	8020	0	0	-100	0	230	101300000	1000	0	0	-1	0
13909843	8025	0	0	-100	0	230	101300000	1000	0	0	-1	0
13922403	8025	0	0	-100	0	230	101300000	1000	0	0	-1	0
13934963	8024	2	0	-100	0	230	101300000	1000	0	0	-1	0
13947523	8022	5	0	-100	0	230	101300000	1000	0	0	-1	0
13960083	8024	0	0	-100	0	230	101300000	1000	0	0	-1	0
13972643	8029	0	0	-100	0	230	101300000	1000	0	0	-1	0
13985203	8032	0	0	-100	0	230	101300000	1000	0	0	-1	0
13997763	8026	0	0	-100	0	230	101300000	1000	0	0	-1	0
14010323	8020	3	0	-100	0	230	101300000	1000	0	0	-1	0
14022883	8022	0	0	-100	0	230	101300000	1000	0	0	-1	0
14035443	8023	0	0	-100	0	230	101300000	1000	0	0	-1	0
14048004	8015	2	0	-100	0	230	101300000	1000	0	0	-1	0
14060563	8029	0	0	-100	0	230	101300000	1000	0	0	-1	0
14073123	8024	3	0	-100	0	230	101300000	1000	0	0	-1	0
14085683	8020	0	0	-100	0	230	101300000	1000	0	0	-1	0
14098243	8025	0	0	-100	0	230	101300000	1000	0	0	-1	0
14110803	8025	0	0	-100	0	230	101300000	1000	0	0	-1	0
14123363	8022	0	0	-100	0	230	101300000	1000	0	0	-1	0
14135923	8022	3	0	-100	0	230	101300000	1000	0	0	-1	0
14148483	8020	4	0	-100	0	230	101300000	1000	0	0	-1	0
14161043	8020	1	0	-100	0	230	101300000	1000	0	0	-1	0
14173603	8022	0	0	-100	0	230	101300000	1000	0	0	-1	0
14186163	8013	0	0	-100	0	230	101300000	1000	0	0	-1	0
14198723	8027	0	0	-100	0	230	101300000	1000	0	0	-1	0
14211283	8025	0	0	-100	0	230	101300000	1000	0	0	-1	0
14223843	8032	0	0	-100	0	230	101300000	1000	0	0	-1	0
14236403	8022	0	0	-100	0	230	101300000	1000	0	0	-1	0
14248963	8024	2	0	-100	0	230	101300000	1000	0	0	-1	0
14261523	8026	3	0	-100	0	230	101300000	1000	0	0	-1	0
14274083	8020	0	0	-100	0	230	101300000	1000	0	0	-1	0
14286643	8025	0	0	-100	0	230	101300000	1000	0	0	-1	0
14299203	8027	0	0	-100	0	230	101300000	1000	0	0	-1	0
14311763	8027	0	0	-100	0	230	101300000	1000	0	0	-1	0
14324323	8025	0	0	-100	0	230	101300000	1000	0	0	-1	0
14336883	8027	0	0	-100	0	230	101300000	1000	0	0	-1	0
14349443	8029	3	0	-100	0	230	101300000	1000	0	0	-1	0
14362004	8029	0	0	-100	0	230	101300000	1000	0	0	-1	0
14374563	8022	4	0	-100	0	230	101300000	1000	0	0	-1	0
14387123	8022	0	0	-100	0	230	101300000	1000	0	0	-1	0
14399683	8027	0	0	-100	0	230	101300000	1000	0	0	-1	0
14412243	8027	0	0	-100	0	230	101300000	1000	0	0	-1	0
14424803	8032	0	0	-100	0	230	101300000	1000	0	0	-1	0
14437363	8027	0	0	-100	0	230	101300000	1000	0	0	-1	0
14449923	8032	0	0	-100	0	230	101300000	1000	0	0	-1	0
14462483	8026	0	0	-100	0	230	101300000	1000	0	0	-1	0
14475043	8022	2	0	-100	0	230	101300000	1000	0	0	-1	0
14487603	8024	2	0	-100	0	230	101300000	1000	0	0	-1	0
14500163	8018	3	0	-100	0	230	101300000	1000	0	0	-1	0
14512723	8024	3	0	-100	0	230	101300000	1000	0	0	-1	0
14525283	8025	3	0	-100	0	230	101300000	1000	0	0	-1	0
14537843	8022	0	0	-100	0	230	101300000	1000	0	0	-1	0
14550403	8029	0	0	-100	0	230	101300000	1000	0	0	-1	0
14562963	8029	0	0	-100	0	230	101300000	1000	0	0	-1	0
14575523	8027	0	0	-100	0	230	101300000	1000	0	0	-1	0
14588083	8027	0	0	-100	0	230	101300000	1000	0	0	-1	0
14600643	8022	1	0	-100	0	230	101300000	1000	0	0	-1	0
14613203	8022	2	0	-100	0	230	101300000	1000	0	0	-1	0
14625763	8025	4	0	-100	0	230	101300000	1000	0	0	-1	0
14638323	8022	0	0	-100	0	230	101300000	1000	0	0	-1	0
14650883	8024	0	0	-100	0	230	101300000	1000	0	0	-1	0
14663443	8025	0	0	-100	0	230	101300000	1000	0	0	-1	0
14676004	8027	0	0	-100	0	230	101300000	1000	0	0	-1	0
14688563	8029	0	0	-100	0	230	101300000	1000	0	0	-1	0
14701123	8029	0	0	-100	0	230	101300000	1000	0	0	-1	0
14713683	8029	0	0	-100	0	230	101300000	1000	0	0	-1	0
14726243	8024	3	0	-100	0	230	101300000	1000	0	0	-1	0
14738803	8029	0	0	-100	0	230	101300000	1000	0	0	-1	0
14751363	8027	0	0	-100	0	230	101300000	1000	0	0	-1	0
14763923	8024	2	0	-100	0	230	101300000	1000	0	0	-1	0
14776483	8020	0	0	-100	0	230	101300000	1000	0	0	-1	0
14789043	8027	0	0	-100	0	230	101300000	1000	0	0	-1	0
14801603	8030	0	0	-100	0	230	101300000	1000	0	0	-1	0
14814163	8013	3	0	-100	0	230	101300000	1000	0	0	-1	0
14826723	8020	0	0	-100	0	230	101300000	1000	0	0	-1	0
14839283	8025	0	0	-100	0	230	101300000	1000	0	0	-1	0
14851843	8030	0	0	-100	0	230	101300000	1000	0	0	-1	0
14864403	8024	0	0	-100	0	230	101300000	1000	0	0	-1	0
14876963	8022	3	0	-100	0	230	101300000	1000	0	0	-1	0
14889523	8020	0	0	-100	0	230	101300000	1000	0	0	-1	0
14902083	8027	0	0	-100	0	230	101300000	1000	0	0	-1	0
14914643	8029	0	0	-100	0	230	101300000	1000	0	0	-1	0
14927203	8027	0	0	-100	0	230	101300000	1000	0	0	-1	0
14939763	8022	2	0	-100	0	230	101300000	1000	0	0	-1	0
14952323	8018	0	0	-100	0	230	101300000	1000	0	0	-1	0
14964883	8025	0	0	-100	0	230	101300000	1000	0	0	-1	0
14977443	8032	0	0	-100	0	230	101300000	1000	0	0	-1	0
14990004	8022	0	0	-100	0	230	101300000	1000	0	0	-1	0
15002563	8020	4	0	-100	0	230	101300000	1000	0	0	-1	0
15015123	8022	0	0	-100	0	230	101300000	1000	0	0	-1	0
15027683	8024	0	0	-100	0	230	101300000	1000	0	0	-1	0
15040243	8029	0	0	-100	0	230	101300000	1000	0	0	-1	0
15052803	8027	0	0	-100	0	230	101300000	1000	0	0	-1	0
15065363	8025	0	0	-100	0	230	101300000	1000	0	0	-1	0
15077923	8029	0	0	-100	0	230	101300000	1000	0	0	-1	0
15090483	8022	0	0	-100	0	230	101300000	1000	0	0	-1	0
15103043	8024	3	0	-100	0	230	101300000	1000	0	0	-1	0
15115603	8020	0	0	-100	0	230	101300000	1000	0	0	-1	0
15128163	8018	0	0	-100	0	230	101300000	1000	0	0	-1	0
15140723	8027	0	0	-100	0	230	101300000	1000	0	0	-1	0
15153283	8029	0	0	-100	0	230	101300000	1000	0	0	-1	0
15165843	8027	0	0	-100	0	230	101300000	1000	0	0	-1	0
15178403	8018	1	0	-100	0	230	101300000	1000	0	0	-1	0
15190963	8024	3	0	-100	0	230	101300000	1000	0	0	-1	0
15203523	8026	3	0	-100	0	230	101300000	1000	0	0	-1	0
15216083	8025	0	0	-100	0	230	101300000	1000	0	0	-1	0
15228643	8024	0	0	-100	0	230	101300000	1000	0	0	-1	0
15241203	8025	0	0	-100	0	230	101300000	1000	0	0	-1	0
15253763	8025	0	0	-100	0	230	101300000	1000	0	0	-1	0
15266323	8032	0	0	-100	0	230	101300000	1000	0	0	-1	0
15278883	8034	0	0	-100	0	230	101300000	1000	0	0	-1	0
15291443	8024	0	0	-100	0	230	101300000	1000	0	0	-1	0
15304004	8022	0	0	-100	0	230	101300000	1000	0	0	-1	0
15316563	8026	2	0	-100	0	230	101300000	1000	0	0	-1	0
15329123	8024	3	0	-100	0	230	101300000	1000	0	0	-1	0
15341683	8020	0	0	-100	0	230	101300000	1000	0	0	-1	0
15354243	8018	0	0	-100	0	230	101300000	1000	0	0	-1	0
15366803	8029	0	0	-100	0	230	101300000	1000	0	0	-1	0
15379363	8025	0	0	-100	0	230	101300000	1000	0	0	-1	0
15391923	8018	3	0	-100	0	230	101300000	1000	0	0	-1	0
15404483	8024	0	0	-100	0	230	101300000	1000	0	0	-1	0
15417043	8032	0	0	-100	0	230	101300000	1000	0	0	-1	0
15429603	8029	0	0	-100	0	230	101300000	1000	0	0	-1	0
15442163	8015	3	0	-100	0	230	101300000	1000	0	0	-1	0
15454723	8026	3	0	-100	0	230	101300000	1000	0	0	-1	0
15467283	8025	3	0	-100	0	230	101300000	1000	0	0	-1	0
15479843	8022	0	0	-100	0	230	101300000	1000	0	0	-1	0
15492403	8022	0	0	-100	0	230	101300000	1000	0	0	-1	0
15504963	8027	0	0	-100	0	230	101300000	1000	0	0	-1	0
15517523	8027	0	0	-100	0	230	101300000	1000	0	0	-1	0
15530083	8025	1	0	-100	0	230	101300000	1000	0	0	-1	0
15542643	8024	3	0	-100	0	230	101300000	1000	0	0	-1	0
15555203	8022	0	0	-100	0	230	101300000	1000	0	0	-1	0
15567763	8027	0	0	-100	0	230	101300000	1000	0	0	-1	0
15580323	8029	0	0	-100	0	230	101300000	1000	0	0	-1	0
15592883	8027	0	0	-100	0	230	101300000	1000	0	0	-1	0
15605443	8022	0	0	-100	0	230	101300000	1000	0	0	-1	0
15618004	8027	0	0	-100	0	230	101300000	1000	0	0	-1	0
15630563	8018	0	0	-100	0	230	101300000	1000	0	0	-1	0
15643123	8024	0	0	-100	0	230	101300000	1000	0	0	-1	0
15655683	8027	0	0	-100	0	230	101300000	1000	0	0	-1	0
15668243	8023	0	0	-100	0	230	101300000	1000	0	0	-1	0
15680803	8029	0	0	-100	0	230	101300000	1000	0	0	-1	0
15693363	8032	0	0	-100	0	230	101300000	1000	0	0	-1	0
15705923	8027	0	0	-100	0	230	101300000	1000	0	0	-1	0
15718483	8032	0	0	-100	0	230	101300000	1000	0	0	-1	0
15731043	8032	0	0	-100	0	230	101300000	1000	0	0	-1	0
15743603	8029	0	0	-100	0	230	101300000	1000	0	0	-1	0
15756163	8018	0	0	-100	0	230	101300000	1000	0	0	-1	0
15768723	8022	4	0	-100	0	230	101300000	1000	0	0	-1	0
15781283	8020	0	0	-100	0	230	101300000	1000	0	0	-1	0
15793843	8025	0	0	-100	0	230	101300000	1000	0	0	-1	0
15806403	8027	0	0	-100	0	230	101300000	1000	0	0	-1	0
15818963	8029	0	0	-100	0	230	101300000	1000	0	0	-1	0
15831523	8020	1	0	-100	0	230	101300000	1000	0	0	-1	0
15844083	8022	1	0	-100	0	230	101300000	1000	0	0	-1	0
15856643	8020	1	0	-100	0	230	101300000	1000	0	0	-1	0
15869203	8026	3	0	-100	0	230	101300000	1000	0	0	-1	0
15881763	8020	1	0	-100	0	230	101300000	1000	0	0	-1	0
15894323	8024	0	0	-100	0	230	101300000	1000	0	0	-1	0
15906883	8027	0	0	-100	0	230	101300000	1000	0	0	-1	0
15919443	8027	0	0	-100	0	230	101300000	1000	0	0	-1	0
15932004	8022	0	0	-100	0	230	101300000	1000	0	0	-1	0
15944563	8029	0	0	-100	0	230	101300000	1000	0	0	-1	0
15957123	8024	1	0	-100	0	230	101300000	1000	0	0	-1	0
15969683	8024	4	0	-100	0	230	101300000	1000	0	0	-1	0
15982243	8025	4	0	-100	0	230	101300000	1000	0	0	-1	0
15994803	8022	2	0	-100	0	230	101300000	1000	0	0	-1	0
16007363	8026	0	0	-100	0	230	101300000	1000	0	0	-1	0
16019923	8027	0	0	-100	0	230	101300000	1000	0	0	-1	0
16032483	8029	0	0	-100	0	230	101300000	1000	0	0	-1	0
16095283	8032	0	0	-100	0	230	101300000	1000	0	0	-1	0
16107843	8025	0	0	-100	0	230	101300000	1000	0	0	-1	0
16120403	8020	0	0	-100	0	230	101300000	1000	0	0	-1	0
16132963	8020	0	0	-100	0	230	101300000	1000	0	0	-1	0
16145523	8020	0	0	-100	0	230	101300000	1000	0	0	-1	0
16158083	8020	0	0	-100	0	230	101300000	1000	0	0	-1	0
16170643	8022	0	0	-100	0	230	101300000	1000	0	0	-1	0
16183203	8022	0	0	-100	0	230	101300000	1000	0	0	-1	0
16195763	8022	0	0	-100	0	230	101300000	1000	0	0	-1	0
16208323	8029	0	0	-100	0	230	101300000	1000	0	0	-1	0
16220883	8022	0	0	-100	0	230	101300000	1000	0	0	-1	0
16233443	8027	2	0	-100	0	230	101300000	1000	0	0	-1	0
16246004	8029	0	0	-100	0	230	101300000	1000	0	0	-1	0
16258563	8022	4	0	-100	0	230	101300000	1000	0	0	-1	0
16271123	8024	4	0	-100	0	230	101300000	1000	0	0	-1	0
16283683	8020	4	0	-100	0	230	101300000	1000	0	0	-1	0
16296243	8020	0	0	-100	0	230	101300000	1000	0	0	-1	0
16308803	8020	1	0	-100	0	230	101300000	1000	0	0	-1	0
16321363	8020	3	0	-100	0	230	101300000	1000	0	0	-1	0
16333923	8024	2	0	-100	0	230	101300000	1000	0	0	-1	0
16346483	8024	2	0	-100	0	230	101300000	1000	0	0	-1	0
16359043	8022	3	0	-100	0	230	101300000	1000	0	0	-1	0
16371603	8024	2	0	-100	0	230	101300000	1000	0	0	-1	0
16384163	8020	2	0	-100	0	230	101300000	1000	0	0	-1	0
16396723	8022	0	0	-100	0	230	101300000	1000	0	0	-1	0
16409283	8024	1	0	-100	0	230	101300000	1000	0	0	-1	0
16421843	8024	3	0	-100	0	230	101300000	1000	0	0	-1	0
16434403	8020	2	0	-100	0	230	101300000	1000	0	0	-1	0
16446963	8026	0	0	-100	0	230	101300000	1000	0	0	-1	0
16459523	8020	2	0	-100	0	230	101300000	1000	0	0	-1	0
16472083	8026	2	0	-100	0	230	101300000	1000	0	0	-1	0
16484643	8022	3	0	-100	0	230	101300000	1000	0	0	-1	0
16497203	8020	4	0	-100	0	230	101300000	1000	0	0	-1	0
16509763	8022	0	0	-100	0	230	101300000	1000	0	0	-1	0
16522323	8022	0	0	-100	0	230	101300000	1000	0	0	-1	0
16534883	8032	0	0	-100	0	230	101300000	1000	0	0	-1	0
16547443	8025	0	0	-100	0	230	101300000	1000	0	0	-1	0
16560004	8022	0	0	-100	0	230	101300000	1000	0	0	-1	0
16572563	8022	0	0	-100	0	230	101300000	1000	0	0	-1	0
16585123	8027	0	0	-100	0	230	101300000	1000	0	0	-1	0
16597683	8027	0	0	-100	0	230	101300000	1000	0	0	-1	0
16610243	8027	0	0	-100	0	230	101300000	1000	0	0	-1	0
16622803	8032	0	0	-100	0	230	101300000	1000	0	0	-1	0
16635363	8025	2	0	-100	0	230	101300000	1000	0	0	-1	0
16647923	8022	4	0	-100	0	230	101300000	1000	0	0	-1	0
16660483	8020	4	0	-100	0	230	101300000	1000	0	0	-1	0
16673043	8020	4	0	-100	0	230	101300000	1000	0	0	-1	0
16685603	8025	0	0	-100	0	230	101300000	1000	0	0	-1	0
16698163	8011	0	0	-100	0	230	101300000	1000	0	0	-1	0
16710723	8024	0	0	-100	0	230	101300000	1000	0	0	-1	0
16723283	8018	0	0	-100	0	230	101300000	1000	0	0	-1	0
16735843	8024	0	0	-100	0	230	101300000	1000	0	0	-1	0
16748403	8029	0	0	-100	0	230	101300000	1000	0	0	-1	0
16760963	8024	0	0	-100	0	230	101300000	1000	0	0	-1	0
16773523	8022	0	0	-100	0	230	101300000	1000	0	0	-1	0
16786083	8020	0	0	-100	0	230	101300000	1000	0	0	-1	0
16798643	8024	0	0	-100	0	230	101300000	1000	0	0	-1	0
16811203	8022	0	0	-100	0	230	101300000	1000	0	0	-1	0
16823763	8020	0	0	-100	0	230	101300000	1000	0	0	-1	0
16836323	8018	0	0	-100	0	230	101300000	1000	0	0	-1	0
16848883	8022	0	0	-100	0	230	101300000	1000	0	0	-1	0
16861443	8025	0	0	-100	0	230	101300000	1000	0	0	-1	0
16874004	8027	0	0	-100	0	230	101300000	1000	0	0	-1	0
16886563	8022	0	0	-100	0	230	101300000	1000	0	0	-1	0
16899123	8024	0	0	-100	0	230	101300000	1000	0	0	-1	0
16911683	8029	0	0	-100	0	230	101300000	1000	0	0	-1	0
16924243	8022	3	0	-100	0	230	101300000	1000	0	0	-1	0
16936803	8024	0	0	-100	0	230	101300000	1000	0	0	-1	0
16949363	8027	0	0	-100	0	230	101300000	1000	0	0	-1	0
16961923	8032	0	0	-100	0	230	101300000	1000	0	0	-1	0
16974483	8025	0	0	-100	0	230	101300000	1000	0	0	-1	0
16987043	8027	0	0	-100	0	230	101300000	1000	0	0	-1	0
16999603	8026	0	0	-100	0	230	101300000	1000	0	0	-1	0
17012163	8011	2	0	-100	0	230	101300000	1000	0	0	-1	0
17024723	8026	0	0	-100	0	230	101300000	1000	0	0	-1	0
17037283	8027	0	0	-100	0	230	101300000	1000	0	0	-1	0
17049843	8034	0	0	-100	0	230	101300000	1000	0	0	-1	0
17062403	8026	0	0	-100	0	230	101300000	1000	0	0	-1	0
17074963	8022	4	0	-100	0	230	101300000	1000	0	0	-1	0
17087523	8018	0	0	-100	0	230	101300000	1000	0	0	-1	0
17100083	8022	0	0	-100	0	230	101300000	1000	0	0	-1	0
17112643	8022	0	0	-100	0	230	101300000	1000	0	0	-1	0
17125203	8024	0	0	-100	0	230	101300000	1000	0	0	-1	0
17137763	8022	0	0	-100	0	230	101300000	1000	0	0	-1	0
17150323	8022	0	0	-100	0	230	101300000	1000	0	0	-1	0
17162883	8020	0	0	-100	0	230	101300000	1000	0	0	-1	0
17175443	8020	4	0	-100	0	230	101300000	1000	0	0	-1	0
17188004	8029	0	0	-100	0	230	101300000	1000	0	0	-1	0
17200563	8024	4	0	-100	0	230	101300000	1000	0	0	-1	0
17213123	8025	0	0	-100	0	230	101300000	1000	0	0	-1	0
17225683	8020	0	0	-100	0	230	101300000	1000	0	0	-1	0
17238243	8022	0	0	-100	0	230	101300000	1000	0	0	-1	0
17250803	8025	4	0	-100	0	230	101300000	1000	0	0	-1	0
17263363	8027	2	0	-100	0	230	101300000	1000	0	0	-1	0
17275923	8022	4	0	-100	0	230	101300000	1000	0	0	-1	0
17288483	8022	4	0	-100	0	230	101300000	1000	0	0	-1	0
17301043	8024	2	0	-100	0	230	101300000	1000	0	0	-1	0
17313603	8022	2	0	-100	0	230	101300000	1000	0	0	-1	0
17326163	8015	4	0	-100	0	230	101300000	1000	0	0	-1	0
17338723	8020	0	0	-100	0	230	101300000	1000	0	0	-1	0
17351283	8025	0	0	-100	0	230	101300000	1000	0	0	-1	0
17363843	8029	0	0	-100	0	230	101300000	1000	0	0	-1	0
17376403	8039	0	0	-100	0	230	101300000	1000	0	0	-1	0
17388963	8030	0	0	-100	0	230	101300000	1000	0	0	-1	0
17401523	8032	0	0	-100	0	230	101300000	1000	0	0	-1	0
17414083	8029	0	0	-100	0	230	101300000	1000	0	0	-1	0
17426643	8029	0	0	-100	0	230	101300000	1000	0	0	-1	0
17439203	8026	1	0	-100	0	230	101300000	1000	0	0	-1	0
17451763	8027	0	0	-100	0	230	101300000	1000	0	0	-1	0
17464323	8027	0	0	-100	0	230	101300000	1000	0	0	-1	0
17476883	8024	0	0	-100	0	230	101300000	1000	0	0	-1	0
17489443	8025	0	0	-100	0	230	101300000	1000	0	0	-1	0
17502004	8022	4	0	-100	0	230	101300000	1000	0	0	-1	0
17514563	8029	0	0	-100	0	230	101300000	1000	0	0	-1	0
17527123	8034	0	0	-100	0	230	101300000	1000	0	0	-1	0
17539683	8034	0	0	-100	0	230	101300000	1000	0	0	-1	0
17552243	8029	0	0	-100	0	230	101300000	1000	0	0	-1	0
17564803	8027	0	0	-100	0	230	101300000	1000	0	0	-1	0
17577363	8027	0	0	-100	0	230	101300000	1000	0	0	-1	0
17589923	8022	0	0	-100	0	230	101300000	1000	0	0	-1	0
17602483	8022	0	0	-100	0	230	101300000	1000	0	0	-1	0
17615043	8020	0	0	-100	0	230	101300000	1000	0	0	-1	0
17627603	8020	6	0	-100	0	230	101300000	1000	0	0	-1	0
17640163	8013	5	0	-100	0	230	101300000	1000	0	0	-1	0
17652723	8022	3	0	-100	0	230	101300000	1000	0	0	-1	0
17665283	8026	1	0	-100	0	230	101300000	1000	0	0	-1	0
17677843	8025	0	0	-100	0	230	101300000	1000	0	0	-1	0
17690403	8025	0	0	-100	0	230	101300000	1000	0	0	-1	0
17702963	8024	0	0	-100	0	230	101300000	1000	0	0	-1	0
17715523	8020	5	0	-100	0	230	101300000	1000	0	0	-1	0
17728083	8022	0	0	-100	0	230	101300000	1000	0	0	-1	0
17740643	8018	0	0	-100	0	230	101300000	1000	0	0	-1	0
17753203	8020	0	0	-100	0	230	101300000	1000	0	0	-1	0
17765763	8025	0	0	-100	0	230	101300000	1000	0	0	-1	0
17778323	8029	0	0	-100	0	230	101300000	1000	0	0	-1	0
17790883	8027	0	0	-100	0	230	101300000	1000	0	0	-1	0
17803443	8027	0	0	-100	0	230	101300000	1000	0	0	-1	0
17816004	8024	0	0	-100	0	230	101300000	1000	0	0	-1	0
17828563	8022	0	0	-100	0	230	101300000	1000	0	0	-1	0
17841123	8027	0	0	-100	0	230	101300000	1000	0	0	-1	0
17853683	8027	0	0	-100	0	230	101300000	1000	0	0	-1	0
17866243	8020	4	0	-100	0	230	101300000	1000	0	0	-1	0
17878803	8022	0	0	-100	0	230	101300000	1000	0	0	-1	0
17891363	8038	0	0	-100	0	230	101300000	1000	0	0	-1	0
17903923	8026	3	0	-100	0	230	101300000	1000	0	0	-1	0
17916483	8020	0	0	-100	0	230	101300000	1000	0	0	-1	0
17929043	8025	0	0	-100	0	230	101300000	1000	0	0	-1	0
17941603	8029	0	0	-100	0	230	101300000	1000	0	0	-1	0
17954163	8018	1	0	-100	0	230	101300000	1000	0	0	-1	0
17966723	8020	4	0	-100	0	230	101300000	1000	0	0	-1	0
17979283	8020	0	0	-100	0	230	101300000	1000	0	0	-1	0
17991843	8027	0	0	-100	0	230	101300000	1000	0	0	-1	0
18004403	8027	0	0	-100	0	230	101300000	1000	0	0	-1	0
18016963	8027	0	0	-100	0	230	101300000	1000	0	0	-1	0
18029523	8024	2	0	-100	0	230	101300000	1000	0	0	-1	0
18042083	8025	0	0	-100	0	230	101300000	1000	0	0	-1	0
18054643	8020	0	0	-100	0	230	101300000	1000	0	0	-1	0
18067203	8027	0	0	-100	0	230	101300000	1000	0	0	-1	0
18079763	8029	0	0	-100	0	230	101300000	1000	0	0	-1	0
18092323	8029	0	0	-100	0	230	101300000	1000	0	0	-1	0
18104883	8022	4	0	-100	0	230	101300000	1000	0	0	-1	0
18117443	8025	0	0	-100	0	230	101300000	1000	0	0	-1	0
18130004	8029	0	0	-100	0	230	101300000	1000	0	0	-1	0
18142563	8034	0	0	-100	0	230	101300000	1000	0	0	-1	0
18155123	8032	0	0	-100	0	230	101300000	1000	0	0	-1	0
18167683	8025	1	0	-100	0	230	101300000	1000	0	0	-1	0
18180243	8026	3	0	-100	0	230	101300000	1000	0	0	-1	0
18192803	8022	2	0	-100	0	230	101300000	1000	0	0	-1	0
18205363	8018	0	0	-100	0	230	101300000	1000	0	0	-1	0
18217923	8027	0	0	-100	0	230	101300000	1000	0	0	-1	0
18230483	8032	0	0	-100	0	230	101300000	1000	0	0	-1	0
18243043	8020	3	0	-100	0	230	101300000	1000	0	0	-1	0
18255603	8029	1	0	-100	0	230	101300000	1000	0	0	-1	0
18268163	8015	0	0	-100	0	230	101300000	1000	0	0	-1	0
18280723	8025	0	0	-100	0	230	101300000	1000	0	0	-1	0
18293283	8025	0	0	-100	0	230	101300000	1000	0	0	-1	0
18305843	8029	0	0	-100	0	230	101300000	1000	0	0	-1	0
18318403	8029	0	0	-100	0	230	101300000	1000	0	0	-1	0
18330963	8020	2	0	-100	0	230	101300000	1000	0	0	-1	0
18343523	8020	3	0	-100	0	230	101300000	1000	0	0	-1	0
18356083	8025	3	0	-100	0	230	101300000	1000	0	0	-1	0
18368643	8024	0	0	-100	0	230	101300000	1000	0	0	-1	0
18381203	8032	0	0	-100	0	230	101300000	1000	0	0	-1	0
18393763	8031	0	0	-100	0	230	101300000	1000	0	0	-1	0
18406323	8020	4	0	-100	0	230	101300000	1000	0	0	-1	0
18418883	8022	0	0	-100	0	230	101300000	1000	0	0	-1	0
18431443	8027	0	0	-100	0	230	101300000	1000	0	0	-1	0
18444004	8020	0	0	-100	0	230	101300000	1000	0	0	-1	0
18456563	8025	0	0	-100	0	230	101300000	1000	0	0	-1	0
18469123	8030	0	0	-100	0	230	101300000	1000	0	0	-1	0
18481683	8022	4	0	-100	0	230	101300000	1000	0	0	-1	0
18494243	8022	0	0	-100	0	230	101300000	1000	0	0	-1	0
18506803	8029	0	0	-100	0	230	101300000	1000	0	0	-1	0
18519363	8020	1	0	-100	0	230	101300000	1000	0	0	-1	0
18531923	8020	4	0	-100	0	230	101300000	1000	0	0	-1	0
18544483	8025	0	0	-100	0	230	101300000	1000	0	0	-1	0
18557043	8032	0	0	-100	0	230	101300000	1000	0	0	-1	0
18569603	8022	2	0	-100	0	230	101300000	1000	0	0	-1	0
18582163	8011	0	0	-100	0	230	101300000	1000	0	0	-1	0
18594723	8029	0	0	-100	0	230	101300000	1000	0	0	-1	0
18607283	8020	0	0	-100	0	230	101300000	1000	0	0	-1	0
18619843	8018	0	0	-100	0	230	101300000	1000	0	0	-1	0
18632403	8027	0	0	-100	0	230	101300000	1000	0	0	-1	0
18644963	8029	0	0	-100	0	230	101300000	1000	0	0	-1	0
18657523	8018	4	0	-100	0	230	101300000	1000	0	0	-1	0
18670083	8027	0	0	-100	0	230	101300000	1000	0	0	-1	0
18682643	8025	0	0	-100	0	230	101300000	1000	0	0	-1	0
18695203	8025	0	0	-100	0	230	101300000	1000	0	0	-1	0
18707763	8025	4	0	-100	0	230	101300000	1000	0	0	-1	0
18720323	8025	0	0	-100	0	230	101300000	1000	0	0	-1	0
18732883	8034	0	0	-100	0	230	101300000	1000	0	0	-1	0
18745443	8024	1	0	-100	0	230	101300000	1000	0	0	-1	0
18758004	8024	0	0	-100	0	230	101300000	1000	0	0	-1	0
18770563	8020	0	0	-100	0	230	101300000	1000	0	0	-1	0
18783123	8025	0	0	-100	0	230	101300000	1000	0	0	-1	0
18795683	8030	0	0	-100	0	230	101300000	1000	0	0	-1	0
18808243	8025	0	0	-100	0	230	101300000	1000	0	0	-1	0
18820803	8025	0	0	-100	0	230	101300000	1000	0	0	-1	0
18833363	8029	0	0	-100	0	230	101300000	1000	0	0	-1	0
18845923	8022	0	0	-100	0	230	101300000	1000	0	0	-1	0
18858483	8024	0	0	-100	0	230	101300000	1000	0	0	-1	0
18871043	8022	1	0	-100	0	230	101300000	1000	0	0	-1	0
18883603	8022	4	0	-100	0	230	101300000	1000	0	0	-1	0
18896163	8020	4	0	-100	0	230	101300000	1000	0	0	-1	0
18908723	8026	4	0	-100	0	230	101300000	1000	0	0	-1	0
18921283	8025	4	0	-100	0	230	101300000	1000	0	0	-1	0
18984083	8025	0	0	-100	0	230	101300000	1000	0	0	-1	0
18996643	8027	0	0	-100	0	230	101300000	1000	0	0	-1	0
19009203	8020	1	0	-100	0	230	101300000	1000	0	0	-1	0
19021763	8025	0	0	-100	0	230	101300000	1000	0	0	-1	0
19034323	8024	0	0	-100	0	230	101300000	1000	0	0	-1	0
19046883	8029	0	0	-100	0	230	101300000	1000	0	0	-1	0
19059443	8027	0	0	-100	0	230	101300000	1000	0	0	-1	0
19072004	8017	4	0	-100	0	230	101300000	1000	0	0	-1	0
19084563	8029	0	0	-100	0	230	101300000	1000	0	0	-1	0
19097123	8024	2	0	-100	0	230	101300000	1000	0	0	-1	0
19109683	8024	4	0	-100	0	230	101300000	1000	0	0	-1	0
19122243	8026	3	0	-100	0	230	101300000	1000	0	0	-1	0
19172483	8029	0	0	-100	0	230	101300000	1000	0	0	-1	0
19185043	8027	4	0	-100	0	230	101300000	1000	0	0	-1	0
19197603	8022	0	0	-100	0	230	101300000	1000	0	0	-1	0
19210163	8016	0	0	-100	0	230	101300000	1000	0	0	-1	0
19222723	8034	0	0	-100	0	230	101300000	1000	0	0	-1	0
19235283	8030	0	0	-100	0	230	101300000	1000	0	0	-1	0
19247843	8024	0	0	-100	0	230	101300000	1000	0	0	-1	0
19260403	8026	4	0	-100	0	230	101300000	1000	0	0	-1	0
19272963	8022	5	0	-100	0	230	101300000	1000	0	0	-1	0
19285523	8022	0	0	-100	0	230	101300000	1000	0	0	-1	0
19298083	8022	0	0	-100	0	230	101300000	1000	0	0	-1	0
19310643	8032	0	0	-100	0	230	101300000	1000	0	0	-1	0
19323203	8029	0	0	-100	0	230	101300000	1000	0	0	-1	0
19335763	8030	0	0	-100	0	230	101300000	1000	0	0	-1	0
19348323	8034	0	0	-100	0	230	101300000	1000	0	0	-1	0
19360883	8030	0	0	-100	0	230	101300000	1000	0	0	-1	0
19373443	8025	0	0	-100	0	230	101300000	1000	0	0	-1	0
19386004	8024	1	0	-100	0	230	101300000	1000	0	0	-1	0
19398563	8022	1	0	-100	0	230	101300000	1000	0	0	-1	0
19411123	8024	0	0	-100	0	230	101300000	1000	0	0	-1	0
19423683	8020	2	0	-100	0	230	101300000	1000	0	0	-1	0
19436243	8024	4	0	-100	0	230	101300000	1000	0	0	-1	0
19448803	8026	4	0	-100	0	230	101300000	1000	0	0	-1	0
19461363	8022	4	0	-100	0	230	101300000	1000	0	0	-1	0
19473923	8022	5	0	-100	0	230	101300000	1000	0	0	-1	0
19486483	8022	3	0	-100	0	230	101300000	1000	0	0	-1	0
19499043	8024	0	0	-100	0	230	101300000	1000	0	0	-1	0
19511603	8027	0	0	-100	0	230	101300000	1000	0	0	-1	0
19524163	8027	0	0	-100	0	230	101300000	1000	0	0	-1	0
19536723	8024	0	0	-100	0	230	101300000	1000	0	0	-1	0
19549283	8026	3	0	-100	0	230	101300000	1000	0	0	-1	0
19561843	8024	0	0	-100	0	230	101300000	1000	0	0	-1	0
19574403	8027	0	0	-100	0	230	101300000	1000	0	0	-1	0
19586963	8029	0	0	-100	0	230	101300000	1000	0	0	-1	0
19599523	8022	0	0	-100	0	230	101300000	1000	0	0	-1	0
19612083	8024	4	0	-100	0	230	101300000	1000	0	0	-1	0
19624643	8025	0	0	-100	0	230	101300000	1000	0	0	-1	0
19637203	8022	0	0	-100	0	230	101300000	1000	0	0	-1	0
19649763	8027	0	0	-100	0	230	101300000	1000	0	0	-1	0
19662323	8025	0	0	-100	0	230	101300000	1000	0	0	-1	0
19674883	8027	0	0	-100	0	230	101300000	1000	0	0	-1	0
19687443	8020	3	0	-100	0	230	101300000	1000	0	0	-1	0
19700004	8027	0	0	-100	0	230	101300000	1000	0	0	-1	0
19712563	8020	0	0	-100	0	230	101300000	1000	0	0	-1	0
19725123	8027	0	0	-100	0	230	101300000	1000	0	0	-1	0
19737683	8027	0	0	-100	0	230	101300000	1000	0	0	-1	0
19750243	8025	0	0	-100	0	230	101300000	1000	0	0	-1	0
19762803	8032	0	0	-100	0	230	101300000	1000	0	0	-1	0
19775363	8032	0	0	-100	0	230	101300000	1000	0	0	-1	0
19787923	8027	0	0	-100	0	230	101300000	1000	0	0	-1	0
19800483	8026	1	0	-100	0	230	101300000	1000	0	0	-1	0
19813043	8024	4	0	-100	0	230	101300000	1000	0	0	-1	0
19825603	8024	0	0	-100	0	230	101300000	1000	0	0	-1	0
19838163	8018	0	0	-100	0	230	101300000	1000	0	0	-1	0
19850723	8027	0	0	-100	0	230	101300000	1000	0	0	-1	0
19863283	8025	0	0	-100	0	230	101300000	1000	0	0	-1	0
19875843	8030	0	0	-100	0	230	101300000	1000	0	0	-1	0
19888403	8022	1	0	-100	0	230	101300000	1000	0	0	-1	0
19900963	8024	3	0	-100	0	230	101300000	1000	0	0	-1	0
19913523	8029	4	0	-100	0	230	101300000	1000	0	0	-1	0
19926083	8022	0	0	-100	0	230	101300000	1000	0	0	-1	0
19938643	8022	0	0	-100	0	230	101300000	1000	0	0	-1	0
19951203	8031	0	0	-100	0	230	101300000	1000	0	0	-1	0
19963763	8029	0	0	-100	0	230	101300000	1000	0	0	-1	0
19976323	8027	0	0	-100	0	230	101300000	1000	0	0	-1	0
19988883	8027	0	0	-100	0	230	101300000	1000	0	0	-1	0
20001443	8027	0	0	-100	0	230	101300000	1000	0	0	-1	0
20014004	8022	0	0	-100	0	230	101300000	1000	0	0	-1	0
20026563	8026	2	0	-100	0	230	101300000	1000	0	0	-1	0
20039123	8026	3	0	-100	0	230	101300000	1000	0	0	-1	0
20051683	8025	0	0	-100	0	230	101300000	1000	0	0	-1	0
20064243	8022	0	0	-100	0	230	101300000	1000	0	0	-1	0
20076803	8024	0	0	-100	0	230	101300000	1000	0	0	-1	0
20089363	8029	0	0	-100	0	230	101300000	1000	0	0	-1	0
20101923	8025	0	0	-100	0	230	101300000	1000	0	0	-1	0
20114483	8029	0	0	-100	0	230	101300000	1000	0	0	-1	0
20127043	8022	2	0	-100	0	230	101300000	1000	0	0	-1	0
20139603	8023	0	0	-100	0	230	101300000	1000	0	0	-1	0
20152163	8015	0	0	-100	0	230	101300000	1000	0	0	-1	0
20164723	8029	0	0	-100	0	230	101300000	1000	0	0	-1	0
20177283	8029	0	0	-100	0	230	101300000	1000	0	0	-1	0
20189843	8024	0	0	-100	0	230	101300000	1000	0	0	-1	0
20202403	8024	1	0	-100	0	230	101300000	1000	0	0	-1	0
20214963	8022	4	0	-100	0	230	101300000	1000	0	0	-1	0
20227523	8024	0	0	-100	0	230	101300000	1000	0	0	-1	0
20240083	8032	0	0	-100	0	230	101300000	1000	0	0	-1	0
20252643	8032	0	0	-100	0	230	101300000	1000	0	0	-1	0
20265203	8024	1	0	-100	0	230	101300000	1000	0	0	-1	0
20277763	8022	4	0	-100	0	230	101300000	1000	0	0	-1	0
20290323	8020	0	0	-100	0	230	101300000	1000	0	0	-1	0
20302883	8025	0	0	-100	0	230	101300000	1000	0	0	-1	0
20315443	8029	0	0	-100	0	230	101300000	1000	0	0	-1	0
20328004	8029	0	0	-100	0	230	101300000	1000	0	0	-1	0
20340563	8027	0	0	-100	0	230	101300000	1000	0	0	-1	0
20353123	8027	0	0	-100	0	230	101300000	1000	0	0	-1	0
20365683	8022	2	0	-100	0	230	101300000	1000	0	0	-1	0
20378243	8025	0	0	-100	0	230	101300000	1000	0	0	-1	0
20390803	8029	0	0	-100	0	230	101300000	1000	0	0	-1	0
20403363	8017	1	0	-100	0	230	101300000	1000	0	0	-1	0
20415923	8026	3	0	-100	0	230	101300000	1000	0	0	-1	0
20428483	8022	0	0	-100	0	230	101300000	1000	0	0	-1	0
20441043	8027	0	0	-100	0	230	101300000	1000	0	0	-1	0
20453603	8027	0	0	-100	0	230	101300000	1000	0	0	-1	0
20466163	8022	0	0	-100	0	230	101300000	1000	0	0	-1	0
20478723	8025	4	0	-100	0	230	101300000	1000	0	0	-1	0
20491283	8029	0	0	-100	0	230	101300000	1000	0	0	-1	0
20503843	8030	0	0	-100	0	230	101300000	1000	0	0	-1	0
20516403	8026	3	0	-100	0	230	101300000	1000	0	0	-1	0
20528963	8018	0	0	-100	0	230	101300000	1000	0	0	-1	0
20541523	8027	0	0	-100	0	230	101300000	1000	0	0	-1	0
20554083	8024	0	0	-100	0	230	101300000	1000	0	0	-1	0
20566643	8025	0	0	-100	0	230	101300000	1000	0	0	-1	0
20579203	8027	0	0	-100	0	230	101300000	1000	0	0	-1	0
20591763	8029	0	0	-100	0	230	101300000	1000	0	0	-1	0
20604323	8022	2	0	-100	0	230	101300000	1000	0	0	-1	0
20616883	8020	0	0	-100	0	230	101300000	1000	0	0	-1	0
20629443	8025	0	0	-100	0	230	101300000	1000	0	0	-1	0
20642004	8018	0	0	-100	0	230	101300000	1000	0	0	-1	0
20654563	8020	0	0	-100	0	230	101300000	1000	0	0	-1	0
20667123	8025	0	0	-100	0	230	101300000	1000	0	0	-1	0
20679683	8027	0	0	-100	0	230	101300000	1000	0	0	-1	0
20692243	8027	0	0	-100	0	230	101300000	1000	0	0	-1	0
20704803	8032	0	0	-100	0	230	101300000	1000	0	0	-1	0
20717363	8027	0	0	-100	0	230	101300000	1000	0	0	-1	0
20729923	8022	4	0	-100	0	230	101300000	1000	0	0	-1	0
20742483	8027	0	0	-100	0	230	101300000	1000	0	0	-1	0
20755043	8032	0	0	-100	0	230	101300000	1000	0	0	-1	0
20767603	8022	2	0	-100	0	230	101300000	1000	0	0	-1	0
20780163	8013	2	0	-100	0	230	101300000	1000	0	0	-1	0
20792723	8025	0	0	-100	0	230	101300000	1000	0	0	-1	0
20805283	8027	0	0	-100	0	230	101300000	1000	0	0	-1	0
20817843	8031	0	0	-100	0	230	101300000	1000	0	0	-1	0
20830403	8026	3	0	-100	0	230	101300000	1000	0	0	-1	0
20842963	8024	0	0	-100	0	230	101300000	1000	0	0	-1	0
20855523	8025	0	0	-100	0	230	101300000	1000	0	0	-1	0
20868083	8022	0	0	-100	0	230	101300000	1000	0	0	-1	0
20880643	8024	3	0	-100	0	230	101300000	1000	0	0	-1	0
20893203	8022	0	0	-100	0	230	101300000	1000	0	0	-1	0
20905763	8027	0	0	-100	0	230	101300000	1000	0	0	-1	0
20918323	8031	0	0	-100	0	230	101300000	1000	0	0	-1	0
20930883	8022	0	0	-100	0	230	101300000	1000	0	0	-1	0
20943443	8018	2	0	-100	0	230	101300000	1000	0	0	-1	0
20956004	8026	0	0	-100	0	230	101300000	1000	0	0	-1	0
20968563	8027	2	0	-100	0	230	101300000	1000	0	0	-1	0
20981123	8018	0	0	-100	0	230	101300000	1000	0	0	-1	0
20993683	8029	0	0	-100	0	230	101300000	1000	0	0	-1	0
21006243	8032	0	0	-100	0	230	101300000	1000	0	0	-1	0
21018803	8031	0	0	-100	0	230	101300000	1000	0	0	-1	0
21031363	8022	0	0	-100	0	230	101300000	1000	0	0	-1	0
21043923	8027	4	0	-100	0	230	101300000	1000	0	0	-1	0
21056483	8020	0	0	-100	0	230	101300000	1000	0	0	-1	0
21069043	8025	0	0	-100	0	230	101300000	1000	0	0	-1	0
21081603	8029	0	0	-100	0	230	101300000	1000	0	0	-1	0
21094163	8020	0	0	-100	0	230	101300000	1000	0	0	-1	0
21106723	8022	1	0	-100	0	230	101300000	1000	0	0	-1	0
21119283	8022	4	0	-100	0	230	101300000	1000	0	0	-1	0
21131843	8022	0	0	-100	0	230	101300000	1000	0	0	-1	0
21144403	8025	0	0	-100	0	230	101300000	1000	0	0	-1	0
21156963	8030	0	0	-100	0	230	101300000	1000	0	0	-1	0
21169523	8022	1	0	-100	0	230	101300000	1000	0	0	-1	0
21182083	8020	4	0	-100	0	230	101300000	1000	0	0	-1	0
21194643	8018	0	0	-100	0	230	101300000	1000	0	0	-1	0
21207203	8027	0	0	-100	0	230	101300000	1000	0	0	-1	0
21219763	8025	0	0	-100	0	230	101300000	1000	0	0	-1	0
21232323	8023	0	0	-100	0	230	101300000	1000	0	0	-1	0
21244883	8027	0	0	-100	0	230	101300000	1000	0	0	-1	0
21257443	8032	0	0	-100	0	230	101300000	1000	0	0	-1	0
21270004	8026	4	0	-100	0	230	101300000	1000	0	0	-1	0
21282563	8020	4	0	-100	0	230	101300000	1000	0	0	-1	0
21295123	8027	0	0	-100	0	230	101300000	1000	0	0	-1	0
21307683	8032	0	0	-100	0	230	101300000	1000	0	0	-1	0
21320243	8024	0	0	-100	0	230	101300000	1000	0	0	-1	0
21332803	8026	1	0	-100	0	230	101300000	1000	0	0	-1	0
21345363	8024	2	0	-100	0	230	101300000	1000	0	0	-1	0
21357923	8024	4	0	-100	0	230	101300000	1000	0	0	-1	0
21370483	8020	0	0	-100	0	230	101300000	1000	0	0	-1	0
21383043	8025	0	0	-100	0	230	101300000	1000	0	0	-1	0
21395603	8025	0	0	-100	0	230	101300000	1000	0	0	-1	0
21408163	8018	0	0	-100	0	230	101300000	1000	0	0	-1	0
21420723	8032	0	0	-100	0	230	101300000	1000	0	0	-1	0
21433283	8029	0	0	-100	0	230	101300000	1000	0	0	-1	0
21445843	8027	0	0	-100	0	230	101300000	1000	0	0	-1	0
21458403	8029	0	0	-100	0	230	101300000	1000	0	0	-1	0
21470963	8029	0	0	-100	0	230	101300000	1000	0	0	-1	0
21483523	8032	0	0	-100	0	230	101300000	1000	0	0	-1	0
21496083	8036	0	0	-100	0	230	101300000	1000	0	0	-1	0
21508643	8031	0	0	-100	0	230	101300000	1000	0	0	-1	0
21521203	8027	0	0	-100	0	230	101300000	1000	0	0	-1	0
21533763	8029	0	0	-100	0	230	101300000	1000	0	0	-1	0
21546323	8034	0	0	-100	0	230	101300000	1000	0	0	-1	0
21558883	8029	0	0	-100	0	230	101300000	1000	0	0	-1	0
21571443	8032	0	0	-100	0	230	101300000	1000	0	0	-1	0
21584004	8022	1	0	-100	0	230	101300000	1000	0	0	-1	0
21596563	8027	0	0	-100	0	230	101300000	1000	0	0	-1	0
21609123	8027	0	0	-100	0	230	101300000	1000	0	0	-1	0
21621683	8029	0	0	-100	0	230	101300000	1000	0	0	-1	0
21634243	8034	0	0	-100	0	230	101300000	1000	0	0	-1	0
21646803	8027	0	0	-100	0	230	101300000	1000	0	0	-1	0
21659363	8029	0	0	-100	0	230	101300000	1000	0	0	-1	0
21671923	8032	0	0	-100	0	230	101300000	1000	0	0	-1	0
21684483	8025	0	0	-100	0	230	101300000	1000	0	0	-1	0
21697043	8024	1	0	-100	0	230	101300000	1000	0	0	-1	0
21709603	8026	1	0	-100	0	230	101300000	1000	0	0	-1	0
21722163	8015	6	0	-100	0	230	101300000	1000	0	0	-1	0
21734723	8020	0	0	-100	0	230	101300000	1000	0	0	-1	0
21747283	8020	0	0	-100	0	230	101300000	1000	0	0	-1	0
21759843	8024	0	0	-100	0	230	101300000	1000	0	0	-1	0
21772403	8022	0	0	-100	0	230	101300000	1000	0	0	-1	0
21784963	8027	0	0	-100	0	230	101300000	1000	0	0	-1	0
21797523	8025	0	0	-100	0	230	101300000	1000	0	0	-1	0
21810083	8034	0	0	-100	0	230	101300000	1000	0	0	-1	0
21822643	8032	0	0	-100	0	230	101300000	1000	0	0	-1	0
21835203	8029	0	0	-100	0	230	101300000	1000	0	0	-1	0
21847763	8032	0	0	-100	0	230	101300000	1000	0	0	-1	0
21860323	8029	0	0	-100	0	230	101300000	1000	0	0	-1	0
21872883	8025	0	0	-100	0	230	101300000	1000	0	0	-1	0
21885443	8027	0	0	-100	0	230	101300000	1000	0	0	-1	0
21898004	8019	4	0	-100	0	230	101300000	1000	0	0	-1	0
21910563	8027	0	0	-100	0	230	101300000	1000	0	0	-1	0
21923123	8025	0	0	-100	0	230	101300000	1000	0	0	-1	0
21935683	8032	0	0	-100	0	230	101300000	1000	0	0	-1	0
21948243	8031	0	0	-100	0	230	101300000	1000	0	0	-1	0
21960803	8026	0	0	-100	0	230	101300000	1000	0	0	-1	0
21973363	8024	0	0	-100	0	230	101300000	1000	0	0	-1	0
21985923	8020	4	0	-100	0	230	101300000	1000	0	0	-1	0
21998483	8024	4	0	-100	0	230	101300000	1000	0	0	-1	0
22011043	8018	0	0	-100	0	230	101300000	1000	0	0	-1	0
22061283	8022	0	0	-100	0	230	101300000	1000	0	0	-1	0
22073843	8034	0	0	-100	0	230	101300000	1000	0	0	-1	0
22086403	8022	0	0	-100	0	230	101300000	1000	0	0	-1	0
22098963	8022	0	0	-100	0	230	101300000	1000	0	0	-1	0
22111523	8031	0	0	-100	0	230	101300000	1000	0	0	-1	0
22124083	8036	0	0	-100	0	230	101300000	1000	0	0	-1	0
22136643	8032	0	0	-100	0	230	101300000	1000	0	0	-1	0
22149203	8027	0	0	-100	0	230	101300000	1000	0	0	-1	0
22161763	8032	0	0	-100	0	230	101300000	1000	0	0	-1	0
22174323	8032	0	0	-100	0	230	101300000	1000	0	0	-1	0
22186883	8025	0	0	-100	0	230	101300000	1000	0	0	-1	0
22199443	8032	0	0	-100	0	230	101300000	1000	0	0	-1	0
22237123	8024	1	0	-100	0	230	101300000	1000	0	0	-1	0
22249683	8026	1	0	-100	0	230	101300000	1000	0	0	-1	0
22262243	8022	4	0	-100	0	230	101300000	1000	0	0	-1	0
22274803	8025	0	0	-100	0	230	101300000	1000	0	0	-1	0
22287363	8025	0	0	-100	0	230	101300000	1000	0	0	-1	0
22299923	8029	0	0	-100	0	230	101300000	1000	0	0	-1	0
22312483	8029	0	0	-100	0	230	101300000	1000	0	0	-1	0
22325043	8022	3	0	-100	0	230	101300000	1000	0	0	-1	0
22337603	8022	0	0	-100	0	230	101300000	1000	0	0	-1	0
22350163	8013	0	0	-100	0	230	101300000	1000	0	0	-1	0
22362723	8018	0	0	-100	0	230	101300000	1000	0	0	-1	0
22375283	8022	0	0	-100	0	230	101300000	1000	0	0	-1	0
22387843	8026	5	0	-100	0	230	101300000	1000	0	0	-1	0
22400403	8029	4	0	-100	0	230	101300000	1000	0	0	-1	0
22412963	8020	4	0	-100	0	230	101300000	1000	0	0	-1	0
22425523	8020	2	0	-100	0	230	101300000	1000	0	0	-1	0
22438083	8031	0	0	-100	0	230	101300000	1000	0	0	-1	0
22450643	8032	0	0	-100	0	230	101300000	1000	0	0	-1	0
22463203	8027	0	0	-100	0	230	101300000	1000	0	0	-1	0
22475763	8027	0	0	-100	0	230	101300000	1000	0	0	-1	0
22488323	8029	0	0	-100	0	230	101300000	1000	0	0	-1	0
22500883	8027	0	0	-100	0	230	101300000	1000	0	0	-1	0
22513443	8032	0	0	-100	0	230	101300000	1000	0	0	-1	0
22526004	8015	3	0	-100	0	230	101300000	1000	0	0	-1	0
22538563	8032	0	0	-100	0	230	101300000	1000	0	0	-1	0
22551123	8027	0	0	-100	0	230	101300000	1000	0	0	-1	0
22563683	8029	0	0	-100	0	230	101300000	1000	0	0	-1	0
22576243	8027	0	0	-100	0	230	101300000	1000	0	0	-1	0
22588803	8027	0	0	-100	0	230	101300000	1000	0	0	-1	0
22601363	8027	0	0	-100	0	230	101300000	1000	0	0	-1	0
22613923	8025	0	0	-100	0	230	101300000	1000	0	0	-1	0
22626483	8022	0	0	-100	0	230	101300000	1000	0	0	-1	0
22639043	8020	0	0	-100	0	230	101300000	1000	0	0	-1	0
22651603	8026	4	0	-100	0	230	101300000	1000	0	0	-1	0
22664163	8018	4	0	-100	0	230	101300000	1000	0	0	-1	0
22676723	8022	1	0	-100	0	230	101300000	1000	0	0	-1	0
22689283	8024	0	0	-100	0	230	101300000	1000	0	0	-1	0
22701843	8022	0	0	-100	0	230	101300000	1000	0	0	-1	0
22714403	8024	0	0	-100	0	230	101300000	1000	0	0	-1	0
22726963	8029	0	0	-100	0	230	101300000	1000	0	0	-1	0
22739523	8027	0	0	-100	0	230	101300000	1000	0	0	-1	0
22752083	8029	0	0	-100	0	230	101300000	1000	0	0	-1	0
22764643	8029	0	0	-100	0	230	101300000	1000	0	0	-1	0
22777203	8027	0	0	-100	0	230	101300000	1000	0	0	-1	0
22789763	8020	5	0	-100	0	230	101300000	1000	0	0	-1	0
22802323	8024	2	0	-100	0	230	101300000	1000	0	0	-1	0
22814883	8031	0	0	-100	0	230	101300000	1000	0	0	-1	0
22827443	8029	0	0	-100	0	230	101300000	1000	0	0	-1	0
22840004	8022	3	0	-100	0	230	101300000	1000	0	0	-1	0
22852563	8034	0	0	-100	0	230	101300000	1000	0	0	-1	0
22865123	8034	0	0	-100	0	230	101300000	1000	0	0	-1	0
22877683	8027	0	0	-100	0	230	101300000	1000	0	0	-1	0
22890243	8025	0	0	-100	0	230	101300000	1000	0	0	-1	0
22902803	8027	0	0	-100	0	230	101300000	1000	0	0	-1	0
22915363	8029	0	0	-100	0	230	101300000	1000	0	0	-1	0
22927923	8034	0	0	-100	0	230	101300000	1000	0	0	-1	0
22940483	8029	0	0	-100	0	230	101300000	1000	0	0	-1	0
22953043	8020	3	0	-100	0	230	101300000	1000	0	0	-1	0
22965603	8024	4	0	-100	0	230	101300000	1000	0	0	-1	0
22978163	8015	6	0	-100	0	230	101300000	1000	0	0	-1	0
22990723	8020	0	0	-100	0	230	101300000	1000	0	0	-1	0
23003283	8020	0	0	-100	0	230	101300000	1000	0	0	-1	0
23015843	8024	0	0	-100	0	230	101300000	1000	0	0	-1	0
23028403	8022	0	0	-100	0	230	101300000	1000	0	0	-1	0
23040963	8025	0	0	-100	0	230	101300000	1000	0	0	-1	0
23053523	8034	0	0	-100	0	230	101300000	1000	0	0	-1	0
23066083	8025	0	0	-100	0	230	101300000	1000	0	0	-1	0
23078643	8026	1	0	-100	0	230	101300000	1000	0	0	-1	0
23091203	8024	4	0	-100	0	230	101300000	1000	0	0	-1	0
23103763	8018	0	0	-100	0	230	101300000	1000	0	0	-1	0
23116323	8027	0	0	-100	0	230	101300000	1000	0	0	-1	0
23128883	8032	0	0	-100	0	230	101300000	1000	0	0	-1	0
23141443	8036	0	0	-100	0	230	101300000	1000	0	0	-1	0
23154004	8024	3	0	-100	0	230	101300000	1000	0	0	-1	0
23166563	8026	1	0	-100	0	230	101300000	1000	0	0	-1	0
23179123	8024	4	0	-100	0	230	101300000	1000	0	0	-1	0
23191683	8024	0	0	-100	0	230	101300000	1000	0	0	-1	0
23204243	8024	0	0	-100	0	230	101300000	1000	0	0	-1	0
23216803	8020	0	0	-100	0	230	101300000	1000	0	0	-1	0
23229363	8022	0	0	-100	0	230	101300000	1000	0	0	-1	0
23241923	8027	0	0	-100	0	230	101300000	1000	0	0	-1	0
23254483	8027	0	0	-100	0	230	101300000	1000	0	0	-1	0
23267043	8025	0	0	-100	0	230	101300000	1000	0	0	-1	0
23279603	8030	0	0	-100	0	230	101300000	1000	0	0	-1	0
23292163	8023	0	0	-100	0	230	101300000	1000	0	0	-1	0
23304723	8026	0	0	-100	0	230	101300000	1000	0	0	-1	0
23317283	8022	0	0	-100	0	230	101300000	1000	0	0	-1	0
23329843	8024	0	0	-100	0	230	101300000	1000	0	0	-1	0
23342403	8027	0	0	-100	0	230	101300000	1000	0	0	-1	0
23354963	8020	2	0	-100	0	230	101300000	1000	0	0	-1	0
23367523	8029	0	0	-100	0	230	101300000	1000	0	0	-1	0
23380083	8020	1	0	-100	0	230	101300000	1000	0	0	-1	0
23392643	8024	0	0	-100	0	230	101300000	1000	0	0	-1	0
23405203	8029	0	0	-100	0	230	101300000	1000	0	0	-1	0
23417763	8027	0	0	-100	0	230	101300000	1000	0	0	-1	0
23430323	8032	0	0	-100	0	230	101300000	1000	0	0	-1	0
23442883	8029	0	0	-100	0	230	101300000	1000	0	0	-1	0
23455443	8032	0	0	-100	0	230	101300000	1000	0	0	-1	0
23468004	8022	4	0	-100	0	230	101300000	1000	0	0	-1	0
23480563	8029	0	0	-100	0	230	101300000	1000	0	0	-1	0
23493123	8025	0	0	-100	0	230	101300000	1000	0	0	-1	0
23505683	8027	0	0	-100	0	230	101300000	1000	0	0	-1	0
23518243	8025	0	0	-100	0	230	101300000	1000	0	0	-1	0
23530803	8027	0	0	-100	0	230	101300000	1000	0	0	-1	0
23543363	8032	0	0	-100	0	230	101300000	1000	0	0	-1	0
23555923	8027	0	0	-100	0	230	101300000	1000	0	0	-1	0
23568483	8029	0	0	-100	0	230	101300000	1000	0	0	-1	0
23581043	8025	0	0	-100	0	230	101300000	1000	0	0	-1	0
23593603	8029	0	0	-100	0	230	101300000	1000	0	0	-1	0
23606163	8018	0	0	-100	0	230	101300000	1000	0	0	-1	0
23618723	8023	0	0	-100	0	230	101300000	1000	0	0	-1	0
23631283	8025	0	0	-100	0	230	101300000	1000	0	0	-1	0
23643843	8023	0	0	-100	0	230	101300000	1000	0	0	-1	0
23656403	8022	0	0	-100	0	230	101300000	1000	0	0	-1	0
23668963	8022	0	0	-100	0	230	101300000	1000	0	0	-1	0
23681523	8027	0	0	-100	0	230	101300000	1000	0	0	-1	0
23694083	8025	0	0	-100	0	230	101300000	1000	0	0	-1	0
23706643	8027	0	0	-100	0	230	101300000	1000	0	0	-1	0
23719203	8029	0	0	-100	0	230	101300000	1000	0	0	-1	0
23731763	8027	0	0	-100	0	230	101300000	1000	0	0	-1	0
23744323	8025	0	0	-100	0	230	101300000	1000	0	0	-1	0
23756883	8029	0	0	-100	0	230	101300000	1000	0	0	-1	0
23769443	8034	0	0	-100	0	230	101300000	1000	0	0	-1	0
23782004	8022	4	0	-100	0	230	101300000	1000	0	0	-1	0
23794563	8026	0	0	-100	0	230	101300000	1000	0	0	-1	0
23807123	8022	0	0	-100	0	230	101300000	1000	0	0	-1	0
23819683	8024	1	0	-100	0	230	101300000	1000	0	0	-1	0
23832243	8022	0	0	-100	0	230	101300000	1000	0	0	-1	0
23844803	8027	0	0	-100	0	230	101300000	1000	0	0	-1	0
23857363	8025	0	0	-100	0	230	101300000	1000	0	0	-1	0
23869923	8032	0	0	-100	0	230	101300000	1000	0	0	-1	0
23882483	8032	0	0	-100	0	230	101300000	1000	0	0	-1	0
23895043	8025	0	0	-100	0	230	101300000	1000	0	0	-1	0
23907603	8025	0	0	-100	0	230	101300000	1000	0	0	-1	0
23920163	8018	0	0	-100	0	230	101300000	1000	0	0	-1	0
23932723	8020	0	0	-100	0	230	101300000	1000	0	0	-1	0
23945283	8022	4	0	-100	0	230	101300000	1000	0	0	-1	0
23957843	8020	4	0	-100	0	230	101300000	1000	0	0	-1	0
23970403	8020	3	0	-100	0	230	101300000	1000	0	0	-1	0
23982963	8024	2	0	-100	0	230	101300000	1000	0	0	-1	0
23995523	8026	0	0	-100	0	230	101300000	1000	0	0	-1	0
24008083	8031	0	0	-100	0	230	101300000	1000	0	0	-1	0
24020643	8029	0	0	-100	0	230	101300000	1000	0	0	-1	0
24033203	8029	0	0	-100	0	230	101300000	1000	0	0	-1	0
24045763	8029	0	0	-100	0	230	101300000	1000	0	0	-1	0
24058323	8032	0	0	-100	0	230	101300000	1000	0	0	-1	0
24070883	8032	0	0	-100	0	230	101300000	1000	0	0	-1	0
24083443	8025	0	0	-100	0	230	101300000	1000	0	0	-1	0
24096004	8020	0	0	-100	0	230	101300000	1000	0	0	-1	0
24108563	8023	0	0	-100	0	230	101300000	1000	0	0	-1	0
24121123	8025	0	0	-100	0	230	101300000	1000	0	0	-1	0
24133683	8024	0	0	-100	0	230	101300000	1000	0	0	-1	0
24146243	8022	0	0	-100	0	230	101300000	1000	0	0	-1	0
24158803	8020	0	0	-100	0	230	101300000	1000	0	0	-1	0
24171363	8025	0	0	-100	0	230	101300000	1000	0	0	-1	0
24183923	8029	3	0	-100	0	230	101300000	1000	0	0	-1	0
24196483	8024	2	0	-100	0	230	101300000	1000	0	0	-1	0
24209043	8026	3	0	-100	0	230	101300000	1000	0	0	-1	0
24221603	8022	3	0	-100	0	230	101300000	1000	0	0	-1	0
24234163	8018	4	0	-100	0	230	101300000	1000	0	0	-1	0
24246723	8022	0	0	-100	0	230	101300000	1000	0	0	-1	0
24259283	8027	0	0	-100	0	230	101300000	1000	0	0	-1	0
24271843	8023	0	0	-100	0	230	101300000	1000	0	0	-1	0
24284403	8025	0	0	-100	0	230	101300000	1000	0	0	-1	0
24296963	8020	0	0	-100	0	230	101300000	1000	0	0	-1	0
24309523	8026	4	0	-100	0	230	101300000	1000	0	0	-1	0
24322083	8020	3	0	-100	0	230	101300000	1000	0	0	-1	0
24334643	8026	0	0	-100	0	230	101300000	1000	0	0	-1	0
24347203	8034	0	0	-100	0	230	101300000	1000	0	0	-1	0
24359763	8025	0	0	-100	0	230	101300000	1000	0	0	-1	0
24372323	8015	0	0	-100	0	230	101300000	1000	0	0	-1	0
24384883	8024	3	0	-100	0	230	101300000	1000	0	0	-1	0
24397443	8020	2	0	-100	0	230	101300000	1000	0	0	-1	0
24410004	8024	6	0	-100	0	230	101300000	1000	0	0	-1	0
24422563	8027	0	0	-100	0	230	101300000	1000	0	0	-1	0
24435123	8032	0	0	-100	0	230	101300000	1000	0	0	-1	0
24447683	8024	0	0	-100	0	230	101300000	1000	0	0	-1	0
24460243	8022	3	0	-100	0	230	101300000	1000	0	0	-1	0
24472803	8026	2	0	-100	0	230	101300000	1000	0	0	-1	0
24485363	8029	0	0	-100	0	230	101300000	1000	0	0	-1	0
24497923	8027	0	0	-100	0	230	101300000	1000	0	0	-1	0
24510483	8022	0	0	-100	0	230	101300000	1000	0	0	-1	0
24523043	8020	3	0	-100	0	230	101300000	1000	0	0	-1	0
24535603	8020	1	0	-100	0	230	101300000	1000	0	0	-1	0
24548163	8025	0	0	-100	0	230	101300000	1000	0	0	-1	0
24560723	8029	0	0	-100	0	230	101300000	1000	0	0	-1	0
24573283	8027	0	0	-100	0	230	101300000	1000	0	0	-1	0
24585843	8024	0	0	-100	0	230	101300000	1000	0	0	-1	0
24598403	8027	1	0	-100	0	230	101300000	1000	0	0	-1	0
24610963	8018	3	0	-100	0	230	101300000	1000	0	0	-1	0
24623523	8029	0	0	-100	0	230	101300000	1000	0	0	-1	0
24636083	8025	0	0	-100	0	230	101300000	1000	0	0	-1	0
24648643	8027	0	0	-100	0	230	101300000	1000	0	0	-1	0
24661203	8025	0	0	-100	0	230	101300000	1000	0	0	-1	0
24673763	8024	4	0	-100	0	230	101300000	1000	0	0	-1	0
24686323	8024	5	0	-100	0	230	101300000	1000	0	0	-1	0
24698883	8024	2	0	-100	0	230	101300000	1000	0	0	-1	0
24711443	8027	0	0	-100	0	230	101300000	1000	0	0	-1	0
24724004	8013	3	0	-100	0	230	101300000	1000	0	0	-1	0
24736563	8025	0	0	-100	0	230	101300000	1000	0	0	-1	0
24749123	8029	0	0	-100	0	230	101300000	1000	0	0	-1	0
24761683	8027	0	0	-100	0	230	101300000	1000	0	0	-1	0
24774243	8022	0	0	-100	0	230	101300000	1000	0	0	-1	0
24786803	8026	3	0	-100	0	230	101300000	1000	0	0	-1	0
24799363	8022	1	0	-100	0	230	101300000	1000	0	0	-1	0
24811923	8025	0	0	-100	0	230	101300000	1000	0	0	-1	0
24824483	8025	0	0	-100	0	230	101300000	1000	0	0	-1	0
24837043	8023	0	0	-100	0	230	101300000	1000	0	0	-1	0
24849603	8027	0	0	-100	0	230	101300000	1000	0	0	-1	0
24862163	8015	0	0	-100	0	230	101300000	1000	0	0	-1	0
24874723	8024	3	0	-100	0	230	101300000	1000	0	0	-1	0
24887283	8024	0	0	-100	0	230	101300000	1000	0	0	-1	0
24899843	8034	0	0	-100	0	230	101300000	1000	0	0	-1	0
24912403	8027	0	0	-100	0	230	101300000	1000	0	0	-1	0
24962643	8024	2	0	-100	0	230	101300000	1000	0	0	-1	0
24975203	8024	3	0	-100	0	230	101300000	1000	0	0	-1	0
24987763	8022	2	0	-100	0	230	101300000	1000	0	0	-1	0
25000323	8029	0	0	-100	0	230	101300000	1000	0	0	-1	0
25012883	8029	0	0	-100	0	230	101300000	1000	0	0	-1	0
25025443	8029	0	0	-100	0	230	101300000	1000	0	0	-1	0
25038004	8032	0	0	-100	0	230	101300000	1000	0	0	-1	0
25050563	8018	0	0	-100	0	230	101300000	1000	0	0	-1	0
25063123	8022	0	0	-100	0	230	101300000	1000	0	0	-1	0
25075683	8026	2	0	-100	0	230	101300000	1000	0	0	-1	0
25088243	8020	1	0	-100	0	230	101300000	1000	0	0	-1	0
25100803	8029	0	0	-100	0	230	101300000	1000	0	0	-1	0
25163603	8032	0	0	-100	0	230	101300000	1000	0	0	-1	0
25176163	8020	0	0	-100	0	230	101300000	1000	0	0	-1	0
25188723	8022	0	0	-100	0	230	101300000	1000	0	0	-1	0
25201283	8025	0	0	-100	0	230	101300000	1000	0	0	-1	0
25213843	8022	4	0	-100	0	230	101300000	1000	0	0	-1	0
25226403	8024	2	0	-100	0	230	101300000	1000	0	0	-1	0
25238963	8036	0	0	-100	0	230	101300000	1000	0	0	-1	0
25251523	8032	0	0	-100	0	230	101300000	1000	0	0	-1	0
25264083	8027	0	0	-100	0	230	101300000	1000	0	0	-1	0
25276643	8022	0	0	-100	0	230	101300000	1000	0	0	-1	0
25289203	8022	0	0	-100	0	230	101300000	1000	0	0	-1	0
25301763	8022	2	0	-100	0	230	101300000	1000	0	0	-1	0
25314323	8024	1	0	-100	0	230	101300000	1000	0	0	-1	0
25326883	8031	0	0	-100	0	230	101300000	1000	0	0	-1	0
25339443	8034	0	0	-100	0	230	101300000	1000	0	0	-1	0
25352004	8022	2	0	-100	0	230	101300000	1000	0	0	-1	0
25364563	8027	0	0	-100	0	230	101300000	1000	0	0	-1	0
25377123	8024	0	0	-100	0	230	101300000	1000	0	0	-1	0
25389683	8020	4	0	-100	0	230	101300000	1000	0	0	-1	0
25402243	8029	0	0	-100	0	230	101300000	1000	0	0	-1	0
25414803	8025	0	0	-100	0	230	101300000	1000	0	0	-1	0
25427363	8032	0	0	-100	0	230	101300000	1000	0	0	-1	0
25439923	8032	0	0	-100	0	230	101300000	1000	0	0	-1	0
25452483	8025	0	0	-100	0	230	101300000	1000	0	0	-1	0
25465043	8025	0	0	-100	0	230	101300000	1000	0	0	-1	0
25477603	8024	0	0	-100	0	230	101300000	1000	0	0	-1	0
25490163	8013	0	0	-100	0	230	101300000	1000	0	0	-1	0
25502723	8022	0	0	-100	0	230	101300000	1000	0	0	-1	0
25515283	8020	0	0	-100	0	230	101300000	1000	0	0	-1	0
25527843	8024	0	0	-100	0	230	101300000	1000	0	0	-1	0
25540403	8022	0	0	-100	0	230	101300000	1000	0	0	-1	0
25552963	8020	0	0	-100	0	230	101300000	1000	0	0	-1	0
25565523	8024	0	0	-100	0	230	101300000	1000	0	0	-1	0
25578083	8022	0	0	-100	0	230	101300000	1000	0	0	-1	0
25590643	8020	0	0	-100	0	230	101300000	1000	0	0	-1	0
25603203	8025	0	0	-100	0	230	101300000	1000	0	0	-1	0
25615763	8022	3	0	-100	0	230	101300000	1000	0	0	-1	0
25628323	8026	3	0	-100	0	230	101300000	1000	0	0	-1	0
25640883	8020	2	0	-100	0	230	101300000	1000	0	0	-1	0
25653443	8020	1	0	-100	0	230	101300000	1000	0	0	-1	0
25666004	8022	4	0	-100	0	230	101300000	1000	0	0	-1	0
25678563	8029	0	0	-100	0	230	101300000	1000	0	0	-1	0
25691123	8027	0	0	-100	0	230	101300000	1000	0	0	-1	0
25703683	8027	0	0	-100	0	230	101300000	1000	0	0	-1	0
25716243	8022	0	0	-100	0	230	101300000	1000	0	0	-1	0
25728803	8024	4	0	-100	0	230	101300000	1000	0	0	-1	0
25741363	8020	1	0	-100	0	230	101300000	1000	0	0	-1	0
25753923	8032	0	0	-100	0	230	101300000	1000	0	0	-1	0
25766483	8027	0	0	-100	0	230	101300000	1000	0	0	-1	0
25779043	8027	0	0	-100	0	230	101300000	1000	0	0	-1	0
25791603	8025	4	0	-100	0	230	101300000	1000	0	0	-1	0
25804163	8011	1	0	-100	0	230	101300000	1000	0	0	-1	0
25816723	8025	0	0	-100	0	230	101300000	1000	0	0	-1	0
25829283	8025	0	0	-100	0	230	101300000	1000	0	0	-1	0
25841843	8020	0	0	-100	0	230	101300000	1000	0	0	-1	0
25854403	8022	5	0	-100	0	230	101300000	1000	0	0	-1	0
25866963	8024	3	0	-100	0	230	101300000	1000	0	0	-1	0
25879523	8022	0	0	-100	0	230	101300000	1000	0	0	-1	0
25892083	8026	1	0	-100	0	230	101300000	1000	0	0	-1	0
25904643	8025	0	0	-100	0	230	101300000	1000	0	0	-1	0
25917203	8022	0	0	-100	0	230	101300000	1000	0	0	-1	0
25929763	8034	0	0	-100	0	230	101300000	1000	0	0	-1	0
25942323	8027	0	0	-100	0	230	101300000	1000	0	0	-1	0
25954883	8027	0	0	-100	0	230	101300000	1000	0	0	-1	0
25967443	8022	0	0	-100	0	230	101300000	1000	0	0	-1	0
25980004	8020	0	0	-100	0	230	101300000	1000	0	0	-1	0
25992563	8029	0	0	-100	0	230	101300000	1000	0	0	-1	0
26005123	8027	0	0	-100	0	230	101300000	1000	0	0	-1	0
26017683	8032	0	0	-100	0	230	101300000	1000	0	0	-1	0
26030243	8025	0	0	-100	0	230	101300000	1000	0	0	-1	0
26042803	8020	0	0	-100	0	230	101300000	1000	0	0	-1	0
26055363	8020	3	0	-100	0	230	101300000	1000	0	0	-1	0
26067923	8024	4	0	-100	0	230	101300000	1000	0	0	-1	0
26080483	8026	1	0	-100	0	230	101300000	1000	0	0	-1	0
26093043	8022	0	0	-100	0	230	101300000	1000	0	0	-1	0
26105603	8029	0	0	-100	0	230	101300000	1000	0	0	-1	0
26118163	8023	0	0	-100	0	230	101300000	1000	0	0	-1	0
26130723	8025	0	0	-100	0	230	101300000	1000	0	0	-1	0
26143283	8027	0	0	-100	0	230	101300000	1000	0	0	-1	0
26155843	8022	0	0	-100	0	230	101300000	1000	0	0	-1	0
26168403	8020	0	0	-100	0	230	101300000	1000	0	0	-1	0
26180963	8022	0	0	-100	0	230	101300000	1000	0	0	-1	0
26193523	8022	4	0	-100	0	230	101300000	1000	0	0	-1	0
26206083	8024	3	0	-100	0	230	101300000	1000	0	0	-1	0
26218643	8022	4	0	-100	0	230	101300000	1000	0	0	-1	0
26231203	8022	0	0	-100	0	230	101300000	1000	0	0	-1	0
26243763	8020	0	0	-100	0	230	101300000	1000	0	0	-1	0
26256323	8027	0	0	-100	0	230	101300000	1000	0	0	-1	0
26268883	8027	0	0	-100	0	230	101300000	1000	0	0	-1	0
26281443	8027	0	0	-100	0	230	101300000	1000	0	0	-1	0
26294004	8015	0	0	-100	0	230	101300000	1000	0	0	-1	0
26306563	8025	0	0	-100	0	230	101300000	1000	0	0	-1	0
26319123	8027	0	0	-100	0	230	101300000	1000	0	0	-1	0
26331683	8025	0	0	-100	0	230	101300000	1000	0	0	-1	0
26344243	8029	0	0	-100	0	230	101300000	1000	0	0	-1	0
26356803	8025	0	0	-100	0	230	101300000	1000	0	0	-1	0
26369363	8027	0	0	-100	0	230	101300000	1000	0	0	-1	0
26381923	8032	0	0	-100	0	230	101300000	1000	0	0	-1	0
26394483	8030	0	0	-100	0	230	101300000	1000	0	0	-1	0
26407043	8041	0	0	-100	0	230	101300000	1000	0	0	-1	0
26419603	8027	0	0	-100	0	230	101300000	1000	0	0	-1	0
26432163	8025	0	0	-100	0	230	101300000	1000	0	0	-1	0
26444723	8025	0	0	-100	0	230	101300000	1000	0	0	-1	0
26457283	8025	0	0	-100	0	230	101300000	1000	0	0	-1	0
26469843	8020	0	0	-100	0	230	101300000	1000	0	0	-1	0
26482403	8024	3	0	-100	0	230	101300000	1000	0	0	-1	0
26494963	8024	0	0	-100	0	230	101300000	1000	0	0	-1	0
26507523	8027	0	0	-100	0	230	101300000	1000	0	0	-1	0
26520083	8029	0	0	-100	0	230	101300000	1000	0	0	-1	0
26532643	8020	0	0	-100	0	230	101300000	1000	0	0	-1	0
26545203	8022	4	0	-100	0	230	101300000	1000	0	0	-1	0
26557763	8025	0	0	-100	0	230	101300000	1000	0	0	-1	0
26570323	8030	0	0	-100	0	230	101300000	1000	0	0	-1	0
26582883	8022	0	0	-100	0	230	101300000	1000	0	0	-1	0
26595443	8023	0	0	-100	0	230	101300000	1000	0	0	-1	0
26608004	8020	0	0	-100	0	230	101300000	1000	0	0	-1	0
26620563	8029	0	0	-100	0	230	101300000	1000	0	0	-1	0
26633123	8022	0	0	-100	0	230	101300000	1000	0	0	-1	0
26645683	8020	0	0	-100	0	230	101300000	1000	0	0	-1	0
26658243	8024	4	0	-100	0	230	101300000	1000	0	0	-1	0
26670803	8020	2	0	-100	0	230	101300000	1000	0	0	-1	0
26683363	8027	0	0	-100	0	230	101300000	1000	0	0	-1	0
26695923	8022	0	0	-100	0	230	101300000	1000	0	0	-1	0
26708483	8022	0	0	-100	0	230	101300000	1000	0	0	-1	0
26721043	8020	3	0	-100	0	230	101300000	1000	0	0	-1	0
26733603	8032	0	0	-100	0	230	101300000	1000	0	0	-1	0
26746163	8023	0	0	-100	0	230	101300000	1000	0	0	-1	0
26758723	8024	0	0	-100	0	230	101300000	1000	0	0	-1	0
26771283	8020	4	0	-100	0	230	101300000	1000	0	0	-1	0
26783843	8027	0	0	-100	0	230	101300000	1000	0	0	-1	0
26796403	8022	0	0	-100	0	230	101300000	1000	0	0	-1	0
26808963	8024	3	0	-100	0	230	101300000	1000	0	0	-1	0
26821523	8029	0	0	-100	0	230	101300000	1000	0	0	-1	0
26834083	8032	0	0	-100	0	230	101300000	1000	0	0	-1	0
26846643	8022	0	0	-100	0	230	101300000	1000	0	0	-1	0
26859203	8029	4	0	-100	0	230	101300000	1000	0	0	-1	0
26871763	8026	0	0	-100	0	230	101300000	1000	0	0	-1	0
26884323	8030	0	0	-100	0	230	101300000	1000	0	0	-1	0
26896883	8031	0	0	-100	0	230	101300000	1000	0	0	-1	0
26909443	8022	0	0	-100	0	230	101300000	1000	0	0	-1	0
26922004	8024	0	0	-100	0	230	101300000	1000	0	0	-1	0
26934563	8031	0	0	-100	0	230	101300000	1000	0	0	-1	0
26947123	8029	0	0	-100	0	230	101300000	1000	0	0	-1	0
26959683	8024	0	0	-100	0	230	101300000	1000	0	0	-1	0
26972243	8022	4	0	-100	0	230	101300000	1000	0	0	-1	0
26984803	8029	0	0	-100	0	230	101300000	1000	0	0	-1	0
26997363	8023	0	0	-100	0	230	101300000	1000	0	0	-1	0
27009923	8018	0	0	-100	0	230	101300000	1000	0	0	-1	0
27022483	8024	2	0	-100	0	230	101300000	1000	0	0	-1	0
27035043	8020	0	0	-100	0	230	101300000	1000	0	0	-1	0
27047603	8022	0	0	-100	0	230	101300000	1000	0	0	-1	0
27060163	8013	1	0	-100	0	230	101300000	1000	0	0	-1	0
27072723	8024	0	0	-100	0	230	101300000	1000	0	0	-1	0
27085283	8029	0	0	-100	0	230	101300000	1000	0	0	-1	0
27097843	8027	0	0	-100	0	230	101300000	1000	0	0	-1	0
27110403	8027	0	0	-100	0	230	101300000	1000	0	0	-1	0
27122963	8034	0	0	-100	0	230	101300000	1000	0	0	-1	0
27135523	8030	0	0	-100	0	230	101300000	1000	0	0	-1	0
27148083	8029	0	0	-100	0	230	101300000	1000	0	0	-1	0
27160643	8027	0	0	-100	0	230	101300000	1000	0	0	-1	0
27173203	8022	0	0	-100	0	230	101300000	1000	0	0	-1	0
27185763	8020	0	0	-100	0	230	101300000	1000	0	0	-1	0
27198323	8026	4	0	-100	0	230	101300000	1000	0	0	-1	0
27210883	8024	1	0	-100	0	230	101300000	1000	0	0	-1	0
27223443	8029	0	0	-100	0	230	101300000	1000	0	0	-1	0
27236004	8022	4	0	-100	0	230	101300000	1000	0	0	-1	0
27248563	8027	0	0	-100	0	230	101300000	1000	0	0	-1	0
27261123	8029	0	0	-100	0	230	101300000	1000	0	0	-1	0
27273683	8029	0	0	-100	0	230	101300000	1000	0	0	-1	0
27286243	8022	0	0	-100	0	230	101300000	1000	0	0	-1	0
27298803	8024	0	0	-100	0	230	101300000	1000	0	0	-1	0
27311363	8018	0	0	-100	0	230	101300000	1000	0	0	-1	0
27323923	8025	0	0	-100	0	230	101300000	1000	0	0	-1	0
27336483	8022	4	0	-100	0	230	101300000	1000	0	0	-1	0
27349043	8026	3	0	-100	0	230	101300000	1000	0	0	-1	0
27361603	8024	0	0	-100	0	230	101300000	1000	0	0	-1	0
27374163	8021	0	0	-100	0	230	101300000	1000	0	0	-1	0
27386723	8029	0	0	-100	0	230	101300000	1000	0	0	-1	0
27399283	8022	0	0	-100	0	230	101300000	1000	0	0	-1	0
27411843	8022	1	0	-100	0	230	101300000	1000	0	0	-1	0
27424403	8029	0	0	-100	0	230	101300000	1000	0	0	-1	0
27436963	8027	0	0	-100	0	230	101300000	1000	0	0	-1	0
27449523	8025	0	0	-100	0	230	101300000	1000	0	0	-1	0
27462083	8027	0	0	-100	0	230	101300000	1000	0	0	-1	0
27474643	8024	0	0	-100	0	230	101300000	1000	0	0	-1	0
27487203	8020	5	0	-100	0	230	101300000	1000	0	0	-1	0
27499763	8024	3	0	-100	0	230	101300000	1000	0	0	-1	0
27512323	8025	0	0	-100	0	230	101300000	1000	0	0	-1	0
27524883	8036	0	0	-100	0	230	101300000	1000	0	0	-1	0
27537443	8027	0	0	-100	0	230	101300000	1000	0	0	-1	0
27550004	8024	4	0	-100	0	230	101300000	1000	0	0	-1	0
27562563	8027	0	0	-100	0	230	101300000	1000	0	0	-1	0
27575123	8026	0	0	-100	0	230	101300000	1000	0	0	-1	0
27587683	8024	4	0	-100	0	230	101300000	1000	0	0	-1	0
27600243	8024	3	0	-100	0	230	101300000	1000	0	0	-1	0
27612803	8015	0	0	-100	0	230	101300000	1000	0	0	-1	0
27625363	8022	0	0	-100	0	230	101300000	1000	0	0	-1	0
27637923	8027	0	0	-100	0	230	101300000	1000	0	0	-1	0
27650483	8029	0	0	-100	0	230	101300000	1000	0	0	-1	0
27663043	8032	0	0	-100	0	230	101300000	1000	0	0	-1	0
27675603	8025	0	0	-100	0	230	101300000	1000	0	0	-1	0
27688163	8013	2	0	-100	0	230	101300000	1000	0	0	-1	0
27700723	8024	3	0	-100	0	230	101300000	1000	0	0	-1	0
27713283	8027	0	0	-100	0	230	101300000	1000	0	0	-1	0
27725843	8022	0	0	-100	0	230	101300000	1000	0	0	-1	0
27738403	8022	0	0	-100	0	230	101300000	1000	0	0	-1	0
27750963	8022	4	0	-100	0	230	101300000	1000	0	0	-1	0
27763523	8027	0	0	-100	0	230	101300000	1000	0	0	-1	0
27776083	8025	0	0	-100	0	230	101300000	1000	0	0	-1	0
27788643	8022	0	0	-100	0	230	101300000	1000	0	0	-1	0
27801203	8022	0	0	-100	0	230	101300000	1000	0	0	-1	0
27813763	8022	0	0	-100	0	230	101300000	1000	0	0	-1	0
27826323	8022	0	0	-100	0	230	101300000	1000	0	0	-1	0
27838883	8026	0	0	-100	0	230	101300000	1000	0	0	-1	0
27851443	8022	0	0	-100	0	230	101300000	1000	0	0	-1	0
27864004	8027	0	0	-100	0	230	101300000	1000	0	0	-1	0
27876563	8024	4	0	-100	0	230	101300000	1000	0	0	-1	0
27889123	8026	1	0	-100	0	230	101300000	1000	0	0	-1	0
27901683	8025	0	0	-100	0	230	101300000	1000	0	0	-1	0
27914243	8029	0	0	-100	0	230	101300000	1000	0	0	-1	0
27926803	8036	0	0	-100	0	230	101300000	1000	0	0	-1	0
27939363	8029	0	0	-100	0	230	101300000	1000	0	0	-1	0
27951923	8029	0	0	-100	0	230	101300000	1000	0	0	-1	0
27964483	8024	0	0	-100	0	230	101300000	1000	0	0	-1	0
27977043	8022	0	0	-100	0	230	101300000	1000	0	0	-1	0
27989603	8022	0	0	-100	0	230	101300000	1000	0	0	-1	0
28064963	8022	3	0	-100	0	230	101300000	1000	0	0	-1	0
28077523	8026	3	0	-100	0	230	101300000	1000	0	0	-1	0
28090083	8022	4	0	-100	0	230	101300000	1000	0	0	-1	0
28102643	8022	1	0	-100	0	230	101300000	1000	0	0	-1	0
28115203	8022	0	0	-100	0	230	101300000	1000	0	0	-1	0
28127763	8029	0	0	-100	0	230	101300000	1000	0	0	-1	0
28140323	8027	0	0	-100	0	230	101300000	1000	0	0	-1	0
28152883	8029	0	0	-100	0	230	101300000	1000	0	0	-1	0
28165443	8028	0	0	-100	0	230	101300000	1000	0	0	-1	0
28178004	8022	0	0	-100	0	230	101300000	1000	0	0	-1	0
28190563	8022	0	0	-100	0	230	101300000	1000	0	0	-1	0
28203123	8022	0	0	-100	0	230	101300000	1000	0	0	-1	0
28228243	8024	3	0	-100	0	230	101300000	1000	0	0	-1	0
28240803	8022	2	0	-100	0	230	101300000	1000	0	0	-1	0
28253363	8024	0	0	-100	0	230	101300000	1000	0	0	-1	0
28265923	8025	1	0	-100	0	230	101300000	1000	0	0	-1	0
28278483	8020	2	0	-100	0	230	101300000	1000	0	0	-1	0
28291043	8020	3	0	-100	0	230	101300000	1000	0	0	-1	0
28303603	8024	3	0	-100	0	230	101300000	1000	0	0	-1	0
28316163	8020	3	0	-100	0	230	101300000	1000	0	0	-1	0
28328723	8022	3	0	-100	0	230	101300000	1000	0	0	-1	0
28341283	8022	3	0	-100	0	230	101300000	1000	0	0	-1	0
28353843	8026	0	0	-100	0	230	101300000	1000	0	0	-1	0
28366403	8029	0	0	-100	0	230	101300000	1000	0	0	-1	0
28378963	8025	0	0	-100	0	230	101300000	1000	0	0	-1	0
28391523	8027	0	0	-100	0	230	101300000	1000	0	0	-1	0
28404083	8025	0	0	-100	0	230	101300000	1000	0	0	-1	0
28416643	8020	0	0	-100	0	230	101300000	1000	0	0	-1	0
28429203	8018	0	0	-100	0	230	101300000	1000	0	0	-1	0
28441763	8029	4	0	-100	0	230	101300000	1000	0	0	-1	0
28454323	8024	4	0	-100	0	230	101300000	1000	0	0	-1	0
28466883	8026	3	0	-100	0	230	101300000	1000	0	0	-1	0
28479443	8020	1	0	-100	0	230	101300000	1000	0	0	-1	0
28492004	8020	4	0	-100	0	230	101300000	1000	0	0	-1	0
28504563	8027	0	0	-100	0	230	101300000	1000	0	0	-1	0
28517123	8027	0	0	-100	0	230	101300000	1000	0	0	-1	0
28529683	8022	0	0	-100	0	230	101300000	1000	0	0	-1	0
28542243	8022	2	0	-100	0	230	101300000	1000	0	0	-1	0
28554803	8027	1	0	-100	0	230	101300000	1000	0	0	-1	0
28567363	8032	0	0	-100	0	230	101300000	1000	0	0	-1	0
28579923	8027	0	0	-100	0	230	101300000	1000	0	0	-1	0
28592483	8029	0	0	-100	0	230	101300000	1000	0	0	-1	0
28605043	8032	0	0	-100	0	230	101300000	1000	0	0	-1	0
28617603	8032	0	0	-100	0	230	101300000	1000	0	0	-1	0
28630163	8021	0	0	-100	0	230	101300000	1000	0	0	-1	0
28642723	8027	0	0	-100	0	230	101300000	1000	0	0	-1	0
28655283	8020	0	0	-100	0	230	101300000	1000	0	0	-1	0
28667843	8022	0	0	-100	0	230	101300000	1000	0	0	-1	0
28680403	8029	2	0	-100	0	230	101300000	1000	0	0	-1	0
28692963	8024	1	0	-100	0	230	101300000	1000	0	0	-1	0
28705523	8025	0	0	-100	0	230	101300000	1000	0	0	-1	0
28718083	8023	0	0	-100	0	230	101300000	1000	0	0	-1	0
28730643	8022	4	0	-100	0	230	101300000	1000	0	0	-1	0
28743203	8034	0	0	-100	0	230	101300000	1000	0	0	-1	0
28755763	8027	0	0	-100	0	230	101300000	1000	0	0	-1	0
28768323	8024	4	0	-100	0	230	101300000	1000	0	0	-1	0
28780883	8029	0	0	-100	0	230	101300000	1000	0	0	-1	0
28793443	8029	0	0	-100	0	230	101300000	1000	0	0	-1	0
28806004	8018	0	0	-100	0	230	101300000	1000	0	0	-1	0
28818563	8026	0	0	-100	0	230	101300000	1000	0	0	-1	0
28831123	8027	0	0	-100	0	230	101300000	1000	0	0	-1	0
28843683	8020	0	0	-100	0	230	101300000	1000	0	0	-1	0
28856243	8022	0	0	-100	0	230	101300000	1000	0	0	-1	0
28868803	8025	0	0	-100	0	230	101300000	1000	0	0	-1	0
28881363	8025	0	0	-100	0	230	101300000	1000	0	0	-1	0
28893923	8020	0	0	-100	0	230	101300000	1000	0	0	-1	0
28906483	8024	2	0	-100	0	230	101300000	1000	0	0	-1	0
28919043	8020	2	0	-100	0	230	101300000	1000	0	0	-1	0
28931603	8025	0	0	-100	0	230	101300000	1000	0	0	-1	0
28944163	8021	0	0	-100	0	230	101300000	1000	0	0	-1	0
28956723	8025	0	0	-100	0	230	101300000	1000	0	0	-1	0
28969283	8020	0	0	-100	0	230	101300000	1000	0	0	-1	0
28981843	8025	1	0	-100	0	230	101300000	1000	0	0	-1	0
28994403	8024	0	0	-100	0	230	101300000	1000	0	0	-1	0
29006963	8029	0	0	-100	0	230	101300000	1000	0	0	-1	0
29019523	8020	0	0	-100	0	230	101300000	1000	0	0	-1	0
29032083	8022	0	0	-100	0	230	101300000	1000	0	0	-1	0
29044643	8023	0	0	-100	0	230	101300000	1000	0	0	-1	0
29057203	8026	0	0	-100	0	230	101300000	1000	0	0	-1	0
29069763	8018	5	0	-100	0	230	101300000	1000	0	0	-1	0
29082323	8022	0	0	-100	0	230	101300000	1000	0	0	-1	0
29094883	8027	0	0	-100	0	230	101300000	1000	0	0	-1	0
29107443	8027	0	0	-100	0	230	101300000	1000	0	0	-1	0
29120004	8023	0	0	-100	0	230	101300000	1000	0	0	-1	0
29132563	8024	4	0	-100	0	230	101300000	1000	0	0	-1	0
29145123	8022	0	0	-100	0	230	101300000	1000	0	0	-1	0
29157683	8027	0	0	-100	0	230	101300000	1000	0	0	-1	0
29170243	8023	0	0	-100	0	230	101300000	1000	0	0	-1	0
29182803	8027	2	0	-100	0	230	101300000	1000	0	0	-1	0
29195363	8024	0	0	-100	0	230	101300000	1000	0	0	-1	0
29207923	8029	0	0	-100	0	230	101300000	1000	0	0	-1	0
29220483	8020	0	0	-100	0	230	101300000	1000	0	0	-1	0
29233043	8024	3	0	-100	0	230	101300000	1000	0	0	-1	0
29245603	8031	0	0	-100	0	230	101300000	1000	0	0	-1	0
29258163	8021	0	0	-100	0	230	101300000	1000	0	0	-1	0
29270723	8020	0	0	-100	0	230	101300000	1000	0	0	-1	0
29283283	8020	3	0	-100	0	230	101300000	1000	0	0	-1	0
29295843	8030	0	0	-100	0	230	101300000	1000	0	0	-1	0
29308403	8025	0	0	-100	0	230	101300000	1000	0	0	-1	0
29320963	8022	0	0	-100	0	230	101300000	1000	0	0	-1	0
29333523	8026	2	0	-100	0	230	101300000	1000	0	0	-1	0
29346083	8031	1	0	-100	0	230	101300000	1000	0	0	-1	0
29358643	8036	0	0	-100	0	230	101300000	1000	0	0	-1	0
29371203	8029	0	0	-100	0	230	101300000	1000	0	0	-1	0
29383763	8020	0	0	-100	0	230	101300000	1000	0	0	-1	0
29396323	8026	4	0	-100	0	230	101300000	1000	0	0	-1	0
29408883	8027	0	0	-100	0	230	101300000	1000	0	0	-1	0
29421443	8025	0	0	-100	0	230	101300000	1000	0	0	-1	0
29434004	8023	0	0	-100	0	230	101300000	1000	0	0	-1	0
29446563	8022	2	0	-100	0	230	101300000	1000	0	0	-1	0
29459123	8034	0	0	-100	0	230	101300000	1000	0	0	-1	0
29471683	8025	0	0	-100	0	230	101300000	1000	0	0	-1	0
29484243	8020	0	0	-100	0	230	101300000	1000	0	0	-1	0
29496803	8029	3	0	-100	0	230	101300000	1000	0	0	-1	0
29509363	8024	3	0	-100	0	230	101300000	1000	0	0	-1	0
29521923	8029	0	0	-100	0	230	101300000	1000	0	0	-1	0
29534483	8025	0	0	-100	0	230	101300000	1000	0	0	-1	0
29547043	8025	0	0	-100	0	230	101300000	1000	0	0	-1	0
29559603	8031	4	0	-100	0	230	101300000	1000	0	0	-1	0
29572163	8015	1	0	-100	0	230	101300000	1000	0	0	-1	0
29584723	8029	0	0	-100	0	230	101300000	1000	0	0	-1	0
29597283	8025	0	0	-100	0	230	101300000	1000	0	0	-1	0
29609843	8018	0	0	-100	0	230	101300000	1000	0	0	-1	0
29622403	8024	1	0	-100	0	230	101300000	1000	0	0	-1	0
29634963	8027	0	0	-100	0	230	101300000	1000	0	0	-1	0
29647523	8022	0	0	-100	0	230	101300000	1000	0	0	-1	0
29660083	8022	2	0	-100	0	230	101300000	1000	0	0	-1	0
29672643	8032	0	0	-100	0	230	101300000	1000	0	0	-1	0
29685203	8029	4	0	-100	0	230	101300000	1000	0	0	-1	0
29697763	8032	0	0	-100	0	230	101300000	1000	0	0	-1	0
29710323	8018	0	0	-100	0	230	101300000	1000	0	0	-1	0
29722883	8027	0	0	-100	0	230	101300000	1000	0	0	-1	0
29735443	8022	0	0	-100	0	230	101300000	1000	0	0	-1	0
29748004	8019	0	0	-100	0	230	101300000	1000	0	0	-1	0
29760563	8027	0	0	-100	0	230	101300000	1000	0	0	-1	0
29773123	8020	3	0	-100	0	230	101300000	1000	0	0	-1	0
29785683	8027	0	0	-100	0	230	101300000	1000	0	0	-1	0
29798243	8022	4	0	-100	0	230	101300000	1000	0	0	-1	0
29810803	8034	0	0	-100	0	230	101300000	1000	0	0	-1	0
29823363	8020	0	0	-100	0	230	101300000	1000	0	0	-1	0
29835923	8029	0	0	-100	0	230	101300000	1000	0	0	-1	0
29848483	8023	0	0	-100	0	230	101300000	1000	0	0	-1	0
29861043	8025	1	0	-100	0	230	101300000	1000	0	0	-1	0
29873603	8029	0	0	-100	0	230	101300000	1000	0	0	-1	0
29886163	8018	0	0	-100	0	230	101300000	1000	0	0	-1	0
29898723	8024	4	0	-100	0	230	101300000	1000	0	0	-1	0
29911283	8036	0	0	-100	0	230	101300000	1000	0	0	-1	0
29923843	8025	0	0	-100	0	230	101300000	1000	0	0	-1	0
29936403	8022	0	0	-100	0	230	101300000	1000	0	0	-1	0
29948963	8027	0	0	-100	0	230	101300000	1000	0	0	-1	0
29961523	8024	2	0	-100	0	230	101300000	1000	0	0	-1	0
29974083	8023	0	0	-100	0	230	101300000	1000	0	0	-1	0
29986643	8020	1	0	-100	0	230	101300000	1000	0	0	-1	0
29999203	8024	0	0	-100	0	230	101300000	1000	0	0	-1	0
30011763	8029	0	0	-100	0	230	101300000	1000	0	0	-1	0
30024323	8025	0	0	-100	0	230	101300000	1000	0	0	-1	0
30036883	8024	1	0	-100	0	230	101300000	1000	0	0	-1	0
30049443	8025	0	0	-100	0	230	101300000	1000	0	0	-1	0
30062004	8020	0	0	-100	0	230	101300000	1000	0	0	-1	0
30074563	8028	0	0	-100	0	230	101300000	1000	0	0	-1	0
30087123	8020	0	0	-100	0	230	101300000	1000	0	0	-1	0
30099683	8025	0	0	-100	0	230	101300000	1000	0	0	-1	0
30112243	8022	0	0	-100	0	230	101300000	1000	0	0	-1	0
30124803	8020	4	0	-100	0	230	101300000	1000	0	0	-1	0
30137363	8027	0	0	-100	0	230	101300000	1000	0	0	-1	0
30149923	8024	4	0	-100	0	230	101300000	1000	0	0	-1	0
30162483	8032	0	0	-100	0	230	101300000	1000	0	0	-1	0
30175043	8022	0	0	-100	0	230	101300000	1000	0	0	-1	0
30187603	8026	1	0	-100	0	230	101300000	1000	0	0	-1	0
30200163	8020	0	0	-100	0	230	101300000	1000	0	0	-1	0
30212723	8026	4	0	-100	0	230	101300000	1000	0	0	-1	0
30225283	8034	0	0	-100	0	230	101300000	1000	0	0	-1	0
30237843	8020	0	0	-100	0	230	101300000	1000	0	0	-1	0
30250403	8036	0	0	-100	0	230	101300000	1000	0	0	-1	0
30262963	8022	0	0	-100	0	230	101300000	1000	0	0	-1	0
30275523	8024	1	0	-100	0	230	101300000	1000	0	0	-1	0
30288083	8027	0	0	-100	0	230	101300000	1000	0	0	-1	0
30300643	8018	0	0	-100	0	230	101300000	1000	0	0	-1	0
30313203	8024	3	0	-100	0	230	101300000	1000	0	0	-1	0
30325763	8022	0	0	-100	0	230	101300000	1000	0	0	-1	0
30338323	8027	0	0	-100	0	230	101300000	1000	0	0	-1	0
30350883	8022	0	0	-100	0	230	101300000	1000	0	0	-1	0
30363443	8026	0	0	-100	0	230	101300000	1000	0	0	-1	0
30376004	8018	1	0	-100	0	230	101300000	1000	0	0	-1	0
30388563	8022	1	0	-100	0	230	101300000	1000	0	0	-1	0
30401123	8025	0	0	-100	0	230	101300000	1000	0	0	-1	0
30413683	8027	0	0	-100	0	230	101300000	1000	0	0	-1	0
30426243	8022	4	0	-100	0	230	101300000	1000	0	0	-1	0
30438803	8022	2	0	-100	0	230	101300000	1000	0	0	-1	0
30451363	8034	0	0	-100	0	230	101300000	1000	0	0	-1	0
30463923	8027	0	0	-100	0	230	101300000	1000	0	0	-1	0
30476483	8022	0	0	-100	0	230	101300000	1000	0	0	-1	0
30489043	8022	0	0	-100	0	230	101300000	1000	0	0	-1	0
30501603	8025	0	0	-100	0	230	101300000	1000	0	0	-1	0
30514163	8015	0	0	-100	0	230	101300000	1000	0	0	-1	0
30526723	8026	3	0	-100	0	230	101300000	1000	0	0	-1	0
30539283	8029	0	0	-100	0	230	101300000	1000	0	0	-1	0
30551843	8027	0	0	-100	0	230	101300000	1000	0	0	-1	0
30564403	8018	0	0	-100	0	230	101300000	1000	0	0	-1	0
30576963	8025	0	0	-100	0	230	101300000	1000	0	0	-1	0
30589523	8027	0	0	-100	0	230	101300000	1000	0	0	-1	0
30602083	8020	0	0	-100	0	230	101300000	1000	0	0	-1	0
30614643	8024	3	0	-100	0	230	101300000	1000	0	0	-1	0
30627203	8029	0	0	-100	0	230	101300000	1000	0	0	-1	0
30639763	8027	0	0	-100	0	230	101300000	1000	0	0	-1	0
30652323	8026	5	0	-100	0	230	101300000	1000	0	0	-1	0
30664883	8027	0	0	-100	0	230	101300000	1000	0	0	-1	0
30677443	8027	0	0	-100	0	230	101300000	1000	0	0	-1	0
30690004	8022	0	0	-100	0	230	101300000	1000	0	0	-1	0
30702563	8030	0	0	-100	0	230	101300000	1000	0	0	-1	0
30715123	8020	0	0	-100	0	230	101300000	1000	0	0	-1	0
30727683	8024	2	0	-100	0	230	101300000	1000	0	0	-1	0
30740243	8025	0	0	-100	0	230	101300000	1000	0	0	-1	0
30752803	8029	0	0	-100	0	230	101300000	1000	0	0	-1	0
30765363	8029	0	0	-100	0	230	101300000	1000	0	0	-1	0
30777923	8022	0	0	-100	0	230	101300000	1000	0	0	-1	0
30790483	8022	4	0	-100	0	230	101300000	1000	0	0	-1	0
30803043	8024	0	0	-100	0	230	101300000	1000	0	0	-1	0
30815603	8025	0	0	-100	0	230	101300000	1000	0	0	-1	0
30828163	8018	0	0	-100	0	230	101300000	1000	0	0	-1	0
30840723	8024	4	0	-100	0	230	101300000	1000	0	0	-1	0
30853283	8025	1	0	-100	0	230	101300000	1000	0	0	-1	0
30865843	8029	0	0	-100	0	230	101300000	1000	0	0	-1	0
30878403	8022	0	0	-100	0	230	101300000	1000	0	0	-1	0
30890963	8024	0	0	-100	0	230	101300000	1000	0	0	-1	0
30903523	8025	0	0	-100	0	230	101300000	1000	0	0	-1	0
30916083	8020	0	0	-100	0	230	101300000	1000	0	0	-1	0
30928643	8022	2	0	-100	0	230	101300000	1000	0	0	-1	0
30941203	8032	0	0	-100	0	230	101300000	1000	0	0	-1	0
30953763	8022	0	0	-100	0	230	101300000	1000	0	0	-1	0
30966323	8022	5	0	-100	0	230	101300000	1000	0	0	-1	0
30978883	8029	0	0	-100	0	230	101300000	1000	0	0	-1	0
30991443	8027	0	0	-100	0	230	101300000	1000	0	0	-1	0
31004004	8025	0	0	-100	0	230	101300000	1000	0	0	-1	0
31016563	8026	2	0	-100	0	230	101300000	1000	0	0	-1	0
31029123	8027	0	0	-100	0	230	101300000	1000	0	0	-1	0
31041683	8029	0	0	-100	0	230	101300000	1000	0	0	-1	0
31054243	8018	0	0	-100	0	230	101300000	1000	0	0	-1	0
31066803	8020	5	0	-100	0	230	101300000	1000	0	0	-1	0
31091923	8025	0	0	-100	0	230	101300000	1000	0	0	-1	0
31104483	8020	0	0	-100	0	230	101300000	1000	0	0	-1	0
31117043	8020	5	0	-100	0	230	101300000	1000	0	0	-1	0
31129603	8034	0	0	-100	0	230	101300000	1000	0	0	-1	0
31142163	8018	0	0	-100	0	230	101300000	1000	0	0	-1	0
31154723	8025	0	0	-100	0	230	101300000	1000	0	0	-1	0
31167283	8024	2	0	-100	0	230	101300000	1000	0	0	-1	0
31179843	8034	0	0	-100	0	230	101300000	1000	0	0	-1	0
31192403	8027	0	0	-100	0	230	101300000	1000	0	0	-1	0
31204963	8022	0	0	-100	0	230	101300000	1000	0	0	-1	0
31217523	8027	0	0	-100	0	230	101300000	1000	0	0	-1	0
31230083	8027	0	0	-100	0	230	101300000	1000	0	0	-1	0
31242643	8025	0	0	-100	0	230	101300000	1000	0	0	-1	0
31255203	8022	4	0	-100	0	230	101300000	1000	0	0	-1	0
31267763	8024	0	0	-100	0	230	101300000	1000	0	0	-1	0
31280323	8029	0	0	-100	0	230	101300000	1000	0	0	-1	0
31292883	8024	4	0	-100	0	230	101300000	1000	0	0	-1	0
31305443	8027	0	0	-100	0	230	101300000	1000	0	0	-1	0
31318004	8015	0	0	-100	0	230	101300000	1000	0	0	-1	0
31330563	8020	0	0	-100	0	230	101300000	1000	0	0	-1	0
31343123	8029	4	0	-100	0	230	101300000	1000	0	0	-1	0
31355683	8025	0	0	-100	0	230	101300000	1000	0	0	-1	0
31368243	8027	0	0	-100	0	230	101300000	1000	0	0	-1	0
31380803	8027	0	0	-100	0	230	101300000	1000	0	0	-1	0
31393363	8018	0	0	-100	0	230	101300000	1000	0	0	-1	0
31405923	8020	3	0	-100	0	230	101300000	1000	0	0	-1	0
31418483	8027	0	0	-100	0	230	101300000	1000	0	0	-1	0
31431043	8020	0	0	-100	0	230	101300000	1000	0	0	-1	0
31443603	8024	4	0	-100	0	230	101300000	1000	0	0	-1	0
31456163	8018	0	0	-100	0	230	101300000	1000	0	0	-1	0
31468723	8025	0	0	-100	0	230	101300000	1000	0	0	-1	0
31481283	8025	0	0	-100	0	230	101300000	1000	0	0	-1	0
31493843	8026	0	0	-100	0	230	101300000	1000	0	0	-1	0
31506403	8025	0	0	-100	0	230	101300000	1000	0	0	-1	0
31518963	8023	0	0	-100	0	230	101300000	1000	0	0	-1	0
31531523	8024	4	0	-100	0	230	101300000	1000	0	0	-1	0
31544083	8024	1	0	-100	0	230	101300000	1000	0	0	-1	0
31556643	8025	0	0	-100	0	230	101300000	1000	0	0	-1	0
31569203	8025	0	0	-100	0	230	101300000	1000	0	0	-1	0
31581763	8027	4	0	-100	0	230	101300000	1000	0	0	-1	0
31594323	8024	0	0	-100	0	230	101300000	1000	0	0	-1	0
31606883	8032	0	0	-100	0	230	101300000	1000	0	0	-1	0
31619443	8022	0	0	-100	0	230	101300000	1000	0	0	-1	0
31632004	8027	0	0	-100	0	230	101300000	1000	0	0	-1	0
31644563	8027	0	0	-100	0	230	101300000	1000	0	0	-1	0
31657123	8025	0	0	-100	0	230	101300000	1000	0	0	-1	0
31669683	8027	0	0	-100	0	230	101300000	1000	0	0	-1	0
31682243	8020	0	0	-100	0	230	101300000	1000	0	0	-1	0
31694803	8024	3	0	-100	0	230	101300000	1000	0	0	-1	0
31707363	8026	0	0	-100	0	230	101300000	1000	0	0	-1	0
31719923	8025	0	0	-100	0	230	101300000	1000	0	0	-1	0
31732483	8027	0	0	-100	0	230	101300000	1000	0	0	-1	0
31745043	8022	0	0	-100	0	230	101300000	1000	0	0	-1	0
31757603	8024	3	0	-100	0	230	101300000	1000	0	0	-1	0
31770163	8020	0	0	-100	0	230	101300000	1000	0	0	-1	0
31782723	8029	0	0	-100	0	230	101300000	1000	0	0	-1	0
31795283	8025	0	0	-100	0	230	101300000	1000	0	0	-1	0
31807843	8025	3	0	-100	0	230	101300000	1000	0	0	-1	0
31820403	8024	0	0	-100	0	230	101300000	1000	0	0	-1	0
31832963	8023	0	0	-100	0	230	101300000	1000	0	0	-1	0
31845523	8025	0	0	-100	0	230	101300000	1000	0	0	-1	0
31858083	8020	0	0	-100	0	230	101300000	1000	0	0	-1	0
31870643	8022	0	0	-100	0	230	101300000	1000	0	0	-1	0
31883203	8029	0	0	-100	0	230	101300000	1000	0	0	-1	0
31895763	8025	0	0	-100	0	230	101300000	1000	0	0	-1	0
31908323	8020	0	0	-100	0	230	101300000	1000	0	0	-1	0
31920883	8026	3	0	-100	0	230	101300000	1000	0	0	-1	0
31933443	8029	0	0	-100	0	230	101300000	1000	0	0	-1	0
31946004	8015	0	0	-100	0	230	101300000	1000	0	0	-1	0
31958563	8025	0	0	-100	0	230	101300000	1000	0	0	-1	0
31971123	8024	2	0	-100	0	230	101300000	1000	0	0	-1	0
31983683	8029	0	0	-100	0	230	101300000	1000	0	0	-1	0
31996243	8022	0	0	-100	0	230	101300000	1000	0	0	-1	0
32008803	8022	4	0	-100	0	230	101300000	1000	0	0	-1	0
32021363	8025	0	0	-100	0	230	101300000	1000	0	0	-1	0
32033923	8034	0	0	-100	0	230	101300000	1000	0	0	-1	0
32046483	8015	0	0	-100	0	230	101300000	1000	0	0	-1	0
32059043	8020	4	0	-100	0	230	101300000	1000	0	0	-1	0
32071603	8027	0	0	-100	0	230	101300000	1000	0	0	-1	0
32084163	8020	0	0	-100	0	230	101300000	1000	0	0	-1	0
32096723	8025	0	0	-100	0	230	101300000	1000	0	0	-1	0
32109283	8024	2	0	-100	0	230	101300000	1000	0	0	-1	0
32121843	8028	0	0	-100	0	230	101300000	1000	0	0	-1	0
32134403	8027	0	0	-100	0	230	101300000	1000	0	0	-1	0
32146963	8029	4	0	-100	0	230	101300000	1000	0	0	-1	0
32159523	8029	0	0	-100	0	230	101300000	1000	0	0	-1	0
32172083	8027	0	0	-100	0	230	101300000	1000	0	0	-1	0
32184643	8022	1	0	-100	0	230	101300000	1000	0	0	-1	0
32197203	8029	0	0	-100	0	230	101300000	1000	0	0	-1	0
32209763	8022	4	0	-100	0	230	101300000	1000	0	0	-1	0
32222323	8025	0	0	-100	0	230	101300000	1000	0	0	-1	0
32234883	8032	0	0	-100	0	230	101300000	1000	0	0	-1	0
32247443	8024	0	0	-100	0	230	101300000	1000	0	0	-1	0
32260004	8022	0	0	-100	0	230	101300000	1000	0	0	-1	0
32272563	8027	0	0	-100	0	230	101300000	1000	0	0	-1	0
32285123	8020	0	0	-100	0	230	101300000	1000	0	0	-1	0
32297683	8026	3	0	-100	0	230	101300000	1000	0	0	-1	0
32310243	8027	2	0	-100	0	230	101300000	1000	0	0	-1	0
32322803	8027	0	0	-100	0	230	101300000	1000	0	0	-1	0
32335363	8020	0	0	-100	0	230	101300000	1000	0	0	-1	0
32347923	8024	2	0	-100	0	230	101300000	1000	0	0	-1	0
32360483	8031	0	0	-100	0	230	101300000	1000	0	0	-1	0
32373043	8027	0	0	-100	0	230	101300000	1000	0	0	-1	0
32385603	8022	3	0	-100	0	230	101300000	1000	0	0	-1	0
32398163	8018	1	0	-100	0	230	101300000	1000	0	0	-1	0
32410723	8032	0	0	-100	0	230	101300000	1000	0	0	-1	0
32423283	8025	0	0	-100	0	230	101300000	1000	0	0	-1	0
32435843	8018	0	0	-100	0	230	101300000	1000	0	0	-1	0
32448403	8024	1	0	-100	0	230	101300000	1000	0	0	-1	0
32460963	8029	0	0	-100	0	230	101300000	1000	0	0	-1	0
32473523	8018	0	0	-100	0	230	101300000	1000	0	0	-1	0
32486083	8022	0	0	-100	0	230	101300000	1000	0	0	-1	0
32498643	8025	0	0	-100	0	230	101300000	1000	0	0	-1	0
32511203	8025	0	0	-100	0	230	101300000	1000	0	0	-1	0
32523763	8020	0	0	-100	0	230	101300000	1000	0	0	-1	0
32536323	8024	1	0	-100	0	230	101300000	1000	0	0	-1	0
32548883	8029	0	0	-100	0	230	101300000	1000	0	0	-1	0
32561443	8022	0	0	-100	0	230	101300000	1000	0	0	-1	0
32574004	8029	0	0	-100	0	230	101300000	1000	0	0	-1	0
32586563	8029	0	0	-100	0	230	101300000	1000	0	0	-1	0
32599123	8032	0	0	-100	0	230	101300000	1000	0	0	-1	0
32611683	8027	0	0	-100	0	230	101300000	1000	0	0	-1	0
32624243	8022	0	0	-100	0	230	101300000	1000	0	0	-1	0
32636803	8022	3	0	-100	0	230	101300000	1000	0	0	-1	0
32649363	8022	3	0	-100	0	230	101300000	1000	0	0	-1	0
32661923	8031	0	0	-100	0	230	101300000	1000	0	0	-1	0
32674483	8027	0	0	-100	0	230	101300000	1000	0	0	-1	0
32687043	8025	0	0	-100	0	230	101300000	1000	0	0	-1	0
32699603	8024	0	0	-100	0	230	101300000	1000	0	0	-1	0
32712163	8013	4	0	-100	0	230	101300000	1000	0	0	-1	0
32724723	8025	0	0	-100	0	230	101300000	1000	0	0	-1	0
32737283	8024	0	0	-100	0	230	101300000	1000	0	0	-1	0
32749843	8024	3	0	-100	0	230	101300000	1000	0	0	-1	0
32762403	8032	0	0	-100	0	230	101300000	1000	0	0	-1	0
32774963	8027	0	0	-100	0	230	101300000	1000	0	0	-1	0
32787523	8022	3	0	-100	0	230	101300000	1000	0	0	-1	0
32800083	8027	0	0	-100	0	230	101300000	1000	0	0	-1	0
32812643	8020	0	0	-100	0	230	101300000	1000	0	0	-1	0
32825203	8018	4	0	-100	0	230	101300000	1000	0	0	-1	0
32837763	8034	0	0	-100	0	230	101300000	1000	0	0	-1	0
32850323	8024	0	0	-100	0	230	101300000	1000	0	0	-1	0
32862883	8020	1	0	-100	0	230	101300000	1000	0	0	-1	0
32875443	8032	0	0	-100	0	230	101300000	1000	0	0	-1	0
32888004	8025	0	0	-100	0	230	101300000	1000	0	0	-1	0
32900563	8022	1	0	-100	0	230	101300000	1000	0	0	-1	0
32913123	8030	0	0	-100	0	230	101300000	1000	0	0	-1	0
32925683	8022	0	0	-100	0	230	101300000	1000	0	0	-1	0
32938243	8022	3	0	-100	0	230	101300000	1000	0	0	-1	0
32950803	8029	0	0	-100	0	230	101300000	1000	0	0	-1	0
32963363	8024	3	0	-100	0	230	101300000	1000	0	0	-1	0
32975923	8027	0	0	-100	0	230	101300000	1000	0	0	-1	0
32988483	8020	0	0	-100	0	230	101300000	1000	0	0	-1	0
33001043	8020	2	0	-100	0	230	101300000	1000	0	0	-1	0
33013603	8027	0	0	-100	0	230	101300000	1000	0	0	-1	0
33026163	8015	0	0	-100	0	230	101300000	1000	0	0	-1	0
33038723	8024	3	0	-100	0	230	101300000	1000	0	0	-1	0
33051283	8036	0	0	-100	0	230	101300000	1000	0	0	-1	0
33063843	8027	0	0	-100	0	230	101300000	1000	0	0	-1	0
33076403	8018	0	0	-100	0	230	101300000	1000	0	0	-1	0
33088963	8026	3	0	-100	0	230	101300000	1000	0	0	-1	0
33101523	8034	0	0	-100	0	230	101300000	1000	0	0	-1	0
33114083	8022	0	0	-100	0	230	101300000	1000	0	0	-1	0
33126643	8022	1	0	-100	0	230	101300000	1000	0	0	-1	0
33139203	8029	0	0	-100	0	230	101300000	1000	0	0	-1	0
33151763	8020	0	0	-100	0	230	101300000	1000	0	0	-1	0
33164323	8022	2	0	-100	0	230	101300000	1000	0	0	-1	0
33176883	8025	0	0	-100	0	230	101300000	1000	0	0	-1	0
33189443	8029	0	0	-100	0	230	101300000	1000	0	0	-1	0
33202004	8025	0	0	-100	0	230	101300000	1000	0	0	-1	0
33214563	8025	0	0	-100	0	230	101300000	1000	0	0	-1	0
33227123	8020	0	0	-100	0	230	101300000	1000	0	0	-1	0
33239683	8024	0	0	-100	0	230	101300000	1000	0	0	-1	0
33252243	8029	0	0	-100	0	230	101300000	1000	0	0	-1	0
33264803	8031	2	0	-100	0	230	101300000	1000	0	0	-1	0
33277363	8029	0	0	-100	0	230	101300000	1000	0	0	-1	0
33289923	8025	0	0	-100	0	230	101300000	1000	0	0	-1	0
33302483	8020	0	0	-100	0	230	101300000	1000	0	0	-1	0
33315043	8024	1	0	-100	0	230	101300000	1000	0	0	-1	0
33327603	8036	0	0	-100	0	230	101300000	1000	0	0	-1	0
33340163	8018	0	0	-100	0	230	101300000	1000	0	0	-1	0
33352723	8025	2	0	-100	0	230	101300000	1000	0	0	-1	0
33365283	8022	2	0	-100	0	230	101300000	1000	0	0	-1	0
33377843	8032	0	0	-100	0	230	101300000	1000	0	0	-1	0
33390403	8025	0	0	-100	0	230	101300000	1000	0	0	-1	0
33402963	8022	0	0	-100	0	230	101300000	1000	0	0	-1	0
33415523	8022	5	0	-100	0	230	101300000	1000	0	0	-1	0
33428083	8020	2	0	-100	0	230	101300000	1000	0	0	-1	0
33440643	8025	0	0	-100	0	230	101300000	1000	0	0	-1	0
33453203	8024	0	0	-100	0	230	101300000	1000	0	0	-1	0
33465763	8024	4	0	-100	0	230	101300000	1000	0	0	-1	0
33478323	8027	0	0	-100	0	230	101300000	1000	0	0	-1	0
33490883	8027	0	0	-100	0	230	101300000	1000	0	0	-1	0
33503443	8022	0	0	-100	0	230	101300000	1000	0	0	-1	0
33516004	8024	0	0	-100	0	230	101300000	1000	0	0	-1	0
33528563	8029	0	0	-100	0	230	101300000	1000	0	0	-1	0
33541123	8022	0	0	-100	0	230	101300000	1000	0	0	-1	0
33553683	8026	3	0	-100	0	230	101300000	1000	0	0	-1	0
33566243	8032	0	0	-100	0	230	101300000	1000	0	0	-1	0
33578803	8024	0	0	-100	0	230	101300000	1000	0	0	-1	0
33591363	8026	2	0	-100	0	230	101300000	1000	0	0	-1	0
33603923	8024	0	0	-100	0	230	101300000	1000	0	0	-1	0
33616483	8025	0	0	-100	0	230	101300000	1000	0	0	-1	0
33629043	8022	0	0	-100	0	230	101300000	1000	0	0	-1	0
33641603	8026	3	0	-100	0	230	101300000	1000	0	0	-1	0
33654163	8020	0	0	-100	0	230	101300000	1000	0	0	-1	0
33666723	8025	0	0	-100	0	230	101300000	1000	0	0	-1	0
33679283	8018	0	0	-100	0	230	101300000	1000	0	0	-1	0
33691843	8022	2	0	-100	0	230	101300000	1000	0	0	-1	0
33704403	8022	0	0	-100	0	230	101300000	1000	0	0	-1	0
33716963	8018	0	0	-100	0	230	101300000	1000	0	0	-1	0
33729523	8022	3	0	-100	0	230	101300000	1000	0	0	-1	0
33742083	8027	0	0	-100	0	230	101300000	1000	0	0	-1	0
33754643	8029	0	0	-100	0	230	101300000	1000	0	0	-1	0
33767203	8020	0	0	-100	0	230	101300000	1000	0	0	-1	0
33779763	8020	3	0	-100	0	230	101300000	1000	0	0	-1	0
33792323	8029	0	0	-100	0	230	101300000	1000	0	0	-1	0
33804883	8027	0	0	-100	0	230	101300000	1000	0	0	-1	0
33817443	8026	4	0	-100	0	230	101300000	1000	0	0	-1	0
33830004	8026	1	0	-100	0	230	101300000	1000	0	0	-1	0
33842563	8027	0	0	-100	0	230	101300000	1000	0	0	-1	0
33855123	8022	0	0	-100	0	230	101300000	1000	0	0	-1	0
33867683	8024	4	0	-100	0	230	101300000	1000	0	0	-1	0
33880243	8026	0	0	-100	0	230	101300000	1000	0	0	-1	0
33892803	8027	0	0	-100	0	230	101300000	1000	0	0	-1	0
33905363	8020	0	0	-100	0	230	101300000	1000	0	0	-1	0
33917923	8025	0	0	-100	0	230	101300000	1000	0	0	-1	0
33980723	8029	0	0	-100	0	230	101300000	1000	0	0	-1	0
33993283	8027	0	0	-100	0	230	101300000	1000	0	0	-1	0
34005843	8022	3	0	-100	0	230	101300000	1000	0	0	-1	0
34018403	8027	0	0	-100	0	230	101300000	1000	0	0	-1	0
34030963	8022	0	0	-100	0	230	101300000	1000	0	0	-1	0
34043523	8024	0	0	-100	0	230	101300000	1000	0	0	-1	0
34056083	8023	0	0	-100	0	230	101300000	1000	0	0	-1	0
34068643	8029	0	0	-100	0	230	101300000	1000	0	0	-1	0
34081203	8025	4	0	-100	0	230	101300000	1000	0	0	-1	0
34093763	8026	0	0	-100	0	230	101300000	1000	0	0	-1	0
34106323	8029	0	0	-100	0	230	101300000	1000	0	0	-1	0
34118883	8020	0	0	-100	0	230	101300000	1000	0	0	-1	0
34169123	8024	0	0	-100	0	230	101300000	1000	0	0	-1	0
34181683	8020	4	0	-100	0	230	101300000	1000	0	0	-1	0
34194243	8030	0	0	-100	0	230	101300000	1000	0	0	-1	0
34206803	8022	0	0	-100	0	230	101300000	1000	0	0	-1	0
34219363	8022	1	0	-100	0	230	101300000	1000	0	0	-1	0
34231923	8027	0	0	-100	0	230	101300000	1000	0	0	-1	0
34244483	8020	0	0	-100	0	230	101300000	1000	0	0	-1	0
34257043	8027	0	0	-100	0	230	101300000	1000	0	0	-1	0
34269603	8027	0	0	-100	0	230	101300000	1000	0	0	-1	0
34282163	8018	4	0	-100	0	230	101300000	1000	0	0	-1	0
34294723	8027	0	0	-100	0	230	101300000	1000	0	0	-1	0
34307283	8022	0	0	-100	0	230	101300000	1000	0	0	-1	0
34319843	8018	2	0	-100	0	230	101300000	1000	0	0	-1	0
34332403	8027	0	0	-100	0	230	101300000	1000	0	0	-1	0
34344963	8024	3	0	-100	0	230	101300000	1000	0	0	-1	0
34357523	8027	0	0	-100	0	230	101300000	1000	0	0	-1	0
34370083	8022	2	0	-100	0	230	101300000	1000	0	0	-1	0
34382643	8029	0	0	-100	0	230	101300000	1000	0	0	-1	0
34395203	8027	0	0	-100	0	230	101300000	1000	0	0	-1	0
34407763	8024	0	0	-100	0	230	101300000	1000	0	0	-1	0
34420323	8029	0	0	-100	0	230	101300000	1000	0	0	-1	0
34432883	8022	0	0	-100	0	230	101300000	1000	0	0	-1	0
34445443	8025	0	0	-100	0	230	101300000	1000	0	0	-1	0
34458004	8032	0	0	-100	0	230	101300000	1000	0	0	-1	0
34470563	8024	0	0	-100	0	230	101300000	1000	0	0	-1	0
34483123	8032	0	0	-100	0	230	101300000	1000	0	0	-1	0
34495683	8018	1	0	-100	0	230	101300000	1000	0	0	-1	0
34508243	8029	0	0	-100	0	230	101300000	1000	0	0	-1	0
34520803	8027	0	0	-100	0	230	101300000	1000	0	0	-1	0
34533363	8020	1	0	-100	0	230	101300000	1000	0	0	-1	0
34545923	8029	0	0	-100	0	230	101300000	1000	0	0	-1	0
34558483	8022	0	0	-100	0	230	101300000	1000	0	0	-1	0
34571043	8025	0	0	-100	0	230	101300000	1000	0	0	-1	0
34583603	8022	0	0	-100	0	230	101300000	1000	0	0	-1	0
34596163	8015	1	0	-100	0	230	101300000	1000	0	0	-1	0
34608723	8034	0	0	-100	0	230	101300000	1000	0	0	-1	0
34621283	8025	0	0	-100	0	230	101300000	1000	0	0	-1	0
34633843	8027	1	0	-100	0	230	101300000	1000	0	0	-1	0
34646403	8029	0	0	-100	0	230	101300000	1000	0	0	-1	0
34658963	8029	0	0	-100	0	230	101300000	1000	0	0	-1	0
34671523	8018	0	0	-100	0	230	101300000	1000	0	0	-1	0
34684083	8022	0	0	-100	0	230	101300000	1000	0	0	-1	0
34696643	8027	0	0	-100	0	230	101300000	1000	0	0	-1	0
34709203	8025	3	0	-100	0	230	101300000	1000	0	0	-1	0
34721763	8022	0	0	-100	0	230	101300000	1000	0	0	-1	0
34734323	8029	0	0	-100	0	230	101300000	1000	0	0	-1	0
34746883	8016	0	0	-100	0	230	101300000	1000	0	0	-1	0
34759443	8020	1	0	-100	0	230	101300000	1000	0	0	-1	0
34772004	8020	4	0	-100	0	230	101300000	1000	0	0	-1	0
34784563	8020	0	0	-100	0	230	101300000	1000	0	0	-1	0
34797123	8018	0	0	-100	0	230	101300000	1000	0	0	-1	0
34809683	8022	0	0	-100	0	230	101300000	1000	0	0	-1	0
34822243	8029	0	0	-100	0	230	101300000	1000	0	0	-1	0
34834803	8025	1	0	-100	0	230	101300000	1000	0	0	-1	0
34847363	8029	0	0	-100	0	230	101300000	1000	0	0	-1	0
34859923	8025	0	0	-100	0	230	101300000	1000	0	0	-1	0
34872483	8025	5	0	-100	0	230	101300000	1000	0	0	-1	0
34885043	8029	0	0	-100	0	230	101300000	1000	0	0	-1	0
34897603	8029	0	0	-100	0	230	101300000	1000	0	0	-1	0
34910163	8011	0	0	-100	0	230	101300000	1000	0	0	-1	0
34922723	8025	2	0	-100	0	230	101300000	1000	0	0	-1	0
34935283	8025	0	0	-100	0	230	101300000	1000	0	0	-1	0
34947843	8020	4	0	-100	0	230	101300000	1000	0	0	-1	0
34960403	8025	0	0	-100	0	230	101300000	1000	0	0	-1	0
34972963	8025	0	0	-100	0	230	101300000	1000	0	0	-1	0
34985523	8026	3	0	-100	0	230	101300000	1000	0	0	-1	0
34998083	8032	0	0	-100	0	230	101300000	1000	0	0	-1	0
35010643	8027	0	0	-100	0	230	101300000	1000	0	0	-1	0
35023203	8020	0	0	-100	0	230	101300000	1000	0	0	-1	0
35035763	8029	1	0	-100	0	230	101300000	1000	0	0	-1	0
35048323	8029	0	0	-100	0	230	101300000	1000	0	0	-1	0
35060883	8025	0	0	-100	0	230	101300000	1000	0	0	-1	0
35073443	8026	4	0	-100	0	230	101300000	1000	0	0	-1	0
35086004	8022	1	0	-100	0	230	101300000	1000	0	0	-1	0
35098563	8029	0	0	-100	0	230	101300000	1000	0	0	-1	0
35111123	8027	0	0	-100	0	230	101300000	1000	0	0	-1	0
35123683	8022	0	0	-100	0	230	101300000	1000	0	0	-1	0
35136243	8024	3	0	-100	0	230	101300000	1000	0	0	-1	0
35148803	8020	0	0	-100	0	230	101300000	1000	0	0	-1	0
35161363	8027	0	0	-100	0	230	101300000	1000	0	0	-1	0
35173923	8027	0	0	-100	0	230	101300000	1000	0	0	-1	0
35186483	8025	0	0	-100	0	230	101300000	1000	0	0	-1	0
35199043	8022	4	0	-100	0	230	101300000	1000	0	0	-1	0
35211603	8034	0	0	-100	0	230	101300000	1000	0	0	-1	0
35224163	8020	0	0	-100	0	230	101300000	1000	0	0	-1	0
35236723	8022	0	0	-100	0	230	101300000	1000	0	0	-1	0
35249283	8026	2	0	-100	0	230	101300000	1000	0	0	-1	0
35261843	8032	0	0	-100	0	230	101300000	1000	0	0	-1	0
35274403	8027	0	0	-100	0	230	101300000	1000	0	0	-1	0
35286963	8020	0	0	-100	0	230	101300000	1000	0	0	-1	0
35299523	8022	0	0	-100	0	230	101300000	1000	0	0	-1	0
35312083	8020	4	0	-100	0	230	101300000	1000	0	0	-1	0
35324643	8024	0	0	-100	0	230	101300000	1000	0	0	-1	0
35337203	8029	0	0	-100	0	230	101300000	1000	0	0	-1	0
35349763	8027	0	0	-100	0	230	101300000	1000	0	0	-1	0
35362323	8020	0	0	-100	0	230	101300000	1000	0	0	-1	0
35374883	8022	3	0	-100	0	230	101300000	1000	0	0	-1	0
35387443	8027	0	0	-100	0	230	101300000	1000	0	0	-1	0
35400004	8019	2	0	-100	0	230	101300000	1000	0	0	-1	0
35412563	8024	0	0	-100	0	230	101300000	1000	0	0	-1	0
35425123	8026	4	0	-100	0	230	101300000	1000	0	0	-1	0
35437683	8029	0	0	-100	0	230	101300000	1000	0	0	-1	0
35450243	8027	0	0	-100	0	230	101300000	1000	0	0	-1	0
35462803	8022	0	0	-100	0	230	101300000	1000	0	0	-1	0
35475363	8024	2	0	-100	0	230	101300000	1000	0	0	-1	0
35487923	8029	0	0	-100	0	230	101300000	1000	0	0	-1	0
35500483	8030	0	0	-100	0	230	101300000	1000	0	0	-1	0
35513043	8024	0	0	-100	0	230	101300000	1000	0	0	-1	0
35525603	8022	2	0	-100	0	230	101300000	1000	0	0	-1	0
35538163	8023	0	0	-100	0	230	101300000	1000	0	0	-1	0
35550723	8022	0	0	-100	0	230	101300000	1000	0	0	-1	0
35563283	8025	3	0	-100	0	230	101300000	1000	0	0	-1	0
35575843	8034	0	0	-100	0	230	101300000	1000	0	0	-1	0
35588403	8029	0	0	-100	0	230	101300000	1000	0	0	-1	0
35600963	8022	5	0	-100	0	230	101300000	1000	0	0	-1	0
35613523	8027	0	0	-100	0	230	101300000	1000	0	0	-1	0
35626083	8029	0	0	-100	0	230	101300000	1000	0	0	-1	0
35638643	8024	4	0	-100	0	230	101300000	1000	0	0	-1	0
35651203	8027	0	0	-100	0	230	101300000	1000	0	0	-1	0
35663763	8020	5	0	-100	0	230	101300000	1000	0	0	-1	0
35676323	8036	0	0	-100	0	230	101300000	1000	0	0	-1	0
35688883	8020	0	0	-100	0	230	101300000	1000	0	0	-1	0
35701443	8029	1	0	-100	0	230	101300000	1000	0	0	-1	0
35714004	8022	0	0	-100	0	230	101300000	1000	0	0	-1	0
35726563	8024	3	0	-100	0	230	101300000	1000	0	0	-1	0
35739123	8032	0	0	-100	0	230	101300000	1000	0	0	-1	0
35751683	8025	0	0	-100	0	230	101300000	1000	0	0	-1	0
35764243	8022	1	0	-100	0	230	101300000	1000	0	0	-1	0
35776803	8025	0	0	-100	0	230	101300000	1000	0	0	-1	0
35789363	8022	0	0	-100	0	230	101300000	1000	0	0	-1	0
35801923	8020	2	0	-100	0	230	101300000	1000	0	0	-1	0
35814483	8025	0	0	-100	0	230	101300000	1000	0	0	-1	0
35827043	8020	0	0	-100	0	230	101300000	1000	0	0	-1	0
35839603	8022	0	0	-100	0	230	101300000	1000	0	0	-1	0
35852163	8016	0	0	-100	0	230	101300000	1000	0	0	-1	0
35864723	8020	0	0	-100	0	230	101300000	1000	0	0	-1	0
35877283	8022	3	0	-100	0	230	101300000	1000	0	0	-1	0
35889843	8032	0	0	-100	0	230	101300000	1000	0	0	-1	0
35902403	8023	0	0	-100	0	230	101300000	1000	0	0	-1	0
35914963	8025	4	0	-100	0	230	101300000	1000	0	0	-1	0
35927523	8027	0	0	-100	0	230	101300000	1000	0	0	-1	0
35940083	8024	0	0	-100	0	230	101300000	1000	0	0	-1	0
35952643	8025	0	0	-100	0	230	101300000	1000	0	0	-1	0
35965203	8022	0	0	-100	0	230	101300000	1000	0	0	-1	0
35977763	8029	0	0	-100	0	230	101300000	1000	0	0	-1	0
35990323	8020	0	0	-100	0	230	101300000	1000	0	0	-1	0
36002883	8029	0	0	-100	0	230	101300000	1000	0	0	-1	0
36015443	8025	0	0	-100	0	230	101300000	1000	0	0	-1	0
36028004	8022	0	0	-100	0	230	101300000	1000	0	0	-1	0
36040563	8025	0	0	-100	0	230	101300000	1000	0	0	-1	0
36053123	8022	2	0	-100	0	230	101300000	1000	0	0	-1	0
36065683	8025	0	0	-100	0	230	101300000	1000	0	0	-1	0
36078243	8027	2	0	-100	0	230	101300000	1000	0	0	-1	0
36090803	8025	0	0	-100	0	230	101300000	1000	0	0	-1	0
36103363	8027	0	0	-100	0	230	101300000	1000	0	0	-1	0
