timestamp	voltage	current	windSpeed	pitchAngle	rpm	temperature	ambientPressure	humidity	accelerationX	accelerationY	accelerationZ	currentSink
7033070	9506	0	0	-100	0	230	101300000	1000	0	0	-1	0
7040523	9494	3	0	-100	0	230	101300000	1000	0	0	-1	0
7053083	9509	0	0	-100	0	230	101300000	1000	0	0	-1	0
7065643	9492	4	0	-100	0	230	101300000	1000	0	0	-1	0
7078203	9496	0	0	-100	0	230	101300000	1000	0	0	-1	0
7090763	9499	1	0	-100	0	230	101300000	1000	0	0	-1	0
7103323	9494	0	0	-100	0	230	101300000	1000	0	0	-1	0
7115883	9497	5	0	-100	0	230	101300000	1000	0	0	-1	0
7128443	9504	0	0	-100	0	230	101300000	1000	0	0	-1	0
7141004	9501	0	0	-100	0	230	101300000	1000	0	0	-1	0
7153563	9502	0	0	-100	0	230	101300000	1000	0	0	-1	0
7166123	9499	0	0	-100	0	230	101300000	1000	0	0	-1	0
7178683	9499	1	0	-100	0	230	101300000	1000	0	0	-1	0
7191243	9506	0	0	-100	0	230	101300000	1000	0	0	-1	0
7203803	9499	6	0	-100	0	230	101300000	1000	0	0	-1	0
7216363	9501	0	0	-100	0	230	101300000	1000	0	0	-1	0
7228923	9491	0	0	-100	0	230	101300000	1000	0	0	-1	0
7241483	9497	4	0	-100	0	230	101300000	1000	0	0	-1	0
7254043	9501	0	0	-100	0	230	101300000	1000	0	0	-1	0
7266603	9501	4	0	-100	0	230	101300000	1000	0	0	-1	0
7279163	9504	0	0	-100	0	230	101300000	1000	0	0	-1	0
7291723	9499	0	0	-100	0	230	101300000	1000	0	0	-1	0
7304283	9499	4	0	-100	0	230	101300000	1000	0	0	-1	0
7316843	9499	0	0	-100	0	230	101300000	1000	0	0	-1	0
7329403	9492	0	0	-100	0	230	101300000	1000	0	0	-1	0
7341963	9497	1	0	-100	0	230	101300000	1000	0	0	-1	0
7367083	9497	4	0	-100	0	230	101300000	1000	0	0	-1	0
7379643	9511	0	0	-100	0	230	101300000	1000	0	0	-1	0
7392203	9496	0	0	-100	0	230	101300000	1000	0	0	-1	0
7404763	9497	1	0	-100	0	230	101300000	1000	0	0	-1	0
7417323	9497	1	0	-100	0	230	101300000	1000	0	0	-1	0
7429883	9496	0	0	-100	0	230	101300000	1000	0	0	-1	0
7442443	9494	0	0	-100	0	230	101300000	1000	0	0	-1	0
7455004	9504	0	0	-100	0	230	101300000	1000	0	0	-1	0
7467563	9499	0	0	-100	0	230	101300000	1000	0	0	-1	0
7480123	9499	0	0	-100	0	230	101300000	1000	0	0	-1	0
7492683	9497	4	0	-100	0	230	101300000	1000	0	0	-1	0
7505243	9499	0	0	-100	0	230	101300000	1000	0	0	-1	0
7568043	9496	0	0	-100	0	230	101300000	1000	0	0	-1	0
7580603	9497	2	0	-100	0	230	101300000	1000	0	0	-1	0
7593163	9502	4	0	-100	0	230	101300000	1000	0	0	-1	0
7605723	9494	0	0	-100	0	230	101300000	1000	0	0	-1	0
7618283	9504	0	0	-100	0	230	101300000	1000	0	0	-1	0
7630843	9499	0	0	-100	0	230	101300000	1000	0	0	-1	0
7643403	9496	0	0	-100	0	230	101300000	1000	0	0	-1	0
7655963	9494	4	0	-100	0	230	101300000	1000	0	0	-1	0
7668523	9507	0	0	-100	0	230	101300000	1000	0	0	-1	0
7681083	9496	0	0	-100	0	230	101300000	1000	0	0	-1	0
7693643	9504	0	0	-100	0	230	101300000	1000	0	0	-1	0
7706203	9491	0	0	-100	0	230	101300000	1000	0	0	-1	0
7718763	9499	0	0	-100	0	230	101300000	1000	0	0	-1	0
7731323	9489	2	0	-100	0	230	101300000	1000	0	0	-1	0
7743883	9501	0	0	-100	0	230	101300000	1000	0	0	-1	0
7756443	9506	0	0	-100	0	230	101300000	1000	0	0	-1	0
7769004	9509	0	0	-100	0	230	101300000	1000	0	0	-1	0
7781563	9496	0	0	-100	0	230	101300000	1000	0	0	-1	0
7794123	9494	4	0	-100	0	230	101300000	1000	0	0	-1	0
7806683	9499	2	0	-100	0	230	101300000	1000	0	0	-1	0
7819243	9504	0	0	-100	0	230	101300000	1000	0	0	-1	0
7831803	9501	0	0	-100	0	230	101300000	1000	0	0	-1	0
7844363	9494	0	0	-100	0	230	101300000	1000	0	0	-1	0
7856923	9496	0	0	-100	0	230	101300000	1000	0	0	-1	0
7869483	9497	0	0	-100	0	230	101300000	1000	0	0	-1	0
7882043	9497	2	0	-100	0	230	101300000	1000	0	0	-1	0
7894603	9504	0	0	-100	0	230	101300000	1000	0	0	-1	0
7907163	9509	0	0	-100	0	230	101300000	1000	0	0	-1	0
7919723	9494	0	0	-100	0	230	101300000	1000	0	0	-1	0
7932283	9497	4	0	-100	0	230	101300000	1000	0	0	-1	0
7944843	9494	4	0	-100	0	230	101300000	1000	0	0	-1	0
7957403	9504	0	0	-100	0	230	101300000	1000	0	0	-1	0
7969963	9499	0	0	-100	0	230	101300000	1000	0	0	-1	0
7982523	9501	4	0	-100	0	230	101300000	1000	0	0	-1	0
7995083	9501	0	0	-100	0	230	101300000	1000	0	0	-1	0
8007643	9501	0	0	-100	0	230	101300000	1000	0	0	-1	0
8020203	9497	0	0	-100	0	230	101300000	1000	0	0	-1	0
8032763	9497	2	0	-100	0	230	101300000	1000	0	0	-1	0
8045323	9504	2	0	-100	0	230	101300000	1000	0	0	-1	0
8057883	9502	0	0	-100	0	230	101300000	1000	0	0	-1	0
8070443	9504	0	0	-100	0	230	101300000	1000	0	0	-1	0
8083004	9504	0	0	-100	0	230	101300000	1000	0	0	-1	0
8095563	9492	0	0	-100	0	230	101300000	1000	0	0	-1	0
8108123	9501	4	0	-100	0	230	101300000	1000	0	0	-1	0
8120683	9497	4	0	-100	0	230	101300000	1000	0	0	-1	0
8133243	9492	2	0	-100	0	230	101300000	1000	0	0	-1	0
8145803	9504	0	0	-100	0	230	101300000	1000	0	0	-1	0
8158363	9501	0	0	-100	0	230	101300000	1000	0	0	-1	0
8170923	9499	0	0	-100	0	230	101300000	1000	0	0	-1	0
8183483	9497	0	0	-100	0	230	101300000	1000	0	0	-1	0
8196043	9494	0	0	-100	0	230	101300000	1000	0	0	-1	0
8208603	9489	0	0	-100	0	230	101300000	1000	0	0	-1	0
8221163	9502	2	0	-100	0	230	101300000	1000	0	0	-1	0
8233723	9499	4	0	-100	0	230	101300000	1000	0	0	-1	0
8246283	9494	1	0	-100	0	230	101300000	1000	0	0	-1	0
8258843	9502	0	0	-100	0	230	101300000	1000	0	0	-1	0
8271403	9504	0	0	-100	0	230	101300000	1000	0	0	-1	0
8283963	9501	0	0	-100	0	230	101300000	1000	0	0	-1	0
8296523	9504	0	0	-100	0	230	101300000	1000	0	0	-1	0
8309083	9501	0	0	-100	0	230	101300000	1000	0	0	-1	0
8321643	9504	0	0	-100	0	230	101300000	1000	0	0	-1	0
8334203	9496	0	0	-100	0	230	101300000	1000	0	0	-1	0
8346763	9494	0	0	-100	0	230	101300000	1000	0	0	-1	0
8359323	9494	0	0	-100	0	230	101300000	1000	0	0	-1	0
8371883	9496	0	0	-100	0	230	101300000	1000	0	0	-1	0
8384443	9489	0	0	-100	0	230	101300000	1000	0	0	-1	0
8397004	9508	0	0	-100	0	230	101300000	1000	0	0	-1	0
8409563	9497	0	0	-100	0	230	101300000	1000	0	0	-1	0
8422123	9499	0	0	-100	0	230	101300000	1000	0	0	-1	0
8434683	9499	0	0	-100	0	230	101300000	1000	0	0	-1	0
8447243	9491	0	0	-100	0	230	101300000	1000	0	0	-1	0
8459803	9497	0	0	-100	0	230	101300000	1000	0	0	-1	0
8472363	9499	0	0	-100	0	230	101300000	1000	0	0	-1	0
8484923	9489	0	0	-100	0	230	101300000	1000	0	0	-1	0
8497483	9489	0	0	-100	0	230	101300000	1000	0	0	-1	0
8510043	9494	0	0	-100	0	230	101300000	1000	0	0	-1	0
8522603	9494	0	0	-100	0	230	101300000	1000	0	0	-1	0
8535163	9507	0	0	-100	0	230	101300000	1000	0	0	-1	0
8547723	9496	1	0	-100	0	230	101300000	1000	0	0	-1	0
8560283	9497	3	0	-100	0	230	101300000	1000	0	0	-1	0
8572843	9499	0	0	-100	0	230	101300000	1000	0	0	-1	0
8585403	9496	0	0	-100	0	230	101300000	1000	0	0	-1	0
8597963	9494	0	0	-100	0	230	101300000	1000	0	0	-1	0
8610523	9494	0	0	-100	0	230	101300000	1000	0	0	-1	0
8623083	9507	4	0	-100	0	230	101300000	1000	0	0	-1	0
8635643	9494	1	0	-100	0	230	101300000	1000	0	0	-1	0
8648203	9499	0	0	-100	0	230	101300000	1000	0	0	-1	0
8660763	9499	0	0	-100	0	230	101300000	1000	0	0	-1	0
8673323	9497	0	0	-100	0	230	101300000	1000	0	0	-1	0
8685883	9497	3	0	-100	0	230	101300000	1000	0	0	-1	0
8698443	9492	3	0	-100	0	230	101300000	1000	0	0	-1	0
8711004	9506	0	0	-100	0	230	101300000	1000	0	0	-1	0
8723563	9504	0	0	-100	0	230	101300000	1000	0	0	-1	0
8736123	9501	0	0	-100	0	230	101300000	1000	0	0	-1	0
8748683	9494	0	0	-100	0	230	101300000	1000	0	0	-1	0
8761243	9494	0	0	-100	0	230	101300000	1000	0	0	-1	0
8773803	9504	4	0	-100	0	230	101300000	1000	0	0	-1	0
8786363	9494	0	0	-100	0	230	101300000	1000	0	0	-1	0
8798923	9497	0	0	-100	0	230	101300000	1000	0	0	-1	0
8811483	9506	0	0	-100	0	230	101300000	1000	0	0	-1	0
8824043	9499	0	0	-100	0	230	101300000	1000	0	0	-1	0
8836603	9496	0	0	-100	0	230	101300000	1000	0	0	-1	0
8849163	9504	0	0	-100	0	230	101300000	1000	0	0	-1	0
8861723	9499	0	0	-100	0	230	101300000	1000	0	0	-1	0
8874283	9494	0	0	-100	0	230	101300000	1000	0	0	-1	0
8886843	9497	4	0	-100	0	230	101300000	1000	0	0	-1	0
8899403	9494	4	0	-100	0	230	101300000	1000	0	0	-1	0
8911963	9492	2	0	-100	0	230	101300000	1000	0	0	-1	0
8924523	9494	0	0	-100	0	230	101300000	1000	0	0	-1	0
8937083	9499	0	0	-100	0	230	101300000	1000	0	0	-1	0
8949643	9501	0	0	-100	0	230	101300000	1000	0	0	-1	0
8962203	9497	0	0	-100	0	230	101300000	1000	0	0	-1	0
8974763	9484	0	0	-100	0	230	101300000	1000	0	0	-1	0
8987323	9499	0	0	-100	0	230	101300000	1000	0	0	-1	0
8999883	9497	4	0	-100	0	230	101300000	1000	0	0	-1	0
9012443	9494	2	0	-100	0	230	101300000	1000	0	0	-1	0
9025004	9504	0	0	-100	0	230	101300000	1000	0	0	-1	0
9037563	9499	0	0	-100	0	230	101300000	1000	0	0	-1	0
9050123	9506	0	0	-100	0	230	101300000	1000	0	0	-1	0
9062683	9494	0	0	-100	0	230	101300000	1000	0	0	-1	0
9075243	9501	0	0	-100	0	230	101300000	1000	0	0	-1	0
9087803	9494	0	0	-100	0	230	101300000	1000	0	0	-1	0
9100363	9504	4	0	-100	0	230	101300000	1000	0	0	-1	0
9112923	9506	0	0	-100	0	230	101300000	1000	0	0	-1	0
9125483	9501	0	0	-100	0	230	101300000	1000	0	0	-1	0
9138043	9496	0	0	-100	0	230	101300000	1000	0	0	-1	0
9150603	9494	1	0	-100	0	230	101300000	1000	0	0	-1	0
9163163	9506	0	0	-100	0	230	101300000	1000	0	0	-1	0
9175723	9504	0	0	-100	0	230	101300000	1000	0	0	-1	0
9188283	9499	0	0	-100	0	230	101300000	1000	0	0	-1	0
9200843	9499	4	0	-100	0	230	101300000	1000	0	0	-1	0
9213403	9502	0	0	-100	0	230	101300000	1000	0	0	-1	0
9225963	9504	0	0	-100	0	230	101300000	1000	0	0	-1	0
9238523	9501	0	0	-100	0	230	101300000	1000	0	0	-1	0
9251083	9499	4	0	-100	0	230	101300000	1000	0	0	-1	0
9263643	9504	0	0	-100	0	230	101300000	1000	0	0	-1	0
9276203	9504	0	0	-100	0	230	101300000	1000	0	0	-1	0
9288763	9492	5	0	-100	0	230	101300000	1000	0	0	-1	0
9301323	9492	0	0	-100	0	230	101300000	1000	0	0	-1	0
9313883	9501	0	0	-100	0	230	101300000	1000	0	0	-1	0
9326443	9489	1	0	-100	0	230	101300000	1000	0	0	-1	0
9339004	9506	0	0	-100	0	230	101300000	1000	0	0	-1	0
9351563	9501	0	0	-100	0	230	101300000	1000	0	0	-1	0
9364123	9494	0	0	-100	0	230	101300000	1000	0	0	-1	0
9376683	9492	1	0	-100	0	230	101300000	1000	0	0	-1	0
9389243	9501	0	0	-100	0	230	101300000	1000	0	0	-1	0
9401803	9496	0	0	-100	0	230	101300000	1000	0	0	-1	0
9414363	9491	0	0	-100	0	230	101300000	1000	0	0	-1	0
9426923	9496	4	0	-100	0	230	101300000	1000	0	0	-1	0
9439483	9494	1	0	-100	0	230	101300000	1000	0	0	-1	0
9452043	9496	0	0	-100	0	230	101300000	1000	0	0	-1	0
9464603	9499	0	0	-100	0	230	101300000	1000	0	0	-1	0
9477163	9504	0	0	-100	0	230	101300000	1000	0	0	-1	0
9489723	9494	0	0	-100	0	230	101300000	1000	0	0	-1	0
9502283	9499	3	0	-100	0	230	101300000	1000	0	0	-1	0
9514843	9504	0	0	-100	0	230	101300000	1000	0	0	-1	0
9527403	9499	0	0	-100	0	230	101300000	1000	0	0	-1	0
9539963	9494	0	0	-100	0	230	101300000	1000	0	0	-1	0
9552523	9494	0	0	-100	0	230	101300000	1000	0	0	-1	0
9565083	9497	4	0	-100	0	230	101300000	1000	0	0	-1	0
9577643	9497	0	0	-100	0	230	101300000	1000	0	0	-1	0
9590203	9504	0	0	-100	0	230	101300000	1000	0	0	-1	0
9602763	9501	0	0	-100	0	230	101300000	1000	0	0	-1	0
9615323	9499	0	0	-100	0	230	101300000	1000	0	0	-1	0
9627883	9496	0	0	-100	0	230	101300000	1000	0	0	-1	0
9640443	9494	0	0	-100	0	230	101300000	1000	0	0	-1	0
9653004	9516	0	0	-100	0	230	101300000	1000	0	0	-1	0
9665563	9499	3	0	-100	0	230	101300000	1000	0	0	-1	0
9678123	9494	2	0	-100	0	230	101300000	1000	0	0	-1	0
9690683	9504	0	0	-100	0	230	101300000	1000	0	0	-1	0
9703243	9501	0	0	-100	0	230	101300000	1000	0	0	-1	0
9715803	9499	0	0	-100	0	230	101300000	1000	0	0	-1	0
9728363	9497	0	0	-100	0	230	101300000	1000	0	0	-1	0
9740923	9497	0	0	-100	0	230	101300000	1000	0	0	-1	0
9753483	9504	4	0	-100	0	230	101300000	1000	0	0	-1	0
9766043	9499	4	0	-100	0	230	101300000	1000	0	0	-1	0
9778603	9502	1	0	-100	0	230	101300000	1000	0	0	-1	0
9791163	9509	0	0	-100	0	230	101300000	1000	0	0	-1	0
9803723	9506	0	0	-100	0	230	101300000	1000	0	0	-1	0
9816283	9501	0	0	-100	0	230	101300000	1000	0	0	-1	0
9828843	9492	0	0	-100	0	230	101300000	1000	0	0	-1	0
9841403	9497	0	0	-100	0	230	101300000	1000	0	0	-1	0
9853963	9494	2	0	-100	0	230	101300000	1000	0	0	-1	0
9866523	9504	0	0	-100	0	230	101300000	1000	0	0	-1	0
9879083	9501	0	0	-100	0	230	101300000	1000	0	0	-1	0
9891643	9504	0	0	-100	0	230	101300000	1000	0	0	-1	0
9904203	9494	0	0	-100	0	230	101300000	1000	0	0	-1	0
9916763	9497	4	0	-100	0	230	101300000	1000	0	0	-1	0
9929323	9497	0	0	-100	0	230	101300000	1000	0	0	-1	0
9941883	9504	0	0	-100	0	230	101300000	1000	0	0	-1	0
9954443	9492	0	0	-100	0	230	101300000	1000	0	0	-1	0
9967004	9504	0	0	-100	0	230	101300000	1000	0	0	-1	0
9979563	9496	0	0	-100	0	230	101300000	1000	0	0	-1	0
9992123	9496	0	0	-100	0	230	101300000	1000	0	0	-1	0
10004683	9489	2	0	-100	0	230	101300000	1000	0	0	-1	0
10017243	9494	0	0	-100	0	230	101300000	1000	0	0	-1	0
10029803	9496	0	0	-100	0	230	101300000	1000	0	0	-1	0
10042363	9492	4	0	-100	0	230	101300000	1000	0	0	-1	0
10054923	9506	0	0	-100	0	230	101300000	1000	0	0	-1	0
10067483	9501	0	0	-100	0	230	101300000	1000	0	0	-1	0
10080043	9494	6	0	-100	0	230	101300000	1000	0	0	-1	0
10092603	9501	0	0	-100	0	230	101300000	1000	0	0	-1	0
10105163	9509	0	0	-100	0	230	101300000	1000	0	0	-1	0
10117723	9494	0	0	-100	0	230	101300000	1000	0	0	-1	0
10130283	9489	4	0	-100	0	230	101300000	1000	0	0	-1	0
10142843	9504	0	0	-100	0	230	101300000	1000	0	0	-1	0
10155403	9504	0	0	-100	0	230	101300000	1000	0	0	-1	0
10167963	9504	0	0	-100	0	230	101300000	1000	0	0	-1	0
10180523	9487	0	0	-100	0	230	101300000	1000	0	0	-1	0
10193083	9494	0	0	-100	0	230	101300000	1000	0	0	-1	0
10205643	9492	4	0	-100	0	230	101300000	1000	0	0	-1	0
10218203	9511	0	0	-100	0	230	101300000	1000	0	0	-1	0
10230763	9499	0	0	-100	0	230	101300000	1000	0	0	-1	0
10243323	9494	3	0	-100	0	230	101300000	1000	0	0	-1	0
10255883	9501	0	0	-100	0	230	101300000	1000	0	0	-1	0
10268443	9494	0	0	-100	0	230	101300000	1000	0	0	-1	0
10281004	9509	4	0	-100	0	230	101300000	1000	0	0	-1	0
10293563	9494	0	0	-100	0	230	101300000	1000	0	0	-1	0
10306123	9494	0	0	-100	0	230	101300000	1000	0	0	-1	0
10318683	9501	0	0	-100	0	230	101300000	1000	0	0	-1	0
10331243	9492	2	0	-100	0	230	101300000	1000	0	0	-1	0
10343803	9496	0	0	-100	0	230	101300000	1000	0	0	-1	0
10356363	9494	0	0	-100	0	230	101300000	1000	0	0	-1	0
10368923	9502	0	0	-100	0	230	101300000	1000	0	0	-1	0
10381483	9499	0	0	-100	0	230	101300000	1000	0	0	-1	0
10394043	9494	4	0	-100	0	230	101300000	1000	0	0	-1	0
10406603	9497	1	0	-100	0	230	101300000	1000	0	0	-1	0
10419163	9501	0	0	-100	0	230	101300000	1000	0	0	-1	0
10431723	9501	0	0	-100	0	230	101300000	1000	0	0	-1	0
10444283	9492	0	0	-100	0	230	101300000	1000	0	0	-1	0
10456843	9492	4	0	-100	0	230	101300000	1000	0	0	-1	0
10469403	9499	0	0	-100	0	230	101300000	1000	0	0	-1	0
10481963	9504	0	0	-100	0	230	101300000	1000	0	0	-1	0
10494523	9494	0	0	-100	0	230	101300000	1000	0	0	-1	0
10507083	9499	3	0	-100	0	230	101300000	1000	0	0	-1	0
10519643	9499	0	0	-100	0	230	101300000	1000	0	0	-1	0
10532203	9497	0	0	-100	0	230	101300000	1000	0	0	-1	0
10544763	9496	0	0	-100	0	230	101300000	1000	0	0	-1	0
10557323	9506	0	0	-100	0	230	101300000	1000	0	0	-1	0
10620123	9497	0	0	-100	0	230	101300000	1000	0	0	-1	0
10632683	9499	0	0	-100	0	230	101300000	1000	0	0	-1	0
10645243	9499	1	0	-100	0	230	101300000	1000	0	0	-1	0
10657803	9494	5	0	-100	0	230	101300000	1000	0	0	-1	0
10670363	9499	3	0	-100	0	230	101300000	1000	0	0	-1	0
10682923	9504	0	0	-100	0	230	101300000	1000	0	0	-1	0
10695483	9509	0	0	-100	0	230	101300000	1000	0	0	-1	0
10708043	9504	0	0	-100	0	230	101300000	1000	0	0	-1	0
10720603	9504	0	0	-100	0	230	101300000	1000	0	0	-1	0
10733163	9499	1	0	-100	0	230	101300000	1000	0	0	-1	0
10745723	9492	3	0	-100	0	230	101300000	1000	0	0	-1	0
10758283	9499	1	0	-100	0	230	101300000	1000	0	0	-1	0
10770843	9494	1	0	-100	0	230	101300000	1000	0	0	-1	0
10783403	9497	3	0	-100	0	230	101300000	1000	0	0	-1	0
10795963	9501	2	0	-100	0	230	101300000	1000	0	0	-1	0
10808523	9492	3	0	-100	0	230	101300000	1000	0	0	-1	0
10821083	9494	3	0	-100	0	230	101300000	1000	0	0	-1	0
10833643	9497	4	0	-100	0	230	101300000	1000	0	0	-1	0
10846203	9499	4	0	-100	0	230	101300000	1000	0	0	-1	0
10858763	9502	3	0	-100	0	230	101300000	1000	0	0	-1	0
10871323	9494	3	0	-100	0	230	101300000	1000	0	0	-1	0
10883883	9502	2	0	-100	0	230	101300000	1000	0	0	-1	0
10896443	9499	3	0	-100	0	230	101300000	1000	0	0	-1	0
10909004	9504	0	0	-100	0	230	101300000	1000	0	0	-1	0
10921563	9501	0	0	-100	0	230	101300000	1000	0	0	-1	0
10934123	9499	0	0	-100	0	230	101300000	1000	0	0	-1	0
10946683	9504	0	0	-100	0	230	101300000	1000	0	0	-1	0
10959243	9506	0	0	-100	0	230	101300000	1000	0	0	-1	0
10971803	9499	0	0	-100	0	230	101300000	1000	0	0	-1	0
10984363	9496	0	0	-100	0	230	101300000	1000	0	0	-1	0
10996923	9491	0	0	-100	0	230	101300000	1000	0	0	-1	0
11009483	9499	0	0	-100	0	230	101300000	1000	0	0	-1	0
11022043	9499	0	0	-100	0	230	101300000	1000	0	0	-1	0
11034603	9494	0	0	-100	0	230	101300000	1000	0	0	-1	0
11047163	9504	0	0	-100	0	230	101300000	1000	0	0	-1	0
11059723	9489	0	0	-100	0	230	101300000	1000	0	0	-1	0
11072283	9496	0	0	-100	0	230	101300000	1000	0	0	-1	0
11084843	9489	0	0	-100	0	230	101300000	1000	0	0	-1	0
11097403	9494	0	0	-100	0	230	101300000	1000	0	0	-1	0
11109963	9499	4	0	-100	0	230	101300000	1000	0	0	-1	0
11122523	9497	3	0	-100	0	230	101300000	1000	0	0	-1	0
11135083	9494	2	0	-100	0	230	101300000	1000	0	0	-1	0
11147643	9489	4	0	-100	0	230	101300000	1000	0	0	-1	0
11160203	9506	0	0	-100	0	230	101300000	1000	0	0	-1	0
11172763	9501	0	0	-100	0	230	101300000	1000	0	0	-1	0
11185323	9496	0	0	-100	0	230	101300000	1000	0	0	-1	0
11197883	9494	0	0	-100	0	230	101300000	1000	0	0	-1	0
11210443	9499	0	0	-100	0	230	101300000	1000	0	0	-1	0
11223004	9511	0	0	-100	0	230	101300000	1000	0	0	-1	0
11235563	9497	4	0	-100	0	230	101300000	1000	0	0	-1	0
11248123	9504	3	0	-100	0	230	101300000	1000	0	0	-1	0
11260683	9494	3	0	-100	0	230	101300000	1000	0	0	-1	0
11273243	9501	2	0	-100	0	230	101300000	1000	0	0	-1	0
11285803	9492	2	0	-100	0	230	101300000	1000	0	0	-1	0
11298363	9492	0	0	-100	0	230	101300000	1000	0	0	-1	0
11310923	9504	0	0	-100	0	230	101300000	1000	0	0	-1	0
11323483	9506	0	0	-100	0	230	101300000	1000	0	0	-1	0
11336043	9491	0	0	-100	0	230	101300000	1000	0	0	-1	0
11348603	9494	5	0	-100	0	230	101300000	1000	0	0	-1	0
11361163	9507	4	0	-100	0	230	101300000	1000	0	0	-1	0
11373723	9497	4	0	-100	0	230	101300000	1000	0	0	-1	0
11386283	9499	0	0	-100	0	230	101300000	1000	0	0	-1	0
11398843	9497	0	0	-100	0	230	101300000	1000	0	0	-1	0
11411403	9501	0	0	-100	0	230	101300000	1000	0	0	-1	0
11423963	9501	0	0	-100	0	230	101300000	1000	0	0	-1	0
11436523	9504	0	0	-100	0	230	101300000	1000	0	0	-1	0
11449083	9486	0	0	-100	0	230	101300000	1000	0	0	-1	0
11461643	9499	4	0	-100	0	230	101300000	1000	0	0	-1	0
11474203	9494	1	0	-100	0	230	101300000	1000	0	0	-1	0
11486763	9489	1	0	-100	0	230	101300000	1000	0	0	-1	0
11499323	9494	0	0	-100	0	230	101300000	1000	0	0	-1	0
11511883	9491	0	0	-100	0	230	101300000	1000	0	0	-1	0
11524443	9496	0	0	-100	0	230	101300000	1000	0	0	-1	0
11537004	9494	0	0	-100	0	230	101300000	1000	0	0	-1	0
11549563	9506	0	0	-100	0	230	101300000	1000	0	0	-1	0
11562123	9494	1	0	-100	0	230	101300000	1000	0	0	-1	0
11574683	9496	4	0	-100	0	230	101300000	1000	0	0	-1	0
11587243	9494	0	0	-100	0	230	101300000	1000	0	0	-1	0
11599803	9497	0	0	-100	0	230	101300000	1000	0	0	-1	0
11612363	9506	0	0	-100	0	230	101300000	1000	0	0	-1	0
11624923	9501	0	0	-100	0	230	101300000	1000	0	0	-1	0
11637483	9497	0	0	-100	0	230	101300000	1000	0	0	-1	0
11650043	9499	4	0	-100	0	230	101300000	1000	0	0	-1	0
11662603	9499	4	0	-100	0	230	101300000	1000	0	0	-1	0
11675163	9504	4	0	-100	0	230	101300000	1000	0	0	-1	0
11687723	9492	2	0	-100	0	230	101300000	1000	0	0	-1	0
11700283	9499	2	0	-100	0	230	101300000	1000	0	0	-1	0
11712843	9502	2	0	-100	0	230	101300000	1000	0	0	-1	0
11725403	9494	1	0	-100	0	230	101300000	1000	0	0	-1	0
11737963	9502	0	0	-100	0	230	101300000	1000	0	0	-1	0
11750523	9504	0	0	-100	0	230	101300000	1000	0	0	-1	0
11763083	9499	0	0	-100	0	230	101300000	1000	0	0	-1	0
11775643	9491	0	0	-100	0	230	101300000	1000	0	0	-1	0
11788203	9494	0	0	-100	0	230	101300000	1000	0	0	-1	0
11800763	9499	4	0	-100	0	230	101300000	1000	0	0	-1	0
11813323	9504	4	0	-100	0	230	101300000	1000	0	0	-1	0
11825883	9492	4	0	-100	0	230	101300000	1000	0	0	-1	0
11838443	9494	3	0	-100	0	230	101300000	1000	0	0	-1	0
11851004	9496	0	0	-100	0	230	101300000	1000	0	0	-1	0
11863563	9499	4	0	-100	0	230	101300000	1000	0	0	-1	0
11876123	9499	3	0	-100	0	230	101300000	1000	0	0	-1	0
11888683	9502	2	0	-100	0	230	101300000	1000	0	0	-1	0
11901243	9497	4	0	-100	0	230	101300000	1000	0	0	-1	0
11913803	9491	2	0	-100	0	230	101300000	1000	0	0	-1	0
11926363	9494	1	0	-100	0	230	101300000	1000	0	0	-1	0
11938923	9502	0	0	-100	0	230	101300000	1000	0	0	-1	0
11951483	9499	0	0	-100	0	230	101300000	1000	0	0	-1	0
11964043	9494	0	0	-100	0	230	101300000	1000	0	0	-1	0
11976603	9504	0	0	-100	0	230	101300000	1000	0	0	-1	0
11989163	9509	0	0	-100	0	230	101300000	1000	0	0	-1	0
12001723	9504	0	0	-100	0	230	101300000	1000	0	0	-1	0
12014283	9494	0	0	-100	0	230	101300000	1000	0	0	-1	0
12026843	9494	0	0	-100	0	230	101300000	1000	0	0	-1	0
12039403	9494	0	0	-100	0	230	101300000	1000	0	0	-1	0
12051963	9497	3	0	-100	0	230	101300000	1000	0	0	-1	0
12064523	9496	4	0	-100	0	230	101300000	1000	0	0	-1	0
12077083	9499	3	0	-100	0	230	101300000	1000	0	0	-1	0
12089643	9502	2	0	-100	0	230	101300000	1000	0	0	-1	0
12102203	9494	3	0	-100	0	230	101300000	1000	0	0	-1	0
12114763	9494	2	0	-100	0	230	101300000	1000	0	0	-1	0
12127323	9494	3	0	-100	0	230	101300000	1000	0	0	-1	0
12139883	9494	1	0	-100	0	230	101300000	1000	0	0	-1	0
12152443	9504	2	0	-100	0	230	101300000	1000	0	0	-1	0
12165004	9501	0	0	-100	0	230	101300000	1000	0	0	-1	0
12177563	9504	4	0	-100	0	230	101300000	1000	0	0	-1	0
12190123	9499	4	0	-100	0	230	101300000	1000	0	0	-1	0
12202683	9499	3	0	-100	0	230	101300000	1000	0	0	-1	0
12215243	9502	2	0	-100	0	230	101300000	1000	0	0	-1	0
12227803	9499	0	0	-100	0	230	101300000	1000	0	0	-1	0
12240363	9504	0	0	-100	0	230	101300000	1000	0	0	-1	0
12252923	9496	0	0	-100	0	230	101300000	1000	0	0	-1	0
12265483	9501	0	0	-100	0	230	101300000	1000	0	0	-1	0
12278043	9506	0	0	-100	0	230	101300000	1000	0	0	-1	0
12290603	9504	0	0	-100	0	230	101300000	1000	0	0	-1	0
12303163	9501	0	0	-100	0	230	101300000	1000	0	0	-1	0
12315723	9499	0	0	-100	0	230	101300000	1000	0	0	-1	0
12328283	9489	0	0	-100	0	230	101300000	1000	0	0	-1	0
12340843	9489	0	0	-100	0	230	101300000	1000	0	0	-1	0
12353403	9499	4	0	-100	0	230	101300000	1000	0	0	-1	0
12365963	9499	3	0	-100	0	230	101300000	1000	0	0	-1	0
12378523	9496	5	0	-100	0	230	101300000	1000	0	0	-1	0
12391083	9504	3	0	-100	0	230	101300000	1000	0	0	-1	0
12403643	9496	0	0	-100	0	230	101300000	1000	0	0	-1	0
12416203	9504	0	0	-100	0	230	101300000	1000	0	0	-1	0
12428763	9504	0	0	-100	0	230	101300000	1000	0	0	-1	0
12441323	9504	0	0	-100	0	230	101300000	1000	0	0	-1	0
12453883	9496	0	0	-100	0	230	101300000	1000	0	0	-1	0
12466443	9496	0	0	-100	0	230	101300000	1000	0	0	-1	0
12479004	9511	0	0	-100	0	230	101300000	1000	0	0	-1	0
12491563	9492	0	0	-100	0	230	101300000	1000	0	0	-1	0
12504123	9491	2	0	-100	0	230	101300000	1000	0	0	-1	0
12516683	9494	3	0	-100	0	230	101300000	1000	0	0	-1	0
12529243	9492	4	0	-100	0	230	101300000	1000	0	0	-1	0
12541803	9497	3	0	-100	0	230	101300000	1000	0	0	-1	0
12554363	9499	4	0	-100	0	230	101300000	1000	0	0	-1	0
12566923	9497	1	0	-100	0	230	101300000	1000	0	0	-1	0
12579483	9491	2	0	-100	0	230	101300000	1000	0	0	-1	0
12592043	9499	0	0	-100	0	230	101300000	1000	0	0	-1	0
12604603	9499	0	0	-100	0	230	101300000	1000	0	0	-1	0
12617163	9511	0	0	-100	0	230	101300000	1000	0	0	-1	0
12629723	9506	0	0	-100	0	230	101300000	1000	0	0	-1	0
12642283	9504	0	0	-100	0	230	101300000	1000	0	0	-1	0
12654843	9506	0	0	-100	0	230	101300000	1000	0	0	-1	0
12667403	9501	0	0	-100	0	230	101300000	1000	0	0	-1	0
12679963	9501	0	0	-100	0	230	101300000	1000	0	0	-1	0
12692523	9506	0	0	-100	0	230	101300000	1000	0	0	-1	0
12705083	9499	0	0	-100	0	230	101300000	1000	0	0	-1	0
12717643	9499	0	0	-100	0	230	101300000	1000	0	0	-1	0
12730203	9501	0	0	-100	0	230	101300000	1000	0	0	-1	0
12742763	9496	0	0	-100	0	230	101300000	1000	0	0	-1	0
12755323	9501	0	0	-100	0	230	101300000	1000	0	0	-1	0
12767883	9499	0	0	-100	0	230	101300000	1000	0	0	-1	0
12780443	9489	0	0	-100	0	230	101300000	1000	0	0	-1	0
12793004	9511	0	0	-100	0	230	101300000	1000	0	0	-1	0
12805563	9492	4	0	-100	0	230	101300000	1000	0	0	-1	0
12818123	9492	0	0	-100	0	230	101300000	1000	0	0	-1	0
12830683	9497	1	0	-100	0	230	101300000	1000	0	0	-1	0
12843243	9497	2	0	-100	0	230	101300000	1000	0	0	-1	0
12855803	9499	1	0	-100	0	230	101300000	1000	0	0	-1	0
12868363	9492	3	0	-100	0	230	101300000	1000	0	0	-1	0
12880923	9494	4	0	-100	0	230	101300000	1000	0	0	-1	0
12893483	9492	3	0	-100	0	230	101300000	1000	0	0	-1	0
12906043	9492	0	0	-100	0	230	101300000	1000	0	0	-1	0
12918603	9496	0	0	-100	0	230	101300000	1000	0	0	-1	0
12931163	9509	0	0	-100	0	230	101300000	1000	0	0	-1	0
12943723	9496	0	0	-100	0	230	101300000	1000	0	0	-1	0
12956283	9494	0	0	-100	0	230	101300000	1000	0	0	-1	0
12968843	9494	0	0	-100	0	230	101300000	1000	0	0	-1	0
12981403	9499	0	0	-100	0	230	101300000	1000	0	0	-1	0
12993963	9497	0	0	-100	0	230	101300000	1000	0	0	-1	0
13006523	9491	0	0	-100	0	230	101300000	1000	0	0	-1	0
13019083	9494	0	0	-100	0	230	101300000	1000	0	0	-1	0
13031643	9506	0	0	-100	0	230	101300000	1000	0	0	-1	0
13044203	9501	0	0	-100	0	230	101300000	1000	0	0	-1	0
13056763	9499	0	0	-100	0	230	101300000	1000	0	0	-1	0
13069323	9501	0	0	-100	0	230	101300000	1000	0	0	-1	0
13081883	9499	0	0	-100	0	230	101300000	1000	0	0	-1	0
13094443	9504	0	0	-100	0	230	101300000	1000	0	0	-1	0
13107004	9509	1	0	-100	0	230	101300000	1000	0	0	-1	0
13119563	9497	0	0	-100	0	230	101300000	1000	0	0	-1	0
13132123	9499	1	0	-100	0	230	101300000	1000	0	0	-1	0
13144683	9494	2	0	-100	0	230	101300000	1000	0	0	-1	0
13157243	9502	3	0	-100	0	230	101300000	1000	0	0	-1	0
13169803	9494	3	0	-100	0	230	101300000	1000	0	0	-1	0
13182363	9502	4	0	-100	0	230	101300000	1000	0	0	-1	0
13194923	9499	3	0	-100	0	230	101300000	1000	0	0	-1	0
13207483	9489	0	0	-100	0	230	101300000	1000	0	0	-1	0
13220043	9499	0	0	-100	0	230	101300000	1000	0	0	-1	0
13232603	9497	0	0	-100	0	230	101300000	1000	0	0	-1	0
13245163	9504	0	0	-100	0	230	101300000	1000	0	0	-1	0
13257723	9494	4	0	-100	0	230	101300000	1000	0	0	-1	0
13270283	9494	2	0	-100	0	230	101300000	1000	0	0	-1	0
13282843	9494	4	0	-100	0	230	101300000	1000	0	0	-1	0
13295403	9499	4	0	-100	0	230	101300000	1000	0	0	-1	0
13307963	9497	4	0	-100	0	230	101300000	1000	0	0	-1	0
13320523	9499	4	0	-100	0	230	101300000	1000	0	0	-1	0
13333083	9499	5	0	-100	0	230	101300000	1000	0	0	-1	0
13345643	9492	4	0	-100	0	230	101300000	1000	0	0	-1	0
13358203	9501	3	0	-100	0	230	101300000	1000	0	0	-1	0
13370763	9499	4	0	-100	0	230	101300000	1000	0	0	-1	0
13383323	9499	4	0	-100	0	230	101300000	1000	0	0	-1	0
13395883	9494	4	0	-100	0	230	101300000	1000	0	0	-1	0
13408443	9501	3	0	-100	0	230	101300000	1000	0	0	-1	0
13421004	9502	0	0	-100	0	230	101300000	1000	0	0	-1	0
13433563	9489	4	0	-100	0	230	101300000	1000	0	0	-1	0
13446123	9499	4	0	-100	0	230	101300000	1000	0	0	-1	0
13521483	9501	0	0	-100	0	230	101300000	1000	0	0	-1	0
13534043	9504	0	0	-100	0	230	101300000	1000	0	0	-1	0
13546603	9494	0	0	-100	0	230	101300000	1000	0	0	-1	0
13559163	9501	0	0	-100	0	230	101300000	1000	0	0	-1	0
13571723	9497	3	0	-100	0	230	101300000	1000	0	0	-1	0
13584283	9497	0	0	-100	0	230	101300000	1000	0	0	-1	0
13596843	9504	0	0	-100	0	230	101300000	1000	0	0	-1	0
13609403	9499	0	0	-100	0	230	101300000	1000	0	0	-1	0
13621963	9499	0	0	-100	0	230	101300000	1000	0	0	-1	0
13634523	9511	0	0	-100	0	230	101300000	1000	0	0	-1	0
13647083	9501	0	0	-100	0	230	101300000	1000	0	0	-1	0
13659643	9506	0	0	-100	0	230	101300000	1000	0	0	-1	0
13672203	9501	0	0	-100	0	230	101300000	1000	0	0	-1	0
13684763	9499	0	0	-100	0	230	101300000	1000	0	0	-1	0
13697323	9504	0	0	-100	0	230	101300000	1000	0	0	-1	0
13709883	9499	0	0	-100	0	230	101300000	1000	0	0	-1	0
13722443	9496	0	0	-100	0	230	101300000	1000	0	0	-1	0
13735004	9513	0	0	-100	0	230	101300000	1000	0	0	-1	0
13747563	9496	0	0	-100	0	230	101300000	1000	0	0	-1	0
13760123	9494	0	0	-100	0	230	101300000	1000	0	0	-1	0
13772683	9494	0	0	-100	0	230	101300000	1000	0	0	-1	0
13785243	9499	0	0	-100	0	230	101300000	1000	0	0	-1	0
13797803	9492	0	0	-100	0	230	101300000	1000	0	0	-1	0
13810363	9496	0	0	-100	0	230	101300000	1000	0	0	-1	0
13822923	9491	0	0	-100	0	230	101300000	1000	0	0	-1	0
13835483	9504	0	0	-100	0	230	101300000	1000	0	0	-1	0
13848043	9492	0	0	-100	0	230	101300000	1000	0	0	-1	0
13860603	9494	0	0	-100	0	230	101300000	1000	0	0	-1	0
13873163	9506	0	0	-100	0	230	101300000	1000	0	0	-1	0
13885723	9497	4	0	-100	0	230	101300000	1000	0	0	-1	0
13898283	9499	3	0	-100	0	230	101300000	1000	0	0	-1	0
13910843	9497	3	0	-100	0	230	101300000	1000	0	0	-1	0
13923403	9494	2	0	-100	0	230	101300000	1000	0	0	-1	0
13935963	9499	0	0	-100	0	230	101300000	1000	0	0	-1	0
13948523	9499	0	0	-100	0	230	101300000	1000	0	0	-1	0
13961083	9499	0	0	-100	0	230	101300000	1000	0	0	-1	0
13973643	9501	0	0	-100	0	230	101300000	1000	0	0	-1	0
13986203	9506	0	0	-100	0	230	101300000	1000	0	0	-1	0
13998763	9504	0	0	-100	0	230	101300000	1000	0	0	-1	0
14011323	9502	0	0	-100	0	230	101300000	1000	0	0	-1	0
14023883	9494	0	0	-100	0	230	101300000	1000	0	0	-1	0
14036443	9499	2	0	-100	0	230	101300000	1000	0	0	-1	0
14049004	9499	0	0	-100	0	230	101300000	1000	0	0	-1	0
14061563	9499	0	0	-100	0	230	101300000	1000	0	0	-1	0
14074123	9499	0	0	-100	0	230	101300000	1000	0	0	-1	0
14086683	9499	0	0	-100	0	230	101300000	1000	0	0	-1	0
14099243	9492	0	0	-100	0	230	101300000	1000	0	0	-1	0
14111803	9492	3	0	-100	0	230	101300000	1000	0	0	-1	0
14124363	9499	1	0	-100	0	230	101300000	1000	0	0	-1	0
14136923	9496	0	0	-100	0	230	101300000	1000	0	0	-1	0
14149483	9496	0	0	-100	0	230	101300000	1000	0	0	-1	0
14162043	9492	0	0	-100	0	230	101300000	1000	0	0	-1	0
14174603	9497	0	0	-100	0	230	101300000	1000	0	0	-1	0
14187163	9499	2	0	-100	0	230	101300000	1000	0	0	-1	0
14199723	9489	5	0	-100	0	230	101300000	1000	0	0	-1	0
14212283	9499	4	0	-100	0	230	101300000	1000	0	0	-1	0
14224843	9504	0	0	-100	0	230	101300000	1000	0	0	-1	0
14237403	9511	0	0	-100	0	230	101300000	1000	0	0	-1	0
14249963	9496	0	0	-100	0	230	101300000	1000	0	0	-1	0
14262523	9496	0	0	-100	0	230	101300000	1000	0	0	-1	0
14275083	9499	0	0	-100	0	230	101300000	1000	0	0	-1	0
14287643	9499	0	0	-100	0	230	101300000	1000	0	0	-1	0
14300203	9497	0	0	-100	0	230	101300000	1000	0	0	-1	0
14312763	9496	0	0	-100	0	230	101300000	1000	0	0	-1	0
14325323	9494	0	0	-100	0	230	101300000	1000	0	0	-1	0
14337883	9489	0	0	-100	0	230	101300000	1000	0	0	-1	0
14350443	9504	5	0	-100	0	230	101300000	1000	0	0	-1	0
14363004	9504	0	0	-100	0	230	101300000	1000	0	0	-1	0
14375563	9499	0	0	-100	0	230	101300000	1000	0	0	-1	0
14388123	9494	0	0	-100	0	230	101300000	1000	0	0	-1	0
14400683	9504	0	0	-100	0	230	101300000	1000	0	0	-1	0
14413243	9489	0	0	-100	0	230	101300000	1000	0	0	-1	0
14425803	9494	4	0	-100	0	230	101300000	1000	0	0	-1	0
14438363	9502	0	0	-100	0	230	101300000	1000	0	0	-1	0
14450923	9501	0	0	-100	0	230	101300000	1000	0	0	-1	0
14463483	9509	0	0	-100	0	230	101300000	1000	0	0	-1	0
14476043	9497	0	0	-100	0	230	101300000	1000	0	0	-1	0
14488603	9494	0	0	-100	0	230	101300000	1000	0	0	-1	0
14501163	9502	2	0	-100	0	230	101300000	1000	0	0	-1	0
14513723	9494	1	0	-100	0	230	101300000	1000	0	0	-1	0
14526283	9501	0	0	-100	0	230	101300000	1000	0	0	-1	0
14538843	9501	0	0	-100	0	230	101300000	1000	0	0	-1	0
14551403	9496	0	0	-100	0	230	101300000	1000	0	0	-1	0
14563963	9506	4	0	-100	0	230	101300000	1000	0	0	-1	0
14576523	9494	4	0	-100	0	230	101300000	1000	0	0	-1	0
14589083	9499	4	0	-100	0	230	101300000	1000	0	0	-1	0
14601643	9492	0	0	-100	0	230	101300000	1000	0	0	-1	0
14614203	9499	0	0	-100	0	230	101300000	1000	0	0	-1	0
14626763	9499	0	0	-100	0	230	101300000	1000	0	0	-1	0
14639323	9501	0	0	-100	0	230	101300000	1000	0	0	-1	0
14651883	9504	0	0	-100	0	230	101300000	1000	0	0	-1	0
14664443	9496	0	0	-100	0	230	101300000	1000	0	0	-1	0
14677004	9504	1	0	-100	0	230	101300000	1000	0	0	-1	0
14689563	9504	0	0	-100	0	230	101300000	1000	0	0	-1	0
14702123	9501	0	0	-100	0	230	101300000	1000	0	0	-1	0
14714683	9501	0	0	-100	0	230	101300000	1000	0	0	-1	0
14727243	9492	0	0	-100	0	230	101300000	1000	0	0	-1	0
14739803	9499	3	0	-100	0	230	101300000	1000	0	0	-1	0
14752363	9494	4	0	-100	0	230	101300000	1000	0	0	-1	0
14764923	9497	5	0	-100	0	230	101300000	1000	0	0	-1	0
14777483	9501	4	0	-100	0	230	101300000	1000	0	0	-1	0
14790043	9499	4	0	-100	0	230	101300000	1000	0	0	-1	0
14802603	9502	3	0	-100	0	230	101300000	1000	0	0	-1	0
14815163	9509	3	0	-100	0	230	101300000	1000	0	0	-1	0
14827723	9499	4	0	-100	0	230	101300000	1000	0	0	-1	0
14840283	9502	4	0	-100	0	230	101300000	1000	0	0	-1	0
14852843	9497	3	0	-100	0	230	101300000	1000	0	0	-1	0
14865403	9502	4	0	-100	0	230	101300000	1000	0	0	-1	0
14877963	9499	0	0	-100	0	230	101300000	1000	0	0	-1	0
14890523	9492	0	0	-100	0	230	101300000	1000	0	0	-1	0
14903083	9489	0	0	-100	0	230	101300000	1000	0	0	-1	0
14915643	9497	0	0	-100	0	230	101300000	1000	0	0	-1	0
14928203	9494	0	0	-100	0	230	101300000	1000	0	0	-1	0
14940763	9501	0	0	-100	0	230	101300000	1000	0	0	-1	0
14953323	9501	0	0	-100	0	230	101300000	1000	0	0	-1	0
14965883	9509	0	0	-100	0	230	101300000	1000	0	0	-1	0
14978443	9499	0	0	-100	0	230	101300000	1000	0	0	-1	0
14991004	9506	4	0	-100	0	230	101300000	1000	0	0	-1	0
15003563	9497	0	0	-100	0	230	101300000	1000	0	0	-1	0
15016123	9499	0	0	-100	0	230	101300000	1000	0	0	-1	0
15028683	9499	0	0	-100	0	230	101300000	1000	0	0	-1	0
15041243	9499	2	0	-100	0	230	101300000	1000	0	0	-1	0
15053803	9499	4	0	-100	0	230	101300000	1000	0	0	-1	0
15066363	9491	0	0	-100	0	230	101300000	1000	0	0	-1	0
15078923	9499	0	0	-100	0	230	101300000	1000	0	0	-1	0
15091483	9496	0	0	-100	0	230	101300000	1000	0	0	-1	0
15104043	9506	0	0	-100	0	230	101300000	1000	0	0	-1	0
15116603	9499	4	0	-100	0	230	101300000	1000	0	0	-1	0
15129163	9504	0	0	-100	0	230	101300000	1000	0	0	-1	0
15141723	9497	0	0	-100	0	230	101300000	1000	0	0	-1	0
15154283	9504	0	0	-100	0	230	101300000	1000	0	0	-1	0
15166843	9501	0	0	-100	0	230	101300000	1000	0	0	-1	0
15179403	9489	0	0	-100	0	230	101300000	1000	0	0	-1	0
15191963	9501	0	0	-100	0	230	101300000	1000	0	0	-1	0
15204523	9499	0	0	-100	0	230	101300000	1000	0	0	-1	0
15217083	9499	0	0	-100	0	230	101300000	1000	0	0	-1	0
15229643	9504	0	0	-100	0	230	101300000	1000	0	0	-1	0
15242203	9509	0	0	-100	0	230	101300000	1000	0	0	-1	0
15254763	9501	0	0	-100	0	230	101300000	1000	0	0	-1	0
15267323	9501	0	0	-100	0	230	101300000	1000	0	0	-1	0
15279883	9494	4	0	-100	0	230	101300000	1000	0	0	-1	0
15292443	9494	4	0	-100	0	230	101300000	1000	0	0	-1	0
15305004	9511	0	0	-100	0	230	101300000	1000	0	0	-1	0
15317563	9506	0	0	-100	0	230	101300000	1000	0	0	-1	0
15330123	9506	0	0	-100	0	230	101300000	1000	0	0	-1	0
15342683	9494	0	0	-100	0	230	101300000	1000	0	0	-1	0
15355243	9499	2	0	-100	0	230	101300000	1000	0	0	-1	0
15367803	9504	0	0	-100	0	230	101300000	1000	0	0	-1	0
15380363	9496	0	0	-100	0	230	101300000	1000	0	0	-1	0
15392923	9497	0	0	-100	0	230	101300000	1000	0	0	-1	0
15405483	9494	0	0	-100	0	230	101300000	1000	0	0	-1	0
15418043	9484	0	0	-100	0	230	101300000	1000	0	0	-1	0
15430603	9494	0	0	-100	0	230	101300000	1000	0	0	-1	0
15443163	9519	3	0	-100	0	230	101300000	1000	0	0	-1	0
15455723	9494	3	0	-100	0	230	101300000	1000	0	0	-1	0
15468283	9494	2	0	-100	0	230	101300000	1000	0	0	-1	0
15480843	9509	0	0	-100	0	230	101300000	1000	0	0	-1	0
15493403	9494	0	0	-100	0	230	101300000	1000	0	0	-1	0
15505963	9496	0	0	-100	0	230	101300000	1000	0	0	-1	0
15518523	9496	0	0	-100	0	230	101300000	1000	0	0	-1	0
15531083	9501	0	0	-100	0	230	101300000	1000	0	0	-1	0
15543643	9492	0	0	-100	0	230	101300000	1000	0	0	-1	0
15556203	9489	0	0	-100	0	230	101300000	1000	0	0	-1	0
15568763	9494	0	0	-100	0	230	101300000	1000	0	0	-1	0
15581323	9499	3	0	-100	0	230	101300000	1000	0	0	-1	0
15593883	9499	3	0	-100	0	230	101300000	1000	0	0	-1	0
15606443	9497	4	0	-100	0	230	101300000	1000	0	0	-1	0
15619004	9502	0	0	-100	0	230	101300000	1000	0	0	-1	0
15631563	9509	0	0	-100	0	230	101300000	1000	0	0	-1	0
15644123	9501	0	0	-100	0	230	101300000	1000	0	0	-1	0
15656683	9496	0	0	-100	0	230	101300000	1000	0	0	-1	0
15669243	9506	0	0	-100	0	230	101300000	1000	0	0	-1	0
15681803	9496	0	0	-100	0	230	101300000	1000	0	0	-1	0
15694363	9496	0	0	-100	0	230	101300000	1000	0	0	-1	0
15706923	9497	0	0	-100	0	230	101300000	1000	0	0	-1	0
15719483	9496	0	0	-100	0	230	101300000	1000	0	0	-1	0
15732043	9496	0	0	-100	0	230	101300000	1000	0	0	-1	0
15744603	9499	0	0	-100	0	230	101300000	1000	0	0	-1	0
15757163	9504	0	0	-100	0	230	101300000	1000	0	0	-1	0
15769723	9499	4	0	-100	0	230	101300000	1000	0	0	-1	0
15782283	9504	4	0	-100	0	230	101300000	1000	0	0	-1	0
15794843	9499	3	0	-100	0	230	101300000	1000	0	0	-1	0
15807403	9492	4	0	-100	0	230	101300000	1000	0	0	-1	0
15819963	9502	2	0	-100	0	230	101300000	1000	0	0	-1	0
15832523	9494	4	0	-100	0	230	101300000	1000	0	0	-1	0
15845083	9497	4	0	-100	0	230	101300000	1000	0	0	-1	0
15857643	9489	0	0	-100	0	230	101300000	1000	0	0	-1	0
15870203	9499	0	0	-100	0	230	101300000	1000	0	0	-1	0
15882763	9497	0	0	-100	0	230	101300000	1000	0	0	-1	0
15895323	9499	0	0	-100	0	230	101300000	1000	0	0	-1	0
15907883	9494	1	0	-100	0	230	101300000	1000	0	0	-1	0
15920443	9499	4	0	-100	0	230	101300000	1000	0	0	-1	0
15933004	9504	0	0	-100	0	230	101300000	1000	0	0	-1	0
15945563	9497	3	0	-100	0	230	101300000	1000	0	0	-1	0
15958123	9499	3	0	-100	0	230	101300000	1000	0	0	-1	0
15970683	9492	0	0	-100	0	230	101300000	1000	0	0	-1	0
15983243	9497	1	0	-100	0	230	101300000	1000	0	0	-1	0
15995803	9497	0	0	-100	0	230	101300000	1000	0	0	-1	0
16008363	9501	0	0	-100	0	230	101300000	1000	0	0	-1	0
16020923	9506	0	0	-100	0	230	101300000	1000	0	0	-1	0
16033483	9507	0	0	-100	0	230	101300000	1000	0	0	-1	0
16046043	9501	0	0	-100	0	230	101300000	1000	0	0	-1	0
16058603	9501	0	0	-100	0	230	101300000	1000	0	0	-1	0
16071163	9514	0	0	-100	0	230	101300000	1000	0	0	-1	0
16083723	9504	0	0	-100	0	230	101300000	1000	0	0	-1	0
16096283	9497	0	0	-100	0	230	101300000	1000	0	0	-1	0
16108843	9494	0	0	-100	0	230	101300000	1000	0	0	-1	0
16121403	9489	0	0	-100	0	230	101300000	1000	0	0	-1	0
16133963	9494	4	0	-100	0	230	101300000	1000	0	0	-1	0
16146523	9499	4	0	-100	0	230	101300000	1000	0	0	-1	0
16159083	9499	1	0	-100	0	230	101300000	1000	0	0	-1	0
16171643	9487	1	0	-100	0	230	101300000	1000	0	0	-1	0
16184203	9494	1	0	-100	0	230	101300000	1000	0	0	-1	0
16196763	9502	0	0	-100	0	230	101300000	1000	0	0	-1	0
16209323	9499	1	0	-100	0	230	101300000	1000	0	0	-1	0
16221883	9499	0	0	-100	0	230	101300000	1000	0	0	-1	0
16234443	9504	0	0	-100	0	230	101300000	1000	0	0	-1	0
16247004	9506	1	0	-100	0	230	101300000	1000	0	0	-1	0
16259563	9499	0	0	-100	0	230	101300000	1000	0	0	-1	0
16272123	9499	0	0	-100	0	230	101300000	1000	0	0	-1	0
16284683	9504	0	0	-100	0	230	101300000	1000	0	0	-1	0
16297243	9504	0	0	-100	0	230	101300000	1000	0	0	-1	0
16309803	9501	0	0	-100	0	230	101300000	1000	0	0	-1	0
16322363	9506	0	0	-100	0	230	101300000	1000	0	0	-1	0
16334923	9501	0	0	-100	0	230	101300000	1000	0	0	-1	0
16347483	9499	0	0	-100	0	230	101300000	1000	0	0	-1	0
16422843	9494	0	0	-100	0	230	101300000	1000	0	0	-1	0
16435403	9499	4	0	-100	0	230	101300000	1000	0	0	-1	0
16447963	9496	4	0	-100	0	230	101300000	1000	0	0	-1	0
16460523	9494	3	0	-100	0	230	101300000	1000	0	0	-1	0
16473083	9497	1	0	-100	0	230	101300000	1000	0	0	-1	0
16485643	9504	0	0	-100	0	230	101300000	1000	0	0	-1	0
16498203	9494	0	0	-100	0	230	101300000	1000	0	0	-1	0
16510763	9504	0	0	-100	0	230	101300000	1000	0	0	-1	0
16523323	9492	0	0	-100	0	230	101300000	1000	0	0	-1	0
16535883	9499	4	0	-100	0	230	101300000	1000	0	0	-1	0
16548443	9504	2	0	-100	0	230	101300000	1000	0	0	-1	0
16623803	9504	0	0	-100	0	230	101300000	1000	0	0	-1	0
16636363	9499	0	0	-100	0	230	101300000	1000	0	0	-1	0
16648923	9497	4	0	-100	0	230	101300000	1000	0	0	-1	0
16661483	9499	2	0	-100	0	230	101300000	1000	0	0	-1	0
16674043	9509	0	0	-100	0	230	101300000	1000	0	0	-1	0
16686603	9501	0	0	-100	0	230	101300000	1000	0	0	-1	0
16699163	9514	0	0	-100	0	230	101300000	1000	0	0	-1	0
16711723	9489	0	0	-100	0	230	101300000	1000	0	0	-1	0
16724283	9492	5	0	-100	0	230	101300000	1000	0	0	-1	0
16736843	9499	1	0	-100	0	230	101300000	1000	0	0	-1	0
16749403	9506	0	0	-100	0	230	101300000	1000	0	0	-1	0
16761963	9509	0	0	-100	0	230	101300000	1000	0	0	-1	0
16774523	9499	0	0	-100	0	230	101300000	1000	0	0	-1	0
16787083	9494	0	0	-100	0	230	101300000	1000	0	0	-1	0
16799643	9492	0	0	-100	0	230	101300000	1000	0	0	-1	0
16812203	9497	3	0	-100	0	230	101300000	1000	0	0	-1	0
16824763	9506	0	0	-100	0	230	101300000	1000	0	0	-1	0
16837323	9501	0	0	-100	0	230	101300000	1000	0	0	-1	0
16849883	9489	0	0	-100	0	230	101300000	1000	0	0	-1	0
16862443	9499	2	0	-100	0	230	101300000	1000	0	0	-1	0
16875004	9504	3	0	-100	0	230	101300000	1000	0	0	-1	0
16887563	9499	0	0	-100	0	230	101300000	1000	0	0	-1	0
16900123	9501	0	0	-100	0	230	101300000	1000	0	0	-1	0
16912683	9494	0	0	-100	0	230	101300000	1000	0	0	-1	0
16925243	9499	2	0	-100	0	230	101300000	1000	0	0	-1	0
16937803	9509	0	0	-100	0	230	101300000	1000	0	0	-1	0
16950363	9501	0	0	-100	0	230	101300000	1000	0	0	-1	0
16962923	9496	0	0	-100	0	230	101300000	1000	0	0	-1	0
16975483	9499	3	0	-100	0	230	101300000	1000	0	0	-1	0
16988043	9494	2	0	-100	0	230	101300000	1000	0	0	-1	0
17000603	9504	0	0	-100	0	230	101300000	1000	0	0	-1	0
17013163	9509	0	0	-100	0	230	101300000	1000	0	0	-1	0
17025723	9509	0	0	-100	0	230	101300000	1000	0	0	-1	0
17038283	9504	0	0	-100	0	230	101300000	1000	0	0	-1	0
17050843	9492	0	0	-100	0	230	101300000	1000	0	0	-1	0
17063403	9499	2	0	-100	0	230	101300000	1000	0	0	-1	0
17075963	9497	1	0	-100	0	230	101300000	1000	0	0	-1	0
17088523	9496	0	0	-100	0	230	101300000	1000	0	0	-1	0
17101083	9499	0	0	-100	0	230	101300000	1000	0	0	-1	0
17113643	9502	3	0	-100	0	230	101300000	1000	0	0	-1	0
17126203	9492	2	0	-100	0	230	101300000	1000	0	0	-1	0
17138763	9491	0	0	-100	0	230	101300000	1000	0	0	-1	0
17151323	9504	0	0	-100	0	230	101300000	1000	0	0	-1	0
17163883	9499	0	0	-100	0	230	101300000	1000	0	0	-1	0
17176443	9497	3	0	-100	0	230	101300000	1000	0	0	-1	0
17189004	9501	0	0	-100	0	230	101300000	1000	0	0	-1	0
17201563	9496	0	0	-100	0	230	101300000	1000	0	0	-1	0
17214123	9497	0	0	-100	0	230	101300000	1000	0	0	-1	0
17226683	9499	4	0	-100	0	230	101300000	1000	0	0	-1	0
17239243	9502	1	0	-100	0	230	101300000	1000	0	0	-1	0
17251803	9504	0	0	-100	0	230	101300000	1000	0	0	-1	0
17264363	9504	0	0	-100	0	230	101300000	1000	0	0	-1	0
17276923	9501	0	0	-100	0	230	101300000	1000	0	0	-1	0
17289483	9497	0	0	-100	0	230	101300000	1000	0	0	-1	0
17302043	9504	4	0	-100	0	230	101300000	1000	0	0	-1	0
17314603	9502	3	0	-100	0	230	101300000	1000	0	0	-1	0
17327163	9506	1	0	-100	0	230	101300000	1000	0	0	-1	0
17339723	9501	0	0	-100	0	230	101300000	1000	0	0	-1	0
17352283	9506	0	0	-100	0	230	101300000	1000	0	0	-1	0
17364843	9501	0	0	-100	0	230	101300000	1000	0	0	-1	0
17377403	9496	0	0	-100	0	230	101300000	1000	0	0	-1	0
17389963	9504	0	0	-100	0	230	101300000	1000	0	0	-1	0
17402523	9502	4	0	-100	0	230	101300000	1000	0	0	-1	0
17415083	9502	2	0	-100	0	230	101300000	1000	0	0	-1	0
17427643	9492	0	0	-100	0	230	101300000	1000	0	0	-1	0
17440203	9501	0	0	-100	0	230	101300000	1000	0	0	-1	0
17452763	9499	0	0	-100	0	230	101300000	1000	0	0	-1	0
17465323	9494	0	0	-100	0	230	101300000	1000	0	0	-1	0
17477883	9496	0	0	-100	0	230	101300000	1000	0	0	-1	0
17490443	9497	2	0	-100	0	230	101300000	1000	0	0	-1	0
17503004	9504	3	0	-100	0	230	101300000	1000	0	0	-1	0
17515563	9501	0	0	-100	0	230	101300000	1000	0	0	-1	0
17528123	9497	0	0	-100	0	230	101300000	1000	0	0	-1	0
17540683	9491	0	0	-100	0	230	101300000	1000	0	0	-1	0
17553243	9494	4	0	-100	0	230	101300000	1000	0	0	-1	0
17565803	9492	1	0	-100	0	230	101300000	1000	0	0	-1	0
17578363	9506	0	0	-100	0	230	101300000	1000	0	0	-1	0
17590923	9494	0	0	-100	0	230	101300000	1000	0	0	-1	0
17603483	9494	1	0	-100	0	230	101300000	1000	0	0	-1	0
17616043	9494	0	0	-100	0	230	101300000	1000	0	0	-1	0
17628603	9494	0	0	-100	0	230	101300000	1000	0	0	-1	0
17641163	9504	2	0	-100	0	230	101300000	1000	0	0	-1	0
17653723	9499	0	0	-100	0	230	101300000	1000	0	0	-1	0
17666283	9501	0	0	-100	0	230	101300000	1000	0	0	-1	0
17678843	9499	4	0	-100	0	230	101300000	1000	0	0	-1	0
17691403	9499	0	0	-100	0	230	101300000	1000	0	0	-1	0
17703963	9501	0	0	-100	0	230	101300000	1000	0	0	-1	0
17716523	9489	0	0	-100	0	230	101300000	1000	0	0	-1	0
17729083	9501	4	0	-100	0	230	101300000	1000	0	0	-1	0
17741643	9504	0	0	-100	0	230	101300000	1000	0	0	-1	0
17754203	9494	0	0	-100	0	230	101300000	1000	0	0	-1	0
17766763	9497	4	0	-100	0	230	101300000	1000	0	0	-1	0
17779323	9502	0	0	-100	0	230	101300000	1000	0	0	-1	0
17791883	9506	0	0	-100	0	230	101300000	1000	0	0	-1	0
17804443	9497	0	0	-100	0	230	101300000	1000	0	0	-1	0
17817004	9504	0	0	-100	0	230	101300000	1000	0	0	-1	0
17829563	9499	2	0	-100	0	230	101300000	1000	0	0	-1	0
17842123	9501	0	0	-100	0	230	101300000	1000	0	0	-1	0
17854683	9499	0	0	-100	0	230	101300000	1000	0	0	-1	0
17867243	9497	2	0	-100	0	230	101300000	1000	0	0	-1	0
17879803	9497	3	0	-100	0	230	101300000	1000	0	0	-1	0
17892363	9501	0	0	-100	0	230	101300000	1000	0	0	-1	0
17904923	9501	0	0	-100	0	230	101300000	1000	0	0	-1	0
17917483	9494	0	0	-100	0	230	101300000	1000	0	0	-1	0
17930043	9494	5	0	-100	0	230	101300000	1000	0	0	-1	0
17942603	9492	1	0	-100	0	230	101300000	1000	0	0	-1	0
17955163	9509	0	0	-100	0	230	101300000	1000	0	0	-1	0
17967723	9501	0	0	-100	0	230	101300000	1000	0	0	-1	0
17980283	9506	0	0	-100	0	230	101300000	1000	0	0	-1	0
17992843	9501	0	0	-100	0	230	101300000	1000	0	0	-1	0
18005403	9491	0	0	-100	0	230	101300000	1000	0	0	-1	0
18017963	9494	0	0	-100	0	230	101300000	1000	0	0	-1	0
18030523	9494	0	0	-100	0	230	101300000	1000	0	0	-1	0
18043083	9492	0	0	-100	0	230	101300000	1000	0	0	-1	0
18055643	9494	3	0	-100	0	230	101300000	1000	0	0	-1	0
18068203	9489	4	0	-100	0	230	101300000	1000	0	0	-1	0
18080763	9491	1	0	-100	0	230	101300000	1000	0	0	-1	0
18093323	9496	0	0	-100	0	230	101300000	1000	0	0	-1	0
18105883	9501	0	0	-100	0	230	101300000	1000	0	0	-1	0
18118443	9502	0	0	-100	0	230	101300000	1000	0	0	-1	0
18131004	9504	2	0	-100	0	230	101300000	1000	0	0	-1	0
18143563	9496	0	0	-100	0	230	101300000	1000	0	0	-1	0
18156123	9501	0	0	-100	0	230	101300000	1000	0	0	-1	0
18168683	9494	0	0	-100	0	230	101300000	1000	0	0	-1	0
18181243	9499	0	0	-100	0	230	101300000	1000	0	0	-1	0
18193803	9497	0	0	-100	0	230	101300000	1000	0	0	-1	0
18206363	9491	2	0	-100	0	230	101300000	1000	0	0	-1	0
18218923	9504	4	0	-100	0	230	101300000	1000	0	0	-1	0
18231483	9499	3	0	-100	0	230	101300000	1000	0	0	-1	0
18244043	9489	1	0	-100	0	230	101300000	1000	0	0	-1	0
18256603	9499	0	0	-100	0	230	101300000	1000	0	0	-1	0
18269163	9509	0	0	-100	0	230	101300000	1000	0	0	-1	0
18281723	9501	0	0	-100	0	230	101300000	1000	0	0	-1	0
18294283	9494	0	0	-100	0	230	101300000	1000	0	0	-1	0
18306843	9501	0	0	-100	0	230	101300000	1000	0	0	-1	0
18319403	9501	0	0	-100	0	230	101300000	1000	0	0	-1	0
18331963	9501	0	0	-100	0	230	101300000	1000	0	0	-1	0
18344523	9496	0	0	-100	0	230	101300000	1000	0	0	-1	0
18357083	9499	0	0	-100	0	230	101300000	1000	0	0	-1	0
18369643	9506	0	0	-100	0	230	101300000	1000	0	0	-1	0
18382203	9504	0	0	-100	0	230	101300000	1000	0	0	-1	0
18394763	9502	0	0	-100	0	230	101300000	1000	0	0	-1	0
18407323	9499	2	0	-100	0	230	101300000	1000	0	0	-1	0
18419883	9497	3	0	-100	0	230	101300000	1000	0	0	-1	0
18432443	9491	0	0	-100	0	230	101300000	1000	0	0	-1	0
18445004	9514	0	0	-100	0	230	101300000	1000	0	0	-1	0
18457563	9506	0	0	-100	0	230	101300000	1000	0	0	-1	0
18470123	9501	0	0	-100	0	230	101300000	1000	0	0	-1	0
18482683	9494	0	0	-100	0	230	101300000	1000	0	0	-1	0
18495243	9501	0	0	-100	0	230	101300000	1000	0	0	-1	0
18507803	9506	0	0	-100	0	230	101300000	1000	0	0	-1	0
18520363	9496	0	0	-100	0	230	101300000	1000	0	0	-1	0
18532923	9497	2	0	-100	0	230	101300000	1000	0	0	-1	0
18545483	9489	3	0	-100	0	230	101300000	1000	0	0	-1	0
18558043	9492	1	0	-100	0	230	101300000	1000	0	0	-1	0
18570603	9494	0	0	-100	0	230	101300000	1000	0	0	-1	0
18583163	9509	0	0	-100	0	230	101300000	1000	0	0	-1	0
18595723	9501	0	0	-100	0	230	101300000	1000	0	0	-1	0
18608283	9494	0	0	-100	0	230	101300000	1000	0	0	-1	0
18620843	9499	0	0	-100	0	230	101300000	1000	0	0	-1	0
18633403	9486	0	0	-100	0	230	101300000	1000	0	0	-1	0
18645963	9502	2	0	-100	0	230	101300000	1000	0	0	-1	0
18658523	9497	4	0	-100	0	230	101300000	1000	0	0	-1	0
18671083	9501	0	0	-100	0	230	101300000	1000	0	0	-1	0
18683643	9502	4	0	-100	0	230	101300000	1000	0	0	-1	0
18696203	9496	4	0	-100	0	230	101300000	1000	0	0	-1	0
18708763	9497	4	0	-100	0	230	101300000	1000	0	0	-1	0
18721323	9502	3	0	-100	0	230	101300000	1000	0	0	-1	0
18733883	9489	0	0	-100	0	230	101300000	1000	0	0	-1	0
18746443	9496	0	0	-100	0	230	101300000	1000	0	0	-1	0
18759004	9511	0	0	-100	0	230	101300000	1000	0	0	-1	0
18771563	9492	0	0	-100	0	230	101300000	1000	0	0	-1	0
18784123	9506	0	0	-100	0	230	101300000	1000	0	0	-1	0
18796683	9501	0	0	-100	0	230	101300000	1000	0	0	-1	0
18809243	9491	0	0	-100	0	230	101300000	1000	0	0	-1	0
18821803	9504	0	0	-100	0	230	101300000	1000	0	0	-1	0
18834363	9494	0	0	-100	0	230	101300000	1000	0	0	-1	0
18846923	9491	0	0	-100	0	230	101300000	1000	0	0	-1	0
18859483	9499	0	0	-100	0	230	101300000	1000	0	0	-1	0
18872043	9504	0	0	-100	0	230	101300000	1000	0	0	-1	0
18884603	9501	0	0	-100	0	230	101300000	1000	0	0	-1	0
18897163	9509	0	0	-100	0	230	101300000	1000	0	0	-1	0
18909723	9502	0	0	-100	0	230	101300000	1000	0	0	-1	0
18922283	9504	0	0	-100	0	230	101300000	1000	0	0	-1	0
18934843	9504	0	0	-100	0	230	101300000	1000	0	0	-1	0
18947403	9504	0	0	-100	0	230	101300000	1000	0	0	-1	0
18959963	9501	0	0	-100	0	230	101300000	1000	0	0	-1	0
18972523	9492	0	0	-100	0	230	101300000	1000	0	0	-1	0
18985083	9492	0	0	-100	0	230	101300000	1000	0	0	-1	0
18997643	9486	0	0	-100	0	230	101300000	1000	0	0	-1	0
19010203	9487	0	0	-100	0	230	101300000	1000	0	0	-1	0
19022763	9499	4	0	-100	0	230	101300000	1000	0	0	-1	0
19035323	9499	4	0	-100	0	230	101300000	1000	0	0	-1	0
19047883	9497	4	0	-100	0	230	101300000	1000	0	0	-1	0
19060443	9502	2	0	-100	0	230	101300000	1000	0	0	-1	0
19073004	9501	0	0	-100	0	230	101300000	1000	0	0	-1	0
19085563	9499	1	0	-100	0	230	101300000	1000	0	0	-1	0
19098123	9504	1	0	-100	0	230	101300000	1000	0	0	-1	0
19110683	9497	0	0	-100	0	230	101300000	1000	0	0	-1	0
19123243	9504	0	0	-100	0	230	101300000	1000	0	0	-1	0
19135803	9504	0	0	-100	0	230	101300000	1000	0	0	-1	0
19148363	9514	0	0	-100	0	230	101300000	1000	0	0	-1	0
19160923	9506	0	0	-100	0	230	101300000	1000	0	0	-1	0
19173483	9501	0	0	-100	0	230	101300000	1000	0	0	-1	0
19186043	9496	0	0	-100	0	230	101300000	1000	0	0	-1	0
19198603	9501	0	0	-100	0	230	101300000	1000	0	0	-1	0
19211163	9519	0	0	-100	0	230	101300000	1000	0	0	-1	0
19223723	9501	0	0	-100	0	230	101300000	1000	0	0	-1	0
19236283	9496	0	0	-100	0	230	101300000	1000	0	0	-1	0
19248843	9499	0	0	-100	0	230	101300000	1000	0	0	-1	0
19261403	9494	0	0	-100	0	230	101300000	1000	0	0	-1	0
19273963	9492	0	0	-100	0	230	101300000	1000	0	0	-1	0
19286523	9494	0	0	-100	0	230	101300000	1000	0	0	-1	0
19311643	9486	0	0	-100	0	230	101300000	1000	0	0	-1	0
19324203	9494	3	0	-100	0	230	101300000	1000	0	0	-1	0
19336763	9489	2	0	-100	0	230	101300000	1000	0	0	-1	0
19349323	9494	1	0	-100	0	230	101300000	1000	0	0	-1	0
19361883	9496	1	0	-100	0	230	101300000	1000	0	0	-1	0
19374443	9499	0	0	-100	0	230	101300000	1000	0	0	-1	0
19387004	9496	2	0	-100	0	230	101300000	1000	0	0	-1	0
19399563	9501	0	0	-100	0	230	101300000	1000	0	0	-1	0
19412123	9506	0	0	-100	0	230	101300000	1000	0	0	-1	0
19424683	9499	0	0	-100	0	230	101300000	1000	0	0	-1	0
19437243	9494	4	0	-100	0	230	101300000	1000	0	0	-1	0
19449803	9492	2	0	-100	0	230	101300000	1000	0	0	-1	0
19462363	9501	0	0	-100	0	230	101300000	1000	0	0	-1	0
19537723	9501	0	0	-100	0	230	101300000	1000	0	0	-1	0
19550283	9499	0	0	-100	0	230	101300000	1000	0	0	-1	0
19562843	9494	4	0	-100	0	230	101300000	1000	0	0	-1	0
19575403	9504	0	0	-100	0	230	101300000	1000	0	0	-1	0
19587963	9496	0	0	-100	0	230	101300000	1000	0	0	-1	0
19600523	9494	0	0	-100	0	230	101300000	1000	0	0	-1	0
19613083	9497	1	0	-100	0	230	101300000	1000	0	0	-1	0
19625643	9502	2	0	-100	0	230	101300000	1000	0	0	-1	0
19638203	9509	0	0	-100	0	230	101300000	1000	0	0	-1	0
19650763	9506	0	0	-100	0	230	101300000	1000	0	0	-1	0
19663323	9501	0	0	-100	0	230	101300000	1000	0	0	-1	0
19675883	9494	0	0	-100	0	230	101300000	1000	0	0	-1	0
19688443	9499	4	0	-100	0	230	101300000	1000	0	0	-1	0
19701004	9506	0	0	-100	0	230	101300000	1000	0	0	-1	0
19713563	9496	4	0	-100	0	230	101300000	1000	0	0	-1	0
19726123	9492	4	0	-100	0	230	101300000	1000	0	0	-1	0
19738683	9494	4	0	-100	0	230	101300000	1000	0	0	-1	0
19751243	9494	3	0	-100	0	230	101300000	1000	0	0	-1	0
19763803	9499	2	0	-100	0	230	101300000	1000	0	0	-1	0
19776363	9497	1	0	-100	0	230	101300000	1000	0	0	-1	0
19788923	9501	1	0	-100	0	230	101300000	1000	0	0	-1	0
19801483	9509	0	0	-100	0	230	101300000	1000	0	0	-1	0
19814043	9496	0	0	-100	0	230	101300000	1000	0	0	-1	0
19826603	9499	0	0	-100	0	230	101300000	1000	0	0	-1	0
19839163	9511	0	0	-100	0	230	101300000	1000	0	0	-1	0
19851723	9496	0	0	-100	0	230	101300000	1000	0	0	-1	0
19864283	9499	0	0	-100	0	230	101300000	1000	0	0	-1	0
19876843	9497	0	0	-100	0	230	101300000	1000	0	0	-1	0
19889403	9489	0	0	-100	0	230	101300000	1000	0	0	-1	0
19901963	9501	2	0	-100	0	230	101300000	1000	0	0	-1	0
19914523	9497	0	0	-100	0	230	101300000	1000	0	0	-1	0
19927083	9499	5	0	-100	0	230	101300000	1000	0	0	-1	0
19939643	9489	3	0	-100	0	230	101300000	1000	0	0	-1	0
19952203	9489	3	0	-100	0	230	101300000	1000	0	0	-1	0
19964763	9492	2	0	-100	0	230	101300000	1000	0	0	-1	0
19977323	9497	0	0	-100	0	230	101300000	1000	0	0	-1	0
19989883	9499	0	0	-100	0	230	101300000	1000	0	0	-1	0
20002443	9494	2	0	-100	0	230	101300000	1000	0	0	-1	0
20015004	9506	0	0	-100	0	230	101300000	1000	0	0	-1	0
20027563	9499	3	0	-100	0	230	101300000	1000	0	0	-1	0
20040123	9497	4	0	-100	0	230	101300000	1000	0	0	-1	0
20052683	9504	2	0	-100	0	230	101300000	1000	0	0	-1	0
20065243	9494	2	0	-100	0	230	101300000	1000	0	0	-1	0
20077803	9499	1	0	-100	0	230	101300000	1000	0	0	-1	0
20090363	9499	1	0	-100	0	230	101300000	1000	0	0	-1	0
20102923	9502	0	0	-100	0	230	101300000	1000	0	0	-1	0
20115483	9504	0	0	-100	0	230	101300000	1000	0	0	-1	0
20128043	9514	0	0	-100	0	230	101300000	1000	0	0	-1	0
20140603	9506	0	0	-100	0	230	101300000	1000	0	0	-1	0
20153163	9511	0	0	-100	0	230	101300000	1000	0	0	-1	0
20165723	9509	0	0	-100	0	230	101300000	1000	0	0	-1	0
20178283	9504	0	0	-100	0	230	101300000	1000	0	0	-1	0
20190843	9504	0	0	-100	0	230	101300000	1000	0	0	-1	0
20203403	9494	0	0	-100	0	230	101300000	1000	0	0	-1	0
20215963	9514	0	0	-100	0	230	101300000	1000	0	0	-1	0
20228523	9494	1	0	-100	0	230	101300000	1000	0	0	-1	0
20241083	9497	3	0	-100	0	230	101300000	1000	0	0	-1	0
20253643	9489	3	0	-100	0	230	101300000	1000	0	0	-1	0
20266203	9501	2	0	-100	0	230	101300000	1000	0	0	-1	0
20278763	9494	4	0	-100	0	230	101300000	1000	0	0	-1	0
20291323	9494	4	0	-100	0	230	101300000	1000	0	0	-1	0
20303883	9502	5	0	-100	0	230	101300000	1000	0	0	-1	0
20316443	9497	2	0	-100	0	230	101300000	1000	0	0	-1	0
20329004	9504	0	0	-100	0	230	101300000	1000	0	0	-1	0
20341563	9494	0	0	-100	0	230	101300000	1000	0	0	-1	0
20354123	9492	0	0	-100	0	230	101300000	1000	0	0	-1	0
20366683	9497	0	0	-100	0	230	101300000	1000	0	0	-1	0
20379243	9496	0	0	-100	0	230	101300000	1000	0	0	-1	0
20391803	9486	0	0	-100	0	230	101300000	1000	0	0	-1	0
20404363	9497	4	0	-100	0	230	101300000	1000	0	0	-1	0
20416923	9497	4	0	-100	0	230	101300000	1000	0	0	-1	0
20429483	9494	4	0	-100	0	230	101300000	1000	0	0	-1	0
20442043	9499	4	0	-100	0	230	101300000	1000	0	0	-1	0
20454603	9499	4	0	-100	0	230	101300000	1000	0	0	-1	0
20467163	9506	4	0	-100	0	230	101300000	1000	0	0	-1	0
20479723	9497	4	0	-100	0	230	101300000	1000	0	0	-1	0
20492283	9502	3	0	-100	0	230	101300000	1000	0	0	-1	0
20504843	9494	3	0	-100	0	230	101300000	1000	0	0	-1	0
20517403	9497	1	0	-100	0	230	101300000	1000	0	0	-1	0
20529963	9494	0	0	-100	0	230	101300000	1000	0	0	-1	0
20542523	9494	0	0	-100	0	230	101300000	1000	0	0	-1	0
20555083	9497	0	0	-100	0	230	101300000	1000	0	0	-1	0
20567643	9509	0	0	-100	0	230	101300000	1000	0	0	-1	0
20580203	9501	0	0	-100	0	230	101300000	1000	0	0	-1	0
20592763	9499	0	0	-100	0	230	101300000	1000	0	0	-1	0
20605323	9504	0	0	-100	0	230	101300000	1000	0	0	-1	0
20617883	9496	0	0	-100	0	230	101300000	1000	0	0	-1	0
20630443	9501	0	0	-100	0	230	101300000	1000	0	0	-1	0
20643004	9504	0	0	-100	0	230	101300000	1000	0	0	-1	0
20655563	9502	0	0	-100	0	230	101300000	1000	0	0	-1	0
20668123	9499	0	0	-100	0	230	101300000	1000	0	0	-1	0
20680683	9497	2	0	-100	0	230	101300000	1000	0	0	-1	0
20693243	9496	6	0	-100	0	230	101300000	1000	0	0	-1	0
20705803	9499	3	0	-100	0	230	101300000	1000	0	0	-1	0
20718363	9494	1	0	-100	0	230	101300000	1000	0	0	-1	0
20730923	9504	0	0	-100	0	230	101300000	1000	0	0	-1	0
20743483	9496	0	0	-100	0	230	101300000	1000	0	0	-1	0
20756043	9506	0	0	-100	0	230	101300000	1000	0	0	-1	0
20768603	9494	0	0	-100	0	230	101300000	1000	0	0	-1	0
20781163	9506	0	0	-100	0	230	101300000	1000	0	0	-1	0
20793723	9497	0	0	-100	0	230	101300000	1000	0	0	-1	0
20806283	9494	0	0	-100	0	230	101300000	1000	0	0	-1	0
20818843	9494	0	0	-100	0	230	101300000	1000	0	0	-1	0
20831403	9492	0	0	-100	0	230	101300000	1000	0	0	-1	0
20843963	9496	0	0	-100	0	230	101300000	1000	0	0	-1	0
20856523	9501	1	0	-100	0	230	101300000	1000	0	0	-1	0
20869083	9494	0	0	-100	0	230	101300000	1000	0	0	-1	0
20881643	9487	0	0	-100	0	230	101300000	1000	0	0	-1	0
20894203	9499	4	0	-100	0	230	101300000	1000	0	0	-1	0
20906763	9494	5	0	-100	0	230	101300000	1000	0	0	-1	0
20919323	9497	2	0	-100	0	230	101300000	1000	0	0	-1	0
20931883	9499	0	0	-100	0	230	101300000	1000	0	0	-1	0
20944443	9496	0	0	-100	0	230	101300000	1000	0	0	-1	0
20957004	9499	0	0	-100	0	230	101300000	1000	0	0	-1	0
20969563	9496	0	0	-100	0	230	101300000	1000	0	0	-1	0
20982123	9497	0	0	-100	0	230	101300000	1000	0	0	-1	0
20994683	9497	3	0	-100	0	230	101300000	1000	0	0	-1	0
21007243	9501	0	0	-100	0	230	101300000	1000	0	0	-1	0
21019803	9494	0	0	-100	0	230	101300000	1000	0	0	-1	0
21032363	9497	0	0	-100	0	230	101300000	1000	0	0	-1	0
21044923	9504	0	0	-100	0	230	101300000	1000	0	0	-1	0
21057483	9506	0	0	-100	0	230	101300000	1000	0	0	-1	0
21070043	9499	4	0	-100	0	230	101300000	1000	0	0	-1	0
21082603	9509	0	0	-100	0	230	101300000	1000	0	0	-1	0
21095163	9504	0	0	-100	0	230	101300000	1000	0	0	-1	0
21107723	9499	4	0	-100	0	230	101300000	1000	0	0	-1	0
21120283	9506	0	0	-100	0	230	101300000	1000	0	0	-1	0
21132843	9501	0	0	-100	0	230	101300000	1000	0	0	-1	0
21145403	9499	0	0	-100	0	230	101300000	1000	0	0	-1	0
21157963	9494	2	0	-100	0	230	101300000	1000	0	0	-1	0
21170523	9511	0	0	-100	0	230	101300000	1000	0	0	-1	0
21183083	9499	0	0	-100	0	230	101300000	1000	0	0	-1	0
21195643	9496	0	0	-100	0	230	101300000	1000	0	0	-1	0
21208203	9496	0	0	-100	0	230	101300000	1000	0	0	-1	0
21220763	9501	0	0	-100	0	230	101300000	1000	0	0	-1	0
21233323	9499	0	0	-100	0	230	101300000	1000	0	0	-1	0
21245883	9499	0	0	-100	0	230	101300000	1000	0	0	-1	0
21258443	9506	0	0	-100	0	230	101300000	1000	0	0	-1	0
21271004	9501	0	0	-100	0	230	101300000	1000	0	0	-1	0
21283563	9501	0	0	-100	0	230	101300000	1000	0	0	-1	0
21296123	9496	0	0	-100	0	230	101300000	1000	0	0	-1	0
21308683	9496	0	0	-100	0	230	101300000	1000	0	0	-1	0
21321243	9491	0	0	-100	0	230	101300000	1000	0	0	-1	0
21333803	9506	0	0	-100	0	230	101300000	1000	0	0	-1	0
21346363	9489	0	0	-100	0	230	101300000	1000	0	0	-1	0
21358923	9494	6	0	-100	0	230	101300000	1000	0	0	-1	0
21371483	9492	2	0	-100	0	230	101300000	1000	0	0	-1	0
21384043	9499	0	0	-100	0	230	101300000	1000	0	0	-1	0
21396603	9504	0	0	-100	0	230	101300000	1000	0	0	-1	0
21409163	9514	0	0	-100	0	230	101300000	1000	0	0	-1	0
21421723	9494	0	0	-100	0	230	101300000	1000	0	0	-1	0
21434283	9491	0	0	-100	0	230	101300000	1000	0	0	-1	0
21446843	9499	4	0	-100	0	230	101300000	1000	0	0	-1	0
21459403	9497	0	0	-100	0	230	101300000	1000	0	0	-1	0
21471963	9497	2	0	-100	0	230	101300000	1000	0	0	-1	0
21484523	9506	0	0	-100	0	230	101300000	1000	0	0	-1	0
21497083	9501	0	0	-100	0	230	101300000	1000	0	0	-1	0
21509643	9499	0	0	-100	0	230	101300000	1000	0	0	-1	0
21522203	9497	0	0	-100	0	230	101300000	1000	0	0	-1	0
21534763	9494	4	0	-100	0	230	101300000	1000	0	0	-1	0
21547323	9497	0	0	-100	0	230	101300000	1000	0	0	-1	0
21559883	9506	0	0	-100	0	230	101300000	1000	0	0	-1	0
21572443	9499	0	0	-100	0	230	101300000	1000	0	0	-1	0
21585004	9499	0	0	-100	0	230	101300000	1000	0	0	-1	0
21597563	9511	0	0	-100	0	230	101300000	1000	0	0	-1	0
21610123	9496	0	0	-100	0	230	101300000	1000	0	0	-1	0
21622683	9499	5	0	-100	0	230	101300000	1000	0	0	-1	0
21635243	9499	2	0	-100	0	230	101300000	1000	0	0	-1	0
21647803	9501	0	0	-100	0	230	101300000	1000	0	0	-1	0
21660363	9492	0	0	-100	0	230	101300000	1000	0	0	-1	0
21672923	9494	3	0	-100	0	230	101300000	1000	0	0	-1	0
21685483	9509	0	0	-100	0	230	101300000	1000	0	0	-1	0
21698043	9496	0	0	-100	0	230	101300000	1000	0	0	-1	0
21710603	9496	0	0	-100	0	230	101300000	1000	0	0	-1	0
21723163	9504	4	0	-100	0	230	101300000	1000	0	0	-1	0
21735723	9504	0	0	-100	0	230	101300000	1000	0	0	-1	0
21748283	9499	0	0	-100	0	230	101300000	1000	0	0	-1	0
21760843	9491	0	0	-100	0	230	101300000	1000	0	0	-1	0
21773403	9499	0	0	-100	0	230	101300000	1000	0	0	-1	0
21785963	9496	4	0	-100	0	230	101300000	1000	0	0	-1	0
21798523	9499	2	0	-100	0	230	101300000	1000	0	0	-1	0
21811083	9502	0	0	-100	0	230	101300000	1000	0	0	-1	0
21823643	9499	0	0	-100	0	230	101300000	1000	0	0	-1	0
21836203	9499	0	0	-100	0	230	101300000	1000	0	0	-1	0
21848763	9494	0	0	-100	0	230	101300000	1000	0	0	-1	0
21861323	9492	0	0	-100	0	230	101300000	1000	0	0	-1	0
21873883	9502	3	0	-100	0	230	101300000	1000	0	0	-1	0
21886443	9502	2	0	-100	0	230	101300000	1000	0	0	-1	0
21899004	9504	3	0	-100	0	230	101300000	1000	0	0	-1	0
21911563	9496	0	0	-100	0	230	101300000	1000	0	0	-1	0
21924123	9491	0	0	-100	0	230	101300000	1000	0	0	-1	0
21936683	9492	4	0	-100	0	230	101300000	1000	0	0	-1	0
21949243	9499	0	0	-100	0	230	101300000	1000	0	0	-1	0
21961803	9509	0	0	-100	0	230	101300000	1000	0	0	-1	0
21974363	9499	0	0	-100	0	230	101300000	1000	0	0	-1	0
21986923	9492	0	0	-100	0	230	101300000	1000	0	0	-1	0
21999483	9497	6	0	-100	0	230	101300000	1000	0	0	-1	0
22012043	9504	1	0	-100	0	230	101300000	1000	0	0	-1	0
22024603	9499	0	0	-100	0	230	101300000	1000	0	0	-1	0
22037163	9506	0	0	-100	0	230	101300000	1000	0	0	-1	0
22049723	9494	0	0	-100	0	230	101300000	1000	0	0	-1	0
22062283	9494	4	0	-100	0	230	101300000	1000	0	0	-1	0
22074843	9502	2	0	-100	0	230	101300000	1000	0	0	-1	0
22087403	9502	0	0	-100	0	230	101300000	1000	0	0	-1	0
22099963	9494	0	0	-100	0	230	101300000	1000	0	0	-1	0
22112523	9502	2	0	-100	0	230	101300000	1000	0	0	-1	0
22125083	9504	0	0	-100	0	230	101300000	1000	0	0	-1	0
22137643	9497	2	0	-100	0	230	101300000	1000	0	0	-1	0
22150203	9501	0	0	-100	0	230	101300000	1000	0	0	-1	0
22162763	9499	0	0	-100	0	230	101300000	1000	0	0	-1	0
22175323	9496	3	0	-100	0	230	101300000	1000	0	0	-1	0
22187883	9492	2	0	-100	0	230	101300000	1000	0	0	-1	0
22200443	9496	0	0	-100	0	230	101300000	1000	0	0	-1	0
22213004	9504	0	0	-100	0	230	101300000	1000	0	0	-1	0
22225563	9497	0	0	-100	0	230	101300000	1000	0	0	-1	0
22238123	9494	4	0	-100	0	230	101300000	1000	0	0	-1	0
22250683	9501	0	0	-100	0	230	101300000	1000	0	0	-1	0
22263243	9502	0	0	-100	0	230	101300000	1000	0	0	-1	0
22275803	9494	0	0	-100	0	230	101300000	1000	0	0	-1	0
22288363	9494	4	0	-100	0	230	101300000	1000	0	0	-1	0
22300923	9496	0	0	-100	0	230	101300000	1000	0	0	-1	0
22313483	9504	0	0	-100	0	230	101300000	1000	0	0	-1	0
22326043	9489	0	0	-100	0	230	101300000	1000	0	0	-1	0
22338603	9497	0	0	-100	0	230	101300000	1000	0	0	-1	0
22351163	9509	0	0	-100	0	230	101300000	1000	0	0	-1	0
22363723	9494	4	0	-100	0	230	101300000	1000	0	0	-1	0
22439083	9502	5	0	-100	0	230	101300000	1000	0	0	-1	0
22451643	9504	0	0	-100	0	230	101300000	1000	0	0	-1	0
22464203	9499	0	0	-100	0	230	101300000	1000	0	0	-1	0
22476763	9494	3	0	-100	0	230	101300000	1000	0	0	-1	0
22489323	9499	0	0	-100	0	230	101300000	1000	0	0	-1	0
22501883	9497	4	0	-100	0	230	101300000	1000	0	0	-1	0
22514443	9506	0	0	-100	0	230	101300000	1000	0	0	-1	0
22527004	9506	0	0	-100	0	230	101300000	1000	0	0	-1	0
22539563	9496	4	0	-100	0	230	101300000	1000	0	0	-1	0
22552123	9499	0	0	-100	0	230	101300000	1000	0	0	-1	0
22564683	9501	0	0	-100	0	230	101300000	1000	0	0	-1	0
22577243	9499	0	0	-100	0	230	101300000	1000	0	0	-1	0
22627483	9499	0	0	-100	0	230	101300000	1000	0	0	-1	0
22640043	9499	0	0	-100	0	230	101300000	1000	0	0	-1	0
22652603	9497	1	0	-100	0	230	101300000	1000	0	0	-1	0
22665163	9519	0	0	-100	0	230	101300000	1000	0	0	-1	0
22677723	9491	2	0	-100	0	230	101300000	1000	0	0	-1	0
22690283	9504	0	0	-100	0	230	101300000	1000	0	0	-1	0
22702843	9494	0	0	-100	0	230	101300000	1000	0	0	-1	0
22715403	9496	0	0	-100	0	230	101300000	1000	0	0	-1	0
22727963	9497	0	0	-100	0	230	101300000	1000	0	0	-1	0
22740523	9492	2	0	-100	0	230	101300000	1000	0	0	-1	0
22753083	9494	0	0	-100	0	230	101300000	1000	0	0	-1	0
22765643	9499	2	0	-100	0	230	101300000	1000	0	0	-1	0
22778203	9496	0	0	-100	0	230	101300000	1000	0	0	-1	0
22790763	9499	3	0	-100	0	230	101300000	1000	0	0	-1	0
22803323	9496	0	0	-100	0	230	101300000	1000	0	0	-1	0
22815883	9492	4	0	-100	0	230	101300000	1000	0	0	-1	0
22828443	9499	0	0	-100	0	230	101300000	1000	0	0	-1	0
22841004	9514	0	0	-100	0	230	101300000	1000	0	0	-1	0
22853563	9499	0	0	-100	0	230	101300000	1000	0	0	-1	0
22866123	9487	0	0	-100	0	230	101300000	1000	0	0	-1	0
22878683	9499	0	0	-100	0	230	101300000	1000	0	0	-1	0
22891243	9496	0	0	-100	0	230	101300000	1000	0	0	-1	0
22903803	9499	0	0	-100	0	230	101300000	1000	0	0	-1	0
22916363	9504	0	0	-100	0	230	101300000	1000	0	0	-1	0
22928923	9491	0	0	-100	0	230	101300000	1000	0	0	-1	0
22941483	9497	1	0	-100	0	230	101300000	1000	0	0	-1	0
22954043	9506	0	0	-100	0	230	101300000	1000	0	0	-1	0
22966603	9499	4	0	-100	0	230	101300000	1000	0	0	-1	0
22979163	9514	0	0	-100	0	230	101300000	1000	0	0	-1	0
22991723	9501	3	0	-100	0	230	101300000	1000	0	0	-1	0
23004283	9509	0	0	-100	0	230	101300000	1000	0	0	-1	0
23016843	9499	0	0	-100	0	230	101300000	1000	0	0	-1	0
23029403	9497	4	0	-100	0	230	101300000	1000	0	0	-1	0
23041963	9504	0	0	-100	0	230	101300000	1000	0	0	-1	0
23054523	9499	0	0	-100	0	230	101300000	1000	0	0	-1	0
23067083	9499	0	0	-100	0	230	101300000	1000	0	0	-1	0
23079643	9499	0	0	-100	0	230	101300000	1000	0	0	-1	0
23092203	9502	4	0	-100	0	230	101300000	1000	0	0	-1	0
23104763	9494	0	0	-100	0	230	101300000	1000	0	0	-1	0
23117323	9506	0	0	-100	0	230	101300000	1000	0	0	-1	0
23129883	9501	1	0	-100	0	230	101300000	1000	0	0	-1	0
23142443	9511	0	0	-100	0	230	101300000	1000	0	0	-1	0
23155004	9506	0	0	-100	0	230	101300000	1000	0	0	-1	0
23167563	9499	0	0	-100	0	230	101300000	1000	0	0	-1	0
23180123	9502	0	0	-100	0	230	101300000	1000	0	0	-1	0
23192683	9494	2	0	-100	0	230	101300000	1000	0	0	-1	0
23205243	9501	0	0	-100	0	230	101300000	1000	0	0	-1	0
23217803	9507	4	0	-100	0	230	101300000	1000	0	0	-1	0
23230363	9504	0	0	-100	0	230	101300000	1000	0	0	-1	0
23242923	9491	0	0	-100	0	230	101300000	1000	0	0	-1	0
23255483	9497	2	0	-100	0	230	101300000	1000	0	0	-1	0
23268043	9509	0	0	-100	0	230	101300000	1000	0	0	-1	0
23280603	9497	0	0	-100	0	230	101300000	1000	0	0	-1	0
23293163	9507	3	0	-100	0	230	101300000	1000	0	0	-1	0
23305723	9501	0	0	-100	0	230	101300000	1000	0	0	-1	0
23318283	9494	0	0	-100	0	230	101300000	1000	0	0	-1	0
23330843	9494	1	0	-100	0	230	101300000	1000	0	0	-1	0
23343403	9494	0	0	-100	0	230	101300000	1000	0	0	-1	0
23355963	9494	0	0	-100	0	230	101300000	1000	0	0	-1	0
23368523	9496	0	0	-100	0	230	101300000	1000	0	0	-1	0
23381083	9494	4	0	-100	0	230	101300000	1000	0	0	-1	0
23393643	9506	0	0	-100	0	230	101300000	1000	0	0	-1	0
23406203	9494	4	0	-100	0	230	101300000	1000	0	0	-1	0
23418763	9499	0	0	-100	0	230	101300000	1000	0	0	-1	0
23431323	9496	1	0	-100	0	230	101300000	1000	0	0	-1	0
23443883	9499	0	0	-100	0	230	101300000	1000	0	0	-1	0
23456443	9504	0	0	-100	0	230	101300000	1000	0	0	-1	0
23469004	9511	0	0	-100	0	230	101300000	1000	0	0	-1	0
23481563	9499	3	0	-100	0	230	101300000	1000	0	0	-1	0
23494123	9489	3	0	-100	0	230	101300000	1000	0	0	-1	0
23506683	9499	1	0	-100	0	230	101300000	1000	0	0	-1	0
23519243	9494	0	0	-100	0	230	101300000	1000	0	0	-1	0
23531803	9504	0	0	-100	0	230	101300000	1000	0	0	-1	0
23544363	9509	0	0	-100	0	230	101300000	1000	0	0	-1	0
23556923	9504	0	0	-100	0	230	101300000	1000	0	0	-1	0
23569483	9492	0	0	-100	0	230	101300000	1000	0	0	-1	0
23582043	9489	1	0	-100	0	230	101300000	1000	0	0	-1	0
23594603	9492	4	0	-100	0	230	101300000	1000	0	0	-1	0
23607163	9506	3	0	-100	0	230	101300000	1000	0	0	-1	0
23619723	9499	0	0	-100	0	230	101300000	1000	0	0	-1	0
23632283	9489	1	0	-100	0	230	101300000	1000	0	0	-1	0
23644843	9494	6	0	-100	0	230	101300000	1000	0	0	-1	0
23657403	9492	4	0	-100	0	230	101300000	1000	0	0	-1	0
23669963	9497	4	0	-100	0	230	101300000	1000	0	0	-1	0
23682523	9499	4	0	-100	0	230	101300000	1000	0	0	-1	0
23695083	9494	6	0	-100	0	230	101300000	1000	0	0	-1	0
23707643	9492	1	0	-100	0	230	101300000	1000	0	0	-1	0
23720203	9497	2	0	-100	0	230	101300000	1000	0	0	-1	0
23732763	9494	3	0	-100	0	230	101300000	1000	0	0	-1	0
23745323	9497	2	0	-100	0	230	101300000	1000	0	0	-1	0
23757883	9497	0	0	-100	0	230	101300000	1000	0	0	-1	0
23770443	9501	0	0	-100	0	230	101300000	1000	0	0	-1	0
23783004	9496	2	0	-100	0	230	101300000	1000	0	0	-1	0
23795563	9499	0	0	-100	0	230	101300000	1000	0	0	-1	0
23808123	9499	0	0	-100	0	230	101300000	1000	0	0	-1	0
23820683	9504	0	0	-100	0	230	101300000	1000	0	0	-1	0
23833243	9506	0	0	-100	0	230	101300000	1000	0	0	-1	0
23845803	9504	0	0	-100	0	230	101300000	1000	0	0	-1	0
23858363	9504	0	0	-100	0	230	101300000	1000	0	0	-1	0
23870923	9499	0	0	-100	0	230	101300000	1000	0	0	-1	0
23883483	9496	0	0	-100	0	230	101300000	1000	0	0	-1	0
23896043	9501	0	0	-100	0	230	101300000	1000	0	0	-1	0
23908603	9504	0	0	-100	0	230	101300000	1000	0	0	-1	0
23921163	9511	0	0	-100	0	230	101300000	1000	0	0	-1	0
23933723	9496	0	0	-100	0	230	101300000	1000	0	0	-1	0
23946283	9491	0	0	-100	0	230	101300000	1000	0	0	-1	0
23958843	9502	0	0	-100	0	230	101300000	1000	0	0	-1	0
23971403	9494	0	0	-100	0	230	101300000	1000	0	0	-1	0
23983963	9491	0	0	-100	0	230	101300000	1000	0	0	-1	0
23996523	9494	0	0	-100	0	230	101300000	1000	0	0	-1	0
24009083	9501	0	0	-100	0	230	101300000	1000	0	0	-1	0
24021643	9496	1	0	-100	0	230	101300000	1000	0	0	-1	0
24034203	9501	2	0	-100	0	230	101300000	1000	0	0	-1	0
24046763	9502	4	0	-100	0	230	101300000	1000	0	0	-1	0
24059323	9497	4	0	-100	0	230	101300000	1000	0	0	-1	0
24071883	9502	4	0	-100	0	230	101300000	1000	0	0	-1	0
24084443	9502	4	0	-100	0	230	101300000	1000	0	0	-1	0
24097004	9509	0	0	-100	0	230	101300000	1000	0	0	-1	0
24109563	9494	1	0	-100	0	230	101300000	1000	0	0	-1	0
24122123	9502	0	0	-100	0	230	101300000	1000	0	0	-1	0
24134683	9502	0	0	-100	0	230	101300000	1000	0	0	-1	0
24147243	9502	0	0	-100	0	230	101300000	1000	0	0	-1	0
24159803	9494	0	0	-100	0	230	101300000	1000	0	0	-1	0
24172363	9504	0	0	-100	0	230	101300000	1000	0	0	-1	0
24184923	9501	0	0	-100	0	230	101300000	1000	0	0	-1	0
24197483	9499	1	0	-100	0	230	101300000	1000	0	0	-1	0
24210043	9494	2	0	-100	0	230	101300000	1000	0	0	-1	0
24222603	9492	4	0	-100	0	230	101300000	1000	0	0	-1	0
24235163	9504	0	0	-100	0	230	101300000	1000	0	0	-1	0
24247723	9494	0	0	-100	0	230	101300000	1000	0	0	-1	0
24260283	9496	0	0	-100	0	230	101300000	1000	0	0	-1	0
24272843	9501	0	0	-100	0	230	101300000	1000	0	0	-1	0
24285403	9504	0	0	-100	0	230	101300000	1000	0	0	-1	0
24297963	9499	0	0	-100	0	230	101300000	1000	0	0	-1	0
24310523	9509	0	0	-100	0	230	101300000	1000	0	0	-1	0
24323083	9504	0	0	-100	0	230	101300000	1000	0	0	-1	0
24335643	9501	0	0	-100	0	230	101300000	1000	0	0	-1	0
24348203	9504	0	0	-100	0	230	101300000	1000	0	0	-1	0
24360763	9492	1	0	-100	0	230	101300000	1000	0	0	-1	0
24373323	9497	3	0	-100	0	230	101300000	1000	0	0	-1	0
24385883	9494	4	0	-100	0	230	101300000	1000	0	0	-1	0
24398443	9497	6	0	-100	0	230	101300000	1000	0	0	-1	0
24411004	9504	0	0	-100	0	230	101300000	1000	0	0	-1	0
24423563	9496	0	0	-100	0	230	101300000	1000	0	0	-1	0
24436123	9499	2	0	-100	0	230	101300000	1000	0	0	-1	0
24448683	9494	1	0	-100	0	230	101300000	1000	0	0	-1	0
24461243	9489	0	0	-100	0	230	101300000	1000	0	0	-1	0
24473803	9501	0	0	-100	0	230	101300000	1000	0	0	-1	0
24486363	9501	0	0	-100	0	230	101300000	1000	0	0	-1	0
24498923	9499	0	0	-100	0	230	101300000	1000	0	0	-1	0
24511483	9499	1	0	-100	0	230	101300000	1000	0	0	-1	0
24524043	9494	4	0	-100	0	230	101300000	1000	0	0	-1	0
24536603	9489	4	0	-100	0	230	101300000	1000	0	0	-1	0
24549163	9504	4	0	-100	0	230	101300000	1000	0	0	-1	0
24561723	9499	4	0	-100	0	230	101300000	1000	0	0	-1	0
24574283	9501	2	0	-100	0	230	101300000	1000	0	0	-1	0
24586843	9494	0	0	-100	0	230	101300000	1000	0	0	-1	0
24599403	9494	0	0	-100	0	230	101300000	1000	0	0	-1	0
24611963	9509	0	0	-100	0	230	101300000	1000	0	0	-1	0
24624523	9504	0	0	-100	0	230	101300000	1000	0	0	-1	0
24637083	9504	0	0	-100	0	230	101300000	1000	0	0	-1	0
24649643	9501	0	0	-100	0	230	101300000	1000	0	0	-1	0
24662203	9501	0	0	-100	0	230	101300000	1000	0	0	-1	0
24674763	9499	0	0	-100	0	230	101300000	1000	0	0	-1	0
24687323	9501	0	0	-100	0	230	101300000	1000	0	0	-1	0
24699883	9499	0	0	-100	0	230	101300000	1000	0	0	-1	0
24712443	9496	0	0	-100	0	230	101300000	1000	0	0	-1	0
24725004	9497	4	0	-100	0	230	101300000	1000	0	0	-1	0
24737563	9499	0	0	-100	0	230	101300000	1000	0	0	-1	0
24750123	9506	0	0	-100	0	230	101300000	1000	0	0	-1	0
24762683	9499	0	0	-100	0	230	101300000	1000	0	0	-1	0
24775243	9492	1	0	-100	0	230	101300000	1000	0	0	-1	0
24787803	9499	4	0	-100	0	230	101300000	1000	0	0	-1	0
24800363	9494	3	0	-100	0	230	101300000	1000	0	0	-1	0
24812923	9497	0	0	-100	0	230	101300000	1000	0	0	-1	0
24825483	9501	0	0	-100	0	230	101300000	1000	0	0	-1	0
24838043	9491	0	0	-100	0	230	101300000	1000	0	0	-1	0
24850603	9501	0	0	-100	0	230	101300000	1000	0	0	-1	0
24863163	9509	0	0	-100	0	230	101300000	1000	0	0	-1	0
24875723	9504	0	0	-100	0	230	101300000	1000	0	0	-1	0
24888283	9501	0	0	-100	0	230	101300000	1000	0	0	-1	0
24900843	9501	0	0	-100	0	230	101300000	1000	0	0	-1	0
24913403	9496	0	0	-100	0	230	101300000	1000	0	0	-1	0
24925963	9499	0	0	-100	0	230	101300000	1000	0	0	-1	0
24938523	9504	0	0	-100	0	230	101300000	1000	0	0	-1	0
24951083	9501	0	0	-100	0	230	101300000	1000	0	0	-1	0
24963643	9501	0	0	-100	0	230	101300000	1000	0	0	-1	0
24976203	9496	0	0	-100	0	230	101300000	1000	0	0	-1	0
24988763	9504	0	0	-100	0	230	101300000	1000	0	0	-1	0
25001323	9499	0	0	-100	0	230	101300000	1000	0	0	-1	0
25013883	9499	0	0	-100	0	230	101300000	1000	0	0	-1	0
25026443	9501	0	0	-100	0	230	101300000	1000	0	0	-1	0
25039004	9496	3	0	-100	0	230	101300000	1000	0	0	-1	0
25051563	9509	0	0	-100	0	230	101300000	1000	0	0	-1	0
25064123	9497	0	0	-100	0	230	101300000	1000	0	0	-1	0
25076683	9497	2	0	-100	0	230	101300000	1000	0	0	-1	0
25089243	9494	2	0	-100	0	230	101300000	1000	0	0	-1	0
25101803	9499	4	0	-100	0	230	101300000	1000	0	0	-1	0
25114363	9497	2	0	-100	0	230	101300000	1000	0	0	-1	0
25126923	9496	0	0	-100	0	230	101300000	1000	0	0	-1	0
25139483	9506	0	0	-100	0	230	101300000	1000	0	0	-1	0
25152043	9506	0	0	-100	0	230	101300000	1000	0	0	-1	0
25164603	9494	0	0	-100	0	230	101300000	1000	0	0	-1	0
25177163	9511	0	0	-100	0	230	101300000	1000	0	0	-1	0
25189723	9502	0	0	-100	0	230	101300000	1000	0	0	-1	0
25202283	9499	0	0	-100	0	230	101300000	1000	0	0	-1	0
25214843	9499	0	0	-100	0	230	101300000	1000	0	0	-1	0
25227403	9504	1	0	-100	0	230	101300000	1000	0	0	-1	0
25239963	9497	2	0	-100	0	230	101300000	1000	0	0	-1	0
25252523	9499	2	0	-100	0	230	101300000	1000	0	0	-1	0
25265083	9499	4	0	-100	0	230	101300000	1000	0	0	-1	0
25277643	9494	5	0	-100	0	230	101300000	1000	0	0	-1	0
25290203	9492	0	0	-100	0	230	101300000	1000	0	0	-1	0
25302763	9497	0	0	-100	0	230	101300000	1000	0	0	-1	0
25327883	9506	0	0	-100	0	230	101300000	1000	0	0	-1	0
25340443	9499	0	0	-100	0	230	101300000	1000	0	0	-1	0
25353004	9496	3	0	-100	0	230	101300000	1000	0	0	-1	0
25365563	9506	0	0	-100	0	230	101300000	1000	0	0	-1	0
25378123	9501	0	0	-100	0	230	101300000	1000	0	0	-1	0
25390683	9497	1	0	-100	0	230	101300000	1000	0	0	-1	0
25403243	9494	4	0	-100	0	230	101300000	1000	0	0	-1	0
25415803	9496	0	0	-100	0	230	101300000	1000	0	0	-1	0
25428363	9499	0	0	-100	0	230	101300000	1000	0	0	-1	0
25440923	9499	0	0	-100	0	230	101300000	1000	0	0	-1	0
25453483	9492	4	0	-100	0	230	101300000	1000	0	0	-1	0
25466043	9486	0	0	-100	0	230	101300000	1000	0	0	-1	0
25541403	9496	0	0	-100	0	230	101300000	1000	0	0	-1	0
25553963	9494	0	0	-100	0	230	101300000	1000	0	0	-1	0
25566523	9499	3	0	-100	0	230	101300000	1000	0	0	-1	0
25579083	9497	4	0	-100	0	230	101300000	1000	0	0	-1	0
25591643	9492	0	0	-100	0	230	101300000	1000	0	0	-1	0
25604203	9504	0	0	-100	0	230	101300000	1000	0	0	-1	0
25616763	9509	0	0	-100	0	230	101300000	1000	0	0	-1	0
25629323	9496	3	0	-100	0	230	101300000	1000	0	0	-1	0
25641883	9491	0	0	-100	0	230	101300000	1000	0	0	-1	0
25654443	9501	0	0	-100	0	230	101300000	1000	0	0	-1	0
25667004	9501	0	0	-100	0	230	101300000	1000	0	0	-1	0
25692123	9499	0	0	-100	0	230	101300000	1000	0	0	-1	0
25704683	9497	4	0	-100	0	230	101300000	1000	0	0	-1	0
25717243	9497	0	0	-100	0	230	101300000	1000	0	0	-1	0
25729803	9504	0	0	-100	0	230	101300000	1000	0	0	-1	0
25742363	9504	0	0	-100	0	230	101300000	1000	0	0	-1	0
25754923	9504	0	0	-100	0	230	101300000	1000	0	0	-1	0
25767483	9496	2	0	-100	0	230	101300000	1000	0	0	-1	0
25780043	9502	3	0	-100	0	230	101300000	1000	0	0	-1	0
25792603	9492	0	0	-100	0	230	101300000	1000	0	0	-1	0
25805163	9514	0	0	-100	0	230	101300000	1000	0	0	-1	0
25817723	9496	0	0	-100	0	230	101300000	1000	0	0	-1	0
25830283	9499	0	0	-100	0	230	101300000	1000	0	0	-1	0
25842843	9499	0	0	-100	0	230	101300000	1000	0	0	-1	0
25855403	9502	0	0	-100	0	230	101300000	1000	0	0	-1	0
25867963	9499	0	0	-100	0	230	101300000	1000	0	0	-1	0
25880523	9496	0	0	-100	0	230	101300000	1000	0	0	-1	0
25893083	9501	0	0	-100	0	230	101300000	1000	0	0	-1	0
25905643	9502	0	0	-100	0	230	101300000	1000	0	0	-1	0
25918203	9501	0	0	-100	0	230	101300000	1000	0	0	-1	0
25930763	9497	0	0	-100	0	230	101300000	1000	0	0	-1	0
25943323	9506	0	0	-100	0	230	101300000	1000	0	0	-1	0
25955883	9492	3	0	-100	0	230	101300000	1000	0	0	-1	0
25968443	9501	4	0	-100	0	230	101300000	1000	0	0	-1	0
25981004	9503	0	0	-100	0	230	101300000	1000	0	0	-1	0
25993563	9489	0	0	-100	0	230	101300000	1000	0	0	-1	0
26006123	9494	0	0	-100	0	230	101300000	1000	0	0	-1	0
26018683	9492	1	0	-100	0	230	101300000	1000	0	0	-1	0
26031243	9499	0	0	-100	0	230	101300000	1000	0	0	-1	0
26043803	9497	0	0	-100	0	230	101300000	1000	0	0	-1	0
26056363	9489	0	0	-100	0	230	101300000	1000	0	0	-1	0
26068923	9499	0	0	-100	0	230	101300000	1000	0	0	-1	0
26081483	9494	0	0	-100	0	230	101300000	1000	0	0	-1	0
26094043	9501	0	0	-100	0	230	101300000	1000	0	0	-1	0
26106603	9494	0	0	-100	0	230	101300000	1000	0	0	-1	0
26119163	9509	0	0	-100	0	230	101300000	1000	0	0	-1	0
26131723	9499	0	0	-100	0	230	101300000	1000	0	0	-1	0
26144283	9494	0	0	-100	0	230	101300000	1000	0	0	-1	0
26156843	9501	0	0	-100	0	230	101300000	1000	0	0	-1	0
26169403	9501	0	0	-100	0	230	101300000	1000	0	0	-1	0
26181963	9504	0	0	-100	0	230	101300000	1000	0	0	-1	0
26194523	9501	0	0	-100	0	230	101300000	1000	0	0	-1	0
26207083	9499	1	0	-100	0	230	101300000	1000	0	0	-1	0
26219643	9502	2	0	-100	0	230	101300000	1000	0	0	-1	0
26232203	9502	4	0	-100	0	230	101300000	1000	0	0	-1	0
26244763	9491	0	0	-100	0	230	101300000	1000	0	0	-1	0
26257323	9501	0	0	-100	0	230	101300000	1000	0	0	-1	0
26269883	9494	0	0	-100	0	230	101300000	1000	0	0	-1	0
26282443	9501	0	0	-100	0	230	101300000	1000	0	0	-1	0
26295004	9501	1	0	-100	0	230	101300000	1000	0	0	-1	0
26307563	9496	0	0	-100	0	230	101300000	1000	0	0	-1	0
26320123	9506	0	0	-100	0	230	101300000	1000	0	0	-1	0
26332683	9501	0	0	-100	0	230	101300000	1000	0	0	-1	0
26345243	9502	0	0	-100	0	230	101300000	1000	0	0	-1	0
26357803	9494	2	0	-100	0	230	101300000	1000	0	0	-1	0
26370363	9499	2	0	-100	0	230	101300000	1000	0	0	-1	0
26382923	9502	2	0	-100	0	230	101300000	1000	0	0	-1	0
26395483	9497	4	0	-100	0	230	101300000	1000	0	0	-1	0
26408043	9497	3	0	-100	0	230	101300000	1000	0	0	-1	0
26420603	9499	3	0	-100	0	230	101300000	1000	0	0	-1	0
26433163	9499	0	0	-100	0	230	101300000	1000	0	0	-1	0
26445723	9504	0	0	-100	0	230	101300000	1000	0	0	-1	0
26458283	9499	0	0	-100	0	230	101300000	1000	0	0	-1	0
26470843	9501	0	0	-100	0	230	101300000	1000	0	0	-1	0
26483403	9501	0	0	-100	0	230	101300000	1000	0	0	-1	0
26495963	9509	0	0	-100	0	230	101300000	1000	0	0	-1	0
26508523	9506	0	0	-100	0	230	101300000	1000	0	0	-1	0
26521083	9501	0	0	-100	0	230	101300000	1000	0	0	-1	0
26533643	9497	0	0	-100	0	230	101300000	1000	0	0	-1	0
26546203	9494	0	0	-100	0	230	101300000	1000	0	0	-1	0
26558763	9491	1	0	-100	0	230	101300000	1000	0	0	-1	0
26571323	9499	1	0	-100	0	230	101300000	1000	0	0	-1	0
26583883	9497	1	0	-100	0	230	101300000	1000	0	0	-1	0
26596443	9494	4	0	-100	0	230	101300000	1000	0	0	-1	0
26609004	9509	0	0	-100	0	230	101300000	1000	0	0	-1	0
26621563	9501	0	0	-100	0	230	101300000	1000	0	0	-1	0
26634123	9499	0	0	-100	0	230	101300000	1000	0	0	-1	0
26646683	9497	0	0	-100	0	230	101300000	1000	0	0	-1	0
26659243	9499	3	0	-100	0	230	101300000	1000	0	0	-1	0
26671803	9492	0	0	-100	0	230	101300000	1000	0	0	-1	0
26684363	9496	0	0	-100	0	230	101300000	1000	0	0	-1	0
26696923	9501	0	0	-100	0	230	101300000	1000	0	0	-1	0
26709483	9499	1	0	-100	0	230	101300000	1000	0	0	-1	0
26722043	9502	3	0	-100	0	230	101300000	1000	0	0	-1	0
26734603	9504	5	0	-100	0	230	101300000	1000	0	0	-1	0
26747163	9506	0	0	-100	0	230	101300000	1000	0	0	-1	0
26759723	9494	0	0	-100	0	230	101300000	1000	0	0	-1	0
26772283	9496	0	0	-100	0	230	101300000	1000	0	0	-1	0
26784843	9496	0	0	-100	0	230	101300000	1000	0	0	-1	0
26797403	9506	0	0	-100	0	230	101300000	1000	0	0	-1	0
26809963	9501	0	0	-100	0	230	101300000	1000	0	0	-1	0
26822523	9501	0	0	-100	0	230	101300000	1000	0	0	-1	0
26835083	9492	4	0	-100	0	230	101300000	1000	0	0	-1	0
26847643	9499	7	0	-100	0	230	101300000	1000	0	0	-1	0
26860203	9502	0	0	-100	0	230	101300000	1000	0	0	-1	0
26872763	9501	0	0	-100	0	230	101300000	1000	0	0	-1	0
26885323	9501	0	0	-100	0	230	101300000	1000	0	0	-1	0
26897883	9511	0	0	-100	0	230	101300000	1000	0	0	-1	0
26910443	9504	0	0	-100	0	230	101300000	1000	0	0	-1	0
26923004	9501	0	0	-100	0	230	101300000	1000	0	0	-1	0
26935563	9502	4	0	-100	0	230	101300000	1000	0	0	-1	0
26948123	9496	4	0	-100	0	230	101300000	1000	0	0	-1	0
26960683	9496	0	0	-100	0	230	101300000	1000	0	0	-1	0
26973243	9489	0	0	-100	0	230	101300000	1000	0	0	-1	0
26985803	9496	0	0	-100	0	230	101300000	1000	0	0	-1	0
26998363	9499	0	0	-100	0	230	101300000	1000	0	0	-1	0
27010923	9504	0	0	-100	0	230	101300000	1000	0	0	-1	0
27023483	9496	0	0	-100	0	230	101300000	1000	0	0	-1	0
27036043	9501	0	0	-100	0	230	101300000	1000	0	0	-1	0
27048603	9499	0	0	-100	0	230	101300000	1000	0	0	-1	0
27061163	9516	0	0	-100	0	230	101300000	1000	0	0	-1	0
27073723	9499	0	0	-100	0	230	101300000	1000	0	0	-1	0
27086283	9497	0	0	-100	0	230	101300000	1000	0	0	-1	0
27098843	9494	4	0	-100	0	230	101300000	1000	0	0	-1	0
27111403	9497	4	0	-100	0	230	101300000	1000	0	0	-1	0
27123963	9499	3	0	-100	0	230	101300000	1000	0	0	-1	0
27136523	9504	3	0	-100	0	230	101300000	1000	0	0	-1	0
27149083	9497	4	0	-100	0	230	101300000	1000	0	0	-1	0
27161643	9494	0	0	-100	0	230	101300000	1000	0	0	-1	0
27174203	9499	0	0	-100	0	230	101300000	1000	0	0	-1	0
27186763	9501	0	0	-100	0	230	101300000	1000	0	0	-1	0
27199323	9501	0	0	-100	0	230	101300000	1000	0	0	-1	0
27211883	9502	0	0	-100	0	230	101300000	1000	0	0	-1	0
27224443	9504	3	0	-100	0	230	101300000	1000	0	0	-1	0
27237004	9511	0	0	-100	0	230	101300000	1000	0	0	-1	0
27249563	9499	0	0	-100	0	230	101300000	1000	0	0	-1	0
27262123	9496	0	0	-100	0	230	101300000	1000	0	0	-1	0
27274683	9509	0	0	-100	0	230	101300000	1000	0	0	-1	0
27287243	9504	0	0	-100	0	230	101300000	1000	0	0	-1	0
27299803	9504	0	0	-100	0	230	101300000	1000	0	0	-1	0
27312363	9492	3	0	-100	0	230	101300000	1000	0	0	-1	0
27324923	9501	0	0	-100	0	230	101300000	1000	0	0	-1	0
27337483	9494	0	0	-100	0	230	101300000	1000	0	0	-1	0
27350043	9506	0	0	-100	0	230	101300000	1000	0	0	-1	0
27362603	9499	0	0	-100	0	230	101300000	1000	0	0	-1	0
27375163	9509	0	0	-100	0	230	101300000	1000	0	0	-1	0
27387723	9494	5	0	-100	0	230	101300000	1000	0	0	-1	0
27400283	9494	0	0	-100	0	230	101300000	1000	0	0	-1	0
27412843	9499	0	0	-100	0	230	101300000	1000	0	0	-1	0
27425403	9501	0	0	-100	0	230	101300000	1000	0	0	-1	0
27437963	9501	0	0	-100	0	230	101300000	1000	0	0	-1	0
27450523	9501	0	0	-100	0	230	101300000	1000	0	0	-1	0
27463083	9499	2	0	-100	0	230	101300000	1000	0	0	-1	0
27475643	9494	1	0	-100	0	230	101300000	1000	0	0	-1	0
27488203	9496	0	0	-100	0	230	101300000	1000	0	0	-1	0
27500763	9504	0	0	-100	0	230	101300000	1000	0	0	-1	0
27513323	9504	4	0	-100	0	230	101300000	1000	0	0	-1	0
27525883	9502	0	0	-100	0	230	101300000	1000	0	0	-1	0
27538443	9504	0	0	-100	0	230	101300000	1000	0	0	-1	0
27551004	9501	1	0	-100	0	230	101300000	1000	0	0	-1	0
27563563	9501	0	0	-100	0	230	101300000	1000	0	0	-1	0
27576123	9494	0	0	-100	0	230	101300000	1000	0	0	-1	0
27588683	9497	0	0	-100	0	230	101300000	1000	0	0	-1	0
27601243	9499	0	0	-100	0	230	101300000	1000	0	0	-1	0
27613803	9497	0	0	-100	0	230	101300000	1000	0	0	-1	0
27626363	9499	2	0	-100	0	230	101300000	1000	0	0	-1	0
27638923	9499	4	0	-100	0	230	101300000	1000	0	0	-1	0
27651483	9492	5	0	-100	0	230	101300000	1000	0	0	-1	0
27664043	9494	4	0	-100	0	230	101300000	1000	0	0	-1	0
27676603	9494	4	0	-100	0	230	101300000	1000	0	0	-1	0
27689163	9504	4	0	-100	0	230	101300000	1000	0	0	-1	0
27701723	9499	4	0	-100	0	230	101300000	1000	0	0	-1	0
27714283	9494	0	0	-100	0	230	101300000	1000	0	0	-1	0
27726843	9496	2	0	-100	0	230	101300000	1000	0	0	-1	0
27739403	9494	4	0	-100	0	230	101300000	1000	0	0	-1	0
27751963	9499	3	0	-100	0	230	101300000	1000	0	0	-1	0
27764523	9496	1	0	-100	0	230	101300000	1000	0	0	-1	0
27777083	9504	0	0	-100	0	230	101300000	1000	0	0	-1	0
27789643	9496	0	0	-100	0	230	101300000	1000	0	0	-1	0
27802203	9509	0	0	-100	0	230	101300000	1000	0	0	-1	0
27814763	9501	0	0	-100	0	230	101300000	1000	0	0	-1	0
27827323	9509	0	0	-100	0	230	101300000	1000	0	0	-1	0
27839883	9504	0	0	-100	0	230	101300000	1000	0	0	-1	0
27852443	9504	0	0	-100	0	230	101300000	1000	0	0	-1	0
27865004	9501	3	0	-100	0	230	101300000	1000	0	0	-1	0
27877563	9496	0	0	-100	0	230	101300000	1000	0	0	-1	0
27890123	9506	0	0	-100	0	230	101300000	1000	0	0	-1	0
27902683	9509	0	0	-100	0	230	101300000	1000	0	0	-1	0
27915243	9494	0	0	-100	0	230	101300000	1000	0	0	-1	0
27927803	9499	0	0	-100	0	230	101300000	1000	0	0	-1	0
27940363	9499	0	0	-100	0	230	101300000	1000	0	0	-1	0
27952923	9494	0	0	-100	0	230	101300000	1000	0	0	-1	0
27965483	9497	0	0	-100	0	230	101300000	1000	0	0	-1	0
27978043	9494	0	0	-100	0	230	101300000	1000	0	0	-1	0
27990603	9494	0	0	-100	0	230	101300000	1000	0	0	-1	0
28003163	9509	0	0	-100	0	230	101300000	1000	0	0	-1	0
28015723	9497	0	0	-100	0	230	101300000	1000	0	0	-1	0
28028283	9496	0	0	-100	0	230	101300000	1000	0	0	-1	0
28040843	9499	0	0	-100	0	230	101300000	1000	0	0	-1	0
28053403	9499	0	0	-100	0	230	101300000	1000	0	0	-1	0
28065963	9496	0	0	-100	0	230	101300000	1000	0	0	-1	0
28078523	9499	0	0	-100	0	230	101300000	1000	0	0	-1	0
28091083	9497	3	0	-100	0	230	101300000	1000	0	0	-1	0
28103643	9494	5	0	-100	0	230	101300000	1000	0	0	-1	0
28116203	9499	3	0	-100	0	230	101300000	1000	0	0	-1	0
28128763	9497	3	0	-100	0	230	101300000	1000	0	0	-1	0
28141323	9494	2	0	-100	0	230	101300000	1000	0	0	-1	0
28153883	9492	1	0	-100	0	230	101300000	1000	0	0	-1	0
28166443	9497	1	0	-100	0	230	101300000	1000	0	0	-1	0
28179004	9504	0	0	-100	0	230	101300000	1000	0	0	-1	0
28191563	9492	2	0	-100	0	230	101300000	1000	0	0	-1	0
28204123	9497	2	0	-100	0	230	101300000	1000	0	0	-1	0
28216683	9497	3	0	-100	0	230	101300000	1000	0	0	-1	0
28229243	9499	0	0	-100	0	230	101300000	1000	0	0	-1	0
28241803	9506	0	0	-100	0	230	101300000	1000	0	0	-1	0
28254363	9501	0	0	-100	0	230	101300000	1000	0	0	-1	0
28266923	9496	0	0	-100	0	230	101300000	1000	0	0	-1	0
28279483	9501	0	0	-100	0	230	101300000	1000	0	0	-1	0
28292043	9499	0	0	-100	0	230	101300000	1000	0	0	-1	0
28304603	9501	0	0	-100	0	230	101300000	1000	0	0	-1	0
28317163	9504	0	0	-100	0	230	101300000	1000	0	0	-1	0
28329723	9497	3	0	-100	0	230	101300000	1000	0	0	-1	0
28342283	9492	2	0	-100	0	230	101300000	1000	0	0	-1	0
28354843	9494	1	0	-100	0	230	101300000	1000	0	0	-1	0
28367403	9502	0	0	-100	0	230	101300000	1000	0	0	-1	0
28430203	9492	0	0	-100	0	230	101300000	1000	0	0	-1	0
28442763	9497	4	0	-100	0	230	101300000	1000	0	0	-1	0
28455323	9494	2	0	-100	0	230	101300000	1000	0	0	-1	0
28467883	9509	0	0	-100	0	230	101300000	1000	0	0	-1	0
28480443	9499	0	0	-100	0	230	101300000	1000	0	0	-1	0
28493004	9496	0	0	-100	0	230	101300000	1000	0	0	-1	0
28505563	9501	0	0	-100	0	230	101300000	1000	0	0	-1	0
28518123	9496	0	0	-100	0	230	101300000	1000	0	0	-1	0
28530683	9499	0	0	-100	0	230	101300000	1000	0	0	-1	0
28543243	9492	0	0	-100	0	230	101300000	1000	0	0	-1	0
28555803	9492	0	0	-100	0	230	101300000	1000	0	0	-1	0
28568363	9494	0	0	-100	0	230	101300000	1000	0	0	-1	0
28618603	9502	4	0	-100	0	230	101300000	1000	0	0	-1	0
28631163	9499	4	0	-100	0	230	101300000	1000	0	0	-1	0
28643723	9499	3	0	-100	0	230	101300000	1000	0	0	-1	0
28656283	9497	0	0	-100	0	230	101300000	1000	0	0	-1	0
28668843	9497	0	0	-100	0	230	101300000	1000	0	0	-1	0
28681403	9506	0	0	-100	0	230	101300000	1000	0	0	-1	0
28693963	9511	0	0	-100	0	230	101300000	1000	0	0	-1	0
28706523	9501	0	0	-100	0	230	101300000	1000	0	0	-1	0
28719083	9504	0	0	-100	0	230	101300000	1000	0	0	-1	0
28731643	9501	1	0	-100	0	230	101300000	1000	0	0	-1	0
28744203	9499	3	0	-100	0	230	101300000	1000	0	0	-1	0
28756763	9494	5	0	-100	0	230	101300000	1000	0	0	-1	0
28769323	9489	0	0	-100	0	230	101300000	1000	0	0	-1	0
28781883	9494	0	0	-100	0	230	101300000	1000	0	0	-1	0
28794443	9506	0	0	-100	0	230	101300000	1000	0	0	-1	0
28807004	9501	2	0	-100	0	230	101300000	1000	0	0	-1	0
28819563	9496	1	0	-100	0	230	101300000	1000	0	0	-1	0
28832123	9497	4	0	-100	0	230	101300000	1000	0	0	-1	0
28844683	9496	0	0	-100	0	230	101300000	1000	0	0	-1	0
28857243	9504	0	0	-100	0	230	101300000	1000	0	0	-1	0
28869803	9504	0	0	-100	0	230	101300000	1000	0	0	-1	0
28882363	9501	0	0	-100	0	230	101300000	1000	0	0	-1	0
28894923	9499	0	0	-100	0	230	101300000	1000	0	0	-1	0
28907483	9492	4	0	-100	0	230	101300000	1000	0	0	-1	0
28920043	9497	5	0	-100	0	230	101300000	1000	0	0	-1	0
28932603	9499	3	0	-100	0	230	101300000	1000	0	0	-1	0
28945163	9499	0	0	-100	0	230	101300000	1000	0	0	-1	0
28957723	9496	0	0	-100	0	230	101300000	1000	0	0	-1	0
28970283	9494	0	0	-100	0	230	101300000	1000	0	0	-1	0
28982843	9501	0	0	-100	0	230	101300000	1000	0	0	-1	0
28995403	9504	0	0	-100	0	230	101300000	1000	0	0	-1	0
29007963	9496	0	0	-100	0	230	101300000	1000	0	0	-1	0
29020523	9489	3	0	-100	0	230	101300000	1000	0	0	-1	0
29033083	9499	5	0	-100	0	230	101300000	1000	0	0	-1	0
29045643	9497	0	0	-100	0	230	101300000	1000	0	0	-1	0
29058203	9496	0	0	-100	0	230	101300000	1000	0	0	-1	0
29070763	9492	0	0	-100	0	230	101300000	1000	0	0	-1	0
29083323	9499	0	0	-100	0	230	101300000	1000	0	0	-1	0
29095883	9501	0	0	-100	0	230	101300000	1000	0	0	-1	0
29108443	9491	0	0	-100	0	230	101300000	1000	0	0	-1	0
29121004	9502	3	0	-100	0	230	101300000	1000	0	0	-1	0
29133563	9502	0	0	-100	0	230	101300000	1000	0	0	-1	0
29146123	9499	3	0	-100	0	230	101300000	1000	0	0	-1	0
29158683	9499	4	0	-100	0	230	101300000	1000	0	0	-1	0
29171243	9499	0	0	-100	0	230	101300000	1000	0	0	-1	0
29183803	9497	0	0	-100	0	230	101300000	1000	0	0	-1	0
29196363	9504	0	0	-100	0	230	101300000	1000	0	0	-1	0
29208923	9511	0	0	-100	0	230	101300000	1000	0	0	-1	0
29221483	9511	0	0	-100	0	230	101300000	1000	0	0	-1	0
29234043	9499	4	0	-100	0	230	101300000	1000	0	0	-1	0
29246603	9499	4	0	-100	0	230	101300000	1000	0	0	-1	0
29259163	9504	0	0	-100	0	230	101300000	1000	0	0	-1	0
29271723	9501	0	0	-100	0	230	101300000	1000	0	0	-1	0
29284283	9504	0	0	-100	0	230	101300000	1000	0	0	-1	0
29296843	9497	0	0	-100	0	230	101300000	1000	0	0	-1	0
29309403	9494	4	0	-100	0	230	101300000	1000	0	0	-1	0
29321963	9509	4	0	-100	0	230	101300000	1000	0	0	-1	0
29334523	9489	0	0	-100	0	230	101300000	1000	0	0	-1	0
29347083	9499	0	0	-100	0	230	101300000	1000	0	0	-1	0
29359643	9506	0	0	-100	0	230	101300000	1000	0	0	-1	0
29372203	9502	1	0	-100	0	230	101300000	1000	0	0	-1	0
29384763	9489	0	0	-100	0	230	101300000	1000	0	0	-1	0
29397323	9501	0	0	-100	0	230	101300000	1000	0	0	-1	0
29409883	9499	3	0	-100	0	230	101300000	1000	0	0	-1	0
29422443	9499	0	0	-100	0	230	101300000	1000	0	0	-1	0
29435004	9501	4	0	-100	0	230	101300000	1000	0	0	-1	0
29447563	9494	4	0	-100	0	230	101300000	1000	0	0	-1	0
29460123	9501	0	0	-100	0	230	101300000	1000	0	0	-1	0
29472683	9496	0	0	-100	0	230	101300000	1000	0	0	-1	0
29485243	9494	4	0	-100	0	230	101300000	1000	0	0	-1	0
29497803	9506	0	0	-100	0	230	101300000	1000	0	0	-1	0
29510363	9499	0	0	-100	0	230	101300000	1000	0	0	-1	0
29522923	9497	0	0	-100	0	230	101300000	1000	0	0	-1	0
29535483	9499	4	0	-100	0	230	101300000	1000	0	0	-1	0
29548043	9494	0	0	-100	0	230	101300000	1000	0	0	-1	0
29560603	9494	0	0	-100	0	230	101300000	1000	0	0	-1	0
29573163	9504	0	0	-100	0	230	101300000	1000	0	0	-1	0
29585723	9502	3	0	-100	0	230	101300000	1000	0	0	-1	0
29598283	9491	0	0	-100	0	230	101300000	1000	0	0	-1	0
29610843	9496	0	0	-100	0	230	101300000	1000	0	0	-1	0
29623403	9496	0	0	-100	0	230	101300000	1000	0	0	-1	0
29635963	9497	0	0	-100	0	230	101300000	1000	0	0	-1	0
29648523	9497	3	0	-100	0	230	101300000	1000	0	0	-1	0
29661083	9491	0	0	-100	0	230	101300000	1000	0	0	-1	0
29673643	9501	0	0	-100	0	230	101300000	1000	0	0	-1	0
29686203	9504	0	0	-100	0	230	101300000	1000	0	0	-1	0
29698763	9494	0	0	-100	0	230	101300000	1000	0	0	-1	0
29711323	9504	4	0	-100	0	230	101300000	1000	0	0	-1	0
29723883	9494	4	0	-100	0	230	101300000	1000	0	0	-1	0
29736443	9496	4	0	-100	0	230	101300000	1000	0	0	-1	0
29749004	9509	0	0	-100	0	230	101300000	1000	0	0	-1	0
29761563	9504	2	0	-100	0	230	101300000	1000	0	0	-1	0
29774123	9496	0	0	-100	0	230	101300000	1000	0	0	-1	0
29786683	9497	0	0	-100	0	230	101300000	1000	0	0	-1	0
29799243	9496	0	0	-100	0	230	101300000	1000	0	0	-1	0
29811803	9497	0	0	-100	0	230	101300000	1000	0	0	-1	0
29824363	9499	0	0	-100	0	230	101300000	1000	0	0	-1	0
29836923	9501	0	0	-100	0	230	101300000	1000	0	0	-1	0
29849483	9499	0	0	-100	0	230	101300000	1000	0	0	-1	0
29862043	9496	0	0	-100	0	230	101300000	1000	0	0	-1	0
29874603	9496	0	0	-100	0	230	101300000	1000	0	0	-1	0
29887163	9516	0	0	-100	0	230	101300000	1000	0	0	-1	0
29899723	9492	1	0	-100	0	230	101300000	1000	0	0	-1	0
29912283	9507	4	0	-100	0	230	101300000	1000	0	0	-1	0
29924843	9491	2	0	-100	0	230	101300000	1000	0	0	-1	0
29937403	9499	0	0	-100	0	230	101300000	1000	0	0	-1	0
29949963	9494	0	0	-100	0	230	101300000	1000	0	0	-1	0
29962523	9496	0	0	-100	0	230	101300000	1000	0	0	-1	0
29975083	9494	0	0	-100	0	230	101300000	1000	0	0	-1	0
29987643	9499	0	0	-100	0	230	101300000	1000	0	0	-1	0
30000203	9497	0	0	-100	0	230	101300000	1000	0	0	-1	0
30012763	9494	0	0	-100	0	230	101300000	1000	0	0	-1	0
30025323	9494	3	0	-100	0	230	101300000	1000	0	0	-1	0
30037883	9497	0	0	-100	0	230	101300000	1000	0	0	-1	0
30050443	9499	0	0	-100	0	230	101300000	1000	0	0	-1	0
30063004	9504	4	0	-100	0	230	101300000	1000	0	0	-1	0
30075563	9501	0	0	-100	0	230	101300000	1000	0	0	-1	0
30088123	9511	0	0	-100	0	230	101300000	1000	0	0	-1	0
30100683	9506	0	0	-100	0	230	101300000	1000	0	0	-1	0
30113243	9501	0	0	-100	0	230	101300000	1000	0	0	-1	0
30125803	9501	0	0	-100	0	230	101300000	1000	0	0	-1	0
30138363	9504	0	0	-100	0	230	101300000	1000	0	0	-1	0
30150923	9496	0	0	-100	0	230	101300000	1000	0	0	-1	0
30163483	9504	0	0	-100	0	230	101300000	1000	0	0	-1	0
30176043	9499	0	0	-100	0	230	101300000	1000	0	0	-1	0
30188603	9496	0	0	-100	0	230	101300000	1000	0	0	-1	0
30201163	9506	0	0	-100	0	230	101300000	1000	0	0	-1	0
30213723	9506	0	0	-100	0	230	101300000	1000	0	0	-1	0
30226283	9506	0	0	-100	0	230	101300000	1000	0	0	-1	0
30238843	9494	0	0	-100	0	230	101300000	1000	0	0	-1	0
30251403	9499	0	0	-100	0	230	101300000	1000	0	0	-1	0
30263963	9496	0	0	-100	0	230	101300000	1000	0	0	-1	0
30276523	9499	0	0	-100	0	230	101300000	1000	0	0	-1	0
30289083	9494	3	0	-100	0	230	101300000	1000	0	0	-1	0
30301643	9494	1	0	-100	0	230	101300000	1000	0	0	-1	0
30314203	9496	0	0	-100	0	230	101300000	1000	0	0	-1	0
30326763	9504	0	0	-100	0	230	101300000	1000	0	0	-1	0
30339323	9496	1	0	-100	0	230	101300000	1000	0	0	-1	0
30351883	9492	4	0	-100	0	230	101300000	1000	0	0	-1	0
30364443	9492	5	0	-100	0	230	101300000	1000	0	0	-1	0
30377004	9508	0	0	-100	0	230	101300000	1000	0	0	-1	0
30389563	9499	0	0	-100	0	230	101300000	1000	0	0	-1	0
30402123	9494	0	0	-100	0	230	101300000	1000	0	0	-1	0
30414683	9502	1	0	-100	0	230	101300000	1000	0	0	-1	0
30427243	9494	0	0	-100	0	230	101300000	1000	0	0	-1	0
30439803	9494	1	0	-100	0	230	101300000	1000	0	0	-1	0
30452363	9496	6	0	-100	0	230	101300000	1000	0	0	-1	0
30464923	9502	0	0	-100	0	230	101300000	1000	0	0	-1	0
30477483	9494	0	0	-100	0	230	101300000	1000	0	0	-1	0
30490043	9506	0	0	-100	0	230	101300000	1000	0	0	-1	0
30502603	9499	0	0	-100	0	230	101300000	1000	0	0	-1	0
30515163	9499	3	0	-100	0	230	101300000	1000	0	0	-1	0
30527723	9494	4	0	-100	0	230	101300000	1000	0	0	-1	0
30540283	9499	0	0	-100	0	230	101300000	1000	0	0	-1	0
30552843	9504	0	0	-100	0	230	101300000	1000	0	0	-1	0
30565403	9501	0	0	-100	0	230	101300000	1000	0	0	-1	0
30577963	9496	4	0	-100	0	230	101300000	1000	0	0	-1	0
30590523	9497	0	0	-100	0	230	101300000	1000	0	0	-1	0
30603083	9491	0	0	-100	0	230	101300000	1000	0	0	-1	0
30615643	9501	0	0	-100	0	230	101300000	1000	0	0	-1	0
30628203	9487	2	0	-100	0	230	101300000	1000	0	0	-1	0
30640763	9494	6	0	-100	0	230	101300000	1000	0	0	-1	0
30653323	9499	0	0	-100	0	230	101300000	1000	0	0	-1	0
30665883	9494	0	0	-100	0	230	101300000	1000	0	0	-1	0
30678443	9497	2	0	-100	0	230	101300000	1000	0	0	-1	0
30691004	9509	0	0	-100	0	230	101300000	1000	0	0	-1	0
30703563	9504	0	0	-100	0	230	101300000	1000	0	0	-1	0
30716123	9501	0	0	-100	0	230	101300000	1000	0	0	-1	0
30728683	9504	0	0	-100	0	230	101300000	1000	0	0	-1	0
30741243	9497	4	0	-100	0	230	101300000	1000	0	0	-1	0
30753803	9501	0	0	-100	0	230	101300000	1000	0	0	-1	0
30766363	9501	0	0	-100	0	230	101300000	1000	0	0	-1	0
30778923	9497	4	0	-100	0	230	101300000	1000	0	0	-1	0
30791483	9501	0	0	-100	0	230	101300000	1000	0	0	-1	0
30804043	9501	0	0	-100	0	230	101300000	1000	0	0	-1	0
30816603	9507	0	0	-100	0	230	101300000	1000	0	0	-1	0
30829163	9499	2	0	-100	0	230	101300000	1000	0	0	-1	0
30841723	9502	1	0	-100	0	230	101300000	1000	0	0	-1	0
30854283	9504	0	0	-100	0	230	101300000	1000	0	0	-1	0
30866843	9501	0	0	-100	0	230	101300000	1000	0	0	-1	0
30879403	9504	0	0	-100	0	230	101300000	1000	0	0	-1	0
30891963	9502	2	0	-100	0	230	101300000	1000	0	0	-1	0
30904523	9494	1	0	-100	0	230	101300000	1000	0	0	-1	0
30917083	9502	4	0	-100	0	230	101300000	1000	0	0	-1	0
30929643	9491	0	0	-100	0	230	101300000	1000	0	0	-1	0
30942203	9494	0	0	-100	0	230	101300000	1000	0	0	-1	0
30954763	9501	0	0	-100	0	230	101300000	1000	0	0	-1	0
30967323	9506	0	0	-100	0	230	101300000	1000	0	0	-1	0
30979883	9496	0	0	-100	0	230	101300000	1000	0	0	-1	0
30992443	9504	0	0	-100	0	230	101300000	1000	0	0	-1	0
31005004	9506	1	0	-100	0	230	101300000	1000	0	0	-1	0
31017563	9497	2	0	-100	0	230	101300000	1000	0	0	-1	0
31030123	9502	5	0	-100	0	230	101300000	1000	0	0	-1	0
31042683	9494	1	0	-100	0	230	101300000	1000	0	0	-1	0
31055243	9494	0	0	-100	0	230	101300000	1000	0	0	-1	0
31067803	9496	0	0	-100	0	230	101300000	1000	0	0	-1	0
31080363	9492	0	0	-100	0	230	101300000	1000	0	0	-1	0
31092923	9494	5	0	-100	0	230	101300000	1000	0	0	-1	0
31105483	9494	0	0	-100	0	230	101300000	1000	0	0	-1	0
31118043	9501	0	0	-100	0	230	101300000	1000	0	0	-1	0
31130603	9506	0	0	-100	0	230	101300000	1000	0	0	-1	0
31143163	9499	2	0	-100	0	230	101300000	1000	0	0	-1	0
31155723	9497	1	0	-100	0	230	101300000	1000	0	0	-1	0
31168283	9501	0	0	-100	0	230	101300000	1000	0	0	-1	0
31180843	9504	0	0	-100	0	230	101300000	1000	0	0	-1	0
31193403	9499	0	0	-100	0	230	101300000	1000	0	0	-1	0
31205963	9494	1	0	-100	0	230	101300000	1000	0	0	-1	0
31218523	9504	4	0	-100	0	230	101300000	1000	0	0	-1	0
31231083	9491	0	0	-100	0	230	101300000	1000	0	0	-1	0
31243643	9506	0	0	-100	0	230	101300000	1000	0	0	-1	0
31256203	9504	0	0	-100	0	230	101300000	1000	0	0	-1	0
31268763	9504	1	0	-100	0	230	101300000	1000	0	0	-1	0
31281323	9502	3	0	-100	0	230	101300000	1000	0	0	-1	0
31293883	9494	4	0	-100	0	230	101300000	1000	0	0	-1	0
31306443	9494	0	0	-100	0	230	101300000	1000	0	0	-1	0
31319004	9506	0	0	-100	0	230	101300000	1000	0	0	-1	0
31331563	9509	0	0	-100	0	230	101300000	1000	0	0	-1	0
31344123	9499	0	0	-100	0	230	101300000	1000	0	0	-1	0
31356683	9494	2	0	-100	0	230	101300000	1000	0	0	-1	0
31369243	9502	0	0	-100	0	230	101300000	1000	0	0	-1	0
31381803	9491	0	0	-100	0	230	101300000	1000	0	0	-1	0
31394363	9504	0	0	-100	0	230	101300000	1000	0	0	-1	0
31406923	9499	4	0	-100	0	230	101300000	1000	0	0	-1	0
31419483	9499	0	0	-100	0	230	101300000	1000	0	0	-1	0
31432043	9504	0	0	-100	0	230	101300000	1000	0	0	-1	0
31444603	9502	0	0	-100	0	230	101300000	1000	0	0	-1	0
31457163	9507	2	0	-100	0	230	101300000	1000	0	0	-1	0
31532523	9501	0	0	-100	0	230	101300000	1000	0	0	-1	0
31545083	9494	0	0	-100	0	230	101300000	1000	0	0	-1	0
31557643	9497	4	0	-100	0	230	101300000	1000	0	0	-1	0
31570203	9502	0	0	-100	0	230	101300000	1000	0	0	-1	0
31582763	9496	0	0	-100	0	230	101300000	1000	0	0	-1	0
31595323	9502	0	0	-100	0	230	101300000	1000	0	0	-1	0
31607883	9492	4	0	-100	0	230	101300000	1000	0	0	-1	0
31620443	9499	0	0	-100	0	230	101300000	1000	0	0	-1	0
31633004	9499	0	0	-100	0	230	101300000	1000	0	0	-1	0
31645563	9506	0	0	-100	0	230	101300000	1000	0	0	-1	0
31658123	9504	4	0	-100	0	230	101300000	1000	0	0	-1	0
31670683	9499	0	0	-100	0	230	101300000	1000	0	0	-1	0
31683243	9511	0	0	-100	0	230	101300000	1000	0	0	-1	0
31695803	9499	3	0	-100	0	230	101300000	1000	0	0	-1	0
31708363	9501	0	0	-100	0	230	101300000	1000	0	0	-1	0
31720923	9507	0	0	-100	0	230	101300000	1000	0	0	-1	0
31733483	9499	4	0	-100	0	230	101300000	1000	0	0	-1	0
31746043	9506	0	0	-100	0	230	101300000	1000	0	0	-1	0
31758603	9506	0	0	-100	0	230	101300000	1000	0	0	-1	0
31771163	9507	2	0	-100	0	230	101300000	1000	0	0	-1	0
31783723	9487	0	0	-100	0	230	101300000	1000	0	0	-1	0
31796283	9502	0	0	-100	0	230	101300000	1000	0	0	-1	0
31808843	9501	4	0	-100	0	230	101300000	1000	0	0	-1	0
31821403	9504	0	0	-100	0	230	101300000	1000	0	0	-1	0
31833963	9489	2	0	-100	0	230	101300000	1000	0	0	-1	0
31846523	9502	0	0	-100	0	230	101300000	1000	0	0	-1	0
31859083	9501	0	0	-100	0	230	101300000	1000	0	0	-1	0
31871643	9497	3	0	-100	0	230	101300000	1000	0	0	-1	0
31884203	9502	0	0	-100	0	230	101300000	1000	0	0	-1	0
31896763	9504	0	0	-100	0	230	101300000	1000	0	0	-1	0
31909323	9501	1	0	-100	0	230	101300000	1000	0	0	-1	0
31921883	9492	0	0	-100	0	230	101300000	1000	0	0	-1	0
31934443	9501	0	0	-100	0	230	101300000	1000	0	0	-1	0
31947004	9506	4	0	-100	0	230	101300000	1000	0	0	-1	0
31959563	9497	4	0	-100	0	230	101300000	1000	0	0	-1	0
31972123	9494	0	0	-100	0	230	101300000	1000	0	0	-1	0
31984683	9502	0	0	-100	0	230	101300000	1000	0	0	-1	0
31997243	9502	4	0	-100	0	230	101300000	1000	0	0	-1	0
32009803	9496	0	0	-100	0	230	101300000	1000	0	0	-1	0
32022363	9499	0	0	-100	0	230	101300000	1000	0	0	-1	0
32034923	9499	4	0	-100	0	230	101300000	1000	0	0	-1	0
32047483	9504	0	0	-100	0	230	101300000	1000	0	0	-1	0
32060043	9497	3	0	-100	0	230	101300000	1000	0	0	-1	0
32072603	9499	0	0	-100	0	230	101300000	1000	0	0	-1	0
32085163	9519	0	0	-100	0	230	101300000	1000	0	0	-1	0
32097723	9494	3	0	-100	0	230	101300000	1000	0	0	-1	0
32110283	9494	0	0	-100	0	230	101300000	1000	0	0	-1	0
32122843	9501	0	0	-100	0	230	101300000	1000	0	0	-1	0
32135403	9497	1	0	-100	0	230	101300000	1000	0	0	-1	0
32147963	9487	0	0	-100	0	230	101300000	1000	0	0	-1	0
32160523	9506	0	0	-100	0	230	101300000	1000	0	0	-1	0
32173083	9487	2	0	-100	0	230	101300000	1000	0	0	-1	0
32185643	9489	0	0	-100	0	230	101300000	1000	0	0	-1	0
32198203	9499	0	0	-100	0	230	101300000	1000	0	0	-1	0
32210763	9496	2	0	-100	0	230	101300000	1000	0	0	-1	0
32223323	9494	0	0	-100	0	230	101300000	1000	0	0	-1	0
32235883	9496	0	0	-100	0	230	101300000	1000	0	0	-1	0
32248443	9504	0	0	-100	0	230	101300000	1000	0	0	-1	0
32261004	9506	0	0	-100	0	230	101300000	1000	0	0	-1	0
32273563	9499	0	0	-100	0	230	101300000	1000	0	0	-1	0
32286123	9501	0	0	-100	0	230	101300000	1000	0	0	-1	0
32298683	9494	4	0	-100	0	230	101300000	1000	0	0	-1	0
32311243	9494	0	0	-100	0	230	101300000	1000	0	0	-1	0
32323803	9504	0	0	-100	0	230	101300000	1000	0	0	-1	0
32336363	9497	3	0	-100	0	230	101300000	1000	0	0	-1	0
32348923	9484	0	0	-100	0	230	101300000	1000	0	0	-1	0
32361483	9501	0	0	-100	0	230	101300000	1000	0	0	-1	0
32374043	9492	1	0	-100	0	230	101300000	1000	0	0	-1	0
32386603	9499	0	0	-100	0	230	101300000	1000	0	0	-1	0
32399163	9504	0	0	-100	0	230	101300000	1000	0	0	-1	0
32411723	9497	4	0	-100	0	230	101300000	1000	0	0	-1	0
32424283	9496	0	0	-100	0	230	101300000	1000	0	0	-1	0
32436843	9502	0	0	-100	0	230	101300000	1000	0	0	-1	0
32449403	9499	3	0	-100	0	230	101300000	1000	0	0	-1	0
32461963	9504	0	0	-100	0	230	101300000	1000	0	0	-1	0
32474523	9506	0	0	-100	0	230	101300000	1000	0	0	-1	0
32487083	9496	2	0	-100	0	230	101300000	1000	0	0	-1	0
32499643	9491	1	0	-100	0	230	101300000	1000	0	0	-1	0
32512203	9501	0	0	-100	0	230	101300000	1000	0	0	-1	0
32524763	9499	0	0	-100	0	230	101300000	1000	0	0	-1	0
32537323	9497	4	0	-100	0	230	101300000	1000	0	0	-1	0
32549883	9497	0	0	-100	0	230	101300000	1000	0	0	-1	0
32562443	9511	0	0	-100	0	230	101300000	1000	0	0	-1	0
32575004	9502	0	0	-100	0	230	101300000	1000	0	0	-1	0
32587563	9489	0	0	-100	0	230	101300000	1000	0	0	-1	0
32600123	9504	0	0	-100	0	230	101300000	1000	0	0	-1	0
32612683	9494	0	0	-100	0	230	101300000	1000	0	0	-1	0
32625243	9494	6	0	-100	0	230	101300000	1000	0	0	-1	0
32637803	9504	0	0	-100	0	230	101300000	1000	0	0	-1	0
32650363	9504	0	0	-100	0	230	101300000	1000	0	0	-1	0
32662923	9497	0	0	-100	0	230	101300000	1000	0	0	-1	0
32675483	9499	4	0	-100	0	230	101300000	1000	0	0	-1	0
32688043	9494	0	0	-100	0	230	101300000	1000	0	0	-1	0
32700603	9509	0	0	-100	0	230	101300000	1000	0	0	-1	0
32713163	9507	4	0	-100	0	230	101300000	1000	0	0	-1	0
32725723	9496	0	0	-100	0	230	101300000	1000	0	0	-1	0
32738283	9506	0	0	-100	0	230	101300000	1000	0	0	-1	0
32750843	9504	4	0	-100	0	230	101300000	1000	0	0	-1	0
32763403	9504	0	0	-100	0	230	101300000	1000	0	0	-1	0
32775963	9497	0	0	-100	0	230	101300000	1000	0	0	-1	0
32788523	9492	0	0	-100	0	230	101300000	1000	0	0	-1	0
32801083	9504	0	0	-100	0	230	101300000	1000	0	0	-1	0
32813643	9497	4	0	-100	0	230	101300000	1000	0	0	-1	0
32826203	9491	0	0	-100	0	230	101300000	1000	0	0	-1	0
32838763	9504	0	0	-100	0	230	101300000	1000	0	0	-1	0
32851323	9501	4	0	-100	0	230	101300000	1000	0	0	-1	0
32863883	9492	0	0	-100	0	230	101300000	1000	0	0	-1	0
32876443	9496	0	0	-100	0	230	101300000	1000	0	0	-1	0
32889004	9496	0	0	-100	0	230	101300000	1000	0	0	-1	0
32901563	9494	0	0	-100	0	230	101300000	1000	0	0	-1	0
32914123	9496	0	0	-100	0	230	101300000	1000	0	0	-1	0
32926683	9499	4	0	-100	0	230	101300000	1000	0	0	-1	0
32939243	9496	0	0	-100	0	230	101300000	1000	0	0	-1	0
32951803	9502	0	0	-100	0	230	101300000	1000	0	0	-1	0
32964363	9491	0	0	-100	0	230	101300000	1000	0	0	-1	0
32976923	9499	0	0	-100	0	230	101300000	1000	0	0	-1	0
32989483	9489	2	0	-100	0	230	101300000	1000	0	0	-1	0
33002043	9492	0	0	-100	0	230	101300000	1000	0	0	-1	0
33014603	9506	0	0	-100	0	230	101300000	1000	0	0	-1	0
33027163	9504	3	0	-100	0	230	101300000	1000	0	0	-1	0
33039723	9497	0	0	-100	0	230	101300000	1000	0	0	-1	0
33052283	9501	0	0	-100	0	230	101300000	1000	0	0	-1	0
33064843	9499	0	0	-100	0	230	101300000	1000	0	0	-1	0
33077403	9499	3	0	-100	0	230	101300000	1000	0	0	-1	0
33089963	9492	0	0	-100	0	230	101300000	1000	0	0	-1	0
33102523	9501	0	0	-100	0	230	101300000	1000	0	0	-1	0
33115083	9509	0	0	-100	0	230	101300000	1000	0	0	-1	0
33127643	9494	1	0	-100	0	230	101300000	1000	0	0	-1	0
33140203	9499	4	0	-100	0	230	101300000	1000	0	0	-1	0
33152763	9497	0	0	-100	0	230	101300000	1000	0	0	-1	0
33165323	9499	0	0	-100	0	230	101300000	1000	0	0	-1	0
33177883	9499	0	0	-100	0	230	101300000	1000	0	0	-1	0
33190443	9499	3	0	-100	0	230	101300000	1000	0	0	-1	0
33203004	9506	0	0	-100	0	230	101300000	1000	0	0	-1	0
33215563	9504	0	0	-100	0	230	101300000	1000	0	0	-1	0
33228123	9506	0	0	-100	0	230	101300000	1000	0	0	-1	0
33240683	9494	0	0	-100	0	230	101300000	1000	0	0	-1	0
33253243	9499	3	0	-100	0	230	101300000	1000	0	0	-1	0
33265803	9492	0	0	-100	0	230	101300000	1000	0	0	-1	0
33278363	9499	0	0	-100	0	230	101300000	1000	0	0	-1	0
33290923	9499	0	0	-100	0	230	101300000	1000	0	0	-1	0
33303483	9494	0	0	-100	0	230	101300000	1000	0	0	-1	0
33316043	9492	2	0	-100	0	230	101300000	1000	0	0	-1	0
33328603	9502	4	0	-100	0	230	101300000	1000	0	0	-1	0
33341163	9506	0	0	-100	0	230	101300000	1000	0	0	-1	0
33353723	9494	0	0	-100	0	230	101300000	1000	0	0	-1	0
33366283	9494	0	0	-100	0	230	101300000	1000	0	0	-1	0
33378843	9497	0	0	-100	0	230	101300000	1000	0	0	-1	0
33391403	9497	3	0	-100	0	230	101300000	1000	0	0	-1	0
33403963	9494	0	0	-100	0	230	101300000	1000	0	0	-1	0
33416523	9499	0	0	-100	0	230	101300000	1000	0	0	-1	0
33429083	9499	0	0	-100	0	230	101300000	1000	0	0	-1	0
33441643	9502	2	0	-100	0	230	101300000	1000	0	0	-1	0
33454203	9499	2	0	-100	0	230	101300000	1000	0	0	-1	0
33466763	9496	0	0	-100	0	230	101300000	1000	0	0	-1	0
33479323	9494	0	0	-100	0	230	101300000	1000	0	0	-1	0
33491883	9499	0	0	-100	0	230	101300000	1000	0	0	-1	0
33504443	9506	0	0	-100	0	230	101300000	1000	0	0	-1	0
33517004	9509	0	0	-100	0	230	101300000	1000	0	0	-1	0
33529563	9494	4	0	-100	0	230	101300000	1000	0	0	-1	0
33542123	9492	5	0	-100	0	230	101300000	1000	0	0	-1	0
33554683	9494	0	0	-100	0	230	101300000	1000	0	0	-1	0
33567243	9499	0	0	-100	0	230	101300000	1000	0	0	-1	0
33579803	9499	0	0	-100	0	230	101300000	1000	0	0	-1	0
33592363	9497	0	0	-100	0	230	101300000	1000	0	0	-1	0
33604923	9497	3	0	-100	0	230	101300000	1000	0	0	-1	0
33617483	9492	4	0	-100	0	230	101300000	1000	0	0	-1	0
33630043	9494	0	0	-100	0	230	101300000	1000	0	0	-1	0
33642603	9499	0	0	-100	0	230	101300000	1000	0	0	-1	0
33655163	9511	0	0	-100	0	230	101300000	1000	0	0	-1	0
33667723	9502	0	0	-100	0	230	101300000	1000	0	0	-1	0
33680283	9496	2	0	-100	0	230	101300000	1000	0	0	-1	0
33692843	9492	3	0	-100	0	230	101300000	1000	0	0	-1	0
33705403	9504	4	0	-100	0	230	101300000	1000	0	0	-1	0
33717963	9504	4	0	-100	0	230	101300000	1000	0	0	-1	0
33730523	9489	0	0	-100	0	230	101300000	1000	0	0	-1	0
33743083	9494	0	0	-100	0	230	101300000	1000	0	0	-1	0
33755643	9491	0	0	-100	0	230	101300000	1000	0	0	-1	0
33768203	9494	0	0	-100	0	230	101300000	1000	0	0	-1	0
33780763	9489	0	0	-100	0	230	101300000	1000	0	0	-1	0
33793323	9499	0	0	-100	0	230	101300000	1000	0	0	-1	0
33805883	9496	0	0	-100	0	230	101300000	1000	0	0	-1	0
33818443	9497	0	0	-100	0	230	101300000	1000	0	0	-1	0
33831004	9504	0	0	-100	0	230	101300000	1000	0	0	-1	0
33843563	9499	0	0	-100	0	230	101300000	1000	0	0	-1	0
33856123	9501	0	0	-100	0	230	101300000	1000	0	0	-1	0
33868683	9499	0	0	-100	0	230	101300000	1000	0	0	-1	0
33881243	9496	0	0	-100	0	230	101300000	1000	0	0	-1	0
33893803	9499	1	0	-100	0	230	101300000	1000	0	0	-1	0
33906363	9499	1	0	-100	0	230	101300000	1000	0	0	-1	0
33918923	9489	5	0	-100	0	230	101300000	1000	0	0	-1	0
33931483	9492	0	0	-100	0	230	101300000	1000	0	0	-1	0
33944043	9496	0	0	-100	0	230	101300000	1000	0	0	-1	0
33956603	9494	0	0	-100	0	230	101300000	1000	0	0	-1	0
33969163	9511	0	0	-100	0	230	101300000	1000	0	0	-1	0
33981723	9496	0	0	-100	0	230	101300000	1000	0	0	-1	0
33994283	9509	0	0	-100	0	230	101300000	1000	0	0	-1	0
34006843	9504	0	0	-100	0	230	101300000	1000	0	0	-1	0
34019403	9494	0	0	-100	0	230	101300000	1000	0	0	-1	0
34031963	9496	2	0	-100	0	230	101300000	1000	0	0	-1	0
34044523	9502	4	0	-100	0	230	101300000	1000	0	0	-1	0
34057083	9494	5	0	-100	0	230	101300000	1000	0	0	-1	0
34069643	9502	3	0	-100	0	230	101300000	1000	0	0	-1	0
34082203	9487	0	0	-100	0	230	101300000	1000	0	0	-1	0
34094763	9504	0	0	-100	0	230	101300000	1000	0	0	-1	0
34107323	9504	0	0	-100	0	230	101300000	1000	0	0	-1	0
34119883	9504	0	0	-100	0	230	101300000	1000	0	0	-1	0
34132443	9504	1	0	-100	0	230	101300000	1000	0	0	-1	0
34145004	9504	0	0	-100	0	230	101300000	1000	0	0	-1	0
34157563	9501	0	0	-100	0	230	101300000	1000	0	0	-1	0
34170123	9496	0	0	-100	0	230	101300000	1000	0	0	-1	0
34182683	9499	0	0	-100	0	230	101300000	1000	0	0	-1	0
34195243	9504	2	0	-100	0	230	101300000	1000	0	0	-1	0
34207803	9504	0	0	-100	0	230	101300000	1000	0	0	-1	0
34220363	9501	0	0	-100	0	230	101300000	1000	0	0	-1	0
34232923	9506	0	0	-100	0	230	101300000	1000	0	0	-1	0
34245483	9497	4	0	-100	0	230	101300000	1000	0	0	-1	0
34258043	9489	0	0	-100	0	230	101300000	1000	0	0	-1	0
34270603	9504	0	0	-100	0	230	101300000	1000	0	0	-1	0
34283163	9506	0	0	-100	0	230	101300000	1000	0	0	-1	0
34295723	9506	5	0	-100	0	230	101300000	1000	0	0	-1	0
34308283	9494	0	0	-100	0	230	101300000	1000	0	0	-1	0
34320843	9501	0	0	-100	0	230	101300000	1000	0	0	-1	0
34333403	9497	1	0	-100	0	230	101300000	1000	0	0	-1	0
34345963	9486	0	0	-100	0	230	101300000	1000	0	0	-1	0
34358523	9499	0	0	-100	0	230	101300000	1000	0	0	-1	0
34371083	9496	0	0	-100	0	230	101300000	1000	0	0	-1	0
34433883	9494	0	0	-100	0	230	101300000	1000	0	0	-1	0
34446443	9504	0	0	-100	0	230	101300000	1000	0	0	-1	0
34459004	9499	4	0	-100	0	230	101300000	1000	0	0	-1	0
34471563	9499	0	0	-100	0	230	101300000	1000	0	0	-1	0
34484123	9492	1	0	-100	0	230	101300000	1000	0	0	-1	0
34496683	9494	1	0	-100	0	230	101300000	1000	0	0	-1	0
34509243	9497	1	0	-100	0	230	101300000	1000	0	0	-1	0
34521803	9497	1	0	-100	0	230	101300000	1000	0	0	-1	0
34534363	9497	4	0	-100	0	230	101300000	1000	0	0	-1	0
34546923	9494	0	0	-100	0	230	101300000	1000	0	0	-1	0
34559483	9499	0	0	-100	0	230	101300000	1000	0	0	-1	0
34572043	9501	0	0	-100	0	230	101300000	1000	0	0	-1	0
34609723	9501	0	0	-100	0	230	101300000	1000	0	0	-1	0
34622283	9489	0	0	-100	0	230	101300000	1000	0	0	-1	0
34634843	9499	4	0	-100	0	230	101300000	1000	0	0	-1	0
34647403	9499	2	0	-100	0	230	101300000	1000	0	0	-1	0
34659963	9494	1	0	-100	0	230	101300000	1000	0	0	-1	0
34672523	9494	0	0	-100	0	230	101300000	1000	0	0	-1	0
34685083	9501	0	0	-100	0	230	101300000	1000	0	0	-1	0
34697643	9496	0	0	-100	0	230	101300000	1000	0	0	-1	0
34710203	9501	0	0	-100	0	230	101300000	1000	0	0	-1	0
34722763	9492	0	0	-100	0	230	101300000	1000	0	0	-1	0
34735323	9492	3	0	-100	0	230	101300000	1000	0	0	-1	0
34747883	9499	4	0	-100	0	230	101300000	1000	0	0	-1	0
34760443	9496	4	0	-100	0	230	101300000	1000	0	0	-1	0
34773004	9514	0	0	-100	0	230	101300000	1000	0	0	-1	0
34785563	9492	3	0	-100	0	230	101300000	1000	0	0	-1	0
34798123	9494	4	0	-100	0	230	101300000	1000	0	0	-1	0
34810683	9496	4	0	-100	0	230	101300000	1000	0	0	-1	0
34823243	9504	4	0	-100	0	230	101300000	1000	0	0	-1	0
34835803	9499	4	0	-100	0	230	101300000	1000	0	0	-1	0
34848363	9494	2	0	-100	0	230	101300000	1000	0	0	-1	0
34860923	9501	1	0	-100	0	230	101300000	1000	0	0	-1	0
34873483	9501	0	0	-100	0	230	101300000	1000	0	0	-1	0
34886043	9506	0	0	-100	0	230	101300000	1000	0	0	-1	0
34898603	9504	0	0	-100	0	230	101300000	1000	0	0	-1	0
34911163	9506	0	0	-100	0	230	101300000	1000	0	0	-1	0
34923723	9499	0	0	-100	0	230	101300000	1000	0	0	-1	0
34936283	9501	0	0	-100	0	230	101300000	1000	0	0	-1	0
34948843	9504	0	0	-100	0	230	101300000	1000	0	0	-1	0
34961403	9494	0	0	-100	0	230	101300000	1000	0	0	-1	0
34973963	9494	0	0	-100	0	230	101300000	1000	0	0	-1	0
34986523	9494	0	0	-100	0	230	101300000	1000	0	0	-1	0
34999083	9491	0	0	-100	0	230	101300000	1000	0	0	-1	0
35011643	9499	0	0	-100	0	230	101300000	1000	0	0	-1	0
35024203	9491	0	0	-100	0	230	101300000	1000	0	0	-1	0
35036763	9501	3	0	-100	0	230	101300000	1000	0	0	-1	0
35049323	9492	4	0	-100	0	230	101300000	1000	0	0	-1	0
35061883	9496	2	0	-100	0	230	101300000	1000	0	0	-1	0
35074443	9499	0	0	-100	0	230	101300000	1000	0	0	-1	0
35087004	9509	3	0	-100	0	230	101300000	1000	0	0	-1	0
35099563	9501	0	0	-100	0	230	101300000	1000	0	0	-1	0
35112123	9504	0	0	-100	0	230	101300000	1000	0	0	-1	0
35124683	9497	0	0	-100	0	230	101300000	1000	0	0	-1	0
35137243	9496	5	0	-100	0	230	101300000	1000	0	0	-1	0
35149803	9501	0	0	-100	0	230	101300000	1000	0	0	-1	0
35162363	9509	0	0	-100	0	230	101300000	1000	0	0	-1	0
35174923	9489	0	0	-100	0	230	101300000	1000	0	0	-1	0
35187483	9504	4	0	-100	0	230	101300000	1000	0	0	-1	0
35200043	9494	4	0	-100	0	230	101300000	1000	0	0	-1	0
35212603	9497	0	0	-100	0	230	101300000	1000	0	0	-1	0
35225163	9514	0	0	-100	0	230	101300000	1000	0	0	-1	0
35237723	9509	0	0	-100	0	230	101300000	1000	0	0	-1	0
35250283	9506	0	0	-100	0	230	101300000	1000	0	0	-1	0
35262843	9501	0	0	-100	0	230	101300000	1000	0	0	-1	0
35275403	9501	0	0	-100	0	230	101300000	1000	0	0	-1	0
35287963	9499	0	0	-100	0	230	101300000	1000	0	0	-1	0
35300523	9504	0	0	-100	0	230	101300000	1000	0	0	-1	0
35313083	9504	0	0	-100	0	230	101300000	1000	0	0	-1	0
35325643	9496	0	0	-100	0	230	101300000	1000	0	0	-1	0
35338203	9496	0	0	-100	0	230	101300000	1000	0	0	-1	0
35350763	9499	0	0	-100	0	230	101300000	1000	0	0	-1	0
35363323	9494	0	0	-100	0	230	101300000	1000	0	0	-1	0
35375883	9494	4	0	-100	0	230	101300000	1000	0	0	-1	0
35388443	9489	1	0	-100	0	230	101300000	1000	0	0	-1	0
35401004	9499	3	0	-100	0	230	101300000	1000	0	0	-1	0
35413563	9499	0	0	-100	0	230	101300000	1000	0	0	-1	0
35426123	9504	0	0	-100	0	230	101300000	1000	0	0	-1	0
35438683	9496	0	0	-100	0	230	101300000	1000	0	0	-1	0
35451243	9497	4	0	-100	0	230	101300000	1000	0	0	-1	0
35463803	9497	2	0	-100	0	230	101300000	1000	0	0	-1	0
35476363	9497	0	0	-100	0	230	101300000	1000	0	0	-1	0
35488923	9504	0	0	-100	0	230	101300000	1000	0	0	-1	0
35501483	9503	0	0	-100	0	230	101300000	1000	0	0	-1	0
35514043	9494	0	0	-100	0	230	101300000	1000	0	0	-1	0
35526603	9504	0	0	-100	0	230	101300000	1000	0	0	-1	0
35539163	9511	0	0	-100	0	230	101300000	1000	0	0	-1	0
35551723	9499	0	0	-100	0	230	101300000	1000	0	0	-1	0
35564283	9501	0	0	-100	0	230	101300000	1000	0	0	-1	0
35576843	9499	0	0	-100	0	230	101300000	1000	0	0	-1	0
35589403	9496	0	0	-100	0	230	101300000	1000	0	0	-1	0
35601963	9494	0	0	-100	0	230	101300000	1000	0	0	-1	0
35614523	9499	0	0	-100	0	230	101300000	1000	0	0	-1	0
35627083	9491	2	0	-100	0	230	101300000	1000	0	0	-1	0
35639643	9502	3	0	-100	0	230	101300000	1000	0	0	-1	0
35652203	9494	4	0	-100	0	230	101300000	1000	0	0	-1	0
35664763	9506	0	0	-100	0	230	101300000	1000	0	0	-1	0
35677323	9494	0	0	-100	0	230	101300000	1000	0	0	-1	0
35689883	9504	0	0	-100	0	230	101300000	1000	0	0	-1	0
35702443	9504	0	0	-100	0	230	101300000	1000	0	0	-1	0
35715004	9501	0	0	-100	0	230	101300000	1000	0	0	-1	0
35727563	9499	0	0	-100	0	230	101300000	1000	0	0	-1	0
35740123	9494	0	0	-100	0	230	101300000	1000	0	0	-1	0
35752683	9491	0	0	-100	0	230	101300000	1000	0	0	-1	0
35765243	9497	4	0	-100	0	230	101300000	1000	0	0	-1	0
35777803	9494	3	0	-100	0	230	101300000	1000	0	0	-1	0
35790363	9504	0	0	-100	0	230	101300000	1000	0	0	-1	0
35802923	9501	0	0	-100	0	230	101300000	1000	0	0	-1	0
35815483	9507	0	0	-100	0	230	101300000	1000	0	0	-1	0
35828043	9494	0	0	-100	0	230	101300000	1000	0	0	-1	0
35840603	9502	1	0	-100	0	230	101300000	1000	0	0	-1	0
35853163	9502	4	0	-100	0	230	101300000	1000	0	0	-1	0
35865723	9492	5	0	-100	0	230	101300000	1000	0	0	-1	0
35878283	9497	6	0	-100	0	230	101300000	1000	0	0	-1	0
35890843	9494	4	0	-100	0	230	101300000	1000	0	0	-1	0
35903403	9497	3	0	-100	0	230	101300000	1000	0	0	-1	0
35915963	9494	0	0	-100	0	230	101300000	1000	0	0	-1	0
35928523	9499	0	0	-100	0	230	101300000	1000	0	0	-1	0
35941083	9499	0	0	-100	0	230	101300000	1000	0	0	-1	0
35953643	9494	0	0	-100	0	230	101300000	1000	0	0	-1	0
35966203	9497	2	0	-100	0	230	101300000	1000	0	0	-1	0
35978763	9499	1	0	-100	0	230	101300000	1000	0	0	-1	0
35991323	9504	0	0	-100	0	230	101300000	1000	0	0	-1	0
36003883	9499	0	0	-100	0	230	101300000	1000	0	0	-1	0
36016443	9504	0	0	-100	0	230	101300000	1000	0	0	-1	0
36029004	9506	0	0	-100	0	230	101300000	1000	0	0	-1	0
36041563	9496	0	0	-100	0	230	101300000	1000	0	0	-1	0
36054123	9502	4	0	-100	0	230	101300000	1000	0	0	-1	0
36066683	9492	4	0	-100	0	230	101300000	1000	0	0	-1	0
36079243	9497	2	0	-100	0	230	101300000	1000	0	0	-1	0
36091803	9499	0	0	-100	0	230	101300000	1000	0	0	-1	0
36104363	9504	0	0	-100	0	230	101300000	1000	0	0	-1	0
36116923	9499	0	0	-100	0	230	101300000	1000	0	0	-1	0
36129483	9496	0	0	-100	0	230	101300000	1000	0	0	-1	0
36142043	9487	0	0	-100	0	230	101300000	1000	0	0	-1	0
36154603	9499	5	0	-100	0	230	101300000	1000	0	0	-1	0
36167163	9499	0	0	-100	0	230	101300000	1000	0	0	-1	0
36179723	9501	0	0	-100	0	230	101300000	1000	0	0	-1	0
36192283	9499	0	0	-100	0	230	101300000	1000	0	0	-1	0
36204843	9506	0	0	-100	0	230	101300000	1000	0	0	-1	0
36217403	9501	0	0	-100	0	230	101300000	1000	0	0	-1	0
36229963	9501	0	0	-100	0	230	101300000	1000	0	0	-1	0
36242523	9501	0	0	-100	0	230	101300000	1000	0	0	-1	0
36255083	9501	0	0	-100	0	230	101300000	1000	0	0	-1	0
