timestamp	voltage	current	windSpeed	pitchAngle	rpm	temperature	ambientPressure	humidity	accelerationX	accelerationY	accelerationZ	currentSink
7038070	2006	0	0	-100	0	230	101300000	1000	0	0	-1	0
7045523	2003	0	0	-100	0	230	101300000	1000	0	0	-1	0
7058083	1998	0	0	-100	0	230	101300000	1000	0	0	-1	0
7070643	2001	0	0	-100	0	230	101300000	1000	0	0	-1	0
7083203	2001	0	0	-100	0	230	101300000	1000	0	0	-1	0
7095763	1999	4	0	-100	0	230	101300000	1000	0	0	-1	0
7108323	1999	4	0	-100	0	230	101300000	1000	0	0	-1	0
7120883	2000	1	0	-100	0	230	101300000	1000	0	0	-1	0
7133443	2000	1	0	-100	0	230	101300000	1000	0	0	-1	0
7146004	2007	0	0	-100	0	230	101300000	1000	0	0	-1	0
7158563	2006	0	0	-100	0	230	101300000	1000	0	0	-1	0
7171123	2003	0	0	-100	0	230	101300000	1000	0	0	-1	0
7183683	2005	0	0	-100	0	230	101300000	1000	0	0	-1	0
7196243	2006	0	0	-100	0	230	101300000	1000	0	0	-1	0
7208803	2006	0	0	-100	0	230	101300000	1000	0	0	-1	0
7221363	2006	0	0	-100	0	230	101300000	1000	0	0	-1	0
7233923	2007	0	0	-100	0	230	101300000	1000	0	0	-1	0
7246483	2004	0	0	-100	0	230	101300000	1000	0	0	-1	0
7259043	2004	0	0	-100	0	230	101300000	1000	0	0	-1	0
7271603	2004	0	0	-100	0	230	101300000	1000	0	0	-1	0
7284163	2011	0	0	-100	0	230	101300000	1000	0	0	-1	0
7296723	2005	0	0	-100	0	230	101300000	1000	0	0	-1	0
7309283	2004	0	0	-100	0	230	101300000	1000	0	0	-1	0
7321843	2004	0	0	-100	0	230	101300000	1000	0	0	-1	0
7334403	2001	0	0	-100	0	230	101300000	1000	0	0	-1	0
7346963	1998	0	0	-100	0	230	101300000	1000	0	0	-1	0
7677555	133	1022	0	-100	0	230	101300000	1000	0	0	-1	1000
7690115	133	1019	0	-100	0	230	101300000	1000	0	0	-1	1000
7702675	128	1026	0	-100	0	230	101300000	1000	0	0	-1	1000
7715235	128	1029	0	-100	0	230	101300000	1000	0	0	-1	1000
7727795	128	1031	0	-100	0	230	101300000	1000	0	0	-1	1000
7740355	128	1027	0	-100	0	230	101300000	1000	0	0	-1	1000
7752915	128	1024	0	-100	0	230	101300000	1000	0	0	-1	1000
7765475	133	1023	0	-100	0	230	101300000	1000	0	0	-1	1000
7778035	135	1018	0	-100	0	230	101300000	1000	0	0	-1	1000
7790595	133	1024	0	-100	0	230	101300000	1000	0	0	-1	1000
7803155	133	1028	0	-100	0	230	101300000	1000	0	0	-1	1000
7815715	128	1031	0	-100	0	230	101300000	1000	0	0	-1	1000
7828275	128	1028	0	-100	0	230	101300000	1000	0	0	-1	1000
7840835	128	1023	0	-100	0	230	101300000	1000	0	0	-1	1000
7853395	130	1022	0	-100	0	230	101300000	1000	0	0	-1	1000
7865955	130	1023	0	-100	0	230	101300000	1000	0	0	-1	1000
7878515	133	1022	0	-100	0	230	101300000	1000	0	0	-1	1000
7891075	135	1022	0	-100	0	230	101300000	1000	0	0	-1	1000
7903635	130	1022	0	-100	0	230	101300000	1000	0	0	-1	1000
7916195	133	1022	0	-100	0	230	101300000	1000	0	0	-1	1000
7928755	130	1022	0	-100	0	230	101300000	1000	0	0	-1	1000
7941315	133	1022	0	-100	0	230	101300000	1000	0	0	-1	1000
7953875	135	1023	0	-100	0	230	101300000	1000	0	0	-1	1000
7966435	135	1021	0	-100	0	230	101300000	1000	0	0	-1	1000
7978995	135	1027	0	-100	0	230	101300000	1000	0	0	-1	1000
7991555	135	1024	0	-100	0	230	101300000	1000	0	0	-1	1000
8004115	130	1023	0	-100	0	230	101300000	1000	0	0	-1	1000
8016675	128	1026	0	-100	0	230	101300000	1000	0	0	-1	1000
8029235	126	1028	0	-100	0	230	101300000	1000	0	0	-1	1000
8041795	128	1031	0	-100	0	230	101300000	1000	0	0	-1	1000
8054355	130	1031	0	-100	0	230	101300000	1000	0	0	-1	1000
8066915	126	1025	0	-100	0	230	101300000	1000	0	0	-1	1000
8079475	128	1024	0	-100	0	230	101300000	1000	0	0	-1	1000
8092035	130	1021	0	-100	0	230	101300000	1000	0	0	-1	1000
8104595	130	1023	0	-100	0	230	101300000	1000	0	0	-1	1000
8117155	138	1024	0	-100	0	230	101300000	1000	0	0	-1	1000
8129715	135	1022	0	-100	0	230	101300000	1000	0	0	-1	1000
8142275	135	1023	0	-100	0	230	101300000	1000	0	0	-1	1000
8154835	135	1019	0	-100	0	230	101300000	1000	0	0	-1	1000
8167395	135	1022	0	-100	0	230	101300000	1000	0	0	-1	1000
8179955	130	1025	0	-100	0	230	101300000	1000	0	0	-1	1000
8192515	126	1026	0	-100	0	230	101300000	1000	0	0	-1	1000
8205075	128	1030	0	-100	0	230	101300000	1000	0	0	-1	1000
8217635	128	1032	0	-100	0	230	101300000	1000	0	0	-1	1000
8230195	128	1027	0	-100	0	230	101300000	1000	0	0	-1	1000
8242755	130	1022	0	-100	0	230	101300000	1000	0	0	-1	1000
8255315	133	1024	0	-100	0	230	101300000	1000	0	0	-1	1000
8267875	133	1024	0	-100	0	230	101300000	1000	0	0	-1	1000
8280435	133	1021	0	-100	0	230	101300000	1000	0	0	-1	1000
8292995	133	1032	0	-100	0	230	101300000	1000	0	0	-1	1000
8305555	128	1026	0	-100	0	230	101300000	1000	0	0	-1	1000
8318115	126	1026	0	-100	0	230	101300000	1000	0	0	-1	1000
8330675	128	1032	0	-100	0	230	101300000	1000	0	0	-1	1000
8343235	130	1028	0	-100	0	230	101300000	1000	0	0	-1	1000
8355795	130	1025	0	-100	0	230	101300000	1000	0	0	-1	1000
8368355	133	1022	0	-100	0	230	101300000	1000	0	0	-1	1000
8380915	138	1024	0	-100	0	230	101300000	1000	0	0	-1	1000
8393475	135	1022	0	-100	0	230	101300000	1000	0	0	-1	1000
8406035	130	1023	0	-100	0	230	101300000	1000	0	0	-1	1000
8418595	128	1027	0	-100	0	230	101300000	1000	0	0	-1	1000
8431155	133	1029	0	-100	0	230	101300000	1000	0	0	-1	1000
8443715	128	1026	0	-100	0	230	101300000	1000	0	0	-1	1000
8456275	130	1022	0	-100	0	230	101300000	1000	0	0	-1	1000
8468835	133	1022	0	-100	0	230	101300000	1000	0	0	-1	1000
8481395	135	1021	0	-100	0	230	101300000	1000	0	0	-1	1000
8493955	126	1026	0	-100	0	230	101300000	1000	0	0	-1	1000
8506515	130	1031	0	-100	0	230	101300000	1000	0	0	-1	1000
8519075	128	1026	0	-100	0	230	101300000	1000	0	0	-1	1000
8531635	133	1022	0	-100	0	230	101300000	1000	0	0	-1	1000
8544195	133	1024	0	-100	0	230	101300000	1000	0	0	-1	1000
8556755	135	1022	0	-100	0	230	101300000	1000	0	0	-1	1000
8569315	130	1026	0	-100	0	230	101300000	1000	0	0	-1	1000
8581875	128	1029	0	-100	0	230	101300000	1000	0	0	-1	1000
8594435	130	1031	0	-100	0	230	101300000	1000	0	0	-1	1000
8606995	130	1022	0	-100	0	230	101300000	1000	0	0	-1	1000
8619555	128	1027	0	-100	0	230	101300000	1000	0	0	-1	1000
8632115	128	1026	0	-100	0	230	101300000	1000	0	0	-1	1000
8644675	128	1023	0	-100	0	230	101300000	1000	0	0	-1	1000
8657235	133	1023	0	-100	0	230	101300000	1000	0	0	-1	1000
8669795	133	1022	0	-100	0	230	101300000	1000	0	0	-1	1000
8682355	133	1024	0	-100	0	230	101300000	1000	0	0	-1	1000
8694915	133	1020	0	-100	0	230	101300000	1000	0	0	-1	1000
8707475	133	1023	0	-100	0	230	101300000	1000	0	0	-1	1000
8720035	128	1027	0	-100	0	230	101300000	1000	0	0	-1	1000
8732595	128	1027	0	-100	0	230	101300000	1000	0	0	-1	1000
8745155	133	1031	0	-100	0	230	101300000	1000	0	0	-1	1000
8757715	128	1030	0	-100	0	230	101300000	1000	0	0	-1	1000
8770275	130	1026	0	-100	0	230	101300000	1000	0	0	-1	1000
8782835	130	1027	0	-100	0	230	101300000	1000	0	0	-1	1000
8795395	130	1030	0	-100	0	230	101300000	1000	0	0	-1	1000
8807955	130	1032	0	-100	0	230	101300000	1000	0	0	-1	1000
8820515	128	1032	0	-100	0	230	101300000	1000	0	0	-1	1000
8833075	128	1026	0	-100	0	230	101300000	1000	0	0	-1	1000
8845635	128	1026	0	-100	0	230	101300000	1000	0	0	-1	1000
8858195	133	1024	0	-100	0	230	101300000	1000	0	0	-1	1000
8870755	133	1023	0	-100	0	230	101300000	1000	0	0	-1	1000
8883315	135	1022	0	-100	0	230	101300000	1000	0	0	-1	1000
8895875	130	1026	0	-100	0	230	101300000	1000	0	0	-1	1000
8908435	128	1029	0	-100	0	230	101300000	1000	0	0	-1	1000
8920995	128	1024	0	-100	0	230	101300000	1000	0	0	-1	1000
8933555	128	1028	0	-100	0	230	101300000	1000	0	0	-1	1000
8946115	128	1023	0	-100	0	230	101300000	1000	0	0	-1	1000
8958675	133	1023	0	-100	0	230	101300000	1000	0	0	-1	1000
8971235	128	1025	0	-100	0	230	101300000	1000	0	0	-1	1000
8983795	128	1030	0	-100	0	230	101300000	1000	0	0	-1	1000
8996355	128	1027	0	-100	0	230	101300000	1000	0	0	-1	1000
9008915	130	1023	0	-100	0	230	101300000	1000	0	0	-1	1000
9021475	133	1025	0	-100	0	230	101300000	1000	0	0	-1	1000
9034035	133	1021	0	-100	0	230	101300000	1000	0	0	-1	1000
9046595	135	1023	0	-100	0	230	101300000	1000	0	0	-1	1000
9059155	140	1025	0	-100	0	230	101300000	1000	0	0	-1	1000
9071715	130	1023	0	-100	0	230	101300000	1000	0	0	-1	1000
9096835	126	1028	0	-100	0	230	101300000	1000	0	0	-1	1000
9109395	128	1026	0	-100	0	230	101300000	1000	0	0	-1	1000
9121955	133	1023	0	-100	0	230	101300000	1000	0	0	-1	1000
9134515	135	1022	0	-100	0	230	101300000	1000	0	0	-1	1000
9147075	133	1025	0	-100	0	230	101300000	1000	0	0	-1	1000
9159635	126	1028	0	-100	0	230	101300000	1000	0	0	-1	1000
9172195	130	1027	0	-100	0	230	101300000	1000	0	0	-1	1000
9184755	128	1024	0	-100	0	230	101300000	1000	0	0	-1	1000
9197315	133	1022	0	-100	0	230	101300000	1000	0	0	-1	1000
9209875	135	1022	0	-100	0	230	101300000	1000	0	0	-1	1000
9222435	128	1028	0	-100	0	230	101300000	1000	0	0	-1	1000
9234995	128	1023	0	-100	0	230	101300000	1000	0	0	-1	1000
9247555	128	1024	0	-100	0	230	101300000	1000	0	0	-1	1000
9335475	135	1020	0	-100	0	230	101300000	1000	0	0	-1	1000
9348035	130	1023	0	-100	0	230	101300000	1000	0	0	-1	1000
9360595	128	1029	0	-100	0	230	101300000	1000	0	0	-1	1000
9373155	130	1031	0	-100	0	230	101300000	1000	0	0	-1	1000
9385715	126	1027	0	-100	0	230	101300000	1000	0	0	-1	1000
9398275	133	1022	0	-100	0	230	101300000	1000	0	0	-1	1000
9410835	135	1020	0	-100	0	230	101300000	1000	0	0	-1	1000
9423395	128	1026	0	-100	0	230	101300000	1000	0	0	-1	1000
9435955	128	1030	0	-100	0	230	101300000	1000	0	0	-1	1000
9448515	130	1028	0	-100	0	230	101300000	1000	0	0	-1	1000
9461075	128	1024	0	-100	0	230	101300000	1000	0	0	-1	1000
9473635	133	1023	0	-100	0	230	101300000	1000	0	0	-1	1000
9486195	135	1022	0	-100	0	230	101300000	1000	0	0	-1	1000
9498755	126	1027	0	-100	0	230	101300000	1000	0	0	-1	1000
9511315	128	1027	0	-100	0	230	101300000	1000	0	0	-1	1000
9523875	130	1022	0	-100	0	230	101300000	1000	0	0	-1	1000
9536435	133	1023	0	-100	0	230	101300000	1000	0	0	-1	1000
9548995	128	1030	0	-100	0	230	101300000	1000	0	0	-1	1000
9561555	126	1028	0	-100	0	230	101300000	1000	0	0	-1	1000
9574115	130	1027	0	-100	0	230	101300000	1000	0	0	-1	1000
9586675	128	1023	0	-100	0	230	101300000	1000	0	0	-1	1000
9599235	135	1021	0	-100	0	230	101300000	1000	0	0	-1	1000
9611795	130	1023	0	-100	0	230	101300000	1000	0	0	-1	1000
9624355	128	1028	0	-100	0	230	101300000	1000	0	0	-1	1000
9636915	128	1030	0	-100	0	230	101300000	1000	0	0	-1	1000
9649475	126	1024	0	-100	0	230	101300000	1000	0	0	-1	1000
9662035	130	1022	0	-100	0	230	101300000	1000	0	0	-1	1000
9674595	135	1023	0	-100	0	230	101300000	1000	0	0	-1	1000
9687155	143	1025	0	-100	0	230	101300000	1000	0	0	-1	1000
9699715	133	1024	0	-100	0	230	101300000	1000	0	0	-1	1000
9712275	130	1022	0	-100	0	230	101300000	1000	0	0	-1	1000
9724835	128	1027	0	-100	0	230	101300000	1000	0	0	-1	1000
9737395	128	1028	0	-100	0	230	101300000	1000	0	0	-1	1000
9749955	126	1028	0	-100	0	230	101300000	1000	0	0	-1	1000
9762515	126	1029	0	-100	0	230	101300000	1000	0	0	-1	1000
9775075	130	1024	0	-100	0	230	101300000	1000	0	0	-1	1000
9787635	135	1023	0	-100	0	230	101300000	1000	0	0	-1	1000
9800195	128	1026	0	-100	0	230	101300000	1000	0	0	-1	1000
9812755	128	1031	0	-100	0	230	101300000	1000	0	0	-1	1000
9825315	130	1022	0	-100	0	230	101300000	1000	0	0	-1	1000
9837875	135	1021	0	-100	0	230	101300000	1000	0	0	-1	1000
9850435	130	1026	0	-100	0	230	101300000	1000	0	0	-1	1000
9862995	128	1023	0	-100	0	230	101300000	1000	0	0	-1	1000
9875555	125	1025	0	-100	0	230	101300000	1000	0	0	-1	1000
9888115	138	1024	0	-100	0	230	101300000	1000	0	0	-1	1000
9900675	138	1026	0	-100	0	230	101300000	1000	0	0	-1	1000
9913235	128	1024	0	-100	0	230	101300000	1000	0	0	-1	1000
9925795	128	1029	0	-100	0	230	101300000	1000	0	0	-1	1000
9938355	128	1023	0	-100	0	230	101300000	1000	0	0	-1	1000
9950915	133	1025	0	-100	0	230	101300000	1000	0	0	-1	1000
9963475	128	1030	0	-100	0	230	101300000	1000	0	0	-1	1000
9976035	133	1022	0	-100	0	230	101300000	1000	0	0	-1	1000
9988595	130	1025	0	-100	0	230	101300000	1000	0	0	-1	1000
10001155	135	1028	0	-100	0	230	101300000	1000	0	0	-1	1000
10013715	135	1023	0	-100	0	230	101300000	1000	0	0	-1	1000
10026275	126	1026	0	-100	0	230	101300000	1000	0	0	-1	1000
10038835	130	1026	0	-100	0	230	101300000	1000	0	0	-1	1000
10051395	133	1025	0	-100	0	230	101300000	1000	0	0	-1	1000
10063955	128	1031	0	-100	0	230	101300000	1000	0	0	-1	1000
10076515	133	1022	0	-100	0	230	101300000	1000	0	0	-1	1000
10089075	128	1028	0	-100	0	230	101300000	1000	0	0	-1	1000
10101635	130	1021	0	-100	0	230	101300000	1000	0	0	-1	1000
10114195	126	1028	0	-100	0	230	101300000	1000	0	0	-1	1000
10126755	133	1022	0	-100	0	230	101300000	1000	0	0	-1	1000
10139315	135	1019	0	-100	0	230	101300000	1000	0	0	-1	1000
10151875	133	1024	0	-100	0	230	101300000	1000	0	0	-1	1000
10164435	130	1023	0	-100	0	230	101300000	1000	0	0	-1	1000
10176995	123	1029	0	-100	0	230	101300000	1000	0	0	-1	1000
10189555	128	1030	0	-100	0	230	101300000	1000	0	0	-1	1000
10202115	128	1029	0	-100	0	230	101300000	1000	0	0	-1	1000
10214675	130	1023	0	-100	0	230	101300000	1000	0	0	-1	1000
10227235	135	1023	0	-100	0	230	101300000	1000	0	0	-1	1000
10239795	128	1023	0	-100	0	230	101300000	1000	0	0	-1	1000
10252355	128	1031	0	-100	0	230	101300000	1000	0	0	-1	1000
10264915	133	1022	0	-100	0	230	101300000	1000	0	0	-1	1000
10277475	128	1026	0	-100	0	230	101300000	1000	0	0	-1	1000
10290035	130	1027	0	-100	0	230	101300000	1000	0	0	-1	1000
10302595	133	1024	0	-100	0	230	101300000	1000	0	0	-1	1000
10315155	138	1023	0	-100	0	230	101300000	1000	0	0	-1	1000
10327715	128	1030	0	-100	0	230	101300000	1000	0	0	-1	1000
10340275	130	1023	0	-100	0	230	101300000	1000	0	0	-1	1000
10352835	133	1025	0	-100	0	230	101300000	1000	0	0	-1	1000
10365395	130	1022	0	-100	0	230	101300000	1000	0	0	-1	1000
10377955	128	1032	0	-100	0	230	101300000	1000	0	0	-1	1000
10390515	125	1024	0	-100	0	230	101300000	1000	0	0	-1	1000
10403075	128	1025	0	-100	0	230	101300000	1000	0	0	-1	1000
10415635	130	1022	0	-100	0	230	101300000	1000	0	0	-1	1000
10428195	133	1025	0	-100	0	230	101300000	1000	0	0	-1	1000
10440755	135	1023	0	-100	0	230	101300000	1000	0	0	-1	1000
10453315	128	1024	0	-100	0	230	101300000	1000	0	0	-1	1000
10465875	126	1028	0	-100	0	230	101300000	1000	0	0	-1	1000
10478435	128	1029	0	-100	0	230	101300000	1000	0	0	-1	1000
10490995	128	1022	0	-100	0	230	101300000	1000	0	0	-1	1000
10503555	130	1028	0	-100	0	230	101300000	1000	0	0	-1	1000
10516115	126	1027	0	-100	0	230	101300000	1000	0	0	-1	1000
10528675	125	1024	0	-100	0	230	101300000	1000	0	0	-1	1000
10541235	130	1027	0	-100	0	230	101300000	1000	0	0	-1	1000
10553795	128	1028	0	-100	0	230	101300000	1000	0	0	-1	1000
10566355	133	1023	0	-100	0	230	101300000	1000	0	0	-1	1000
10578915	135	1020	0	-100	0	230	101300000	1000	0	0	-1	1000
10591475	128	1030	0	-100	0	230	101300000	1000	0	0	-1	1000
10604035	128	1027	0	-100	0	230	101300000	1000	0	0	-1	1000
10616595	133	1023	0	-100	0	230	101300000	1000	0	0	-1	1000
10629155	138	1022	0	-100	0	230	101300000	1000	0	0	-1	1000
10641715	126	1027	0	-100	0	230	101300000	1000	0	0	-1	1000
10654275	128	1031	0	-100	0	230	101300000	1000	0	0	-1	1000
10666835	133	1025	0	-100	0	230	101300000	1000	0	0	-1	1000
10679395	135	1022	0	-100	0	230	101300000	1000	0	0	-1	1000
10691955	130	1030	0	-100	0	230	101300000	1000	0	0	-1	1000
10704515	130	1021	0	-100	0	230	101300000	1000	0	0	-1	1000
10717075	128	1027	0	-100	0	230	101300000	1000	0	0	-1	1000
10729635	130	1028	0	-100	0	230	101300000	1000	0	0	-1	1000
10742195	135	1021	0	-100	0	230	101300000	1000	0	0	-1	1000
10754755	128	1026	0	-100	0	230	101300000	1000	0	0	-1	1000
10767315	128	1027	0	-100	0	230	101300000	1000	0	0	-1	1000
10779875	133	1023	0	-100	0	230	101300000	1000	0	0	-1	1000
10792435	128	1030	0	-100	0	230	101300000	1000	0	0	-1	1000
10804995	130	1023	0	-100	0	230	101300000	1000	0	0	-1	1000
10817555	133	1024	0	-100	0	230	101300000	1000	0	0	-1	1000
10830115	135	1021	0	-100	0	230	101300000	1000	0	0	-1	1000
10842675	135	1023	0	-100	0	230	101300000	1000	0	0	-1	1000
10855235	128	1029	0	-100	0	230	101300000	1000	0	0	-1	1000
10867795	130	1027	0	-100	0	230	101300000	1000	0	0	-1	1000
10880355	130	1023	0	-100	0	230	101300000	1000	0	0	-1	1000
10892915	133	1023	0	-100	0	230	101300000	1000	0	0	-1	1000
10905475	135	1023	0	-100	0	230	101300000	1000	0	0	-1	1000
10918035	126	1027	0	-100	0	230	101300000	1000	0	0	-1	1000
10930595	125	1026	0	-100	0	230	101300000	1000	0	0	-1	1000
10943155	135	1025	0	-100	0	230	101300000	1000	0	0	-1	1000
10955715	138	1025	0	-100	0	230	101300000	1000	0	0	-1	1000
10968275	126	1028	0	-100	0	230	101300000	1000	0	0	-1	1000
10980835	130	1024	0	-100	0	230	101300000	1000	0	0	-1	1000
10993395	135	1025	0	-100	0	230	101300000	1000	0	0	-1	1000
11005955	128	1031	0	-100	0	230	101300000	1000	0	0	-1	1000
11018515	133	1023	0	-100	0	230	101300000	1000	0	0	-1	1000
11031075	128	1026	0	-100	0	230	101300000	1000	0	0	-1	1000
11043635	128	1026	0	-100	0	230	101300000	1000	0	0	-1	1000
11056195	138	1024	0	-100	0	230	101300000	1000	0	0	-1	1000
11068755	128	1027	0	-100	0	230	101300000	1000	0	0	-1	1000
11081315	130	1022	0	-100	0	230	101300000	1000	0	0	-1	1000
11093875	130	1023	0	-100	0	230	101300000	1000	0	0	-1	1000
11106435	128	1027	0	-100	0	230	101300000	1000	0	0	-1	1000
11118995	138	1029	0	-100	0	230	101300000	1000	0	0	-1	1000
11131555	130	1028	0	-100	0	230	101300000	1000	0	0	-1	1000
11144115	133	1025	0	-100	0	230	101300000	1000	0	0	-1	1000
11156675	128	1030	0	-100	0	230	101300000	1000	0	0	-1	1000
11169235	133	1023	0	-100	0	230	101300000	1000	0	0	-1	1000
11181795	126	1027	0	-100	0	230	101300000	1000	0	0	-1	1000
11194355	128	1024	0	-100	0	230	101300000	1000	0	0	-1	1000
11206915	135	1024	0	-100	0	230	101300000	1000	0	0	-1	1000
11219475	130	1026	0	-100	0	230	101300000	1000	0	0	-1	1000
11232035	135	1022	0	-100	0	230	101300000	1000	0	0	-1	1000
11244595	128	1029	0	-100	0	230	101300000	1000	0	0	-1	1000
11257155	138	1022	0	-100	0	230	101300000	1000	0	0	-1	1000
11269715	126	1026	0	-100	0	230	101300000	1000	0	0	-1	1000
11282275	128	1022	0	-100	0	230	101300000	1000	0	0	-1	1000
11294835	133	1023	0	-100	0	230	101300000	1000	0	0	-1	1000
11307395	128	1030	0	-100	0	230	101300000	1000	0	0	-1	1000
11319955	130	1022	0	-100	0	230	101300000	1000	0	0	-1	1000
11332515	135	1024	0	-100	0	230	101300000	1000	0	0	-1	1000
11345075	130	1031	0	-100	0	230	101300000	1000	0	0	-1	1000
11357635	133	1022	0	-100	0	230	101300000	1000	0	0	-1	1000
11370195	130	1022	0	-100	0	230	101300000	1000	0	0	-1	1000
11382755	128	1033	0	-100	0	230	101300000	1000	0	0	-1	1000
11395315	135	1021	0	-100	0	230	101300000	1000	0	0	-1	1000
11407875	133	1025	0	-100	0	230	101300000	1000	0	0	-1	1000
11420435	128	1030	0	-100	0	230	101300000	1000	0	0	-1	1000
11432995	128	1024	0	-100	0	230	101300000	1000	0	0	-1	1000
11445555	135	1022	0	-100	0	230	101300000	1000	0	0	-1	1000
11458115	135	1022	0	-100	0	230	101300000	1000	0	0	-1	1000
11470675	125	1027	0	-100	0	230	101300000	1000	0	0	-1	1000
11483235	125	1026	0	-100	0	230	101300000	1000	0	0	-1	1000
11495795	135	1019	0	-100	0	230	101300000	1000	0	0	-1	1000
11508355	128	1029	0	-100	0	230	101300000	1000	0	0	-1	1000
11520915	128	1028	0	-100	0	230	101300000	1000	0	0	-1	1000
11533475	135	1022	0	-100	0	230	101300000	1000	0	0	-1	1000
11546035	130	1022	0	-100	0	230	101300000	1000	0	0	-1	1000
11558595	126	1027	0	-100	0	230	101300000	1000	0	0	-1	1000
11571155	133	1028	0	-100	0	230	101300000	1000	0	0	-1	1000
11583715	130	1022	0	-100	0	230	101300000	1000	0	0	-1	1000
11596275	133	1021	0	-100	0	230	101300000	1000	0	0	-1	1000
11608835	135	1022	0	-100	0	230	101300000	1000	0	0	-1	1000
11621395	135	1024	0	-100	0	230	101300000	1000	0	0	-1	1000
11633955	128	1027	0	-100	0	230	101300000	1000	0	0	-1	1000
11646515	128	1029	0	-100	0	230	101300000	1000	0	0	-1	1000
11659075	130	1030	0	-100	0	230	101300000	1000	0	0	-1	1000
11671635	130	1027	0	-100	0	230	101300000	1000	0	0	-1	1000
11684195	128	1024	0	-100	0	230	101300000	1000	0	0	-1	1000
11696755	133	1024	0	-100	0	230	101300000	1000	0	0	-1	1000
11709315	135	1019	0	-100	0	230	101300000	1000	0	0	-1	1000
11721875	128	1028	0	-100	0	230	101300000	1000	0	0	-1	1000
11734435	128	1030	0	-100	0	230	101300000	1000	0	0	-1	1000
11746995	125	1019	0	-100	0	230	101300000	1000	0	0	-1	1000
11759555	133	1022	0	-100	0	230	101300000	1000	0	0	-1	1000
11772115	135	1021	0	-100	0	230	101300000	1000	0	0	-1	1000
11784675	128	1027	0	-100	0	230	101300000	1000	0	0	-1	1000
11797235	128	1031	0	-100	0	230	101300000	1000	0	0	-1	1000
11809795	128	1027	0	-100	0	230	101300000	1000	0	0	-1	1000
11822355	128	1026	0	-100	0	230	101300000	1000	0	0	-1	1000
11834915	128	1024	0	-100	0	230	101300000	1000	0	0	-1	1000
11847475	133	1024	0	-100	0	230	101300000	1000	0	0	-1	1000
11860035	133	1024	0	-100	0	230	101300000	1000	0	0	-1	1000
11872595	135	1020	0	-100	0	230	101300000	1000	0	0	-1	1000
11885155	138	1022	0	-100	0	230	101300000	1000	0	0	-1	1000
11897715	128	1028	0	-100	0	230	101300000	1000	0	0	-1	1000
11910275	128	1029	0	-100	0	230	101300000	1000	0	0	-1	1000
11922835	128	1030	0	-100	0	230	101300000	1000	0	0	-1	1000
11935395	128	1031	0	-100	0	230	101300000	1000	0	0	-1	1000
11947955	128	1029	0	-100	0	230	101300000	1000	0	0	-1	1000
11960515	130	1022	0	-100	0	230	101300000	1000	0	0	-1	1000
11973075	133	1020	0	-100	0	230	101300000	1000	0	0	-1	1000
11985635	135	1022	0	-100	0	230	101300000	1000	0	0	-1	1000
11998195	130	1025	0	-100	0	230	101300000	1000	0	0	-1	1000
12010755	126	1026	0	-100	0	230	101300000	1000	0	0	-1	1000
12035875	125	1025	0	-100	0	230	101300000	1000	0	0	-1	1000
12048435	133	1024	0	-100	0	230	101300000	1000	0	0	-1	1000
12060995	135	1028	0	-100	0	230	101300000	1000	0	0	-1	1000
12073555	133	1024	0	-100	0	230	101300000	1000	0	0	-1	1000
12086115	128	1029	0	-100	0	230	101300000	1000	0	0	-1	1000
12098675	128	1026	0	-100	0	230	101300000	1000	0	0	-1	1000
12111235	133	1023	0	-100	0	230	101300000	1000	0	0	-1	1000
12123795	135	1019	0	-100	0	230	101300000	1000	0	0	-1	1000
12136355	126	1027	0	-100	0	230	101300000	1000	0	0	-1	1000
12148915	126	1028	0	-100	0	230	101300000	1000	0	0	-1	1000
12161475	128	1028	0	-100	0	230	101300000	1000	0	0	-1	1000
12174035	133	1022	0	-100	0	230	101300000	1000	0	0	-1	1000
12261955	135	1023	0	-100	0	230	101300000	1000	0	0	-1	1000
12274515	135	1023	0	-100	0	230	101300000	1000	0	0	-1	1000
12287075	130	1024	0	-100	0	230	101300000	1000	0	0	-1	1000
12299635	128	1030	0	-100	0	230	101300000	1000	0	0	-1	1000
12312195	128	1030	0	-100	0	230	101300000	1000	0	0	-1	1000
12324755	128	1029	0	-100	0	230	101300000	1000	0	0	-1	1000
12337315	130	1022	0	-100	0	230	101300000	1000	0	0	-1	1000
12349875	135	1019	0	-100	0	230	101300000	1000	0	0	-1	1000
12362435	133	1023	0	-100	0	230	101300000	1000	0	0	-1	1000
12374995	128	1031	0	-100	0	230	101300000	1000	0	0	-1	1000
12387555	128	1026	0	-100	0	230	101300000	1000	0	0	-1	1000
12425235	130	1023	0	-100	0	230	101300000	1000	0	0	-1	1000
12437795	135	1018	0	-100	0	230	101300000	1000	0	0	-1	1000
12450355	128	1028	0	-100	0	230	101300000	1000	0	0	-1	1000
12462915	128	1030	0	-100	0	230	101300000	1000	0	0	-1	1000
12475475	133	1023	0	-100	0	230	101300000	1000	0	0	-1	1000
12488035	133	1025	0	-100	0	230	101300000	1000	0	0	-1	1000
12500595	128	1029	0	-100	0	230	101300000	1000	0	0	-1	1000
12513155	135	1028	0	-100	0	230	101300000	1000	0	0	-1	1000
12525715	125	1025	0	-100	0	230	101300000	1000	0	0	-1	1000
12538275	128	1029	0	-100	0	230	101300000	1000	0	0	-1	1000
12550835	130	1021	0	-100	0	230	101300000	1000	0	0	-1	1000
12563395	130	1021	0	-100	0	230	101300000	1000	0	0	-1	1000
12575955	135	1023	0	-100	0	230	101300000	1000	0	0	-1	1000
12588515	133	1021	0	-100	0	230	101300000	1000	0	0	-1	1000
12601075	133	1022	0	-100	0	230	101300000	1000	0	0	-1	1000
12613635	138	1025	0	-100	0	230	101300000	1000	0	0	-1	1000
12626195	130	1027	0	-100	0	230	101300000	1000	0	0	-1	1000
12638755	130	1027	0	-100	0	230	101300000	1000	0	0	-1	1000
12651315	133	1023	0	-100	0	230	101300000	1000	0	0	-1	1000
12663875	130	1025	0	-100	0	230	101300000	1000	0	0	-1	1000
12676435	130	1031	0	-100	0	230	101300000	1000	0	0	-1	1000
12688995	130	1024	0	-100	0	230	101300000	1000	0	0	-1	1000
12701555	135	1019	0	-100	0	230	101300000	1000	0	0	-1	1000
12714115	128	1027	0	-100	0	230	101300000	1000	0	0	-1	1000
12726675	126	1029	0	-100	0	230	101300000	1000	0	0	-1	1000
12739235	130	1022	0	-100	0	230	101300000	1000	0	0	-1	1000
12751795	133	1023	0	-100	0	230	101300000	1000	0	0	-1	1000
12764355	126	1026	0	-100	0	230	101300000	1000	0	0	-1	1000
12776915	128	1027	0	-100	0	230	101300000	1000	0	0	-1	1000
12789475	133	1023	0	-100	0	230	101300000	1000	0	0	-1	1000
12802035	133	1022	0	-100	0	230	101300000	1000	0	0	-1	1000
12814595	126	1026	0	-100	0	230	101300000	1000	0	0	-1	1000
12827155	135	1029	0	-100	0	230	101300000	1000	0	0	-1	1000
12839715	133	1022	0	-100	0	230	101300000	1000	0	0	-1	1000
12852275	135	1022	0	-100	0	230	101300000	1000	0	0	-1	1000
12864835	126	1028	0	-100	0	230	101300000	1000	0	0	-1	1000
12877395	130	1025	0	-100	0	230	101300000	1000	0	0	-1	1000
12889955	133	1024	0	-100	0	230	101300000	1000	0	0	-1	1000
12902515	135	1021	0	-100	0	230	101300000	1000	0	0	-1	1000
12915075	126	1027	0	-100	0	230	101300000	1000	0	0	-1	1000
12927635	128	1028	0	-100	0	230	101300000	1000	0	0	-1	1000
12940195	133	1023	0	-100	0	230	101300000	1000	0	0	-1	1000
12952755	130	1024	0	-100	0	230	101300000	1000	0	0	-1	1000
12965315	128	1030	0	-100	0	230	101300000	1000	0	0	-1	1000
12977875	130	1021	0	-100	0	230	101300000	1000	0	0	-1	1000
12990435	130	1024	0	-100	0	230	101300000	1000	0	0	-1	1000
13002995	130	1023	0	-100	0	230	101300000	1000	0	0	-1	1000
13015555	135	1022	0	-100	0	230	101300000	1000	0	0	-1	1000
13028115	133	1023	0	-100	0	230	101300000	1000	0	0	-1	1000
13040675	128	1030	0	-100	0	230	101300000	1000	0	0	-1	1000
13053235	133	1023	0	-100	0	230	101300000	1000	0	0	-1	1000
13065795	130	1025	0	-100	0	230	101300000	1000	0	0	-1	1000
13078355	128	1030	0	-100	0	230	101300000	1000	0	0	-1	1000
13090915	128	1027	0	-100	0	230	101300000	1000	0	0	-1	1000
13103475	130	1022	0	-100	0	230	101300000	1000	0	0	-1	1000
13116035	133	1023	0	-100	0	230	101300000	1000	0	0	-1	1000
13128595	128	1024	0	-100	0	230	101300000	1000	0	0	-1	1000
13141155	133	1032	0	-100	0	230	101300000	1000	0	0	-1	1000
13153715	130	1022	0	-100	0	230	101300000	1000	0	0	-1	1000
13166275	135	1019	0	-100	0	230	101300000	1000	0	0	-1	1000
13178835	126	1028	0	-100	0	230	101300000	1000	0	0	-1	1000
13191395	128	1027	0	-100	0	230	101300000	1000	0	0	-1	1000
13203955	133	1022	0	-100	0	230	101300000	1000	0	0	-1	1000
13216515	126	1028	0	-100	0	230	101300000	1000	0	0	-1	1000
13229075	128	1025	0	-100	0	230	101300000	1000	0	0	-1	1000
13241635	135	1024	0	-100	0	230	101300000	1000	0	0	-1	1000
13254195	130	1030	0	-100	0	230	101300000	1000	0	0	-1	1000
13266755	133	1024	0	-100	0	230	101300000	1000	0	0	-1	1000
13279315	135	1023	0	-100	0	230	101300000	1000	0	0	-1	1000
13291875	128	1030	0	-100	0	230	101300000	1000	0	0	-1	1000
13304435	130	1022	0	-100	0	230	101300000	1000	0	0	-1	1000
13316995	133	1032	0	-100	0	230	101300000	1000	0	0	-1	1000
13329555	126	1026	0	-100	0	230	101300000	1000	0	0	-1	1000
13342115	133	1024	0	-100	0	230	101300000	1000	0	0	-1	1000
13354675	128	1028	0	-100	0	230	101300000	1000	0	0	-1	1000
13367235	128	1032	0	-100	0	230	101300000	1000	0	0	-1	1000
13379795	133	1024	0	-100	0	230	101300000	1000	0	0	-1	1000
13392355	135	1023	0	-100	0	230	101300000	1000	0	0	-1	1000
13404915	133	1024	0	-100	0	230	101300000	1000	0	0	-1	1000
13417475	130	1026	0	-100	0	230	101300000	1000	0	0	-1	1000
13430035	126	1028	0	-100	0	230	101300000	1000	0	0	-1	1000
13442595	128	1031	0	-100	0	230	101300000	1000	0	0	-1	1000
13455155	135	1028	0	-100	0	230	101300000	1000	0	0	-1	1000
13467715	130	1024	0	-100	0	230	101300000	1000	0	0	-1	1000
13480275	133	1021	0	-100	0	230	101300000	1000	0	0	-1	1000
13492835	135	1023	0	-100	0	230	101300000	1000	0	0	-1	1000
13505395	135	1024	0	-100	0	230	101300000	1000	0	0	-1	1000
13517955	126	1028	0	-100	0	230	101300000	1000	0	0	-1	1000
13530515	128	1031	0	-100	0	230	101300000	1000	0	0	-1	1000
13543075	130	1029	0	-100	0	230	101300000	1000	0	0	-1	1000
13555635	130	1023	0	-100	0	230	101300000	1000	0	0	-1	1000
13568195	133	1024	0	-100	0	230	101300000	1000	0	0	-1	1000
13580755	130	1022	0	-100	0	230	101300000	1000	0	0	-1	1000
13593315	128	1031	0	-100	0	230	101300000	1000	0	0	-1	1000
13605875	128	1024	0	-100	0	230	101300000	1000	0	0	-1	1000
13618435	133	1023	0	-100	0	230	101300000	1000	0	0	-1	1000
13630995	133	1031	0	-100	0	230	101300000	1000	0	0	-1	1000
13643555	133	1024	0	-100	0	230	101300000	1000	0	0	-1	1000
13656115	133	1023	0	-100	0	230	101300000	1000	0	0	-1	1000
13668675	126	1025	0	-100	0	230	101300000	1000	0	0	-1	1000
13681235	126	1028	0	-100	0	230	101300000	1000	0	0	-1	1000
13693795	128	1028	0	-100	0	230	101300000	1000	0	0	-1	1000
13706355	126	1028	0	-100	0	230	101300000	1000	0	0	-1	1000
13718915	130	1029	0	-100	0	230	101300000	1000	0	0	-1	1000
13731475	128	1032	0	-100	0	230	101300000	1000	0	0	-1	1000
13744035	130	1027	0	-100	0	230	101300000	1000	0	0	-1	1000
13756595	133	1030	0	-100	0	230	101300000	1000	0	0	-1	1000
13769155	133	1027	0	-100	0	230	101300000	1000	0	0	-1	1000
13781715	128	1026	0	-100	0	230	101300000	1000	0	0	-1	1000
13794275	128	1028	0	-100	0	230	101300000	1000	0	0	-1	1000
13806835	130	1023	0	-100	0	230	101300000	1000	0	0	-1	1000
13819395	135	1021	0	-100	0	230	101300000	1000	0	0	-1	1000
13831955	128	1024	0	-100	0	230	101300000	1000	0	0	-1	1000
13844515	128	1029	0	-100	0	230	101300000	1000	0	0	-1	1000
13857075	130	1021	0	-100	0	230	101300000	1000	0	0	-1	1000
13869635	135	1022	0	-100	0	230	101300000	1000	0	0	-1	1000
13882195	128	1030	0	-100	0	230	101300000	1000	0	0	-1	1000
13894755	128	1029	0	-100	0	230	101300000	1000	0	0	-1	1000
13907315	135	1022	0	-100	0	230	101300000	1000	0	0	-1	1000
13919875	135	1023	0	-100	0	230	101300000	1000	0	0	-1	1000
13932435	130	1023	0	-100	0	230	101300000	1000	0	0	-1	1000
13944995	128	1035	0	-100	0	230	101300000	1000	0	0	-1	1000
13957555	133	1030	0	-100	0	230	101300000	1000	0	0	-1	1000
13970115	130	1025	0	-100	0	230	101300000	1000	0	0	-1	1000
13982675	133	1023	0	-100	0	230	101300000	1000	0	0	-1	1000
13995235	135	1024	0	-100	0	230	101300000	1000	0	0	-1	1000
14007795	135	1028	0	-100	0	230	101300000	1000	0	0	-1	1000
14020355	128	1029	0	-100	0	230	101300000	1000	0	0	-1	1000
14032915	128	1029	0	-100	0	230	101300000	1000	0	0	-1	1000
14045475	135	1022	0	-100	0	230	101300000	1000	0	0	-1	1000
14058035	130	1023	0	-100	0	230	101300000	1000	0	0	-1	1000
14070595	128	1035	0	-100	0	230	101300000	1000	0	0	-1	1000
14083155	133	1024	0	-100	0	230	101300000	1000	0	0	-1	1000
14095715	133	1022	0	-100	0	230	101300000	1000	0	0	-1	1000
14108275	133	1023	0	-100	0	230	101300000	1000	0	0	-1	1000
14120835	130	1024	0	-100	0	230	101300000	1000	0	0	-1	1000
14133395	130	1028	0	-100	0	230	101300000	1000	0	0	-1	1000
14145955	133	1022	0	-100	0	230	101300000	1000	0	0	-1	1000
14158515	135	1026	0	-100	0	230	101300000	1000	0	0	-1	1000
14171075	126	1025	0	-100	0	230	101300000	1000	0	0	-1	1000
14183635	130	1028	0	-100	0	230	101300000	1000	0	0	-1	1000
14196195	133	1023	0	-100	0	230	101300000	1000	0	0	-1	1000
14208755	133	1025	0	-100	0	230	101300000	1000	0	0	-1	1000
14221315	128	1063	0	-100	0	230	101300000	1000	0	0	-1	1000
14233875	128	1026	0	-100	0	230	101300000	1000	0	0	-1	1000
14246435	135	1027	0	-100	0	230	101300000	1000	0	0	-1	1000
14258995	130	1029	0	-100	0	230	101300000	1000	0	0	-1	1000
14271555	126	1025	0	-100	0	230	101300000	1000	0	0	-1	1000
14284115	126	1027	0	-100	0	230	101300000	1000	0	0	-1	1000
14296675	130	1028	0	-100	0	230	101300000	1000	0	0	-1	1000
14309235	128	1022	0	-100	0	230	101300000	1000	0	0	-1	1000
14321795	133	1022	0	-100	0	230	101300000	1000	0	0	-1	1000
14334355	135	1023	0	-100	0	230	101300000	1000	0	0	-1	1000
14346915	135	1023	0	-100	0	230	101300000	1000	0	0	-1	1000
14359475	130	1025	0	-100	0	230	101300000	1000	0	0	-1	1000
14372035	126	1030	0	-100	0	230	101300000	1000	0	0	-1	1000
14384595	130	1029	0	-100	0	230	101300000	1000	0	0	-1	1000
14397155	133	1023	0	-100	0	230	101300000	1000	0	0	-1	1000
14409715	133	1021	0	-100	0	230	101300000	1000	0	0	-1	1000
14422275	135	1025	0	-100	0	230	101300000	1000	0	0	-1	1000
14434835	133	1023	0	-100	0	230	101300000	1000	0	0	-1	1000
14447395	133	1023	0	-100	0	230	101300000	1000	0	0	-1	1000
14459955	133	1023	0	-100	0	230	101300000	1000	0	0	-1	1000
14472515	133	1022	0	-100	0	230	101300000	1000	0	0	-1	1000
14485075	130	1022	0	-100	0	230	101300000	1000	0	0	-1	1000
14497635	130	1016	0	-100	0	230	101300000	1000	0	0	-1	1000
14510195	126	1025	0	-100	0	230	101300000	1000	0	0	-1	1000
14522755	130	1027	0	-100	0	230	101300000	1000	0	0	-1	1000
14535315	128	1031	0	-100	0	230	101300000	1000	0	0	-1	1000
14547875	128	1031	0	-100	0	230	101300000	1000	0	0	-1	1000
14560435	128	1030	0	-100	0	230	101300000	1000	0	0	-1	1000
14572995	130	1020	0	-100	0	230	101300000	1000	0	0	-1	1000
14585555	126	1029	0	-100	0	230	101300000	1000	0	0	-1	1000
14598115	128	1030	0	-100	0	230	101300000	1000	0	0	-1	1000
14610675	128	1029	0	-100	0	230	101300000	1000	0	0	-1	1000
14623235	126	1030	0	-100	0	230	101300000	1000	0	0	-1	1000
14635795	128	1029	0	-100	0	230	101300000	1000	0	0	-1	1000
14648355	126	1034	0	-100	0	230	101300000	1000	0	0	-1	1000
14660915	126	1032	0	-100	0	230	101300000	1000	0	0	-1	1000
14673475	128	1035	0	-100	0	230	101300000	1000	0	0	-1	1000
14686035	130	1030	0	-100	0	230	101300000	1000	0	0	-1	1000
14698595	130	1027	0	-100	0	230	101300000	1000	0	0	-1	1000
14711155	133	1025	0	-100	0	230	101300000	1000	0	0	-1	1000
14723715	130	1025	0	-100	0	230	101300000	1000	0	0	-1	1000
14736275	135	1018	0	-100	0	230	101300000	1000	0	0	-1	1000
14748835	135	1023	0	-100	0	230	101300000	1000	0	0	-1	1000
14761395	128	1026	0	-100	0	230	101300000	1000	0	0	-1	1000
14773955	126	1025	0	-100	0	230	101300000	1000	0	0	-1	1000
14786515	128	1030	0	-100	0	230	101300000	1000	0	0	-1	1000
14799075	130	1038	0	-100	0	230	101300000	1000	0	0	-1	1000
14811635	126	1028	0	-100	0	230	101300000	1000	0	0	-1	1000
14824195	130	1022	0	-100	0	230	101300000	1000	0	0	-1	1000
14836755	133	1025	0	-100	0	230	101300000	1000	0	0	-1	1000
14849315	138	1023	0	-100	0	230	101300000	1000	0	0	-1	1000
14861875	135	1022	0	-100	0	230	101300000	1000	0	0	-1	1000
14874435	128	1030	0	-100	0	230	101300000	1000	0	0	-1	1000
14886995	128	1024	0	-100	0	230	101300000	1000	0	0	-1	1000
14899555	128	1028	0	-100	0	230	101300000	1000	0	0	-1	1000
14912115	130	1025	0	-100	0	230	101300000	1000	0	0	-1	1000
14924675	133	1022	0	-100	0	230	101300000	1000	0	0	-1	1000
14937235	133	1020	0	-100	0	230	101300000	1000	0	0	-1	1000
14949795	130	1021	0	-100	0	230	101300000	1000	0	0	-1	1000
14962355	128	1029	0	-100	0	230	101300000	1000	0	0	-1	1000
14974915	126	1029	0	-100	0	230	101300000	1000	0	0	-1	1000
14987475	130	1026	0	-100	0	230	101300000	1000	0	0	-1	1000
15000035	128	1023	0	-100	0	230	101300000	1000	0	0	-1	1000
15012595	133	1023	0	-100	0	230	101300000	1000	0	0	-1	1000
15025155	138	1021	0	-100	0	230	101300000	1000	0	0	-1	1000
15037715	133	1021	0	-100	0	230	101300000	1000	0	0	-1	1000
15050275	135	1022	0	-100	0	230	101300000	1000	0	0	-1	1000
15062835	133	1025	0	-100	0	230	101300000	1000	0	0	-1	1000
15075395	135	1021	0	-100	0	230	101300000	1000	0	0	-1	1000
15087955	138	1027	0	-100	0	230	101300000	1000	0	0	-1	1000
15100515	128	1027	0	-100	0	230	101300000	1000	0	0	-1	1000
15175875	133	1024	0	-100	0	230	101300000	1000	0	0	-1	1000
15188435	135	1021	0	-100	0	230	101300000	1000	0	0	-1	1000
15200995	133	1033	0	-100	0	230	101300000	1000	0	0	-1	1000
15213555	126	1026	0	-100	0	230	101300000	1000	0	0	-1	1000
15226115	128	1035	0	-100	0	230	101300000	1000	0	0	-1	1000
15238675	126	1032	0	-100	0	230	101300000	1000	0	0	-1	1000
15251235	128	1026	0	-100	0	230	101300000	1000	0	0	-1	1000
15263795	130	1023	0	-100	0	230	101300000	1000	0	0	-1	1000
15276355	133	1022	0	-100	0	230	101300000	1000	0	0	-1	1000
15288915	133	1024	0	-100	0	230	101300000	1000	0	0	-1	1000
15301475	135	1025	0	-100	0	230	101300000	1000	0	0	-1	1000
15376835	128	1030	0	-100	0	230	101300000	1000	0	0	-1	1000
15389395	126	1026	0	-100	0	230	101300000	1000	0	0	-1	1000
15401955	128	1026	0	-100	0	230	101300000	1000	0	0	-1	1000
15414515	128	1025	0	-100	0	230	101300000	1000	0	0	-1	1000
15427075	130	1023	0	-100	0	230	101300000	1000	0	0	-1	1000
15439635	135	1024	0	-100	0	230	101300000	1000	0	0	-1	1000
15452195	133	1025	0	-100	0	230	101300000	1000	0	0	-1	1000
15464755	135	1023	0	-100	0	230	101300000	1000	0	0	-1	1000
15477315	135	1023	0	-100	0	230	101300000	1000	0	0	-1	1000
15489875	133	1024	0	-100	0	230	101300000	1000	0	0	-1	1000
15502435	128	1025	0	-100	0	230	101300000	1000	0	0	-1	1000
15514995	130	1025	0	-100	0	230	101300000	1000	0	0	-1	1000
15527555	130	1023	0	-100	0	230	101300000	1000	0	0	-1	1000
15540115	135	1023	0	-100	0	230	101300000	1000	0	0	-1	1000
15552675	133	1022	0	-100	0	230	101300000	1000	0	0	-1	1000
15565235	133	1021	0	-100	0	230	101300000	1000	0	0	-1	1000
15577795	135	1021	0	-100	0	230	101300000	1000	0	0	-1	1000
15590355	135	1021	0	-100	0	230	101300000	1000	0	0	-1	1000
15602915	135	1021	0	-100	0	230	101300000	1000	0	0	-1	1000
15615475	138	1024	0	-100	0	230	101300000	1000	0	0	-1	1000
15628035	135	1023	0	-100	0	230	101300000	1000	0	0	-1	1000
15640595	133	1024	0	-100	0	230	101300000	1000	0	0	-1	1000
15653155	138	1023	0	-100	0	230	101300000	1000	0	0	-1	1000
15665715	135	1019	0	-100	0	230	101300000	1000	0	0	-1	1000
15678275	135	1022	0	-100	0	230	101300000	1000	0	0	-1	1000
15690835	133	1022	0	-100	0	230	101300000	1000	0	0	-1	1000
15703395	130	1022	0	-100	0	230	101300000	1000	0	0	-1	1000
15715955	133	1023	0	-100	0	230	101300000	1000	0	0	-1	1000
15728515	130	1026	0	-100	0	230	101300000	1000	0	0	-1	1000
15741075	130	1029	0	-100	0	230	101300000	1000	0	0	-1	1000
15753635	130	1029	0	-100	0	230	101300000	1000	0	0	-1	1000
15766195	126	1025	0	-100	0	230	101300000	1000	0	0	-1	1000
15778755	128	1024	0	-100	0	230	101300000	1000	0	0	-1	1000
15791315	135	1023	0	-100	0	230	101300000	1000	0	0	-1	1000
15803875	135	1019	0	-100	0	230	101300000	1000	0	0	-1	1000
15816435	133	1023	0	-100	0	230	101300000	1000	0	0	-1	1000
15828995	130	1025	0	-100	0	230	101300000	1000	0	0	-1	1000
15841555	130	1025	0	-100	0	230	101300000	1000	0	0	-1	1000
15854115	125	1026	0	-100	0	230	101300000	1000	0	0	-1	1000
15866675	128	1031	0	-100	0	230	101300000	1000	0	0	-1	1000
15879235	128	1030	0	-100	0	230	101300000	1000	0	0	-1	1000
15891795	128	1030	0	-100	0	230	101300000	1000	0	0	-1	1000
15904355	126	1029	0	-100	0	230	101300000	1000	0	0	-1	1000
15916915	128	1030	0	-100	0	230	101300000	1000	0	0	-1	1000
15929475	128	1031	0	-100	0	230	101300000	1000	0	0	-1	1000
15942035	126	1030	0	-100	0	230	101300000	1000	0	0	-1	1000
15954595	128	1030	0	-100	0	230	101300000	1000	0	0	-1	1000
15967155	130	1031	0	-100	0	230	101300000	1000	0	0	-1	1000
15979715	128	1027	0	-100	0	230	101300000	1000	0	0	-1	1000
15992275	128	1024	0	-100	0	230	101300000	1000	0	0	-1	1000
16004835	130	1022	0	-100	0	230	101300000	1000	0	0	-1	1000
16017395	135	1022	0	-100	0	230	101300000	1000	0	0	-1	1000
16029955	133	1022	0	-100	0	230	101300000	1000	0	0	-1	1000
16042515	135	1019	0	-100	0	230	101300000	1000	0	0	-1	1000
16055075	135	1022	0	-100	0	230	101300000	1000	0	0	-1	1000
16067635	135	1023	0	-100	0	230	101300000	1000	0	0	-1	1000
16080195	133	1023	0	-100	0	230	101300000	1000	0	0	-1	1000
16092755	135	1023	0	-100	0	230	101300000	1000	0	0	-1	1000
16105315	135	1023	0	-100	0	230	101300000	1000	0	0	-1	1000
16117875	135	1019	0	-100	0	230	101300000	1000	0	0	-1	1000
16130435	135	1020	0	-100	0	230	101300000	1000	0	0	-1	1000
16142995	135	1029	0	-100	0	230	101300000	1000	0	0	-1	1000
16155555	135	1022	0	-100	0	230	101300000	1000	0	0	-1	1000
16168115	135	1023	0	-100	0	230	101300000	1000	0	0	-1	1000
16180675	128	1025	0	-100	0	230	101300000	1000	0	0	-1	1000
16193235	126	1026	0	-100	0	230	101300000	1000	0	0	-1	1000
16205795	126	1029	0	-100	0	230	101300000	1000	0	0	-1	1000
16218355	128	1029	0	-100	0	230	101300000	1000	0	0	-1	1000
16230915	128	1026	0	-100	0	230	101300000	1000	0	0	-1	1000
16243475	133	1023	0	-100	0	230	101300000	1000	0	0	-1	1000
16256035	128	1028	0	-100	0	230	101300000	1000	0	0	-1	1000
16268595	128	1028	0	-100	0	230	101300000	1000	0	0	-1	1000
16281155	135	1029	0	-100	0	230	101300000	1000	0	0	-1	1000
16293715	130	1028	0	-100	0	230	101300000	1000	0	0	-1	1000
16306275	130	1029	0	-100	0	230	101300000	1000	0	0	-1	1000
16318835	130	1028	0	-100	0	230	101300000	1000	0	0	-1	1000
16331395	130	1030	0	-100	0	230	101300000	1000	0	0	-1	1000
16343955	128	1029	0	-100	0	230	101300000	1000	0	0	-1	1000
16356515	130	1030	0	-100	0	230	101300000	1000	0	0	-1	1000
16369075	126	1031	0	-100	0	230	101300000	1000	0	0	-1	1000
16381635	126	1028	0	-100	0	230	101300000	1000	0	0	-1	1000
16394195	128	1030	0	-100	0	230	101300000	1000	0	0	-1	1000
16406755	126	1026	0	-100	0	230	101300000	1000	0	0	-1	1000
16419315	126	1026	0	-100	0	230	101300000	1000	0	0	-1	1000
16431875	125	1027	0	-100	0	230	101300000	1000	0	0	-1	1000
16444435	128	1028	0	-100	0	230	101300000	1000	0	0	-1	1000
16456995	128	1029	0	-100	0	230	101300000	1000	0	0	-1	1000
16469555	128	1028	0	-100	0	230	101300000	1000	0	0	-1	1000
16482115	128	1030	0	-100	0	230	101300000	1000	0	0	-1	1000
16494675	128	1027	0	-100	0	230	101300000	1000	0	0	-1	1000
16507235	130	1022	0	-100	0	230	101300000	1000	0	0	-1	1000
16519795	133	1022	0	-100	0	230	101300000	1000	0	0	-1	1000
16532355	135	1024	0	-100	0	230	101300000	1000	0	0	-1	1000
16544915	128	1027	0	-100	0	230	101300000	1000	0	0	-1	1000
16557475	126	1026	0	-100	0	230	101300000	1000	0	0	-1	1000
16570035	128	1030	0	-100	0	230	101300000	1000	0	0	-1	1000
16582595	126	1030	0	-100	0	230	101300000	1000	0	0	-1	1000
16595155	133	1026	0	-100	0	230	101300000	1000	0	0	-1	1000
16607715	128	1029	0	-100	0	230	101300000	1000	0	0	-1	1000
16620275	128	1025	0	-100	0	230	101300000	1000	0	0	-1	1000
16632835	128	1023	0	-100	0	230	101300000	1000	0	0	-1	1000
16645395	128	1023	0	-100	0	230	101300000	1000	0	0	-1	1000
16657955	133	1022	0	-100	0	230	101300000	1000	0	0	-1	1000
16670515	135	1023	0	-100	0	230	101300000	1000	0	0	-1	1000
16683075	135	1021	0	-100	0	230	101300000	1000	0	0	-1	1000
16695635	135	1023	0	-100	0	230	101300000	1000	0	0	-1	1000
16708195	128	1028	0	-100	0	230	101300000	1000	0	0	-1	1000
16720755	126	1029	0	-100	0	230	101300000	1000	0	0	-1	1000
16733315	128	1033	0	-100	0	230	101300000	1000	0	0	-1	1000
16745875	128	1028	0	-100	0	230	101300000	1000	0	0	-1	1000
16758435	128	1026	0	-100	0	230	101300000	1000	0	0	-1	1000
16770995	128	1025	0	-100	0	230	101300000	1000	0	0	-1	1000
16783555	130	1021	0	-100	0	230	101300000	1000	0	0	-1	1000
16796115	133	1023	0	-100	0	230	101300000	1000	0	0	-1	1000
16808675	135	1021	0	-100	0	230	101300000	1000	0	0	-1	1000
16821235	135	1023	0	-100	0	230	101300000	1000	0	0	-1	1000
16833795	130	1023	0	-100	0	230	101300000	1000	0	0	-1	1000
16846355	123	1029	0	-100	0	230	101300000	1000	0	0	-1	1000
16858915	126	1028	0	-100	0	230	101300000	1000	0	0	-1	1000
16871475	130	1030	0	-100	0	230	101300000	1000	0	0	-1	1000
16884035	128	1026	0	-100	0	230	101300000	1000	0	0	-1	1000
16896595	130	1022	0	-100	0	230	101300000	1000	0	0	-1	1000
16909155	135	1023	0	-100	0	230	101300000	1000	0	0	-1	1000
16921715	133	1019	0	-100	0	230	101300000	1000	0	0	-1	1000
16934275	133	1024	0	-100	0	230	101300000	1000	0	0	-1	1000
16946835	126	1025	0	-100	0	230	101300000	1000	0	0	-1	1000
16959395	128	1028	0	-100	0	230	101300000	1000	0	0	-1	1000
16971955	128	1030	0	-100	0	230	101300000	1000	0	0	-1	1000
16984515	128	1030	0	-100	0	230	101300000	1000	0	0	-1	1000
16997075	128	1030	0	-100	0	230	101300000	1000	0	0	-1	1000
17009635	130	1027	0	-100	0	230	101300000	1000	0	0	-1	1000
17022195	133	1023	0	-100	0	230	101300000	1000	0	0	-1	1000
17034755	130	1022	0	-100	0	230	101300000	1000	0	0	-1	1000
17047315	130	1028	0	-100	0	230	101300000	1000	0	0	-1	1000
17059875	135	1024	0	-100	0	230	101300000	1000	0	0	-1	1000
17072435	126	1028	0	-100	0	230	101300000	1000	0	0	-1	1000
17084995	130	1022	0	-100	0	230	101300000	1000	0	0	-1	1000
17097555	128	1027	0	-100	0	230	101300000	1000	0	0	-1	1000
17110115	128	1026	0	-100	0	230	101300000	1000	0	0	-1	1000
17122675	133	1022	0	-100	0	230	101300000	1000	0	0	-1	1000
17135235	126	1025	0	-100	0	230	101300000	1000	0	0	-1	1000
17147795	128	1032	0	-100	0	230	101300000	1000	0	0	-1	1000
17160355	135	1022	0	-100	0	230	101300000	1000	0	0	-1	1000
17172915	130	1023	0	-100	0	230	101300000	1000	0	0	-1	1000
17185475	128	1030	0	-100	0	230	101300000	1000	0	0	-1	1000
17198035	133	1024	0	-100	0	230	101300000	1000	0	0	-1	1000
17210595	135	1019	0	-100	0	230	101300000	1000	0	0	-1	1000
17223155	133	1029	0	-100	0	230	101300000	1000	0	0	-1	1000
17235715	128	1027	0	-100	0	230	101300000	1000	0	0	-1	1000
17248275	135	1023	0	-100	0	230	101300000	1000	0	0	-1	1000
17260835	126	1025	0	-100	0	230	101300000	1000	0	0	-1	1000
17273395	128	1027	0	-100	0	230	101300000	1000	0	0	-1	1000
17285955	133	1023	0	-100	0	230	101300000	1000	0	0	-1	1000
17298515	133	1021	0	-100	0	230	101300000	1000	0	0	-1	1000
17311075	128	1026	0	-100	0	230	101300000	1000	0	0	-1	1000
17323635	126	1029	0	-100	0	230	101300000	1000	0	0	-1	1000
17336195	128	1028	0	-100	0	230	101300000	1000	0	0	-1	1000
17348755	133	1023	0	-100	0	230	101300000	1000	0	0	-1	1000
17361315	130	1023	0	-100	0	230	101300000	1000	0	0	-1	1000
17373875	130	1029	0	-100	0	230	101300000	1000	0	0	-1	1000
17386435	128	1022	0	-100	0	230	101300000	1000	0	0	-1	1000
17398995	135	1029	0	-100	0	230	101300000	1000	0	0	-1	1000
17411555	128	1030	0	-100	0	230	101300000	1000	0	0	-1	1000
17424115	130	1023	0	-100	0	230	101300000	1000	0	0	-1	1000
17436675	135	1022	0	-100	0	230	101300000	1000	0	0	-1	1000
17449235	126	1028	0	-100	0	230	101300000	1000	0	0	-1	1000
17461795	128	1026	0	-100	0	230	101300000	1000	0	0	-1	1000
17474355	133	1022	0	-100	0	230	101300000	1000	0	0	-1	1000
17486915	128	1032	0	-100	0	230	101300000	1000	0	0	-1	1000
17499475	133	1023	0	-100	0	230	101300000	1000	0	0	-1	1000
17512035	126	1027	0	-100	0	230	101300000	1000	0	0	-1	1000
17524595	128	1027	0	-100	0	230	101300000	1000	0	0	-1	1000
17537155	138	1021	0	-100	0	230	101300000	1000	0	0	-1	1000
17549715	130	1023	0	-100	0	230	101300000	1000	0	0	-1	1000
17562275	128	1026	0	-100	0	230	101300000	1000	0	0	-1	1000
17574835	133	1023	0	-100	0	230	101300000	1000	0	0	-1	1000
17587395	128	1028	0	-100	0	230	101300000	1000	0	0	-1	1000
17599955	128	1027	0	-100	0	230	101300000	1000	0	0	-1	1000
17612515	135	1022	0	-100	0	230	101300000	1000	0	0	-1	1000
17625075	128	1030	0	-100	0	230	101300000	1000	0	0	-1	1000
17637635	128	1025	0	-100	0	230	101300000	1000	0	0	-1	1000
17650195	135	1022	0	-100	0	230	101300000	1000	0	0	-1	1000
17662755	126	1029	0	-100	0	230	101300000	1000	0	0	-1	1000
17675315	133	1024	0	-100	0	230	101300000	1000	0	0	-1	1000
17687875	135	1020	0	-100	0	230	101300000	1000	0	0	-1	1000
17700435	126	1026	0	-100	0	230	101300000	1000	0	0	-1	1000
17712995	130	1024	0	-100	0	230	101300000	1000	0	0	-1	1000
17725555	133	1023	0	-100	0	230	101300000	1000	0	0	-1	1000
17738115	135	1022	0	-100	0	230	101300000	1000	0	0	-1	1000
17750675	128	1029	0	-100	0	230	101300000	1000	0	0	-1	1000
17763235	128	1030	0	-100	0	230	101300000	1000	0	0	-1	1000
17775795	128	1023	0	-100	0	230	101300000	1000	0	0	-1	1000
17788355	135	1020	0	-100	0	230	101300000	1000	0	0	-1	1000
17800915	128	1027	0	-100	0	230	101300000	1000	0	0	-1	1000
17813475	128	1026	0	-100	0	230	101300000	1000	0	0	-1	1000
17826035	133	1023	0	-100	0	230	101300000	1000	0	0	-1	1000
17838595	135	1022	0	-100	0	230	101300000	1000	0	0	-1	1000
17851155	133	1030	0	-100	0	230	101300000	1000	0	0	-1	1000
17863715	126	1025	0	-100	0	230	101300000	1000	0	0	-1	1000
17876275	133	1022	0	-100	0	230	101300000	1000	0	0	-1	1000
17888835	135	1022	0	-100	0	230	101300000	1000	0	0	-1	1000
17901395	128	1029	0	-100	0	230	101300000	1000	0	0	-1	1000
17913955	128	1028	0	-100	0	230	101300000	1000	0	0	-1	1000
17926515	133	1024	0	-100	0	230	101300000	1000	0	0	-1	1000
17939075	133	1021	0	-100	0	230	101300000	1000	0	0	-1	1000
17951635	126	1026	0	-100	0	230	101300000	1000	0	0	-1	1000
17964195	130	1030	0	-100	0	230	101300000	1000	0	0	-1	1000
17976755	135	1021	0	-100	0	230	101300000	1000	0	0	-1	1000
17989315	128	1027	0	-100	0	230	101300000	1000	0	0	-1	1000
18001875	128	1031	0	-100	0	230	101300000	1000	0	0	-1	1000
18014435	133	1022	0	-100	0	230	101300000	1000	0	0	-1	1000
18026995	128	1028	0	-100	0	230	101300000	1000	0	0	-1	1000
18039555	130	1027	0	-100	0	230	101300000	1000	0	0	-1	1000
18064675	135	1020	0	-100	0	230	101300000	1000	0	0	-1	1000
18077235	130	1022	0	-100	0	230	101300000	1000	0	0	-1	1000
18089795	133	1024	0	-100	0	230	101300000	1000	0	0	-1	1000
18102355	130	1028	0	-100	0	230	101300000	1000	0	0	-1	1000
18114915	133	1024	0	-100	0	230	101300000	1000	0	0	-1	1000
18127475	128	1027	0	-100	0	230	101300000	1000	0	0	-1	1000
18140035	128	1027	0	-100	0	230	101300000	1000	0	0	-1	1000
18152595	133	1021	0	-100	0	230	101300000	1000	0	0	-1	1000
18165155	133	1030	0	-100	0	230	101300000	1000	0	0	-1	1000
18177715	130	1022	0	-100	0	230	101300000	1000	0	0	-1	1000
18190275	130	1023	0	-100	0	230	101300000	1000	0	0	-1	1000
18202835	133	1029	0	-100	0	230	101300000	1000	0	0	-1	1000
18215395	135	1024	0	-100	0	230	101300000	1000	0	0	-1	1000
18290755	128	1023	0	-100	0	230	101300000	1000	0	0	-1	1000
18303315	135	1023	0	-100	0	230	101300000	1000	0	0	-1	1000
18315875	128	1028	0	-100	0	230	101300000	1000	0	0	-1	1000
18328435	128	1027	0	-100	0	230	101300000	1000	0	0	-1	1000
18340995	135	1032	0	-100	0	230	101300000	1000	0	0	-1	1000
18353555	126	1026	0	-100	0	230	101300000	1000	0	0	-1	1000
18366115	133	1024	0	-100	0	230	101300000	1000	0	0	-1	1000
18378675	128	1033	0	-100	0	230	101300000	1000	0	0	-1	1000
18391235	135	1022	0	-100	0	230	101300000	1000	0	0	-1	1000
18403795	128	1028	0	-100	0	230	101300000	1000	0	0	-1	1000
18416355	130	1029	0	-100	0	230	101300000	1000	0	0	-1	1000
18454035	130	1026	0	-100	0	230	101300000	1000	0	0	-1	1000
18466595	133	1022	0	-100	0	230	101300000	1000	0	0	-1	1000
18479155	140	1025	0	-100	0	230	101300000	1000	0	0	-1	1000
18491715	128	1028	0	-100	0	230	101300000	1000	0	0	-1	1000
18504275	130	1032	0	-100	0	230	101300000	1000	0	0	-1	1000
18516835	130	1022	0	-100	0	230	101300000	1000	0	0	-1	1000
18529395	130	1023	0	-100	0	230	101300000	1000	0	0	-1	1000
18541955	130	1030	0	-100	0	230	101300000	1000	0	0	-1	1000
18554515	133	1023	0	-100	0	230	101300000	1000	0	0	-1	1000
18567075	130	1023	0	-100	0	230	101300000	1000	0	0	-1	1000
18579635	130	1030	0	-100	0	230	101300000	1000	0	0	-1	1000
18592195	133	1022	0	-100	0	230	101300000	1000	0	0	-1	1000
18604755	130	1022	0	-100	0	230	101300000	1000	0	0	-1	1000
18617315	128	1030	0	-100	0	230	101300000	1000	0	0	-1	1000
18629875	128	1026	0	-100	0	230	101300000	1000	0	0	-1	1000
18642435	138	1025	0	-100	0	230	101300000	1000	0	0	-1	1000
18654995	135	1032	0	-100	0	230	101300000	1000	0	0	-1	1000
18667555	128	1030	0	-100	0	230	101300000	1000	0	0	-1	1000
18680115	130	1023	0	-100	0	230	101300000	1000	0	0	-1	1000
18692675	135	1021	0	-100	0	230	101300000	1000	0	0	-1	1000
18705235	128	1028	0	-100	0	230	101300000	1000	0	0	-1	1000
18717795	128	1032	0	-100	0	230	101300000	1000	0	0	-1	1000
18730355	128	1026	0	-100	0	230	101300000	1000	0	0	-1	1000
18742915	130	1022	0	-100	0	230	101300000	1000	0	0	-1	1000
18755475	135	1023	0	-100	0	230	101300000	1000	0	0	-1	1000
18768035	135	1023	0	-100	0	230	101300000	1000	0	0	-1	1000
18780595	133	1024	0	-100	0	230	101300000	1000	0	0	-1	1000
18793155	133	1026	0	-100	0	230	101300000	1000	0	0	-1	1000
18805715	128	1029	0	-100	0	230	101300000	1000	0	0	-1	1000
18818275	128	1028	0	-100	0	230	101300000	1000	0	0	-1	1000
18830835	128	1032	0	-100	0	230	101300000	1000	0	0	-1	1000
18843395	130	1022	0	-100	0	230	101300000	1000	0	0	-1	1000
18855955	133	1023	0	-100	0	230	101300000	1000	0	0	-1	1000
18868515	135	1023	0	-100	0	230	101300000	1000	0	0	-1	1000
18881075	128	1026	0	-100	0	230	101300000	1000	0	0	-1	1000
18893635	130	1029	0	-100	0	230	101300000	1000	0	0	-1	1000
18906195	133	1022	0	-100	0	230	101300000	1000	0	0	-1	1000
18918755	138	1025	0	-100	0	230	101300000	1000	0	0	-1	1000
18931315	128	1029	0	-100	0	230	101300000	1000	0	0	-1	1000
18943875	128	1027	0	-100	0	230	101300000	1000	0	0	-1	1000
18956435	130	1022	0	-100	0	230	101300000	1000	0	0	-1	1000
18968995	133	1031	0	-100	0	230	101300000	1000	0	0	-1	1000
18981555	126	1027	0	-100	0	230	101300000	1000	0	0	-1	1000
18994115	128	1028	0	-100	0	230	101300000	1000	0	0	-1	1000
19006675	135	1022	0	-100	0	230	101300000	1000	0	0	-1	1000
19019235	128	1023	0	-100	0	230	101300000	1000	0	0	-1	1000
19031795	126	1030	0	-100	0	230	101300000	1000	0	0	-1	1000
19044355	128	1028	0	-100	0	230	101300000	1000	0	0	-1	1000
19056915	133	1023	0	-100	0	230	101300000	1000	0	0	-1	1000
19069475	135	1023	0	-100	0	230	101300000	1000	0	0	-1	1000
19082035	128	1031	0	-100	0	230	101300000	1000	0	0	-1	1000
19094595	133	1022	0	-100	0	230	101300000	1000	0	0	-1	1000
19107155	140	1026	0	-100	0	230	101300000	1000	0	0	-1	1000
19119715	128	1029	0	-100	0	230	101300000	1000	0	0	-1	1000
19132275	128	1027	0	-100	0	230	101300000	1000	0	0	-1	1000
19144835	130	1022	0	-100	0	230	101300000	1000	0	0	-1	1000
19157395	130	1022	0	-100	0	230	101300000	1000	0	0	-1	1000
19169955	128	1032	0	-100	0	230	101300000	1000	0	0	-1	1000
19182515	128	1026	0	-100	0	230	101300000	1000	0	0	-1	1000
19195075	133	1021	0	-100	0	230	101300000	1000	0	0	-1	1000
19207635	126	1027	0	-100	0	230	101300000	1000	0	0	-1	1000
19220195	125	1026	0	-100	0	230	101300000	1000	0	0	-1	1000
19232755	133	1021	0	-100	0	230	101300000	1000	0	0	-1	1000
19245315	126	1030	0	-100	0	230	101300000	1000	0	0	-1	1000
19257875	133	1024	0	-100	0	230	101300000	1000	0	0	-1	1000
19270435	128	1029	0	-100	0	230	101300000	1000	0	0	-1	1000
19282995	130	1020	0	-100	0	230	101300000	1000	0	0	-1	1000
19295555	135	1021	0	-100	0	230	101300000	1000	0	0	-1	1000
19308115	128	1031	0	-100	0	230	101300000	1000	0	0	-1	1000
19320675	133	1025	0	-100	0	230	101300000	1000	0	0	-1	1000
19333235	133	1023	0	-100	0	230	101300000	1000	0	0	-1	1000
19345795	130	1028	0	-100	0	230	101300000	1000	0	0	-1	1000
19358355	133	1023	0	-100	0	230	101300000	1000	0	0	-1	1000
19370915	126	1028	0	-100	0	230	101300000	1000	0	0	-1	1000
19383475	130	1025	0	-100	0	230	101300000	1000	0	0	-1	1000
19396035	135	1023	0	-100	0	230	101300000	1000	0	0	-1	1000
19408595	130	1028	0	-100	0	230	101300000	1000	0	0	-1	1000
19421155	138	1023	0	-100	0	230	101300000	1000	0	0	-1	1000
19433715	128	1029	0	-100	0	230	101300000	1000	0	0	-1	1000
19446275	126	1027	0	-100	0	230	101300000	1000	0	0	-1	1000
19458835	135	1023	0	-100	0	230	101300000	1000	0	0	-1	1000
19471395	128	1032	0	-100	0	230	101300000	1000	0	0	-1	1000
19483955	130	1021	0	-100	0	230	101300000	1000	0	0	-1	1000
19496515	135	1023	0	-100	0	230	101300000	1000	0	0	-1	1000
19509075	128	1031	0	-100	0	230	101300000	1000	0	0	-1	1000
19521635	128	1025	0	-100	0	230	101300000	1000	0	0	-1	1000
19534195	133	1022	0	-100	0	230	101300000	1000	0	0	-1	1000
19546755	126	1026	0	-100	0	230	101300000	1000	0	0	-1	1000
19559315	128	1026	0	-100	0	230	101300000	1000	0	0	-1	1000
19571875	135	1022	0	-100	0	230	101300000	1000	0	0	-1	1000
19584435	126	1030	0	-100	0	230	101300000	1000	0	0	-1	1000
19596995	133	1026	0	-100	0	230	101300000	1000	0	0	-1	1000
19609555	128	1023	0	-100	0	230	101300000	1000	0	0	-1	1000
19622115	128	1028	0	-100	0	230	101300000	1000	0	0	-1	1000
19634675	135	1022	0	-100	0	230	101300000	1000	0	0	-1	1000
19647235	128	1030	0	-100	0	230	101300000	1000	0	0	-1	1000
19659795	130	1023	0	-100	0	230	101300000	1000	0	0	-1	1000
19672355	130	1022	0	-100	0	230	101300000	1000	0	0	-1	1000
19684915	130	1028	0	-100	0	230	101300000	1000	0	0	-1	1000
19697475	135	1020	0	-100	0	230	101300000	1000	0	0	-1	1000
19710035	128	1027	0	-100	0	230	101300000	1000	0	0	-1	1000
19722595	135	1022	0	-100	0	230	101300000	1000	0	0	-1	1000
19735155	135	1028	0	-100	0	230	101300000	1000	0	0	-1	1000
19747715	133	1021	0	-100	0	230	101300000	1000	0	0	-1	1000
19760275	128	1031	0	-100	0	230	101300000	1000	0	0	-1	1000
19772835	133	1023	0	-100	0	230	101300000	1000	0	0	-1	1000
19785395	130	1023	0	-100	0	230	101300000	1000	0	0	-1	1000
19797955	130	1028	0	-100	0	230	101300000	1000	0	0	-1	1000
19810515	135	1023	0	-100	0	230	101300000	1000	0	0	-1	1000
19823075	126	1026	0	-100	0	230	101300000	1000	0	0	-1	1000
19835635	128	1027	0	-100	0	230	101300000	1000	0	0	-1	1000
19848195	135	1019	0	-100	0	230	101300000	1000	0	0	-1	1000
19860755	128	1031	0	-100	0	230	101300000	1000	0	0	-1	1000
19873315	130	1022	0	-100	0	230	101300000	1000	0	0	-1	1000
19885875	128	1026	0	-100	0	230	101300000	1000	0	0	-1	1000
19898435	128	1027	0	-100	0	230	101300000	1000	0	0	-1	1000
19910995	135	1031	0	-100	0	230	101300000	1000	0	0	-1	1000
19923555	128	1027	0	-100	0	230	101300000	1000	0	0	-1	1000
19936115	135	1022	0	-100	0	230	101300000	1000	0	0	-1	1000
19948675	128	1030	0	-100	0	230	101300000	1000	0	0	-1	1000
19961235	130	1021	0	-100	0	230	101300000	1000	0	0	-1	1000
19973795	133	1025	0	-100	0	230	101300000	1000	0	0	-1	1000
19986355	130	1027	0	-100	0	230	101300000	1000	0	0	-1	1000
19998915	133	1025	0	-100	0	230	101300000	1000	0	0	-1	1000
20011475	126	1028	0	-100	0	230	101300000	1000	0	0	-1	1000
20024035	133	1022	0	-100	0	230	101300000	1000	0	0	-1	1000
20036595	123	1027	0	-100	0	230	101300000	1000	0	0	-1	1000
20049155	135	1023	0	-100	0	230	101300000	1000	0	0	-1	1000
20061715	135	1023	0	-100	0	230	101300000	1000	0	0	-1	1000
20074275	126	1029	0	-100	0	230	101300000	1000	0	0	-1	1000
20086835	128	1024	0	-100	0	230	101300000	1000	0	0	-1	1000
20099395	135	1020	0	-100	0	230	101300000	1000	0	0	-1	1000
20111955	128	1026	0	-100	0	230	101300000	1000	0	0	-1	1000
20124515	130	1030	0	-100	0	230	101300000	1000	0	0	-1	1000
20137075	130	1022	0	-100	0	230	101300000	1000	0	0	-1	1000
20149635	133	1024	0	-100	0	230	101300000	1000	0	0	-1	1000
20162195	133	1024	0	-100	0	230	101300000	1000	0	0	-1	1000
20174755	133	1024	0	-100	0	230	101300000	1000	0	0	-1	1000
20187315	133	1023	0	-100	0	230	101300000	1000	0	0	-1	1000
20199875	126	1027	0	-100	0	230	101300000	1000	0	0	-1	1000
20212435	126	1029	0	-100	0	230	101300000	1000	0	0	-1	1000
20224995	126	1023	0	-100	0	230	101300000	1000	0	0	-1	1000
20237555	130	1022	0	-100	0	230	101300000	1000	0	0	-1	1000
20250115	133	1022	0	-100	0	230	101300000	1000	0	0	-1	1000
20262675	133	1023	0	-100	0	230	101300000	1000	0	0	-1	1000
20275235	128	1030	0	-100	0	230	101300000	1000	0	0	-1	1000
20287795	130	1022	0	-100	0	230	101300000	1000	0	0	-1	1000
20300355	135	1024	0	-100	0	230	101300000	1000	0	0	-1	1000
20312915	130	1032	0	-100	0	230	101300000	1000	0	0	-1	1000
20325475	133	1024	0	-100	0	230	101300000	1000	0	0	-1	1000
20338035	128	1028	0	-100	0	230	101300000	1000	0	0	-1	1000
20350595	126	1025	0	-100	0	230	101300000	1000	0	0	-1	1000
20363155	140	1020	0	-100	0	230	101300000	1000	0	0	-1	1000
20375715	126	1028	0	-100	0	230	101300000	1000	0	0	-1	1000
20388275	133	1024	0	-100	0	230	101300000	1000	0	0	-1	1000
20400835	130	1023	0	-100	0	230	101300000	1000	0	0	-1	1000
20413395	128	1028	0	-100	0	230	101300000	1000	0	0	-1	1000
20425955	135	1021	0	-100	0	230	101300000	1000	0	0	-1	1000
20438515	128	1031	0	-100	0	230	101300000	1000	0	0	-1	1000
20451075	135	1022	0	-100	0	230	101300000	1000	0	0	-1	1000
20463635	126	1030	0	-100	0	230	101300000	1000	0	0	-1	1000
20476195	133	1023	0	-100	0	230	101300000	1000	0	0	-1	1000
20488755	128	1032	0	-100	0	230	101300000	1000	0	0	-1	1000
20501315	135	1022	0	-100	0	230	101300000	1000	0	0	-1	1000
20513875	126	1029	0	-100	0	230	101300000	1000	0	0	-1	1000
20526435	133	1023	0	-100	0	230	101300000	1000	0	0	-1	1000
20538995	128	1027	0	-100	0	230	101300000	1000	0	0	-1	1000
20551555	130	1021	0	-100	0	230	101300000	1000	0	0	-1	1000
20564115	128	1028	0	-100	0	230	101300000	1000	0	0	-1	1000
20576675	130	1022	0	-100	0	230	101300000	1000	0	0	-1	1000
20589235	128	1028	0	-100	0	230	101300000	1000	0	0	-1	1000
20601795	130	1023	0	-100	0	230	101300000	1000	0	0	-1	1000
20614355	130	1026	0	-100	0	230	101300000	1000	0	0	-1	1000
20626915	128	1028	0	-100	0	230	101300000	1000	0	0	-1	1000
20639475	133	1022	0	-100	0	230	101300000	1000	0	0	-1	1000
20652035	130	1027	0	-100	0	230	101300000	1000	0	0	-1	1000
20664595	133	1020	0	-100	0	230	101300000	1000	0	0	-1	1000
20677155	135	1032	0	-100	0	230	101300000	1000	0	0	-1	1000
20689715	135	1022	0	-100	0	230	101300000	1000	0	0	-1	1000
20702275	126	1029	0	-100	0	230	101300000	1000	0	0	-1	1000
20714835	130	1022	0	-100	0	230	101300000	1000	0	0	-1	1000
20727395	128	1025	0	-100	0	230	101300000	1000	0	0	-1	1000
20739955	126	1025	0	-100	0	230	101300000	1000	0	0	-1	1000
20752515	133	1022	0	-100	0	230	101300000	1000	0	0	-1	1000
20765075	128	1030	0	-100	0	230	101300000	1000	0	0	-1	1000
20777635	133	1025	0	-100	0	230	101300000	1000	0	0	-1	1000
20790195	128	1029	0	-100	0	230	101300000	1000	0	0	-1	1000
20802755	133	1023	0	-100	0	230	101300000	1000	0	0	-1	1000
20815315	126	1027	0	-100	0	230	101300000	1000	0	0	-1	1000
20827875	133	1022	0	-100	0	230	101300000	1000	0	0	-1	1000
20840435	126	1028	0	-100	0	230	101300000	1000	0	0	-1	1000
20852995	133	1027	0	-100	0	230	101300000	1000	0	0	-1	1000
20865555	130	1029	0	-100	0	230	101300000	1000	0	0	-1	1000
20878115	133	1023	0	-100	0	230	101300000	1000	0	0	-1	1000
20890675	126	1030	0	-100	0	230	101300000	1000	0	0	-1	1000
20903235	135	1019	0	-100	0	230	101300000	1000	0	0	-1	1000
20915795	126	1029	0	-100	0	230	101300000	1000	0	0	-1	1000
20928355	133	1023	0	-100	0	230	101300000	1000	0	0	-1	1000
20940915	128	1026	0	-100	0	230	101300000	1000	0	0	-1	1000
20953475	128	1028	0	-100	0	230	101300000	1000	0	0	-1	1000
20966035	133	1023	0	-100	0	230	101300000	1000	0	0	-1	1000
20978595	128	1027	0	-100	0	230	101300000	1000	0	0	-1	1000
20991155	133	1026	0	-100	0	230	101300000	1000	0	0	-1	1000
21003715	130	1022	0	-100	0	230	101300000	1000	0	0	-1	1000
21016275	126	1028	0	-100	0	230	101300000	1000	0	0	-1	1000
21028835	128	1023	0	-100	0	230	101300000	1000	0	0	-1	1000
21041395	135	1023	0	-100	0	230	101300000	1000	0	0	-1	1000
21053955	128	1030	0	-100	0	230	101300000	1000	0	0	-1	1000
21066515	130	1022	0	-100	0	230	101300000	1000	0	0	-1	1000
21079075	133	1024	0	-100	0	230	101300000	1000	0	0	-1	1000
21091635	128	1032	0	-100	0	230	101300000	1000	0	0	-1	1000
21104195	135	1022	0	-100	0	230	101300000	1000	0	0	-1	1000
21116755	133	1023	0	-100	0	230	101300000	1000	0	0	-1	1000
21129315	128	1027	0	-100	0	230	101300000	1000	0	0	-1	1000
21179555	128	1030	0	-100	0	230	101300000	1000	0	0	-1	1000
21192115	130	1021	0	-100	0	230	101300000	1000	0	0	-1	1000
21204675	135	1023	0	-100	0	230	101300000	1000	0	0	-1	1000
21217235	126	1026	0	-100	0	230	101300000	1000	0	0	-1	1000
21229795	130	1031	0	-100	0	230	101300000	1000	0	0	-1	1000
21242355	130	1023	0	-100	0	230	101300000	1000	0	0	-1	1000
21254915	138	1022	0	-100	0	230	101300000	1000	0	0	-1	1000
21267475	128	1029	0	-100	0	230	101300000	1000	0	0	-1	1000
21280035	126	1027	0	-100	0	230	101300000	1000	0	0	-1	1000
21292595	135	1021	0	-100	0	230	101300000	1000	0	0	-1	1000
21305155	130	1031	0	-100	0	230	101300000	1000	0	0	-1	1000
21317715	128	1024	0	-100	0	230	101300000	1000	0	0	-1	1000
21380515	126	1025	0	-100	0	230	101300000	1000	0	0	-1	1000
21393075	133	1024	0	-100	0	230	101300000	1000	0	0	-1	1000
21405635	128	1027	0	-100	0	230	101300000	1000	0	0	-1	1000
21418195	126	1030	0	-100	0	230	101300000	1000	0	0	-1	1000
21430755	130	1023	0	-100	0	230	101300000	1000	0	0	-1	1000
21443315	135	1022	0	-100	0	230	101300000	1000	0	0	-1	1000
21455875	128	1028	0	-100	0	230	101300000	1000	0	0	-1	1000
21468435	126	1026	0	-100	0	230	101300000	1000	0	0	-1	1000
21480995	130	1027	0	-100	0	230	101300000	1000	0	0	-1	1000
21493555	128	1026	0	-100	0	230	101300000	1000	0	0	-1	1000
21506115	128	1030	0	-100	0	230	101300000	1000	0	0	-1	1000
21518675	128	1027	0	-100	0	230	101300000	1000	0	0	-1	1000
21531235	128	1027	0	-100	0	230	101300000	1000	0	0	-1	1000
21543795	133	1023	0	-100	0	230	101300000	1000	0	0	-1	1000
21556355	133	1022	0	-100	0	230	101300000	1000	0	0	-1	1000
21568915	128	1028	0	-100	0	230	101300000	1000	0	0	-1	1000
21581475	126	1028	0	-100	0	230	101300000	1000	0	0	-1	1000
21594035	126	1027	0	-100	0	230	101300000	1000	0	0	-1	1000
21606595	133	1024	0	-100	0	230	101300000	1000	0	0	-1	1000
21619155	140	1023	0	-100	0	230	101300000	1000	0	0	-1	1000
21631715	128	1024	0	-100	0	230	101300000	1000	0	0	-1	1000
21644275	126	1026	0	-100	0	230	101300000	1000	0	0	-1	1000
21656835	128	1032	0	-100	0	230	101300000	1000	0	0	-1	1000
21669395	128	1025	0	-100	0	230	101300000	1000	0	0	-1	1000
21681955	130	1021	0	-100	0	230	101300000	1000	0	0	-1	1000
21694515	135	1018	0	-100	0	230	101300000	1000	0	0	-1	1000
21707075	133	1026	0	-100	0	230	101300000	1000	0	0	-1	1000
21719635	130	1024	0	-100	0	230	101300000	1000	0	0	-1	1000
21732195	126	1028	0	-100	0	230	101300000	1000	0	0	-1	1000
21744755	128	1030	0	-100	0	230	101300000	1000	0	0	-1	1000
21757315	128	1024	0	-100	0	230	101300000	1000	0	0	-1	1000
21769875	135	1022	0	-100	0	230	101300000	1000	0	0	-1	1000
21782435	133	1024	0	-100	0	230	101300000	1000	0	0	-1	1000
21794995	126	1023	0	-100	0	230	101300000	1000	0	0	-1	1000
21807555	128	1023	0	-100	0	230	101300000	1000	0	0	-1	1000
21820115	135	1021	0	-100	0	230	101300000	1000	0	0	-1	1000
21832675	128	1025	0	-100	0	230	101300000	1000	0	0	-1	1000
21845235	128	1032	0	-100	0	230	101300000	1000	0	0	-1	1000
21857795	130	1024	0	-100	0	230	101300000	1000	0	0	-1	1000
21870355	135	1023	0	-100	0	230	101300000	1000	0	0	-1	1000
21882915	135	1021	0	-100	0	230	101300000	1000	0	0	-1	1000
21895475	135	1023	0	-100	0	230	101300000	1000	0	0	-1	1000
21908035	128	1029	0	-100	0	230	101300000	1000	0	0	-1	1000
21920595	128	1031	0	-100	0	230	101300000	1000	0	0	-1	1000
21933155	135	1032	0	-100	0	230	101300000	1000	0	0	-1	1000
21945715	130	1026	0	-100	0	230	101300000	1000	0	0	-1	1000
21958275	126	1027	0	-100	0	230	101300000	1000	0	0	-1	1000
21970835	130	1023	0	-100	0	230	101300000	1000	0	0	-1	1000
21983395	135	1022	0	-100	0	230	101300000	1000	0	0	-1	1000
21995955	135	1025	0	-100	0	230	101300000	1000	0	0	-1	1000
22008515	126	1026	0	-100	0	230	101300000	1000	0	0	-1	1000
22021075	126	1030	0	-100	0	230	101300000	1000	0	0	-1	1000
22033635	126	1027	0	-100	0	230	101300000	1000	0	0	-1	1000
22046195	133	1024	0	-100	0	230	101300000	1000	0	0	-1	1000
22058755	133	1023	0	-100	0	230	101300000	1000	0	0	-1	1000
22071315	128	1026	0	-100	0	230	101300000	1000	0	0	-1	1000
22083875	128	1032	0	-100	0	230	101300000	1000	0	0	-1	1000
22096435	130	1022	0	-100	0	230	101300000	1000	0	0	-1	1000
22108995	133	1028	0	-100	0	230	101300000	1000	0	0	-1	1000
22121555	130	1022	0	-100	0	230	101300000	1000	0	0	-1	1000
22134115	128	1030	0	-100	0	230	101300000	1000	0	0	-1	1000
22146675	126	1025	0	-100	0	230	101300000	1000	0	0	-1	1000
22159235	133	1024	0	-100	0	230	101300000	1000	0	0	-1	1000
22171795	128	1024	0	-100	0	230	101300000	1000	0	0	-1	1000
22184355	128	1030	0	-100	0	230	101300000	1000	0	0	-1	1000
22196915	130	1029	0	-100	0	230	101300000	1000	0	0	-1	1000
22209475	128	1024	0	-100	0	230	101300000	1000	0	0	-1	1000
22222035	135	1020	0	-100	0	230	101300000	1000	0	0	-1	1000
22234595	130	1022	0	-100	0	230	101300000	1000	0	0	-1	1000
22247155	130	1030	0	-100	0	230	101300000	1000	0	0	-1	1000
22259715	128	1029	0	-100	0	230	101300000	1000	0	0	-1	1000
22272275	128	1033	0	-100	0	230	101300000	1000	0	0	-1	1000
22284835	128	1027	0	-100	0	230	101300000	1000	0	0	-1	1000
22297395	128	1024	0	-100	0	230	101300000	1000	0	0	-1	1000
22309955	128	1023	0	-100	0	230	101300000	1000	0	0	-1	1000
22322515	133	1022	0	-100	0	230	101300000	1000	0	0	-1	1000
22335075	133	1024	0	-100	0	230	101300000	1000	0	0	-1	1000
22347635	135	1021	0	-100	0	230	101300000	1000	0	0	-1	1000
22360195	128	1028	0	-100	0	230	101300000	1000	0	0	-1	1000
22372755	128	1030	0	-100	0	230	101300000	1000	0	0	-1	1000
22385315	126	1024	0	-100	0	230	101300000	1000	0	0	-1	1000
22397875	133	1024	0	-100	0	230	101300000	1000	0	0	-1	1000
22410435	133	1023	0	-100	0	230	101300000	1000	0	0	-1	1000
22422995	133	1031	0	-100	0	230	101300000	1000	0	0	-1	1000
22435555	130	1023	0	-100	0	230	101300000	1000	0	0	-1	1000
22448115	128	1028	0	-100	0	230	101300000	1000	0	0	-1	1000
22460675	126	1028	0	-100	0	230	101300000	1000	0	0	-1	1000
22473235	126	1029	0	-100	0	230	101300000	1000	0	0	-1	1000
22485795	128	1030	0	-100	0	230	101300000	1000	0	0	-1	1000
22498355	126	1028	0	-100	0	230	101300000	1000	0	0	-1	1000
22510915	128	1032	0	-100	0	230	101300000	1000	0	0	-1	1000
22523475	126	1029	0	-100	0	230	101300000	1000	0	0	-1	1000
22536035	128	1031	0	-100	0	230	101300000	1000	0	0	-1	1000
22548595	130	1031	0	-100	0	230	101300000	1000	0	0	-1	1000
22561155	135	1030	0	-100	0	230	101300000	1000	0	0	-1	1000
22573715	128	1028	0	-100	0	230	101300000	1000	0	0	-1	1000
22586275	130	1023	0	-100	0	230	101300000	1000	0	0	-1	1000
22598835	130	1022	0	-100	0	230	101300000	1000	0	0	-1	1000
22611395	135	1022	0	-100	0	230	101300000	1000	0	0	-1	1000
22623955	128	1026	0	-100	0	230	101300000	1000	0	0	-1	1000
22636515	126	1027	0	-100	0	230	101300000	1000	0	0	-1	1000
22649075	135	1023	0	-100	0	230	101300000	1000	0	0	-1	1000
22661635	126	1025	0	-100	0	230	101300000	1000	0	0	-1	1000
22674195	128	1032	0	-100	0	230	101300000	1000	0	0	-1	1000
22686755	130	1023	0	-100	0	230	101300000	1000	0	0	-1	1000
22699315	133	1022	0	-100	0	230	101300000	1000	0	0	-1	1000
22711875	133	1024	0	-100	0	230	101300000	1000	0	0	-1	1000
22724435	128	1029	0	-100	0	230	101300000	1000	0	0	-1	1000
22736995	128	1025	0	-100	0	230	101300000	1000	0	0	-1	1000
22749555	126	1029	0	-100	0	230	101300000	1000	0	0	-1	1000
22762115	128	1031	0	-100	0	230	101300000	1000	0	0	-1	1000
22774675	128	1028	0	-100	0	230	101300000	1000	0	0	-1	1000
22787235	133	1023	0	-100	0	230	101300000	1000	0	0	-1	1000
22799795	130	1024	0	-100	0	230	101300000	1000	0	0	-1	1000
22812355	126	1030	0	-100	0	230	101300000	1000	0	0	-1	1000
22824915	128	1025	0	-100	0	230	101300000	1000	0	0	-1	1000
22837475	135	1021	0	-100	0	230	101300000	1000	0	0	-1	1000
22850035	128	1027	0	-100	0	230	101300000	1000	0	0	-1	1000
22862595	128	1031	0	-100	0	230	101300000	1000	0	0	-1	1000
22875155	133	1022	0	-100	0	230	101300000	1000	0	0	-1	1000
22887715	135	1020	0	-100	0	230	101300000	1000	0	0	-1	1000
22900275	126	1026	0	-100	0	230	101300000	1000	0	0	-1	1000
22912835	130	1032	0	-100	0	230	101300000	1000	0	0	-1	1000
22925395	128	1024	0	-100	0	230	101300000	1000	0	0	-1	1000
22937955	133	1023	0	-100	0	230	101300000	1000	0	0	-1	1000
22950515	133	1022	0	-100	0	230	101300000	1000	0	0	-1	1000
22963075	126	1028	0	-100	0	230	101300000	1000	0	0	-1	1000
22975635	128	1028	0	-100	0	230	101300000	1000	0	0	-1	1000
22988195	135	1022	0	-100	0	230	101300000	1000	0	0	-1	1000
23000755	128	1026	0	-100	0	230	101300000	1000	0	0	-1	1000
23013315	130	1026	0	-100	0	230	101300000	1000	0	0	-1	1000
23025875	135	1023	0	-100	0	230	101300000	1000	0	0	-1	1000
23038435	128	1028	0	-100	0	230	101300000	1000	0	0	-1	1000
23050995	128	1024	0	-100	0	230	101300000	1000	0	0	-1	1000
23063555	128	1026	0	-100	0	230	101300000	1000	0	0	-1	1000
23076115	133	1024	0	-100	0	230	101300000	1000	0	0	-1	1000
23088675	133	1025	0	-100	0	230	101300000	1000	0	0	-1	1000
23101235	126	1027	0	-100	0	230	101300000	1000	0	0	-1	1000
23113795	128	1029	0	-100	0	230	101300000	1000	0	0	-1	1000
23126355	128	1025	0	-100	0	230	101300000	1000	0	0	-1	1000
23138915	133	1023	0	-100	0	230	101300000	1000	0	0	-1	1000
23151475	135	1023	0	-100	0	230	101300000	1000	0	0	-1	1000
23164035	135	1023	0	-100	0	230	101300000	1000	0	0	-1	1000
23176595	128	1027	0	-100	0	230	101300000	1000	0	0	-1	1000
23189155	130	1030	0	-100	0	230	101300000	1000	0	0	-1	1000
23201715	128	1030	0	-100	0	230	101300000	1000	0	0	-1	1000
23214275	128	1027	0	-100	0	230	101300000	1000	0	0	-1	1000
23226835	128	1022	0	-100	0	230	101300000	1000	0	0	-1	1000
23239395	133	1023	0	-100	0	230	101300000	1000	0	0	-1	1000
23251955	138	1024	0	-100	0	230	101300000	1000	0	0	-1	1000
23264515	126	1028	0	-100	0	230	101300000	1000	0	0	-1	1000
23277075	128	1027	0	-100	0	230	101300000	1000	0	0	-1	1000
23289635	133	1022	0	-100	0	230	101300000	1000	0	0	-1	1000
23302195	138	1024	0	-100	0	230	101300000	1000	0	0	-1	1000
23314755	126	1026	0	-100	0	230	101300000	1000	0	0	-1	1000
23327315	126	1028	0	-100	0	230	101300000	1000	0	0	-1	1000
23339875	130	1028	0	-100	0	230	101300000	1000	0	0	-1	1000
23352435	128	1023	0	-100	0	230	101300000	1000	0	0	-1	1000
23364995	133	1028	0	-100	0	230	101300000	1000	0	0	-1	1000
23377555	133	1021	0	-100	0	230	101300000	1000	0	0	-1	1000
23390115	130	1025	0	-100	0	230	101300000	1000	0	0	-1	1000
23402675	128	1029	0	-100	0	230	101300000	1000	0	0	-1	1000
23415235	128	1032	0	-100	0	230	101300000	1000	0	0	-1	1000
23427795	130	1021	0	-100	0	230	101300000	1000	0	0	-1	1000
23440355	133	1024	0	-100	0	230	101300000	1000	0	0	-1	1000
23452915	128	1027	0	-100	0	230	101300000	1000	0	0	-1	1000
23465475	128	1029	0	-100	0	230	101300000	1000	0	0	-1	1000
23478035	133	1022	0	-100	0	230	101300000	1000	0	0	-1	1000
23490595	133	1023	0	-100	0	230	101300000	1000	0	0	-1	1000
23503155	130	1029	0	-100	0	230	101300000	1000	0	0	-1	1000
23515715	130	1028	0	-100	0	230	101300000	1000	0	0	-1	1000
23528275	128	1023	0	-100	0	230	101300000	1000	0	0	-1	1000
23540835	133	1023	0	-100	0	230	101300000	1000	0	0	-1	1000
23553395	133	1024	0	-100	0	230	101300000	1000	0	0	-1	1000
23565955	126	1027	0	-100	0	230	101300000	1000	0	0	-1	1000
23578515	130	1026	0	-100	0	230	101300000	1000	0	0	-1	1000
23591075	130	1022	0	-100	0	230	101300000	1000	0	0	-1	1000
23603635	133	1021	0	-100	0	230	101300000	1000	0	0	-1	1000
23616195	128	1028	0	-100	0	230	101300000	1000	0	0	-1	1000
23628755	128	1032	0	-100	0	230	101300000	1000	0	0	-1	1000
23641315	128	1027	0	-100	0	230	101300000	1000	0	0	-1	1000
23653875	133	1023	0	-100	0	230	101300000	1000	0	0	-1	1000
23666435	133	1023	0	-100	0	230	101300000	1000	0	0	-1	1000
23678995	126	1026	0	-100	0	230	101300000	1000	0	0	-1	1000
23691555	130	1029	0	-100	0	230	101300000	1000	0	0	-1	1000
23704115	128	1024	0	-100	0	230	101300000	1000	0	0	-1	1000
23716675	135	1020	0	-100	0	230	101300000	1000	0	0	-1	1000
23729235	128	1028	0	-100	0	230	101300000	1000	0	0	-1	1000
23741795	128	1031	0	-100	0	230	101300000	1000	0	0	-1	1000
23754355	130	1023	0	-100	0	230	101300000	1000	0	0	-1	1000
23766915	135	1021	0	-100	0	230	101300000	1000	0	0	-1	1000
23779475	126	1029	0	-100	0	230	101300000	1000	0	0	-1	1000
23792035	130	1030	0	-100	0	230	101300000	1000	0	0	-1	1000
23804595	130	1027	0	-100	0	230	101300000	1000	0	0	-1	1000
23817155	133	1023	0	-100	0	230	101300000	1000	0	0	-1	1000
23829715	130	1021	0	-100	0	230	101300000	1000	0	0	-1	1000
23842275	133	1022	0	-100	0	230	101300000	1000	0	0	-1	1000
23854835	133	1023	0	-100	0	230	101300000	1000	0	0	-1	1000
23867395	133	1024	0	-100	0	230	101300000	1000	0	0	-1	1000
23879955	133	1023	0	-100	0	230	101300000	1000	0	0	-1	1000
23892515	133	1023	0	-100	0	230	101300000	1000	0	0	-1	1000
23905075	135	1022	0	-100	0	230	101300000	1000	0	0	-1	1000
23917635	133	1023	0	-100	0	230	101300000	1000	0	0	-1	1000
23930195	128	1027	0	-100	0	230	101300000	1000	0	0	-1	1000
23942755	126	1026	0	-100	0	230	101300000	1000	0	0	-1	1000
23955315	128	1028	0	-100	0	230	101300000	1000	0	0	-1	1000
23967875	126	1028	0	-100	0	230	101300000	1000	0	0	-1	1000
23980435	126	1028	0	-100	0	230	101300000	1000	0	0	-1	1000
23992995	126	1023	0	-100	0	230	101300000	1000	0	0	-1	1000
24005555	130	1027	0	-100	0	230	101300000	1000	0	0	-1	1000
24018115	126	1026	0	-100	0	230	101300000	1000	0	0	-1	1000
24030675	128	1024	0	-100	0	230	101300000	1000	0	0	-1	1000
24043235	135	1021	0	-100	0	230	101300000	1000	0	0	-1	1000
24055795	135	1022	0	-100	0	230	101300000	1000	0	0	-1	1000
24068355	135	1022	0	-100	0	230	101300000	1000	0	0	-1	1000
24080915	133	1023	0	-100	0	230	101300000	1000	0	0	-1	1000
24093475	128	1026	0	-100	0	230	101300000	1000	0	0	-1	1000
24106035	128	1030	0	-100	0	230	101300000	1000	0	0	-1	1000
24118595	128	1022	0	-100	0	230	101300000	1000	0	0	-1	1000
24131155	140	1025	0	-100	0	230	101300000	1000	0	0	-1	1000
24143715	128	1027	0	-100	0	230	101300000	1000	0	0	-1	1000
24156275	130	1028	0	-100	0	230	101300000	1000	0	0	-1	1000
24168835	130	1022	0	-100	0	230	101300000	1000	0	0	-1	1000
24181395	133	1023	0	-100	0	230	101300000	1000	0	0	-1	1000
24193955	135	1019	0	-100	0	230	101300000	1000	0	0	-1	1000
24206515	130	1023	0	-100	0	230	101300000	1000	0	0	-1	1000
24219075	126	1026	0	-100	0	230	101300000	1000	0	0	-1	1000
24281875	135	1021	0	-100	0	230	101300000	1000	0	0	-1	1000
24294435	130	1027	0	-100	0	230	101300000	1000	0	0	-1	1000
24306995	128	1024	0	-100	0	230	101300000	1000	0	0	-1	1000
24319555	125	1026	0	-100	0	230	101300000	1000	0	0	-1	1000
24332115	128	1024	0	-100	0	230	101300000	1000	0	0	-1	1000
24344675	133	1022	0	-100	0	230	101300000	1000	0	0	-1	1000
24357235	133	1025	0	-100	0	230	101300000	1000	0	0	-1	1000
24369795	135	1022	0	-100	0	230	101300000	1000	0	0	-1	1000
24382355	130	1022	0	-100	0	230	101300000	1000	0	0	-1	1000
24394915	128	1023	0	-100	0	230	101300000	1000	0	0	-1	1000
24407475	126	1026	0	-100	0	230	101300000	1000	0	0	-1	1000
24420035	128	1026	0	-100	0	230	101300000	1000	0	0	-1	1000
24432595	128	1027	0	-100	0	230	101300000	1000	0	0	-1	1000
24445155	133	1026	0	-100	0	230	101300000	1000	0	0	-1	1000
24457715	126	1026	0	-100	0	230	101300000	1000	0	0	-1	1000
24470275	126	1026	0	-100	0	230	101300000	1000	0	0	-1	1000
24482835	125	1026	0	-100	0	230	101300000	1000	0	0	-1	1000
24495395	125	1025	0	-100	0	230	101300000	1000	0	0	-1	1000
24507955	130	1026	0	-100	0	230	101300000	1000	0	0	-1	1000
24520515	130	1027	0	-100	0	230	101300000	1000	0	0	-1	1000
24533075	128	1026	0	-100	0	230	101300000	1000	0	0	-1	1000
24545635	128	1027	0	-100	0	230	101300000	1000	0	0	-1	1000
24558195	130	1027	0	-100	0	230	101300000	1000	0	0	-1	1000
24570755	128	1024	0	-100	0	230	101300000	1000	0	0	-1	1000
24583315	130	1024	0	-100	0	230	101300000	1000	0	0	-1	1000
24595875	128	1027	0	-100	0	230	101300000	1000	0	0	-1	1000
24608435	128	1026	0	-100	0	230	101300000	1000	0	0	-1	1000
24620995	130	1024	0	-100	0	230	101300000	1000	0	0	-1	1000
24633555	130	1023	0	-100	0	230	101300000	1000	0	0	-1	1000
24646115	133	1024	0	-100	0	230	101300000	1000	0	0	-1	1000
24658675	133	1024	0	-100	0	230	101300000	1000	0	0	-1	1000
24671235	126	1028	0	-100	0	230	101300000	1000	0	0	-1	1000
24683795	130	1031	0	-100	0	230	101300000	1000	0	0	-1	1000
24696355	126	1026	0	-100	0	230	101300000	1000	0	0	-1	1000
24708915	128	1025	0	-100	0	230	101300000	1000	0	0	-1	1000
24721475	135	1022	0	-100	0	230	101300000	1000	0	0	-1	1000
24734035	130	1023	0	-100	0	230	101300000	1000	0	0	-1	1000
24746595	128	1032	0	-100	0	230	101300000	1000	0	0	-1	1000
24759155	130	1029	0	-100	0	230	101300000	1000	0	0	-1	1000
24771715	133	1024	0	-100	0	230	101300000	1000	0	0	-1	1000
24784275	128	1024	0	-100	0	230	101300000	1000	0	0	-1	1000
24796835	130	1029	0	-100	0	230	101300000	1000	0	0	-1	1000
24809395	128	1028	0	-100	0	230	101300000	1000	0	0	-1	1000
24821955	133	1022	0	-100	0	230	101300000	1000	0	0	-1	1000
24834515	133	1022	0	-100	0	230	101300000	1000	0	0	-1	1000
24847075	128	1024	0	-100	0	230	101300000	1000	0	0	-1	1000
24859635	128	1032	0	-100	0	230	101300000	1000	0	0	-1	1000
24872195	128	1026	0	-100	0	230	101300000	1000	0	0	-1	1000
24884755	130	1023	0	-100	0	230	101300000	1000	0	0	-1	1000
24897315	138	1023	0	-100	0	230	101300000	1000	0	0	-1	1000
24909875	126	1029	0	-100	0	230	101300000	1000	0	0	-1	1000
24922435	128	1026	0	-100	0	230	101300000	1000	0	0	-1	1000
24934995	135	1026	0	-100	0	230	101300000	1000	0	0	-1	1000
24947555	133	1023	0	-100	0	230	101300000	1000	0	0	-1	1000
24960115	126	1026	0	-100	0	230	101300000	1000	0	0	-1	1000
24972675	126	1029	0	-100	0	230	101300000	1000	0	0	-1	1000
24985235	126	1026	0	-100	0	230	101300000	1000	0	0	-1	1000
24997795	133	1024	0	-100	0	230	101300000	1000	0	0	-1	1000
25010355	135	1022	0	-100	0	230	101300000	1000	0	0	-1	1000
25022915	130	1025	0	-100	0	230	101300000	1000	0	0	-1	1000
25035475	126	1029	0	-100	0	230	101300000	1000	0	0	-1	1000
25048035	128	1027	0	-100	0	230	101300000	1000	0	0	-1	1000
25060595	133	1024	0	-100	0	230	101300000	1000	0	0	-1	1000
25073155	135	1024	0	-100	0	230	101300000	1000	0	0	-1	1000
25085715	126	1027	0	-100	0	230	101300000	1000	0	0	-1	1000
25098275	130	1030	0	-100	0	230	101300000	1000	0	0	-1	1000
25110835	130	1022	0	-100	0	230	101300000	1000	0	0	-1	1000
25123395	133	1022	0	-100	0	230	101300000	1000	0	0	-1	1000
25135955	133	1023	0	-100	0	230	101300000	1000	0	0	-1	1000
25148515	128	1023	0	-100	0	230	101300000	1000	0	0	-1	1000
25161075	128	1032	0	-100	0	230	101300000	1000	0	0	-1	1000
25173635	130	1022	0	-100	0	230	101300000	1000	0	0	-1	1000
25186195	133	1024	0	-100	0	230	101300000	1000	0	0	-1	1000
25198755	126	1029	0	-100	0	230	101300000	1000	0	0	-1	1000
25211315	128	1025	0	-100	0	230	101300000	1000	0	0	-1	1000
25223875	133	1023	0	-100	0	230	101300000	1000	0	0	-1	1000
25236435	128	1027	0	-100	0	230	101300000	1000	0	0	-1	1000
25248995	130	1023	0	-100	0	230	101300000	1000	0	0	-1	1000
25261555	130	1023	0	-100	0	230	101300000	1000	0	0	-1	1000
25274115	133	1025	0	-100	0	230	101300000	1000	0	0	-1	1000
25286675	128	1029	0	-100	0	230	101300000	1000	0	0	-1	1000
25299235	128	1026	0	-100	0	230	101300000	1000	0	0	-1	1000
25311795	133	1023	0	-100	0	230	101300000	1000	0	0	-1	1000
25324355	135	1023	0	-100	0	230	101300000	1000	0	0	-1	1000
25336915	128	1031	0	-100	0	230	101300000	1000	0	0	-1	1000
25349475	128	1028	0	-100	0	230	101300000	1000	0	0	-1	1000
25362035	133	1025	0	-100	0	230	101300000	1000	0	0	-1	1000
25374595	128	1029	0	-100	0	230	101300000	1000	0	0	-1	1000
25387155	133	1027	0	-100	0	230	101300000	1000	0	0	-1	1000
25399715	133	1023	0	-100	0	230	101300000	1000	0	0	-1	1000
25412275	130	1025	0	-100	0	230	101300000	1000	0	0	-1	1000
25424835	128	1032	0	-100	0	230	101300000	1000	0	0	-1	1000
25437395	130	1023	0	-100	0	230	101300000	1000	0	0	-1	1000
25449955	135	1025	0	-100	0	230	101300000	1000	0	0	-1	1000
25462515	128	1029	0	-100	0	230	101300000	1000	0	0	-1	1000
25475075	128	1028	0	-100	0	230	101300000	1000	0	0	-1	1000
25487635	135	1022	0	-100	0	230	101300000	1000	0	0	-1	1000
25500195	135	1023	0	-100	0	230	101300000	1000	0	0	-1	1000
25512755	126	1028	0	-100	0	230	101300000	1000	0	0	-1	1000
25525315	130	1026	0	-100	0	230	101300000	1000	0	0	-1	1000
25537875	133	1022	0	-100	0	230	101300000	1000	0	0	-1	1000
25550435	133	1022	0	-100	0	230	101300000	1000	0	0	-1	1000
25562995	126	1025	0	-100	0	230	101300000	1000	0	0	-1	1000
25575555	126	1026	0	-100	0	230	101300000	1000	0	0	-1	1000
25588115	130	1021	0	-100	0	230	101300000	1000	0	0	-1	1000
25600675	135	1023	0	-100	0	230	101300000	1000	0	0	-1	1000
25613235	126	1027	0	-100	0	230	101300000	1000	0	0	-1	1000
25625795	128	1028	0	-100	0	230	101300000	1000	0	0	-1	1000
25638355	130	1023	0	-100	0	230	101300000	1000	0	0	-1	1000
25650915	133	1022	0	-100	0	230	101300000	1000	0	0	-1	1000
25663475	133	1025	0	-100	0	230	101300000	1000	0	0	-1	1000
25676035	126	1026	0	-100	0	230	101300000	1000	0	0	-1	1000
25688595	128	1027	0	-100	0	230	101300000	1000	0	0	-1	1000
25701155	140	1023	0	-100	0	230	101300000	1000	0	0	-1	1000
25713715	133	1023	0	-100	0	230	101300000	1000	0	0	-1	1000
25726275	135	1021	0	-100	0	230	101300000	1000	0	0	-1	1000
25738835	128	1024	0	-100	0	230	101300000	1000	0	0	-1	1000
25751395	125	1026	0	-100	0	230	101300000	1000	0	0	-1	1000
25763955	128	1030	0	-100	0	230	101300000	1000	0	0	-1	1000
25776515	128	1027	0	-100	0	230	101300000	1000	0	0	-1	1000
25789075	128	1024	0	-100	0	230	101300000	1000	0	0	-1	1000
25801635	133	1024	0	-100	0	230	101300000	1000	0	0	-1	1000
25814195	133	1023	0	-100	0	230	101300000	1000	0	0	-1	1000
25826755	125	1028	0	-100	0	230	101300000	1000	0	0	-1	1000
25839315	130	1028	0	-100	0	230	101300000	1000	0	0	-1	1000
25851875	133	1022	0	-100	0	230	101300000	1000	0	0	-1	1000
25864435	133	1025	0	-100	0	230	101300000	1000	0	0	-1	1000
25876995	128	1024	0	-100	0	230	101300000	1000	0	0	-1	1000
25889555	133	1024	0	-100	0	230	101300000	1000	0	0	-1	1000
25902115	135	1023	0	-100	0	230	101300000	1000	0	0	-1	1000
25914675	128	1030	0	-100	0	230	101300000	1000	0	0	-1	1000
25927235	128	1027	0	-100	0	230	101300000	1000	0	0	-1	1000
25939795	133	1023	0	-100	0	230	101300000	1000	0	0	-1	1000
25952355	130	1025	0	-100	0	230	101300000	1000	0	0	-1	1000
25964915	130	1031	0	-100	0	230	101300000	1000	0	0	-1	1000
25977475	130	1022	0	-100	0	230	101300000	1000	0	0	-1	1000
25990035	133	1023	0	-100	0	230	101300000	1000	0	0	-1	1000
26002595	135	1021	0	-100	0	230	101300000	1000	0	0	-1	1000
26015155	133	1029	0	-100	0	230	101300000	1000	0	0	-1	1000
26027715	128	1028	0	-100	0	230	101300000	1000	0	0	-1	1000
26040275	133	1022	0	-100	0	230	101300000	1000	0	0	-1	1000
26052835	135	1023	0	-100	0	230	101300000	1000	0	0	-1	1000
26065395	126	1029	0	-100	0	230	101300000	1000	0	0	-1	1000
26077955	128	1032	0	-100	0	230	101300000	1000	0	0	-1	1000
26090515	128	1027	0	-100	0	230	101300000	1000	0	0	-1	1000
26103075	133	1022	0	-100	0	230	101300000	1000	0	0	-1	1000
26115635	133	1020	0	-100	0	230	101300000	1000	0	0	-1	1000
26128195	130	1023	0	-100	0	230	101300000	1000	0	0	-1	1000
26140755	128	1027	0	-100	0	230	101300000	1000	0	0	-1	1000
26153315	128	1030	0	-100	0	230	101300000	1000	0	0	-1	1000
26165875	126	1026	0	-100	0	230	101300000	1000	0	0	-1	1000
26178435	133	1024	0	-100	0	230	101300000	1000	0	0	-1	1000
26190995	135	1029	0	-100	0	230	101300000	1000	0	0	-1	1000
26203555	126	1025	0	-100	0	230	101300000	1000	0	0	-1	1000
26216115	130	1029	0	-100	0	230	101300000	1000	0	0	-1	1000
26228675	125	1026	0	-100	0	230	101300000	1000	0	0	-1	1000
26241235	133	1022	0	-100	0	230	101300000	1000	0	0	-1	1000
26253795	135	1019	0	-100	0	230	101300000	1000	0	0	-1	1000
26266355	135	1023	0	-100	0	230	101300000	1000	0	0	-1	1000
26278915	130	1025	0	-100	0	230	101300000	1000	0	0	-1	1000
26291475	128	1029	0	-100	0	230	101300000	1000	0	0	-1	1000
26304035	128	1032	0	-100	0	230	101300000	1000	0	0	-1	1000
26316595	128	1027	0	-100	0	230	101300000	1000	0	0	-1	1000
26329155	138	1021	0	-100	0	230	101300000	1000	0	0	-1	1000
26341715	135	1023	0	-100	0	230	101300000	1000	0	0	-1	1000
26354275	130	1023	0	-100	0	230	101300000	1000	0	0	-1	1000
26366835	133	1023	0	-100	0	230	101300000	1000	0	0	-1	1000
26379395	130	1026	0	-100	0	230	101300000	1000	0	0	-1	1000
26391955	126	1027	0	-100	0	230	101300000	1000	0	0	-1	1000
26404515	128	1030	0	-100	0	230	101300000	1000	0	0	-1	1000
26417075	130	1031	0	-100	0	230	101300000	1000	0	0	-1	1000
26429635	130	1027	0	-100	0	230	101300000	1000	0	0	-1	1000
26442195	130	1028	0	-100	0	230	101300000	1000	0	0	-1	1000
26454755	125	1025	0	-100	0	230	101300000	1000	0	0	-1	1000
26467315	128	1023	0	-100	0	230	101300000	1000	0	0	-1	1000
26479875	133	1024	0	-100	0	230	101300000	1000	0	0	-1	1000
26492435	133	1024	0	-100	0	230	101300000	1000	0	0	-1	1000
26504995	133	1023	0	-100	0	230	101300000	1000	0	0	-1	1000
26517555	135	1022	0	-100	0	230	101300000	1000	0	0	-1	1000
26530115	135	1019	0	-100	0	230	101300000	1000	0	0	-1	1000
26542675	135	1018	0	-100	0	230	101300000	1000	0	0	-1	1000
26555235	135	1022	0	-100	0	230	101300000	1000	0	0	-1	1000
26567795	133	1024	0	-100	0	230	101300000	1000	0	0	-1	1000
26580355	128	1026	0	-100	0	230	101300000	1000	0	0	-1	1000
26592915	126	1026	0	-100	0	230	101300000	1000	0	0	-1	1000
26605475	128	1030	0	-100	0	230	101300000	1000	0	0	-1	1000
26618035	128	1032	0	-100	0	230	101300000	1000	0	0	-1	1000
26630595	128	1032	0	-100	0	230	101300000	1000	0	0	-1	1000
26643155	133	1026	0	-100	0	230	101300000	1000	0	0	-1	1000
26655715	128	1025	0	-100	0	230	101300000	1000	0	0	-1	1000
26668275	133	1023	0	-100	0	230	101300000	1000	0	0	-1	1000
26680835	135	1021	0	-100	0	230	101300000	1000	0	0	-1	1000
26693395	133	1026	0	-100	0	230	101300000	1000	0	0	-1	1000
26705955	128	1026	0	-100	0	230	101300000	1000	0	0	-1	1000
26718515	126	1026	0	-100	0	230	101300000	1000	0	0	-1	1000
26731075	130	1031	0	-100	0	230	101300000	1000	0	0	-1	1000
26743635	128	1024	0	-100	0	230	101300000	1000	0	0	-1	1000
26756195	135	1022	0	-100	0	230	101300000	1000	0	0	-1	1000
26768755	135	1021	0	-100	0	230	101300000	1000	0	0	-1	1000
26781315	128	1028	0	-100	0	230	101300000	1000	0	0	-1	1000
26793875	126	1029	0	-100	0	230	101300000	1000	0	0	-1	1000
26806435	130	1027	0	-100	0	230	101300000	1000	0	0	-1	1000
26818995	130	1023	0	-100	0	230	101300000	1000	0	0	-1	1000
26831555	133	1021	0	-100	0	230	101300000	1000	0	0	-1	1000
26844115	126	1027	0	-100	0	230	101300000	1000	0	0	-1	1000
26856675	130	1030	0	-100	0	230	101300000	1000	0	0	-1	1000
26869235	128	1023	0	-100	0	230	101300000	1000	0	0	-1	1000
26881795	133	1024	0	-100	0	230	101300000	1000	0	0	-1	1000
26894355	135	1022	0	-100	0	230	101300000	1000	0	0	-1	1000
26906915	133	1022	0	-100	0	230	101300000	1000	0	0	-1	1000
26919475	128	1024	0	-100	0	230	101300000	1000	0	0	-1	1000
26932035	130	1027	0	-100	0	230	101300000	1000	0	0	-1	1000
26944595	126	1028	0	-100	0	230	101300000	1000	0	0	-1	1000
26957155	133	1031	0	-100	0	230	101300000	1000	0	0	-1	1000
26982275	128	1022	0	-100	0	230	101300000	1000	0	0	-1	1000
26994835	135	1023	0	-100	0	230	101300000	1000	0	0	-1	1000
27007395	135	1023	0	-100	0	230	101300000	1000	0	0	-1	1000
27019955	128	1025	0	-100	0	230	101300000	1000	0	0	-1	1000
27032515	128	1031	0	-100	0	230	101300000	1000	0	0	-1	1000
27045075	128	1030	0	-100	0	230	101300000	1000	0	0	-1	1000
