timestamp	voltage	current	windSpeed	pitchAngle	rpm	temperature	ambientPressure	humidity	accelerationX	accelerationY	accelerationZ	currentSink
7038070	2002	1	0	-100	0	230	101300000	1000	0	0	-1	0
7045523	2005	0	0	-100	0	230	101300000	1000	0	0	-1	0
7058083	2002	2	0	-100	0	230	101300000	1000	0	0	-1	0
7070643	2005	2	0	-100	0	230	101300000	1000	0	0	-1	0
7083203	2003	1	0	-100	0	230	101300000	1000	0	0	-1	0
7095763	2006	3	0	-100	0	230	101300000	1000	0	0	-1	0
7108323	2002	4	0	-100	0	230	101300000	1000	0	0	-1	0
7120883	2003	0	0	-100	0	230	101300000	1000	0	0	-1	0
7133443	2003	0	0	-100	0	230	101300000	1000	0	0	-1	0
7146004	2000	4	0	-100	0	230	101300000	1000	0	0	-1	0
7158563	2009	0	0	-100	0	230	101300000	1000	0	0	-1	0
7171123	2011	0	0	-100	0	230	101300000	1000	0	0	-1	0
7183683	2011	0	0	-100	0	230	101300000	1000	0	0	-1	0
7196243	2011	0	0	-100	0	230	101300000	1000	0	0	-1	0
7208803	2008	0	0	-100	0	230	101300000	1000	0	0	-1	0
7221363	2008	0	0	-100	0	230	101300000	1000	0	0	-1	0
7233923	2007	0	0	-100	0	230	101300000	1000	0	0	-1	0
7246483	2007	0	0	-100	0	230	101300000	1000	0	0	-1	0
7259043	2009	0	0	-100	0	230	101300000	1000	0	0	-1	0
7271603	2009	0	0	-100	0	230	101300000	1000	0	0	-1	0
7284163	2008	0	0	-100	0	230	101300000	1000	0	0	-1	0
7296723	2009	0	0	-100	0	230	101300000	1000	0	0	-1	0
7309283	2005	0	0	-100	0	230	101300000	1000	0	0	-1	0
7321843	2002	0	0	-100	0	230	101300000	1000	0	0	-1	0
7334403	2002	2	0	-100	0	230	101300000	1000	0	0	-1	0
7346963	2007	0	0	-100	0	230	101300000	1000	0	0	-1	0
7715235	2	103	0	-100	0	230	101300000	1000	0	0	-1	1000
7727795	12	99	0	-100	0	230	101300000	1000	0	0	-1	1000
7740355	12	99	0	-100	0	230	101300000	1000	0	0	-1	1000
7752915	9	105	0	-100	0	230	101300000	1000	0	0	-1	1000
7765475	2	109	0	-100	0	230	101300000	1000	0	0	-1	1000
7778035	2	106	0	-100	0	230	101300000	1000	0	0	-1	1000
7790595	2	104	0	-100	0	230	101300000	1000	0	0	-1	1000
7803155	0	101	0	-100	0	230	101300000	1000	0	0	-1	1000
7815715	4	99	0	-100	0	230	101300000	1000	0	0	-1	1000
7828275	7	101	0	-100	0	230	101300000	1000	0	0	-1	1000
7840835	12	96	0	-100	0	230	101300000	1000	0	0	-1	1000
7853395	12	101	0	-100	0	230	101300000	1000	0	0	-1	1000
7865955	9	104	0	-100	0	230	101300000	1000	0	0	-1	1000
7878515	4	108	0	-100	0	230	101300000	1000	0	0	-1	1000
7891075	4	106	0	-100	0	230	101300000	1000	0	0	-1	1000
7903635	2	104	0	-100	0	230	101300000	1000	0	0	-1	1000
7916195	0	104	0	-100	0	230	101300000	1000	0	0	-1	1000
7928755	4	99	0	-100	0	230	101300000	1000	0	0	-1	1000
7941315	12	102	0	-100	0	230	101300000	1000	0	0	-1	1000
7953875	9	98	0	-100	0	230	101300000	1000	0	0	-1	1000
7966435	9	101	0	-100	0	230	101300000	1000	0	0	-1	1000
7978995	4	98	0	-100	0	230	101300000	1000	0	0	-1	1000
7991555	4	105	0	-100	0	230	101300000	1000	0	0	-1	1000
8004115	2	100	0	-100	0	230	101300000	1000	0	0	-1	1000
8016675	9	96	0	-100	0	230	101300000	1000	0	0	-1	1000
8054355	4	106	0	-100	0	230	101300000	1000	0	0	-1	1000
8066915	4	103	0	-100	0	230	101300000	1000	0	0	-1	1000
8079475	2	102	0	-100	0	230	101300000	1000	0	0	-1	1000
8092035	2	101	0	-100	0	230	101300000	1000	0	0	-1	1000
8104595	2	100	0	-100	0	230	101300000	1000	0	0	-1	1000
8117155	0	102	0	-100	0	230	101300000	1000	0	0	-1	1000
8129715	9	100	0	-100	0	230	101300000	1000	0	0	-1	1000
8142275	12	100	0	-100	0	230	101300000	1000	0	0	-1	1000
8154835	12	100	0	-100	0	230	101300000	1000	0	0	-1	1000
8167395	12	97	0	-100	0	230	101300000	1000	0	0	-1	1000
8179955	9	103	0	-100	0	230	101300000	1000	0	0	-1	1000
8192515	2	105	0	-100	0	230	101300000	1000	0	0	-1	1000
8205075	4	103	0	-100	0	230	101300000	1000	0	0	-1	1000
8217635	2	100	0	-100	0	230	101300000	1000	0	0	-1	1000
8230195	12	101	0	-100	0	230	101300000	1000	0	0	-1	1000
8242755	9	100	0	-100	0	230	101300000	1000	0	0	-1	1000
8255315	4	105	0	-100	0	230	101300000	1000	0	0	-1	1000
8267875	2	103	0	-100	0	230	101300000	1000	0	0	-1	1000
8280435	4	97	0	-100	0	230	101300000	1000	0	0	-1	1000
8292995	12	105	0	-100	0	230	101300000	1000	0	0	-1	1000
8305555	9	104	0	-100	0	230	101300000	1000	0	0	-1	1000
8318115	4	107	0	-100	0	230	101300000	1000	0	0	-1	1000
8330675	2	101	0	-100	0	230	101300000	1000	0	0	-1	1000
8343235	12	101	0	-100	0	230	101300000	1000	0	0	-1	1000
8355795	9	99	0	-100	0	230	101300000	1000	0	0	-1	1000
8368355	4	104	0	-100	0	230	101300000	1000	0	0	-1	1000
8380915	7	105	0	-100	0	230	101300000	1000	0	0	-1	1000
8393475	0	104	0	-100	0	230	101300000	1000	0	0	-1	1000
8406035	4	99	0	-100	0	230	101300000	1000	0	0	-1	1000
8418595	7	101	0	-100	0	230	101300000	1000	0	0	-1	1000
8431155	2	103	0	-100	0	230	101300000	1000	0	0	-1	1000
8443715	4	105	0	-100	0	230	101300000	1000	0	0	-1	1000
8456275	4	100	0	-100	0	230	101300000	1000	0	0	-1	1000
8468835	9	98	0	-100	0	230	101300000	1000	0	0	-1	1000
8481395	7	99	0	-100	0	230	101300000	1000	0	0	-1	1000
8493955	4	103	0	-100	0	230	101300000	1000	0	0	-1	1000
8506515	7	103	0	-100	0	230	101300000	1000	0	0	-1	1000
8519075	2	100	0	-100	0	230	101300000	1000	0	0	-1	1000
8531635	4	100	0	-100	0	230	101300000	1000	0	0	-1	1000
8544195	9	100	0	-100	0	230	101300000	1000	0	0	-1	1000
8556755	12	101	0	-100	0	230	101300000	1000	0	0	-1	1000
8569315	9	100	0	-100	0	230	101300000	1000	0	0	-1	1000
8581875	4	103	0	-100	0	230	101300000	1000	0	0	-1	1000
8594435	4	106	0	-100	0	230	101300000	1000	0	0	-1	1000
8606995	9	104	0	-100	0	230	101300000	1000	0	0	-1	1000
8619555	2	109	0	-100	0	230	101300000	1000	0	0	-1	1000
8632115	2	99	0	-100	0	230	101300000	1000	0	0	-1	1000
8644675	14	98	0	-100	0	230	101300000	1000	0	0	-1	1000
8657235	4	108	0	-100	0	230	101300000	1000	0	0	-1	1000
8669795	4	99	0	-100	0	230	101300000	1000	0	0	-1	1000
8682355	9	100	0	-100	0	230	101300000	1000	0	0	-1	1000
8694915	9	101	0	-100	0	230	101300000	1000	0	0	-1	1000
8707475	2	106	0	-100	0	230	101300000	1000	0	0	-1	1000
8720035	2	100	0	-100	0	230	101300000	1000	0	0	-1	1000
8732595	9	97	0	-100	0	230	101300000	1000	0	0	-1	1000
8745155	4	102	0	-100	0	230	101300000	1000	0	0	-1	1000
8757715	7	108	0	-100	0	230	101300000	1000	0	0	-1	1000
8770275	2	96	0	-100	0	230	101300000	1000	0	0	-1	1000
8782835	9	99	0	-100	0	230	101300000	1000	0	0	-1	1000
8795395	7	107	0	-100	0	230	101300000	1000	0	0	-1	1000
8807955	7	100	0	-100	0	230	101300000	1000	0	0	-1	1000
8820515	4	103	0	-100	0	230	101300000	1000	0	0	-1	1000
8833075	2	101	0	-100	0	230	101300000	1000	0	0	-1	1000
8845635	4	104	0	-100	0	230	101300000	1000	0	0	-1	1000
8858195	2	99	0	-100	0	230	101300000	1000	0	0	-1	1000
8870755	9	99	0	-100	0	230	101300000	1000	0	0	-1	1000
8883315	7	105	0	-100	0	230	101300000	1000	0	0	-1	1000
8895875	9	99	0	-100	0	230	101300000	1000	0	0	-1	1000
8908435	4	105	0	-100	0	230	101300000	1000	0	0	-1	1000
8920995	2	106	0	-100	0	230	101300000	1000	0	0	-1	1000
8933555	7	100	0	-100	0	230	101300000	1000	0	0	-1	1000
8946115	4	105	0	-100	0	230	101300000	1000	0	0	-1	1000
8958675	7	101	0	-100	0	230	101300000	1000	0	0	-1	1000
8971235	7	98	0	-100	0	230	101300000	1000	0	0	-1	1000
8983795	4	104	0	-100	0	230	101300000	1000	0	0	-1	1000
8996355	14	100	0	-100	0	230	101300000	1000	0	0	-1	1000
9008915	4	106	0	-100	0	230	101300000	1000	0	0	-1	1000
9021475	2	100	0	-100	0	230	101300000	1000	0	0	-1	1000
9034035	9	99	0	-100	0	230	101300000	1000	0	0	-1	1000
9046595	2	106	0	-100	0	230	101300000	1000	0	0	-1	1000
9059155	0	104	0	-100	0	230	101300000	1000	0	0	-1	1000
9071715	9	99	0	-100	0	230	101300000	1000	0	0	-1	1000
9084275	2	107	0	-100	0	230	101300000	1000	0	0	-1	1000
9096835	2	100	0	-100	0	230	101300000	1000	0	0	-1	1000
9109395	9	98	0	-100	0	230	101300000	1000	0	0	-1	1000
9121955	4	108	0	-100	0	230	101300000	1000	0	0	-1	1000
9134515	2	103	0	-100	0	230	101300000	1000	0	0	-1	1000
9147075	9	99	0	-100	0	230	101300000	1000	0	0	-1	1000
9159635	4	108	0	-100	0	230	101300000	1000	0	0	-1	1000
9172195	2	99	0	-100	0	230	101300000	1000	0	0	-1	1000
9184755	12	100	0	-100	0	230	101300000	1000	0	0	-1	1000
9197315	7	105	0	-100	0	230	101300000	1000	0	0	-1	1000
9209875	4	97	0	-100	0	230	101300000	1000	0	0	-1	1000
9222435	7	99	0	-100	0	230	101300000	1000	0	0	-1	1000
9234995	2	104	0	-100	0	230	101300000	1000	0	0	-1	1000
9247555	9	99	0	-100	0	230	101300000	1000	0	0	-1	1000
9260115	7	106	0	-100	0	230	101300000	1000	0	0	-1	1000
9272675	12	96	0	-100	0	230	101300000	1000	0	0	-1	1000
9285235	4	103	0	-100	0	230	101300000	1000	0	0	-1	1000
9297795	12	99	0	-100	0	230	101300000	1000	0	0	-1	1000
9310355	7	108	0	-100	0	230	101300000	1000	0	0	-1	1000
9322915	12	99	0	-100	0	230	101300000	1000	0	0	-1	1000
9335475	2	101	0	-100	0	230	101300000	1000	0	0	-1	1000
9348035	9	101	0	-100	0	230	101300000	1000	0	0	-1	1000
9360595	4	105	0	-100	0	230	101300000	1000	0	0	-1	1000
9373155	2	96	0	-100	0	230	101300000	1000	0	0	-1	1000
9385715	12	100	0	-100	0	230	101300000	1000	0	0	-1	1000
9398275	4	105	0	-100	0	230	101300000	1000	0	0	-1	1000
9410835	4	98	0	-100	0	230	101300000	1000	0	0	-1	1000
9423395	12	100	0	-100	0	230	101300000	1000	0	0	-1	1000
9435955	7	108	0	-100	0	230	101300000	1000	0	0	-1	1000
9448515	4	98	0	-100	0	230	101300000	1000	0	0	-1	1000
9461075	12	100	0	-100	0	230	101300000	1000	0	0	-1	1000
9473635	2	108	0	-100	0	230	101300000	1000	0	0	-1	1000
9486195	4	99	0	-100	0	230	101300000	1000	0	0	-1	1000
9498755	7	99	0	-100	0	230	101300000	1000	0	0	-1	1000
9511315	4	99	0	-100	0	230	101300000	1000	0	0	-1	1000
9523875	4	104	0	-100	0	230	101300000	1000	0	0	-1	1000
9536435	2	102	0	-100	0	230	101300000	1000	0	0	-1	1000
9548995	7	101	0	-100	0	230	101300000	1000	0	0	-1	1000
9561555	4	97	0	-100	0	230	101300000	1000	0	0	-1	1000
9574115	7	100	0	-100	0	230	101300000	1000	0	0	-1	1000
9586675	12	101	0	-100	0	230	101300000	1000	0	0	-1	1000
9599235	4	106	0	-100	0	230	101300000	1000	0	0	-1	1000
9611795	9	100	0	-100	0	230	101300000	1000	0	0	-1	1000
9624355	4	100	0	-100	0	230	101300000	1000	0	0	-1	1000
9636915	9	100	0	-100	0	230	101300000	1000	0	0	-1	1000
9649475	4	103	0	-100	0	230	101300000	1000	0	0	-1	1000
9662035	9	100	0	-100	0	230	101300000	1000	0	0	-1	1000
9674595	4	105	0	-100	0	230	101300000	1000	0	0	-1	1000
9687155	2	96	0	-100	0	230	101300000	1000	0	0	-1	1000
9699715	4	107	0	-100	0	230	101300000	1000	0	0	-1	1000
9712275	2	98	0	-100	0	230	101300000	1000	0	0	-1	1000
9724835	4	106	0	-100	0	230	101300000	1000	0	0	-1	1000
9737395	4	100	0	-100	0	230	101300000	1000	0	0	-1	1000
9749955	9	104	0	-100	0	230	101300000	1000	0	0	-1	1000
9762515	4	100	0	-100	0	230	101300000	1000	0	0	-1	1000
9775075	9	100	0	-100	0	230	101300000	1000	0	0	-1	1000
9787635	7	107	0	-100	0	230	101300000	1000	0	0	-1	1000
9800195	7	102	0	-100	0	230	101300000	1000	0	0	-1	1000
9812755	9	100	0	-100	0	230	101300000	1000	0	0	-1	1000
9825315	7	108	0	-100	0	230	101300000	1000	0	0	-1	1000
9837875	12	100	0	-100	0	230	101300000	1000	0	0	-1	1000
9850435	4	106	0	-100	0	230	101300000	1000	0	0	-1	1000
9862995	4	104	0	-100	0	230	101300000	1000	0	0	-1	1000
9875555	7	98	0	-100	0	230	101300000	1000	0	0	-1	1000
9888115	2	100	0	-100	0	230	101300000	1000	0	0	-1	1000
9900675	9	100	0	-100	0	230	101300000	1000	0	0	-1	1000
9913235	7	108	0	-100	0	230	101300000	1000	0	0	-1	1000
9925795	12	98	0	-100	0	230	101300000	1000	0	0	-1	1000
9938355	2	104	0	-100	0	230	101300000	1000	0	0	-1	1000
9950915	12	101	0	-100	0	230	101300000	1000	0	0	-1	1000
9963475	4	102	0	-100	0	230	101300000	1000	0	0	-1	1000
9976035	7	98	0	-100	0	230	101300000	1000	0	0	-1	1000
9988595	2	101	0	-100	0	230	101300000	1000	0	0	-1	1000
10001155	4	104	0	-100	0	230	101300000	1000	0	0	-1	1000
10013715	2	99	0	-100	0	230	101300000	1000	0	0	-1	1000
10026275	9	100	0	-100	0	230	101300000	1000	0	0	-1	1000
10038835	2	101	0	-100	0	230	101300000	1000	0	0	-1	1000
10051395	9	99	0	-100	0	230	101300000	1000	0	0	-1	1000
10063955	4	105	0	-100	0	230	101300000	1000	0	0	-1	1000
10076515	7	99	0	-100	0	230	101300000	1000	0	0	-1	1000
10089075	4	105	0	-100	0	230	101300000	1000	0	0	-1	1000
10101635	4	97	0	-100	0	230	101300000	1000	0	0	-1	1000
10114195	4	107	0	-100	0	230	101300000	1000	0	0	-1	1000
10126755	4	96	0	-100	0	230	101300000	1000	0	0	-1	1000
10139315	4	105	0	-100	0	230	101300000	1000	0	0	-1	1000
10151875	4	99	0	-100	0	230	101300000	1000	0	0	-1	1000
10164435	7	99	0	-100	0	230	101300000	1000	0	0	-1	1000
10176995	2	109	0	-100	0	230	101300000	1000	0	0	-1	1000
10189555	9	103	0	-100	0	230	101300000	1000	0	0	-1	1000
10202115	2	105	0	-100	0	230	101300000	1000	0	0	-1	1000
10214675	12	102	0	-100	0	230	101300000	1000	0	0	-1	1000
10227235	7	99	0	-100	0	230	101300000	1000	0	0	-1	1000
10239795	2	102	0	-100	0	230	101300000	1000	0	0	-1	1000
10252355	12	100	0	-100	0	230	101300000	1000	0	0	-1	1000
10264915	2	106	0	-100	0	230	101300000	1000	0	0	-1	1000
10277475	4	96	0	-100	0	230	101300000	1000	0	0	-1	1000
10290035	7	100	0	-100	0	230	101300000	1000	0	0	-1	1000
10302595	4	97	0	-100	0	230	101300000	1000	0	0	-1	1000
10315155	2	105	0	-100	0	230	101300000	1000	0	0	-1	1000
10327715	4	96	0	-100	0	230	101300000	1000	0	0	-1	1000
10340275	4	105	0	-100	0	230	101300000	1000	0	0	-1	1000
10352835	2	99	0	-100	0	230	101300000	1000	0	0	-1	1000
10365395	9	103	0	-100	0	230	101300000	1000	0	0	-1	1000
10377955	2	103	0	-100	0	230	101300000	1000	0	0	-1	1000
10390515	9	100	0	-100	0	230	101300000	1000	0	0	-1	1000
10403075	9	104	0	-100	0	230	101300000	1000	0	0	-1	1000
10415635	4	104	0	-100	0	230	101300000	1000	0	0	-1	1000
10428195	4	98	0	-100	0	230	101300000	1000	0	0	-1	1000
10440755	9	103	0	-100	0	230	101300000	1000	0	0	-1	1000
10453315	7	104	0	-100	0	230	101300000	1000	0	0	-1	1000
10465875	2	100	0	-100	0	230	101300000	1000	0	0	-1	1000
10478435	9	99	0	-100	0	230	101300000	1000	0	0	-1	1000
10490995	4	99	0	-100	0	230	101300000	1000	0	0	-1	1000
10503555	12	101	0	-100	0	230	101300000	1000	0	0	-1	1000
10516115	4	107	0	-100	0	230	101300000	1000	0	0	-1	1000
10528675	12	96	0	-100	0	230	101300000	1000	0	0	-1	1000
10541235	4	103	0	-100	0	230	101300000	1000	0	0	-1	1000
10553795	9	100	0	-100	0	230	101300000	1000	0	0	-1	1000
10566355	4	105	0	-100	0	230	101300000	1000	0	0	-1	1000
10578915	12	100	0	-100	0	230	101300000	1000	0	0	-1	1000
10591475	4	106	0	-100	0	230	101300000	1000	0	0	-1	1000
10604035	12	101	0	-100	0	230	101300000	1000	0	0	-1	1000
10616595	2	105	0	-100	0	230	101300000	1000	0	0	-1	1000
10629155	2	96	0	-100	0	230	101300000	1000	0	0	-1	1000
10641715	7	100	0	-100	0	230	101300000	1000	0	0	-1	1000
10654275	2	99	0	-100	0	230	101300000	1000	0	0	-1	1000
10666835	9	99	0	-100	0	230	101300000	1000	0	0	-1	1000
10679395	7	103	0	-100	0	230	101300000	1000	0	0	-1	1000
10691955	4	97	0	-100	0	230	101300000	1000	0	0	-1	1000
10704515	2	109	0	-100	0	230	101300000	1000	0	0	-1	1000
10717075	2	101	0	-100	0	230	101300000	1000	0	0	-1	1000
10729635	7	100	0	-100	0	230	101300000	1000	0	0	-1	1000
10742195	2	100	0	-100	0	230	101300000	1000	0	0	-1	1000
10754755	9	102	0	-100	0	230	101300000	1000	0	0	-1	1000
10767315	2	101	0	-100	0	230	101300000	1000	0	0	-1	1000
10779875	12	101	0	-100	0	230	101300000	1000	0	0	-1	1000
10792435	2	105	0	-100	0	230	101300000	1000	0	0	-1	1000
10804995	9	99	0	-100	0	230	101300000	1000	0	0	-1	1000
10817555	2	106	0	-100	0	230	101300000	1000	0	0	-1	1000
10830115	16	100	0	-100	0	230	101300000	1000	0	0	-1	1000
10842675	4	105	0	-100	0	230	101300000	1000	0	0	-1	1000
10855235	12	100	0	-100	0	230	101300000	1000	0	0	-1	1000
10867795	4	105	0	-100	0	230	101300000	1000	0	0	-1	1000
10880355	12	97	0	-100	0	230	101300000	1000	0	0	-1	1000
10892915	7	106	0	-100	0	230	101300000	1000	0	0	-1	1000
10905475	12	101	0	-100	0	230	101300000	1000	0	0	-1	1000
10918035	4	108	0	-100	0	230	101300000	1000	0	0	-1	1000
10930595	2	100	0	-100	0	230	101300000	1000	0	0	-1	1000
10943155	9	97	0	-100	0	230	101300000	1000	0	0	-1	1000
10955715	4	101	0	-100	0	230	101300000	1000	0	0	-1	1000
10968275	9	101	0	-100	0	230	101300000	1000	0	0	-1	1000
10980835	4	103	0	-100	0	230	101300000	1000	0	0	-1	1000
10993395	12	100	0	-100	0	230	101300000	1000	0	0	-1	1000
11005955	2	100	0	-100	0	230	101300000	1000	0	0	-1	1000
11018515	9	98	0	-100	0	230	101300000	1000	0	0	-1	1000
11031075	2	105	0	-100	0	230	101300000	1000	0	0	-1	1000
11043635	9	101	0	-100	0	230	101300000	1000	0	0	-1	1000
11056195	2	100	0	-100	0	230	101300000	1000	0	0	-1	1000
11068755	9	100	0	-100	0	230	101300000	1000	0	0	-1	1000
11081315	2	102	0	-100	0	230	101300000	1000	0	0	-1	1000
11093875	9	100	0	-100	0	230	101300000	1000	0	0	-1	1000
11106435	4	104	0	-100	0	230	101300000	1000	0	0	-1	1000
11118995	12	105	0	-100	0	230	101300000	1000	0	0	-1	1000
11131555	2	109	0	-100	0	230	101300000	1000	0	0	-1	1000
11144115	2	100	0	-100	0	230	101300000	1000	0	0	-1	1000
11156675	7	100	0	-100	0	230	101300000	1000	0	0	-1	1000
11169235	2	100	0	-100	0	230	101300000	1000	0	0	-1	1000
11181795	7	100	0	-100	0	230	101300000	1000	0	0	-1	1000
11194355	4	102	0	-100	0	230	101300000	1000	0	0	-1	1000
11206915	9	99	0	-100	0	230	101300000	1000	0	0	-1	1000
11219475	4	106	0	-100	0	230	101300000	1000	0	0	-1	1000
11232035	9	101	0	-100	0	230	101300000	1000	0	0	-1	1000
11244595	4	105	0	-100	0	230	101300000	1000	0	0	-1	1000
11257155	2	97	0	-100	0	230	101300000	1000	0	0	-1	1000
11269715	9	100	0	-100	0	230	101300000	1000	0	0	-1	1000
11282275	2	104	0	-100	0	230	101300000	1000	0	0	-1	1000
11294835	9	100	0	-100	0	230	101300000	1000	0	0	-1	1000
11307395	7	98	0	-100	0	230	101300000	1000	0	0	-1	1000
11319955	4	103	0	-100	0	230	101300000	1000	0	0	-1	1000
11332515	9	99	0	-100	0	230	101300000	1000	0	0	-1	1000
11345075	9	102	0	-100	0	230	101300000	1000	0	0	-1	1000
11357635	2	100	0	-100	0	230	101300000	1000	0	0	-1	1000
11370195	9	105	0	-100	0	230	101300000	1000	0	0	-1	1000
11382755	4	102	0	-100	0	230	101300000	1000	0	0	-1	1000
11395315	14	100	0	-100	0	230	101300000	1000	0	0	-1	1000
11407875	4	107	0	-100	0	230	101300000	1000	0	0	-1	1000
11420435	2	99	0	-100	0	230	101300000	1000	0	0	-1	1000
11432995	9	98	0	-100	0	230	101300000	1000	0	0	-1	1000
11445555	2	103	0	-100	0	230	101300000	1000	0	0	-1	1000
11458115	9	97	0	-100	0	230	101300000	1000	0	0	-1	1000
11470675	2	107	0	-100	0	230	101300000	1000	0	0	-1	1000
11483235	4	99	0	-100	0	230	101300000	1000	0	0	-1	1000
11495795	9	99	0	-100	0	230	101300000	1000	0	0	-1	1000
11508355	2	105	0	-100	0	230	101300000	1000	0	0	-1	1000
11520915	12	96	0	-100	0	230	101300000	1000	0	0	-1	1000
11533475	4	106	0	-100	0	230	101300000	1000	0	0	-1	1000
11546035	9	99	0	-100	0	230	101300000	1000	0	0	-1	1000
11558595	4	105	0	-100	0	230	101300000	1000	0	0	-1	1000
11571155	0	101	0	-100	0	230	101300000	1000	0	0	-1	1000
11583715	12	101	0	-100	0	230	101300000	1000	0	0	-1	1000
11596275	7	105	0	-100	0	230	101300000	1000	0	0	-1	1000
11608835	12	100	0	-100	0	230	101300000	1000	0	0	-1	1000
11621395	7	106	0	-100	0	230	101300000	1000	0	0	-1	1000
11633955	12	100	0	-100	0	230	101300000	1000	0	0	-1	1000
11646515	4	97	0	-100	0	230	101300000	1000	0	0	-1	1000
11659075	4	105	0	-100	0	230	101300000	1000	0	0	-1	1000
11671635	9	102	0	-100	0	230	101300000	1000	0	0	-1	1000
11684195	7	99	0	-100	0	230	101300000	1000	0	0	-1	1000
11696755	2	106	0	-100	0	230	101300000	1000	0	0	-1	1000
11709315	12	100	0	-100	0	230	101300000	1000	0	0	-1	1000
11721875	2	101	0	-100	0	230	101300000	1000	0	0	-1	1000
11734435	4	103	0	-100	0	230	101300000	1000	0	0	-1	1000
11746995	7	105	0	-100	0	230	101300000	1000	0	0	-1	1000
11759555	2	105	0	-100	0	230	101300000	1000	0	0	-1	1000
11772115	9	97	0	-100	0	230	101300000	1000	0	0	-1	1000
11784675	4	104	0	-100	0	230	101300000	1000	0	0	-1	1000
11797235	12	99	0	-100	0	230	101300000	1000	0	0	-1	1000
11809795	2	99	0	-100	0	230	101300000	1000	0	0	-1	1000
11822355	7	100	0	-100	0	230	101300000	1000	0	0	-1	1000
11834915	4	99	0	-100	0	230	101300000	1000	0	0	-1	1000
11847475	7	101	0	-100	0	230	101300000	1000	0	0	-1	1000
11860035	4	96	0	-100	0	230	101300000	1000	0	0	-1	1000
11872595	4	105	0	-100	0	230	101300000	1000	0	0	-1	1000
11885155	0	102	0	-100	0	230	101300000	1000	0	0	-1	1000
11897715	9	102	0	-100	0	230	101300000	1000	0	0	-1	1000
11910275	4	99	0	-100	0	230	101300000	1000	0	0	-1	1000
11922835	4	105	0	-100	0	230	101300000	1000	0	0	-1	1000
11935395	4	98	0	-100	0	230	101300000	1000	0	0	-1	1000
11947955	7	99	0	-100	0	230	101300000	1000	0	0	-1	1000
11960515	7	103	0	-100	0	230	101300000	1000	0	0	-1	1000
11973075	4	104	0	-100	0	230	101300000	1000	0	0	-1	1000
11985635	7	102	0	-100	0	230	101300000	1000	0	0	-1	1000
11998195	4	108	0	-100	0	230	101300000	1000	0	0	-1	1000
12010755	12	97	0	-100	0	230	101300000	1000	0	0	-1	1000
12023315	4	99	0	-100	0	230	101300000	1000	0	0	-1	1000
12035875	7	99	0	-100	0	230	101300000	1000	0	0	-1	1000
12048435	2	97	0	-100	0	230	101300000	1000	0	0	-1	1000
12060995	2	98	0	-100	0	230	101300000	1000	0	0	-1	1000
12073555	9	101	0	-100	0	230	101300000	1000	0	0	-1	1000
12086115	4	105	0	-100	0	230	101300000	1000	0	0	-1	1000
12098675	7	98	0	-100	0	230	101300000	1000	0	0	-1	1000
12111235	4	96	0	-100	0	230	101300000	1000	0	0	-1	1000
12123795	4	109	0	-100	0	230	101300000	1000	0	0	-1	1000
12136355	12	100	0	-100	0	230	101300000	1000	0	0	-1	1000
12148915	4	106	0	-100	0	230	101300000	1000	0	0	-1	1000
12161475	7	99	0	-100	0	230	101300000	1000	0	0	-1	1000
12174035	4	104	0	-100	0	230	101300000	1000	0	0	-1	1000
12186595	12	98	0	-100	0	230	101300000	1000	0	0	-1	1000
12199155	0	100	0	-100	0	230	101300000	1000	0	0	-1	1000
12211715	9	102	0	-100	0	230	101300000	1000	0	0	-1	1000
12224275	4	107	0	-100	0	230	101300000	1000	0	0	-1	1000
12236835	4	103	0	-100	0	230	101300000	1000	0	0	-1	1000
12249395	2	100	0	-100	0	230	101300000	1000	0	0	-1	1000
12261955	2	101	0	-100	0	230	101300000	1000	0	0	-1	1000
12274515	9	100	0	-100	0	230	101300000	1000	0	0	-1	1000
12287075	12	101	0	-100	0	230	101300000	1000	0	0	-1	1000
12299635	2	105	0	-100	0	230	101300000	1000	0	0	-1	1000
12312195	4	105	0	-100	0	230	101300000	1000	0	0	-1	1000
12324755	2	100	0	-100	0	230	101300000	1000	0	0	-1	1000
12337315	9	101	0	-100	0	230	101300000	1000	0	0	-1	1000
12349875	12	100	0	-100	0	230	101300000	1000	0	0	-1	1000
12362435	2	104	0	-100	0	230	101300000	1000	0	0	-1	1000
12374995	7	105	0	-100	0	230	101300000	1000	0	0	-1	1000
12387555	9	101	0	-100	0	230	101300000	1000	0	0	-1	1000
12400115	4	106	0	-100	0	230	101300000	1000	0	0	-1	1000
12412675	2	103	0	-100	0	230	101300000	1000	0	0	-1	1000
12425235	2	101	0	-100	0	230	101300000	1000	0	0	-1	1000
12437795	12	101	0	-100	0	230	101300000	1000	0	0	-1	1000
12450355	12	98	0	-100	0	230	101300000	1000	0	0	-1	1000
12462915	12	100	0	-100	0	230	101300000	1000	0	0	-1	1000
12475475	9	103	0	-100	0	230	101300000	1000	0	0	-1	1000
12488035	4	106	0	-100	0	230	101300000	1000	0	0	-1	1000
12500595	4	102	0	-100	0	230	101300000	1000	0	0	-1	1000
12513155	0	100	0	-100	0	230	101300000	1000	0	0	-1	1000
12525715	4	97	0	-100	0	230	101300000	1000	0	0	-1	1000
12538275	9	100	0	-100	0	230	101300000	1000	0	0	-1	1000
12550835	7	98	0	-100	0	230	101300000	1000	0	0	-1	1000
12563395	4	105	0	-100	0	230	101300000	1000	0	0	-1	1000
12575955	2	101	0	-100	0	230	101300000	1000	0	0	-1	1000
12588515	12	100	0	-100	0	230	101300000	1000	0	0	-1	1000
12601075	7	100	0	-100	0	230	101300000	1000	0	0	-1	1000
12613635	4	105	0	-100	0	230	101300000	1000	0	0	-1	1000
12626195	9	101	0	-100	0	230	101300000	1000	0	0	-1	1000
12638755	9	104	0	-100	0	230	101300000	1000	0	0	-1	1000
12651315	2	105	0	-100	0	230	101300000	1000	0	0	-1	1000
12663875	2	100	0	-100	0	230	101300000	1000	0	0	-1	1000
12676435	7	100	0	-100	0	230	101300000	1000	0	0	-1	1000
12688995	9	100	0	-100	0	230	101300000	1000	0	0	-1	1000
12701555	2	108	0	-100	0	230	101300000	1000	0	0	-1	1000
12714115	4	102	0	-100	0	230	101300000	1000	0	0	-1	1000
12726675	7	101	0	-100	0	230	101300000	1000	0	0	-1	1000
12739235	9	100	0	-100	0	230	101300000	1000	0	0	-1	1000
12751795	2	106	0	-100	0	230	101300000	1000	0	0	-1	1000
12764355	2	100	0	-100	0	230	101300000	1000	0	0	-1	1000
12776915	9	100	0	-100	0	230	101300000	1000	0	0	-1	1000
12789475	4	105	0	-100	0	230	101300000	1000	0	0	-1	1000
12802035	4	104	0	-100	0	230	101300000	1000	0	0	-1	1000
12814595	4	99	0	-100	0	230	101300000	1000	0	0	-1	1000
12827155	7	99	0	-100	0	230	101300000	1000	0	0	-1	1000
12839715	4	103	0	-100	0	230	101300000	1000	0	0	-1	1000
12852275	7	107	0	-100	0	230	101300000	1000	0	0	-1	1000
12864835	2	101	0	-100	0	230	101300000	1000	0	0	-1	1000
12877395	9	99	0	-100	0	230	101300000	1000	0	0	-1	1000
12889955	4	109	0	-100	0	230	101300000	1000	0	0	-1	1000
12902515	2	102	0	-100	0	230	101300000	1000	0	0	-1	1000
12915075	12	101	0	-100	0	230	101300000	1000	0	0	-1	1000
12927635	2	105	0	-100	0	230	101300000	1000	0	0	-1	1000
12940195	4	99	0	-100	0	230	101300000	1000	0	0	-1	1000
12952755	9	102	0	-100	0	230	101300000	1000	0	0	-1	1000
12965315	4	105	0	-100	0	230	101300000	1000	0	0	-1	1000
12977875	4	97	0	-100	0	230	101300000	1000	0	0	-1	1000
12990435	7	99	0	-100	0	230	101300000	1000	0	0	-1	1000
13002995	2	105	0	-100	0	230	101300000	1000	0	0	-1	1000
13015555	9	103	0	-100	0	230	101300000	1000	0	0	-1	1000
13028115	4	102	0	-100	0	230	101300000	1000	0	0	-1	1000
13040675	9	99	0	-100	0	230	101300000	1000	0	0	-1	1000
13053235	4	106	0	-100	0	230	101300000	1000	0	0	-1	1000
13065795	7	102	0	-100	0	230	101300000	1000	0	0	-1	1000
13078355	9	103	0	-100	0	230	101300000	1000	0	0	-1	1000
13090915	2	104	0	-100	0	230	101300000	1000	0	0	-1	1000
13103475	12	100	0	-100	0	230	101300000	1000	0	0	-1	1000
13116035	2	104	0	-100	0	230	101300000	1000	0	0	-1	1000
13128595	9	100	0	-100	0	230	101300000	1000	0	0	-1	1000
13141155	4	105	0	-100	0	230	101300000	1000	0	0	-1	1000
13153715	12	100	0	-100	0	230	101300000	1000	0	0	-1	1000
13166275	4	107	0	-100	0	230	101300000	1000	0	0	-1	1000
13178835	9	100	0	-100	0	230	101300000	1000	0	0	-1	1000
13191395	2	108	0	-100	0	230	101300000	1000	0	0	-1	1000
13203955	4	97	0	-100	0	230	101300000	1000	0	0	-1	1000
13216515	4	105	0	-100	0	230	101300000	1000	0	0	-1	1000
13229075	2	100	0	-100	0	230	101300000	1000	0	0	-1	1000
13241635	7	101	0	-100	0	230	101300000	1000	0	0	-1	1000
13254195	2	103	0	-100	0	230	101300000	1000	0	0	-1	1000
13266755	9	101	0	-100	0	230	101300000	1000	0	0	-1	1000
13279315	4	103	0	-100	0	230	101300000	1000	0	0	-1	1000
13291875	9	98	0	-100	0	230	101300000	1000	0	0	-1	1000
13304435	7	108	0	-100	0	230	101300000	1000	0	0	-1	1000
13316995	12	106	0	-100	0	230	101300000	1000	0	0	-1	1000
13329555	4	103	0	-100	0	230	101300000	1000	0	0	-1	1000
13342115	9	100	0	-100	0	230	101300000	1000	0	0	-1	1000
13354675	4	104	0	-100	0	230	101300000	1000	0	0	-1	1000
13367235	9	100	0	-100	0	230	101300000	1000	0	0	-1	1000
13379795	9	102	0	-100	0	230	101300000	1000	0	0	-1	1000
13392355	7	108	0	-100	0	230	101300000	1000	0	0	-1	1000
13404915	12	101	0	-100	0	230	101300000	1000	0	0	-1	1000
13417475	4	105	0	-100	0	230	101300000	1000	0	0	-1	1000
13430035	4	98	0	-100	0	230	101300000	1000	0	0	-1	1000
13442595	4	105	0	-100	0	230	101300000	1000	0	0	-1	1000
13455155	0	102	0	-100	0	230	101300000	1000	0	0	-1	1000
13467715	9	104	0	-100	0	230	101300000	1000	0	0	-1	1000
13480275	7	106	0	-100	0	230	101300000	1000	0	0	-1	1000
13492835	9	100	0	-100	0	230	101300000	1000	0	0	-1	1000
13505395	4	106	0	-100	0	230	101300000	1000	0	0	-1	1000
13517955	4	101	0	-100	0	230	101300000	1000	0	0	-1	1000
13530515	9	103	0	-100	0	230	101300000	1000	0	0	-1	1000
13543075	4	102	0	-100	0	230	101300000	1000	0	0	-1	1000
13555635	12	96	0	-100	0	230	101300000	1000	0	0	-1	1000
13568195	4	106	0	-100	0	230	101300000	1000	0	0	-1	1000
13580755	2	100	0	-100	0	230	101300000	1000	0	0	-1	1000
13593315	9	99	0	-100	0	230	101300000	1000	0	0	-1	1000
13605875	2	105	0	-100	0	230	101300000	1000	0	0	-1	1000
13618435	7	99	0	-100	0	230	101300000	1000	0	0	-1	1000
13630995	7	99	0	-100	0	230	101300000	1000	0	0	-1	1000
13643555	2	101	0	-100	0	230	101300000	1000	0	0	-1	1000
13656115	9	100	0	-100	0	230	101300000	1000	0	0	-1	1000
13668675	7	105	0	-100	0	230	101300000	1000	0	0	-1	1000
13681235	4	98	0	-100	0	230	101300000	1000	0	0	-1	1000
13693795	7	98	0	-100	0	230	101300000	1000	0	0	-1	1000
13706355	2	103	0	-100	0	230	101300000	1000	0	0	-1	1000
13718915	9	99	0	-100	0	230	101300000	1000	0	0	-1	1000
13731475	2	105	0	-100	0	230	101300000	1000	0	0	-1	1000
13744035	4	98	0	-100	0	230	101300000	1000	0	0	-1	1000
13756595	7	98	0	-100	0	230	101300000	1000	0	0	-1	1000
13769155	2	104	0	-100	0	230	101300000	1000	0	0	-1	1000
13781715	12	100	0	-100	0	230	101300000	1000	0	0	-1	1000
13794275	4	107	0	-100	0	230	101300000	1000	0	0	-1	1000
13806835	9	99	0	-100	0	230	101300000	1000	0	0	-1	1000
13819395	4	108	0	-100	0	230	101300000	1000	0	0	-1	1000
13831955	0	102	0	-100	0	230	101300000	1000	0	0	-1	1000
13844515	7	98	0	-100	0	230	101300000	1000	0	0	-1	1000
13857075	4	103	0	-100	0	230	101300000	1000	0	0	-1	1000
13869635	7	100	0	-100	0	230	101300000	1000	0	0	-1	1000
13882195	9	101	0	-100	0	230	101300000	1000	0	0	-1	1000
13894755	2	107	0	-100	0	230	101300000	1000	0	0	-1	1000
13907315	2	101	0	-100	0	230	101300000	1000	0	0	-1	1000
13919875	9	103	0	-100	0	230	101300000	1000	0	0	-1	1000
13932435	2	104	0	-100	0	230	101300000	1000	0	0	-1	1000
13944995	7	107	0	-100	0	230	101300000	1000	0	0	-1	1000
13957555	7	99	0	-100	0	230	101300000	1000	0	0	-1	1000
13970115	2	101	0	-100	0	230	101300000	1000	0	0	-1	1000
13982675	12	101	0	-100	0	230	101300000	1000	0	0	-1	1000
13995235	7	100	0	-100	0	230	101300000	1000	0	0	-1	1000
14007795	2	104	0	-100	0	230	101300000	1000	0	0	-1	1000
14020355	12	101	0	-100	0	230	101300000	1000	0	0	-1	1000
14032915	7	99	0	-100	0	230	101300000	1000	0	0	-1	1000
14045475	2	101	0	-100	0	230	101300000	1000	0	0	-1	1000
14058035	9	100	0	-100	0	230	101300000	1000	0	0	-1	1000
14070595	2	107	0	-100	0	230	101300000	1000	0	0	-1	1000
14083155	0	103	0	-100	0	230	101300000	1000	0	0	-1	1000
14095715	9	101	0	-100	0	230	101300000	1000	0	0	-1	1000
14108275	4	106	0	-100	0	230	101300000	1000	0	0	-1	1000
14120835	12	101	0	-100	0	230	101300000	1000	0	0	-1	1000
14133395	4	106	0	-100	0	230	101300000	1000	0	0	-1	1000
14145955	7	104	0	-100	0	230	101300000	1000	0	0	-1	1000
14158515	7	100	0	-100	0	230	101300000	1000	0	0	-1	1000
14171075	2	101	0	-100	0	230	101300000	1000	0	0	-1	1000
14183635	9	99	0	-100	0	230	101300000	1000	0	0	-1	1000
14196195	7	106	0	-100	0	230	101300000	1000	0	0	-1	1000
14208755	9	100	0	-100	0	230	101300000	1000	0	0	-1	1000
14221315	4	105	0	-100	0	230	101300000	1000	0	0	-1	1000
14233875	12	101	0	-100	0	230	101300000	1000	0	0	-1	1000
14246435	4	108	0	-100	0	230	101300000	1000	0	0	-1	1000
14258995	2	107	0	-100	0	230	101300000	1000	0	0	-1	1000
14271555	12	99	0	-100	0	230	101300000	1000	0	0	-1	1000
14284115	2	104	0	-100	0	230	101300000	1000	0	0	-1	1000
14296675	12	98	0	-100	0	230	101300000	1000	0	0	-1	1000
14309235	4	105	0	-100	0	230	101300000	1000	0	0	-1	1000
14321795	9	100	0	-100	0	230	101300000	1000	0	0	-1	1000
14334355	7	98	0	-100	0	230	101300000	1000	0	0	-1	1000
14346915	2	104	0	-100	0	230	101300000	1000	0	0	-1	1000
14359475	7	98	0	-100	0	230	101300000	1000	0	0	-1	1000
14372035	9	102	0	-100	0	230	101300000	1000	0	0	-1	1000
14384595	2	105	0	-100	0	230	101300000	1000	0	0	-1	1000
14397155	0	101	0	-100	0	230	101300000	1000	0	0	-1	1000
14409715	9	101	0	-100	0	230	101300000	1000	0	0	-1	1000
14422275	2	104	0	-100	0	230	101300000	1000	0	0	-1	1000
14434835	7	101	0	-100	0	230	101300000	1000	0	0	-1	1000
14447395	9	102	0	-100	0	230	101300000	1000	0	0	-1	1000
14459955	7	105	0	-100	0	230	101300000	1000	0	0	-1	1000
14472515	7	101	0	-100	0	230	101300000	1000	0	0	-1	1000
14485075	9	103	0	-100	0	230	101300000	1000	0	0	-1	1000
14497635	2	104	0	-100	0	230	101300000	1000	0	0	-1	1000
14510195	9	99	0	-100	0	230	101300000	1000	0	0	-1	1000
14522755	2	105	0	-100	0	230	101300000	1000	0	0	-1	1000
14535315	4	96	0	-100	0	230	101300000	1000	0	0	-1	1000
14547875	7	100	0	-100	0	230	101300000	1000	0	0	-1	1000
14560435	2	103	0	-100	0	230	101300000	1000	0	0	-1	1000
14572995	9	101	0	-100	0	230	101300000	1000	0	0	-1	1000
14585555	2	107	0	-100	0	230	101300000	1000	0	0	-1	1000
14598115	2	101	0	-100	0	230	101300000	1000	0	0	-1	1000
14610675	9	101	0	-100	0	230	101300000	1000	0	0	-1	1000
14623235	2	105	0	-100	0	230	101300000	1000	0	0	-1	1000
14635795	4	101	0	-100	0	230	101300000	1000	0	0	-1	1000
14648355	9	99	0	-100	0	230	101300000	1000	0	0	-1	1000
14660915	4	107	0	-100	0	230	101300000	1000	0	0	-1	1000
14673475	4	97	0	-100	0	230	101300000	1000	0	0	-1	1000
14686035	9	104	0	-100	0	230	101300000	1000	0	0	-1	1000
14698595	4	103	0	-100	0	230	101300000	1000	0	0	-1	1000
14711155	2	96	0	-100	0	230	101300000	1000	0	0	-1	1000
14723715	9	103	0	-100	0	230	101300000	1000	0	0	-1	1000
14736275	4	105	0	-100	0	230	101300000	1000	0	0	-1	1000
14748835	2	97	0	-100	0	230	101300000	1000	0	0	-1	1000
14761395	7	98	0	-100	0	230	101300000	1000	0	0	-1	1000
14773955	4	105	0	-100	0	230	101300000	1000	0	0	-1	1000
14786515	2	99	0	-100	0	230	101300000	1000	0	0	-1	1000
14799075	12	99	0	-100	0	230	101300000	1000	0	0	-1	1000
14811635	2	106	0	-100	0	230	101300000	1000	0	0	-1	1000
14824195	4	96	0	-100	0	230	101300000	1000	0	0	-1	1000
14836755	7	98	0	-100	0	230	101300000	1000	0	0	-1	1000
14849315	4	105	0	-100	0	230	101300000	1000	0	0	-1	1000
14861875	2	101	0	-100	0	230	101300000	1000	0	0	-1	1000
14874435	9	101	0	-100	0	230	101300000	1000	0	0	-1	1000
14886995	4	104	0	-100	0	230	101300000	1000	0	0	-1	1000
14899555	9	101	0	-100	0	230	101300000	1000	0	0	-1	1000
14912115	9	102	0	-100	0	230	101300000	1000	0	0	-1	1000
14924675	2	107	0	-100	0	230	101300000	1000	0	0	-1	1000
14937235	4	101	0	-100	0	230	101300000	1000	0	0	-1	1000
14949795	12	99	0	-100	0	230	101300000	1000	0	0	-1	1000
14962355	12	101	0	-100	0	230	101300000	1000	0	0	-1	1000
14974915	4	104	0	-100	0	230	101300000	1000	0	0	-1	1000
14987475	2	97	0	-100	0	230	101300000	1000	0	0	-1	1000
15000035	9	98	0	-100	0	230	101300000	1000	0	0	-1	1000
15012595	4	106	0	-100	0	230	101300000	1000	0	0	-1	1000
15025155	2	96	0	-100	0	230	101300000	1000	0	0	-1	1000
15037715	9	103	0	-100	0	230	101300000	1000	0	0	-1	1000
15050275	2	102	0	-100	0	230	101300000	1000	0	0	-1	1000
15062835	9	100	0	-100	0	230	101300000	1000	0	0	-1	1000
15075395	4	105	0	-100	0	230	101300000	1000	0	0	-1	1000
15087955	12	100	0	-100	0	230	101300000	1000	0	0	-1	1000
15100515	2	106	0	-100	0	230	101300000	1000	0	0	-1	1000
15113075	2	100	0	-100	0	230	101300000	1000	0	0	-1	1000
15125635	9	100	0	-100	0	230	101300000	1000	0	0	-1	1000
15138195	4	101	0	-100	0	230	101300000	1000	0	0	-1	1000
15150755	12	100	0	-100	0	230	101300000	1000	0	0	-1	1000
15163315	2	102	0	-100	0	230	101300000	1000	0	0	-1	1000
15175875	9	99	0	-100	0	230	101300000	1000	0	0	-1	1000
15188435	4	105	0	-100	0	230	101300000	1000	0	0	-1	1000
15200995	9	101	0	-100	0	230	101300000	1000	0	0	-1	1000
15213555	2	106	0	-100	0	230	101300000	1000	0	0	-1	1000
15226115	7	100	0	-100	0	230	101300000	1000	0	0	-1	1000
15238675	4	105	0	-100	0	230	101300000	1000	0	0	-1	1000
15251235	12	100	0	-100	0	230	101300000	1000	0	0	-1	1000
15263795	2	105	0	-100	0	230	101300000	1000	0	0	-1	1000
15276355	4	99	0	-100	0	230	101300000	1000	0	0	-1	1000
15288915	2	108	0	-100	0	230	101300000	1000	0	0	-1	1000
15301475	4	96	0	-100	0	230	101300000	1000	0	0	-1	1000
15314035	7	99	0	-100	0	230	101300000	1000	0	0	-1	1000
15326595	2	100	0	-100	0	230	101300000	1000	0	0	-1	1000
15339155	9	98	0	-100	0	230	101300000	1000	0	0	-1	1000
15351715	4	103	0	-100	0	230	101300000	1000	0	0	-1	1000
15364275	12	97	0	-100	0	230	101300000	1000	0	0	-1	1000
15376835	7	105	0	-100	0	230	101300000	1000	0	0	-1	1000
15389395	9	98	0	-100	0	230	101300000	1000	0	0	-1	1000
15401955	7	104	0	-100	0	230	101300000	1000	0	0	-1	1000
15414515	12	100	0	-100	0	230	101300000	1000	0	0	-1	1000
15427075	4	109	0	-100	0	230	101300000	1000	0	0	-1	1000
15439635	4	97	0	-100	0	230	101300000	1000	0	0	-1	1000
15452195	4	105	0	-100	0	230	101300000	1000	0	0	-1	1000
15464755	12	100	0	-100	0	230	101300000	1000	0	0	-1	1000
15477315	7	107	0	-100	0	230	101300000	1000	0	0	-1	1000
15489875	9	101	0	-100	0	230	101300000	1000	0	0	-1	1000
15502435	4	105	0	-100	0	230	101300000	1000	0	0	-1	1000
15514995	12	106	0	-100	0	230	101300000	1000	0	0	-1	1000
15527555	4	106	0	-100	0	230	101300000	1000	0	0	-1	1000
15540115	12	101	0	-100	0	230	101300000	1000	0	0	-1	1000
15552675	7	104	0	-100	0	230	101300000	1000	0	0	-1	1000
15565235	9	101	0	-100	0	230	101300000	1000	0	0	-1	1000
15577795	4	105	0	-100	0	230	101300000	1000	0	0	-1	1000
15590355	9	98	0	-100	0	230	101300000	1000	0	0	-1	1000
15602915	4	105	0	-100	0	230	101300000	1000	0	0	-1	1000
15615475	7	101	0	-100	0	230	101300000	1000	0	0	-1	1000
15628035	4	105	0	-100	0	230	101300000	1000	0	0	-1	1000
15640595	2	100	0	-100	0	230	101300000	1000	0	0	-1	1000
15653155	2	102	0	-100	0	230	101300000	1000	0	0	-1	1000
15665715	2	99	0	-100	0	230	101300000	1000	0	0	-1	1000
15678275	4	105	0	-100	0	230	101300000	1000	0	0	-1	1000
15690835	4	98	0	-100	0	230	101300000	1000	0	0	-1	1000
15703395	4	107	0	-100	0	230	101300000	1000	0	0	-1	1000
15715955	12	101	0	-100	0	230	101300000	1000	0	0	-1	1000
15728515	2	107	0	-100	0	230	101300000	1000	0	0	-1	1000
15741075	12	99	0	-100	0	230	101300000	1000	0	0	-1	1000
15753635	2	104	0	-100	0	230	101300000	1000	0	0	-1	1000
15766195	9	105	0	-100	0	230	101300000	1000	0	0	-1	1000
15778755	4	100	0	-100	0	230	101300000	1000	0	0	-1	1000
15791315	4	107	0	-100	0	230	101300000	1000	0	0	-1	1000
15803875	9	97	0	-100	0	230	101300000	1000	0	0	-1	1000
15816435	4	109	0	-100	0	230	101300000	1000	0	0	-1	1000
15828995	4	106	0	-100	0	230	101300000	1000	0	0	-1	1000
15841555	2	108	0	-100	0	230	101300000	1000	0	0	-1	1000
15854115	9	99	0	-100	0	230	101300000	1000	0	0	-1	1000
15866675	4	105	0	-100	0	230	101300000	1000	0	0	-1	1000
15879235	9	99	0	-100	0	230	101300000	1000	0	0	-1	1000
15891795	2	99	0	-100	0	230	101300000	1000	0	0	-1	1000
15904355	4	105	0	-100	0	230	101300000	1000	0	0	-1	1000
15916915	4	97	0	-100	0	230	101300000	1000	0	0	-1	1000
15929475	2	107	0	-100	0	230	101300000	1000	0	0	-1	1000
15942035	7	101	0	-100	0	230	101300000	1000	0	0	-1	1000
15954595	2	105	0	-100	0	230	101300000	1000	0	0	-1	1000
15967155	7	96	0	-100	0	230	101300000	1000	0	0	-1	1000
15979715	2	101	0	-100	0	230	101300000	1000	0	0	-1	1000
15992275	7	99	0	-100	0	230	101300000	1000	0	0	-1	1000
16004835	4	99	0	-100	0	230	101300000	1000	0	0	-1	1000
16017395	2	105	0	-100	0	230	101300000	1000	0	0	-1	1000
16029955	12	101	0	-100	0	230	101300000	1000	0	0	-1	1000
16042515	4	105	0	-100	0	230	101300000	1000	0	0	-1	1000
16055075	12	98	0	-100	0	230	101300000	1000	0	0	-1	1000
16067635	2	104	0	-100	0	230	101300000	1000	0	0	-1	1000
16080195	9	102	0	-100	0	230	101300000	1000	0	0	-1	1000
16092755	7	99	0	-100	0	230	101300000	1000	0	0	-1	1000
16105315	4	105	0	-100	0	230	101300000	1000	0	0	-1	1000
16117875	9	103	0	-100	0	230	101300000	1000	0	0	-1	1000
16130435	12	100	0	-100	0	230	101300000	1000	0	0	-1	1000
16142995	4	104	0	-100	0	230	101300000	1000	0	0	-1	1000
16155555	9	100	0	-100	0	230	101300000	1000	0	0	-1	1000
16168115	2	99	0	-100	0	230	101300000	1000	0	0	-1	1000
16180675	2	106	0	-100	0	230	101300000	1000	0	0	-1	1000
16193235	9	100	0	-100	0	230	101300000	1000	0	0	-1	1000
16205795	2	100	0	-100	0	230	101300000	1000	0	0	-1	1000
16218355	2	108	0	-100	0	230	101300000	1000	0	0	-1	1000
16230915	12	100	0	-100	0	230	101300000	1000	0	0	-1	1000
16243475	2	103	0	-100	0	230	101300000	1000	0	0	-1	1000
16256035	7	100	0	-100	0	230	101300000	1000	0	0	-1	1000
16268595	9	101	0	-100	0	230	101300000	1000	0	0	-1	1000
16281155	0	97	0	-100	0	230	101300000	1000	0	0	-1	1000
16293715	7	99	0	-100	0	230	101300000	1000	0	0	-1	1000
16306275	7	98	0	-100	0	230	101300000	1000	0	0	-1	1000
16318835	4	100	0	-100	0	230	101300000	1000	0	0	-1	1000
16331395	2	105	0	-100	0	230	101300000	1000	0	0	-1	1000
16343955	7	99	0	-100	0	230	101300000	1000	0	0	-1	1000
16356515	9	100	0	-100	0	230	101300000	1000	0	0	-1	1000
16369075	4	96	0	-100	0	230	101300000	1000	0	0	-1	1000
16381635	2	101	0	-100	0	230	101300000	1000	0	0	-1	1000
16394195	2	105	0	-100	0	230	101300000	1000	0	0	-1	1000
16406755	7	100	0	-100	0	230	101300000	1000	0	0	-1	1000
16419315	9	98	0	-100	0	230	101300000	1000	0	0	-1	1000
16431875	2	101	0	-100	0	230	101300000	1000	0	0	-1	1000
16444435	7	107	0	-100	0	230	101300000	1000	0	0	-1	1000
16456995	4	100	0	-100	0	230	101300000	1000	0	0	-1	1000
16469555	9	101	0	-100	0	230	101300000	1000	0	0	-1	1000
16482115	9	101	0	-100	0	230	101300000	1000	0	0	-1	1000
16494675	2	100	0	-100	0	230	101300000	1000	0	0	-1	1000
16507235	7	100	0	-100	0	230	101300000	1000	0	0	-1	1000
16519795	7	99	0	-100	0	230	101300000	1000	0	0	-1	1000
16532355	4	105	0	-100	0	230	101300000	1000	0	0	-1	1000
16544915	9	98	0	-100	0	230	101300000	1000	0	0	-1	1000
16557475	2	98	0	-100	0	230	101300000	1000	0	0	-1	1000
16570035	4	108	0	-100	0	230	101300000	1000	0	0	-1	1000
16582595	12	100	0	-100	0	230	101300000	1000	0	0	-1	1000
16595155	2	103	0	-100	0	230	101300000	1000	0	0	-1	1000
16607715	9	100	0	-100	0	230	101300000	1000	0	0	-1	1000
16620275	4	100	0	-100	0	230	101300000	1000	0	0	-1	1000
16632835	4	106	0	-100	0	230	101300000	1000	0	0	-1	1000
16645395	9	101	0	-100	0	230	101300000	1000	0	0	-1	1000
16657955	4	97	0	-100	0	230	101300000	1000	0	0	-1	1000
16670515	7	106	0	-100	0	230	101300000	1000	0	0	-1	1000
16683075	9	99	0	-100	0	230	101300000	1000	0	0	-1	1000
16695635	2	100	0	-100	0	230	101300000	1000	0	0	-1	1000
16708195	4	107	0	-100	0	230	101300000	1000	0	0	-1	1000
16720755	12	97	0	-100	0	230	101300000	1000	0	0	-1	1000
16733315	2	101	0	-100	0	230	101300000	1000	0	0	-1	1000
16745875	4	107	0	-100	0	230	101300000	1000	0	0	-1	1000
16758435	12	101	0	-100	0	230	101300000	1000	0	0	-1	1000
16770995	4	106	0	-100	0	230	101300000	1000	0	0	-1	1000
16783555	2	108	0	-100	0	230	101300000	1000	0	0	-1	1000
16796115	9	101	0	-100	0	230	101300000	1000	0	0	-1	1000
16808675	4	106	0	-100	0	230	101300000	1000	0	0	-1	1000
16821235	12	101	0	-100	0	230	101300000	1000	0	0	-1	1000
16833795	4	106	0	-100	0	230	101300000	1000	0	0	-1	1000
16846355	12	100	0	-100	0	230	101300000	1000	0	0	-1	1000
16858915	4	105	0	-100	0	230	101300000	1000	0	0	-1	1000
16871475	9	98	0	-100	0	230	101300000	1000	0	0	-1	1000
16884035	2	103	0	-100	0	230	101300000	1000	0	0	-1	1000
16896595	12	99	0	-100	0	230	101300000	1000	0	0	-1	1000
16909155	2	102	0	-100	0	230	101300000	1000	0	0	-1	1000
16921715	9	100	0	-100	0	230	101300000	1000	0	0	-1	1000
16934275	4	104	0	-100	0	230	101300000	1000	0	0	-1	1000
16946835	9	98	0	-100	0	230	101300000	1000	0	0	-1	1000
16959395	2	101	0	-100	0	230	101300000	1000	0	0	-1	1000
16971955	4	103	0	-100	0	230	101300000	1000	0	0	-1	1000
16984515	4	96	0	-100	0	230	101300000	1000	0	0	-1	1000
16997075	7	100	0	-100	0	230	101300000	1000	0	0	-1	1000
17009635	4	98	0	-100	0	230	101300000	1000	0	0	-1	1000
17022195	7	100	0	-100	0	230	101300000	1000	0	0	-1	1000
17034755	2	100	0	-100	0	230	101300000	1000	0	0	-1	1000
17047315	4	104	0	-100	0	230	101300000	1000	0	0	-1	1000
17059875	7	98	0	-100	0	230	101300000	1000	0	0	-1	1000
17072435	7	104	0	-100	0	230	101300000	1000	0	0	-1	1000
17084995	9	99	0	-100	0	230	101300000	1000	0	0	-1	1000
17097555	2	102	0	-100	0	230	101300000	1000	0	0	-1	1000
17110115	9	99	0	-100	0	230	101300000	1000	0	0	-1	1000
17122675	2	103	0	-100	0	230	101300000	1000	0	0	-1	1000
17135235	9	100	0	-100	0	230	101300000	1000	0	0	-1	1000
17147795	7	108	0	-100	0	230	101300000	1000	0	0	-1	1000
17160355	9	99	0	-100	0	230	101300000	1000	0	0	-1	1000
17172915	4	105	0	-100	0	230	101300000	1000	0	0	-1	1000
17185475	4	101	0	-100	0	230	101300000	1000	0	0	-1	1000
17198035	9	98	0	-100	0	230	101300000	1000	0	0	-1	1000
17210595	7	106	0	-100	0	230	101300000	1000	0	0	-1	1000
17223155	7	96	0	-100	0	230	101300000	1000	0	0	-1	1000
17235715	4	105	0	-100	0	230	101300000	1000	0	0	-1	1000
17248275	9	98	0	-100	0	230	101300000	1000	0	0	-1	1000
17260835	4	105	0	-100	0	230	101300000	1000	0	0	-1	1000
17273395	12	100	0	-100	0	230	101300000	1000	0	0	-1	1000
17285955	2	103	0	-100	0	230	101300000	1000	0	0	-1	1000
17298515	12	101	0	-100	0	230	101300000	1000	0	0	-1	1000
17311075	4	104	0	-100	0	230	101300000	1000	0	0	-1	1000
17323635	9	98	0	-100	0	230	101300000	1000	0	0	-1	1000
17336195	7	108	0	-100	0	230	101300000	1000	0	0	-1	1000
17348755	9	100	0	-100	0	230	101300000	1000	0	0	-1	1000
17361315	7	101	0	-100	0	230	101300000	1000	0	0	-1	1000
17373875	4	100	0	-100	0	230	101300000	1000	0	0	-1	1000
17386435	9	102	0	-100	0	230	101300000	1000	0	0	-1	1000
17398995	4	105	0	-100	0	230	101300000	1000	0	0	-1	1000
17411555	9	100	0	-100	0	230	101300000	1000	0	0	-1	1000
17424115	4	106	0	-100	0	230	101300000	1000	0	0	-1	1000
17436675	7	102	0	-100	0	230	101300000	1000	0	0	-1	1000
17449235	7	100	0	-100	0	230	101300000	1000	0	0	-1	1000
17461795	0	103	0	-100	0	230	101300000	1000	0	0	-1	1000
17474355	7	100	0	-100	0	230	101300000	1000	0	0	-1	1000
17486915	2	100	0	-100	0	230	101300000	1000	0	0	-1	1000
17499475	7	100	0	-100	0	230	101300000	1000	0	0	-1	1000
17512035	2	103	0	-100	0	230	101300000	1000	0	0	-1	1000
17524595	9	98	0	-100	0	230	101300000	1000	0	0	-1	1000
17537155	2	104	0	-100	0	230	101300000	1000	0	0	-1	1000
17549715	12	99	0	-100	0	230	101300000	1000	0	0	-1	1000
17562275	4	105	0	-100	0	230	101300000	1000	0	0	-1	1000
17574835	12	101	0	-100	0	230	101300000	1000	0	0	-1	1000
17587395	2	107	0	-100	0	230	101300000	1000	0	0	-1	1000
17599955	2	97	0	-100	0	230	101300000	1000	0	0	-1	1000
17612515	4	107	0	-100	0	230	101300000	1000	0	0	-1	1000
17625075	4	99	0	-100	0	230	101300000	1000	0	0	-1	1000
17637635	7	98	0	-100	0	230	101300000	1000	0	0	-1	1000
17650195	2	101	0	-100	0	230	101300000	1000	0	0	-1	1000
17662755	9	103	0	-100	0	230	101300000	1000	0	0	-1	1000
17675315	4	101	0	-100	0	230	101300000	1000	0	0	-1	1000
17687875	7	100	0	-100	0	230	101300000	1000	0	0	-1	1000
17700435	2	101	0	-100	0	230	101300000	1000	0	0	-1	1000
17712995	4	100	0	-100	0	230	101300000	1000	0	0	-1	1000
17725555	2	100	0	-100	0	230	101300000	1000	0	0	-1	1000
17738115	4	107	0	-100	0	230	101300000	1000	0	0	-1	1000
17750675	7	100	0	-100	0	230	101300000	1000	0	0	-1	1000
17763235	4	106	0	-100	0	230	101300000	1000	0	0	-1	1000
17775795	9	99	0	-100	0	230	101300000	1000	0	0	-1	1000
17788355	2	107	0	-100	0	230	101300000	1000	0	0	-1	1000
17800915	4	96	0	-100	0	230	101300000	1000	0	0	-1	1000
17813475	4	102	0	-100	0	230	101300000	1000	0	0	-1	1000
17826035	2	99	0	-100	0	230	101300000	1000	0	0	-1	1000
17838595	9	101	0	-100	0	230	101300000	1000	0	0	-1	1000
17851155	2	104	0	-100	0	230	101300000	1000	0	0	-1	1000
17863715	9	100	0	-100	0	230	101300000	1000	0	0	-1	1000
17876275	4	106	0	-100	0	230	101300000	1000	0	0	-1	1000
17888835	4	99	0	-100	0	230	101300000	1000	0	0	-1	1000
17901395	12	101	0	-100	0	230	101300000	1000	0	0	-1	1000
17913955	2	105	0	-100	0	230	101300000	1000	0	0	-1	1000
17926515	4	96	0	-100	0	230	101300000	1000	0	0	-1	1000
17939075	9	100	0	-100	0	230	101300000	1000	0	0	-1	1000
17951635	0	98	0	-100	0	230	101300000	1000	0	0	-1	1000
17964195	2	99	0	-100	0	230	101300000	1000	0	0	-1	1000
17976755	9	100	0	-100	0	230	101300000	1000	0	0	-1	1000
17989315	4	104	0	-100	0	230	101300000	1000	0	0	-1	1000
18001875	9	100	0	-100	0	230	101300000	1000	0	0	-1	1000
18014435	7	100	0	-100	0	230	101300000	1000	0	0	-1	1000
18026995	4	103	0	-100	0	230	101300000	1000	0	0	-1	1000
18039555	7	97	0	-100	0	230	101300000	1000	0	0	-1	1000
18052115	4	105	0	-100	0	230	101300000	1000	0	0	-1	1000
18064675	2	101	0	-100	0	230	101300000	1000	0	0	-1	1000
18077235	9	100	0	-100	0	230	101300000	1000	0	0	-1	1000
18089795	4	104	0	-100	0	230	101300000	1000	0	0	-1	1000
18102355	12	98	0	-100	0	230	101300000	1000	0	0	-1	1000
18114915	4	105	0	-100	0	230	101300000	1000	0	0	-1	1000
18127475	9	98	0	-100	0	230	101300000	1000	0	0	-1	1000
18140035	2	106	0	-100	0	230	101300000	1000	0	0	-1	1000
18152595	4	97	0	-100	0	230	101300000	1000	0	0	-1	1000
18165155	2	105	0	-100	0	230	101300000	1000	0	0	-1	1000
18177715	7	99	0	-100	0	230	101300000	1000	0	0	-1	1000
18190275	4	107	0	-100	0	230	101300000	1000	0	0	-1	1000
18202835	2	99	0	-100	0	230	101300000	1000	0	0	-1	1000
18215395	4	102	0	-100	0	230	101300000	1000	0	0	-1	1000
18227955	2	101	0	-100	0	230	101300000	1000	0	0	-1	1000
18240515	12	99	0	-100	0	230	101300000	1000	0	0	-1	1000
18253075	4	107	0	-100	0	230	101300000	1000	0	0	-1	1000
18265635	9	99	0	-100	0	230	101300000	1000	0	0	-1	1000
18278195	4	104	0	-100	0	230	101300000	1000	0	0	-1	1000
18290755	4	101	0	-100	0	230	101300000	1000	0	0	-1	1000
18303315	7	100	0	-100	0	230	101300000	1000	0	0	-1	1000
18315875	2	99	0	-100	0	230	101300000	1000	0	0	-1	1000
18328435	9	100	0	-100	0	230	101300000	1000	0	0	-1	1000
18340995	2	104	0	-100	0	230	101300000	1000	0	0	-1	1000
18353555	12	101	0	-100	0	230	101300000	1000	0	0	-1	1000
18366115	4	107	0	-100	0	230	101300000	1000	0	0	-1	1000
18378675	9	99	0	-100	0	230	101300000	1000	0	0	-1	1000
18391235	7	108	0	-100	0	230	101300000	1000	0	0	-1	1000
18403795	9	100	0	-100	0	230	101300000	1000	0	0	-1	1000
18416355	4	106	0	-100	0	230	101300000	1000	0	0	-1	1000
18428915	9	101	0	-100	0	230	101300000	1000	0	0	-1	1000
18441475	4	105	0	-100	0	230	101300000	1000	0	0	-1	1000
18454035	7	100	0	-100	0	230	101300000	1000	0	0	-1	1000
18466595	2	105	0	-100	0	230	101300000	1000	0	0	-1	1000
18479155	4	99	0	-100	0	230	101300000	1000	0	0	-1	1000
18491715	2	105	0	-100	0	230	101300000	1000	0	0	-1	1000
18504275	7	100	0	-100	0	230	101300000	1000	0	0	-1	1000
18516835	4	108	0	-100	0	230	101300000	1000	0	0	-1	1000
18529395	4	98	0	-100	0	230	101300000	1000	0	0	-1	1000
18541955	4	106	0	-100	0	230	101300000	1000	0	0	-1	1000
18554515	4	99	0	-100	0	230	101300000	1000	0	0	-1	1000
18567075	4	105	0	-100	0	230	101300000	1000	0	0	-1	1000
18579635	2	101	0	-100	0	230	101300000	1000	0	0	-1	1000
18592195	9	103	0	-100	0	230	101300000	1000	0	0	-1	1000
18604755	2	105	0	-100	0	230	101300000	1000	0	0	-1	1000
18617315	12	99	0	-100	0	230	101300000	1000	0	0	-1	1000
18629875	2	106	0	-100	0	230	101300000	1000	0	0	-1	1000
18642435	2	101	0	-100	0	230	101300000	1000	0	0	-1	1000
18654995	9	100	0	-100	0	230	101300000	1000	0	0	-1	1000
18667555	4	104	0	-100	0	230	101300000	1000	0	0	-1	1000
18680115	9	100	0	-100	0	230	101300000	1000	0	0	-1	1000
18692675	2	108	0	-100	0	230	101300000	1000	0	0	-1	1000
18705235	2	101	0	-100	0	230	101300000	1000	0	0	-1	1000
18717795	12	100	0	-100	0	230	101300000	1000	0	0	-1	1000
18730355	2	105	0	-100	0	230	101300000	1000	0	0	-1	1000
18742915	0	104	0	-100	0	230	101300000	1000	0	0	-1	1000
18755475	9	98	0	-100	0	230	101300000	1000	0	0	-1	1000
18768035	7	99	0	-100	0	230	101300000	1000	0	0	-1	1000
18780595	2	102	0	-100	0	230	101300000	1000	0	0	-1	1000
18793155	9	97	0	-100	0	230	101300000	1000	0	0	-1	1000
18805715	4	105	0	-100	0	230	101300000	1000	0	0	-1	1000
18818275	4	102	0	-100	0	230	101300000	1000	0	0	-1	1000
18830835	2	98	0	-100	0	230	101300000	1000	0	0	-1	1000
18843395	9	100	0	-100	0	230	101300000	1000	0	0	-1	1000
18855955	4	105	0	-100	0	230	101300000	1000	0	0	-1	1000
18868515	4	99	0	-100	0	230	101300000	1000	0	0	-1	1000
18881075	12	100	0	-100	0	230	101300000	1000	0	0	-1	1000
18893635	7	103	0	-100	0	230	101300000	1000	0	0	-1	1000
18906195	4	97	0	-100	0	230	101300000	1000	0	0	-1	1000
18918755	9	99	0	-100	0	230	101300000	1000	0	0	-1	1000
18931315	4	104	0	-100	0	230	101300000	1000	0	0	-1	1000
18943875	2	101	0	-100	0	230	101300000	1000	0	0	-1	1000
18956435	9	98	0	-100	0	230	101300000	1000	0	0	-1	1000
18968995	4	105	0	-100	0	230	101300000	1000	0	0	-1	1000
18981555	12	100	0	-100	0	230	101300000	1000	0	0	-1	1000
18994115	4	105	0	-100	0	230	101300000	1000	0	0	-1	1000
19006675	2	101	0	-100	0	230	101300000	1000	0	0	-1	1000
19019235	12	97	0	-100	0	230	101300000	1000	0	0	-1	1000
19031795	4	102	0	-100	0	230	101300000	1000	0	0	-1	1000
19044355	7	107	0	-100	0	230	101300000	1000	0	0	-1	1000
19056915	2	98	0	-100	0	230	101300000	1000	0	0	-1	1000
19069475	9	100	0	-100	0	230	101300000	1000	0	0	-1	1000
19082035	7	99	0	-100	0	230	101300000	1000	0	0	-1	1000
19094595	4	99	0	-100	0	230	101300000	1000	0	0	-1	1000
19107155	7	96	0	-100	0	230	101300000	1000	0	0	-1	1000
19119715	4	109	0	-100	0	230	101300000	1000	0	0	-1	1000
19132275	2	103	0	-100	0	230	101300000	1000	0	0	-1	1000
19144835	4	98	0	-100	0	230	101300000	1000	0	0	-1	1000
19157395	7	99	0	-100	0	230	101300000	1000	0	0	-1	1000
19169955	2	109	0	-100	0	230	101300000	1000	0	0	-1	1000
19182515	4	101	0	-100	0	230	101300000	1000	0	0	-1	1000
19195075	9	101	0	-100	0	230	101300000	1000	0	0	-1	1000
19207635	9	104	0	-100	0	230	101300000	1000	0	0	-1	1000
19220195	2	106	0	-100	0	230	101300000	1000	0	0	-1	1000
19232755	2	101	0	-100	0	230	101300000	1000	0	0	-1	1000
19245315	4	98	0	-100	0	230	101300000	1000	0	0	-1	1000
19257875	9	101	0	-100	0	230	101300000	1000	0	0	-1	1000
19270435	4	103	0	-100	0	230	101300000	1000	0	0	-1	1000
19282995	2	101	0	-100	0	230	101300000	1000	0	0	-1	1000
19295555	4	100	0	-100	0	230	101300000	1000	0	0	-1	1000
19308115	9	98	0	-100	0	230	101300000	1000	0	0	-1	1000
19320675	4	108	0	-100	0	230	101300000	1000	0	0	-1	1000
19333235	2	100	0	-100	0	230	101300000	1000	0	0	-1	1000
19345795	9	101	0	-100	0	230	101300000	1000	0	0	-1	1000
19358355	7	99	0	-100	0	230	101300000	1000	0	0	-1	1000
19370915	4	105	0	-100	0	230	101300000	1000	0	0	-1	1000
19383475	2	100	0	-100	0	230	101300000	1000	0	0	-1	1000
19396035	12	101	0	-100	0	230	101300000	1000	0	0	-1	1000
19408595	7	99	0	-100	0	230	101300000	1000	0	0	-1	1000
19421155	2	105	0	-100	0	230	101300000	1000	0	0	-1	1000
19433715	2	99	0	-100	0	230	101300000	1000	0	0	-1	1000
19446275	9	100	0	-100	0	230	101300000	1000	0	0	-1	1000
19458835	4	106	0	-100	0	230	101300000	1000	0	0	-1	1000
19471395	2	99	0	-100	0	230	101300000	1000	0	0	-1	1000
19483955	9	101	0	-100	0	230	101300000	1000	0	0	-1	1000
19496515	4	106	0	-100	0	230	101300000	1000	0	0	-1	1000
19509075	7	101	0	-100	0	230	101300000	1000	0	0	-1	1000
19521635	4	103	0	-100	0	230	101300000	1000	0	0	-1	1000
19534195	2	100	0	-100	0	230	101300000	1000	0	0	-1	1000
19546755	9	100	0	-100	0	230	101300000	1000	0	0	-1	1000
19559315	4	106	0	-100	0	230	101300000	1000	0	0	-1	1000
19571875	2	101	0	-100	0	230	101300000	1000	0	0	-1	1000
19584435	9	100	0	-100	0	230	101300000	1000	0	0	-1	1000
19596995	4	103	0	-100	0	230	101300000	1000	0	0	-1	1000
19609555	9	99	0	-100	0	230	101300000	1000	0	0	-1	1000
19622115	4	103	0	-100	0	230	101300000	1000	0	0	-1	1000
19634675	9	99	0	-100	0	230	101300000	1000	0	0	-1	1000
19647235	4	102	0	-100	0	230	101300000	1000	0	0	-1	1000
19659795	9	100	0	-100	0	230	101300000	1000	0	0	-1	1000
19672355	4	103	0	-100	0	230	101300000	1000	0	0	-1	1000
19684915	9	99	0	-100	0	230	101300000	1000	0	0	-1	1000
19697475	9	105	0	-100	0	230	101300000	1000	0	0	-1	1000
19710035	7	99	0	-100	0	230	101300000	1000	0	0	-1	1000
19722595	7	100	0	-100	0	230	101300000	1000	0	0	-1	1000
19735155	0	101	0	-100	0	230	101300000	1000	0	0	-1	1000
19747715	9	100	0	-100	0	230	101300000	1000	0	0	-1	1000
19760275	4	105	0	-100	0	230	101300000	1000	0	0	-1	1000
19772835	9	100	0	-100	0	230	101300000	1000	0	0	-1	1000
19785395	2	106	0	-100	0	230	101300000	1000	0	0	-1	1000
19797955	4	99	0	-100	0	230	101300000	1000	0	0	-1	1000
19810515	7	100	0	-100	0	230	101300000	1000	0	0	-1	1000
19823075	2	100	0	-100	0	230	101300000	1000	0	0	-1	1000
19835635	9	101	0	-100	0	230	101300000	1000	0	0	-1	1000
19848195	2	102	0	-100	0	230	101300000	1000	0	0	-1	1000
19860755	9	97	0	-100	0	230	101300000	1000	0	0	-1	1000
19873315	4	105	0	-100	0	230	101300000	1000	0	0	-1	1000
19885875	7	103	0	-100	0	230	101300000	1000	0	0	-1	1000
19898435	7	100	0	-100	0	230	101300000	1000	0	0	-1	1000
19910995	2	107	0	-100	0	230	101300000	1000	0	0	-1	1000
19923555	12	100	0	-100	0	230	101300000	1000	0	0	-1	1000
19936115	4	103	0	-100	0	230	101300000	1000	0	0	-1	1000
19948675	9	97	0	-100	0	230	101300000	1000	0	0	-1	1000
19961235	4	107	0	-100	0	230	101300000	1000	0	0	-1	1000
19973795	2	101	0	-100	0	230	101300000	1000	0	0	-1	1000
19986355	12	100	0	-100	0	230	101300000	1000	0	0	-1	1000
19998915	7	100	0	-100	0	230	101300000	1000	0	0	-1	1000
20011475	2	100	0	-100	0	230	101300000	1000	0	0	-1	1000
20024035	9	100	0	-100	0	230	101300000	1000	0	0	-1	1000
20036595	2	106	0	-100	0	230	101300000	1000	0	0	-1	1000
20049155	0	103	0	-100	0	230	101300000	1000	0	0	-1	1000
20061715	9	100	0	-100	0	230	101300000	1000	0	0	-1	1000
20074275	4	101	0	-100	0	230	101300000	1000	0	0	-1	1000
20086835	9	100	0	-100	0	230	101300000	1000	0	0	-1	1000
20099395	7	105	0	-100	0	230	101300000	1000	0	0	-1	1000
20111955	9	100	0	-100	0	230	101300000	1000	0	0	-1	1000
20124515	4	106	0	-100	0	230	101300000	1000	0	0	-1	1000
20137075	9	100	0	-100	0	230	101300000	1000	0	0	-1	1000
20149635	2	106	0	-100	0	230	101300000	1000	0	0	-1	1000
20162195	9	101	0	-100	0	230	101300000	1000	0	0	-1	1000
20174755	7	106	0	-100	0	230	101300000	1000	0	0	-1	1000
20187315	7	96	0	-100	0	230	101300000	1000	0	0	-1	1000
20199875	4	105	0	-100	0	230	101300000	1000	0	0	-1	1000
20212435	9	100	0	-100	0	230	101300000	1000	0	0	-1	1000
20224995	2	102	0	-100	0	230	101300000	1000	0	0	-1	1000
20237555	12	101	0	-100	0	230	101300000	1000	0	0	-1	1000
20250115	2	109	0	-100	0	230	101300000	1000	0	0	-1	1000
20262675	2	100	0	-100	0	230	101300000	1000	0	0	-1	1000
20275235	9	98	0	-100	0	230	101300000	1000	0	0	-1	1000
20287795	4	103	0	-100	0	230	101300000	1000	0	0	-1	1000
20300355	9	99	0	-100	0	230	101300000	1000	0	0	-1	1000
20312915	2	107	0	-100	0	230	101300000	1000	0	0	-1	1000
20325475	4	97	0	-100	0	230	101300000	1000	0	0	-1	1000
20338035	2	109	0	-100	0	230	101300000	1000	0	0	-1	1000
20350595	2	101	0	-100	0	230	101300000	1000	0	0	-1	1000
20363155	4	101	0	-100	0	230	101300000	1000	0	0	-1	1000
20375715	2	101	0	-100	0	230	101300000	1000	0	0	-1	1000
20388275	9	101	0	-100	0	230	101300000	1000	0	0	-1	1000
20400835	2	105	0	-100	0	230	101300000	1000	0	0	-1	1000
20413395	4	98	0	-100	0	230	101300000	1000	0	0	-1	1000
20425955	9	101	0	-100	0	230	101300000	1000	0	0	-1	1000
20438515	4	106	0	-100	0	230	101300000	1000	0	0	-1	1000
20451075	4	96	0	-100	0	230	101300000	1000	0	0	-1	1000
20463635	9	103	0	-100	0	230	101300000	1000	0	0	-1	1000
20476195	4	106	0	-100	0	230	101300000	1000	0	0	-1	1000
20488755	4	96	0	-100	0	230	101300000	1000	0	0	-1	1000
20501315	7	99	0	-100	0	230	101300000	1000	0	0	-1	1000
20513875	7	107	0	-100	0	230	101300000	1000	0	0	-1	1000
20526435	9	100	0	-100	0	230	101300000	1000	0	0	-1	1000
20538995	9	101	0	-100	0	230	101300000	1000	0	0	-1	1000
20551555	4	104	0	-100	0	230	101300000	1000	0	0	-1	1000
20564115	9	100	0	-100	0	230	101300000	1000	0	0	-1	1000
20576675	4	108	0	-100	0	230	101300000	1000	0	0	-1	1000
20589235	2	99	0	-100	0	230	101300000	1000	0	0	-1	1000
20601795	9	99	0	-100	0	230	101300000	1000	0	0	-1	1000
20614355	4	104	0	-100	0	230	101300000	1000	0	0	-1	1000
20626915	7	101	0	-100	0	230	101300000	1000	0	0	-1	1000
20639475	4	105	0	-100	0	230	101300000	1000	0	0	-1	1000
20652035	4	101	0	-100	0	230	101300000	1000	0	0	-1	1000
20664595	4	105	0	-100	0	230	101300000	1000	0	0	-1	1000
20677155	4	98	0	-100	0	230	101300000	1000	0	0	-1	1000
20689715	7	105	0	-100	0	230	101300000	1000	0	0	-1	1000
20702275	9	100	0	-100	0	230	101300000	1000	0	0	-1	1000
20714835	2	99	0	-100	0	230	101300000	1000	0	0	-1	1000
20727395	4	107	0	-100	0	230	101300000	1000	0	0	-1	1000
20739955	7	99	0	-100	0	230	101300000	1000	0	0	-1	1000
20752515	2	103	0	-100	0	230	101300000	1000	0	0	-1	1000
20765075	4	102	0	-100	0	230	101300000	1000	0	0	-1	1000
20777635	9	99	0	-100	0	230	101300000	1000	0	0	-1	1000
20790195	0	100	0	-100	0	230	101300000	1000	0	0	-1	1000
20802755	9	101	0	-100	0	230	101300000	1000	0	0	-1	1000
20815315	4	98	0	-100	0	230	101300000	1000	0	0	-1	1000
20827875	4	107	0	-100	0	230	101300000	1000	0	0	-1	1000
20840435	4	96	0	-100	0	230	101300000	1000	0	0	-1	1000
20852995	9	98	0	-100	0	230	101300000	1000	0	0	-1	1000
20865555	4	102	0	-100	0	230	101300000	1000	0	0	-1	1000
20878115	9	100	0	-100	0	230	101300000	1000	0	0	-1	1000
20890675	7	100	0	-100	0	230	101300000	1000	0	0	-1	1000
20903235	4	105	0	-100	0	230	101300000	1000	0	0	-1	1000
20915795	2	101	0	-100	0	230	101300000	1000	0	0	-1	1000
20928355	9	102	0	-100	0	230	101300000	1000	0	0	-1	1000
20940915	2	100	0	-100	0	230	101300000	1000	0	0	-1	1000
20953475	7	98	0	-100	0	230	101300000	1000	0	0	-1	1000
20966035	4	104	0	-100	0	230	101300000	1000	0	0	-1	1000
20978595	12	100	0	-100	0	230	101300000	1000	0	0	-1	1000
20991155	2	104	0	-100	0	230	101300000	1000	0	0	-1	1000
21003715	4	97	0	-100	0	230	101300000	1000	0	0	-1	1000
21016275	4	104	0	-100	0	230	101300000	1000	0	0	-1	1000
21028835	2	100	0	-100	0	230	101300000	1000	0	0	-1	1000
21041395	9	100	0	-100	0	230	101300000	1000	0	0	-1	1000
21053955	4	103	0	-100	0	230	101300000	1000	0	0	-1	1000
21066515	9	99	0	-100	0	230	101300000	1000	0	0	-1	1000
21079075	2	106	0	-100	0	230	101300000	1000	0	0	-1	1000
21091635	2	100	0	-100	0	230	101300000	1000	0	0	-1	1000
21104195	12	101	0	-100	0	230	101300000	1000	0	0	-1	1000
21116755	4	106	0	-100	0	230	101300000	1000	0	0	-1	1000
21129315	2	100	0	-100	0	230	101300000	1000	0	0	-1	1000
21141875	9	100	0	-100	0	230	101300000	1000	0	0	-1	1000
21154435	4	109	0	-100	0	230	101300000	1000	0	0	-1	1000
21166995	4	105	0	-100	0	230	101300000	1000	0	0	-1	1000
21179555	9	100	0	-100	0	230	101300000	1000	0	0	-1	1000
21192115	2	105	0	-100	0	230	101300000	1000	0	0	-1	1000
21204675	4	99	0	-100	0	230	101300000	1000	0	0	-1	1000
21217235	7	99	0	-100	0	230	101300000	1000	0	0	-1	1000
21229795	4	106	0	-100	0	230	101300000	1000	0	0	-1	1000
21242355	7	100	0	-100	0	230	101300000	1000	0	0	-1	1000
21254915	4	109	0	-100	0	230	101300000	1000	0	0	-1	1000
21267475	2	100	0	-100	0	230	101300000	1000	0	0	-1	1000
21280035	12	100	0	-100	0	230	101300000	1000	0	0	-1	1000
21292595	4	104	0	-100	0	230	101300000	1000	0	0	-1	1000
21305155	7	98	0	-100	0	230	101300000	1000	0	0	-1	1000
21317715	4	105	0	-100	0	230	101300000	1000	0	0	-1	1000
21330275	9	100	0	-100	0	230	101300000	1000	0	0	-1	1000
21342835	2	107	0	-100	0	230	101300000	1000	0	0	-1	1000
21355395	4	101	0	-100	0	230	101300000	1000	0	0	-1	1000
21367955	12	100	0	-100	0	230	101300000	1000	0	0	-1	1000
21380515	4	104	0	-100	0	230	101300000	1000	0	0	-1	1000
21393075	4	97	0	-100	0	230	101300000	1000	0	0	-1	1000
21405635	7	99	0	-100	0	230	101300000	1000	0	0	-1	1000
21418195	4	105	0	-100	0	230	101300000	1000	0	0	-1	1000
21430755	12	101	0	-100	0	230	101300000	1000	0	0	-1	1000
21443315	2	107	0	-100	0	230	101300000	1000	0	0	-1	1000
21455875	2	101	0	-100	0	230	101300000	1000	0	0	-1	1000
21468435	9	100	0	-100	0	230	101300000	1000	0	0	-1	1000
21480995	4	100	0	-100	0	230	101300000	1000	0	0	-1	1000
21493555	2	100	0	-100	0	230	101300000	1000	0	0	-1	1000
21506115	12	99	0	-100	0	230	101300000	1000	0	0	-1	1000
21518675	9	100	0	-100	0	230	101300000	1000	0	0	-1	1000
21531235	4	105	0	-100	0	230	101300000	1000	0	0	-1	1000
21543795	7	104	0	-100	0	230	101300000	1000	0	0	-1	1000
21556355	4	105	0	-100	0	230	101300000	1000	0	0	-1	1000
21568915	2	102	0	-100	0	230	101300000	1000	0	0	-1	1000
21581475	4	98	0	-100	0	230	101300000	1000	0	0	-1	1000
21594035	4	96	0	-100	0	230	101300000	1000	0	0	-1	1000
21606595	12	103	0	-100	0	230	101300000	1000	0	0	-1	1000
21619155	4	100	0	-100	0	230	101300000	1000	0	0	-1	1000
21631715	7	98	0	-100	0	230	101300000	1000	0	0	-1	1000
21644275	2	104	0	-100	0	230	101300000	1000	0	0	-1	1000
21656835	4	106	0	-100	0	230	101300000	1000	0	0	-1	1000
21669395	4	105	0	-100	0	230	101300000	1000	0	0	-1	1000
21681955	2	101	0	-100	0	230	101300000	1000	0	0	-1	1000
21694515	4	99	0	-100	0	230	101300000	1000	0	0	-1	1000
21707075	12	101	0	-100	0	230	101300000	1000	0	0	-1	1000
21719635	9	99	0	-100	0	230	101300000	1000	0	0	-1	1000
21732195	12	100	0	-100	0	230	101300000	1000	0	0	-1	1000
21744755	2	106	0	-100	0	230	101300000	1000	0	0	-1	1000
21757315	4	105	0	-100	0	230	101300000	1000	0	0	-1	1000
21769875	2	101	0	-100	0	230	101300000	1000	0	0	-1	1000
21782435	0	103	0	-100	0	230	101300000	1000	0	0	-1	1000
21794995	2	106	0	-100	0	230	101300000	1000	0	0	-1	1000
21807555	9	99	0	-100	0	230	101300000	1000	0	0	-1	1000
21820115	9	98	0	-100	0	230	101300000	1000	0	0	-1	1000
21832675	4	104	0	-100	0	230	101300000	1000	0	0	-1	1000
21845235	4	106	0	-100	0	230	101300000	1000	0	0	-1	1000
21857795	2	101	0	-100	0	230	101300000	1000	0	0	-1	1000
21870355	2	96	0	-100	0	230	101300000	1000	0	0	-1	1000
21882915	9	99	0	-100	0	230	101300000	1000	0	0	-1	1000
21895475	7	99	0	-100	0	230	101300000	1000	0	0	-1	1000
21908035	4	104	0	-100	0	230	101300000	1000	0	0	-1	1000
21920595	4	109	0	-100	0	230	101300000	1000	0	0	-1	1000
21933155	0	99	0	-100	0	230	101300000	1000	0	0	-1	1000
21945715	4	105	0	-100	0	230	101300000	1000	0	0	-1	1000
21958275	7	106	0	-100	0	230	101300000	1000	0	0	-1	1000
21970835	2	100	0	-100	0	230	101300000	1000	0	0	-1	1000
21983395	9	99	0	-100	0	230	101300000	1000	0	0	-1	1000
21995955	9	100	0	-100	0	230	101300000	1000	0	0	-1	1000
22008515	7	100	0	-100	0	230	101300000	1000	0	0	-1	1000
22021075	4	105	0	-100	0	230	101300000	1000	0	0	-1	1000
22033635	2	103	0	-100	0	230	101300000	1000	0	0	-1	1000
22046195	4	98	0	-100	0	230	101300000	1000	0	0	-1	1000
22058755	7	97	0	-100	0	230	101300000	1000	0	0	-1	1000
22071315	2	105	0	-100	0	230	101300000	1000	0	0	-1	1000
22083875	2	102	0	-100	0	230	101300000	1000	0	0	-1	1000
22096435	7	100	0	-100	0	230	101300000	1000	0	0	-1	1000
22108995	9	99	0	-100	0	230	101300000	1000	0	0	-1	1000
22121555	4	108	0	-100	0	230	101300000	1000	0	0	-1	1000
22134115	4	104	0	-100	0	230	101300000	1000	0	0	-1	1000
22146675	2	99	0	-100	0	230	101300000	1000	0	0	-1	1000
22159235	9	98	0	-100	0	230	101300000	1000	0	0	-1	1000
22171795	9	103	0	-100	0	230	101300000	1000	0	0	-1	1000
22184355	4	105	0	-100	0	230	101300000	1000	0	0	-1	1000
22196915	4	102	0	-100	0	230	101300000	1000	0	0	-1	1000
22209475	4	96	0	-100	0	230	101300000	1000	0	0	-1	1000
22222035	9	99	0	-100	0	230	101300000	1000	0	0	-1	1000
22234595	4	106	0	-100	0	230	101300000	1000	0	0	-1	1000
22247155	4	103	0	-100	0	230	101300000	1000	0	0	-1	1000
22259715	4	99	0	-100	0	230	101300000	1000	0	0	-1	1000
22272275	12	97	0	-100	0	230	101300000	1000	0	0	-1	1000
22284835	4	105	0	-100	0	230	101300000	1000	0	0	-1	1000
22297395	4	103	0	-100	0	230	101300000	1000	0	0	-1	1000
22309955	2	99	0	-100	0	230	101300000	1000	0	0	-1	1000
22322515	9	99	0	-100	0	230	101300000	1000	0	0	-1	1000
22335075	2	107	0	-100	0	230	101300000	1000	0	0	-1	1000
22347635	2	100	0	-100	0	230	101300000	1000	0	0	-1	1000
22360195	9	101	0	-100	0	230	101300000	1000	0	0	-1	1000
22372755	9	102	0	-100	0	230	101300000	1000	0	0	-1	1000
22385315	0	101	0	-100	0	230	101300000	1000	0	0	-1	1000
22397875	9	98	0	-100	0	230	101300000	1000	0	0	-1	1000
22410435	4	107	0	-100	0	230	101300000	1000	0	0	-1	1000
22422995	4	105	0	-100	0	230	101300000	1000	0	0	-1	1000
22435555	9	103	0	-100	0	230	101300000	1000	0	0	-1	1000
22448115	4	106	0	-100	0	230	101300000	1000	0	0	-1	1000
22460675	4	98	0	-100	0	230	101300000	1000	0	0	-1	1000
22473235	12	101	0	-100	0	230	101300000	1000	0	0	-1	1000
22485795	2	107	0	-100	0	230	101300000	1000	0	0	-1	1000
22498355	2	99	0	-100	0	230	101300000	1000	0	0	-1	1000
22510915	12	99	0	-100	0	230	101300000	1000	0	0	-1	1000
22523475	4	107	0	-100	0	230	101300000	1000	0	0	-1	1000
22536035	2	104	0	-100	0	230	101300000	1000	0	0	-1	1000
22548595	4	96	0	-100	0	230	101300000	1000	0	0	-1	1000
22561155	4	100	0	-100	0	230	101300000	1000	0	0	-1	1000
22573715	4	108	0	-100	0	230	101300000	1000	0	0	-1	1000
22586275	2	105	0	-100	0	230	101300000	1000	0	0	-1	1000
22598835	2	101	0	-100	0	230	101300000	1000	0	0	-1	1000
22611395	7	96	0	-100	0	230	101300000	1000	0	0	-1	1000
22623955	2	106	0	-100	0	230	101300000	1000	0	0	-1	1000
22636515	4	100	0	-100	0	230	101300000	1000	0	0	-1	1000
22649075	9	100	0	-100	0	230	101300000	1000	0	0	-1	1000
22661635	2	107	0	-100	0	230	101300000	1000	0	0	-1	1000
22674195	2	104	0	-100	0	230	101300000	1000	0	0	-1	1000
22686755	4	97	0	-100	0	230	101300000	1000	0	0	-1	1000
22699315	9	98	0	-100	0	230	101300000	1000	0	0	-1	1000
22711875	2	108	0	-100	0	230	101300000	1000	0	0	-1	1000
22724435	2	103	0	-100	0	230	101300000	1000	0	0	-1	1000
22736995	4	106	0	-100	0	230	101300000	1000	0	0	-1	1000
22749555	9	100	0	-100	0	230	101300000	1000	0	0	-1	1000
22762115	2	105	0	-100	0	230	101300000	1000	0	0	-1	1000
22774675	2	101	0	-100	0	230	101300000	1000	0	0	-1	1000
22787235	9	99	0	-100	0	230	101300000	1000	0	0	-1	1000
22799795	2	106	0	-100	0	230	101300000	1000	0	0	-1	1000
22812355	2	100	0	-100	0	230	101300000	1000	0	0	-1	1000
22824915	9	98	0	-100	0	230	101300000	1000	0	0	-1	1000
22837475	4	103	0	-100	0	230	101300000	1000	0	0	-1	1000
22850035	2	101	0	-100	0	230	101300000	1000	0	0	-1	1000
22862595	7	99	0	-100	0	230	101300000	1000	0	0	-1	1000
22875155	0	98	0	-100	0	230	101300000	1000	0	0	-1	1000
22887715	2	100	0	-100	0	230	101300000	1000	0	0	-1	1000
22900275	7	99	0	-100	0	230	101300000	1000	0	0	-1	1000
22912835	7	107	0	-100	0	230	101300000	1000	0	0	-1	1000
22925395	7	99	0	-100	0	230	101300000	1000	0	0	-1	1000
22937955	4	103	0	-100	0	230	101300000	1000	0	0	-1	1000
22950515	4	103	0	-100	0	230	101300000	1000	0	0	-1	1000
22963075	2	98	0	-100	0	230	101300000	1000	0	0	-1	1000
22975635	9	98	0	-100	0	230	101300000	1000	0	0	-1	1000
22988195	4	105	0	-100	0	230	101300000	1000	0	0	-1	1000
23000755	7	101	0	-100	0	230	101300000	1000	0	0	-1	1000
23013315	4	102	0	-100	0	230	101300000	1000	0	0	-1	1000
23025875	2	101	0	-100	0	230	101300000	1000	0	0	-1	1000
23038435	9	98	0	-100	0	230	101300000	1000	0	0	-1	1000
23050995	4	100	0	-100	0	230	101300000	1000	0	0	-1	1000
23063555	2	100	0	-100	0	230	101300000	1000	0	0	-1	1000
23076115	9	98	0	-100	0	230	101300000	1000	0	0	-1	1000
23088675	7	109	0	-100	0	230	101300000	1000	0	0	-1	1000
23101235	9	98	0	-100	0	230	101300000	1000	0	0	-1	1000
23113795	4	104	0	-100	0	230	101300000	1000	0	0	-1	1000
23126355	9	101	0	-100	0	230	101300000	1000	0	0	-1	1000
23138915	7	99	0	-100	0	230	101300000	1000	0	0	-1	1000
23151475	4	101	0	-100	0	230	101300000	1000	0	0	-1	1000
23164035	12	100	0	-100	0	230	101300000	1000	0	0	-1	1000
23176595	4	106	0	-100	0	230	101300000	1000	0	0	-1	1000
23189155	4	99	0	-100	0	230	101300000	1000	0	0	-1	1000
23201715	7	98	0	-100	0	230	101300000	1000	0	0	-1	1000
23214275	2	102	0	-100	0	230	101300000	1000	0	0	-1	1000
23226835	9	100	0	-100	0	230	101300000	1000	0	0	-1	1000
23239395	7	104	0	-100	0	230	101300000	1000	0	0	-1	1000
23251955	12	101	0	-100	0	230	101300000	1000	0	0	-1	1000
23264515	2	105	0	-100	0	230	101300000	1000	0	0	-1	1000
23277075	9	101	0	-100	0	230	101300000	1000	0	0	-1	1000
23289635	4	107	0	-100	0	230	101300000	1000	0	0	-1	1000
23302195	4	96	0	-100	0	230	101300000	1000	0	0	-1	1000
23314755	7	100	0	-100	0	230	101300000	1000	0	0	-1	1000
23327315	4	98	0	-100	0	230	101300000	1000	0	0	-1	1000
23339875	4	104	0	-100	0	230	101300000	1000	0	0	-1	1000
23352435	4	98	0	-100	0	230	101300000	1000	0	0	-1	1000
23364995	7	99	0	-100	0	230	101300000	1000	0	0	-1	1000
23377555	4	101	0	-100	0	230	101300000	1000	0	0	-1	1000
23390115	12	98	0	-100	0	230	101300000	1000	0	0	-1	1000
23402675	2	106	0	-100	0	230	101300000	1000	0	0	-1	1000
23415235	12	99	0	-100	0	230	101300000	1000	0	0	-1	1000
23427795	2	109	0	-100	0	230	101300000	1000	0	0	-1	1000
23440355	2	101	0	-100	0	230	101300000	1000	0	0	-1	1000
23452915	9	100	0	-100	0	230	101300000	1000	0	0	-1	1000
23465475	4	104	0	-100	0	230	101300000	1000	0	0	-1	1000
23478035	9	98	0	-100	0	230	101300000	1000	0	0	-1	1000
23490595	4	105	0	-100	0	230	101300000	1000	0	0	-1	1000
23503155	4	99	0	-100	0	230	101300000	1000	0	0	-1	1000
23515715	2	106	0	-100	0	230	101300000	1000	0	0	-1	1000
23528275	9	99	0	-100	0	230	101300000	1000	0	0	-1	1000
23540835	4	106	0	-100	0	230	101300000	1000	0	0	-1	1000
23553395	12	100	0	-100	0	230	101300000	1000	0	0	-1	1000
23565955	2	107	0	-100	0	230	101300000	1000	0	0	-1	1000
23578515	9	100	0	-100	0	230	101300000	1000	0	0	-1	1000
23591075	2	105	0	-100	0	230	101300000	1000	0	0	-1	1000
23603635	12	99	0	-100	0	230	101300000	1000	0	0	-1	1000
23616195	2	107	0	-100	0	230	101300000	1000	0	0	-1	1000
23628755	7	100	0	-100	0	230	101300000	1000	0	0	-1	1000
23641315	4	105	0	-100	0	230	101300000	1000	0	0	-1	1000
23653875	2	101	0	-100	0	230	101300000	1000	0	0	-1	1000
23666435	4	103	0	-100	0	230	101300000	1000	0	0	-1	1000
23678995	4	106	0	-100	0	230	101300000	1000	0	0	-1	1000
23691555	9	105	0	-100	0	230	101300000	1000	0	0	-1	1000
23704115	4	105	0	-100	0	230	101300000	1000	0	0	-1	1000
23716675	9	99	0	-100	0	230	101300000	1000	0	0	-1	1000
23729235	9	103	0	-100	0	230	101300000	1000	0	0	-1	1000
23741795	2	104	0	-100	0	230	101300000	1000	0	0	-1	1000
23754355	9	100	0	-100	0	230	101300000	1000	0	0	-1	1000
23766915	7	99	0	-100	0	230	101300000	1000	0	0	-1	1000
23779475	2	102	0	-100	0	230	101300000	1000	0	0	-1	1000
23792035	9	98	0	-100	0	230	101300000	1000	0	0	-1	1000
23804595	2	106	0	-100	0	230	101300000	1000	0	0	-1	1000
23817155	0	101	0	-100	0	230	101300000	1000	0	0	-1	1000
23829715	12	99	0	-100	0	230	101300000	1000	0	0	-1	1000
23842275	4	105	0	-100	0	230	101300000	1000	0	0	-1	1000
23854835	9	100	0	-100	0	230	101300000	1000	0	0	-1	1000
23867395	2	107	0	-100	0	230	101300000	1000	0	0	-1	1000
23879955	0	105	0	-100	0	230	101300000	1000	0	0	-1	1000
23892515	7	100	0	-100	0	230	101300000	1000	0	0	-1	1000
23905075	2	101	0	-100	0	230	101300000	1000	0	0	-1	1000
23917635	7	98	0	-100	0	230	101300000	1000	0	0	-1	1000
23930195	2	106	0	-100	0	230	101300000	1000	0	0	-1	1000
23942755	4	97	0	-100	0	230	101300000	1000	0	0	-1	1000
23955315	4	105	0	-100	0	230	101300000	1000	0	0	-1	1000
23967875	7	99	0	-100	0	230	101300000	1000	0	0	-1	1000
23980435	2	101	0	-100	0	230	101300000	1000	0	0	-1	1000
23992995	2	99	0	-100	0	230	101300000	1000	0	0	-1	1000
24005555	9	100	0	-100	0	230	101300000	1000	0	0	-1	1000
24018115	2	101	0	-100	0	230	101300000	1000	0	0	-1	1000
24030675	4	105	0	-100	0	230	101300000	1000	0	0	-1	1000
24043235	7	98	0	-100	0	230	101300000	1000	0	0	-1	1000
24055795	9	97	0	-100	0	230	101300000	1000	0	0	-1	1000
24068355	4	98	0	-100	0	230	101300000	1000	0	0	-1	1000
24080915	4	104	0	-100	0	230	101300000	1000	0	0	-1	1000
24093475	4	107	0	-100	0	230	101300000	1000	0	0	-1	1000
24106035	7	100	0	-100	0	230	101300000	1000	0	0	-1	1000
24118595	7	98	0	-100	0	230	101300000	1000	0	0	-1	1000
24131155	9	99	0	-100	0	230	101300000	1000	0	0	-1	1000
24143715	4	97	0	-100	0	230	101300000	1000	0	0	-1	1000
24156275	7	108	0	-100	0	230	101300000	1000	0	0	-1	1000
24168835	9	101	0	-100	0	230	101300000	1000	0	0	-1	1000
24181395	7	100	0	-100	0	230	101300000	1000	0	0	-1	1000
24193955	2	101	0	-100	0	230	101300000	1000	0	0	-1	1000
24206515	4	107	0	-100	0	230	101300000	1000	0	0	-1	1000
24219075	9	99	0	-100	0	230	101300000	1000	0	0	-1	1000
24231635	4	100	0	-100	0	230	101300000	1000	0	0	-1	1000
24244195	4	105	0	-100	0	230	101300000	1000	0	0	-1	1000
24256755	7	100	0	-100	0	230	101300000	1000	0	0	-1	1000
24269315	7	99	0	-100	0	230	101300000	1000	0	0	-1	1000
24281875	4	101	0	-100	0	230	101300000	1000	0	0	-1	1000
24294435	4	104	0	-100	0	230	101300000	1000	0	0	-1	1000
24306995	9	104	0	-100	0	230	101300000	1000	0	0	-1	1000
24319555	7	106	0	-100	0	230	101300000	1000	0	0	-1	1000
24332115	7	100	0	-100	0	230	101300000	1000	0	0	-1	1000
24344675	7	101	0	-100	0	230	101300000	1000	0	0	-1	1000
24357235	4	105	0	-100	0	230	101300000	1000	0	0	-1	1000
24369795	9	99	0	-100	0	230	101300000	1000	0	0	-1	1000
24382355	2	101	0	-100	0	230	101300000	1000	0	0	-1	1000
24394915	4	106	0	-100	0	230	101300000	1000	0	0	-1	1000
24407475	9	104	0	-100	0	230	101300000	1000	0	0	-1	1000
24420035	9	99	0	-100	0	230	101300000	1000	0	0	-1	1000
24432595	2	100	0	-100	0	230	101300000	1000	0	0	-1	1000
24445155	0	98	0	-100	0	230	101300000	1000	0	0	-1	1000
24457715	7	97	0	-100	0	230	101300000	1000	0	0	-1	1000
24470275	4	105	0	-100	0	230	101300000	1000	0	0	-1	1000
24482835	9	102	0	-100	0	230	101300000	1000	0	0	-1	1000
24495395	9	97	0	-100	0	230	101300000	1000	0	0	-1	1000
24507955	4	107	0	-100	0	230	101300000	1000	0	0	-1	1000
24520515	9	100	0	-100	0	230	101300000	1000	0	0	-1	1000
24533075	2	97	0	-100	0	230	101300000	1000	0	0	-1	1000
24545635	4	105	0	-100	0	230	101300000	1000	0	0	-1	1000
24558195	7	100	0	-100	0	230	101300000	1000	0	0	-1	1000
24570755	9	98	0	-100	0	230	101300000	1000	0	0	-1	1000
24583315	4	100	0	-100	0	230	101300000	1000	0	0	-1	1000
24595875	2	104	0	-100	0	230	101300000	1000	0	0	-1	1000
24608435	7	100	0	-100	0	230	101300000	1000	0	0	-1	1000
24620995	9	104	0	-100	0	230	101300000	1000	0	0	-1	1000
24633555	2	103	0	-100	0	230	101300000	1000	0	0	-1	1000
24646115	7	100	0	-100	0	230	101300000	1000	0	0	-1	1000
24658675	9	98	0	-100	0	230	101300000	1000	0	0	-1	1000
24671235	0	102	0	-100	0	230	101300000	1000	0	0	-1	1000
24683795	4	105	0	-100	0	230	101300000	1000	0	0	-1	1000
24696355	7	99	0	-100	0	230	101300000	1000	0	0	-1	1000
24708915	7	99	0	-100	0	230	101300000	1000	0	0	-1	1000
24721475	2	101	0	-100	0	230	101300000	1000	0	0	-1	1000
24734035	7	103	0	-100	0	230	101300000	1000	0	0	-1	1000
24746595	4	106	0	-100	0	230	101300000	1000	0	0	-1	1000
24759155	7	97	0	-100	0	230	101300000	1000	0	0	-1	1000
24771715	12	100	0	-100	0	230	101300000	1000	0	0	-1	1000
24784275	2	103	0	-100	0	230	101300000	1000	0	0	-1	1000
24796835	4	106	0	-100	0	230	101300000	1000	0	0	-1	1000
24809395	7	96	0	-100	0	230	101300000	1000	0	0	-1	1000
24821955	4	98	0	-100	0	230	101300000	1000	0	0	-1	1000
24834515	2	101	0	-100	0	230	101300000	1000	0	0	-1	1000
24847075	7	106	0	-100	0	230	101300000	1000	0	0	-1	1000
24859635	4	107	0	-100	0	230	101300000	1000	0	0	-1	1000
24872195	9	104	0	-100	0	230	101300000	1000	0	0	-1	1000
24884755	9	100	0	-100	0	230	101300000	1000	0	0	-1	1000
24897315	12	99	0	-100	0	230	101300000	1000	0	0	-1	1000
24909875	4	97	0	-100	0	230	101300000	1000	0	0	-1	1000
24922435	2	101	0	-100	0	230	101300000	1000	0	0	-1	1000
24934995	4	105	0	-100	0	230	101300000	1000	0	0	-1	1000
24947555	4	105	0	-100	0	230	101300000	1000	0	0	-1	1000
24960115	7	100	0	-100	0	230	101300000	1000	0	0	-1	1000
24972675	9	98	0	-100	0	230	101300000	1000	0	0	-1	1000
24985235	12	101	0	-100	0	230	101300000	1000	0	0	-1	1000
24997795	2	100	0	-100	0	230	101300000	1000	0	0	-1	1000
25010355	4	106	0	-100	0	230	101300000	1000	0	0	-1	1000
25022915	4	103	0	-100	0	230	101300000	1000	0	0	-1	1000
25035475	7	100	0	-100	0	230	101300000	1000	0	0	-1	1000
25048035	12	97	0	-100	0	230	101300000	1000	0	0	-1	1000
25060595	2	101	0	-100	0	230	101300000	1000	0	0	-1	1000
25073155	0	98	0	-100	0	230	101300000	1000	0	0	-1	1000
25085715	4	104	0	-100	0	230	101300000	1000	0	0	-1	1000
25098275	9	99	0	-100	0	230	101300000	1000	0	0	-1	1000
25110835	4	96	0	-100	0	230	101300000	1000	0	0	-1	1000
25123395	0	103	0	-100	0	230	101300000	1000	0	0	-1	1000
25135955	4	104	0	-100	0	230	101300000	1000	0	0	-1	1000
25148515	4	107	0	-100	0	230	101300000	1000	0	0	-1	1000
25161075	9	100	0	-100	0	230	101300000	1000	0	0	-1	1000
25173635	9	100	0	-100	0	230	101300000	1000	0	0	-1	1000
25186195	9	99	0	-100	0	230	101300000	1000	0	0	-1	1000
25198755	2	99	0	-100	0	230	101300000	1000	0	0	-1	1000
25211315	4	105	0	-100	0	230	101300000	1000	0	0	-1	1000
25223875	12	100	0	-100	0	230	101300000	1000	0	0	-1	1000
25236435	12	100	0	-100	0	230	101300000	1000	0	0	-1	1000
25248995	4	106	0	-100	0	230	101300000	1000	0	0	-1	1000
25261555	4	101	0	-100	0	230	101300000	1000	0	0	-1	1000
25274115	4	105	0	-100	0	230	101300000	1000	0	0	-1	1000
25286675	4	106	0	-100	0	230	101300000	1000	0	0	-1	1000
25299235	7	99	0	-100	0	230	101300000	1000	0	0	-1	1000
25311795	9	98	0	-100	0	230	101300000	1000	0	0	-1	1000
25324355	7	96	0	-100	0	230	101300000	1000	0	0	-1	1000
25336915	7	100	0	-100	0	230	101300000	1000	0	0	-1	1000
25349475	2	100	0	-100	0	230	101300000	1000	0	0	-1	1000
25362035	4	104	0	-100	0	230	101300000	1000	0	0	-1	1000
25374595	7	100	0	-100	0	230	101300000	1000	0	0	-1	1000
25387155	4	99	0	-100	0	230	101300000	1000	0	0	-1	1000
25399715	9	100	0	-100	0	230	101300000	1000	0	0	-1	1000
25412275	2	99	0	-100	0	230	101300000	1000	0	0	-1	1000
25424835	2	106	0	-100	0	230	101300000	1000	0	0	-1	1000
25437395	7	100	0	-100	0	230	101300000	1000	0	0	-1	1000
25449955	12	100	0	-100	0	230	101300000	1000	0	0	-1	1000
25462515	4	97	0	-100	0	230	101300000	1000	0	0	-1	1000
25475075	2	103	0	-100	0	230	101300000	1000	0	0	-1	1000
25487635	4	105	0	-100	0	230	101300000	1000	0	0	-1	1000
25500195	9	101	0	-100	0	230	101300000	1000	0	0	-1	1000
25512755	2	99	0	-100	0	230	101300000	1000	0	0	-1	1000
25525315	7	103	0	-100	0	230	101300000	1000	0	0	-1	1000
25537875	7	97	0	-100	0	230	101300000	1000	0	0	-1	1000
25550435	9	98	0	-100	0	230	101300000	1000	0	0	-1	1000
25562995	4	105	0	-100	0	230	101300000	1000	0	0	-1	1000
25575555	4	103	0	-100	0	230	101300000	1000	0	0	-1	1000
25588115	7	100	0	-100	0	230	101300000	1000	0	0	-1	1000
25600675	12	101	0	-100	0	230	101300000	1000	0	0	-1	1000
25613235	9	99	0	-100	0	230	101300000	1000	0	0	-1	1000
25625795	2	101	0	-100	0	230	101300000	1000	0	0	-1	1000
25638355	2	102	0	-100	0	230	101300000	1000	0	0	-1	1000
25650915	2	105	0	-100	0	230	101300000	1000	0	0	-1	1000
25663475	2	107	0	-100	0	230	101300000	1000	0	0	-1	1000
25676035	7	98	0	-100	0	230	101300000	1000	0	0	-1	1000
25688595	7	96	0	-100	0	230	101300000	1000	0	0	-1	1000
25701155	0	102	0	-100	0	230	101300000	1000	0	0	-1	1000
25713715	2	103	0	-100	0	230	101300000	1000	0	0	-1	1000
25726275	7	98	0	-100	0	230	101300000	1000	0	0	-1	1000
25738835	9	99	0	-100	0	230	101300000	1000	0	0	-1	1000
25751395	4	96	0	-100	0	230	101300000	1000	0	0	-1	1000
25763955	2	103	0	-100	0	230	101300000	1000	0	0	-1	1000
25776515	4	105	0	-100	0	230	101300000	1000	0	0	-1	1000
25789075	9	100	0	-100	0	230	101300000	1000	0	0	-1	1000
25801635	4	98	0	-100	0	230	101300000	1000	0	0	-1	1000
25814195	4	105	0	-100	0	230	101300000	1000	0	0	-1	1000
25826755	4	105	0	-100	0	230	101300000	1000	0	0	-1	1000
25839315	9	98	0	-100	0	230	101300000	1000	0	0	-1	1000
25851875	4	97	0	-100	0	230	101300000	1000	0	0	-1	1000
25864435	4	100	0	-100	0	230	101300000	1000	0	0	-1	1000
25876995	2	98	0	-100	0	230	101300000	1000	0	0	-1	1000
25889555	9	100	0	-100	0	230	101300000	1000	0	0	-1	1000
25902115	2	101	0	-100	0	230	101300000	1000	0	0	-1	1000
25914675	4	105	0	-100	0	230	101300000	1000	0	0	-1	1000
25927235	4	105	0	-100	0	230	101300000	1000	0	0	-1	1000
25939795	9	100	0	-100	0	230	101300000	1000	0	0	-1	1000
25952355	7	99	0	-100	0	230	101300000	1000	0	0	-1	1000
25964915	4	99	0	-100	0	230	101300000	1000	0	0	-1	1000
25977475	4	106	0	-100	0	230	101300000	1000	0	0	-1	1000
25990035	7	99	0	-100	0	230	101300000	1000	0	0	-1	1000
26002595	9	100	0	-100	0	230	101300000	1000	0	0	-1	1000
26015155	0	101	0	-100	0	230	101300000	1000	0	0	-1	1000
26027715	4	105	0	-100	0	230	101300000	1000	0	0	-1	1000
26040275	7	100	0	-100	0	230	101300000	1000	0	0	-1	1000
26052835	9	98	0	-100	0	230	101300000	1000	0	0	-1	1000
26065395	12	99	0	-100	0	230	101300000	1000	0	0	-1	1000
26077955	4	99	0	-100	0	230	101300000	1000	0	0	-1	1000
26090515	4	101	0	-100	0	230	101300000	1000	0	0	-1	1000
26103075	2	106	0	-100	0	230	101300000	1000	0	0	-1	1000
26115635	9	99	0	-100	0	230	101300000	1000	0	0	-1	1000
26128195	2	100	0	-100	0	230	101300000	1000	0	0	-1	1000
26140755	2	108	0	-100	0	230	101300000	1000	0	0	-1	1000
26153315	9	100	0	-100	0	230	101300000	1000	0	0	-1	1000
26165875	0	104	0	-100	0	230	101300000	1000	0	0	-1	1000
26178435	4	105	0	-100	0	230	101300000	1000	0	0	-1	1000
26190995	4	98	0	-100	0	230	101300000	1000	0	0	-1	1000
26203555	12	101	0	-100	0	230	101300000	1000	0	0	-1	1000
26216115	2	99	0	-100	0	230	101300000	1000	0	0	-1	1000
26228675	2	104	0	-100	0	230	101300000	1000	0	0	-1	1000
26241235	7	100	0	-100	0	230	101300000	1000	0	0	-1	1000
26253795	7	100	0	-100	0	230	101300000	1000	0	0	-1	1000
26266355	4	96	0	-100	0	230	101300000	1000	0	0	-1	1000
26278915	4	104	0	-100	0	230	101300000	1000	0	0	-1	1000
26291475	4	102	0	-100	0	230	101300000	1000	0	0	-1	1000
26304035	9	100	0	-100	0	230	101300000	1000	0	0	-1	1000
26316595	4	97	0	-100	0	230	101300000	1000	0	0	-1	1000
26329155	0	98	0	-100	0	230	101300000	1000	0	0	-1	1000
26341715	2	106	0	-100	0	230	101300000	1000	0	0	-1	1000
26354275	9	104	0	-100	0	230	101300000	1000	0	0	-1	1000
26366835	12	100	0	-100	0	230	101300000	1000	0	0	-1	1000
26379395	4	101	0	-100	0	230	101300000	1000	0	0	-1	1000
26391955	2	107	0	-100	0	230	101300000	1000	0	0	-1	1000
26404515	9	101	0	-100	0	230	101300000	1000	0	0	-1	1000
26417075	9	99	0	-100	0	230	101300000	1000	0	0	-1	1000
26429635	0	101	0	-100	0	230	101300000	1000	0	0	-1	1000
26442195	2	107	0	-100	0	230	101300000	1000	0	0	-1	1000
26454755	9	99	0	-100	0	230	101300000	1000	0	0	-1	1000
26467315	2	100	0	-100	0	230	101300000	1000	0	0	-1	1000
26479875	4	104	0	-100	0	230	101300000	1000	0	0	-1	1000
26492435	4	103	0	-100	0	230	101300000	1000	0	0	-1	1000
26504995	9	100	0	-100	0	230	101300000	1000	0	0	-1	1000
26517555	4	99	0	-100	0	230	101300000	1000	0	0	-1	1000
26530115	4	103	0	-100	0	230	101300000	1000	0	0	-1	1000
26542675	4	105	0	-100	0	230	101300000	1000	0	0	-1	1000
26555235	9	99	0	-100	0	230	101300000	1000	0	0	-1	1000
26567795	0	104	0	-100	0	230	101300000	1000	0	0	-1	1000
26580355	2	105	0	-100	0	230	101300000	1000	0	0	-1	1000
26592915	9	99	0	-100	0	230	101300000	1000	0	0	-1	1000
26605475	7	99	0	-100	0	230	101300000	1000	0	0	-1	1000
26618035	0	100	0	-100	0	230	101300000	1000	0	0	-1	1000
26630595	9	102	0	-100	0	230	101300000	1000	0	0	-1	1000
26643155	2	97	0	-100	0	230	101300000	1000	0	0	-1	1000
26655715	2	107	0	-100	0	230	101300000	1000	0	0	-1	1000
26668275	12	99	0	-100	0	230	101300000	1000	0	0	-1	1000
26680835	2	104	0	-100	0	230	101300000	1000	0	0	-1	1000
26693395	7	99	0	-100	0	230	101300000	1000	0	0	-1	1000
26705955	7	102	0	-100	0	230	101300000	1000	0	0	-1	1000
26718515	7	103	0	-100	0	230	101300000	1000	0	0	-1	1000
26731075	9	100	0	-100	0	230	101300000	1000	0	0	-1	1000
26743635	4	104	0	-100	0	230	101300000	1000	0	0	-1	1000
26756195	7	99	0	-100	0	230	101300000	1000	0	0	-1	1000
26768755	7	99	0	-100	0	230	101300000	1000	0	0	-1	1000
26781315	2	105	0	-100	0	230	101300000	1000	0	0	-1	1000
26793875	4	104	0	-100	0	230	101300000	1000	0	0	-1	1000
26806435	9	99	0	-100	0	230	101300000	1000	0	0	-1	1000
26818995	2	104	0	-100	0	230	101300000	1000	0	0	-1	1000
26831555	9	103	0	-100	0	230	101300000	1000	0	0	-1	1000
26844115	4	96	0	-100	0	230	101300000	1000	0	0	-1	1000
26856675	2	107	0	-100	0	230	101300000	1000	0	0	-1	1000
26869235	9	100	0	-100	0	230	101300000	1000	0	0	-1	1000
26881795	2	99	0	-100	0	230	101300000	1000	0	0	-1	1000
26894355	2	106	0	-100	0	230	101300000	1000	0	0	-1	1000
26906915	9	98	0	-100	0	230	101300000	1000	0	0	-1	1000
26919475	2	102	0	-100	0	230	101300000	1000	0	0	-1	1000
26932035	7	100	0	-100	0	230	101300000	1000	0	0	-1	1000
26944595	7	100	0	-100	0	230	101300000	1000	0	0	-1	1000
26957155	0	98	0	-100	0	230	101300000	1000	0	0	-1	1000
26969715	4	105	0	-100	0	230	101300000	1000	0	0	-1	1000
26982275	12	100	0	-100	0	230	101300000	1000	0	0	-1	1000
26994835	12	99	0	-100	0	230	101300000	1000	0	0	-1	1000
27007395	2	99	0	-100	0	230	101300000	1000	0	0	-1	1000
27019955	2	101	0	-100	0	230	101300000	1000	0	0	-1	1000
27032515	4	106	0	-100	0	230	101300000	1000	0	0	-1	1000
27045075	4	104	0	-100	0	230	101300000	1000	0	0	-1	1000
