timestamp	voltage	current	windSpeed	pitchAngle	rpm	temperature	ambientPressure	humidity	accelerationX	accelerationY	accelerationZ	currentSink
7036070	2001	1	0	-100	0	230	101300000	1000	0	0	-1	0
7043523	2005	1	0	-100	0	230	101300000	1000	0	0	-1	0
7056083	2011	0	0	-100	0	230	101300000	1000	0	0	-1	0
7068643	2005	2	0	-100	0	230	101300000	1000	0	0	-1	0
7081203	2012	0	0	-100	0	230	101300000	1000	0	0	-1	0
7093763	2007	0	0	-100	0	230	101300000	1000	0	0	-1	0
7106323	2005	2	0	-100	0	230	101300000	1000	0	0	-1	0
7118883	2012	0	0	-100	0	230	101300000	1000	0	0	-1	0
7131443	2002	3	0	-100	0	230	101300000	1000	0	0	-1	0
7144004	2003	3	0	-100	0	230	101300000	1000	0	0	-1	0
7156563	2005	0	0	-100	0	230	101300000	1000	0	0	-1	0
7169123	2005	1	0	-100	0	230	101300000	1000	0	0	-1	0
7181683	2011	0	0	-100	0	230	101300000	1000	0	0	-1	0
7194243	2004	0	0	-100	0	230	101300000	1000	0	0	-1	0
7206803	2007	0	0	-100	0	230	101300000	1000	0	0	-1	0
7219363	2007	0	0	-100	0	230	101300000	1000	0	0	-1	0
7231923	2007	0	0	-100	0	230	101300000	1000	0	0	-1	0
7244483	2009	0	0	-100	0	230	101300000	1000	0	0	-1	0
7257043	2005	2	0	-100	0	230	101300000	1000	0	0	-1	0
7269603	2008	0	0	-100	0	230	101300000	1000	0	0	-1	0
7282163	2007	4	0	-100	0	230	101300000	1000	0	0	-1	0
7294723	2012	0	0	-100	0	230	101300000	1000	0	0	-1	0
7307283	2003	0	0	-100	0	230	101300000	1000	0	0	-1	0
7319843	2008	0	0	-100	0	230	101300000	1000	0	0	-1	0
7332403	2009	0	0	-100	0	230	101300000	1000	0	0	-1	0
7344963	2007	4	0	-100	0	230	101300000	1000	0	0	-1	0
7700675	0	8	0	-100	0	230	101300000	1000	0	0	-1	1000
7713235	0	13	0	-100	0	230	101300000	1000	0	0	-1	1000
7725795	0	8	0	-100	0	230	101300000	1000	0	0	-1	1000
7738355	0	15	0	-100	0	230	101300000	1000	0	0	-1	1000
7750915	0	8	0	-100	0	230	101300000	1000	0	0	-1	1000
7763475	2	8	0	-100	0	230	101300000	1000	0	0	-1	1000
7776035	0	7	0	-100	0	230	101300000	1000	0	0	-1	1000
7788595	0	12	0	-100	0	230	101300000	1000	0	0	-1	1000
7801155	0	7	0	-100	0	230	101300000	1000	0	0	-1	1000
7813715	2	7	0	-100	0	230	101300000	1000	0	0	-1	1000
7826275	0	8	0	-100	0	230	101300000	1000	0	0	-1	1000
7838835	2	7	0	-100	0	230	101300000	1000	0	0	-1	1000
7851395	0	8	0	-100	0	230	101300000	1000	0	0	-1	1000
7863955	0	13	0	-100	0	230	101300000	1000	0	0	-1	1000
7876515	0	8	0	-100	0	230	101300000	1000	0	0	-1	1000
7889075	0	15	0	-100	0	230	101300000	1000	0	0	-1	1000
7901635	0	5	0	-100	0	230	101300000	1000	0	0	-1	1000
7914195	0	10	0	-100	0	230	101300000	1000	0	0	-1	1000
7926755	0	8	0	-100	0	230	101300000	1000	0	0	-1	1000
7939315	0	8	0	-100	0	230	101300000	1000	0	0	-1	1000
7951875	0	11	0	-100	0	230	101300000	1000	0	0	-1	1000
7964435	0	8	0	-100	0	230	101300000	1000	0	0	-1	1000
7976995	0	8	0	-100	0	230	101300000	1000	0	0	-1	1000
7989555	0	6	0	-100	0	230	101300000	1000	0	0	-1	1000
8002115	0	15	0	-100	0	230	101300000	1000	0	0	-1	1000
8014675	0	8	0	-100	0	230	101300000	1000	0	0	-1	1000
8027235	0	13	0	-100	0	230	101300000	1000	0	0	-1	1000
8039795	0	7	0	-100	0	230	101300000	1000	0	0	-1	1000
8052355	0	8	0	-100	0	230	101300000	1000	0	0	-1	1000
8064915	0	10	0	-100	0	230	101300000	1000	0	0	-1	1000
8077475	0	7	0	-100	0	230	101300000	1000	0	0	-1	1000
8090035	0	15	0	-100	0	230	101300000	1000	0	0	-1	1000
8102595	0	8	0	-100	0	230	101300000	1000	0	0	-1	1000
8115155	0	11	0	-100	0	230	101300000	1000	0	0	-1	1000
8127715	0	6	0	-100	0	230	101300000	1000	0	0	-1	1000
8140275	0	8	0	-100	0	230	101300000	1000	0	0	-1	1000
8152835	0	10	0	-100	0	230	101300000	1000	0	0	-1	1000
8165395	0	8	0	-100	0	230	101300000	1000	0	0	-1	1000
8177955	0	8	0	-100	0	230	101300000	1000	0	0	-1	1000
8190515	0	8	0	-100	0	230	101300000	1000	0	0	-1	1000
8203075	0	8	0	-100	0	230	101300000	1000	0	0	-1	1000
8215635	0	7	0	-100	0	230	101300000	1000	0	0	-1	1000
8228195	0	9	0	-100	0	230	101300000	1000	0	0	-1	1000
8240755	0	10	0	-100	0	230	101300000	1000	0	0	-1	1000
8253315	0	7	0	-100	0	230	101300000	1000	0	0	-1	1000
8265875	0	12	0	-100	0	230	101300000	1000	0	0	-1	1000
8278435	0	8	0	-100	0	230	101300000	1000	0	0	-1	1000
8290995	0	9	0	-100	0	230	101300000	1000	0	0	-1	1000
8303555	0	8	0	-100	0	230	101300000	1000	0	0	-1	1000
8316115	0	8	0	-100	0	230	101300000	1000	0	0	-1	1000
8328675	0	9	0	-100	0	230	101300000	1000	0	0	-1	1000
8341235	0	5	0	-100	0	230	101300000	1000	0	0	-1	1000
8353795	0	16	0	-100	0	230	101300000	1000	0	0	-1	1000
8366355	0	7	0	-100	0	230	101300000	1000	0	0	-1	1000
8378915	0	13	0	-100	0	230	101300000	1000	0	0	-1	1000
8391475	0	6	0	-100	0	230	101300000	1000	0	0	-1	1000
8404035	0	8	0	-100	0	230	101300000	1000	0	0	-1	1000
8416595	0	9	0	-100	0	230	101300000	1000	0	0	-1	1000
8429155	0	7	0	-100	0	230	101300000	1000	0	0	-1	1000
8441715	0	11	0	-100	0	230	101300000	1000	0	0	-1	1000
8454275	0	6	0	-100	0	230	101300000	1000	0	0	-1	1000
8466835	0	8	0	-100	0	230	101300000	1000	0	0	-1	1000
8479395	0	7	0	-100	0	230	101300000	1000	0	0	-1	1000
8491955	0	8	0	-100	0	230	101300000	1000	0	0	-1	1000
8504515	0	10	0	-100	0	230	101300000	1000	0	0	-1	1000
8517075	0	6	0	-100	0	230	101300000	1000	0	0	-1	1000
8529635	0	13	0	-100	0	230	101300000	1000	0	0	-1	1000
8542195	0	4	0	-100	0	230	101300000	1000	0	0	-1	1000
8554755	0	8	0	-100	0	230	101300000	1000	0	0	-1	1000
8567315	0	8	0	-100	0	230	101300000	1000	0	0	-1	1000
8579875	0	16	0	-100	0	230	101300000	1000	0	0	-1	1000
8592435	0	6	0	-100	0	230	101300000	1000	0	0	-1	1000
8604995	0	4	0	-100	0	230	101300000	1000	0	0	-1	1000
8617555	0	12	0	-100	0	230	101300000	1000	0	0	-1	1000
8630115	0	7	0	-100	0	230	101300000	1000	0	0	-1	1000
8642675	0	15	0	-100	0	230	101300000	1000	0	0	-1	1000
8655235	0	8	0	-100	0	230	101300000	1000	0	0	-1	1000
8667795	0	8	0	-100	0	230	101300000	1000	0	0	-1	1000
8680355	0	11	0	-100	0	230	101300000	1000	0	0	-1	1000
8692915	0	7	0	-100	0	230	101300000	1000	0	0	-1	1000
8705475	0	14	0	-100	0	230	101300000	1000	0	0	-1	1000
8718035	0	6	0	-100	0	230	101300000	1000	0	0	-1	1000
8730595	0	9	0	-100	0	230	101300000	1000	0	0	-1	1000
8743155	0	11	0	-100	0	230	101300000	1000	0	0	-1	1000
8755715	0	6	0	-100	0	230	101300000	1000	0	0	-1	1000
8768275	0	13	0	-100	0	230	101300000	1000	0	0	-1	1000
8780835	0	8	0	-100	0	230	101300000	1000	0	0	-1	1000
8793395	0	9	0	-100	0	230	101300000	1000	0	0	-1	1000
8805955	0	9	0	-100	0	230	101300000	1000	0	0	-1	1000
8818515	0	6	0	-100	0	230	101300000	1000	0	0	-1	1000
8831075	0	13	0	-100	0	230	101300000	1000	0	0	-1	1000
8843635	0	9	0	-100	0	230	101300000	1000	0	0	-1	1000
8856195	0	14	0	-100	0	230	101300000	1000	0	0	-1	1000
8868755	0	9	0	-100	0	230	101300000	1000	0	0	-1	1000
8881315	0	13	0	-100	0	230	101300000	1000	0	0	-1	1000
8893875	0	7	0	-100	0	230	101300000	1000	0	0	-1	1000
8906435	0	7	0	-100	0	230	101300000	1000	0	0	-1	1000
8918995	2	10	0	-100	0	230	101300000	1000	0	0	-1	1000
8931555	0	8	0	-100	0	230	101300000	1000	0	0	-1	1000
8944115	0	15	0	-100	0	230	101300000	1000	0	0	-1	1000
8956675	0	5	0	-100	0	230	101300000	1000	0	0	-1	1000
8969235	0	12	0	-100	0	230	101300000	1000	0	0	-1	1000
8981795	0	7	0	-100	0	230	101300000	1000	0	0	-1	1000
8994355	0	9	0	-100	0	230	101300000	1000	0	0	-1	1000
9006915	0	9	0	-100	0	230	101300000	1000	0	0	-1	1000
9019475	0	6	0	-100	0	230	101300000	1000	0	0	-1	1000
9032035	0	12	0	-100	0	230	101300000	1000	0	0	-1	1000
9044595	0	8	0	-100	0	230	101300000	1000	0	0	-1	1000
9057155	0	14	0	-100	0	230	101300000	1000	0	0	-1	1000
9069715	0	7	0	-100	0	230	101300000	1000	0	0	-1	1000
9082275	0	12	0	-100	0	230	101300000	1000	0	0	-1	1000
9094835	0	8	0	-100	0	230	101300000	1000	0	0	-1	1000
9107395	0	8	0	-100	0	230	101300000	1000	0	0	-1	1000
9119955	0	11	0	-100	0	230	101300000	1000	0	0	-1	1000
9132515	0	7	0	-100	0	230	101300000	1000	0	0	-1	1000
9145075	0	13	0	-100	0	230	101300000	1000	0	0	-1	1000
9157635	0	6	0	-100	0	230	101300000	1000	0	0	-1	1000
9170195	0	10	0	-100	0	230	101300000	1000	0	0	-1	1000
9182755	0	9	0	-100	0	230	101300000	1000	0	0	-1	1000
9195315	0	7	0	-100	0	230	101300000	1000	0	0	-1	1000
9207875	0	12	0	-100	0	230	101300000	1000	0	0	-1	1000
9220435	0	8	0	-100	0	230	101300000	1000	0	0	-1	1000
9232995	0	8	0	-100	0	230	101300000	1000	0	0	-1	1000
9245555	0	8	0	-100	0	230	101300000	1000	0	0	-1	1000
9258115	0	8	0	-100	0	230	101300000	1000	0	0	-1	1000
9270675	0	11	0	-100	0	230	101300000	1000	0	0	-1	1000
9283235	0	8	0	-100	0	230	101300000	1000	0	0	-1	1000
9295795	0	6	0	-100	0	230	101300000	1000	0	0	-1	1000
9308355	0	14	0	-100	0	230	101300000	1000	0	0	-1	1000
9320915	0	6	0	-100	0	230	101300000	1000	0	0	-1	1000
9333475	0	9	0	-100	0	230	101300000	1000	0	0	-1	1000
9346035	0	11	0	-100	0	230	101300000	1000	0	0	-1	1000
9358595	0	7	0	-100	0	230	101300000	1000	0	0	-1	1000
9371155	0	11	0	-100	0	230	101300000	1000	0	0	-1	1000
9383715	0	6	0	-100	0	230	101300000	1000	0	0	-1	1000
9396275	0	11	0	-100	0	230	101300000	1000	0	0	-1	1000
9408835	0	7	0	-100	0	230	101300000	1000	0	0	-1	1000
9421395	0	12	0	-100	0	230	101300000	1000	0	0	-1	1000
9433955	0	6	0	-100	0	230	101300000	1000	0	0	-1	1000
9446515	0	14	0	-100	0	230	101300000	1000	0	0	-1	1000
9459075	0	7	0	-100	0	230	101300000	1000	0	0	-1	1000
9471635	0	8	0	-100	0	230	101300000	1000	0	0	-1	1000
9484195	0	13	0	-100	0	230	101300000	1000	0	0	-1	1000
9496755	0	9	0	-100	0	230	101300000	1000	0	0	-1	1000
9509315	0	8	0	-100	0	230	101300000	1000	0	0	-1	1000
9521875	0	14	0	-100	0	230	101300000	1000	0	0	-1	1000
9534435	0	8	0	-100	0	230	101300000	1000	0	0	-1	1000
9546995	0	11	0	-100	0	230	101300000	1000	0	0	-1	1000
9559555	0	9	0	-100	0	230	101300000	1000	0	0	-1	1000
9572115	0	8	0	-100	0	230	101300000	1000	0	0	-1	1000
9584675	0	8	0	-100	0	230	101300000	1000	0	0	-1	1000
9597235	0	12	0	-100	0	230	101300000	1000	0	0	-1	1000
9609795	0	8	0	-100	0	230	101300000	1000	0	0	-1	1000
9622355	0	15	0	-100	0	230	101300000	1000	0	0	-1	1000
9634915	0	8	0	-100	0	230	101300000	1000	0	0	-1	1000
9647475	0	8	0	-100	0	230	101300000	1000	0	0	-1	1000
9660035	2	5	0	-100	0	230	101300000	1000	0	0	-1	1000
9672595	0	7	0	-100	0	230	101300000	1000	0	0	-1	1000
9685155	0	13	0	-100	0	230	101300000	1000	0	0	-1	1000
9697715	0	7	0	-100	0	230	101300000	1000	0	0	-1	1000
9710275	0	6	0	-100	0	230	101300000	1000	0	0	-1	1000
9722835	2	8	0	-100	0	230	101300000	1000	0	0	-1	1000
9735395	0	7	0	-100	0	230	101300000	1000	0	0	-1	1000
9747955	0	9	0	-100	0	230	101300000	1000	0	0	-1	1000
9760515	0	10	0	-100	0	230	101300000	1000	0	0	-1	1000
9773075	0	7	0	-100	0	230	101300000	1000	0	0	-1	1000
9785635	0	13	0	-100	0	230	101300000	1000	0	0	-1	1000
9798195	0	9	0	-100	0	230	101300000	1000	0	0	-1	1000
9810755	0	12	0	-100	0	230	101300000	1000	0	0	-1	1000
9823315	0	8	0	-100	0	230	101300000	1000	0	0	-1	1000
9835875	0	8	0	-100	0	230	101300000	1000	0	0	-1	1000
9848435	0	16	0	-100	0	230	101300000	1000	0	0	-1	1000
9860995	0	11	0	-100	0	230	101300000	1000	0	0	-1	1000
9873555	0	7	0	-100	0	230	101300000	1000	0	0	-1	1000
9886115	0	14	0	-100	0	230	101300000	1000	0	0	-1	1000
9898675	0	8	0	-100	0	230	101300000	1000	0	0	-1	1000
9911235	0	15	0	-100	0	230	101300000	1000	0	0	-1	1000
9923795	0	8	0	-100	0	230	101300000	1000	0	0	-1	1000
9936355	0	8	0	-100	0	230	101300000	1000	0	0	-1	1000
9948915	0	12	0	-100	0	230	101300000	1000	0	0	-1	1000
9961475	0	9	0	-100	0	230	101300000	1000	0	0	-1	1000
9974035	0	9	0	-100	0	230	101300000	1000	0	0	-1	1000
9986595	0	11	0	-100	0	230	101300000	1000	0	0	-1	1000
9999155	0	7	0	-100	0	230	101300000	1000	0	0	-1	1000
10011715	0	10	0	-100	0	230	101300000	1000	0	0	-1	1000
10024275	0	12	0	-100	0	230	101300000	1000	0	0	-1	1000
10036835	0	8	0	-100	0	230	101300000	1000	0	0	-1	1000
10049395	0	8	0	-100	0	230	101300000	1000	0	0	-1	1000
10061955	0	8	0	-100	0	230	101300000	1000	0	0	-1	1000
10074515	0	14	0	-100	0	230	101300000	1000	0	0	-1	1000
10087075	0	8	0	-100	0	230	101300000	1000	0	0	-1	1000
10099635	0	8	0	-100	0	230	101300000	1000	0	0	-1	1000
10112195	2	6	0	-100	0	230	101300000	1000	0	0	-1	1000
10124755	0	6	0	-100	0	230	101300000	1000	0	0	-1	1000
10137315	0	15	0	-100	0	230	101300000	1000	0	0	-1	1000
10149875	0	11	0	-100	0	230	101300000	1000	0	0	-1	1000
10162435	0	8	0	-100	0	230	101300000	1000	0	0	-1	1000
10174995	0	7	0	-100	0	230	101300000	1000	0	0	-1	1000
10187555	0	7	0	-100	0	230	101300000	1000	0	0	-1	1000
10200115	0	9	0	-100	0	230	101300000	1000	0	0	-1	1000
10212675	0	8	0	-100	0	230	101300000	1000	0	0	-1	1000
10225235	0	8	0	-100	0	230	101300000	1000	0	0	-1	1000
10237795	2	7	0	-100	0	230	101300000	1000	0	0	-1	1000
10250355	0	6	0	-100	0	230	101300000	1000	0	0	-1	1000
10262915	0	10	0	-100	0	230	101300000	1000	0	0	-1	1000
10275475	0	12	0	-100	0	230	101300000	1000	0	0	-1	1000
10288035	0	4	0	-100	0	230	101300000	1000	0	0	-1	1000
10300595	0	6	0	-100	0	230	101300000	1000	0	0	-1	1000
10313155	0	15	0	-100	0	230	101300000	1000	0	0	-1	1000
10325715	0	8	0	-100	0	230	101300000	1000	0	0	-1	1000
10338275	0	7	0	-100	0	230	101300000	1000	0	0	-1	1000
10350835	0	15	0	-100	0	230	101300000	1000	0	0	-1	1000
10363395	0	10	0	-100	0	230	101300000	1000	0	0	-1	1000
10375955	0	6	0	-100	0	230	101300000	1000	0	0	-1	1000
10388515	0	8	0	-100	0	230	101300000	1000	0	0	-1	1000
10401075	0	9	0	-100	0	230	101300000	1000	0	0	-1	1000
10413635	2	6	0	-100	0	230	101300000	1000	0	0	-1	1000
10426195	0	8	0	-100	0	230	101300000	1000	0	0	-1	1000
10438755	0	7	0	-100	0	230	101300000	1000	0	0	-1	1000
10451315	0	16	0	-100	0	230	101300000	1000	0	0	-1	1000
10463875	0	8	0	-100	0	230	101300000	1000	0	0	-1	1000
10476435	0	6	0	-100	0	230	101300000	1000	0	0	-1	1000
10488995	0	6	0	-100	0	230	101300000	1000	0	0	-1	1000
10501555	2	8	0	-100	0	230	101300000	1000	0	0	-1	1000
10514115	0	5	0	-100	0	230	101300000	1000	0	0	-1	1000
10526675	0	9	0	-100	0	230	101300000	1000	0	0	-1	1000
10539235	0	12	0	-100	0	230	101300000	1000	0	0	-1	1000
10551795	0	8	0	-100	0	230	101300000	1000	0	0	-1	1000
10564355	0	9	0	-100	0	230	101300000	1000	0	0	-1	1000
10576915	0	12	0	-100	0	230	101300000	1000	0	0	-1	1000
10589475	0	8	0	-100	0	230	101300000	1000	0	0	-1	1000
10602035	0	8	0	-100	0	230	101300000	1000	0	0	-1	1000
10614595	0	12	0	-100	0	230	101300000	1000	0	0	-1	1000
10627155	0	4	0	-100	0	230	101300000	1000	0	0	-1	1000
10639715	0	7	0	-100	0	230	101300000	1000	0	0	-1	1000
10652275	0	14	0	-100	0	230	101300000	1000	0	0	-1	1000
10664835	0	5	0	-100	0	230	101300000	1000	0	0	-1	1000
10677395	0	10	0	-100	0	230	101300000	1000	0	0	-1	1000
10689955	0	11	0	-100	0	230	101300000	1000	0	0	-1	1000
10702515	0	7	0	-100	0	230	101300000	1000	0	0	-1	1000
10715075	0	13	0	-100	0	230	101300000	1000	0	0	-1	1000
10727635	0	7	0	-100	0	230	101300000	1000	0	0	-1	1000
10740195	0	8	0	-100	0	230	101300000	1000	0	0	-1	1000
10752755	0	12	0	-100	0	230	101300000	1000	0	0	-1	1000
10765315	0	7	0	-100	0	230	101300000	1000	0	0	-1	1000
10777875	0	8	0	-100	0	230	101300000	1000	0	0	-1	1000
10790435	2	6	0	-100	0	230	101300000	1000	0	0	-1	1000
10802995	0	12	0	-100	0	230	101300000	1000	0	0	-1	1000
10815555	0	7	0	-100	0	230	101300000	1000	0	0	-1	1000
10828115	0	14	0	-100	0	230	101300000	1000	0	0	-1	1000
10840675	0	8	0	-100	0	230	101300000	1000	0	0	-1	1000
10853235	0	7	0	-100	0	230	101300000	1000	0	0	-1	1000
10865795	0	13	0	-100	0	230	101300000	1000	0	0	-1	1000
10878355	0	5	0	-100	0	230	101300000	1000	0	0	-1	1000
10890915	0	9	0	-100	0	230	101300000	1000	0	0	-1	1000
10903475	0	12	0	-100	0	230	101300000	1000	0	0	-1	1000
10916035	0	6	0	-100	0	230	101300000	1000	0	0	-1	1000
10928595	0	13	0	-100	0	230	101300000	1000	0	0	-1	1000
10941155	0	5	0	-100	0	230	101300000	1000	0	0	-1	1000
10953715	0	9	0	-100	0	230	101300000	1000	0	0	-1	1000
10966275	0	12	0	-100	0	230	101300000	1000	0	0	-1	1000
10978835	0	9	0	-100	0	230	101300000	1000	0	0	-1	1000
10991395	0	12	0	-100	0	230	101300000	1000	0	0	-1	1000
11003955	0	9	0	-100	0	230	101300000	1000	0	0	-1	1000
11016515	0	8	0	-100	0	230	101300000	1000	0	0	-1	1000
11029075	0	15	0	-100	0	230	101300000	1000	0	0	-1	1000
11041635	0	9	0	-100	0	230	101300000	1000	0	0	-1	1000
11054195	0	7	0	-100	0	230	101300000	1000	0	0	-1	1000
11066755	0	11	0	-100	0	230	101300000	1000	0	0	-1	1000
11079315	0	9	0	-100	0	230	101300000	1000	0	0	-1	1000
11091875	0	6	0	-100	0	230	101300000	1000	0	0	-1	1000
11104435	0	9	0	-100	0	230	101300000	1000	0	0	-1	1000
11116995	0	8	0	-100	0	230	101300000	1000	0	0	-1	1000
11129555	0	8	0	-100	0	230	101300000	1000	0	0	-1	1000
11142115	0	8	0	-100	0	230	101300000	1000	0	0	-1	1000
11154675	0	13	0	-100	0	230	101300000	1000	0	0	-1	1000
11167235	0	7	0	-100	0	230	101300000	1000	0	0	-1	1000
11179795	0	7	0	-100	0	230	101300000	1000	0	0	-1	1000
11192355	2	7	0	-100	0	230	101300000	1000	0	0	-1	1000
11204915	0	7	0	-100	0	230	101300000	1000	0	0	-1	1000
11217475	0	15	0	-100	0	230	101300000	1000	0	0	-1	1000
11230035	0	8	0	-100	0	230	101300000	1000	0	0	-1	1000
11242595	0	7	0	-100	0	230	101300000	1000	0	0	-1	1000
11255155	0	12	0	-100	0	230	101300000	1000	0	0	-1	1000
11267715	0	9	0	-100	0	230	101300000	1000	0	0	-1	1000
11280275	0	6	0	-100	0	230	101300000	1000	0	0	-1	1000
11292835	0	14	0	-100	0	230	101300000	1000	0	0	-1	1000
11305395	0	8	0	-100	0	230	101300000	1000	0	0	-1	1000
11317955	0	6	0	-100	0	230	101300000	1000	0	0	-1	1000
11330515	0	15	0	-100	0	230	101300000	1000	0	0	-1	1000
11343075	0	5	0	-100	0	230	101300000	1000	0	0	-1	1000
11355635	0	11	0	-100	0	230	101300000	1000	0	0	-1	1000
11368195	0	7	0	-100	0	230	101300000	1000	0	0	-1	1000
11380755	0	10	0	-100	0	230	101300000	1000	0	0	-1	1000
11393315	0	8	0	-100	0	230	101300000	1000	0	0	-1	1000
11405875	0	9	0	-100	0	230	101300000	1000	0	0	-1	1000
11418435	0	10	0	-100	0	230	101300000	1000	0	0	-1	1000
11430995	0	12	0	-100	0	230	101300000	1000	0	0	-1	1000
11443555	0	13	0	-100	0	230	101300000	1000	0	0	-1	1000
11456115	0	8	0	-100	0	230	101300000	1000	0	0	-1	1000
11468675	0	10	0	-100	0	230	101300000	1000	0	0	-1	1000
11481235	0	9	0	-100	0	230	101300000	1000	0	0	-1	1000
11493795	0	7	0	-100	0	230	101300000	1000	0	0	-1	1000
11506355	0	12	0	-100	0	230	101300000	1000	0	0	-1	1000
11518915	0	6	0	-100	0	230	101300000	1000	0	0	-1	1000
11531475	0	14	0	-100	0	230	101300000	1000	0	0	-1	1000
11544035	0	8	0	-100	0	230	101300000	1000	0	0	-1	1000
11556595	0	14	0	-100	0	230	101300000	1000	0	0	-1	1000
11569155	0	6	0	-100	0	230	101300000	1000	0	0	-1	1000
11581715	0	10	0	-100	0	230	101300000	1000	0	0	-1	1000
11594275	0	8	0	-100	0	230	101300000	1000	0	0	-1	1000
11606835	0	10	0	-100	0	230	101300000	1000	0	0	-1	1000
11619395	0	7	0	-100	0	230	101300000	1000	0	0	-1	1000
11631955	0	13	0	-100	0	230	101300000	1000	0	0	-1	1000
11644515	0	8	0	-100	0	230	101300000	1000	0	0	-1	1000
11657075	0	13	0	-100	0	230	101300000	1000	0	0	-1	1000
11669635	0	6	0	-100	0	230	101300000	1000	0	0	-1	1000
11682195	0	14	0	-100	0	230	101300000	1000	0	0	-1	1000
11694755	0	8	0	-100	0	230	101300000	1000	0	0	-1	1000
11707315	0	14	0	-100	0	230	101300000	1000	0	0	-1	1000
11719875	0	5	0	-100	0	230	101300000	1000	0	0	-1	1000
11732435	0	8	0	-100	0	230	101300000	1000	0	0	-1	1000
11744995	0	13	0	-100	0	230	101300000	1000	0	0	-1	1000
11757555	0	12	0	-100	0	230	101300000	1000	0	0	-1	1000
11770115	0	8	0	-100	0	230	101300000	1000	0	0	-1	1000
11782675	0	9	0	-100	0	230	101300000	1000	0	0	-1	1000
11795235	0	8	0	-100	0	230	101300000	1000	0	0	-1	1000
11807795	0	10	0	-100	0	230	101300000	1000	0	0	-1	1000
11820355	0	7	0	-100	0	230	101300000	1000	0	0	-1	1000
11832915	0	9	0	-100	0	230	101300000	1000	0	0	-1	1000
11845475	0	5	0	-100	0	230	101300000	1000	0	0	-1	1000
11858035	0	14	0	-100	0	230	101300000	1000	0	0	-1	1000
11870595	0	8	0	-100	0	230	101300000	1000	0	0	-1	1000
11883155	0	12	0	-100	0	230	101300000	1000	0	0	-1	1000
11895715	0	6	0	-100	0	230	101300000	1000	0	0	-1	1000
11908275	0	10	0	-100	0	230	101300000	1000	0	0	-1	1000
11920835	0	8	0	-100	0	230	101300000	1000	0	0	-1	1000
11933395	0	7	0	-100	0	230	101300000	1000	0	0	-1	1000
11945955	0	16	0	-100	0	230	101300000	1000	0	0	-1	1000
11958515	0	9	0	-100	0	230	101300000	1000	0	0	-1	1000
11971075	0	12	0	-100	0	230	101300000	1000	0	0	-1	1000
11983635	0	7	0	-100	0	230	101300000	1000	0	0	-1	1000
11996195	0	7	0	-100	0	230	101300000	1000	0	0	-1	1000
12008755	0	11	0	-100	0	230	101300000	1000	0	0	-1	1000
12021315	0	8	0	-100	0	230	101300000	1000	0	0	-1	1000
12033875	0	16	0	-100	0	230	101300000	1000	0	0	-1	1000
12046435	0	8	0	-100	0	230	101300000	1000	0	0	-1	1000
12058995	0	6	0	-100	0	230	101300000	1000	0	0	-1	1000
12071555	0	6	0	-100	0	230	101300000	1000	0	0	-1	1000
12084115	0	10	0	-100	0	230	101300000	1000	0	0	-1	1000
12096675	0	9	0	-100	0	230	101300000	1000	0	0	-1	1000
12109235	0	9	0	-100	0	230	101300000	1000	0	0	-1	1000
12121795	2	7	0	-100	0	230	101300000	1000	0	0	-1	1000
12134355	0	7	0	-100	0	230	101300000	1000	0	0	-1	1000
12146915	2	8	0	-100	0	230	101300000	1000	0	0	-1	1000
12159475	0	9	0	-100	0	230	101300000	1000	0	0	-1	1000
12172035	0	14	0	-100	0	230	101300000	1000	0	0	-1	1000
12184595	0	9	0	-100	0	230	101300000	1000	0	0	-1	1000
12197155	0	15	0	-100	0	230	101300000	1000	0	0	-1	1000
12209715	0	8	0	-100	0	230	101300000	1000	0	0	-1	1000
12222275	0	8	0	-100	0	230	101300000	1000	0	0	-1	1000
12234835	0	9	0	-100	0	230	101300000	1000	0	0	-1	1000
12247395	0	11	0	-100	0	230	101300000	1000	0	0	-1	1000
12259955	0	8	0	-100	0	230	101300000	1000	0	0	-1	1000
12272515	0	9	0	-100	0	230	101300000	1000	0	0	-1	1000
12285075	0	8	0	-100	0	230	101300000	1000	0	0	-1	1000
12297635	0	8	0	-100	0	230	101300000	1000	0	0	-1	1000
12310195	0	11	0	-100	0	230	101300000	1000	0	0	-1	1000
12322755	0	8	0	-100	0	230	101300000	1000	0	0	-1	1000
12335315	2	6	0	-100	0	230	101300000	1000	0	0	-1	1000
12347875	0	8	0	-100	0	230	101300000	1000	0	0	-1	1000
12360435	0	14	0	-100	0	230	101300000	1000	0	0	-1	1000
12372995	0	15	0	-100	0	230	101300000	1000	0	0	-1	1000
12385555	0	8	0	-100	0	230	101300000	1000	0	0	-1	1000
12398115	0	8	0	-100	0	230	101300000	1000	0	0	-1	1000
12410675	0	6	0	-100	0	230	101300000	1000	0	0	-1	1000
12423235	0	12	0	-100	0	230	101300000	1000	0	0	-1	1000
12435795	0	8	0	-100	0	230	101300000	1000	0	0	-1	1000
12448355	0	8	0	-100	0	230	101300000	1000	0	0	-1	1000
12460915	0	9	0	-100	0	230	101300000	1000	0	0	-1	1000
12473475	0	5	0	-100	0	230	101300000	1000	0	0	-1	1000
12486035	0	13	0	-100	0	230	101300000	1000	0	0	-1	1000
12498595	0	6	0	-100	0	230	101300000	1000	0	0	-1	1000
12511155	0	8	0	-100	0	230	101300000	1000	0	0	-1	1000
12523715	0	12	0	-100	0	230	101300000	1000	0	0	-1	1000
12536275	0	4	0	-100	0	230	101300000	1000	0	0	-1	1000
12548835	0	15	0	-100	0	230	101300000	1000	0	0	-1	1000
12561395	0	8	0	-100	0	230	101300000	1000	0	0	-1	1000
12573955	2	8	0	-100	0	230	101300000	1000	0	0	-1	1000
12586515	0	7	0	-100	0	230	101300000	1000	0	0	-1	1000
12599075	0	10	0	-100	0	230	101300000	1000	0	0	-1	1000
12611635	0	6	0	-100	0	230	101300000	1000	0	0	-1	1000
12624195	0	12	0	-100	0	230	101300000	1000	0	0	-1	1000
12636755	0	9	0	-100	0	230	101300000	1000	0	0	-1	1000
12649315	0	8	0	-100	0	230	101300000	1000	0	0	-1	1000
12661875	0	10	0	-100	0	230	101300000	1000	0	0	-1	1000
12674435	0	9	0	-100	0	230	101300000	1000	0	0	-1	1000
12686995	0	8	0	-100	0	230	101300000	1000	0	0	-1	1000
12699555	0	10	0	-100	0	230	101300000	1000	0	0	-1	1000
12712115	0	8	0	-100	0	230	101300000	1000	0	0	-1	1000
12724675	0	9	0	-100	0	230	101300000	1000	0	0	-1	1000
12737235	0	8	0	-100	0	230	101300000	1000	0	0	-1	1000
12749795	0	4	0	-100	0	230	101300000	1000	0	0	-1	1000
12762355	0	13	0	-100	0	230	101300000	1000	0	0	-1	1000
12774915	0	6	0	-100	0	230	101300000	1000	0	0	-1	1000
12787475	0	12	0	-100	0	230	101300000	1000	0	0	-1	1000
12800035	0	8	0	-100	0	230	101300000	1000	0	0	-1	1000
12812595	0	6	0	-100	0	230	101300000	1000	0	0	-1	1000
12825155	0	13	0	-100	0	230	101300000	1000	0	0	-1	1000
12837715	0	7	0	-100	0	230	101300000	1000	0	0	-1	1000
12850275	0	11	0	-100	0	230	101300000	1000	0	0	-1	1000
12862835	0	8	0	-100	0	230	101300000	1000	0	0	-1	1000
12875395	0	9	0	-100	0	230	101300000	1000	0	0	-1	1000
12887955	0	12	0	-100	0	230	101300000	1000	0	0	-1	1000
12900515	0	7	0	-100	0	230	101300000	1000	0	0	-1	1000
12913075	0	11	0	-100	0	230	101300000	1000	0	0	-1	1000
12925635	0	8	0	-100	0	230	101300000	1000	0	0	-1	1000
12938195	0	6	0	-100	0	230	101300000	1000	0	0	-1	1000
12950755	2	7	0	-100	0	230	101300000	1000	0	0	-1	1000
12963315	0	7	0	-100	0	230	101300000	1000	0	0	-1	1000
12975875	0	10	0	-100	0	230	101300000	1000	0	0	-1	1000
12988435	0	10	0	-100	0	230	101300000	1000	0	0	-1	1000
13000995	0	11	0	-100	0	230	101300000	1000	0	0	-1	1000
13013555	0	11	0	-100	0	230	101300000	1000	0	0	-1	1000
13026115	0	12	0	-100	0	230	101300000	1000	0	0	-1	1000
13038675	0	8	0	-100	0	230	101300000	1000	0	0	-1	1000
13051235	0	16	0	-100	0	230	101300000	1000	0	0	-1	1000
13063795	0	8	0	-100	0	230	101300000	1000	0	0	-1	1000
13076355	0	10	0	-100	0	230	101300000	1000	0	0	-1	1000
13088915	0	8	0	-100	0	230	101300000	1000	0	0	-1	1000
13101475	0	8	0	-100	0	230	101300000	1000	0	0	-1	1000
13114035	0	12	0	-100	0	230	101300000	1000	0	0	-1	1000
13126595	0	8	0	-100	0	230	101300000	1000	0	0	-1	1000
13139155	0	14	0	-100	0	230	101300000	1000	0	0	-1	1000
13151715	0	8	0	-100	0	230	101300000	1000	0	0	-1	1000
13164275	0	7	0	-100	0	230	101300000	1000	0	0	-1	1000
13176835	0	12	0	-100	0	230	101300000	1000	0	0	-1	1000
13189395	0	8	0	-100	0	230	101300000	1000	0	0	-1	1000
13201955	0	9	0	-100	0	230	101300000	1000	0	0	-1	1000
13214515	0	11	0	-100	0	230	101300000	1000	0	0	-1	1000
13227075	0	5	0	-100	0	230	101300000	1000	0	0	-1	1000
13239635	0	8	0	-100	0	230	101300000	1000	0	0	-1	1000
13252195	0	12	0	-100	0	230	101300000	1000	0	0	-1	1000
13264755	0	6	0	-100	0	230	101300000	1000	0	0	-1	1000
13277315	0	9	0	-100	0	230	101300000	1000	0	0	-1	1000
13289875	0	8	0	-100	0	230	101300000	1000	0	0	-1	1000
13302435	0	9	0	-100	0	230	101300000	1000	0	0	-1	1000
13314995	0	12	0	-100	0	230	101300000	1000	0	0	-1	1000
13327555	0	8	0	-100	0	230	101300000	1000	0	0	-1	1000
13340115	0	15	0	-100	0	230	101300000	1000	0	0	-1	1000
13352675	0	4	0	-100	0	230	101300000	1000	0	0	-1	1000
13365235	0	9	0	-100	0	230	101300000	1000	0	0	-1	1000
13377795	0	11	0	-100	0	230	101300000	1000	0	0	-1	1000
13390355	0	7	0	-100	0	230	101300000	1000	0	0	-1	1000
13402915	0	8	0	-100	0	230	101300000	1000	0	0	-1	1000
13415475	2	8	0	-100	0	230	101300000	1000	0	0	-1	1000
13428035	0	8	0	-100	0	230	101300000	1000	0	0	-1	1000
13440595	0	8	0	-100	0	230	101300000	1000	0	0	-1	1000
13453155	0	15	0	-100	0	230	101300000	1000	0	0	-1	1000
13465715	0	7	0	-100	0	230	101300000	1000	0	0	-1	1000
13478275	0	8	0	-100	0	230	101300000	1000	0	0	-1	1000
13490835	0	10	0	-100	0	230	101300000	1000	0	0	-1	1000
13503395	0	6	0	-100	0	230	101300000	1000	0	0	-1	1000
13515955	0	13	0	-100	0	230	101300000	1000	0	0	-1	1000
13528515	0	9	0	-100	0	230	101300000	1000	0	0	-1	1000
13541075	0	13	0	-100	0	230	101300000	1000	0	0	-1	1000
13553635	0	4	0	-100	0	230	101300000	1000	0	0	-1	1000
13566195	0	10	0	-100	0	230	101300000	1000	0	0	-1	1000
13578755	2	8	0	-100	0	230	101300000	1000	0	0	-1	1000
13591315	0	8	0	-100	0	230	101300000	1000	0	0	-1	1000
13603875	2	7	0	-100	0	230	101300000	1000	0	0	-1	1000
13616435	0	8	0	-100	0	230	101300000	1000	0	0	-1	1000
13628995	0	4	0	-100	0	230	101300000	1000	0	0	-1	1000
13641555	0	13	0	-100	0	230	101300000	1000	0	0	-1	1000
13654115	0	8	0	-100	0	230	101300000	1000	0	0	-1	1000
13666675	0	7	0	-100	0	230	101300000	1000	0	0	-1	1000
13679235	0	7	0	-100	0	230	101300000	1000	0	0	-1	1000
13691795	2	9	0	-100	0	230	101300000	1000	0	0	-1	1000
13704355	0	8	0	-100	0	230	101300000	1000	0	0	-1	1000
13716915	0	7	0	-100	0	230	101300000	1000	0	0	-1	1000
13729475	0	12	0	-100	0	230	101300000	1000	0	0	-1	1000
13742035	0	11	0	-100	0	230	101300000	1000	0	0	-1	1000
13754595	0	8	0	-100	0	230	101300000	1000	0	0	-1	1000
13767155	0	9	0	-100	0	230	101300000	1000	0	0	-1	1000
13779715	0	12	0	-100	0	230	101300000	1000	0	0	-1	1000
13792275	0	8	0	-100	0	230	101300000	1000	0	0	-1	1000
13804835	0	8	0	-100	0	230	101300000	1000	0	0	-1	1000
13817395	0	6	0	-100	0	230	101300000	1000	0	0	-1	1000
13829955	0	9	0	-100	0	230	101300000	1000	0	0	-1	1000
13842515	0	13	0	-100	0	230	101300000	1000	0	0	-1	1000
13855075	0	12	0	-100	0	230	101300000	1000	0	0	-1	1000
13867635	0	5	0	-100	0	230	101300000	1000	0	0	-1	1000
13880195	0	6	0	-100	0	230	101300000	1000	0	0	-1	1000
13892755	0	10	0	-100	0	230	101300000	1000	0	0	-1	1000
13905315	0	8	0	-100	0	230	101300000	1000	0	0	-1	1000
13917875	0	8	0	-100	0	230	101300000	1000	0	0	-1	1000
13930435	0	14	0	-100	0	230	101300000	1000	0	0	-1	1000
13942995	0	6	0	-100	0	230	101300000	1000	0	0	-1	1000
13955555	0	8	0	-100	0	230	101300000	1000	0	0	-1	1000
13968115	0	4	0	-100	0	230	101300000	1000	0	0	-1	1000
13980675	0	7	0	-100	0	230	101300000	1000	0	0	-1	1000
13993235	0	7	0	-100	0	230	101300000	1000	0	0	-1	1000
14005795	0	10	0	-100	0	230	101300000	1000	0	0	-1	1000
14018355	4	8	0	-100	0	230	101300000	1000	0	0	-1	1000
14030915	0	10	0	-100	0	230	101300000	1000	0	0	-1	1000
14043475	0	7	0	-100	0	230	101300000	1000	0	0	-1	1000
14056035	0	4	0	-100	0	230	101300000	1000	0	0	-1	1000
14068595	0	8	0	-100	0	230	101300000	1000	0	0	-1	1000
14081155	0	6	0	-100	0	230	101300000	1000	0	0	-1	1000
14093715	0	9	0	-100	0	230	101300000	1000	0	0	-1	1000
14106275	0	15	0	-100	0	230	101300000	1000	0	0	-1	1000
14118835	4	8	0	-100	0	230	101300000	1000	0	0	-1	1000
14131395	0	9	0	-100	0	230	101300000	1000	0	0	-1	1000
14143955	0	6	0	-100	0	230	101300000	1000	0	0	-1	1000
14156515	0	7	0	-100	0	230	101300000	1000	0	0	-1	1000
14169075	0	13	0	-100	0	230	101300000	1000	0	0	-1	1000
14181635	0	8	0	-100	0	230	101300000	1000	0	0	-1	1000
14194195	0	9	0	-100	0	230	101300000	1000	0	0	-1	1000
14206755	0	11	0	-100	0	230	101300000	1000	0	0	-1	1000
14219315	0	11	0	-100	0	230	101300000	1000	0	0	-1	1000
14231875	0	6	0	-100	0	230	101300000	1000	0	0	-1	1000
14244435	0	8	0	-100	0	230	101300000	1000	0	0	-1	1000
14256995	0	6	0	-100	0	230	101300000	1000	0	0	-1	1000
14269555	0	8	0	-100	0	230	101300000	1000	0	0	-1	1000
14282115	0	8	0	-100	0	230	101300000	1000	0	0	-1	1000
14294675	0	9	0	-100	0	230	101300000	1000	0	0	-1	1000
14307235	0	14	0	-100	0	230	101300000	1000	0	0	-1	1000
14319795	0	8	0	-100	0	230	101300000	1000	0	0	-1	1000
14332355	0	5	0	-100	0	230	101300000	1000	0	0	-1	1000
14344915	0	10	0	-100	0	230	101300000	1000	0	0	-1	1000
14357475	2	7	0	-100	0	230	101300000	1000	0	0	-1	1000
14370035	0	8	0	-100	0	230	101300000	1000	0	0	-1	1000
14382595	0	6	0	-100	0	230	101300000	1000	0	0	-1	1000
14395155	0	10	0	-100	0	230	101300000	1000	0	0	-1	1000
14407715	2	6	0	-100	0	230	101300000	1000	0	0	-1	1000
14420275	0	8	0	-100	0	230	101300000	1000	0	0	-1	1000
14432835	0	6	0	-100	0	230	101300000	1000	0	0	-1	1000
14445395	0	10	0	-100	0	230	101300000	1000	0	0	-1	1000
14457955	0	14	0	-100	0	230	101300000	1000	0	0	-1	1000
14470515	2	6	0	-100	0	230	101300000	1000	0	0	-1	1000
14483075	0	7	0	-100	0	230	101300000	1000	0	0	-1	1000
14495635	0	6	0	-100	0	230	101300000	1000	0	0	-1	1000
14508195	0	12	0	-100	0	230	101300000	1000	0	0	-1	1000
14520755	0	12	0	-100	0	230	101300000	1000	0	0	-1	1000
14533315	0	8	0	-100	0	230	101300000	1000	0	0	-1	1000
14545875	0	5	0	-100	0	230	101300000	1000	0	0	-1	1000
14558435	0	7	0	-100	0	230	101300000	1000	0	0	-1	1000
14570995	0	8	0	-100	0	230	101300000	1000	0	0	-1	1000
14583555	0	13	0	-100	0	230	101300000	1000	0	0	-1	1000
14596115	0	7	0	-100	0	230	101300000	1000	0	0	-1	1000
14608675	0	7	0	-100	0	230	101300000	1000	0	0	-1	1000
14621235	0	15	0	-100	0	230	101300000	1000	0	0	-1	1000
14633795	0	9	0	-100	0	230	101300000	1000	0	0	-1	1000
14646355	0	6	0	-100	0	230	101300000	1000	0	0	-1	1000
14658915	0	12	0	-100	0	230	101300000	1000	0	0	-1	1000
14671475	2	7	0	-100	0	230	101300000	1000	0	0	-1	1000
14684035	0	5	0	-100	0	230	101300000	1000	0	0	-1	1000
14696595	0	7	0	-100	0	230	101300000	1000	0	0	-1	1000
14709155	0	8	0	-100	0	230	101300000	1000	0	0	-1	1000
14721715	2	7	0	-100	0	230	101300000	1000	0	0	-1	1000
14734275	0	7	0	-100	0	230	101300000	1000	0	0	-1	1000
14746835	0	8	0	-100	0	230	101300000	1000	0	0	-1	1000
14759395	0	14	0	-100	0	230	101300000	1000	0	0	-1	1000
14771955	2	7	0	-100	0	230	101300000	1000	0	0	-1	1000
14784515	0	7	0	-100	0	230	101300000	1000	0	0	-1	1000
14797075	0	6	0	-100	0	230	101300000	1000	0	0	-1	1000
14809635	0	14	0	-100	0	230	101300000	1000	0	0	-1	1000
14822195	0	12	0	-100	0	230	101300000	1000	0	0	-1	1000
14834755	0	8	0	-100	0	230	101300000	1000	0	0	-1	1000
14847315	0	6	0	-100	0	230	101300000	1000	0	0	-1	1000
14859875	0	13	0	-100	0	230	101300000	1000	0	0	-1	1000
14872435	0	11	0	-100	0	230	101300000	1000	0	0	-1	1000
14884995	0	12	0	-100	0	230	101300000	1000	0	0	-1	1000
14897555	0	6	0	-100	0	230	101300000	1000	0	0	-1	1000
14910115	0	15	0	-100	0	230	101300000	1000	0	0	-1	1000
14922675	0	9	0	-100	0	230	101300000	1000	0	0	-1	1000
14935235	0	7	0	-100	0	230	101300000	1000	0	0	-1	1000
14947795	0	7	0	-100	0	230	101300000	1000	0	0	-1	1000
14960355	0	9	0	-100	0	230	101300000	1000	0	0	-1	1000
14972915	0	12	0	-100	0	230	101300000	1000	0	0	-1	1000
14985475	0	8	0	-100	0	230	101300000	1000	0	0	-1	1000
14998035	0	8	0	-100	0	230	101300000	1000	0	0	-1	1000
15010595	2	8	0	-100	0	230	101300000	1000	0	0	-1	1000
15023155	0	8	0	-100	0	230	101300000	1000	0	0	-1	1000
15035715	0	10	0	-100	0	230	101300000	1000	0	0	-1	1000
15048275	2	6	0	-100	0	230	101300000	1000	0	0	-1	1000
15060835	0	5	0	-100	0	230	101300000	1000	0	0	-1	1000
15073395	0	8	0	-100	0	230	101300000	1000	0	0	-1	1000
15085955	0	15	0	-100	0	230	101300000	1000	0	0	-1	1000
15098515	0	8	0	-100	0	230	101300000	1000	0	0	-1	1000
15111075	0	7	0	-100	0	230	101300000	1000	0	0	-1	1000
15123635	2	6	0	-100	0	230	101300000	1000	0	0	-1	1000
15136195	0	9	0	-100	0	230	101300000	1000	0	0	-1	1000
15148755	0	15	0	-100	0	230	101300000	1000	0	0	-1	1000
15161315	0	7	0	-100	0	230	101300000	1000	0	0	-1	1000
15173875	0	11	0	-100	0	230	101300000	1000	0	0	-1	1000
15186435	0	4	0	-100	0	230	101300000	1000	0	0	-1	1000
15198995	0	6	0	-100	0	230	101300000	1000	0	0	-1	1000
15211555	0	4	0	-100	0	230	101300000	1000	0	0	-1	1000
15224115	0	13	0	-100	0	230	101300000	1000	0	0	-1	1000
15236675	0	5	0	-100	0	230	101300000	1000	0	0	-1	1000
15249235	0	9	0	-100	0	230	101300000	1000	0	0	-1	1000
15261795	0	9	0	-100	0	230	101300000	1000	0	0	-1	1000
15274355	0	9	0	-100	0	230	101300000	1000	0	0	-1	1000
15286915	0	9	0	-100	0	230	101300000	1000	0	0	-1	1000
15299475	0	9	0	-100	0	230	101300000	1000	0	0	-1	1000
15312035	0	8	0	-100	0	230	101300000	1000	0	0	-1	1000
15324595	0	10	0	-100	0	230	101300000	1000	0	0	-1	1000
15337155	0	12	0	-100	0	230	101300000	1000	0	0	-1	1000
15349715	0	6	0	-100	0	230	101300000	1000	0	0	-1	1000
15362275	0	14	0	-100	0	230	101300000	1000	0	0	-1	1000
15374835	0	5	0	-100	0	230	101300000	1000	0	0	-1	1000
15387395	0	10	0	-100	0	230	101300000	1000	0	0	-1	1000
15399955	0	10	0	-100	0	230	101300000	1000	0	0	-1	1000
15412515	0	7	0	-100	0	230	101300000	1000	0	0	-1	1000
15425075	0	13	0	-100	0	230	101300000	1000	0	0	-1	1000
15437635	0	6	0	-100	0	230	101300000	1000	0	0	-1	1000
15450195	0	12	0	-100	0	230	101300000	1000	0	0	-1	1000
15462755	0	7	0	-100	0	230	101300000	1000	0	0	-1	1000
15475315	2	7	0	-100	0	230	101300000	1000	0	0	-1	1000
15487875	0	6	0	-100	0	230	101300000	1000	0	0	-1	1000
15500435	0	12	0	-100	0	230	101300000	1000	0	0	-1	1000
15512995	0	10	0	-100	0	230	101300000	1000	0	0	-1	1000
15525555	0	6	0	-100	0	230	101300000	1000	0	0	-1	1000
15538115	0	10	0	-100	0	230	101300000	1000	0	0	-1	1000
15550675	0	11	0	-100	0	230	101300000	1000	0	0	-1	1000
15563235	0	8	0	-100	0	230	101300000	1000	0	0	-1	1000
15575795	0	15	0	-100	0	230	101300000	1000	0	0	-1	1000
15588355	2	9	0	-100	0	230	101300000	1000	0	0	-1	1000
15600915	0	6	0	-100	0	230	101300000	1000	0	0	-1	1000
15613475	0	14	0	-100	0	230	101300000	1000	0	0	-1	1000
15626035	0	10	0	-100	0	230	101300000	1000	0	0	-1	1000
15638595	0	8	0	-100	0	230	101300000	1000	0	0	-1	1000
15651155	0	8	0	-100	0	230	101300000	1000	0	0	-1	1000
15663715	2	7	0	-100	0	230	101300000	1000	0	0	-1	1000
15676275	0	5	0	-100	0	230	101300000	1000	0	0	-1	1000
15688835	0	9	0	-100	0	230	101300000	1000	0	0	-1	1000
15701395	2	7	0	-100	0	230	101300000	1000	0	0	-1	1000
15713955	0	5	0	-100	0	230	101300000	1000	0	0	-1	1000
15726515	0	8	0	-100	0	230	101300000	1000	0	0	-1	1000
15739075	2	6	0	-100	0	230	101300000	1000	0	0	-1	1000
15751635	0	7	0	-100	0	230	101300000	1000	0	0	-1	1000
15764195	0	10	0	-100	0	230	101300000	1000	0	0	-1	1000
15776755	0	14	0	-100	0	230	101300000	1000	0	0	-1	1000
15789315	0	12	0	-100	0	230	101300000	1000	0	0	-1	1000
15801875	0	6	0	-100	0	230	101300000	1000	0	0	-1	1000
15814435	0	6	0	-100	0	230	101300000	1000	0	0	-1	1000
15826995	0	8	0	-100	0	230	101300000	1000	0	0	-1	1000
15839555	0	8	0	-100	0	230	101300000	1000	0	0	-1	1000
15852115	0	14	0	-100	0	230	101300000	1000	0	0	-1	1000
15864675	0	10	0	-100	0	230	101300000	1000	0	0	-1	1000
15877235	0	8	0	-100	0	230	101300000	1000	0	0	-1	1000
15889795	0	8	0	-100	0	230	101300000	1000	0	0	-1	1000
15902355	0	7	0	-100	0	230	101300000	1000	0	0	-1	1000
15914915	0	8	0	-100	0	230	101300000	1000	0	0	-1	1000
15927475	0	12	0	-100	0	230	101300000	1000	0	0	-1	1000
15940035	0	15	0	-100	0	230	101300000	1000	0	0	-1	1000
15952595	0	12	0	-100	0	230	101300000	1000	0	0	-1	1000
15965155	0	8	0	-100	0	230	101300000	1000	0	0	-1	1000
15977715	0	5	0	-100	0	230	101300000	1000	0	0	-1	1000
15990275	0	7	0	-100	0	230	101300000	1000	0	0	-1	1000
16002835	0	8	0	-100	0	230	101300000	1000	0	0	-1	1000
16015395	0	12	0	-100	0	230	101300000	1000	0	0	-1	1000
16027955	0	15	0	-100	0	230	101300000	1000	0	0	-1	1000
16040515	0	13	0	-100	0	230	101300000	1000	0	0	-1	1000
16053075	0	12	0	-100	0	230	101300000	1000	0	0	-1	1000
16065635	2	7	0	-100	0	230	101300000	1000	0	0	-1	1000
16078195	0	8	0	-100	0	230	101300000	1000	0	0	-1	1000
16090755	0	8	0	-100	0	230	101300000	1000	0	0	-1	1000
16103315	0	8	0	-100	0	230	101300000	1000	0	0	-1	1000
16115875	0	6	0	-100	0	230	101300000	1000	0	0	-1	1000
16128435	0	11	0	-100	0	230	101300000	1000	0	0	-1	1000
16140995	0	8	0	-100	0	230	101300000	1000	0	0	-1	1000
16153555	0	14	0	-100	0	230	101300000	1000	0	0	-1	1000
16166115	0	12	0	-100	0	230	101300000	1000	0	0	-1	1000
16178675	0	8	0	-100	0	230	101300000	1000	0	0	-1	1000
16191235	0	5	0	-100	0	230	101300000	1000	0	0	-1	1000
16203795	0	6	0	-100	0	230	101300000	1000	0	0	-1	1000
16216355	0	9	0	-100	0	230	101300000	1000	0	0	-1	1000
16228915	0	13	0	-100	0	230	101300000	1000	0	0	-1	1000
16241475	0	12	0	-100	0	230	101300000	1000	0	0	-1	1000
16254035	0	8	0	-100	0	230	101300000	1000	0	0	-1	1000
16266595	0	4	0	-100	0	230	101300000	1000	0	0	-1	1000
16279155	0	7	0	-100	0	230	101300000	1000	0	0	-1	1000
16291715	0	8	0	-100	0	230	101300000	1000	0	0	-1	1000
16304275	0	9	0	-100	0	230	101300000	1000	0	0	-1	1000
16316835	0	13	0	-100	0	230	101300000	1000	0	0	-1	1000
16329395	0	13	0	-100	0	230	101300000	1000	0	0	-1	1000
16341955	0	12	0	-100	0	230	101300000	1000	0	0	-1	1000
16354515	0	9	0	-100	0	230	101300000	1000	0	0	-1	1000
16367075	0	6	0	-100	0	230	101300000	1000	0	0	-1	1000
16379635	0	9	0	-100	0	230	101300000	1000	0	0	-1	1000
16392195	0	12	0	-100	0	230	101300000	1000	0	0	-1	1000
16404755	0	13	0	-100	0	230	101300000	1000	0	0	-1	1000
16417315	0	8	0	-100	0	230	101300000	1000	0	0	-1	1000
16429875	0	8	0	-100	0	230	101300000	1000	0	0	-1	1000
16442435	0	9	0	-100	0	230	101300000	1000	0	0	-1	1000
16454995	0	6	0	-100	0	230	101300000	1000	0	0	-1	1000
16467555	0	12	0	-100	0	230	101300000	1000	0	0	-1	1000
16480115	0	9	0	-100	0	230	101300000	1000	0	0	-1	1000
16492675	0	5	0	-100	0	230	101300000	1000	0	0	-1	1000
16505235	0	8	0	-100	0	230	101300000	1000	0	0	-1	1000
16517795	0	10	0	-100	0	230	101300000	1000	0	0	-1	1000
16530355	2	6	0	-100	0	230	101300000	1000	0	0	-1	1000
16542915	0	8	0	-100	0	230	101300000	1000	0	0	-1	1000
16555475	0	5	0	-100	0	230	101300000	1000	0	0	-1	1000
16568035	0	8	0	-100	0	230	101300000	1000	0	0	-1	1000
16580595	0	8	0	-100	0	230	101300000	1000	0	0	-1	1000
16593155	0	10	0	-100	0	230	101300000	1000	0	0	-1	1000
16605715	0	10	0	-100	0	230	101300000	1000	0	0	-1	1000
16618275	0	13	0	-100	0	230	101300000	1000	0	0	-1	1000
16630835	2	8	0	-100	0	230	101300000	1000	0	0	-1	1000
16643395	2	7	0	-100	0	230	101300000	1000	0	0	-1	1000
16655955	0	8	0	-100	0	230	101300000	1000	0	0	-1	1000
16668515	0	7	0	-100	0	230	101300000	1000	0	0	-1	1000
16681075	0	7	0	-100	0	230	101300000	1000	0	0	-1	1000
16693635	0	13	0	-100	0	230	101300000	1000	0	0	-1	1000
16706195	0	9	0	-100	0	230	101300000	1000	0	0	-1	1000
16718755	0	5	0	-100	0	230	101300000	1000	0	0	-1	1000
16731315	0	6	0	-100	0	230	101300000	1000	0	0	-1	1000
16743875	0	9	0	-100	0	230	101300000	1000	0	0	-1	1000
16756435	2	7	0	-100	0	230	101300000	1000	0	0	-1	1000
16768995	0	8	0	-100	0	230	101300000	1000	0	0	-1	1000
16781555	0	5	0	-100	0	230	101300000	1000	0	0	-1	1000
16794115	0	6	0	-100	0	230	101300000	1000	0	0	-1	1000
16806675	0	7	0	-100	0	230	101300000	1000	0	0	-1	1000
16819235	0	14	0	-100	0	230	101300000	1000	0	0	-1	1000
16831795	2	6	0	-100	0	230	101300000	1000	0	0	-1	1000
16844355	0	9	0	-100	0	230	101300000	1000	0	0	-1	1000
16856915	0	8	0	-100	0	230	101300000	1000	0	0	-1	1000
16869475	0	7	0	-100	0	230	101300000	1000	0	0	-1	1000
16882035	0	14	0	-100	0	230	101300000	1000	0	0	-1	1000
16894595	0	10	0	-100	0	230	101300000	1000	0	0	-1	1000
16907155	0	8	0	-100	0	230	101300000	1000	0	0	-1	1000
16919715	0	8	0	-100	0	230	101300000	1000	0	0	-1	1000
16932275	0	10	0	-100	0	230	101300000	1000	0	0	-1	1000
16944835	0	16	0	-100	0	230	101300000	1000	0	0	-1	1000
16957395	0	14	0	-100	0	230	101300000	1000	0	0	-1	1000
16969955	0	11	0	-100	0	230	101300000	1000	0	0	-1	1000
16982515	0	8	0	-100	0	230	101300000	1000	0	0	-1	1000
16995075	0	7	0	-100	0	230	101300000	1000	0	0	-1	1000
17007635	0	8	0	-100	0	230	101300000	1000	0	0	-1	1000
17020195	0	8	0	-100	0	230	101300000	1000	0	0	-1	1000
17032755	0	9	0	-100	0	230	101300000	1000	0	0	-1	1000
17045315	0	14	0	-100	0	230	101300000	1000	0	0	-1	1000
17057875	0	15	0	-100	0	230	101300000	1000	0	0	-1	1000
17070435	2	7	0	-100	0	230	101300000	1000	0	0	-1	1000
17082995	0	10	0	-100	0	230	101300000	1000	0	0	-1	1000
17095555	0	8	0	-100	0	230	101300000	1000	0	0	-1	1000
17108115	0	8	0	-100	0	230	101300000	1000	0	0	-1	1000
17120675	0	8	0	-100	0	230	101300000	1000	0	0	-1	1000
17133235	0	11	0	-100	0	230	101300000	1000	0	0	-1	1000
17145795	0	12	0	-100	0	230	101300000	1000	0	0	-1	1000
17158355	0	11	0	-100	0	230	101300000	1000	0	0	-1	1000
17170915	0	8	0	-100	0	230	101300000	1000	0	0	-1	1000
17183475	0	5	0	-100	0	230	101300000	1000	0	0	-1	1000
17196035	0	6	0	-100	0	230	101300000	1000	0	0	-1	1000
17208595	0	6	0	-100	0	230	101300000	1000	0	0	-1	1000
17221155	0	11	0	-100	0	230	101300000	1000	0	0	-1	1000
17233715	0	14	0	-100	0	230	101300000	1000	0	0	-1	1000
17246275	2	6	0	-100	0	230	101300000	1000	0	0	-1	1000
17258835	0	10	0	-100	0	230	101300000	1000	0	0	-1	1000
17271395	0	8	0	-100	0	230	101300000	1000	0	0	-1	1000
17283955	0	6	0	-100	0	230	101300000	1000	0	0	-1	1000
17296515	0	8	0	-100	0	230	101300000	1000	0	0	-1	1000
17309075	0	9	0	-100	0	230	101300000	1000	0	0	-1	1000
17321635	2	7	0	-100	0	230	101300000	1000	0	0	-1	1000
17334195	0	8	0	-100	0	230	101300000	1000	0	0	-1	1000
17346755	0	6	0	-100	0	230	101300000	1000	0	0	-1	1000
17359315	0	10	0	-100	0	230	101300000	1000	0	0	-1	1000
17371875	2	8	0	-100	0	230	101300000	1000	0	0	-1	1000
17384435	0	8	0	-100	0	230	101300000	1000	0	0	-1	1000
17396995	0	12	0	-100	0	230	101300000	1000	0	0	-1	1000
17409555	0	7	0	-100	0	230	101300000	1000	0	0	-1	1000
17422115	0	9	0	-100	0	230	101300000	1000	0	0	-1	1000
17434675	0	16	0	-100	0	230	101300000	1000	0	0	-1	1000
17447235	0	13	0	-100	0	230	101300000	1000	0	0	-1	1000
17459795	0	13	0	-100	0	230	101300000	1000	0	0	-1	1000
17472355	0	11	0	-100	0	230	101300000	1000	0	0	-1	1000
17484915	0	8	0	-100	0	230	101300000	1000	0	0	-1	1000
17497475	0	5	0	-100	0	230	101300000	1000	0	0	-1	1000
17510035	0	7	0	-100	0	230	101300000	1000	0	0	-1	1000
17522595	0	8	0	-100	0	230	101300000	1000	0	0	-1	1000
17535155	0	12	0	-100	0	230	101300000	1000	0	0	-1	1000
17547715	0	13	0	-100	0	230	101300000	1000	0	0	-1	1000
17560275	0	12	0	-100	0	230	101300000	1000	0	0	-1	1000
17572835	0	8	0	-100	0	230	101300000	1000	0	0	-1	1000
17585395	0	7	0	-100	0	230	101300000	1000	0	0	-1	1000
17597955	0	8	0	-100	0	230	101300000	1000	0	0	-1	1000
17610515	0	7	0	-100	0	230	101300000	1000	0	0	-1	1000
17623075	0	9	0	-100	0	230	101300000	1000	0	0	-1	1000
17635635	0	14	0	-100	0	230	101300000	1000	0	0	-1	1000
17648195	0	13	0	-100	0	230	101300000	1000	0	0	-1	1000
17660755	0	12	0	-100	0	230	101300000	1000	0	0	-1	1000
17673315	0	8	0	-100	0	230	101300000	1000	0	0	-1	1000
17685875	0	7	0	-100	0	230	101300000	1000	0	0	-1	1000
17698435	0	7	0	-100	0	230	101300000	1000	0	0	-1	1000
17710995	0	8	0	-100	0	230	101300000	1000	0	0	-1	1000
17723555	2	7	0	-100	0	230	101300000	1000	0	0	-1	1000
17736115	0	8	0	-100	0	230	101300000	1000	0	0	-1	1000
17748675	0	8	0	-100	0	230	101300000	1000	0	0	-1	1000
17761235	0	6	0	-100	0	230	101300000	1000	0	0	-1	1000
17773795	0	13	0	-100	0	230	101300000	1000	0	0	-1	1000
17786355	0	11	0	-100	0	230	101300000	1000	0	0	-1	1000
17798915	2	7	0	-100	0	230	101300000	1000	0	0	-1	1000
17811475	0	7	0	-100	0	230	101300000	1000	0	0	-1	1000
17824035	0	4	0	-100	0	230	101300000	1000	0	0	-1	1000
17836595	0	7	0	-100	0	230	101300000	1000	0	0	-1	1000
17849155	0	11	0	-100	0	230	101300000	1000	0	0	-1	1000
17861715	0	15	0	-100	0	230	101300000	1000	0	0	-1	1000
17874275	0	13	0	-100	0	230	101300000	1000	0	0	-1	1000
17886835	0	12	0	-100	0	230	101300000	1000	0	0	-1	1000
17899395	0	11	0	-100	0	230	101300000	1000	0	0	-1	1000
17911955	0	12	0	-100	0	230	101300000	1000	0	0	-1	1000
17924515	0	8	0	-100	0	230	101300000	1000	0	0	-1	1000
17937075	0	7	0	-100	0	230	101300000	1000	0	0	-1	1000
17949635	0	9	0	-100	0	230	101300000	1000	0	0	-1	1000
17962195	2	7	0	-100	0	230	101300000	1000	0	0	-1	1000
17974755	0	7	0	-100	0	230	101300000	1000	0	0	-1	1000
17987315	0	6	0	-100	0	230	101300000	1000	0	0	-1	1000
17999875	0	14	0	-100	0	230	101300000	1000	0	0	-1	1000
18012435	0	11	0	-100	0	230	101300000	1000	0	0	-1	1000
18024995	0	13	0	-100	0	230	101300000	1000	0	0	-1	1000
18037555	0	7	0	-100	0	230	101300000	1000	0	0	-1	1000
18050115	0	15	0	-100	0	230	101300000	1000	0	0	-1	1000
18062675	0	8	0	-100	0	230	101300000	1000	0	0	-1	1000
18075235	0	7	0	-100	0	230	101300000	1000	0	0	-1	1000
18087795	0	13	0	-100	0	230	101300000	1000	0	0	-1	1000
18100355	0	9	0	-100	0	230	101300000	1000	0	0	-1	1000
18112915	0	8	0	-100	0	230	101300000	1000	0	0	-1	1000
18125475	0	11	0	-100	0	230	101300000	1000	0	0	-1	1000
18138035	0	8	0	-100	0	230	101300000	1000	0	0	-1	1000
18150595	0	9	0	-100	0	230	101300000	1000	0	0	-1	1000
18163155	2	7	0	-100	0	230	101300000	1000	0	0	-1	1000
18175715	0	8	0	-100	0	230	101300000	1000	0	0	-1	1000
18188275	0	9	0	-100	0	230	101300000	1000	0	0	-1	1000
18200835	0	12	0	-100	0	230	101300000	1000	0	0	-1	1000
18213395	0	7	0	-100	0	230	101300000	1000	0	0	-1	1000
18225955	0	9	0	-100	0	230	101300000	1000	0	0	-1	1000
18238515	0	12	0	-100	0	230	101300000	1000	0	0	-1	1000
18251075	0	6	0	-100	0	230	101300000	1000	0	0	-1	1000
18263635	0	12	0	-100	0	230	101300000	1000	0	0	-1	1000
18276195	0	7	0	-100	0	230	101300000	1000	0	0	-1	1000
18288755	0	8	0	-100	0	230	101300000	1000	0	0	-1	1000
18301315	0	14	0	-100	0	230	101300000	1000	0	0	-1	1000
18313875	0	6	0	-100	0	230	101300000	1000	0	0	-1	1000
18326435	0	9	0	-100	0	230	101300000	1000	0	0	-1	1000
18338995	0	9	0	-100	0	230	101300000	1000	0	0	-1	1000
18351555	0	7	0	-100	0	230	101300000	1000	0	0	-1	1000
18364115	0	15	0	-100	0	230	101300000	1000	0	0	-1	1000
18376675	0	8	0	-100	0	230	101300000	1000	0	0	-1	1000
18389235	0	8	0	-100	0	230	101300000	1000	0	0	-1	1000
18401795	0	14	0	-100	0	230	101300000	1000	0	0	-1	1000
18414355	0	8	0	-100	0	230	101300000	1000	0	0	-1	1000
18426915	0	8	0	-100	0	230	101300000	1000	0	0	-1	1000
18439475	0	13	0	-100	0	230	101300000	1000	0	0	-1	1000
18452035	0	8	0	-100	0	230	101300000	1000	0	0	-1	1000
18464595	0	6	0	-100	0	230	101300000	1000	0	0	-1	1000
18477155	0	11	0	-100	0	230	101300000	1000	0	0	-1	1000
18489715	0	8	0	-100	0	230	101300000	1000	0	0	-1	1000
18502275	0	12	0	-100	0	230	101300000	1000	0	0	-1	1000
18514835	0	8	0	-100	0	230	101300000	1000	0	0	-1	1000
18527395	0	12	0	-100	0	230	101300000	1000	0	0	-1	1000
18539955	0	8	0	-100	0	230	101300000	1000	0	0	-1	1000
18552515	0	7	0	-100	0	230	101300000	1000	0	0	-1	1000
18565075	0	11	0	-100	0	230	101300000	1000	0	0	-1	1000
18577635	0	8	0	-100	0	230	101300000	1000	0	0	-1	1000
18590195	0	13	0	-100	0	230	101300000	1000	0	0	-1	1000
18602755	0	9	0	-100	0	230	101300000	1000	0	0	-1	1000
18615315	0	14	0	-100	0	230	101300000	1000	0	0	-1	1000
18627875	0	6	0	-100	0	230	101300000	1000	0	0	-1	1000
18640435	0	15	0	-100	0	230	101300000	1000	0	0	-1	1000
18652995	0	12	0	-100	0	230	101300000	1000	0	0	-1	1000
18665555	0	12	0	-100	0	230	101300000	1000	0	0	-1	1000
18678115	0	6	0	-100	0	230	101300000	1000	0	0	-1	1000
18690675	2	7	0	-100	0	230	101300000	1000	0	0	-1	1000
18703235	0	8	0	-100	0	230	101300000	1000	0	0	-1	1000
18715795	2	8	0	-100	0	230	101300000	1000	0	0	-1	1000
18728355	0	6	0	-100	0	230	101300000	1000	0	0	-1	1000
18740915	0	12	0	-100	0	230	101300000	1000	0	0	-1	1000
18753475	0	6	0	-100	0	230	101300000	1000	0	0	-1	1000
18766035	0	14	0	-100	0	230	101300000	1000	0	0	-1	1000
18778595	0	8	0	-100	0	230	101300000	1000	0	0	-1	1000
18791155	0	15	0	-100	0	230	101300000	1000	0	0	-1	1000
18803715	0	6	0	-100	0	230	101300000	1000	0	0	-1	1000
18816275	0	9	0	-100	0	230	101300000	1000	0	0	-1	1000
18828835	0	10	0	-100	0	230	101300000	1000	0	0	-1	1000
18841395	0	6	0	-100	0	230	101300000	1000	0	0	-1	1000
18853955	4	6	0	-100	0	230	101300000	1000	0	0	-1	1000
18866515	0	7	0	-100	0	230	101300000	1000	0	0	-1	1000
18879075	0	11	0	-100	0	230	101300000	1000	0	0	-1	1000
18891635	0	8	0	-100	0	230	101300000	1000	0	0	-1	1000
18904195	0	12	0	-100	0	230	101300000	1000	0	0	-1	1000
18916755	0	8	0	-100	0	230	101300000	1000	0	0	-1	1000
18929315	0	15	0	-100	0	230	101300000	1000	0	0	-1	1000
18941875	0	8	0	-100	0	230	101300000	1000	0	0	-1	1000
18954435	0	8	0	-100	0	230	101300000	1000	0	0	-1	1000
18966995	0	6	0	-100	0	230	101300000	1000	0	0	-1	1000
18979555	0	5	0	-100	0	230	101300000	1000	0	0	-1	1000
18992115	0	10	0	-100	0	230	101300000	1000	0	0	-1	1000
19004675	0	12	0	-100	0	230	101300000	1000	0	0	-1	1000
19017235	0	7	0	-100	0	230	101300000	1000	0	0	-1	1000
19029795	0	13	0	-100	0	230	101300000	1000	0	0	-1	1000
19042355	0	5	0	-100	0	230	101300000	1000	0	0	-1	1000
19054915	0	11	0	-100	0	230	101300000	1000	0	0	-1	1000
19067475	0	8	0	-100	0	230	101300000	1000	0	0	-1	1000
19080035	0	9	0	-100	0	230	101300000	1000	0	0	-1	1000
19092595	0	12	0	-100	0	230	101300000	1000	0	0	-1	1000
19105155	0	8	0	-100	0	230	101300000	1000	0	0	-1	1000
19117715	0	8	0	-100	0	230	101300000	1000	0	0	-1	1000
19130275	0	13	0	-100	0	230	101300000	1000	0	0	-1	1000
19142835	2	8	0	-100	0	230	101300000	1000	0	0	-1	1000
19155395	0	6	0	-100	0	230	101300000	1000	0	0	-1	1000
19167955	0	9	0	-100	0	230	101300000	1000	0	0	-1	1000
19180515	0	12	0	-100	0	230	101300000	1000	0	0	-1	1000
19193075	0	8	0	-100	0	230	101300000	1000	0	0	-1	1000
19205635	0	11	0	-100	0	230	101300000	1000	0	0	-1	1000
19218195	2	6	0	-100	0	230	101300000	1000	0	0	-1	1000
19230755	0	7	0	-100	0	230	101300000	1000	0	0	-1	1000
19243315	0	8	0	-100	0	230	101300000	1000	0	0	-1	1000
19255875	0	7	0	-100	0	230	101300000	1000	0	0	-1	1000
19268435	0	14	0	-100	0	230	101300000	1000	0	0	-1	1000
19280995	0	9	0	-100	0	230	101300000	1000	0	0	-1	1000
19293555	0	8	0	-100	0	230	101300000	1000	0	0	-1	1000
19306115	0	10	0	-100	0	230	101300000	1000	0	0	-1	1000
19318675	0	12	0	-100	0	230	101300000	1000	0	0	-1	1000
19331235	0	8	0	-100	0	230	101300000	1000	0	0	-1	1000
19343795	0	6	0	-100	0	230	101300000	1000	0	0	-1	1000
19356355	0	9	0	-100	0	230	101300000	1000	0	0	-1	1000
19368915	2	8	0	-100	0	230	101300000	1000	0	0	-1	1000
19381475	0	9	0	-100	0	230	101300000	1000	0	0	-1	1000
19394035	0	8	0	-100	0	230	101300000	1000	0	0	-1	1000
19406595	0	8	0	-100	0	230	101300000	1000	0	0	-1	1000
19419155	2	7	0	-100	0	230	101300000	1000	0	0	-1	1000
19431715	0	6	0	-100	0	230	101300000	1000	0	0	-1	1000
19444275	0	7	0	-100	0	230	101300000	1000	0	0	-1	1000
19456835	0	12	0	-100	0	230	101300000	1000	0	0	-1	1000
19469395	0	12	0	-100	0	230	101300000	1000	0	0	-1	1000
19481955	0	5	0	-100	0	230	101300000	1000	0	0	-1	1000
19494515	0	7	0	-100	0	230	101300000	1000	0	0	-1	1000
19507075	0	10	0	-100	0	230	101300000	1000	0	0	-1	1000
19519635	2	8	0	-100	0	230	101300000	1000	0	0	-1	1000
19532195	0	9	0	-100	0	230	101300000	1000	0	0	-1	1000
19544755	0	7	0	-100	0	230	101300000	1000	0	0	-1	1000
19557315	0	11	0	-100	0	230	101300000	1000	0	0	-1	1000
19569875	0	12	0	-100	0	230	101300000	1000	0	0	-1	1000
19582435	0	8	0	-100	0	230	101300000	1000	0	0	-1	1000
19594995	0	13	0	-100	0	230	101300000	1000	0	0	-1	1000
19607555	0	7	0	-100	0	230	101300000	1000	0	0	-1	1000
19620115	0	14	0	-100	0	230	101300000	1000	0	0	-1	1000
19632675	0	10	0	-100	0	230	101300000	1000	0	0	-1	1000
19645235	0	7	0	-100	0	230	101300000	1000	0	0	-1	1000
19657795	0	12	0	-100	0	230	101300000	1000	0	0	-1	1000
19670355	2	6	0	-100	0	230	101300000	1000	0	0	-1	1000
19682915	0	6	0	-100	0	230	101300000	1000	0	0	-1	1000
19695475	0	6	0	-100	0	230	101300000	1000	0	0	-1	1000
19708035	0	13	0	-100	0	230	101300000	1000	0	0	-1	1000
19720595	0	5	0	-100	0	230	101300000	1000	0	0	-1	1000
19733155	0	8	0	-100	0	230	101300000	1000	0	0	-1	1000
19745715	2	7	0	-100	0	230	101300000	1000	0	0	-1	1000
19758275	0	7	0	-100	0	230	101300000	1000	0	0	-1	1000
19770835	2	6	0	-100	0	230	101300000	1000	0	0	-1	1000
19783395	0	8	0	-100	0	230	101300000	1000	0	0	-1	1000
19795955	0	12	0	-100	0	230	101300000	1000	0	0	-1	1000
19808515	0	8	0	-100	0	230	101300000	1000	0	0	-1	1000
19821075	0	12	0	-100	0	230	101300000	1000	0	0	-1	1000
19833635	0	7	0	-100	0	230	101300000	1000	0	0	-1	1000
19846195	2	6	0	-100	0	230	101300000	1000	0	0	-1	1000
19858755	0	7	0	-100	0	230	101300000	1000	0	0	-1	1000
19871315	0	14	0	-100	0	230	101300000	1000	0	0	-1	1000
19883875	0	6	0	-100	0	230	101300000	1000	0	0	-1	1000
19896435	0	7	0	-100	0	230	101300000	1000	0	0	-1	1000
19908995	2	10	0	-100	0	230	101300000	1000	0	0	-1	1000
19921555	0	7	0	-100	0	230	101300000	1000	0	0	-1	1000
19934115	0	7	0	-100	0	230	101300000	1000	0	0	-1	1000
19946675	0	14	0	-100	0	230	101300000	1000	0	0	-1	1000
19959235	2	7	0	-100	0	230	101300000	1000	0	0	-1	1000
19971795	0	7	0	-100	0	230	101300000	1000	0	0	-1	1000
19984355	0	13	0	-100	0	230	101300000	1000	0	0	-1	1000
19996915	0	6	0	-100	0	230	101300000	1000	0	0	-1	1000
20009475	0	9	0	-100	0	230	101300000	1000	0	0	-1	1000
20022035	0	11	0	-100	0	230	101300000	1000	0	0	-1	1000
20034595	0	8	0	-100	0	230	101300000	1000	0	0	-1	1000
20047155	0	13	0	-100	0	230	101300000	1000	0	0	-1	1000
20059715	2	7	0	-100	0	230	101300000	1000	0	0	-1	1000
20072275	0	7	0	-100	0	230	101300000	1000	0	0	-1	1000
20084835	0	15	0	-100	0	230	101300000	1000	0	0	-1	1000
20097395	0	9	0	-100	0	230	101300000	1000	0	0	-1	1000
20109955	0	7	0	-100	0	230	101300000	1000	0	0	-1	1000
20122515	0	10	0	-100	0	230	101300000	1000	0	0	-1	1000
20135075	0	11	0	-100	0	230	101300000	1000	0	0	-1	1000
20147635	0	9	0	-100	0	230	101300000	1000	0	0	-1	1000
20160195	0	9	0	-100	0	230	101300000	1000	0	0	-1	1000
20172755	0	11	0	-100	0	230	101300000	1000	0	0	-1	1000
20185315	0	8	0	-100	0	230	101300000	1000	0	0	-1	1000
20197875	0	11	0	-100	0	230	101300000	1000	0	0	-1	1000
20210435	0	7	0	-100	0	230	101300000	1000	0	0	-1	1000
20222995	0	8	0	-100	0	230	101300000	1000	0	0	-1	1000
20235555	0	14	0	-100	0	230	101300000	1000	0	0	-1	1000
20248115	0	6	0	-100	0	230	101300000	1000	0	0	-1	1000
20260675	0	9	0	-100	0	230	101300000	1000	0	0	-1	1000
20273235	2	7	0	-100	0	230	101300000	1000	0	0	-1	1000
20285795	0	8	0	-100	0	230	101300000	1000	0	0	-1	1000
20298355	0	10	0	-100	0	230	101300000	1000	0	0	-1	1000
20310915	2	7	0	-100	0	230	101300000	1000	0	0	-1	1000
20323475	0	9	0	-100	0	230	101300000	1000	0	0	-1	1000
20336035	0	8	0	-100	0	230	101300000	1000	0	0	-1	1000
20348595	0	7	0	-100	0	230	101300000	1000	0	0	-1	1000
20361155	0	16	0	-100	0	230	101300000	1000	0	0	-1	1000
20373715	2	6	0	-100	0	230	101300000	1000	0	0	-1	1000
20386275	0	7	0	-100	0	230	101300000	1000	0	0	-1	1000
20398835	0	10	0	-100	0	230	101300000	1000	0	0	-1	1000
20411395	0	13	0	-100	0	230	101300000	1000	0	0	-1	1000
20423955	0	7	0	-100	0	230	101300000	1000	0	0	-1	1000
20436515	0	8	0	-100	0	230	101300000	1000	0	0	-1	1000
20449075	0	8	0	-100	0	230	101300000	1000	0	0	-1	1000
20461635	0	12	0	-100	0	230	101300000	1000	0	0	-1	1000
20474195	0	8	0	-100	0	230	101300000	1000	0	0	-1	1000
20486755	0	6	0	-100	0	230	101300000	1000	0	0	-1	1000
20499315	0	14	0	-100	0	230	101300000	1000	0	0	-1	1000
20511875	0	12	0	-100	0	230	101300000	1000	0	0	-1	1000
20524435	0	7	0	-100	0	230	101300000	1000	0	0	-1	1000
20536995	0	5	0	-100	0	230	101300000	1000	0	0	-1	1000
20549555	0	11	0	-100	0	230	101300000	1000	0	0	-1	1000
20562115	0	9	0	-100	0	230	101300000	1000	0	0	-1	1000
20574675	0	9	0	-100	0	230	101300000	1000	0	0	-1	1000
20587235	0	12	0	-100	0	230	101300000	1000	0	0	-1	1000
20599795	0	7	0	-100	0	230	101300000	1000	0	0	-1	1000
20612355	0	7	0	-100	0	230	101300000	1000	0	0	-1	1000
20624915	0	13	0	-100	0	230	101300000	1000	0	0	-1	1000
20637475	0	11	0	-100	0	230	101300000	1000	0	0	-1	1000
20650035	0	8	0	-100	0	230	101300000	1000	0	0	-1	1000
20662595	0	10	0	-100	0	230	101300000	1000	0	0	-1	1000
20675155	2	8	0	-100	0	230	101300000	1000	0	0	-1	1000
20687715	0	7	0	-100	0	230	101300000	1000	0	0	-1	1000
20700275	0	8	0	-100	0	230	101300000	1000	0	0	-1	1000
20712835	0	8	0	-100	0	230	101300000	1000	0	0	-1	1000
20725395	0	13	0	-100	0	230	101300000	1000	0	0	-1	1000
20737955	0	9	0	-100	0	230	101300000	1000	0	0	-1	1000
20750515	0	4	0	-100	0	230	101300000	1000	0	0	-1	1000
20763075	0	6	0	-100	0	230	101300000	1000	0	0	-1	1000
20775635	0	15	0	-100	0	230	101300000	1000	0	0	-1	1000
20788195	0	12	0	-100	0	230	101300000	1000	0	0	-1	1000
20800755	0	8	0	-100	0	230	101300000	1000	0	0	-1	1000
20813315	0	8	0	-100	0	230	101300000	1000	0	0	-1	1000
20825875	0	8	0	-100	0	230	101300000	1000	0	0	-1	1000
20838435	2	8	0	-100	0	230	101300000	1000	0	0	-1	1000
20850995	0	8	0	-100	0	230	101300000	1000	0	0	-1	1000
20863555	0	8	0	-100	0	230	101300000	1000	0	0	-1	1000
20876115	0	8	0	-100	0	230	101300000	1000	0	0	-1	1000
20888675	0	6	0	-100	0	230	101300000	1000	0	0	-1	1000
20901235	0	6	0	-100	0	230	101300000	1000	0	0	-1	1000
20913795	0	10	0	-100	0	230	101300000	1000	0	0	-1	1000
20926355	2	6	0	-100	0	230	101300000	1000	0	0	-1	1000
20938915	0	9	0	-100	0	230	101300000	1000	0	0	-1	1000
20951475	0	8	0	-100	0	230	101300000	1000	0	0	-1	1000
20964035	0	12	0	-100	0	230	101300000	1000	0	0	-1	1000
20976595	0	11	0	-100	0	230	101300000	1000	0	0	-1	1000
20989155	0	6	0	-100	0	230	101300000	1000	0	0	-1	1000
21001715	0	15	0	-100	0	230	101300000	1000	0	0	-1	1000
21014275	0	11	0	-100	0	230	101300000	1000	0	0	-1	1000
21026835	0	6	0	-100	0	230	101300000	1000	0	0	-1	1000
21039395	0	7	0	-100	0	230	101300000	1000	0	0	-1	1000
21051955	0	10	0	-100	0	230	101300000	1000	0	0	-1	1000
21064515	0	13	0	-100	0	230	101300000	1000	0	0	-1	1000
21077075	0	9	0	-100	0	230	101300000	1000	0	0	-1	1000
21089635	0	8	0	-100	0	230	101300000	1000	0	0	-1	1000
21102195	0	6	0	-100	0	230	101300000	1000	0	0	-1	1000
21114755	0	15	0	-100	0	230	101300000	1000	0	0	-1	1000
21127315	0	12	0	-100	0	230	101300000	1000	0	0	-1	1000
21139875	0	7	0	-100	0	230	101300000	1000	0	0	-1	1000
21152435	0	8	0	-100	0	230	101300000	1000	0	0	-1	1000
21164995	0	8	0	-100	0	230	101300000	1000	0	0	-1	1000
21177555	0	16	0	-100	0	230	101300000	1000	0	0	-1	1000
21190115	0	12	0	-100	0	230	101300000	1000	0	0	-1	1000
21202675	2	7	0	-100	0	230	101300000	1000	0	0	-1	1000
21215235	0	12	0	-100	0	230	101300000	1000	0	0	-1	1000
21227795	2	6	0	-100	0	230	101300000	1000	0	0	-1	1000
21240355	0	12	0	-100	0	230	101300000	1000	0	0	-1	1000
21252915	0	12	0	-100	0	230	101300000	1000	0	0	-1	1000
21265475	0	12	0	-100	0	230	101300000	1000	0	0	-1	1000
21278035	0	11	0	-100	0	230	101300000	1000	0	0	-1	1000
21290595	0	11	0	-100	0	230	101300000	1000	0	0	-1	1000
21303155	0	8	0	-100	0	230	101300000	1000	0	0	-1	1000
21315715	2	8	0	-100	0	230	101300000	1000	0	0	-1	1000
21328275	0	8	0	-100	0	230	101300000	1000	0	0	-1	1000
21340835	0	7	0	-100	0	230	101300000	1000	0	0	-1	1000
21353395	0	4	0	-100	0	230	101300000	1000	0	0	-1	1000
21365955	0	5	0	-100	0	230	101300000	1000	0	0	-1	1000
21378515	0	8	0	-100	0	230	101300000	1000	0	0	-1	1000
21391075	0	8	0	-100	0	230	101300000	1000	0	0	-1	1000
21403635	0	8	0	-100	0	230	101300000	1000	0	0	-1	1000
21416195	0	8	0	-100	0	230	101300000	1000	0	0	-1	1000
21428755	0	12	0	-100	0	230	101300000	1000	0	0	-1	1000
21441315	0	11	0	-100	0	230	101300000	1000	0	0	-1	1000
21453875	0	14	0	-100	0	230	101300000	1000	0	0	-1	1000
21466435	0	14	0	-100	0	230	101300000	1000	0	0	-1	1000
21478995	0	6	0	-100	0	230	101300000	1000	0	0	-1	1000
21491555	0	14	0	-100	0	230	101300000	1000	0	0	-1	1000
21504115	0	11	0	-100	0	230	101300000	1000	0	0	-1	1000
21516675	0	12	0	-100	0	230	101300000	1000	0	0	-1	1000
21529235	2	7	0	-100	0	230	101300000	1000	0	0	-1	1000
21541795	0	12	0	-100	0	230	101300000	1000	0	0	-1	1000
21554355	0	11	0	-100	0	230	101300000	1000	0	0	-1	1000
21566915	0	8	0	-100	0	230	101300000	1000	0	0	-1	1000
21579475	0	6	0	-100	0	230	101300000	1000	0	0	-1	1000
21592035	0	9	0	-100	0	230	101300000	1000	0	0	-1	1000
21604595	0	6	0	-100	0	230	101300000	1000	0	0	-1	1000
21617155	0	6	0	-100	0	230	101300000	1000	0	0	-1	1000
21629715	0	7	0	-100	0	230	101300000	1000	0	0	-1	1000
21642275	0	8	0	-100	0	230	101300000	1000	0	0	-1	1000
21654835	2	7	0	-100	0	230	101300000	1000	0	0	-1	1000
21667395	0	9	0	-100	0	230	101300000	1000	0	0	-1	1000
21679955	0	5	0	-100	0	230	101300000	1000	0	0	-1	1000
21692515	0	7	0	-100	0	230	101300000	1000	0	0	-1	1000
21705075	0	7	0	-100	0	230	101300000	1000	0	0	-1	1000
21717635	0	9	0	-100	0	230	101300000	1000	0	0	-1	1000
21730195	0	15	0	-100	0	230	101300000	1000	0	0	-1	1000
21742755	2	7	0	-100	0	230	101300000	1000	0	0	-1	1000
21755315	0	5	0	-100	0	230	101300000	1000	0	0	-1	1000
21767875	0	7	0	-100	0	230	101300000	1000	0	0	-1	1000
21780435	0	8	0	-100	0	230	101300000	1000	0	0	-1	1000
21792995	0	6	0	-100	0	230	101300000	1000	0	0	-1	1000
21805555	0	11	0	-100	0	230	101300000	1000	0	0	-1	1000
21818115	0	4	0	-100	0	230	101300000	1000	0	0	-1	1000
21830675	0	8	0	-100	0	230	101300000	1000	0	0	-1	1000
21843235	0	16	0	-100	0	230	101300000	1000	0	0	-1	1000
21855795	0	11	0	-100	0	230	101300000	1000	0	0	-1	1000
21868355	0	8	0	-100	0	230	101300000	1000	0	0	-1	1000
21880915	0	8	0	-100	0	230	101300000	1000	0	0	-1	1000
21893475	0	11	0	-100	0	230	101300000	1000	0	0	-1	1000
21906035	2	7	0	-100	0	230	101300000	1000	0	0	-1	1000
21918595	0	8	0	-100	0	230	101300000	1000	0	0	-1	1000
21931155	0	8	0	-100	0	230	101300000	1000	0	0	-1	1000
21943715	0	7	0	-100	0	230	101300000	1000	0	0	-1	1000
21956275	0	8	0	-100	0	230	101300000	1000	0	0	-1	1000
21968835	0	13	0	-100	0	230	101300000	1000	0	0	-1	1000
21981395	0	9	0	-100	0	230	101300000	1000	0	0	-1	1000
21993955	0	8	0	-100	0	230	101300000	1000	0	0	-1	1000
22006515	0	9	0	-100	0	230	101300000	1000	0	0	-1	1000
22019075	0	13	0	-100	0	230	101300000	1000	0	0	-1	1000
22031635	0	8	0	-100	0	230	101300000	1000	0	0	-1	1000
22044195	0	6	0	-100	0	230	101300000	1000	0	0	-1	1000
22056755	0	9	0	-100	0	230	101300000	1000	0	0	-1	1000
22069315	2	6	0	-100	0	230	101300000	1000	0	0	-1	1000
22081875	0	7	0	-100	0	230	101300000	1000	0	0	-1	1000
22094435	0	9	0	-100	0	230	101300000	1000	0	0	-1	1000
22106995	0	7	0	-100	0	230	101300000	1000	0	0	-1	1000
22119555	0	15	0	-100	0	230	101300000	1000	0	0	-1	1000
22132115	2	7	0	-100	0	230	101300000	1000	0	0	-1	1000
22144675	0	8	0	-100	0	230	101300000	1000	0	0	-1	1000
22157235	0	9	0	-100	0	230	101300000	1000	0	0	-1	1000
22169795	0	7	0	-100	0	230	101300000	1000	0	0	-1	1000
22182355	0	6	0	-100	0	230	101300000	1000	0	0	-1	1000
22194915	0	9	0	-100	0	230	101300000	1000	0	0	-1	1000
22207475	0	13	0	-100	0	230	101300000	1000	0	0	-1	1000
22220035	2	6	0	-100	0	230	101300000	1000	0	0	-1	1000
22232595	0	8	0	-100	0	230	101300000	1000	0	0	-1	1000
22245155	0	7	0	-100	0	230	101300000	1000	0	0	-1	1000
22257715	0	9	0	-100	0	230	101300000	1000	0	0	-1	1000
22270275	0	14	0	-100	0	230	101300000	1000	0	0	-1	1000
22282835	0	12	0	-100	0	230	101300000	1000	0	0	-1	1000
22295395	0	8	0	-100	0	230	101300000	1000	0	0	-1	1000
22307955	0	4	0	-100	0	230	101300000	1000	0	0	-1	1000
22320515	0	8	0	-100	0	230	101300000	1000	0	0	-1	1000
22333075	0	7	0	-100	0	230	101300000	1000	0	0	-1	1000
22345635	0	9	0	-100	0	230	101300000	1000	0	0	-1	1000
22358195	0	15	0	-100	0	230	101300000	1000	0	0	-1	1000
22370755	0	12	0	-100	0	230	101300000	1000	0	0	-1	1000
22383315	0	8	0	-100	0	230	101300000	1000	0	0	-1	1000
22395875	0	7	0	-100	0	230	101300000	1000	0	0	-1	1000
22408435	0	7	0	-100	0	230	101300000	1000	0	0	-1	1000
22420995	0	8	0	-100	0	230	101300000	1000	0	0	-1	1000
22433555	0	15	0	-100	0	230	101300000	1000	0	0	-1	1000
22446115	0	12	0	-100	0	230	101300000	1000	0	0	-1	1000
22458675	0	8	0	-100	0	230	101300000	1000	0	0	-1	1000
22471235	0	9	0	-100	0	230	101300000	1000	0	0	-1	1000
22483795	0	8	0	-100	0	230	101300000	1000	0	0	-1	1000
22496355	0	10	0	-100	0	230	101300000	1000	0	0	-1	1000
22508915	2	8	0	-100	0	230	101300000	1000	0	0	-1	1000
22521475	0	9	0	-100	0	230	101300000	1000	0	0	-1	1000
22534035	0	4	0	-100	0	230	101300000	1000	0	0	-1	1000
22546595	0	8	0	-100	0	230	101300000	1000	0	0	-1	1000
22559155	0	6	0	-100	0	230	101300000	1000	0	0	-1	1000
22571715	0	11	0	-100	0	230	101300000	1000	0	0	-1	1000
22584275	0	13	0	-100	0	230	101300000	1000	0	0	-1	1000
22596835	0	11	0	-100	0	230	101300000	1000	0	0	-1	1000
22609395	0	8	0	-100	0	230	101300000	1000	0	0	-1	1000
22621955	0	10	0	-100	0	230	101300000	1000	0	0	-1	1000
22634515	0	11	0	-100	0	230	101300000	1000	0	0	-1	1000
22647075	0	8	0	-100	0	230	101300000	1000	0	0	-1	1000
22659635	0	13	0	-100	0	230	101300000	1000	0	0	-1	1000
22672195	0	7	0	-100	0	230	101300000	1000	0	0	-1	1000
22684755	0	9	0	-100	0	230	101300000	1000	0	0	-1	1000
22697315	2	7	0	-100	0	230	101300000	1000	0	0	-1	1000
22709875	0	8	0	-100	0	230	101300000	1000	0	0	-1	1000
22722435	0	10	0	-100	0	230	101300000	1000	0	0	-1	1000
22734995	0	8	0	-100	0	230	101300000	1000	0	0	-1	1000
22747555	0	8	0	-100	0	230	101300000	1000	0	0	-1	1000
22760115	0	9	0	-100	0	230	101300000	1000	0	0	-1	1000
22772675	0	8	0	-100	0	230	101300000	1000	0	0	-1	1000
22785235	0	8	0	-100	0	230	101300000	1000	0	0	-1	1000
22797795	0	12	0	-100	0	230	101300000	1000	0	0	-1	1000
22810355	0	7	0	-100	0	230	101300000	1000	0	0	-1	1000
22822915	0	12	0	-100	0	230	101300000	1000	0	0	-1	1000
22835475	0	8	0	-100	0	230	101300000	1000	0	0	-1	1000
22848035	0	12	0	-100	0	230	101300000	1000	0	0	-1	1000
22860595	0	9	0	-100	0	230	101300000	1000	0	0	-1	1000
22873155	0	8	0	-100	0	230	101300000	1000	0	0	-1	1000
22885715	0	9	0	-100	0	230	101300000	1000	0	0	-1	1000
22898275	0	12	0	-100	0	230	101300000	1000	0	0	-1	1000
22910835	0	8	0	-100	0	230	101300000	1000	0	0	-1	1000
22923395	2	7	0	-100	0	230	101300000	1000	0	0	-1	1000
22935955	0	7	0	-100	0	230	101300000	1000	0	0	-1	1000
22948515	0	14	0	-100	0	230	101300000	1000	0	0	-1	1000
22961075	0	9	0	-100	0	230	101300000	1000	0	0	-1	1000
22973635	0	7	0	-100	0	230	101300000	1000	0	0	-1	1000
22986195	0	8	0	-100	0	230	101300000	1000	0	0	-1	1000
22998755	2	8	0	-100	0	230	101300000	1000	0	0	-1	1000
23011315	0	8	0	-100	0	230	101300000	1000	0	0	-1	1000
23023875	0	10	0	-100	0	230	101300000	1000	0	0	-1	1000
23036435	0	13	0	-100	0	230	101300000	1000	0	0	-1	1000
23048995	0	8	0	-100	0	230	101300000	1000	0	0	-1	1000
23061555	0	8	0	-100	0	230	101300000	1000	0	0	-1	1000
23074115	0	8	0	-100	0	230	101300000	1000	0	0	-1	1000
23086675	0	8	0	-100	0	230	101300000	1000	0	0	-1	1000
23099235	0	9	0	-100	0	230	101300000	1000	0	0	-1	1000
23111795	0	12	0	-100	0	230	101300000	1000	0	0	-1	1000
23124355	0	15	0	-100	0	230	101300000	1000	0	0	-1	1000
23136915	2	7	0	-100	0	230	101300000	1000	0	0	-1	1000
23149475	0	8	0	-100	0	230	101300000	1000	0	0	-1	1000
23162035	0	4	0	-100	0	230	101300000	1000	0	0	-1	1000
23174595	0	7	0	-100	0	230	101300000	1000	0	0	-1	1000
23187155	0	7	0	-100	0	230	101300000	1000	0	0	-1	1000
23199715	0	8	0	-100	0	230	101300000	1000	0	0	-1	1000
23212275	0	10	0	-100	0	230	101300000	1000	0	0	-1	1000
23224835	0	15	0	-100	0	230	101300000	1000	0	0	-1	1000
23237395	0	15	0	-100	0	230	101300000	1000	0	0	-1	1000
23249955	2	7	0	-100	0	230	101300000	1000	0	0	-1	1000
23262515	2	7	0	-100	0	230	101300000	1000	0	0	-1	1000
23275075	0	11	0	-100	0	230	101300000	1000	0	0	-1	1000
23287635	0	6	0	-100	0	230	101300000	1000	0	0	-1	1000
23300195	0	7	0	-100	0	230	101300000	1000	0	0	-1	1000
23312755	0	9	0	-100	0	230	101300000	1000	0	0	-1	1000
23325315	2	7	0	-100	0	230	101300000	1000	0	0	-1	1000
23337875	0	8	0	-100	0	230	101300000	1000	0	0	-1	1000
23350435	0	8	0	-100	0	230	101300000	1000	0	0	-1	1000
23362995	0	6	0	-100	0	230	101300000	1000	0	0	-1	1000
23375555	0	15	0	-100	0	230	101300000	1000	0	0	-1	1000
23388115	0	9	0	-100	0	230	101300000	1000	0	0	-1	1000
23400675	0	8	0	-100	0	230	101300000	1000	0	0	-1	1000
23413235	0	7	0	-100	0	230	101300000	1000	0	0	-1	1000
23425795	0	11	0	-100	0	230	101300000	1000	0	0	-1	1000
23438355	0	12	0	-100	0	230	101300000	1000	0	0	-1	1000
23450915	0	4	0	-100	0	230	101300000	1000	0	0	-1	1000
23463475	0	6	0	-100	0	230	101300000	1000	0	0	-1	1000
23476035	4	8	0	-100	0	230	101300000	1000	0	0	-1	1000
23488595	0	6	0	-100	0	230	101300000	1000	0	0	-1	1000
23501155	0	9	0	-100	0	230	101300000	1000	0	0	-1	1000
23513715	0	13	0	-100	0	230	101300000	1000	0	0	-1	1000
23526275	0	7	0	-100	0	230	101300000	1000	0	0	-1	1000
23538835	0	7	0	-100	0	230	101300000	1000	0	0	-1	1000
23551395	0	8	0	-100	0	230	101300000	1000	0	0	-1	1000
23563955	2	7	0	-100	0	230	101300000	1000	0	0	-1	1000
23576515	0	4	0	-100	0	230	101300000	1000	0	0	-1	1000
23589075	0	6	0	-100	0	230	101300000	1000	0	0	-1	1000
23601635	0	16	0	-100	0	230	101300000	1000	0	0	-1	1000
23614195	0	12	0	-100	0	230	101300000	1000	0	0	-1	1000
23626755	0	9	0	-100	0	230	101300000	1000	0	0	-1	1000
23639315	0	10	0	-100	0	230	101300000	1000	0	0	-1	1000
23651875	2	7	0	-100	0	230	101300000	1000	0	0	-1	1000
23664435	0	8	0	-100	0	230	101300000	1000	0	0	-1	1000
23676995	0	5	0	-100	0	230	101300000	1000	0	0	-1	1000
23689555	2	6	0	-100	0	230	101300000	1000	0	0	-1	1000
23702115	0	8	0	-100	0	230	101300000	1000	0	0	-1	1000
23714675	0	11	0	-100	0	230	101300000	1000	0	0	-1	1000
23727235	2	8	0	-100	0	230	101300000	1000	0	0	-1	1000
23739795	0	7	0	-100	0	230	101300000	1000	0	0	-1	1000
23752355	0	9	0	-100	0	230	101300000	1000	0	0	-1	1000
23764915	2	8	0	-100	0	230	101300000	1000	0	0	-1	1000
23777475	0	8	0	-100	0	230	101300000	1000	0	0	-1	1000
23790035	0	11	0	-100	0	230	101300000	1000	0	0	-1	1000
23802595	0	8	0	-100	0	230	101300000	1000	0	0	-1	1000
23815155	0	8	0	-100	0	230	101300000	1000	0	0	-1	1000
23827715	2	6	0	-100	0	230	101300000	1000	0	0	-1	1000
23840275	0	5	0	-100	0	230	101300000	1000	0	0	-1	1000
23852835	0	8	0	-100	0	230	101300000	1000	0	0	-1	1000
23865395	0	12	0	-100	0	230	101300000	1000	0	0	-1	1000
23877955	0	4	0	-100	0	230	101300000	1000	0	0	-1	1000
23890515	0	8	0	-100	0	230	101300000	1000	0	0	-1	1000
23903075	0	12	0	-100	0	230	101300000	1000	0	0	-1	1000
23915635	0	6	0	-100	0	230	101300000	1000	0	0	-1	1000
23928195	0	6	0	-100	0	230	101300000	1000	0	0	-1	1000
23940755	0	14	0	-100	0	230	101300000	1000	0	0	-1	1000
23953315	0	7	0	-100	0	230	101300000	1000	0	0	-1	1000
23965875	0	7	0	-100	0	230	101300000	1000	0	0	-1	1000
23978435	0	13	0	-100	0	230	101300000	1000	0	0	-1	1000
23990995	0	9	0	-100	0	230	101300000	1000	0	0	-1	1000
24003555	0	8	0	-100	0	230	101300000	1000	0	0	-1	1000
24016115	0	15	0	-100	0	230	101300000	1000	0	0	-1	1000
24028675	0	8	0	-100	0	230	101300000	1000	0	0	-1	1000
24041235	0	7	0	-100	0	230	101300000	1000	0	0	-1	1000
24053795	0	13	0	-100	0	230	101300000	1000	0	0	-1	1000
24066355	0	6	0	-100	0	230	101300000	1000	0	0	-1	1000
24078915	0	14	0	-100	0	230	101300000	1000	0	0	-1	1000
24091475	0	11	0	-100	0	230	101300000	1000	0	0	-1	1000
24104035	0	7	0	-100	0	230	101300000	1000	0	0	-1	1000
24116595	0	11	0	-100	0	230	101300000	1000	0	0	-1	1000
24129155	2	6	0	-100	0	230	101300000	1000	0	0	-1	1000
24141715	0	8	0	-100	0	230	101300000	1000	0	0	-1	1000
24154275	0	7	0	-100	0	230	101300000	1000	0	0	-1	1000
24166835	0	8	0	-100	0	230	101300000	1000	0	0	-1	1000
24179395	0	14	0	-100	0	230	101300000	1000	0	0	-1	1000
24191955	0	13	0	-100	0	230	101300000	1000	0	0	-1	1000
24204515	0	8	0	-100	0	230	101300000	1000	0	0	-1	1000
24217075	0	7	0	-100	0	230	101300000	1000	0	0	-1	1000
24229635	0	9	0	-100	0	230	101300000	1000	0	0	-1	1000
24242195	0	14	0	-100	0	230	101300000	1000	0	0	-1	1000
24254755	0	9	0	-100	0	230	101300000	1000	0	0	-1	1000
24267315	0	4	0	-100	0	230	101300000	1000	0	0	-1	1000
24279875	0	8	0	-100	0	230	101300000	1000	0	0	-1	1000
24292435	0	16	0	-100	0	230	101300000	1000	0	0	-1	1000
24304995	0	9	0	-100	0	230	101300000	1000	0	0	-1	1000
24317555	0	9	0	-100	0	230	101300000	1000	0	0	-1	1000
24330115	0	8	0	-100	0	230	101300000	1000	0	0	-1	1000
24342675	0	15	0	-100	0	230	101300000	1000	0	0	-1	1000
24355235	0	8	0	-100	0	230	101300000	1000	0	0	-1	1000
24367795	0	6	0	-100	0	230	101300000	1000	0	0	-1	1000
24380355	0	7	0	-100	0	230	101300000	1000	0	0	-1	1000
24392915	0	13	0	-100	0	230	101300000	1000	0	0	-1	1000
24405475	0	8	0	-100	0	230	101300000	1000	0	0	-1	1000
24418035	0	7	0	-100	0	230	101300000	1000	0	0	-1	1000
24430595	0	10	0	-100	0	230	101300000	1000	0	0	-1	1000
24443155	0	15	0	-100	0	230	101300000	1000	0	0	-1	1000
24455715	2	8	0	-100	0	230	101300000	1000	0	0	-1	1000
24468275	0	7	0	-100	0	230	101300000	1000	0	0	-1	1000
24480835	0	8	0	-100	0	230	101300000	1000	0	0	-1	1000
24493395	0	9	0	-100	0	230	101300000	1000	0	0	-1	1000
24505955	4	8	0	-100	0	230	101300000	1000	0	0	-1	1000
24518515	0	8	0	-100	0	230	101300000	1000	0	0	-1	1000
24531075	0	8	0	-100	0	230	101300000	1000	0	0	-1	1000
24543635	0	9	0	-100	0	230	101300000	1000	0	0	-1	1000
24556195	0	12	0	-100	0	230	101300000	1000	0	0	-1	1000
24568755	0	8	0	-100	0	230	101300000	1000	0	0	-1	1000
24581315	0	10	0	-100	0	230	101300000	1000	0	0	-1	1000
24593875	2	6	0	-100	0	230	101300000	1000	0	0	-1	1000
24606435	0	8	0	-100	0	230	101300000	1000	0	0	-1	1000
24618995	0	8	0	-100	0	230	101300000	1000	0	0	-1	1000
24631555	0	16	0	-100	0	230	101300000	1000	0	0	-1	1000
24644115	0	8	0	-100	0	230	101300000	1000	0	0	-1	1000
24656675	0	7	0	-100	0	230	101300000	1000	0	0	-1	1000
24669235	0	16	0	-100	0	230	101300000	1000	0	0	-1	1000
24681795	0	10	0	-100	0	230	101300000	1000	0	0	-1	1000
24694355	0	8	0	-100	0	230	101300000	1000	0	0	-1	1000
24706915	0	10	0	-100	0	230	101300000	1000	0	0	-1	1000
24719475	0	8	0	-100	0	230	101300000	1000	0	0	-1	1000
24732035	0	8	0	-100	0	230	101300000	1000	0	0	-1	1000
24744595	2	8	0	-100	0	230	101300000	1000	0	0	-1	1000
24757155	0	7	0	-100	0	230	101300000	1000	0	0	-1	1000
24769715	0	14	0	-100	0	230	101300000	1000	0	0	-1	1000
24782275	0	7	0	-100	0	230	101300000	1000	0	0	-1	1000
24794835	0	8	0	-100	0	230	101300000	1000	0	0	-1	1000
24807395	0	12	0	-100	0	230	101300000	1000	0	0	-1	1000
24819955	0	9	0	-100	0	230	101300000	1000	0	0	-1	1000
24832515	0	8	0	-100	0	230	101300000	1000	0	0	-1	1000
24845075	0	14	0	-100	0	230	101300000	1000	0	0	-1	1000
24857635	0	6	0	-100	0	230	101300000	1000	0	0	-1	1000
24870195	0	9	0	-100	0	230	101300000	1000	0	0	-1	1000
24882755	0	8	0	-100	0	230	101300000	1000	0	0	-1	1000
24895315	0	8	0	-100	0	230	101300000	1000	0	0	-1	1000
24907875	0	12	0	-100	0	230	101300000	1000	0	0	-1	1000
24920435	0	7	0	-100	0	230	101300000	1000	0	0	-1	1000
24932995	0	7	0	-100	0	230	101300000	1000	0	0	-1	1000
24945555	0	8	0	-100	0	230	101300000	1000	0	0	-1	1000
24958115	0	7	0	-100	0	230	101300000	1000	0	0	-1	1000
24970675	0	9	0	-100	0	230	101300000	1000	0	0	-1	1000
24983235	0	12	0	-100	0	230	101300000	1000	0	0	-1	1000
24995795	0	6	0	-100	0	230	101300000	1000	0	0	-1	1000
25008355	0	6	0	-100	0	230	101300000	1000	0	0	-1	1000
25020915	0	13	0	-100	0	230	101300000	1000	0	0	-1	1000
25033475	0	11	0	-100	0	230	101300000	1000	0	0	-1	1000
25046035	0	6	0	-100	0	230	101300000	1000	0	0	-1	1000
25058595	0	10	0	-100	0	230	101300000	1000	0	0	-1	1000
25071155	0	12	0	-100	0	230	101300000	1000	0	0	-1	1000
25083715	0	8	0	-100	0	230	101300000	1000	0	0	-1	1000
25096275	0	11	0	-100	0	230	101300000	1000	0	0	-1	1000
25108835	0	10	0	-100	0	230	101300000	1000	0	0	-1	1000
25121395	0	7	0	-100	0	230	101300000	1000	0	0	-1	1000
25133955	0	12	0	-100	0	230	101300000	1000	0	0	-1	1000
25146515	0	11	0	-100	0	230	101300000	1000	0	0	-1	1000
25159075	0	8	0	-100	0	230	101300000	1000	0	0	-1	1000
25171635	0	10	0	-100	0	230	101300000	1000	0	0	-1	1000
25184195	0	12	0	-100	0	230	101300000	1000	0	0	-1	1000
25196755	0	6	0	-100	0	230	101300000	1000	0	0	-1	1000
25209315	0	7	0	-100	0	230	101300000	1000	0	0	-1	1000
25221875	2	6	0	-100	0	230	101300000	1000	0	0	-1	1000
25234435	0	4	0	-100	0	230	101300000	1000	0	0	-1	1000
25246995	0	8	0	-100	0	230	101300000	1000	0	0	-1	1000
25259555	0	9	0	-100	0	230	101300000	1000	0	0	-1	1000
25272115	2	7	0	-100	0	230	101300000	1000	0	0	-1	1000
25284675	0	8	0	-100	0	230	101300000	1000	0	0	-1	1000
25297235	0	5	0	-100	0	230	101300000	1000	0	0	-1	1000
25309795	0	7	0	-100	0	230	101300000	1000	0	0	-1	1000
25322355	0	8	0	-100	0	230	101300000	1000	0	0	-1	1000
25334915	0	14	0	-100	0	230	101300000	1000	0	0	-1	1000
25347475	0	11	0	-100	0	230	101300000	1000	0	0	-1	1000
25360035	0	5	0	-100	0	230	101300000	1000	0	0	-1	1000
25372595	0	6	0	-100	0	230	101300000	1000	0	0	-1	1000
25385155	0	8	0	-100	0	230	101300000	1000	0	0	-1	1000
25397715	0	9	0	-100	0	230	101300000	1000	0	0	-1	1000
25410275	0	9	0	-100	0	230	101300000	1000	0	0	-1	1000
25422835	0	13	0	-100	0	230	101300000	1000	0	0	-1	1000
25435395	2	6	0	-100	0	230	101300000	1000	0	0	-1	1000
25447955	0	10	0	-100	0	230	101300000	1000	0	0	-1	1000
25460515	0	8	0	-100	0	230	101300000	1000	0	0	-1	1000
25473075	0	7	0	-100	0	230	101300000	1000	0	0	-1	1000
25485635	0	8	0	-100	0	230	101300000	1000	0	0	-1	1000
25498195	0	8	0	-100	0	230	101300000	1000	0	0	-1	1000
25510755	0	16	0	-100	0	230	101300000	1000	0	0	-1	1000
25523315	2	7	0	-100	0	230	101300000	1000	0	0	-1	1000
25535875	0	6	0	-100	0	230	101300000	1000	0	0	-1	1000
25548435	0	7	0	-100	0	230	101300000	1000	0	0	-1	1000
25560995	0	7	0	-100	0	230	101300000	1000	0	0	-1	1000
25573555	0	12	0	-100	0	230	101300000	1000	0	0	-1	1000
25586115	0	11	0	-100	0	230	101300000	1000	0	0	-1	1000
25598675	0	6	0	-100	0	230	101300000	1000	0	0	-1	1000
25611235	0	6	0	-100	0	230	101300000	1000	0	0	-1	1000
25623795	0	15	0	-100	0	230	101300000	1000	0	0	-1	1000
25636355	0	8	0	-100	0	230	101300000	1000	0	0	-1	1000
25648915	0	6	0	-100	0	230	101300000	1000	0	0	-1	1000
25661475	0	10	0	-100	0	230	101300000	1000	0	0	-1	1000
25674035	2	7	0	-100	0	230	101300000	1000	0	0	-1	1000
25686595	0	8	0	-100	0	230	101300000	1000	0	0	-1	1000
25699155	0	8	0	-100	0	230	101300000	1000	0	0	-1	1000
25711715	0	6	0	-100	0	230	101300000	1000	0	0	-1	1000
25724275	0	14	0	-100	0	230	101300000	1000	0	0	-1	1000
25736835	2	7	0	-100	0	230	101300000	1000	0	0	-1	1000
25749395	0	9	0	-100	0	230	101300000	1000	0	0	-1	1000
25761955	0	8	0	-100	0	230	101300000	1000	0	0	-1	1000
25774515	0	12	0	-100	0	230	101300000	1000	0	0	-1	1000
25787075	0	4	0	-100	0	230	101300000	1000	0	0	-1	1000
25799635	0	9	0	-100	0	230	101300000	1000	0	0	-1	1000
25812195	2	6	0	-100	0	230	101300000	1000	0	0	-1	1000
25824755	0	8	0	-100	0	230	101300000	1000	0	0	-1	1000
25837315	0	10	0	-100	0	230	101300000	1000	0	0	-1	1000
25849875	0	11	0	-100	0	230	101300000	1000	0	0	-1	1000
25862435	0	6	0	-100	0	230	101300000	1000	0	0	-1	1000
25874995	0	5	0	-100	0	230	101300000	1000	0	0	-1	1000
25887555	0	8	0	-100	0	230	101300000	1000	0	0	-1	1000
25900115	0	6	0	-100	0	230	101300000	1000	0	0	-1	1000
25912675	0	12	0	-100	0	230	101300000	1000	0	0	-1	1000
25925235	0	5	0	-100	0	230	101300000	1000	0	0	-1	1000
25937795	0	7	0	-100	0	230	101300000	1000	0	0	-1	1000
25950355	0	12	0	-100	0	230	101300000	1000	0	0	-1	1000
25962915	0	8	0	-100	0	230	101300000	1000	0	0	-1	1000
25975475	0	8	0	-100	0	230	101300000	1000	0	0	-1	1000
25988035	0	15	0	-100	0	230	101300000	1000	0	0	-1	1000
26000595	0	8	0	-100	0	230	101300000	1000	0	0	-1	1000
26013155	0	8	0	-100	0	230	101300000	1000	0	0	-1	1000
26025715	0	16	0	-100	0	230	101300000	1000	0	0	-1	1000
26038275	0	8	0	-100	0	230	101300000	1000	0	0	-1	1000
26050835	0	8	0	-100	0	230	101300000	1000	0	0	-1	1000
26063395	0	13	0	-100	0	230	101300000	1000	0	0	-1	1000
26075955	0	7	0	-100	0	230	101300000	1000	0	0	-1	1000
26088515	0	6	0	-100	0	230	101300000	1000	0	0	-1	1000
26101075	0	13	0	-100	0	230	101300000	1000	0	0	-1	1000
26113635	0	8	0	-100	0	230	101300000	1000	0	0	-1	1000
26126195	0	7	0	-100	0	230	101300000	1000	0	0	-1	1000
26138755	2	8	0	-100	0	230	101300000	1000	0	0	-1	1000
26151315	0	8	0	-100	0	230	101300000	1000	0	0	-1	1000
26163875	0	6	0	-100	0	230	101300000	1000	0	0	-1	1000
26176435	0	13	0	-100	0	230	101300000	1000	0	0	-1	1000
26188995	2	7	0	-100	0	230	101300000	1000	0	0	-1	1000
26201555	0	8	0	-100	0	230	101300000	1000	0	0	-1	1000
26214115	0	10	0	-100	0	230	101300000	1000	0	0	-1	1000
26226675	0	12	0	-100	0	230	101300000	1000	0	0	-1	1000
26239235	0	8	0	-100	0	230	101300000	1000	0	0	-1	1000
26251795	0	13	0	-100	0	230	101300000	1000	0	0	-1	1000
26264355	0	9	0	-100	0	230	101300000	1000	0	0	-1	1000
26276915	0	6	0	-100	0	230	101300000	1000	0	0	-1	1000
26289475	0	13	0	-100	0	230	101300000	1000	0	0	-1	1000
26302035	0	4	0	-100	0	230	101300000	1000	0	0	-1	1000
26314595	0	13	0	-100	0	230	101300000	1000	0	0	-1	1000
26327155	0	7	0	-100	0	230	101300000	1000	0	0	-1	1000
26339715	0	8	0	-100	0	230	101300000	1000	0	0	-1	1000
26352275	0	7	0	-100	0	230	101300000	1000	0	0	-1	1000
26364835	0	10	0	-100	0	230	101300000	1000	0	0	-1	1000
26377395	0	11	0	-100	0	230	101300000	1000	0	0	-1	1000
26389955	0	8	0	-100	0	230	101300000	1000	0	0	-1	1000
26402515	0	15	0	-100	0	230	101300000	1000	0	0	-1	1000
26415075	0	7	0	-100	0	230	101300000	1000	0	0	-1	1000
26427635	0	15	0	-100	0	230	101300000	1000	0	0	-1	1000
26440195	0	8	0	-100	0	230	101300000	1000	0	0	-1	1000
26452755	0	10	0	-100	0	230	101300000	1000	0	0	-1	1000
26465315	0	8	0	-100	0	230	101300000	1000	0	0	-1	1000
26477875	0	10	0	-100	0	230	101300000	1000	0	0	-1	1000
26490435	0	8	0	-100	0	230	101300000	1000	0	0	-1	1000
26502995	0	4	0	-100	0	230	101300000	1000	0	0	-1	1000
26515555	0	8	0	-100	0	230	101300000	1000	0	0	-1	1000
26528115	0	7	0	-100	0	230	101300000	1000	0	0	-1	1000
26540675	0	13	0	-100	0	230	101300000	1000	0	0	-1	1000
26553235	0	8	0	-100	0	230	101300000	1000	0	0	-1	1000
26565795	0	10	0	-100	0	230	101300000	1000	0	0	-1	1000
26578355	0	12	0	-100	0	230	101300000	1000	0	0	-1	1000
26590915	0	6	0	-100	0	230	101300000	1000	0	0	-1	1000
26603475	0	8	0	-100	0	230	101300000	1000	0	0	-1	1000
26616035	2	8	0	-100	0	230	101300000	1000	0	0	-1	1000
26628595	0	5	0	-100	0	230	101300000	1000	0	0	-1	1000
26641155	0	9	0	-100	0	230	101300000	1000	0	0	-1	1000
26653715	0	8	0	-100	0	230	101300000	1000	0	0	-1	1000
26666275	0	5	0	-100	0	230	101300000	1000	0	0	-1	1000
26678835	0	13	0	-100	0	230	101300000	1000	0	0	-1	1000
26691395	0	4	0	-100	0	230	101300000	1000	0	0	-1	1000
26703955	0	10	0	-100	0	230	101300000	1000	0	0	-1	1000
26716515	0	9	0	-100	0	230	101300000	1000	0	0	-1	1000
26729075	0	7	0	-100	0	230	101300000	1000	0	0	-1	1000
26741635	2	7	0	-100	0	230	101300000	1000	0	0	-1	1000
26754195	0	6	0	-100	0	230	101300000	1000	0	0	-1	1000
26766755	2	7	0	-100	0	230	101300000	1000	0	0	-1	1000
26779315	0	7	0	-100	0	230	101300000	1000	0	0	-1	1000
26791875	0	11	0	-100	0	230	101300000	1000	0	0	-1	1000
26804435	0	8	0	-100	0	230	101300000	1000	0	0	-1	1000
26816995	0	7	0	-100	0	230	101300000	1000	0	0	-1	1000
26829555	0	15	0	-100	0	230	101300000	1000	0	0	-1	1000
26842115	0	5	0	-100	0	230	101300000	1000	0	0	-1	1000
26854675	0	8	0	-100	0	230	101300000	1000	0	0	-1	1000
26867235	0	8	0	-100	0	230	101300000	1000	0	0	-1	1000
26879795	0	6	0	-100	0	230	101300000	1000	0	0	-1	1000
26892355	2	8	0	-100	0	230	101300000	1000	0	0	-1	1000
26904915	0	8	0	-100	0	230	101300000	1000	0	0	-1	1000
26917475	0	12	0	-100	0	230	101300000	1000	0	0	-1	1000
26930035	0	6	0	-100	0	230	101300000	1000	0	0	-1	1000
26942595	2	8	0	-100	0	230	101300000	1000	0	0	-1	1000
26955155	0	6	0	-100	0	230	101300000	1000	0	0	-1	1000
26967715	2	8	0	-100	0	230	101300000	1000	0	0	-1	1000
26980275	0	8	0	-100	0	230	101300000	1000	0	0	-1	1000
26992835	2	8	0	-100	0	230	101300000	1000	0	0	-1	1000
27005395	0	7	0	-100	0	230	101300000	1000	0	0	-1	1000
27017955	0	13	0	-100	0	230	101300000	1000	0	0	-1	1000
27030515	0	6	0	-100	0	230	101300000	1000	0	0	-1	1000
27043075	0	11	0	-100	0	230	101300000	1000	0	0	-1	1000
