timestamp	voltage	current	windSpeed	pitchAngle	rpm	temperature	ambientPressure	humidity	accelerationX	accelerationY	accelerationZ	currentSink
7039070	2013	0	0	-100	0	230	101300000	1000	0	0	-1	0
7046523	2006	0	0	-100	0	230	101300000	1000	0	0	-1	0
7059083	2012	0	0	-100	0	230	101300000	1000	0	0	-1	0
7071643	2010	0	0	-100	0	230	101300000	1000	0	0	-1	0
7084203	2007	0	0	-100	0	230	101300000	1000	0	0	-1	0
7096763	2005	0	0	-100	0	230	101300000	1000	0	0	-1	0
7109323	2003	0	0	-100	0	230	101300000	1000	0	0	-1	0
7121883	2009	0	0	-100	0	230	101300000	1000	0	0	-1	0
7134443	2012	0	0	-100	0	230	101300000	1000	0	0	-1	0
7147004	2007	0	0	-100	0	230	101300000	1000	0	0	-1	0
7159563	2005	2	0	-100	0	230	101300000	1000	0	0	-1	0
7172123	2005	1	0	-100	0	230	101300000	1000	0	0	-1	0
7184683	2011	0	0	-100	0	230	101300000	1000	0	0	-1	0
7197243	2009	0	0	-100	0	230	101300000	1000	0	0	-1	0
7209803	2005	0	0	-100	0	230	101300000	1000	0	0	-1	0
7222363	2005	4	0	-100	0	230	101300000	1000	0	0	-1	0
7234923	2005	0	0	-100	0	230	101300000	1000	0	0	-1	0
7247483	2012	0	0	-100	0	230	101300000	1000	0	0	-1	0
7260043	2004	0	0	-100	0	230	101300000	1000	0	0	-1	0
7272603	2002	1	0	-100	0	230	101300000	1000	0	0	-1	0
7285163	2002	0	0	-100	0	230	101300000	1000	0	0	-1	0
7297723	2011	0	0	-100	0	230	101300000	1000	0	0	-1	0
7310283	2009	0	0	-100	0	230	101300000	1000	0	0	-1	0
7322843	2007	0	0	-100	0	230	101300000	1000	0	0	-1	0
7335403	2004	0	0	-100	0	230	101300000	1000	0	0	-1	0
7347963	2004	4	0	-100	0	230	101300000	1000	0	0	-1	0
7741355	869	1280	0	-100	0	230	101300000	1000	0	0	-1	1000
7753915	875	1281	0	-100	0	230	101300000	1000	0	0	-1	1000
7766475	858	1279	0	-100	0	230	101300000	1000	0	0	-1	1000
7779035	858	1285	0	-100	0	230	101300000	1000	0	0	-1	1000
7791595	858	1285	0	-100	0	230	101300000	1000	0	0	-1	1000
7804155	855	1279	0	-100	0	230	101300000	1000	0	0	-1	1000
7816715	860	1282	0	-100	0	230	101300000	1000	0	0	-1	1000
7829275	862	1283	0	-100	0	230	101300000	1000	0	0	-1	1000
7841835	851	1286	0	-100	0	230	101300000	1000	0	0	-1	1000
7854395	858	1286	0	-100	0	230	101300000	1000	0	0	-1	1000
7866955	866	1281	0	-100	0	230	101300000	1000	0	0	-1	1000
7879515	863	1279	0	-100	0	230	101300000	1000	0	0	-1	1000
7892075	865	1281	0	-100	0	230	101300000	1000	0	0	-1	1000
7904635	858	1285	0	-100	0	230	101300000	1000	0	0	-1	1000
7917195	866	1286	0	-100	0	230	101300000	1000	0	0	-1	1000
7929755	854	1286	0	-100	0	230	101300000	1000	0	0	-1	1000
7942315	869	1281	0	-100	0	230	101300000	1000	0	0	-1	1000
7954875	860	1281	0	-100	0	230	101300000	1000	0	0	-1	1000
7967435	862	1281	0	-100	0	230	101300000	1000	0	0	-1	1000
7979995	865	1280	0	-100	0	230	101300000	1000	0	0	-1	1000
7992555	851	1284	0	-100	0	230	101300000	1000	0	0	-1	1000
8005115	860	1284	0	-100	0	230	101300000	1000	0	0	-1	1000
8017675	867	1288	0	-100	0	230	101300000	1000	0	0	-1	1000
8030235	858	1287	0	-100	0	230	101300000	1000	0	0	-1	1000
8042795	861	1286	0	-100	0	230	101300000	1000	0	0	-1	1000
8055355	853	1285	0	-100	0	230	101300000	1000	0	0	-1	1000
8067915	877	1281	0	-100	0	230	101300000	1000	0	0	-1	1000
8080475	862	1283	0	-100	0	230	101300000	1000	0	0	-1	1000
8093035	856	1281	0	-100	0	230	101300000	1000	0	0	-1	1000
8105595	867	1285	0	-100	0	230	101300000	1000	0	0	-1	1000
8118155	855	1288	0	-100	0	230	101300000	1000	0	0	-1	1000
8130715	861	1280	0	-100	0	230	101300000	1000	0	0	-1	1000
8143275	858	1280	0	-100	0	230	101300000	1000	0	0	-1	1000
8155835	861	1280	0	-100	0	230	101300000	1000	0	0	-1	1000
8168395	864	1282	0	-100	0	230	101300000	1000	0	0	-1	1000
8180955	858	1286	0	-100	0	230	101300000	1000	0	0	-1	1000
8193515	856	1284	0	-100	0	230	101300000	1000	0	0	-1	1000
8206075	872	1281	0	-100	0	230	101300000	1000	0	0	-1	1000
8218635	863	1280	0	-100	0	230	101300000	1000	0	0	-1	1000
8231195	856	1286	0	-100	0	230	101300000	1000	0	0	-1	1000
8243755	851	1288	0	-100	0	230	101300000	1000	0	0	-1	1000
8256315	869	1284	0	-100	0	230	101300000	1000	0	0	-1	1000
8268875	865	1278	0	-100	0	230	101300000	1000	0	0	-1	1000
8281435	856	1281	0	-100	0	230	101300000	1000	0	0	-1	1000
8293995	860	1280	0	-100	0	230	101300000	1000	0	0	-1	1000
8306555	865	1281	0	-100	0	230	101300000	1000	0	0	-1	1000
8319115	867	1281	0	-100	0	230	101300000	1000	0	0	-1	1000
8331675	860	1280	0	-100	0	230	101300000	1000	0	0	-1	1000
8344235	853	1285	0	-100	0	230	101300000	1000	0	0	-1	1000
8356795	863	1286	0	-100	0	230	101300000	1000	0	0	-1	1000
8369355	865	1283	0	-100	0	230	101300000	1000	0	0	-1	1000
8381915	860	1279	0	-100	0	230	101300000	1000	0	0	-1	1000
8394475	853	1286	0	-100	0	230	101300000	1000	0	0	-1	1000
8407035	872	1287	0	-100	0	230	101300000	1000	0	0	-1	1000
8419595	860	1284	0	-100	0	230	101300000	1000	0	0	-1	1000
8432155	860	1279	0	-100	0	230	101300000	1000	0	0	-1	1000
8444715	855	1280	0	-100	0	230	101300000	1000	0	0	-1	1000
8457275	870	1287	0	-100	0	230	101300000	1000	0	0	-1	1000
8469835	863	1285	0	-100	0	230	101300000	1000	0	0	-1	1000
8482395	866	1282	0	-100	0	230	101300000	1000	0	0	-1	1000
8494955	858	1279	0	-100	0	230	101300000	1000	0	0	-1	1000
8507515	877	1287	0	-100	0	230	101300000	1000	0	0	-1	1000
8570315	858	1285	0	-100	0	230	101300000	1000	0	0	-1	1000
8582875	863	1279	0	-100	0	230	101300000	1000	0	0	-1	1000
8595435	856	1280	0	-100	0	230	101300000	1000	0	0	-1	1000
8607995	867	1279	0	-100	0	230	101300000	1000	0	0	-1	1000
8620555	858	1283	0	-100	0	230	101300000	1000	0	0	-1	1000
8633115	860	1280	0	-100	0	230	101300000	1000	0	0	-1	1000
8645675	853	1284	0	-100	0	230	101300000	1000	0	0	-1	1000
8658235	865	1286	0	-100	0	230	101300000	1000	0	0	-1	1000
8670795	860	1284	0	-100	0	230	101300000	1000	0	0	-1	1000
8683355	860	1278	0	-100	0	230	101300000	1000	0	0	-1	1000
8695915	882	1281	0	-100	0	230	101300000	1000	0	0	-1	1000
8708475	860	1280	0	-100	0	230	101300000	1000	0	0	-1	1000
8783835	856	1284	0	-100	0	230	101300000	1000	0	0	-1	1000
8796395	868	1289	0	-100	0	230	101300000	1000	0	0	-1	1000
8808955	855	1288	0	-100	0	230	101300000	1000	0	0	-1	1000
8821515	856	1284	0	-100	0	230	101300000	1000	0	0	-1	1000
8834075	858	1280	0	-100	0	230	101300000	1000	0	0	-1	1000
8846635	872	1279	0	-100	0	230	101300000	1000	0	0	-1	1000
8859195	863	1280	0	-100	0	230	101300000	1000	0	0	-1	1000
8871755	860	1279	0	-100	0	230	101300000	1000	0	0	-1	1000
8884315	853	1289	0	-100	0	230	101300000	1000	0	0	-1	1000
8896875	865	1284	0	-100	0	230	101300000	1000	0	0	-1	1000
8909435	867	1282	0	-100	0	230	101300000	1000	0	0	-1	1000
8921995	861	1284	0	-100	0	230	101300000	1000	0	0	-1	1000
8934555	856	1282	0	-100	0	230	101300000	1000	0	0	-1	1000
8947115	860	1288	0	-100	0	230	101300000	1000	0	0	-1	1000
8959675	860	1282	0	-100	0	230	101300000	1000	0	0	-1	1000
8972235	858	1280	0	-100	0	230	101300000	1000	0	0	-1	1000
8984795	870	1286	0	-100	0	230	101300000	1000	0	0	-1	1000
8997355	858	1286	0	-100	0	230	101300000	1000	0	0	-1	1000
9009915	862	1280	0	-100	0	230	101300000	1000	0	0	-1	1000
9022475	856	1280	0	-100	0	230	101300000	1000	0	0	-1	1000
9035035	872	1283	0	-100	0	230	101300000	1000	0	0	-1	1000
9047595	861	1288	0	-100	0	230	101300000	1000	0	0	-1	1000
9060155	853	1283	0	-100	0	230	101300000	1000	0	0	-1	1000
9072715	862	1277	0	-100	0	230	101300000	1000	0	0	-1	1000
9085275	870	1281	0	-100	0	230	101300000	1000	0	0	-1	1000
9097835	860	1285	0	-100	0	230	101300000	1000	0	0	-1	1000
9110395	856	1287	0	-100	0	230	101300000	1000	0	0	-1	1000
9122955	854	1282	0	-100	0	230	101300000	1000	0	0	-1	1000
9135515	872	1280	0	-100	0	230	101300000	1000	0	0	-1	1000
9148075	855	1284	0	-100	0	230	101300000	1000	0	0	-1	1000
9160635	856	1288	0	-100	0	230	101300000	1000	0	0	-1	1000
9173195	861	1280	0	-100	0	230	101300000	1000	0	0	-1	1000
9185755	872	1279	0	-100	0	230	101300000	1000	0	0	-1	1000
9198315	865	1280	0	-100	0	230	101300000	1000	0	0	-1	1000
9210875	856	1284	0	-100	0	230	101300000	1000	0	0	-1	1000
9223435	856	1290	0	-100	0	230	101300000	1000	0	0	-1	1000
9235995	867	1283	0	-100	0	230	101300000	1000	0	0	-1	1000
9248555	863	1283	0	-100	0	230	101300000	1000	0	0	-1	1000
9261115	863	1280	0	-100	0	230	101300000	1000	0	0	-1	1000
9273675	858	1279	0	-100	0	230	101300000	1000	0	0	-1	1000
9286235	865	1283	0	-100	0	230	101300000	1000	0	0	-1	1000
9298795	863	1288	0	-100	0	230	101300000	1000	0	0	-1	1000
9311355	861	1281	0	-100	0	230	101300000	1000	0	0	-1	1000
9323915	860	1279	0	-100	0	230	101300000	1000	0	0	-1	1000
9336475	863	1282	0	-100	0	230	101300000	1000	0	0	-1	1000
9349035	865	1287	0	-100	0	230	101300000	1000	0	0	-1	1000
9361595	856	1282	0	-100	0	230	101300000	1000	0	0	-1	1000
9374155	860	1282	0	-100	0	230	101300000	1000	0	0	-1	1000
9386715	856	1280	0	-100	0	230	101300000	1000	0	0	-1	1000
9399275	867	1279	0	-100	0	230	101300000	1000	0	0	-1	1000
9411835	865	1280	0	-100	0	230	101300000	1000	0	0	-1	1000
9424395	860	1284	0	-100	0	230	101300000	1000	0	0	-1	1000
9436955	853	1288	0	-100	0	230	101300000	1000	0	0	-1	1000
9449515	853	1284	0	-100	0	230	101300000	1000	0	0	-1	1000
9462075	860	1280	0	-100	0	230	101300000	1000	0	0	-1	1000
9474635	867	1280	0	-100	0	230	101300000	1000	0	0	-1	1000
9487195	860	1282	0	-100	0	230	101300000	1000	0	0	-1	1000
9499755	851	1286	0	-100	0	230	101300000	1000	0	0	-1	1000
9512315	853	1290	0	-100	0	230	101300000	1000	0	0	-1	1000
9524875	862	1284	0	-100	0	230	101300000	1000	0	0	-1	1000
9537435	863	1280	0	-100	0	230	101300000	1000	0	0	-1	1000
9549995	858	1284	0	-100	0	230	101300000	1000	0	0	-1	1000
9562555	877	1280	0	-100	0	230	101300000	1000	0	0	-1	1000
9575115	862	1284	0	-100	0	230	101300000	1000	0	0	-1	1000
9587675	856	1286	0	-100	0	230	101300000	1000	0	0	-1	1000
9600235	856	1286	0	-100	0	230	101300000	1000	0	0	-1	1000
9612795	862	1283	0	-100	0	230	101300000	1000	0	0	-1	1000
9625355	863	1280	0	-100	0	230	101300000	1000	0	0	-1	1000
9637915	863	1277	0	-100	0	230	101300000	1000	0	0	-1	1000
9650475	855	1280	0	-100	0	230	101300000	1000	0	0	-1	1000
9663035	870	1279	0	-100	0	230	101300000	1000	0	0	-1	1000
9675595	867	1280	0	-100	0	230	101300000	1000	0	0	-1	1000
9688155	855	1282	0	-100	0	230	101300000	1000	0	0	-1	1000
9700715	856	1281	0	-100	0	230	101300000	1000	0	0	-1	1000
9713275	853	1284	0	-100	0	230	101300000	1000	0	0	-1	1000
9725835	866	1284	0	-100	0	230	101300000	1000	0	0	-1	1000
9738395	864	1281	0	-100	0	230	101300000	1000	0	0	-1	1000
9750955	860	1285	0	-100	0	230	101300000	1000	0	0	-1	1000
9763515	853	1285	0	-100	0	230	101300000	1000	0	0	-1	1000
9776075	858	1280	0	-100	0	230	101300000	1000	0	0	-1	1000
9788635	853	1286	0	-100	0	230	101300000	1000	0	0	-1	1000
9801195	867	1283	0	-100	0	230	101300000	1000	0	0	-1	1000
9813755	862	1288	0	-100	0	230	101300000	1000	0	0	-1	1000
9826315	856	1286	0	-100	0	230	101300000	1000	0	0	-1	1000
9838875	865	1280	0	-100	0	230	101300000	1000	0	0	-1	1000
9851435	858	1281	0	-100	0	230	101300000	1000	0	0	-1	1000
9863995	858	1280	0	-100	0	230	101300000	1000	0	0	-1	1000
9876555	853	1285	0	-100	0	230	101300000	1000	0	0	-1	1000
9889115	849	1288	0	-100	0	230	101300000	1000	0	0	-1	1000
9901675	864	1284	0	-100	0	230	101300000	1000	0	0	-1	1000
9914235	867	1281	0	-100	0	230	101300000	1000	0	0	-1	1000
9926795	863	1279	0	-100	0	230	101300000	1000	0	0	-1	1000
9939355	862	1279	0	-100	0	230	101300000	1000	0	0	-1	1000
9951915	855	1284	0	-100	0	230	101300000	1000	0	0	-1	1000
9964475	851	1287	0	-100	0	230	101300000	1000	0	0	-1	1000
9977035	873	1283	0	-100	0	230	101300000	1000	0	0	-1	1000
9989595	875	1281	0	-100	0	230	101300000	1000	0	0	-1	1000
10002155	862	1280	0	-100	0	230	101300000	1000	0	0	-1	1000
10014715	863	1281	0	-100	0	230	101300000	1000	0	0	-1	1000
10027275	860	1279	0	-100	0	230	101300000	1000	0	0	-1	1000
10039835	867	1283	0	-100	0	230	101300000	1000	0	0	-1	1000
10052395	860	1287	0	-100	0	230	101300000	1000	0	0	-1	1000
10064955	853	1281	0	-100	0	230	101300000	1000	0	0	-1	1000
10077515	870	1281	0	-100	0	230	101300000	1000	0	0	-1	1000
10090075	869	1281	0	-100	0	230	101300000	1000	0	0	-1	1000
10102635	858	1280	0	-100	0	230	101300000	1000	0	0	-1	1000
10115195	858	1283	0	-100	0	230	101300000	1000	0	0	-1	1000
10127755	865	1287	0	-100	0	230	101300000	1000	0	0	-1	1000
10140315	858	1283	0	-100	0	230	101300000	1000	0	0	-1	1000
10152875	861	1281	0	-100	0	230	101300000	1000	0	0	-1	1000
10165435	863	1281	0	-100	0	230	101300000	1000	0	0	-1	1000
10177995	858	1280	0	-100	0	230	101300000	1000	0	0	-1	1000
10190555	855	1284	0	-100	0	230	101300000	1000	0	0	-1	1000
10203115	878	1287	0	-100	0	230	101300000	1000	0	0	-1	1000
10215675	872	1279	0	-100	0	230	101300000	1000	0	0	-1	1000
10228235	860	1280	0	-100	0	230	101300000	1000	0	0	-1	1000
10240795	863	1287	0	-100	0	230	101300000	1000	0	0	-1	1000
10253355	853	1285	0	-100	0	230	101300000	1000	0	0	-1	1000
10265915	855	1276	0	-100	0	230	101300000	1000	0	0	-1	1000
10278475	870	1280	0	-100	0	230	101300000	1000	0	0	-1	1000
10291035	867	1287	0	-100	0	230	101300000	1000	0	0	-1	1000
10303595	870	1281	0	-100	0	230	101300000	1000	0	0	-1	1000
10316155	864	1279	0	-100	0	230	101300000	1000	0	0	-1	1000
10328715	863	1286	0	-100	0	230	101300000	1000	0	0	-1	1000
10341275	860	1287	0	-100	0	230	101300000	1000	0	0	-1	1000
10353835	854	1285	0	-100	0	230	101300000	1000	0	0	-1	1000
10366395	860	1278	0	-100	0	230	101300000	1000	0	0	-1	1000
10378955	860	1280	0	-100	0	230	101300000	1000	0	0	-1	1000
10391515	865	1283	0	-100	0	230	101300000	1000	0	0	-1	1000
10404075	858	1287	0	-100	0	230	101300000	1000	0	0	-1	1000
10416635	870	1280	0	-100	0	230	101300000	1000	0	0	-1	1000
10429195	864	1280	0	-100	0	230	101300000	1000	0	0	-1	1000
10441755	860	1285	0	-100	0	230	101300000	1000	0	0	-1	1000
10454315	858	1286	0	-100	0	230	101300000	1000	0	0	-1	1000
10466875	862	1280	0	-100	0	230	101300000	1000	0	0	-1	1000
10479435	865	1283	0	-100	0	230	101300000	1000	0	0	-1	1000
10491995	858	1277	0	-100	0	230	101300000	1000	0	0	-1	1000
10504555	853	1289	0	-100	0	230	101300000	1000	0	0	-1	1000
10517115	854	1288	0	-100	0	230	101300000	1000	0	0	-1	1000
10529675	878	1283	0	-100	0	230	101300000	1000	0	0	-1	1000
10542235	865	1276	0	-100	0	230	101300000	1000	0	0	-1	1000
10554795	860	1279	0	-100	0	230	101300000	1000	0	0	-1	1000
10567355	870	1288	0	-100	0	230	101300000	1000	0	0	-1	1000
10579915	863	1286	0	-100	0	230	101300000	1000	0	0	-1	1000
10592475	860	1277	0	-100	0	230	101300000	1000	0	0	-1	1000
10605035	866	1279	0	-100	0	230	101300000	1000	0	0	-1	1000
10617595	857	1285	0	-100	0	230	101300000	1000	0	0	-1	1000
10630155	851	1289	0	-100	0	230	101300000	1000	0	0	-1	1000
10642715	868	1281	0	-100	0	230	101300000	1000	0	0	-1	1000
10655275	867	1281	0	-100	0	230	101300000	1000	0	0	-1	1000
10667835	858	1278	0	-100	0	230	101300000	1000	0	0	-1	1000
10680395	856	1285	0	-100	0	230	101300000	1000	0	0	-1	1000
10692955	851	1287	0	-100	0	230	101300000	1000	0	0	-1	1000
10705515	870	1281	0	-100	0	230	101300000	1000	0	0	-1	1000
10718075	872	1279	0	-100	0	230	101300000	1000	0	0	-1	1000
10730635	865	1287	0	-100	0	230	101300000	1000	0	0	-1	1000
10743195	867	1278	0	-100	0	230	101300000	1000	0	0	-1	1000
10755755	853	1282	0	-100	0	230	101300000	1000	0	0	-1	1000
10768315	849	1286	0	-100	0	230	101300000	1000	0	0	-1	1000
10780875	865	1277	0	-100	0	230	101300000	1000	0	0	-1	1000
10793435	862	1281	0	-100	0	230	101300000	1000	0	0	-1	1000
10805995	858	1280	0	-100	0	230	101300000	1000	0	0	-1	1000
10818555	863	1281	0	-100	0	230	101300000	1000	0	0	-1	1000
10831115	855	1279	0	-100	0	230	101300000	1000	0	0	-1	1000
10843675	858	1284	0	-100	0	230	101300000	1000	0	0	-1	1000
10856235	867	1283	0	-100	0	230	101300000	1000	0	0	-1	1000
10868795	865	1279	0	-100	0	230	101300000	1000	0	0	-1	1000
10881355	858	1281	0	-100	0	230	101300000	1000	0	0	-1	1000
10893915	856	1286	0	-100	0	230	101300000	1000	0	0	-1	1000
10906475	855	1279	0	-100	0	230	101300000	1000	0	0	-1	1000
10919035	867	1284	0	-100	0	230	101300000	1000	0	0	-1	1000
10931595	865	1285	0	-100	0	230	101300000	1000	0	0	-1	1000
10944155	863	1280	0	-100	0	230	101300000	1000	0	0	-1	1000
10956715	863	1288	0	-100	0	230	101300000	1000	0	0	-1	1000
10969275	856	1284	0	-100	0	230	101300000	1000	0	0	-1	1000
10981835	860	1280	0	-100	0	230	101300000	1000	0	0	-1	1000
10994395	853	1288	0	-100	0	230	101300000	1000	0	0	-1	1000
11006955	875	1282	0	-100	0	230	101300000	1000	0	0	-1	1000
11019515	862	1284	0	-100	0	230	101300000	1000	0	0	-1	1000
11032075	858	1286	0	-100	0	230	101300000	1000	0	0	-1	1000
11044635	860	1281	0	-100	0	230	101300000	1000	0	0	-1	1000
11057195	858	1279	0	-100	0	230	101300000	1000	0	0	-1	1000
11069755	863	1286	0	-100	0	230	101300000	1000	0	0	-1	1000
11082315	861	1282	0	-100	0	230	101300000	1000	0	0	-1	1000
11094875	865	1280	0	-100	0	230	101300000	1000	0	0	-1	1000
11107435	862	1287	0	-100	0	230	101300000	1000	0	0	-1	1000
11119995	865	1287	0	-100	0	230	101300000	1000	0	0	-1	1000
11132555	863	1280	0	-100	0	230	101300000	1000	0	0	-1	1000
11145115	860	1288	0	-100	0	230	101300000	1000	0	0	-1	1000
11157675	860	1282	0	-100	0	230	101300000	1000	0	0	-1	1000
11170235	870	1279	0	-100	0	230	101300000	1000	0	0	-1	1000
11182795	855	1287	0	-100	0	230	101300000	1000	0	0	-1	1000
11195355	860	1280	0	-100	0	230	101300000	1000	0	0	-1	1000
11207915	872	1280	0	-100	0	230	101300000	1000	0	0	-1	1000
11220475	867	1280	0	-100	0	230	101300000	1000	0	0	-1	1000
11233035	863	1283	0	-100	0	230	101300000	1000	0	0	-1	1000
11245595	861	1287	0	-100	0	230	101300000	1000	0	0	-1	1000
11258155	862	1286	0	-100	0	230	101300000	1000	0	0	-1	1000
11270715	863	1285	0	-100	0	230	101300000	1000	0	0	-1	1000
11283275	885	1282	0	-100	0	230	101300000	1000	0	0	-1	1000
11295835	860	1279	0	-100	0	230	101300000	1000	0	0	-1	1000
11308395	865	1285	0	-100	0	230	101300000	1000	0	0	-1	1000
11320955	860	1287	0	-100	0	230	101300000	1000	0	0	-1	1000
11333515	858	1288	0	-100	0	230	101300000	1000	0	0	-1	1000
11346075	867	1284	0	-100	0	230	101300000	1000	0	0	-1	1000
11358635	867	1283	0	-100	0	230	101300000	1000	0	0	-1	1000
11371195	880	1280	0	-100	0	230	101300000	1000	0	0	-1	1000
11383755	880	1285	0	-100	0	230	101300000	1000	0	0	-1	1000
11396315	874	1280	0	-100	0	230	101300000	1000	0	0	-1	1000
11408875	884	1284	0	-100	0	230	101300000	1000	0	0	-1	1000
11421435	875	1283	0	-100	0	230	101300000	1000	0	0	-1	1000
11433995	880	1282	0	-100	-1	230	101300000	1000	0	0	-1	1000
11446555	867	1287	0	-100	0	230	101300000	1000	0	0	-1	1000
11496795	860	1281	0	-100	0	230	101300000	1000	0	0	-1	1000
11509355	870	1286	0	-100	0	230	101300000	1000	0	0	-1	1000
11521915	870	1280	0	-100	0	230	101300000	1000	0	0	-1	1000
11534475	862	1283	0	-100	0	230	101300000	1000	0	0	-1	1000
11547035	865	1283	0	-100	0	230	101300000	1000	0	0	-1	1000
11559595	873	1281	0	-100	0	230	101300000	1000	0	0	-1	1000
11572155	853	1285	0	-100	0	230	101300000	1000	0	0	-1	1000
11584715	879	1280	0	-100	0	230	101300000	1000	0	0	-1	1000
11597275	865	1281	0	-100	0	230	101300000	1000	0	0	-1	1000
11609835	863	1288	0	-100	0	230	101300000	1000	0	0	-1	1000
11622395	865	1281	0	-100	0	230	101300000	1000	0	0	-1	1000
11634955	872	1279	0	-100	0	230	101300000	1000	0	0	-1	1000
11697755	867	1283	0	-100	0	230	101300000	1000	0	0	-1	1000
11710315	868	1280	0	-100	0	230	101300000	1000	0	0	-1	1000
11722875	865	1285	0	-100	0	230	101300000	1000	0	0	-1	1000
11735435	866	1284	0	-100	0	230	101300000	1000	0	0	-1	1000
11747995	867	1285	0	-100	0	230	101300000	1000	0	0	-1	1000
11760555	863	1285	0	-100	0	230	101300000	1000	0	0	-1	1000
11773115	872	1284	0	-100	0	230	101300000	1000	0	0	-1	1000
11785675	863	1280	0	-100	0	230	101300000	1000	0	0	-1	1000
11798235	868	1287	0	-100	0	230	101300000	1000	0	0	-1	1000
11810795	865	1281	0	-100	0	230	101300000	1000	0	0	-1	1000
11823355	870	1286	0	-100	0	230	101300000	1000	0	0	-1	1000
11835915	870	1282	0	-100	0	230	101300000	1000	0	0	-1	1000
11861035	858	1286	0	-100	0	230	101300000	1000	0	0	-1	1000
11873595	870	1282	0	-100	0	230	101300000	1000	0	0	-1	1000
11886155	857	1286	0	-100	0	230	101300000	1000	0	0	-1	1000
11898715	875	1281	0	-100	0	230	101300000	1000	0	0	-1	1000
11911275	865	1279	0	-100	0	230	101300000	1000	0	0	-1	1000
11923835	867	1288	0	-100	0	230	101300000	1000	0	0	-1	1000
11936395	858	1282	0	-100	0	230	101300000	1000	0	0	-1	1000
11948955	870	1280	0	-100	0	230	101300000	1000	0	0	-1	1000
11961515	863	1285	0	-100	0	230	101300000	1000	0	0	-1	1000
11974075	870	1283	0	-100	0	230	101300000	1000	0	0	-1	1000
11986635	863	1280	0	-100	0	230	101300000	1000	0	0	-1	1000
11999195	867	1289	0	-100	0	230	101300000	1000	0	0	-1	1000
12011755	861	1282	0	-100	0	230	101300000	1000	0	0	-1	1000
12024315	869	1279	0	-100	0	230	101300000	1000	0	0	-1	1000
12036875	858	1288	0	-100	0	230	101300000	1000	0	0	-1	1000
12049435	872	1279	0	-100	0	230	101300000	1000	0	0	-1	1000
12061995	863	1280	0	-100	0	230	101300000	1000	0	0	-1	1000
12074555	867	1285	0	-100	0	230	101300000	1000	0	0	-1	1000
12087115	882	1282	0	-100	0	230	101300000	1000	0	0	-1	1000
12099675	863	1280	0	-100	0	230	101300000	1000	0	0	-1	1000
12112235	860	1284	0	-100	0	230	101300000	1000	0	0	-1	1000
12124795	865	1285	0	-100	0	230	101300000	1000	0	0	-1	1000
12137355	870	1280	0	-100	0	230	101300000	1000	0	0	-1	1000
12149915	863	1285	0	-100	0	230	101300000	1000	0	0	-1	1000
12162475	864	1283	0	-100	0	230	101300000	1000	0	0	-1	1000
12175035	863	1278	0	-100	0	230	101300000	1000	0	0	-1	1000
12187595	865	1281	0	-100	0	230	101300000	1000	0	0	-1	1000
12200155	851	1289	0	-100	0	230	101300000	1000	0	0	-1	1000
12212715	870	1281	0	-100	0	230	101300000	1000	0	0	-1	1000
12225275	855	1279	0	-100	0	230	101300000	1000	0	0	-1	1000
12237835	866	1285	0	-100	0	230	101300000	1000	0	0	-1	1000
12250395	860	1279	0	-100	0	230	101300000	1000	0	0	-1	1000
12262955	872	1287	0	-100	0	230	101300000	1000	0	0	-1	1000
12275515	875	1279	0	-100	0	230	101300000	1000	0	0	-1	1000
12288075	858	1279	0	-100	0	230	101300000	1000	0	0	-1	1000
12300635	860	1287	0	-100	0	230	101300000	1000	0	0	-1	1000
12313195	880	1279	0	-100	0	230	101300000	1000	0	0	-1	1000
12325755	858	1282	0	-100	0	230	101300000	1000	0	0	-1	1000
12338315	868	1286	0	-100	0	230	101300000	1000	0	0	-1	1000
12350875	877	1277	0	-100	0	230	101300000	1000	0	0	-1	1000
12363435	872	1283	0	-100	0	230	101300000	1000	0	0	-1	1000
12375995	858	1284	0	-100	0	230	101300000	1000	0	0	-1	1000
12388555	865	1282	0	-100	0	230	101300000	1000	0	0	-1	1000
12401115	867	1286	0	-100	0	230	101300000	1000	0	0	-1	1000
12413675	860	1280	0	-100	0	230	101300000	1000	0	0	-1	1000
12426235	860	1280	0	-100	0	230	101300000	1000	0	0	-1	1000
12438795	870	1283	0	-100	0	230	101300000	1000	0	0	-1	1000
12451355	862	1279	0	-100	0	230	101300000	1000	0	0	-1	1000
12463915	869	1286	0	-100	0	230	101300000	1000	0	0	-1	1000
12476475	860	1281	0	-100	0	230	101300000	1000	0	0	-1	1000
12489035	872	1280	0	-100	0	230	101300000	1000	0	0	-1	1000
12501595	856	1288	0	-100	0	230	101300000	1000	0	0	-1	1000
12514155	874	1281	0	-100	0	230	101300000	1000	0	0	-1	1000
12526715	856	1288	0	-100	0	230	101300000	1000	0	0	-1	1000
12539275	872	1284	0	-100	0	230	101300000	1000	0	0	-1	1000
12551835	873	1282	0	-100	0	230	101300000	1000	0	0	-1	1000
12564395	856	1283	0	-100	0	230	101300000	1000	0	0	-1	1000
12576955	868	1280	0	-100	0	230	101300000	1000	0	0	-1	1000
12589515	865	1283	0	-100	0	230	101300000	1000	0	0	-1	1000
12602075	865	1285	0	-100	0	230	101300000	1000	0	0	-1	1000
12614635	863	1281	0	-100	0	230	101300000	1000	0	0	-1	1000
12627195	860	1285	0	-100	0	230	101300000	1000	0	0	-1	1000
12639755	856	1285	0	-100	0	230	101300000	1000	0	0	-1	1000
12652315	867	1279	0	-100	0	230	101300000	1000	0	0	-1	1000
12664875	873	1279	0	-100	0	230	101300000	1000	0	0	-1	1000
12677435	865	1288	0	-100	0	230	101300000	1000	0	0	-1	1000
12689995	860	1287	0	-100	0	230	101300000	1000	0	0	-1	1000
12702555	865	1277	0	-100	0	230	101300000	1000	0	0	-1	1000
12715115	860	1280	0	-100	0	230	101300000	1000	0	0	-1	1000
12727675	863	1287	0	-100	0	230	101300000	1000	0	0	-1	1000
12740235	870	1282	0	-100	0	230	101300000	1000	0	0	-1	1000
12752795	863	1280	0	-100	0	230	101300000	1000	0	0	-1	1000
12765355	858	1286	0	-100	0	230	101300000	1000	0	0	-1	1000
12777915	867	1289	0	-100	0	230	101300000	1000	0	0	-1	1000
12790475	858	1283	0	-100	0	230	101300000	1000	0	0	-1	1000
12803035	865	1280	0	-100	0	230	101300000	1000	0	0	-1	1000
12815595	862	1284	0	-100	0	230	101300000	1000	0	0	-1	1000
12828155	855	1285	0	-100	0	230	101300000	1000	0	0	-1	1000
12840715	865	1279	0	-100	0	230	101300000	1000	0	0	-1	1000
12853275	869	1281	0	-100	0	230	101300000	1000	0	0	-1	1000
12865835	875	1288	0	-100	0	230	101300000	1000	0	0	-1	1000
12878395	863	1282	0	-100	0	230	101300000	1000	0	0	-1	1000
12890955	865	1282	0	-100	0	230	101300000	1000	0	0	-1	1000
12903515	870	1282	0	-100	0	230	101300000	1000	0	0	-1	1000
12916075	856	1286	0	-100	0	230	101300000	1000	0	0	-1	1000
12928635	867	1282	0	-100	0	230	101300000	1000	0	0	-1	1000
12941195	875	1281	0	-100	0	230	101300000	1000	0	0	-1	1000
12953755	858	1280	0	-100	0	230	101300000	1000	0	0	-1	1000
12966315	865	1281	0	-100	0	230	101300000	1000	0	0	-1	1000
12978875	871	1276	0	-100	0	230	101300000	1000	0	0	-1	1000
12991435	856	1285	0	-100	0	230	101300000	1000	0	0	-1	1000
13003995	858	1283	0	-100	0	230	101300000	1000	0	0	-1	1000
13016555	870	1278	0	-100	0	230	101300000	1000	0	0	-1	1000
13029115	870	1279	0	-100	0	230	101300000	1000	0	0	-1	1000
13041675	858	1288	0	-100	0	230	101300000	1000	0	0	-1	1000
13054235	865	1284	0	-100	0	230	101300000	1000	0	0	-1	1000
13066795	882	1281	0	-100	0	230	101300000	1000	0	0	-1	1000
13079355	863	1280	0	-100	0	230	101300000	1000	0	0	-1	1000
13091915	862	1281	0	-100	0	230	101300000	1000	0	0	-1	1000
13104475	870	1289	0	-100	0	230	101300000	1000	0	0	-1	1000
13117035	863	1284	0	-100	0	230	101300000	1000	0	0	-1	1000
13129595	863	1280	0	-100	0	230	101300000	1000	0	0	-1	1000
13142155	862	1281	0	-100	0	230	101300000	1000	0	0	-1	1000
13154715	860	1281	0	-100	0	230	101300000	1000	0	0	-1	1000
13167275	860	1289	0	-100	0	230	101300000	1000	0	0	-1	1000
13179835	867	1285	0	-100	0	230	101300000	1000	0	0	-1	1000
13192395	863	1280	0	-100	0	230	101300000	1000	0	0	-1	1000
13204955	863	1272	0	-100	0	230	101300000	1000	0	0	-1	1000
13217515	863	1289	0	-100	0	230	101300000	1000	0	0	-1	1000
13230075	870	1283	0	-100	0	230	101300000	1000	0	0	-1	1000
13242635	863	1280	0	-100	0	230	101300000	1000	0	0	-1	1000
13255195	863	1284	0	-100	0	230	101300000	1000	0	0	-1	1000
13267755	851	1284	0	-100	0	230	101300000	1000	0	0	-1	1000
13280315	872	1279	0	-100	0	230	101300000	1000	0	0	-1	1000
13292875	856	1284	0	-100	0	230	101300000	1000	0	0	-1	1000
13305435	867	1283	0	-100	0	230	101300000	1000	0	0	-1	1000
13317995	863	1282	0	-100	0	230	101300000	1000	0	0	-1	1000
13330555	853	1289	0	-100	0	230	101300000	1000	0	0	-1	1000
13343115	861	1282	0	-100	0	230	101300000	1000	0	0	-1	1000
13355675	863	1281	0	-100	0	230	101300000	1000	0	0	-1	1000
13368235	872	1284	0	-100	0	230	101300000	1000	0	0	-1	1000
13380795	860	1284	0	-100	0	230	101300000	1000	0	0	-1	1000
13393355	858	1280	0	-100	0	230	101300000	1000	0	0	-1	1000
13405915	870	1291	0	-100	0	230	101300000	1000	0	0	-1	1000
13418475	860	1280	0	-100	0	230	101300000	1000	0	0	-1	1000
13431035	882	1279	0	-100	0	230	101300000	1000	0	0	-1	1000
13443595	861	1288	0	-100	0	230	101300000	1000	0	0	-1	1000
13456155	867	1279	0	-100	0	230	101300000	1000	0	0	-1	1000
13468715	865	1276	0	-100	0	230	101300000	1000	0	0	-1	1000
13481275	860	1276	0	-100	0	230	101300000	1000	0	0	-1	1000
13493835	869	1284	0	-100	0	230	101300000	1000	0	0	-1	1000
13506395	858	1285	0	-100	0	230	101300000	1000	0	0	-1	1000
13518955	877	1279	0	-100	0	230	101300000	1000	0	0	-1	1000
13531515	860	1283	0	-100	0	230	101300000	1000	0	0	-1	1000
13544075	853	1301	0	-100	0	230	101300000	1000	0	0	-1	1000
13556635	867	1280	0	-100	0	230	101300000	1000	0	0	-1	1000
13569195	860	1277	0	-100	0	230	101300000	1000	0	0	-1	1000
13581755	863	1280	0	-100	0	230	101300000	1000	0	0	-1	1000
13594315	853	1288	0	-100	0	230	101300000	1000	0	0	-1	1000
13606875	870	1308	0	-100	0	230	101300000	1000	0	0	-1	1000
13619435	866	1284	0	-100	0	230	101300000	1000	0	0	-1	1000
13631995	856	1281	0	-100	0	230	101300000	1000	0	0	-1	1000
13644555	870	1281	0	-100	0	230	101300000	1000	0	0	-1	1000
13657115	862	1281	0	-100	0	230	101300000	1000	0	0	-1	1000
13669675	870	1292	0	-100	0	230	101300000	1000	0	0	-1	1000
13682235	867	1279	0	-100	0	230	101300000	1000	0	0	-1	1000
13694795	858	1288	0	-100	0	230	101300000	1000	0	0	-1	1000
13707355	867	1279	0	-100	0	230	101300000	1000	0	0	-1	1000
13719915	867	1288	0	-100	0	230	101300000	1000	0	0	-1	1000
13732475	875	1280	0	-100	0	230	101300000	1000	0	0	-1	1000
13745035	867	1289	0	-100	0	230	101300000	1000	0	0	-1	1000
13757595	868	1281	0	-100	0	230	101300000	1000	0	0	-1	1000
13770155	855	1279	0	-100	0	230	101300000	1000	0	0	-1	1000
13782715	861	1284	0	-100	0	230	101300000	1000	0	0	-1	1000
13795275	867	1280	0	-100	0	230	101300000	1000	0	0	-1	1000
13807835	861	1288	0	-100	0	230	101300000	1000	0	0	-1	1000
13820395	868	1280	0	-100	0	230	101300000	1000	0	0	-1	1000
13832955	863	1280	0	-100	0	230	101300000	1000	0	0	-1	1000
13845515	858	1287	0	-100	0	230	101300000	1000	0	0	-1	1000
13858075	868	1278	0	-100	0	230	101300000	1000	0	0	-1	1000
13870635	863	1288	0	-100	0	230	101300000	1000	0	0	-1	1000
13883195	870	1280	0	-100	0	230	101300000	1000	0	0	-1	1000
13895755	867	1280	0	-100	0	230	101300000	1000	0	0	-1	1000
13908315	867	1289	0	-100	0	230	101300000	1000	0	0	-1	1000
13920875	865	1288	0	-100	0	230	101300000	1000	0	0	-1	1000
13933435	873	1281	0	-100	0	230	101300000	1000	0	0	-1	1000
13945995	870	1282	0	-100	0	230	101300000	1000	0	0	-1	1000
13958555	870	1287	0	-100	0	230	101300000	1000	0	0	-1	1000
13971115	877	1282	0	-100	0	230	101300000	1000	0	0	-1	1000
13983675	870	1281	0	-100	0	230	101300000	1000	0	0	-1	1000
13996235	870	1282	0	-100	0	230	101300000	1000	0	0	-1	1000
14008795	863	1284	0	-100	0	230	101300000	1000	0	0	-1	1000
14021355	870	1280	0	-100	0	230	101300000	1000	0	0	-1	1000
14033915	868	1286	0	-100	0	230	101300000	1000	0	0	-1	1000
14046475	868	1284	0	-100	0	230	101300000	1000	0	0	-1	1000
14059035	873	1282	0	-100	0	230	101300000	1000	0	0	-1	1000
14071595	867	1287	0	-100	0	230	101300000	1000	0	0	-1	1000
14084155	867	1284	0	-100	0	230	101300000	1000	0	0	-1	1000
14096715	867	1282	0	-100	0	230	101300000	1000	0	0	-1	1000
14109275	867	1289	0	-100	0	230	101300000	1000	0	0	-1	1000
14121835	876	1281	0	-100	0	230	101300000	1000	0	0	-1	1000
14134395	877	1287	0	-100	0	230	101300000	1000	0	0	-1	1000
14146955	877	1279	0	-100	0	230	101300000	1000	0	0	-1	1000
14159515	870	1288	0	-100	0	230	101300000	1000	0	0	-1	1000
14172075	870	1276	0	-100	0	230	101300000	1000	0	0	-1	1000
14184635	870	1290	0	-100	0	230	101300000	1000	0	0	-1	1000
14197195	887	1279	0	-100	0	230	101300000	1000	0	0	-1	1000
14209755	868	1288	0	-100	0	230	101300000	1000	0	0	-1	1000
14222315	872	1280	0	-100	0	230	101300000	1000	0	0	-1	1000
14234875	868	1286	0	-100	0	230	101300000	1000	0	0	-1	1000
14247435	867	1279	0	-100	0	230	101300000	1000	0	0	-1	1000
14259995	868	1282	0	-100	0	230	101300000	1000	0	0	-1	1000
14272555	882	1281	0	-100	0	230	101300000	1000	0	0	-1	1000
14285115	869	1286	0	-100	0	230	101300000	1000	0	0	-1	1000
14297675	874	1280	0	-100	0	230	101300000	1000	0	0	-1	1000
14310235	865	1288	0	-100	0	230	101300000	1000	0	0	-1	1000
14322795	875	1280	0	-100	0	230	101300000	1000	0	0	-1	1000
14335355	865	1293	0	-100	0	230	101300000	1000	0	0	-1	1000
14347915	875	1283	0	-100	0	230	101300000	1000	0	0	-1	1000
14360475	865	1283	0	-100	0	230	101300000	1000	0	0	-1	1000
14373035	868	1283	0	-100	0	230	101300000	1000	0	0	-1	1000
14385595	868	1279	0	-100	0	230	101300000	1000	0	0	-1	1000
14398155	862	1286	0	-100	0	230	101300000	1000	0	0	-1	1000
14410715	868	1282	0	-100	0	230	101300000	1000	0	0	-1	1000
14423275	863	1280	0	-100	0	230	101300000	1000	0	0	-1	1000
14435835	863	1285	0	-100	0	230	101300000	1000	0	0	-1	1000
14448395	870	1279	0	-100	0	230	101300000	1000	0	0	-1	1000
14460955	863	1290	0	-100	0	230	101300000	1000	0	0	-1	1000
14473515	877	1282	0	-100	0	230	101300000	1000	0	0	-1	1000
14486075	877	1282	0	-100	0	230	101300000	1000	0	0	-1	1000
14498635	875	1285	0	-100	0	230	101300000	1000	0	0	-1	1000
14511195	882	1278	0	-100	0	230	101300000	1000	0	0	-1	1000
14523755	892	1287	0	-100	0	230	101300000	1000	0	0	-1	1000
14599115	867	1286	0	-100	0	230	101300000	1000	0	0	-1	1000
14611675	879	1279	0	-100	0	230	101300000	1000	0	0	-1	1000
14624235	870	1284	0	-100	0	230	101300000	1000	0	0	-1	1000
14636795	870	1286	0	-100	0	230	101300000	1000	0	0	-1	1000
14649355	875	1279	0	-100	0	230	101300000	1000	0	0	-1	1000
14661915	868	1281	0	-100	0	230	101300000	1000	0	0	-1	1000
14674475	863	1285	0	-100	0	230	101300000	1000	0	0	-1	1000
14687035	870	1280	0	-100	0	230	101300000	1000	0	0	-1	1000
14699595	872	1284	0	-100	0	230	101300000	1000	0	0	-1	1000
14712155	866	1285	0	-100	0	230	101300000	1000	0	0	-1	1000
14724715	875	1279	0	-100	0	230	101300000	1000	0	0	-1	1000
14737275	867	1280	0	-100	0	230	101300000	1000	0	0	-1	1000
14787515	870	1285	0	-100	0	230	101300000	1000	0	0	-1	1000
14800075	865	1287	0	-100	0	230	101300000	1000	0	0	-1	1000
14812635	877	1276	0	-100	0	230	101300000	1000	0	0	-1	1000
14825195	873	1279	0	-100	0	230	101300000	1000	0	0	-1	1000
14837755	865	1285	0	-100	0	230	101300000	1000	0	0	-1	1000
14850315	868	1284	0	-100	0	230	101300000	1000	0	0	-1	1000
14862875	872	1282	0	-100	0	230	101300000	1000	0	0	-1	1000
14875435	867	1287	0	-100	0	230	101300000	1000	0	0	-1	1000
14887995	870	1288	0	-100	0	230	101300000	1000	0	0	-1	1000
14900555	867	1278	0	-100	0	230	101300000	1000	0	0	-1	1000
14913115	862	1285	0	-100	0	230	101300000	1000	0	0	-1	1000
14925675	875	1286	0	-100	0	230	101300000	1000	0	0	-1	1000
14938235	875	1273	0	-100	0	230	101300000	1000	0	0	-1	1000
14950795	887	1282	0	-100	0	230	101300000	1000	0	0	-1	1000
14963355	873	1290	0	-100	0	230	101300000	1000	0	0	-1	1000
14975915	877	1280	0	-100	0	230	101300000	1000	0	0	-1	1000
14988475	882	1279	0	-100	0	230	101300000	1000	0	0	-1	1000
15001035	874	1279	0	-100	0	230	101300000	1000	0	0	-1	1000
15013595	870	1285	0	-100	0	230	101300000	1000	0	0	-1	1000
15026155	865	1285	0	-100	0	230	101300000	1000	0	0	-1	1000
15038715	872	1280	0	-100	0	230	101300000	1000	0	0	-1	1000
15051275	872	1285	0	-100	0	230	101300000	1000	0	0	-1	1000
15063835	868	1285	0	-100	0	230	101300000	1000	0	0	-1	1000
15076395	863	1287	0	-100	0	230	101300000	1000	0	0	-1	1000
15088955	860	1285	0	-100	0	230	101300000	1000	0	0	-1	1000
15101515	873	1283	0	-100	0	230	101300000	1000	0	0	-1	1000
15114075	868	1278	0	-100	0	230	101300000	1000	0	0	-1	1000
15126635	865	1283	0	-100	0	230	101300000	1000	0	0	-1	1000
15139195	870	1287	0	-100	0	230	101300000	1000	0	0	-1	1000
15151755	878	1280	0	-100	0	230	101300000	1000	0	0	-1	1000
15164315	882	1284	0	-100	0	230	101300000	1000	0	0	-1	1000
15176875	875	1287	0	-100	0	230	101300000	1000	0	0	-1	1000
15189435	879	1279	0	-100	0	230	101300000	1000	0	0	-1	1000
15201995	868	1282	0	-100	0	230	101300000	1000	0	0	-1	1000
15214555	865	1289	0	-100	0	230	101300000	1000	0	0	-1	1000
15227115	880	1282	0	-100	0	230	101300000	1000	0	0	-1	1000
15239675	875	1275	0	-100	0	230	101300000	1000	0	0	-1	1000
15252235	867	1289	0	-100	0	230	101300000	1000	0	0	-1	1000
15264795	868	1283	0	-100	0	230	101300000	1000	0	0	-1	1000
15277355	867	1284	0	-100	0	230	101300000	1000	0	0	-1	1000
15289915	875	1284	0	-100	0	230	101300000	1000	0	0	-1	1000
15302475	870	1288	0	-100	0	230	101300000	1000	0	0	-1	1000
15315035	875	1283	0	-100	0	230	101300000	1000	0	0	-1	1000
15327595	870	1281	0	-100	0	230	101300000	1000	0	0	-1	1000
15340155	862	1281	0	-100	0	230	101300000	1000	0	0	-1	1000
15352715	863	1284	0	-100	0	230	101300000	1000	0	0	-1	1000
15365275	865	1282	0	-100	0	230	101300000	1000	0	0	-1	1000
15377835	863	1282	0	-100	0	230	101300000	1000	0	0	-1	1000
15390395	863	1290	0	-100	0	230	101300000	1000	0	0	-1	1000
15402955	873	1347	0	-100	0	230	101300000	1000	0	0	-1	1000
15415515	877	1280	0	-100	0	230	101300000	1000	0	0	-1	1000
15428075	887	1287	0	-100	0	230	101300000	1000	0	0	-1	1000
15440635	873	1287	0	-100	0	230	101300000	1000	0	0	-1	1000
15453195	884	1282	0	-100	0	230	101300000	1000	0	0	-1	1000
15465755	874	1276	0	-100	0	230	101300000	1000	0	0	-1	1000
15478315	872	1290	0	-100	0	230	101300000	1000	0	0	-1	1000
15490875	879	1272	0	-100	0	230	101300000	1000	0	0	-1	1000
15503435	867	1280	0	-100	0	230	101300000	1000	0	0	-1	1000
15515995	868	1280	0	-100	0	230	101300000	1000	0	0	-1	1000
15528555	875	1284	0	-100	0	230	101300000	1000	0	0	-1	1000
15541115	868	1280	0	-100	0	230	101300000	1000	0	0	-1	1000
15553675	873	1285	0	-100	0	230	101300000	1000	0	0	-1	1000
15566235	865	1282	0	-100	0	230	101300000	1000	0	0	-1	1000
15578795	873	1280	0	-100	0	230	101300000	1000	0	0	-1	1000
15591355	865	1286	0	-100	0	230	101300000	1000	0	0	-1	1000
15603915	868	1282	0	-100	0	230	101300000	1000	0	0	-1	1000
15616475	873	1285	0	-100	0	230	101300000	1000	0	0	-1	1000
15629035	887	1281	0	-100	0	230	101300000	1000	0	0	-1	1000
15641595	884	1283	0	-100	0	230	101300000	1000	0	0	-1	1000
15654155	879	1282	0	-100	0	230	101300000	1000	0	0	-1	1000
15666715	877	1291	0	-100	0	230	101300000	1000	0	0	-1	1000
15679275	879	1282	0	-100	0	230	101300000	1000	0	0	-1	1000
15691835	873	1287	0	-100	0	230	101300000	1000	0	0	-1	1000
15704395	875	1285	0	-100	0	230	101300000	1000	0	0	-1	1000
15716955	863	1286	0	-100	0	230	101300000	1000	0	0	-1	1000
15729515	863	1284	0	-100	0	230	101300000	1000	0	0	-1	1000
15742075	884	1279	0	-100	0	230	101300000	1000	0	0	-1	1000
15754635	870	1290	0	-100	0	230	101300000	1000	0	0	-1	1000
15767195	867	1276	0	-100	0	230	101300000	1000	0	0	-1	1000
15779755	861	1286	0	-100	0	230	101300000	1000	0	0	-1	1000
15792315	882	1277	0	-100	0	230	101300000	1000	0	0	-1	1000
15804875	872	1287	0	-100	0	230	101300000	1000	0	0	-1	1000
15817435	875	1279	0	-100	0	230	101300000	1000	0	0	-1	1000
15829995	866	1281	0	-100	0	230	101300000	1000	0	0	-1	1000
15842555	872	1276	0	-100	0	230	101300000	1000	0	0	-1	1000
15855115	868	1290	0	-100	0	230	101300000	1000	0	0	-1	1000
15867675	877	1284	0	-100	0	230	101300000	1000	0	0	-1	1000
15880235	878	1280	0	-100	0	230	101300000	1000	0	0	-1	1000
15892795	880	1288	0	-100	0	230	101300000	1000	0	0	-1	1000
15905355	887	1279	0	-100	0	230	101300000	1000	0	0	-1	1000
15917915	872	1283	0	-100	0	230	101300000	1000	0	0	-1	1000
15930475	870	1286	0	-100	0	230	101300000	1000	0	0	-1	1000
15943035	877	1279	0	-100	0	230	101300000	1000	0	0	-1	1000
15955595	870	1280	0	-100	0	230	101300000	1000	0	0	-1	1000
15968155	862	1289	0	-100	0	230	101300000	1000	0	0	-1	1000
15980715	875	1280	0	-100	0	230	101300000	1000	0	0	-1	1000
15993275	868	1282	0	-100	0	230	101300000	1000	0	0	-1	1000
16005835	865	1284	0	-100	0	230	101300000	1000	0	0	-1	1000
16018395	868	1279	0	-100	0	230	101300000	1000	0	0	-1	1000
16030955	863	1284	0	-100	0	230	101300000	1000	0	0	-1	1000
16043515	870	1279	0	-100	0	230	101300000	1000	0	0	-1	1000
16056075	865	1283	0	-100	0	230	101300000	1000	0	0	-1	1000
16068635	873	1283	0	-100	0	230	101300000	1000	0	0	-1	1000
16081195	882	1280	0	-100	0	230	101300000	1000	0	0	-1	1000
16093755	875	1287	0	-100	0	230	101300000	1000	0	0	-1	1000
16106315	882	1278	0	-100	0	230	101300000	1000	0	0	-1	1000
16118875	872	1285	0	-100	0	230	101300000	1000	0	0	-1	1000
16131435	872	1284	0	-100	0	230	101300000	1000	0	0	-1	1000
16143995	870	1283	0	-100	0	230	101300000	1000	0	0	-1	1000
16156555	868	1292	0	-100	0	230	101300000	1000	0	0	-1	1000
16169115	873	1281	0	-100	0	230	101300000	1000	0	0	-1	1000
16181675	865	1289	0	-100	0	230	101300000	1000	0	0	-1	1000
16194235	872	1281	0	-100	0	230	101300000	1000	0	0	-1	1000
16206795	866	1281	0	-100	0	230	101300000	1000	0	0	-1	1000
16219355	875	1287	0	-100	0	230	101300000	1000	0	0	-1	1000
16231915	877	1279	0	-100	0	230	101300000	1000	0	0	-1	1000
16244475	870	1282	0	-100	0	230	101300000	1000	0	0	-1	1000
16257035	863	1284	0	-100	0	230	101300000	1000	0	0	-1	1000
16269595	892	1280	0	-100	0	230	101300000	1000	0	0	-1	1000
16282155	865	1289	0	-100	0	230	101300000	1000	0	0	-1	1000
16294715	875	1280	0	-100	0	230	101300000	1000	0	0	-1	1000
16307275	863	1288	0	-100	0	230	101300000	1000	0	0	-1	1000
16319835	879	1279	0	-100	0	230	101300000	1000	0	0	-1	1000
16332395	870	1289	0	-100	0	230	101300000	1000	0	0	-1	1000
16344955	870	1280	0	-100	0	230	101300000	1000	0	0	-1	1000
16357515	870	1279	0	-100	0	230	101300000	1000	0	0	-1	1000
16370075	861	1287	0	-100	0	230	101300000	1000	0	0	-1	1000
16382635	870	1281	0	-100	0	230	101300000	1000	0	0	-1	1000
16395195	865	1284	0	-100	0	230	101300000	1000	0	0	-1	1000
16407755	880	1280	0	-100	0	230	101300000	1000	0	0	-1	1000
16420315	877	1284	0	-100	0	230	101300000	1000	0	0	-1	1000
16432875	875	1283	0	-100	0	230	101300000	1000	0	0	-1	1000
16445435	874	1279	0	-100	0	230	101300000	1000	0	0	-1	1000
16457995	870	1281	0	-100	0	230	101300000	1000	0	0	-1	1000
16470555	877	1283	0	-100	0	230	101300000	1000	0	0	-1	1000
16483115	870	1281	0	-100	0	230	101300000	1000	0	0	-1	1000
16495675	866	1288	0	-100	0	230	101300000	1000	0	0	-1	1000
16508235	873	1281	0	-100	0	230	101300000	1000	0	0	-1	1000
16520795	863	1281	0	-100	0	230	101300000	1000	0	0	-1	1000
16533355	865	1286	0	-100	0	230	101300000	1000	0	0	-1	1000
16545915	882	1281	0	-100	0	230	101300000	1000	0	0	-1	1000
16558475	875	1284	0	-100	0	230	101300000	1000	0	0	-1	1000
16571035	875	1283	0	-100	0	230	101300000	1000	0	0	-1	1000
16583595	875	1279	0	-100	0	230	101300000	1000	0	0	-1	1000
16596155	865	1289	0	-100	0	230	101300000	1000	0	0	-1	1000
16608715	875	1278	0	-100	0	230	101300000	1000	0	0	-1	1000
16621275	867	1284	0	-100	0	230	101300000	1000	0	0	-1	1000
16633835	870	1281	0	-100	0	230	101300000	1000	0	0	-1	1000
16646395	863	1281	0	-100	0	230	101300000	1000	0	0	-1	1000
16658955	861	1285	0	-100	0	230	101300000	1000	0	0	-1	1000
16671515	872	1279	0	-100	0	230	101300000	1000	0	0	-1	1000
16684075	887	1288	0	-100	0	230	101300000	1000	0	0	-1	1000
16696635	880	1281	0	-100	0	230	101300000	1000	0	0	-1	1000
16709195	869	1285	0	-100	0	230	101300000	1000	0	0	-1	1000
16721755	877	1280	0	-100	0	230	101300000	1000	0	0	-1	1000
16734315	863	1287	0	-100	0	230	101300000	1000	0	0	-1	1000
16746875	872	1278	0	-100	0	230	101300000	1000	0	0	-1	1000
16759435	875	1285	0	-100	0	230	101300000	1000	0	0	-1	1000
16771995	873	1288	0	-100	0	230	101300000	1000	0	0	-1	1000
16784555	870	1279	0	-100	0	230	101300000	1000	0	0	-1	1000
16797115	863	1287	0	-100	0	230	101300000	1000	0	0	-1	1000
16809675	882	1279	0	-100	0	230	101300000	1000	0	0	-1	1000
16822235	870	1285	0	-100	0	230	101300000	1000	0	0	-1	1000
16834795	866	1282	0	-100	0	230	101300000	1000	0	0	-1	1000
16847355	868	1280	0	-100	0	230	101300000	1000	0	0	-1	1000
16859915	875	1286	0	-100	0	230	101300000	1000	0	0	-1	1000
16872475	875	1281	0	-100	0	230	101300000	1000	0	0	-1	1000
16885035	865	1286	0	-100	0	230	101300000	1000	0	0	-1	1000
16897595	866	1288	0	-100	0	230	101300000	1000	0	0	-1	1000
16910155	867	1281	0	-100	0	230	101300000	1000	0	0	-1	1000
16922715	866	1280	0	-100	0	230	101300000	1000	0	0	-1	1000
16935275	863	1286	0	-100	0	230	101300000	1000	0	0	-1	1000
16947835	875	1280	0	-100	0	230	101300000	1000	0	0	-1	1000
16960395	882	1280	0	-100	0	230	101300000	1000	0	0	-1	1000
16972955	880	1290	0	-100	0	230	101300000	1000	0	0	-1	1000
16985515	874	1284	0	-100	0	230	101300000	1000	0	0	-1	1000
16998075	879	1280	0	-100	0	230	101300000	1000	0	0	-1	1000
17010635	872	1279	0	-100	0	230	101300000	1000	0	0	-1	1000
17023195	868	1289	0	-100	0	230	101300000	1000	0	0	-1	1000
17035755	875	1281	0	-100	0	230	101300000	1000	0	0	-1	1000
17048315	868	1280	0	-100	0	230	101300000	1000	0	0	-1	1000
17060875	866	1288	0	-100	0	230	101300000	1000	0	0	-1	1000
17073435	865	1281	0	-100	0	230	101300000	1000	0	0	-1	1000
17085995	875	1280	0	-100	0	230	101300000	1000	0	0	-1	1000
17098555	882	1288	0	-100	0	230	101300000	1000	0	0	-1	1000
17111115	883	1282	0	-100	0	230	101300000	1000	0	0	-1	1000
17123675	872	1279	0	-100	0	230	101300000	1000	0	0	-1	1000
17136235	870	1289	0	-100	0	230	101300000	1000	0	0	-1	1000
17148795	868	1280	0	-100	0	230	101300000	1000	0	0	-1	1000
17161355	868	1280	0	-100	0	230	101300000	1000	0	0	-1	1000
17173915	863	1286	0	-100	0	230	101300000	1000	0	0	-1	1000
17186475	875	1281	0	-100	0	230	101300000	1000	0	0	-1	1000
17199035	875	1279	0	-100	0	230	101300000	1000	0	0	-1	1000
17211595	872	1287	0	-100	0	230	101300000	1000	0	0	-1	1000
17224155	874	1281	0	-100	0	230	101300000	1000	0	0	-1	1000
17236715	865	1283	0	-100	0	230	101300000	1000	0	0	-1	1000
17249275	865	1285	0	-100	0	230	101300000	1000	0	0	-1	1000
17261835	872	1280	0	-100	0	230	101300000	1000	0	0	-1	1000
17274395	874	1288	0	-100	0	230	101300000	1000	0	0	-1	1000
17286955	873	1282	0	-100	0	230	101300000	1000	0	0	-1	1000
17299515	868	1280	0	-100	0	230	101300000	1000	0	0	-1	1000
17312075	877	1287	0	-100	0	230	101300000	1000	0	0	-1	1000
17324635	880	1281	0	-100	0	230	101300000	1000	0	0	-1	1000
17337195	868	1282	0	-100	0	230	101300000	1000	0	0	-1	1000
17349755	867	1286	0	-100	0	230	101300000	1000	0	0	-1	1000
17362315	872	1285	0	-100	0	230	101300000	1000	0	0	-1	1000
17374875	872	1283	0	-100	0	230	101300000	1000	0	0	-1	1000
17387435	873	1281	0	-100	0	230	101300000	1000	0	0	-1	1000
17399995	865	1278	0	-100	0	230	101300000	1000	0	0	-1	1000
17412555	866	1287	0	-100	0	230	101300000	1000	0	0	-1	1000
17425115	884	1281	0	-100	0	230	101300000	1000	0	0	-1	1000
17437675	877	1279	0	-100	0	230	101300000	1000	0	0	-1	1000
17450235	870	1286	0	-100	0	230	101300000	1000	0	0	-1	1000
17462795	875	1280	0	-100	0	230	101300000	1000	0	0	-1	1000
17475355	870	1280	0	-100	0	230	101300000	1000	0	0	-1	1000
17487915	863	1289	0	-100	0	230	101300000	1000	0	0	-1	1000
17500475	868	1282	0	-100	0	230	101300000	1000	0	0	-1	1000
17513035	865	1280	0	-100	0	230	101300000	1000	0	0	-1	1000
17525595	880	1288	0	-100	0	230	101300000	1000	0	0	-1	1000
17538155	876	1280	0	-100	0	230	101300000	1000	0	0	-1	1000
17550715	874	1279	0	-100	0	230	101300000	1000	0	0	-1	1000
17563275	868	1287	0	-100	0	230	101300000	1000	0	0	-1	1000
17575835	865	1285	0	-100	0	230	101300000	1000	0	0	-1	1000
17588395	870	1279	0	-100	0	230	101300000	1000	0	0	-1	1000
17600955	867	1280	0	-100	0	230	101300000	1000	0	0	-1	1000
17613515	870	1286	0	-100	0	230	101300000	1000	0	0	-1	1000
17626075	880	1284	0	-100	0	230	101300000	1000	0	0	-1	1000
17676315	880	1282	0	-100	0	230	101300000	1000	0	0	-1	1000
17688875	863	1284	0	-100	0	230	101300000	1000	0	0	-1	1000
17701435	862	1284	0	-100	0	230	101300000	1000	0	0	-1	1000
17713995	880	1285	0	-100	0	230	101300000	1000	0	0	-1	1000
17726555	889	1285	0	-100	0	230	101300000	1000	0	0	-1	1000
17739115	875	1285	0	-100	0	230	101300000	1000	0	0	-1	1000
17751675	877	1280	0	-100	0	230	101300000	1000	0	0	-1	1000
17764235	868	1288	0	-100	0	230	101300000	1000	0	0	-1	1000
17776795	861	1285	0	-100	0	230	101300000	1000	0	0	-1	1000
17789355	894	1279	0	-100	0	230	101300000	1000	0	0	-1	1000
17801915	870	1285	0	-100	0	230	101300000	1000	0	0	-1	1000
17814475	868	1280	0	-100	0	230	101300000	1000	0	0	-1	1000
17827035	866	1280	0	-100	0	230	101300000	1000	0	0	-1	1000
17839595	874	1285	0	-100	0	230	101300000	1000	0	0	-1	1000
17852155	872	1283	0	-100	0	230	101300000	1000	0	0	-1	1000
17864715	865	1280	0	-100	0	230	101300000	1000	0	0	-1	1000
17877275	877	1287	0	-100	0	230	101300000	1000	0	0	-1	1000
17889835	875	1280	0	-100	0	230	101300000	1000	0	0	-1	1000
17902395	865	1283	0	-100	0	230	101300000	1000	0	0	-1	1000
17914955	858	1286	0	-100	0	230	101300000	1000	0	0	-1	1000
17927515	873	1278	0	-100	0	230	101300000	1000	0	0	-1	1000
17940075	882	1280	0	-100	0	230	101300000	1000	0	0	-1	1000
17952635	873	1288	0	-100	0	230	101300000	1000	0	0	-1	1000
17965195	875	1278	0	-100	0	230	101300000	1000	0	0	-1	1000
17977755	865	1283	0	-100	0	230	101300000	1000	0	0	-1	1000
17990315	866	1287	0	-100	0	230	101300000	1000	0	0	-1	1000
18002875	868	1280	0	-100	0	230	101300000	1000	0	0	-1	1000
18015435	867	1280	0	-100	0	230	101300000	1000	0	0	-1	1000
18027995	861	1279	0	-100	0	230	101300000	1000	0	0	-1	1000
18040555	875	1281	0	-100	0	230	101300000	1000	0	0	-1	1000
18053115	885	1279	0	-100	0	230	101300000	1000	0	0	-1	1000
18065675	889	1289	0	-100	0	230	101300000	1000	0	0	-1	1000
18078235	882	1280	0	-100	0	230	101300000	1000	0	0	-1	1000
18090795	879	1280	0	-100	0	230	101300000	1000	0	0	-1	1000
18103355	870	1288	0	-100	0	230	101300000	1000	0	0	-1	1000
18115915	879	1278	0	-100	0	230	101300000	1000	0	0	-1	1000
18128475	874	1284	0	-100	0	230	101300000	1000	0	0	-1	1000
18141035	872	1284	0	-100	0	230	101300000	1000	0	0	-1	1000
18153595	870	1281	0	-100	0	230	101300000	1000	0	0	-1	1000
18166155	862	1289	0	-100	0	230	101300000	1000	0	0	-1	1000
18178715	863	1283	0	-100	0	230	101300000	1000	0	0	-1	1000
18191275	870	1280	0	-100	0	230	101300000	1000	0	0	-1	1000
18203835	879	1285	0	-100	0	230	101300000	1000	0	0	-1	1000
18216395	869	1285	0	-100	0	230	101300000	1000	0	0	-1	1000
18228955	875	1280	0	-100	0	230	101300000	1000	0	0	-1	1000
18241515	867	1281	0	-100	0	230	101300000	1000	0	0	-1	1000
18254075	865	1286	0	-100	0	230	101300000	1000	0	0	-1	1000
18266635	865	1283	0	-100	0	230	101300000	1000	0	0	-1	1000
18279195	884	1280	0	-100	0	230	101300000	1000	0	0	-1	1000
18291755	873	1282	0	-100	0	230	101300000	1000	0	0	-1	1000
18304315	868	1279	0	-100	0	230	101300000	1000	0	0	-1	1000
18316875	874	1285	0	-100	0	230	101300000	1000	0	0	-1	1000
18329435	870	1288	0	-100	0	230	101300000	1000	0	0	-1	1000
18341995	863	1280	0	-100	0	230	101300000	1000	0	0	-1	1000
18354555	875	1284	0	-100	0	230	101300000	1000	0	0	-1	1000
18367115	877	1283	0	-100	0	230	101300000	1000	0	0	-1	1000
18379675	870	1281	0	-100	0	230	101300000	1000	0	0	-1	1000
18392235	868	1280	0	-100	0	230	101300000	1000	0	0	-1	1000
18404795	879	1280	0	-100	0	230	101300000	1000	0	0	-1	1000
18417355	872	1285	0	-100	0	230	101300000	1000	0	0	-1	1000
18429915	870	1286	0	-100	0	230	101300000	1000	0	0	-1	1000
18442475	873	1282	0	-100	0	230	101300000	1000	0	0	-1	1000
18455035	873	1278	0	-100	0	230	101300000	1000	0	0	-1	1000
18467595	870	1280	0	-100	0	230	101300000	1000	0	0	-1	1000
18480155	864	1281	0	-100	0	230	101300000	1000	0	0	-1	1000
18492715	865	1279	0	-100	0	230	101300000	1000	0	0	-1	1000
18505275	865	1283	0	-100	0	230	101300000	1000	0	0	-1	1000
18517835	870	1287	0	-100	0	230	101300000	1000	0	0	-1	1000
18530395	877	1281	0	-100	0	230	101300000	1000	0	0	-1	1000
18542955	867	1278	0	-100	0	230	101300000	1000	0	0	-1	1000
18555515	868	1280	0	-100	0	230	101300000	1000	0	0	-1	1000
18568075	869	1281	0	-100	0	230	101300000	1000	0	0	-1	1000
18580635	875	1288	0	-100	0	230	101300000	1000	0	0	-1	1000
18593195	865	1286	0	-100	0	230	101300000	1000	0	0	-1	1000
18605755	869	1283	0	-100	0	230	101300000	1000	0	0	-1	1000
18618315	868	1281	0	-100	0	230	101300000	1000	0	0	-1	1000
18630875	873	1278	0	-100	0	230	101300000	1000	0	0	-1	1000
18643435	877	1279	0	-100	0	230	101300000	1000	0	0	-1	1000
18655995	860	1280	0	-100	0	230	101300000	1000	0	0	-1	1000
18668555	875	1286	0	-100	0	230	101300000	1000	0	0	-1	1000
18681115	858	1284	0	-100	0	230	101300000	1000	0	0	-1	1000
18693675	879	1282	0	-100	0	230	101300000	1000	0	0	-1	1000
18706235	870	1280	0	-100	0	230	101300000	1000	0	0	-1	1000
18718795	874	1279	0	-100	0	230	101300000	1000	0	0	-1	1000
18731355	863	1284	0	-100	0	230	101300000	1000	0	0	-1	1000
18743915	867	1289	0	-100	0	230	101300000	1000	0	0	-1	1000
18756475	858	1282	0	-100	0	230	101300000	1000	0	0	-1	1000
18769035	872	1280	0	-100	0	230	101300000	1000	0	0	-1	1000
18781595	865	1289	0	-100	0	230	101300000	1000	0	0	-1	1000
18794155	869	1283	0	-100	0	230	101300000	1000	0	0	-1	1000
18806715	874	1280	0	-100	0	230	101300000	1000	0	0	-1	1000
18819275	875	1286	0	-100	0	230	101300000	1000	0	0	-1	1000
18831835	865	1285	0	-100	0	230	101300000	1000	0	0	-1	1000
18844395	870	1280	0	-100	0	230	101300000	1000	0	0	-1	1000
18856955	868	1286	0	-100	0	230	101300000	1000	0	0	-1	1000
18869515	879	1280	0	-100	0	230	101300000	1000	0	0	-1	1000
18882075	875	1281	0	-100	0	230	101300000	1000	0	0	-1	1000
18894635	875	1283	0	-100	0	230	101300000	1000	0	0	-1	1000
18907195	882	1279	0	-100	0	230	101300000	1000	0	0	-1	1000
18919755	875	1288	0	-100	0	230	101300000	1000	0	0	-1	1000
18932315	878	1280	0	-100	0	230	101300000	1000	0	0	-1	1000
18944875	863	1288	0	-100	0	230	101300000	1000	0	0	-1	1000
18957435	870	1280	0	-100	0	230	101300000	1000	0	0	-1	1000
18969995	867	1281	0	-100	0	230	101300000	1000	0	0	-1	1000
18982555	880	1280	0	-100	0	230	101300000	1000	0	0	-1	1000
18995115	863	1289	0	-100	0	230	101300000	1000	0	0	-1	1000
19007675	872	1281	0	-100	0	230	101300000	1000	0	0	-1	1000
19020235	872	1283	0	-100	0	230	101300000	1000	0	0	-1	1000
19032795	875	1280	0	-100	0	230	101300000	1000	0	0	-1	1000
19045355	863	1280	0	-100	0	230	101300000	1000	0	0	-1	1000
19057915	872	1286	0	-100	0	230	101300000	1000	0	0	-1	1000
19070475	875	1280	0	-100	0	230	101300000	1000	0	0	-1	1000
19083035	865	1289	0	-100	0	230	101300000	1000	0	0	-1	1000
19095595	877	1283	0	-100	0	230	101300000	1000	0	0	-1	1000
19108155	862	1281	0	-100	0	230	101300000	1000	0	0	-1	1000
19120715	863	1284	0	-100	0	230	101300000	1000	0	0	-1	1000
19133275	876	1279	0	-100	0	230	101300000	1000	0	0	-1	1000
19145835	861	1286	0	-100	0	230	101300000	1000	0	0	-1	1000
19158395	873	1282	0	-100	0	230	101300000	1000	0	0	-1	1000
19170955	870	1285	0	-100	0	230	101300000	1000	0	0	-1	1000
19183515	870	1282	0	-100	0	230	101300000	1000	0	0	-1	1000
19196075	865	1283	0	-100	0	230	101300000	1000	0	0	-1	1000
19208635	873	1281	0	-100	0	230	101300000	1000	0	0	-1	1000
19221195	868	1281	0	-100	0	230	101300000	1000	0	0	-1	1000
19233755	872	1285	0	-100	0	230	101300000	1000	0	0	-1	1000
19246315	868	1282	0	-100	0	230	101300000	1000	0	0	-1	1000
19258875	880	1285	0	-100	0	230	101300000	1000	0	0	-1	1000
19271435	870	1280	0	-100	0	230	101300000	1000	0	0	-1	1000
19283995	875	1278	0	-100	0	230	101300000	1000	0	0	-1	1000
19296555	863	1285	0	-100	0	230	101300000	1000	0	0	-1	1000
19309115	872	1280	0	-100	0	230	101300000	1000	0	0	-1	1000
19321675	863	1286	0	-100	0	230	101300000	1000	0	0	-1	1000
19334235	875	1280	0	-100	0	230	101300000	1000	0	0	-1	1000
19346795	870	1287	0	-100	0	230	101300000	1000	0	0	-1	1000
19359355	870	1281	0	-100	0	230	101300000	1000	0	0	-1	1000
19371915	874	1279	0	-100	0	230	101300000	1000	0	0	-1	1000
19384475	865	1287	0	-100	0	230	101300000	1000	0	0	-1	1000
19397035	872	1283	0	-100	0	230	101300000	1000	0	0	-1	1000
19409595	875	1279	0	-100	0	230	101300000	1000	0	0	-1	1000
19422155	858	1290	0	-100	0	230	101300000	1000	0	0	-1	1000
19434715	868	1283	0	-100	0	230	101300000	1000	0	0	-1	1000
19447275	890	1279	0	-100	0	230	101300000	1000	0	0	-1	1000
19459835	860	1284	0	-100	0	230	101300000	1000	0	0	-1	1000
19472395	877	1284	0	-100	0	230	101300000	1000	0	0	-1	1000
19484955	872	1280	0	-100	0	230	101300000	1000	0	0	-1	1000
19497515	876	1283	0	-100	0	230	101300000	1000	0	0	-1	1000
19510075	865	1286	0	-100	0	230	101300000	1000	0	0	-1	1000
19522635	882	1278	0	-100	0	230	101300000	1000	0	0	-1	1000
19535195	863	1280	0	-100	0	230	101300000	1000	0	0	-1	1000
19547755	870	1288	0	-100	0	230	101300000	1000	0	0	-1	1000
19560315	873	1281	0	-100	0	230	101300000	1000	0	0	-1	1000
19572875	867	1283	0	-100	0	230	101300000	1000	0	0	-1	1000
19585435	860	1284	0	-100	0	230	101300000	1000	0	0	-1	1000
19597995	875	1288	0	-100	0	230	101300000	1000	0	0	-1	1000
19610555	870	1283	0	-100	0	230	101300000	1000	0	0	-1	1000
19623115	865	1287	0	-100	0	230	101300000	1000	0	0	-1	1000
19635675	879	1277	0	-100	0	230	101300000	1000	0	0	-1	1000
19648235	865	1284	0	-100	0	230	101300000	1000	0	0	-1	1000
19660795	871	1282	0	-100	0	230	101300000	1000	0	0	-1	1000
19673355	865	1280	0	-100	0	230	101300000	1000	0	0	-1	1000
19685915	867	1288	0	-100	0	230	101300000	1000	0	0	-1	1000
19698475	867	1280	0	-100	0	230	101300000	1000	0	0	-1	1000
19711035	866	1288	0	-100	0	230	101300000	1000	0	0	-1	1000
19723595	884	1281	0	-100	0	230	101300000	1000	0	0	-1	1000
19736155	860	1281	0	-100	0	230	101300000	1000	0	0	-1	1000
19748715	870	1287	0	-100	0	230	101300000	1000	0	0	-1	1000
19761275	875	1281	0	-100	0	230	101300000	1000	0	0	-1	1000
19773835	867	1280	0	-100	0	230	101300000	1000	0	0	-1	1000
19786395	878	1288	0	-100	0	230	101300000	1000	0	0	-1	1000
19798955	868	1278	0	-100	0	230	101300000	1000	0	0	-1	1000
19811515	865	1288	0	-100	0	230	101300000	1000	0	0	-1	1000
19824075	877	1279	0	-100	0	230	101300000	1000	0	0	-1	1000
19836635	863	1283	0	-100	0	230	101300000	1000	0	0	-1	1000
19849195	863	1287	0	-100	0	230	101300000	1000	0	0	-1	1000
19861755	877	1281	0	-100	0	230	101300000	1000	0	0	-1	1000
19874315	877	1286	0	-100	0	230	101300000	1000	0	0	-1	1000
19886875	865	1282	0	-100	0	230	101300000	1000	0	0	-1	1000
19899435	872	1281	0	-100	0	230	101300000	1000	0	0	-1	1000
19911995	868	1284	0	-100	0	230	101300000	1000	0	0	-1	1000
19924555	876	1280	0	-100	0	230	101300000	1000	0	0	-1	1000
19937115	877	1280	0	-100	0	230	101300000	1000	0	0	-1	1000
19949675	861	1287	0	-100	0	230	101300000	1000	0	0	-1	1000
19962235	872	1277	0	-100	0	230	101300000	1000	0	0	-1	1000
19974795	870	1287	0	-100	0	230	101300000	1000	0	0	-1	1000
19987355	880	1282	0	-100	0	230	101300000	1000	0	0	-1	1000
19999915	863	1285	0	-100	0	230	101300000	1000	0	0	-1	1000
20012475	875	1283	0	-100	0	230	101300000	1000	0	0	-1	1000
20025035	875	1282	0	-100	0	230	101300000	1000	0	0	-1	1000
20037595	863	1285	0	-100	0	230	101300000	1000	0	0	-1	1000
20050155	876	1279	0	-100	0	230	101300000	1000	0	0	-1	1000
20062715	870	1280	0	-100	0	230	101300000	1000	0	0	-1	1000
20075275	863	1286	0	-100	0	230	101300000	1000	0	0	-1	1000
20087835	874	1281	0	-100	0	230	101300000	1000	0	0	-1	1000
20100395	873	1280	0	-100	0	230	101300000	1000	0	0	-1	1000
20112955	868	1286	0	-100	0	230	101300000	1000	0	0	-1	1000
20125515	877	1282	0	-100	0	230	101300000	1000	0	0	-1	1000
20138075	872	1281	0	-100	0	230	101300000	1000	0	0	-1	1000
20150635	868	1284	0	-100	0	230	101300000	1000	0	0	-1	1000
20163195	872	1283	0	-100	0	230	101300000	1000	0	0	-1	1000
20175755	884	1280	0	-100	0	230	101300000	1000	0	0	-1	1000
20188315	865	1283	0	-100	0	230	101300000	1000	0	0	-1	1000
20200875	870	1282	0	-100	0	230	101300000	1000	0	0	-1	1000
20213435	874	1283	0	-100	0	230	101300000	1000	0	0	-1	1000
20225995	868	1288	0	-100	0	230	101300000	1000	0	0	-1	1000
20238555	867	1284	0	-100	0	230	101300000	1000	0	0	-1	1000
20251115	873	1279	0	-100	0	230	101300000	1000	0	0	-1	1000
20263675	867	1288	0	-100	0	230	101300000	1000	0	0	-1	1000
20276235	873	1281	0	-100	0	230	101300000	1000	0	0	-1	1000
20288795	867	1288	0	-100	0	230	101300000	1000	0	0	-1	1000
20301355	868	1279	0	-100	0	230	101300000	1000	0	0	-1	1000
20313915	865	1284	0	-100	0	230	101300000	1000	0	0	-1	1000
20326475	866	1280	0	-100	0	230	101300000	1000	0	0	-1	1000
20339035	863	1287	0	-100	0	230	101300000	1000	0	0	-1	1000
20351595	877	1281	0	-100	0	230	101300000	1000	0	0	-1	1000
20364155	869	1282	0	-100	0	230	101300000	1000	0	0	-1	1000
20376715	868	1288	0	-100	0	230	101300000	1000	0	0	-1	1000
20389275	868	1280	0	-100	0	230	101300000	1000	0	0	-1	1000
20401835	870	1286	0	-100	0	230	101300000	1000	0	0	-1	1000
20414395	879	1281	0	-100	0	230	101300000	1000	0	0	-1	1000
20426955	868	1287	0	-100	0	230	101300000	1000	0	0	-1	1000
20439515	872	1278	0	-100	0	230	101300000	1000	0	0	-1	1000
20452075	873	1288	0	-100	0	230	101300000	1000	0	0	-1	1000
20464635	882	1280	0	-100	0	230	101300000	1000	0	0	-1	1000
20477195	870	1281	0	-100	0	230	101300000	1000	0	0	-1	1000
20489755	865	1284	0	-100	0	230	101300000	1000	0	0	-1	1000
20502315	867	1279	0	-100	0	230	101300000	1000	0	0	-1	1000
20514875	866	1289	0	-100	0	230	101300000	1000	0	0	-1	1000
20552555	877	1279	0	-100	0	230	101300000	1000	0	0	-1	1000
20565115	872	1285	0	-100	0	230	101300000	1000	0	0	-1	1000
20577675	877	1281	0	-100	0	230	101300000	1000	0	0	-1	1000
20590235	870	1281	0	-100	0	230	101300000	1000	0	0	-1	1000
20602795	861	1286	0	-100	0	230	101300000	1000	0	0	-1	1000
20615355	872	1280	0	-100	0	230	101300000	1000	0	0	-1	1000
20627915	865	1285	0	-100	0	230	101300000	1000	0	0	-1	1000
20640475	875	1282	0	-100	0	230	101300000	1000	0	0	-1	1000
20653035	877	1283	0	-100	0	230	101300000	1000	0	0	-1	1000
20665595	883	1282	0	-100	0	230	101300000	1000	0	0	-1	1000
20678155	866	1284	0	-100	0	230	101300000	1000	0	0	-1	1000
20690715	875	1277	0	-100	0	230	101300000	1000	0	0	-1	1000
20753515	875	1278	0	-100	0	230	101300000	1000	0	0	-1	1000
20766075	882	1290	0	-100	0	230	101300000	1000	0	0	-1	1000
20778635	882	1281	0	-100	0	230	101300000	1000	0	0	-1	1000
20791195	867	1280	0	-100	0	230	101300000	1000	0	0	-1	1000
20803755	868	1287	0	-100	0	230	101300000	1000	0	0	-1	1000
20816315	870	1280	0	-100	0	230	101300000	1000	0	0	-1	1000
20828875	863	1286	0	-100	0	230	101300000	1000	0	0	-1	1000
20841435	868	1280	0	-100	0	230	101300000	1000	0	0	-1	1000
20853995	866	1282	0	-100	0	230	101300000	1000	0	0	-1	1000
20866555	882	1281	0	-100	0	230	101300000	1000	0	0	-1	1000
20879115	868	1288	0	-100	0	230	101300000	1000	0	0	-1	1000
20891675	870	1277	0	-100	0	230	101300000	1000	0	0	-1	1000
20904235	885	1288	0	-100	0	230	101300000	1000	0	0	-1	1000
20916795	874	1280	0	-100	0	230	101300000	1000	0	0	-1	1000
20929355	867	1285	0	-100	0	230	101300000	1000	0	0	-1	1000
20941915	868	1282	0	-100	0	230	101300000	1000	0	0	-1	1000
20954475	875	1281	0	-100	0	230	101300000	1000	0	0	-1	1000
20967035	868	1290	0	-100	0	230	101300000	1000	0	0	-1	1000
20979595	868	1280	0	-100	0	230	101300000	1000	0	0	-1	1000
20992155	868	1285	0	-100	0	230	101300000	1000	0	0	-1	1000
21004715	872	1283	0	-100	0	230	101300000	1000	0	0	-1	1000
21017275	865	1280	0	-100	0	230	101300000	1000	0	0	-1	1000
21029835	863	1284	0	-100	0	230	101300000	1000	0	0	-1	1000
21042395	877	1280	0	-100	0	230	101300000	1000	0	0	-1	1000
21054955	875	1286	0	-100	0	230	101300000	1000	0	0	-1	1000
21067515	874	1281	0	-100	0	230	101300000	1000	0	0	-1	1000
21080075	863	1287	0	-100	0	230	101300000	1000	0	0	-1	1000
21092635	872	1281	0	-100	0	230	101300000	1000	0	0	-1	1000
21105195	866	1285	0	-100	0	230	101300000	1000	0	0	-1	1000
21117755	865	1280	0	-100	0	230	101300000	1000	0	0	-1	1000
21130315	885	1281	0	-100	0	230	101300000	1000	0	0	-1	1000
21142875	873	1287	0	-100	0	230	101300000	1000	0	0	-1	1000
21155435	879	1279	0	-100	0	230	101300000	1000	0	0	-1	1000
21167995	867	1278	0	-100	0	230	101300000	1000	0	0	-1	1000
21180555	863	1286	0	-100	0	230	101300000	1000	0	0	-1	1000
21193115	870	1282	0	-100	0	230	101300000	1000	0	0	-1	1000
21205675	867	1279	0	-100	0	230	101300000	1000	0	0	-1	1000
21218235	880	1285	0	-100	0	230	101300000	1000	0	0	-1	1000
21230795	873	1284	0	-100	0	230	101300000	1000	0	0	-1	1000
21243355	875	1281	0	-100	0	230	101300000	1000	0	0	-1	1000
21255915	871	1286	0	-100	0	230	101300000	1000	0	0	-1	1000
21268475	871	1282	0	-100	0	230	101300000	1000	0	0	-1	1000
21281035	863	1280	0	-100	0	230	101300000	1000	0	0	-1	1000
21293595	883	1285	0	-100	0	230	101300000	1000	0	0	-1	1000
21306155	876	1282	0	-100	0	230	101300000	1000	0	0	-1	1000
21318715	870	1289	0	-100	0	230	101300000	1000	0	0	-1	1000
21331275	873	1283	0	-100	0	230	101300000	1000	0	0	-1	1000
21343835	868	1283	0	-100	0	230	101300000	1000	0	0	-1	1000
21356395	863	1284	0	-100	0	230	101300000	1000	0	0	-1	1000
21368955	875	1280	0	-100	0	230	101300000	1000	0	0	-1	1000
21381515	875	1284	0	-100	0	230	101300000	1000	0	0	-1	1000
21394075	870	1285	0	-100	0	230	101300000	1000	0	0	-1	1000
21406635	870	1281	0	-100	0	230	101300000	1000	0	0	-1	1000
21419195	875	1290	0	-100	0	230	101300000	1000	0	0	-1	1000
21431755	875	1282	0	-100	0	230	101300000	1000	0	0	-1	1000
21444315	867	1280	0	-100	0	230	101300000	1000	0	0	-1	1000
21456875	885	1288	0	-100	0	230	101300000	1000	0	0	-1	1000
21469435	875	1283	0	-100	0	230	101300000	1000	0	0	-1	1000
21481995	868	1279	0	-100	0	230	101300000	1000	0	0	-1	1000
21494555	894	1281	0	-100	0	230	101300000	1000	0	0	-1	1000
21507115	869	1285	0	-100	0	230	101300000	1000	0	0	-1	1000
21519675	870	1279	0	-100	0	230	101300000	1000	0	0	-1	1000
21532235	867	1284	0	-100	0	230	101300000	1000	0	0	-1	1000
21544795	881	1279	0	-100	0	230	101300000	1000	0	0	-1	1000
21557355	867	1283	0	-100	0	230	101300000	1000	0	0	-1	1000
21569915	875	1283	0	-100	0	230	101300000	1000	0	0	-1	1000
21582475	865	1289	0	-100	0	230	101300000	1000	0	0	-1	1000
21595035	868	1280	0	-100	0	230	101300000	1000	0	0	-1	1000
21607595	875	1286	0	-100	0	230	101300000	1000	0	0	-1	1000
21620155	869	1281	0	-100	0	230	101300000	1000	0	0	-1	1000
21632715	877	1282	0	-100	0	230	101300000	1000	0	0	-1	1000
21645275	870	1285	0	-100	0	230	101300000	1000	0	0	-1	1000
21657835	872	1278	0	-100	0	230	101300000	1000	0	0	-1	1000
21670395	870	1289	0	-100	0	230	101300000	1000	0	0	-1	1000
21682955	886	1277	0	-100	0	230	101300000	1000	0	0	-1	1000
21695515	874	1287	0	-100	0	230	101300000	1000	0	0	-1	1000
21708075	874	1277	0	-100	0	230	101300000	1000	0	0	-1	1000
21720635	866	1287	0	-100	0	230	101300000	1000	0	0	-1	1000
21733195	872	1279	0	-100	0	230	101300000	1000	0	0	-1	1000
21745755	873	1286	0	-100	0	230	101300000	1000	0	0	-1	1000
21758315	879	1279	0	-100	0	230	101300000	1000	0	0	-1	1000
21770875	870	1286	0	-100	0	230	101300000	1000	0	0	-1	1000
21783435	865	1279	0	-100	0	230	101300000	1000	0	0	-1	1000
21795995	880	1286	0	-100	0	230	101300000	1000	0	0	-1	1000
21808555	867	1281	0	-100	0	230	101300000	1000	0	0	-1	1000
21821115	870	1284	0	-100	0	230	101300000	1000	0	0	-1	1000
21833675	877	1283	0	-100	0	230	101300000	1000	0	0	-1	1000
21846235	880	1281	0	-100	0	230	101300000	1000	0	0	-1	1000
21858795	868	1285	0	-100	0	230	101300000	1000	0	0	-1	1000
21871355	884	1277	0	-100	0	230	101300000	1000	0	0	-1	1000
21883915	868	1288	0	-100	0	230	101300000	1000	0	0	-1	1000
21896475	880	1279	0	-100	0	230	101300000	1000	0	0	-1	1000
21909035	868	1288	0	-100	0	230	101300000	1000	0	0	-1	1000
21921595	885	1281	0	-100	0	230	101300000	1000	0	0	-1	1000
21934155	862	1284	0	-100	0	230	101300000	1000	0	0	-1	1000
21946715	887	1282	0	-100	0	230	101300000	1000	0	0	-1	1000
21959275	865	1285	0	-100	0	230	101300000	1000	0	0	-1	1000
21971835	875	1282	0	-100	0	230	101300000	1000	0	0	-1	1000
21984395	870	1280	0	-100	0	230	101300000	1000	0	0	-1	1000
21996955	873	1288	0	-100	0	230	101300000	1000	0	0	-1	1000
22009515	884	1279	0	-100	0	230	101300000	1000	0	0	-1	1000
22084875	863	1286	0	-100	0	230	101300000	1000	0	0	-1	1000
22097435	877	1280	0	-100	0	230	101300000	1000	0	0	-1	1000
22109995	873	1287	0	-100	0	230	101300000	1000	0	0	-1	1000
22122555	875	1285	0	-100	0	230	101300000	1000	0	0	-1	1000
22135115	877	1278	0	-100	0	230	101300000	1000	0	0	-1	1000
22147675	868	1288	0	-100	0	230	101300000	1000	0	0	-1	1000
22160235	872	1280	0	-100	0	230	101300000	1000	0	0	-1	1000
22172795	875	1280	0	-100	0	230	101300000	1000	0	0	-1	1000
22185355	882	1289	0	-100	0	230	101300000	1000	0	0	-1	1000
22197915	875	1279	0	-100	0	230	101300000	1000	0	0	-1	1000
22210475	878	1283	0	-100	0	230	101300000	1000	0	0	-1	1000
22223035	870	1282	0	-100	0	230	101300000	1000	0	0	-1	1000
22235595	875	1278	0	-100	0	230	101300000	1000	0	0	-1	1000
22248155	872	1289	0	-100	0	230	101300000	1000	0	0	-1	1000
22260715	872	1280	0	-100	0	230	101300000	1000	0	0	-1	1000
22273275	877	1285	0	-100	0	230	101300000	1000	0	0	-1	1000
22285835	870	1278	0	-100	0	230	101300000	1000	0	0	-1	1000
22298395	877	1284	0	-100	0	230	101300000	1000	0	0	-1	1000
22310955	870	1288	0	-100	0	230	101300000	1000	0	0	-1	1000
22323515	877	1280	0	-100	0	230	101300000	1000	0	0	-1	1000
22336075	875	1287	0	-100	0	230	101300000	1000	0	0	-1	1000
22348635	872	1279	0	-100	0	230	101300000	1000	0	0	-1	1000
22361195	875	1286	0	-100	0	230	101300000	1000	0	0	-1	1000
22373755	870	1280	0	-100	0	230	101300000	1000	0	0	-1	1000
22386315	877	1281	0	-100	0	230	101300000	1000	0	0	-1	1000
22398875	870	1284	0	-100	0	230	101300000	1000	0	0	-1	1000
22411435	886	1277	0	-100	0	230	101300000	1000	0	0	-1	1000
22423995	868	1278	0	-100	0	230	101300000	1000	0	0	-1	1000
22436555	879	1279	0	-100	0	230	101300000	1000	0	0	-1	1000
22449115	868	1284	0	-100	0	230	101300000	1000	0	0	-1	1000
22461675	870	1284	0	-100	0	230	101300000	1000	0	0	-1	1000
22474235	882	1279	0	-100	0	230	101300000	1000	0	0	-1	1000
22486795	868	1284	0	-100	0	230	101300000	1000	0	0	-1	1000
22499355	873	1284	0	-100	0	230	101300000	1000	0	0	-1	1000
22511915	887	1279	0	-100	0	230	101300000	1000	0	0	-1	1000
22524475	865	1287	0	-100	0	230	101300000	1000	0	0	-1	1000
22537035	879	1279	0	-100	0	230	101300000	1000	0	0	-1	1000
22549595	877	1281	0	-100	0	230	101300000	1000	0	0	-1	1000
22562155	864	1286	0	-100	0	230	101300000	1000	0	0	-1	1000
22574715	890	1280	0	-100	0	230	101300000	1000	0	0	-1	1000
22587275	863	1285	0	-100	0	230	101300000	1000	0	0	-1	1000
22599835	875	1286	0	-100	0	230	101300000	1000	0	0	-1	1000
22612395	880	1280	0	-100	0	230	101300000	1000	0	0	-1	1000
22624955	868	1282	0	-100	0	230	101300000	1000	0	0	-1	1000
22637515	870	1286	0	-100	0	230	101300000	1000	0	0	-1	1000
22650075	873	1281	0	-100	0	230	101300000	1000	0	0	-1	1000
22662635	877	1288	0	-100	0	230	101300000	1000	0	0	-1	1000
22675195	868	1281	0	-100	0	230	101300000	1000	0	0	-1	1000
22687755	879	1280	0	-100	0	230	101300000	1000	0	0	-1	1000
22700315	873	1286	0	-100	0	230	101300000	1000	0	0	-1	1000
22712875	877	1283	0	-100	0	230	101300000	1000	0	0	-1	1000
22725435	877	1280	0	-100	0	230	101300000	1000	0	0	-1	1000
22737995	879	1278	0	-100	0	230	101300000	1000	0	0	-1	1000
22750555	866	1285	0	-100	0	230	101300000	1000	0	0	-1	1000
22763115	884	1280	0	-100	0	230	101300000	1000	0	0	-1	1000
22775675	870	1287	0	-100	0	230	101300000	1000	0	0	-1	1000
22788235	873	1283	0	-100	0	230	101300000	1000	0	0	-1	1000
22800795	875	1282	0	-100	0	230	101300000	1000	0	0	-1	1000
22813355	865	1287	0	-100	0	230	101300000	1000	0	0	-1	1000
22825915	876	1283	0	-100	0	230	101300000	1000	0	0	-1	1000
22838475	875	1278	0	-100	0	230	101300000	1000	0	0	-1	1000
22851035	877	1281	0	-100	0	230	101300000	1000	0	0	-1	1000
22863595	871	1286	0	-100	0	230	101300000	1000	0	0	-1	1000
22876155	886	1281	0	-100	0	230	101300000	1000	0	0	-1	1000
22888715	875	1280	0	-100	0	230	101300000	1000	0	0	-1	1000
22901275	878	1287	0	-100	0	230	101300000	1000	0	0	-1	1000
22913835	877	1280	0	-100	0	230	101300000	1000	0	0	-1	1000
22926395	872	1285	0	-100	0	230	101300000	1000	0	0	-1	1000
22938955	873	1286	0	-100	0	230	101300000	1000	0	0	-1	1000
22951515	884	1280	0	-100	0	230	101300000	1000	0	0	-1	1000
22964075	870	1286	0	-100	0	230	101300000	1000	0	0	-1	1000
22976635	878	1281	0	-100	0	230	101300000	1000	0	0	-1	1000
22989195	897	1281	0	-100	0	230	101300000	1000	0	0	-1	1000
23001755	868	1286	0	-100	0	230	101300000	1000	0	0	-1	1000
23014315	881	1278	0	-100	0	230	101300000	1000	0	0	-1	1000
23026875	873	1287	0	-100	0	230	101300000	1000	0	0	-1	1000
23039435	877	1278	0	-100	0	230	101300000	1000	0	0	-1	1000
23051995	878	1281	0	-100	0	230	101300000	1000	0	0	-1	1000
23064555	870	1277	0	-100	0	230	101300000	1000	0	0	-1	1000
23077115	877	1288	0	-100	0	230	101300000	1000	0	0	-1	1000
23089675	875	1283	0	-100	0	230	101300000	1000	0	0	-1	1000
23102235	875	1280	0	-100	0	230	101300000	1000	0	0	-1	1000
23114795	868	1288	0	-100	0	230	101300000	1000	0	0	-1	1000
23127355	879	1282	0	-100	0	230	101300000	1000	0	0	-1	1000
23139915	870	1280	0	-100	0	230	101300000	1000	0	0	-1	1000
23152475	875	1290	0	-100	0	230	101300000	1000	0	0	-1	1000
23165035	872	1280	0	-100	0	230	101300000	1000	0	0	-1	1000
23177595	877	1280	0	-100	0	230	101300000	1000	0	0	-1	1000
23190155	863	1289	0	-100	0	230	101300000	1000	0	0	-1	1000
23202715	884	1280	0	-100	0	230	101300000	1000	0	0	-1	1000
23215275	870	1279	0	-100	0	230	101300000	1000	0	0	-1	1000
23227835	876	1285	0	-100	0	230	101300000	1000	0	0	-1	1000
23240395	873	1281	0	-100	0	230	101300000	1000	0	0	-1	1000
23252955	887	1280	0	-100	0	230	101300000	1000	0	0	-1	1000
23265515	870	1285	0	-100	0	230	101300000	1000	0	0	-1	1000
23278075	882	1284	0	-100	0	230	101300000	1000	0	0	-1	1000
23290635	875	1280	0	-100	0	230	101300000	1000	0	0	-1	1000
23303195	875	1285	0	-100	0	230	101300000	1000	0	0	-1	1000
23315755	873	1285	0	-100	0	230	101300000	1000	0	0	-1	1000
23328315	897	1280	0	-100	0	230	101300000	1000	0	0	-1	1000
23340875	868	1284	0	-100	0	230	101300000	1000	0	0	-1	1000
23353435	882	1286	0	-100	0	230	101300000	1000	0	0	-1	1000
23365995	875	1286	0	-100	0	230	101300000	1000	0	0	-1	1000
23378555	884	1281	0	-100	0	230	101300000	1000	0	0	-1	1000
23391115	865	1282	0	-100	0	230	101300000	1000	0	0	-1	1000
23403675	872	1287	0	-100	0	230	101300000	1000	0	0	-1	1000
23416235	875	1280	0	-100	0	230	101300000	1000	0	0	-1	1000
23428795	872	1280	0	-100	0	230	101300000	1000	0	0	-1	1000
23441355	875	1288	0	-100	0	230	101300000	1000	0	0	-1	1000
23453915	868	1283	0	-100	0	230	101300000	1000	0	0	-1	1000
23466475	879	1282	0	-100	0	230	101300000	1000	0	0	-1	1000
23479035	892	1282	0	-100	0	230	101300000	1000	0	0	-1	1000
23516715	889	1280	0	-100	0	230	101300000	1000	0	0	-1	1000
23529275	868	1279	0	-100	0	230	101300000	1000	0	0	-1	1000
23541835	868	1288	0	-100	0	230	101300000	1000	0	0	-1	1000
23554395	880	1280	0	-100	0	230	101300000	1000	0	0	-1	1000
23566955	880	1281	0	-100	0	230	101300000	1000	0	0	-1	1000
23579515	870	1284	0	-100	0	230	101300000	1000	0	0	-1	1000
23592075	872	1288	0	-100	0	230	101300000	1000	0	0	-1	1000
23604635	875	1277	0	-100	0	230	101300000	1000	0	0	-1	1000
23617195	878	1280	0	-100	0	230	101300000	1000	0	0	-1	1000
23629755	882	1285	0	-100	0	230	101300000	1000	0	0	-1	1000
23642315	867	1287	0	-100	0	230	101300000	1000	0	0	-1	1000
23654875	881	1279	0	-100	0	230	101300000	1000	0	0	-1	1000
23730235	878	1280	0	-100	0	230	101300000	1000	0	0	-1	1000
23742795	877	1279	0	-100	0	230	101300000	1000	0	0	-1	1000
23755355	867	1286	0	-100	0	230	101300000	1000	0	0	-1	1000
23767915	872	1287	0	-100	0	230	101300000	1000	0	0	-1	1000
23780475	871	1284	0	-100	0	230	101300000	1000	0	0	-1	1000
23793035	877	1282	0	-100	0	230	101300000	1000	0	0	-1	1000
23805595	887	1286	0	-100	0	230	101300000	1000	0	0	-1	1000
23818155	865	1287	0	-100	0	230	101300000	1000	0	0	-1	1000
23830715	881	1278	0	-100	0	230	101300000	1000	0	0	-1	1000
23843275	870	1279	0	-100	0	230	101300000	1000	0	0	-1	1000
23855835	875	1287	0	-100	0	230	101300000	1000	0	0	-1	1000
23868395	868	1288	0	-100	0	230	101300000	1000	0	0	-1	1000
23880955	873	1282	0	-100	0	230	101300000	1000	0	0	-1	1000
23893515	884	1280	0	-100	0	230	101300000	1000	0	0	-1	1000
23906075	870	1288	0	-100	0	230	101300000	1000	0	0	-1	1000
23918635	877	1280	0	-100	0	230	101300000	1000	0	0	-1	1000
23931195	870	1280	0	-100	0	230	101300000	1000	0	0	-1	1000
23943755	872	1283	0	-100	0	230	101300000	1000	0	0	-1	1000
23956315	878	1286	0	-100	0	230	101300000	1000	0	0	-1	1000
23968875	875	1278	0	-100	0	230	101300000	1000	0	0	-1	1000
23981435	872	1282	0	-100	0	230	101300000	1000	0	0	-1	1000
23993995	884	1281	0	-100	0	230	101300000	1000	0	0	-1	1000
24006555	875	1279	0	-100	0	230	101300000	1000	0	0	-1	1000
24019115	875	1281	0	-100	0	230	101300000	1000	0	0	-1	1000
24031675	874	1288	0	-100	0	230	101300000	1000	0	0	-1	1000
24044235	872	1285	0	-100	0	230	101300000	1000	0	0	-1	1000
24056795	875	1282	0	-100	0	230	101300000	1000	0	0	-1	1000
24069355	877	1281	0	-100	0	230	101300000	1000	0	0	-1	1000
24081915	877	1284	0	-100	0	230	101300000	1000	0	0	-1	1000
24094475	866	1290	0	-100	0	230	101300000	1000	0	0	-1	1000
24107035	870	1284	0	-100	0	230	101300000	1000	0	0	-1	1000
24119595	882	1281	0	-100	0	230	101300000	1000	0	0	-1	1000
24132155	867	1280	0	-100	0	230	101300000	1000	0	0	-1	1000
24144715	875	1289	0	-100	0	230	101300000	1000	0	0	-1	1000
24157275	870	1282	0	-100	0	230	101300000	1000	0	0	-1	1000
24169835	874	1281	0	-100	0	230	101300000	1000	0	0	-1	1000
24182395	870	1286	0	-100	0	230	101300000	1000	0	0	-1	1000
24194955	878	1280	0	-100	0	230	101300000	1000	0	0	-1	1000
24207515	870	1280	0	-100	0	230	101300000	1000	0	0	-1	1000
24220075	875	1288	0	-100	0	230	101300000	1000	0	0	-1	1000
24232635	873	1280	0	-100	0	230	101300000	1000	0	0	-1	1000
24245195	877	1283	0	-100	0	230	101300000	1000	0	0	-1	1000
24257755	866	1285	0	-100	0	230	101300000	1000	0	0	-1	1000
24270315	870	1281	0	-100	0	230	101300000	1000	0	0	-1	1000
24282875	870	1287	0	-100	0	230	101300000	1000	0	0	-1	1000
24295435	872	1283	0	-100	0	230	101300000	1000	0	0	-1	1000
24307995	884	1283	0	-100	0	230	101300000	1000	0	0	-1	1000
24320555	870	1288	0	-100	0	230	101300000	1000	0	0	-1	1000
24333115	871	1281	0	-100	0	230	101300000	1000	0	0	-1	1000
24345675	873	1281	0	-100	0	230	101300000	1000	0	0	-1	1000
24358235	866	1287	0	-100	0	230	101300000	1000	0	0	-1	1000
24370795	873	1282	0	-100	0	230	101300000	1000	0	0	-1	1000
24383355	873	1280	0	-100	0	230	101300000	1000	0	0	-1	1000
24395915	877	1284	0	-100	0	230	101300000	1000	0	0	-1	1000
24408475	863	1287	0	-100	0	230	101300000	1000	0	0	-1	1000
24421035	882	1281	0	-100	0	230	101300000	1000	0	0	-1	1000
24433595	875	1281	0	-100	0	230	101300000	1000	0	0	-1	1000
24446155	865	1289	0	-100	0	230	101300000	1000	0	0	-1	1000
24458715	879	1283	0	-100	0	230	101300000	1000	0	0	-1	1000
24471275	870	1279	0	-100	0	230	101300000	1000	0	0	-1	1000
24483835	875	1287	0	-100	0	230	101300000	1000	0	0	-1	1000
24496395	873	1281	0	-100	0	230	101300000	1000	0	0	-1	1000
24508955	876	1280	0	-100	0	230	101300000	1000	0	0	-1	1000
24521515	868	1286	0	-100	0	230	101300000	1000	0	0	-1	1000
24534075	879	1283	0	-100	0	230	101300000	1000	0	0	-1	1000
24546635	866	1288	0	-100	0	230	101300000	1000	0	0	-1	1000
24559195	877	1278	0	-100	0	230	101300000	1000	0	0	-1	1000
24571755	882	1284	0	-100	0	230	101300000	1000	0	0	-1	1000
24584315	877	1282	0	-100	0	230	101300000	1000	0	0	-1	1000
24596875	875	1282	0	-100	0	230	101300000	1000	0	0	-1	1000
24609435	865	1286	0	-100	0	230	101300000	1000	0	0	-1	1000
24621995	877	1285	0	-100	0	230	101300000	1000	0	0	-1	1000
24634555	868	1284	0	-100	0	230	101300000	1000	0	0	-1	1000
24647115	877	1282	0	-100	0	230	101300000	1000	0	0	-1	1000
24659675	868	1282	0	-100	0	230	101300000	1000	0	0	-1	1000
24672235	873	1286	0	-100	0	230	101300000	1000	0	0	-1	1000
24684795	875	1279	0	-100	0	230	101300000	1000	0	0	-1	1000
24697355	872	1280	0	-100	0	230	101300000	1000	0	0	-1	1000
24709915	872	1289	0	-100	0	230	101300000	1000	0	0	-1	1000
24722475	863	1283	0	-100	0	230	101300000	1000	0	0	-1	1000
24735035	882	1281	0	-100	0	230	101300000	1000	0	0	-1	1000
24747595	867	1283	0	-100	0	230	101300000	1000	0	0	-1	1000
24760155	875	1285	0	-100	0	230	101300000	1000	0	0	-1	1000
24772715	877	1279	0	-100	0	230	101300000	1000	0	0	-1	1000
24785275	867	1284	0	-100	0	230	101300000	1000	0	0	-1	1000
24797835	872	1283	0	-100	0	230	101300000	1000	0	0	-1	1000
24810395	877	1280	0	-100	0	230	101300000	1000	0	0	-1	1000
24822955	880	1283	0	-100	0	230	101300000	1000	0	0	-1	1000
24835515	873	1284	0	-100	0	230	101300000	1000	0	0	-1	1000
24848075	877	1280	0	-100	0	230	101300000	1000	0	0	-1	1000
24860635	870	1288	0	-100	0	230	101300000	1000	0	0	-1	1000
24873195	870	1280	0	-100	0	230	101300000	1000	0	0	-1	1000
24885755	879	1279	0	-100	0	230	101300000	1000	0	0	-1	1000
24898315	868	1288	0	-100	0	230	101300000	1000	0	0	-1	1000
24910875	879	1278	0	-100	0	230	101300000	1000	0	0	-1	1000
24923435	867	1283	0	-100	0	230	101300000	1000	0	0	-1	1000
24935995	870	1285	0	-100	0	230	101300000	1000	0	0	-1	1000
24948555	877	1281	0	-100	0	230	101300000	1000	0	0	-1	1000
24961115	865	1285	0	-100	0	230	101300000	1000	0	0	-1	1000
24973675	874	1282	0	-100	0	230	101300000	1000	0	0	-1	1000
24986235	870	1280	0	-100	0	230	101300000	1000	0	0	-1	1000
24998795	878	1288	0	-100	0	230	101300000	1000	0	0	-1	1000
25011355	875	1282	0	-100	0	230	101300000	1000	0	0	-1	1000
25023915	880	1283	0	-100	0	230	101300000	1000	0	0	-1	1000
25036475	870	1280	0	-100	0	230	101300000	1000	0	0	-1	1000
25049035	872	1281	0	-100	0	230	101300000	1000	0	0	-1	1000
25061595	892	1284	0	-100	0	230	101300000	1000	0	0	-1	1000
25074155	867	1281	0	-100	0	230	101300000	1000	0	0	-1	1000
25086715	877	1285	0	-100	0	230	101300000	1000	0	0	-1	1000
25099275	862	1285	0	-100	0	230	101300000	1000	0	0	-1	1000
25111835	877	1282	0	-100	0	230	101300000	1000	0	0	-1	1000
25124395	889	1285	0	-100	0	230	101300000	1000	0	0	-1	1000
25136955	870	1280	0	-100	0	230	101300000	1000	0	0	-1	1000
25149515	877	1280	0	-100	0	230	101300000	1000	0	0	-1	1000
25162075	863	1286	0	-100	0	230	101300000	1000	0	0	-1	1000
25174635	882	1280	0	-100	0	230	101300000	1000	0	0	-1	1000
25187195	870	1288	0	-100	0	230	101300000	1000	0	0	-1	1000
25199755	872	1282	0	-100	0	230	101300000	1000	0	0	-1	1000
25212315	877	1285	0	-100	0	230	101300000	1000	0	0	-1	1000
25224875	875	1282	0	-100	0	230	101300000	1000	0	0	-1	1000
25237435	884	1280	0	-100	0	230	101300000	1000	0	0	-1	1000
25249995	868	1280	0	-100	0	230	101300000	1000	0	0	-1	1000
25262555	880	1280	0	-100	0	230	101300000	1000	0	0	-1	1000
25275115	875	1280	0	-100	0	230	101300000	1000	0	0	-1	1000
25287675	863	1286	0	-100	0	230	101300000	1000	0	0	-1	1000
25300235	879	1281	0	-100	0	230	101300000	1000	0	0	-1	1000
25312795	870	1280	0	-100	0	230	101300000	1000	0	0	-1	1000
25325355	880	1285	0	-100	0	230	101300000	1000	0	0	-1	1000
25337915	870	1282	0	-100	0	230	101300000	1000	0	0	-1	1000
25350475	880	1280	0	-100	0	230	101300000	1000	0	0	-1	1000
25363035	870	1283	0	-100	0	230	101300000	1000	0	0	-1	1000
25375595	866	1285	0	-100	0	230	101300000	1000	0	0	-1	1000
25388155	876	1280	0	-100	0	230	101300000	1000	0	0	-1	1000
25400715	870	1279	0	-100	0	230	101300000	1000	0	0	-1	1000
25413275	875	1286	0	-100	0	230	101300000	1000	0	0	-1	1000
25425835	875	1282	0	-100	0	230	101300000	1000	0	0	-1	1000
25438395	887	1281	0	-100	0	230	101300000	1000	0	0	-1	1000
25450955	870	1286	0	-100	0	230	101300000	1000	0	0	-1	1000
25463515	863	1286	0	-100	0	230	101300000	1000	0	0	-1	1000
25476075	882	1278	0	-100	0	230	101300000	1000	0	0	-1	1000
25488635	867	1279	0	-100	0	230	101300000	1000	0	0	-1	1000
25501195	875	1287	0	-100	0	230	101300000	1000	0	0	-1	1000
25513755	875	1281	0	-100	0	230	101300000	1000	0	0	-1	1000
25526315	884	1279	0	-100	0	230	101300000	1000	0	0	-1	1000
25538875	865	1284	0	-100	0	230	101300000	1000	0	0	-1	1000
25551435	875	1287	0	-100	0	230	101300000	1000	0	0	-1	1000
25563995	873	1287	0	-100	0	230	101300000	1000	0	0	-1	1000
25576555	872	1283	0	-100	0	230	101300000	1000	0	0	-1	1000
25589115	880	1287	0	-100	0	230	101300000	1000	0	0	-1	1000
25601675	875	1280	0	-100	0	230	101300000	1000	0	0	-1	1000
25614235	880	1281	0	-100	0	230	101300000	1000	0	0	-1	1000
25626795	868	1289	0	-100	0	230	101300000	1000	0	0	-1	1000
25639355	873	1282	0	-100	0	230	101300000	1000	0	0	-1	1000
25651915	884	1280	0	-100	0	230	101300000	1000	0	0	-1	1000
25664475	866	1288	0	-100	0	230	101300000	1000	0	0	-1	1000
25677035	887	1279	0	-100	0	230	101300000	1000	0	0	-1	1000
25689595	870	1283	0	-100	0	230	101300000	1000	0	0	-1	1000
25702155	862	1288	0	-100	0	230	101300000	1000	0	0	-1	1000
25714715	879	1281	0	-100	0	230	101300000	1000	0	0	-1	1000
25727275	870	1280	0	-100	0	230	101300000	1000	0	0	-1	1000
25739835	875	1281	0	-100	0	230	101300000	1000	0	0	-1	1000
25752395	873	1286	0	-100	0	230	101300000	1000	0	0	-1	1000
25764955	887	1279	0	-100	0	230	101300000	1000	0	0	-1	1000
25777515	870	1280	0	-100	0	230	101300000	1000	0	0	-1	1000
25790075	863	1287	0	-100	0	230	101300000	1000	0	0	-1	1000
25802635	885	1281	0	-100	0	230	101300000	1000	0	0	-1	1000
25815195	870	1280	0	-100	0	230	101300000	1000	0	0	-1	1000
25827755	863	1287	0	-100	0	230	101300000	1000	0	0	-1	1000
25840315	877	1283	0	-100	0	230	101300000	1000	0	0	-1	1000
25852875	875	1281	0	-100	0	230	101300000	1000	0	0	-1	1000
25865435	880	1281	0	-100	0	230	101300000	1000	0	0	-1	1000
25877995	870	1278	0	-100	0	230	101300000	1000	0	0	-1	1000
25890555	865	1286	0	-100	0	230	101300000	1000	0	0	-1	1000
25903115	892	1283	0	-100	0	230	101300000	1000	0	0	-1	1000
25915675	875	1280	0	-100	0	230	101300000	1000	0	0	-1	1000
25928235	865	1286	0	-100	0	230	101300000	1000	0	0	-1	1000
25940795	874	1287	0	-100	0	230	101300000	1000	0	0	-1	1000
25953355	872	1281	0	-100	0	230	101300000	1000	0	0	-1	1000
25965915	877	1280	0	-100	0	230	101300000	1000	0	0	-1	1000
25978475	875	1286	0	-100	0	230	101300000	1000	0	0	-1	1000
25991035	870	1282	0	-100	0	230	101300000	1000	0	0	-1	1000
26003595	877	1280	0	-100	0	230	101300000	1000	0	0	-1	1000
26016155	862	1289	0	-100	0	230	101300000	1000	0	0	-1	1000
26028715	884	1280	0	-100	0	230	101300000	1000	0	0	-1	1000
26041275	873	1280	0	-100	0	230	101300000	1000	0	0	-1	1000
26053835	875	1287	0	-100	0	230	101300000	1000	0	0	-1	1000
26066395	868	1282	0	-100	0	230	101300000	1000	0	0	-1	1000
26078955	875	1283	0	-100	0	230	101300000	1000	0	0	-1	1000
26091515	886	1285	0	-100	0	230	101300000	1000	0	0	-1	1000
26104075	866	1286	0	-100	0	230	101300000	1000	0	0	-1	1000
26116635	884	1281	0	-100	0	230	101300000	1000	0	0	-1	1000
26129195	873	1279	0	-100	0	230	101300000	1000	0	0	-1	1000
26141755	870	1282	0	-100	0	230	101300000	1000	0	0	-1	1000
26154315	880	1287	0	-100	0	230	101300000	1000	0	0	-1	1000
26166875	866	1284	0	-100	0	230	101300000	1000	0	0	-1	1000
26179435	880	1280	0	-100	0	230	101300000	1000	0	0	-1	1000
26191995	873	1285	0	-100	0	230	101300000	1000	0	0	-1	1000
26204555	875	1279	0	-100	0	230	101300000	1000	0	0	-1	1000
26217115	863	1287	0	-100	0	230	101300000	1000	0	0	-1	1000
26229675	890	1282	0	-100	0	230	101300000	1000	0	0	-1	1000
26242235	875	1279	0	-100	0	230	101300000	1000	0	0	-1	1000
26254795	883	1288	0	-100	0	230	101300000	1000	0	0	-1	1000
26267355	877	1285	0	-100	0	230	101300000	1000	0	0	-1	1000
26279915	868	1282	0	-100	0	230	101300000	1000	0	0	-1	1000
26292475	872	1288	0	-100	0	230	101300000	1000	0	0	-1	1000
26305035	872	1280	0	-100	0	230	101300000	1000	0	0	-1	1000
26317595	876	1282	0	-100	0	230	101300000	1000	0	0	-1	1000
26330155	870	1283	0	-100	0	230	101300000	1000	0	0	-1	1000
26342715	879	1283	0	-100	0	230	101300000	1000	0	0	-1	1000
26355275	877	1281	0	-100	0	230	101300000	1000	0	0	-1	1000
26367835	873	1284	0	-100	0	230	101300000	1000	0	0	-1	1000
26380395	877	1279	0	-100	0	230	101300000	1000	0	0	-1	1000
26392955	866	1287	0	-100	0	230	101300000	1000	0	0	-1	1000
26405515	878	1283	0	-100	0	230	101300000	1000	0	0	-1	1000
26443195	865	1282	0	-100	0	230	101300000	1000	0	0	-1	1000
26455755	875	1282	0	-100	0	230	101300000	1000	0	0	-1	1000
26468315	870	1281	0	-100	0	230	101300000	1000	0	0	-1	1000
26480875	877	1286	0	-100	0	230	101300000	1000	0	0	-1	1000
26493435	875	1279	0	-100	0	230	101300000	1000	0	0	-1	1000
26505995	880	1280	0	-100	0	230	101300000	1000	0	0	-1	1000
26518555	873	1279	0	-100	0	230	101300000	1000	0	0	-1	1000
26531115	877	1284	0	-100	0	230	101300000	1000	0	0	-1	1000
26543675	871	1283	0	-100	0	230	101300000	1000	0	0	-1	1000
26556235	882	1282	0	-100	0	230	101300000	1000	0	0	-1	1000
26568795	868	1287	0	-100	0	230	101300000	1000	0	0	-1	1000
26644155	871	1282	0	-100	0	230	101300000	1000	0	0	-1	1000
26656715	882	1281	0	-100	0	230	101300000	1000	0	0	-1	1000
26669275	870	1289	0	-100	0	230	101300000	1000	0	0	-1	1000
26681835	882	1277	0	-100	0	230	101300000	1000	0	0	-1	1000
26694395	865	1284	0	-100	0	230	101300000	1000	0	0	-1	1000
26706955	880	1281	0	-100	0	230	101300000	1000	0	0	-1	1000
26719515	870	1280	0	-100	0	230	101300000	1000	0	0	-1	1000
26732075	875	1283	0	-100	0	230	101300000	1000	0	0	-1	1000
26744635	870	1284	0	-100	0	230	101300000	1000	0	0	-1	1000
26757195	878	1278	0	-100	0	230	101300000	1000	0	0	-1	1000
26769755	865	1287	0	-100	0	230	101300000	1000	0	0	-1	1000
26819995	875	1287	0	-100	0	230	101300000	1000	0	0	-1	1000
26832555	868	1283	0	-100	0	230	101300000	1000	0	0	-1	1000
26845115	879	1281	0	-100	0	230	101300000	1000	0	0	-1	1000
26857675	868	1282	0	-100	0	230	101300000	1000	0	0	-1	1000
26870235	877	1285	0	-100	0	230	101300000	1000	0	0	-1	1000
26882795	872	1279	0	-100	0	230	101300000	1000	0	0	-1	1000
26895355	880	1286	0	-100	0	230	101300000	1000	0	0	-1	1000
26907915	877	1281	0	-100	0	230	101300000	1000	0	0	-1	1000
26920475	875	1281	0	-100	0	230	101300000	1000	0	0	-1	1000
26933035	870	1284	0	-100	0	230	101300000	1000	0	0	-1	1000
26945595	870	1280	0	-100	0	230	101300000	1000	0	0	-1	1000
26958155	869	1290	0	-100	0	230	101300000	1000	0	0	-1	1000
26970715	872	1277	0	-100	0	230	101300000	1000	0	0	-1	1000
26983275	872	1280	0	-100	0	230	101300000	1000	0	0	-1	1000
26995835	868	1284	0	-100	0	230	101300000	1000	0	0	-1	1000
27008395	884	1280	0	-100	0	230	101300000	1000	0	0	-1	1000
27020955	863	1287	0	-100	0	230	101300000	1000	0	0	-1	1000
27033515	894	1280	0	-100	0	230	101300000	1000	0	0	-1	1000
27046075	873	1287	0	-100	0	230	101300000	1000	0	0	-1	1000
