timestamp	voltage	current	windSpeed	pitchAngle	rpm	temperature	ambientPressure	humidity	accelerationX	accelerationY	accelerationZ	currentSink
7040070	2013	0	0	-100	0	230	101300000	1000	0	0	-1	0
7047523	2000	0	0	-100	0	230	101300000	1000	0	0	-1	0
7060083	2007	0	0	-100	0	230	101300000	1000	0	0	-1	0
7072643	2005	0	0	-100	0	230	101300000	1000	0	0	-1	0
7085203	2004	0	0	-100	0	230	101300000	1000	0	0	-1	0
7097763	2001	0	0	-100	0	230	101300000	1000	0	0	-1	0
7110323	2001	0	0	-100	0	230	101300000	1000	0	0	-1	0
7122883	2000	0	0	-100	0	230	101300000	1000	0	0	-1	0
7135443	1999	0	0	-100	0	230	101300000	1000	0	0	-1	0
7148004	2013	0	0	-100	0	230	101300000	1000	0	0	-1	0
7160563	2001	0	0	-100	0	230	101300000	1000	0	0	-1	0
7173123	1998	0	0	-100	0	230	101300000	1000	0	0	-1	0
7185683	1999	5	0	-100	0	230	101300000	1000	0	0	-1	0
7198243	1997	25	0	-100	0	230	101300000	1000	0	0	-1	0
7210803	2006	0	0	-100	0	230	101300000	1000	0	0	-1	0
7223363	2004	0	0	-100	0	230	101300000	1000	0	0	-1	0
7235923	1998	0	0	-100	0	230	101300000	1000	0	0	-1	0
7248483	1999	4	0	-100	0	230	101300000	1000	0	0	-1	0
7261043	1999	2	0	-100	0	230	101300000	1000	0	0	-1	0
7273603	2000	0	0	-100	0	230	101300000	1000	0	0	-1	0
7286163	2008	0	0	-100	0	230	101300000	1000	0	0	-1	0
7298723	2007	0	0	-100	0	230	101300000	1000	0	0	-1	0
7311283	2006	0	0	-100	0	230	101300000	1000	0	0	-1	0
7323843	2005	0	0	-100	0	230	101300000	1000	0	0	-1	0
7336403	2001	0	0	-100	0	230	101300000	1000	0	0	-1	0
7348963	2002	2	0	-100	0	230	101300000	1000	0	0	-1	0
7729795	1299	1549	0	-100	0	230	101300000	1000	0	0	-1	1000
7742355	1296	1541	0	-100	0	230	101300000	1000	0	0	-1	1000
7754915	1302	1544	0	-100	0	230	101300000	1000	0	0	-1	1000
7767475	1308	1546	0	-100	0	230	101300000	1000	0	0	-1	1000
7780035	1306	1537	0	-100	0	230	101300000	1000	0	0	-1	1000
7792595	1309	1536	0	-100	0	230	101300000	1000	0	0	-1	1000
7805155	1318	1530	0	-100	0	230	101300000	1000	0	0	-1	1000
7817715	1309	1544	0	-100	0	230	101300000	1000	0	0	-1	1000
7830275	1295	1540	0	-100	0	230	101300000	1000	0	0	-1	1000
7842835	1304	1538	0	-100	0	230	101300000	1000	0	0	-1	1000
7855395	1289	1539	0	-100	0	230	101300000	1000	0	0	-1	1000
7867955	1286	1537	0	-100	0	230	101300000	1000	0	0	-1	1000
7880515	1294	1533	0	-100	0	230	101300000	1000	0	0	-1	1000
7893075	1296	1534	0	-100	0	230	101300000	1000	0	0	-1	1000
7905635	1290	1539	0	-100	0	230	101300000	1000	0	0	-1	1000
7918195	1306	1534	0	-100	0	230	101300000	1000	0	0	-1	1000
7930755	1300	1548	0	-100	0	230	101300000	1000	0	0	-1	1000
7943315	1297	1543	0	-100	0	230	101300000	1000	0	0	-1	1000
7955875	1296	1534	0	-100	0	230	101300000	1000	0	0	-1	1000
7968435	1294	1535	0	-100	0	230	101300000	1000	0	0	-1	1000
7980995	1298	1538	0	-100	0	230	101300000	1000	0	0	-1	1000
7993555	1313	1533	0	-100	0	230	101300000	1000	0	0	-1	1000
8006115	1294	1534	0	-100	0	230	101300000	1000	0	0	-1	1000
8018675	1293	1537	0	-100	0	230	101300000	1000	0	0	-1	1000
8031235	1292	1544	0	-100	0	230	101300000	1000	0	0	-1	1000
8043795	1313	1535	0	-100	0	230	101300000	1000	0	0	-1	1000
8056355	1309	1537	0	-100	0	230	101300000	1000	0	0	-1	1000
8068915	1309	1542	0	-100	0	230	101300000	1000	0	0	-1	1000
8081475	1301	1536	0	-100	0	230	101300000	1000	0	0	-1	1000
8094035	1294	1538	0	-100	0	230	101300000	1000	0	0	-1	1000
8106595	1289	1543	0	-100	0	230	101300000	1000	0	0	-1	1000
8119155	1297	1538	0	-100	0	230	101300000	1000	0	0	-1	1000
8131715	1300	1535	0	-100	0	230	101300000	1000	0	0	-1	1000
8144275	1291	1544	0	-100	0	230	101300000	1000	0	0	-1	1000
8156835	1304	1540	0	-100	0	230	101300000	1000	0	0	-1	1000
8169395	1309	1540	0	-100	0	230	101300000	1000	0	0	-1	1000
8181955	1297	1531	0	-100	0	230	101300000	1000	0	0	-1	1000
8194515	1308	1532	0	-100	0	230	101300000	1000	0	0	-1	1000
8207075	1288	1538	0	-100	0	230	101300000	1000	0	0	-1	1000
8219635	1308	1538	0	-100	0	230	101300000	1000	0	0	-1	1000
8232195	1289	1537	0	-100	0	230	101300000	1000	0	0	-1	1000
8244755	1310	1537	0	-100	0	230	101300000	1000	0	0	-1	1000
8257315	1294	1533	0	-100	0	230	101300000	1000	0	0	-1	1000
8269875	1300	1538	0	-100	0	230	101300000	1000	0	0	-1	1000
8282435	1284	1540	0	-100	0	230	101300000	1000	0	0	-1	1000
8294995	1309	1543	0	-100	0	230	101300000	1000	0	0	-1	1000
8307555	1291	1538	0	-100	0	230	101300000	1000	0	0	-1	1000
8320115	1299	1547	0	-100	0	230	101300000	1000	0	0	-1	1000
8332675	1289	1538	0	-100	0	230	101300000	1000	0	0	-1	1000
8345235	1309	1546	0	-100	0	230	101300000	1000	0	0	-1	1000
8357795	1286	1538	0	-100	0	230	101300000	1000	0	0	-1	1000
8370355	1304	1544	0	-100	0	230	101300000	1000	0	0	-1	1000
8382915	1291	1541	0	-100	0	230	101300000	1000	0	0	-1	1000
8395475	1302	1535	0	-100	0	230	101300000	1000	0	0	-1	1000
8408035	1300	1530	0	-100	0	230	101300000	1000	0	0	-1	1000
8420595	1299	1535	0	-100	0	230	101300000	1000	0	0	-1	1000
8433155	1304	1537	0	-100	0	230	101300000	1000	0	0	-1	1000
8445715	1289	1543	0	-100	0	230	101300000	1000	0	0	-1	1000
8458275	1307	1535	0	-100	0	230	101300000	1000	0	0	-1	1000
8470835	1298	1542	0	-100	0	230	101300000	1000	0	0	-1	1000
8483395	1294	1543	0	-100	0	230	101300000	1000	0	0	-1	1000
8495955	1304	1544	0	-100	0	230	101300000	1000	0	0	-1	1000
8508515	1288	1536	0	-100	0	230	101300000	1000	0	0	-1	1000
8521075	1304	1534	0	-100	0	230	101300000	1000	0	0	-1	1000
8533635	1304	1533	0	-100	0	230	101300000	1000	0	0	-1	1000
8546195	1291	1538	0	-100	0	230	101300000	1000	0	0	-1	1000
8558755	1296	1541	0	-100	0	230	101300000	1000	0	0	-1	1000
8571315	1295	1529	0	-100	0	230	101300000	1000	0	0	-1	1000
8583875	1316	1534	0	-100	0	230	101300000	1000	0	0	-1	1000
8596435	1285	1535	0	-100	0	230	101300000	1000	0	0	-1	1000
8608995	1307	1537	0	-100	0	230	101300000	1000	0	0	-1	1000
8621555	1297	1533	0	-100	0	230	101300000	1000	0	0	-1	1000
8634115	1298	1534	0	-100	0	230	101300000	1000	0	0	-1	1000
8646675	1298	1540	0	-100	0	230	101300000	1000	0	0	-1	1000
8659235	1291	1539	0	-100	0	230	101300000	1000	0	0	-1	1000
8671795	1303	1530	0	-100	0	230	101300000	1000	0	0	-1	1000
8684355	1289	1542	0	-100	0	230	101300000	1000	0	0	-1	1000
8696915	1301	1531	0	-100	0	230	101300000	1000	0	0	-1	1000
8709475	1309	1535	0	-100	0	230	101300000	1000	0	0	-1	1000
8722035	1304	1543	0	-100	0	230	101300000	1000	0	0	-1	1000
8734595	1298	1535	0	-100	0	230	101300000	1000	0	0	-1	1000
8747155	1296	1544	0	-100	0	230	101300000	1000	0	0	-1	1000
8759715	1285	1535	0	-100	0	230	101300000	1000	0	0	-1	1000
8772275	1304	1535	0	-100	0	230	101300000	1000	0	0	-1	1000
8784835	1308	1540	0	-100	0	230	101300000	1000	0	0	-1	1000
8797395	1293	1550	0	-100	0	230	101300000	1000	0	0	-1	1000
8809955	1295	1536	0	-100	0	230	101300000	1000	0	0	-1	1000
8822515	1294	1532	0	-100	0	230	101300000	1000	0	0	-1	1000
8835075	1290	1541	0	-100	0	230	101300000	1000	0	0	-1	1000
8847635	1311	1538	0	-100	0	230	101300000	1000	0	0	-1	1000
8860195	1300	1529	0	-100	0	230	101300000	1000	0	0	-1	1000
8872755	1295	1543	0	-100	0	230	101300000	1000	0	0	-1	1000
8885315	1289	1542	0	-100	0	230	101300000	1000	0	0	-1	1000
8897875	1291	1534	0	-100	0	230	101300000	1000	0	0	-1	1000
8910435	1302	1538	0	-100	0	230	101300000	1000	0	0	-1	1000
8922995	1308	1533	0	-100	0	230	101300000	1000	0	0	-1	1000
8935555	1307	1565	0	-100	0	230	101300000	1000	0	0	-1	1000
8948115	1306	1527	0	-100	0	230	101300000	1000	0	0	-1	1000
8960675	1296	1536	0	-100	0	230	101300000	1000	0	0	-1	1000
8973235	1287	1535	0	-100	0	230	101300000	1000	0	0	-1	1000
8985795	1298	1533	0	-100	0	230	101300000	1000	0	0	-1	1000
8998355	1291	1541	0	-100	0	230	101300000	1000	0	0	-1	1000
9010915	1296	1536	0	-100	0	230	101300000	1000	0	0	-1	1000
9023475	1290	1544	0	-100	0	230	101300000	1000	0	0	-1	1000
9036035	1291	1535	0	-100	0	230	101300000	1000	0	0	-1	1000
9048595	1289	1538	0	-100	0	230	101300000	1000	0	0	-1	1000
9061155	1309	1534	0	-100	0	230	101300000	1000	0	0	-1	1000
9073715	1301	1540	0	-100	0	230	101300000	1000	0	0	-1	1000
9086275	1304	1541	0	-100	0	230	101300000	1000	0	0	-1	1000
9098835	1296	1534	0	-100	0	230	101300000	1000	0	0	-1	1000
9111395	1293	1533	0	-100	0	230	101300000	1000	0	0	-1	1000
9123955	1290	1544	0	-100	0	230	101300000	1000	0	0	-1	1000
9136515	1299	1538	0	-100	0	230	101300000	1000	0	0	-1	1000
9149075	1308	1538	0	-100	0	230	101300000	1000	0	0	-1	1000
9161635	1295	1544	0	-100	0	230	101300000	1000	0	0	-1	1000
9174195	1298	1531	0	-100	0	230	101300000	1000	0	0	-1	1000
9186755	1289	1539	0	-100	0	230	101300000	1000	0	0	-1	1000
9199315	1309	1542	0	-100	0	230	101300000	1000	0	0	-1	1000
9211875	1304	1536	0	-100	0	230	101300000	1000	0	0	-1	1000
9224435	1291	1537	0	-100	0	230	101300000	1000	0	0	-1	1000
9236995	1289	1537	0	-100	0	230	101300000	1000	0	0	-1	1000
9249555	1295	1532	0	-100	0	230	101300000	1000	0	0	-1	1000
9262115	1291	1536	0	-100	0	230	101300000	1000	0	0	-1	1000
9274675	1298	1543	0	-100	0	230	101300000	1000	0	0	-1	1000
9287235	1314	1537	0	-100	0	230	101300000	1000	0	0	-1	1000
9299795	1309	1537	0	-100	0	230	101300000	1000	0	0	-1	1000
9312355	1306	1539	0	-100	0	230	101300000	1000	0	0	-1	1000
9324915	1287	1541	0	-100	0	230	101300000	1000	0	0	-1	1000
9337475	1294	1534	0	-100	0	230	101300000	1000	0	0	-1	1000
9350035	1289	1534	0	-100	0	230	101300000	1000	0	0	-1	1000
9362595	1293	1540	0	-100	0	230	101300000	1000	0	0	-1	1000
9375155	1306	1534	0	-100	0	230	101300000	1000	0	0	-1	1000
9387715	1311	1535	0	-100	0	230	101300000	1000	0	0	-1	1000
9400275	1314	1543	0	-100	0	230	101300000	1000	0	0	-1	1000
9412835	1295	1536	0	-100	0	230	101300000	1000	0	0	-1	1000
9425395	1291	1537	0	-100	0	230	101300000	1000	0	0	-1	1000
9437955	1283	1537	0	-100	0	230	101300000	1000	0	0	-1	1000
9450515	1300	1536	0	-100	0	230	101300000	1000	0	0	-1	1000
9463075	1304	1544	0	-100	0	230	101300000	1000	0	0	-1	1000
9475635	1301	1536	0	-100	0	230	101300000	1000	0	0	-1	1000
9488195	1291	1538	0	-100	0	230	101300000	1000	0	0	-1	1000
9500755	1291	1538	0	-100	0	230	101300000	1000	0	0	-1	1000
9513315	1304	1535	0	-100	0	230	101300000	1000	0	0	-1	1000
9525875	1296	1539	0	-100	0	230	101300000	1000	0	0	-1	1000
9538435	1290	1538	0	-100	0	230	101300000	1000	0	0	-1	1000
9550995	1291	1533	0	-100	0	230	101300000	1000	0	0	-1	1000
9563555	1291	1543	0	-100	0	230	101300000	1000	0	0	-1	1000
9576115	1308	1532	0	-100	0	230	101300000	1000	0	0	-1	1000
9588675	1296	1539	0	-100	0	230	101300000	1000	0	0	-1	1000
9601235	1294	1537	0	-100	0	230	101300000	1000	0	0	-1	1000
9613795	1289	1536	0	-100	0	230	101300000	1000	0	0	-1	1000
9626355	1287	1541	0	-100	0	230	101300000	1000	0	0	-1	1000
9638915	1297	1534	0	-100	0	230	101300000	1000	0	0	-1	1000
9651475	1283	1538	0	-100	0	230	101300000	1000	0	0	-1	1000
9664035	1294	1538	0	-100	0	230	101300000	1000	0	0	-1	1000
9676595	1293	1534	0	-100	0	230	101300000	1000	0	0	-1	1000
9689155	1299	1537	0	-100	0	230	101300000	1000	0	0	-1	1000
9701715	1295	1540	0	-100	0	230	101300000	1000	0	0	-1	1000
9714275	1308	1535	0	-100	0	230	101300000	1000	0	0	-1	1000
9726835	1314	1545	0	-100	0	230	101300000	1000	0	0	-1	1000
9739395	1296	1537	0	-100	0	230	101300000	1000	0	0	-1	1000
9751955	1308	1539	0	-100	0	230	101300000	1000	0	0	-1	1000
9764515	1292	1540	0	-100	0	230	101300000	1000	0	0	-1	1000
9827315	1306	1543	0	-100	0	230	101300000	1000	0	0	-1	1000
9839875	1294	1536	0	-100	0	230	101300000	1000	0	0	-1	1000
9852435	1293	1539	0	-100	0	230	101300000	1000	0	0	-1	1000
9864995	1298	1540	0	-100	0	230	101300000	1000	0	0	-1	1000
9877555	1298	1532	0	-100	0	230	101300000	1000	0	0	-1	1000
9890115	1306	1545	0	-100	0	230	101300000	1000	0	0	-1	1000
9902675	1295	1535	0	-100	0	230	101300000	1000	0	0	-1	1000
9915235	1297	1534	0	-100	0	230	101300000	1000	0	0	-1	1000
9927795	1307	1540	0	-100	0	230	101300000	1000	0	0	-1	1000
9940355	1296	1535	0	-100	0	230	101300000	1000	0	0	-1	1000
9952915	1301	1542	0	-100	0	230	101300000	1000	0	0	-1	1000
9965475	1292	1534	0	-100	0	230	101300000	1000	0	0	-1	1000
10003155	1299	1537	0	-100	0	230	101300000	1000	0	0	-1	1000
10015715	1309	1535	0	-100	0	230	101300000	1000	0	0	-1	1000
10028275	1289	1540	0	-100	0	230	101300000	1000	0	0	-1	1000
10040835	1307	1538	0	-100	0	230	101300000	1000	0	0	-1	1000
10053395	1294	1536	0	-100	0	230	101300000	1000	0	0	-1	1000
10065955	1291	1539	0	-100	0	230	101300000	1000	0	0	-1	1000
10078515	1304	1535	0	-100	0	230	101300000	1000	0	0	-1	1000
10091075	1287	1542	0	-100	0	230	101300000	1000	0	0	-1	1000
10103635	1312	1537	0	-100	0	230	101300000	1000	0	0	-1	1000
10116195	1294	1534	0	-100	0	230	101300000	1000	0	0	-1	1000
10128755	1290	1538	0	-100	0	230	101300000	1000	0	0	-1	1000
10141315	1310	1536	0	-100	0	230	101300000	1000	0	0	-1	1000
10153875	1289	1539	0	-100	0	230	101300000	1000	0	0	-1	1000
10166435	1284	1534	0	-100	0	230	101300000	1000	0	0	-1	1000
10178995	1297	1535	0	-100	0	230	101300000	1000	0	0	-1	1000
10191555	1287	1540	0	-100	0	230	101300000	1000	0	0	-1	1000
10204115	1293	1534	0	-100	0	230	101300000	1000	0	0	-1	1000
10216675	1302	1544	0	-100	0	230	101300000	1000	0	0	-1	1000
10229235	1296	1533	0	-100	0	230	101300000	1000	0	0	-1	1000
10241795	1295	1539	0	-100	0	230	101300000	1000	0	0	-1	1000
10254355	1293	1539	0	-100	0	230	101300000	1000	0	0	-1	1000
10266915	1301	1534	0	-100	0	230	101300000	1000	0	0	-1	1000
10279475	1305	1535	0	-100	0	230	101300000	1000	0	0	-1	1000
10292035	1287	1541	0	-100	0	230	101300000	1000	0	0	-1	1000
10304595	1308	1537	0	-100	0	230	101300000	1000	0	0	-1	1000
10317155	1299	1534	0	-100	0	230	101300000	1000	0	0	-1	1000
10329715	1292	1543	0	-100	0	230	101300000	1000	0	0	-1	1000
10342275	1304	1536	0	-100	0	230	101300000	1000	0	0	-1	1000
10354835	1295	1534	0	-100	0	230	101300000	1000	0	0	-1	1000
10367395	1289	1537	0	-100	0	230	101300000	1000	0	0	-1	1000
10379955	1301	1543	0	-100	0	230	101300000	1000	0	0	-1	1000
10392515	1291	1535	0	-100	0	230	101300000	1000	0	0	-1	1000
10405075	1296	1535	0	-100	0	230	101300000	1000	0	0	-1	1000
10417635	1304	1541	0	-100	0	230	101300000	1000	0	0	-1	1000
10430195	1294	1541	0	-100	0	230	101300000	1000	0	0	-1	1000
10442755	1294	1536	0	-100	0	230	101300000	1000	0	0	-1	1000
10455315	1299	1535	0	-100	0	230	101300000	1000	0	0	-1	1000
10467875	1304	1543	0	-100	0	230	101300000	1000	0	0	-1	1000
10480435	1295	1539	0	-100	0	230	101300000	1000	0	0	-1	1000
10492995	1296	1540	0	-100	0	230	101300000	1000	0	0	-1	1000
10505555	1294	1535	0	-100	0	230	101300000	1000	0	0	-1	1000
10518115	1306	1544	0	-100	0	230	101300000	1000	0	0	-1	1000
10530675	1291	1538	0	-100	0	230	101300000	1000	0	0	-1	1000
10543235	1296	1535	0	-100	0	230	101300000	1000	0	0	-1	1000
10555795	1301	1535	0	-100	0	230	101300000	1000	0	0	-1	1000
10568355	1302	1537	0	-100	0	230	101300000	1000	0	0	-1	1000
10580915	1294	1540	0	-100	0	230	101300000	1000	0	0	-1	1000
10593475	1288	1541	0	-100	0	230	101300000	1000	0	0	-1	1000
10606035	1289	1537	0	-100	0	230	101300000	1000	0	0	-1	1000
10618595	1304	1533	0	-100	0	230	101300000	1000	0	0	-1	1000
10631155	1312	1537	0	-100	0	230	101300000	1000	0	0	-1	1000
10643715	1289	1542	0	-100	0	230	101300000	1000	0	0	-1	1000
10656275	1308	1535	0	-100	0	230	101300000	1000	0	0	-1	1000
10668835	1301	1535	0	-100	0	230	101300000	1000	0	0	-1	1000
10681395	1286	1538	0	-100	0	230	101300000	1000	0	0	-1	1000
10693955	1302	1543	0	-100	0	230	101300000	1000	0	0	-1	1000
10706515	1297	1535	0	-100	0	230	101300000	1000	0	0	-1	1000
10719075	1299	1536	0	-100	0	230	101300000	1000	0	0	-1	1000
10731635	1292	1542	0	-100	0	230	101300000	1000	0	0	-1	1000
10744195	1303	1531	0	-100	0	230	101300000	1000	0	0	-1	1000
10756755	1289	1536	0	-100	0	230	101300000	1000	0	0	-1	1000
10769315	1287	1540	0	-100	0	230	101300000	1000	0	0	-1	1000
10781875	1304	1537	0	-100	0	230	101300000	1000	0	0	-1	1000
10794435	1317	1538	0	-100	0	230	101300000	1000	0	0	-1	1000
10806995	1302	1541	0	-100	0	230	101300000	1000	0	0	-1	1000
10819555	1303	1536	0	-100	0	230	101300000	1000	0	0	-1	1000
10832115	1296	1538	0	-100	0	230	101300000	1000	0	0	-1	1000
10844675	1288	1542	0	-100	0	230	101300000	1000	0	0	-1	1000
10857235	1291	1534	0	-100	0	230	101300000	1000	0	0	-1	1000
10869795	1284	1533	0	-100	0	230	101300000	1000	0	0	-1	1000
10882355	1287	1542	0	-100	0	230	101300000	1000	0	0	-1	1000
10894915	1304	1534	0	-100	0	230	101300000	1000	0	0	-1	1000
10907475	1304	1541	0	-100	0	230	101300000	1000	0	0	-1	1000
10920035	1310	1533	0	-100	0	230	101300000	1000	0	0	-1	1000
10932595	1304	1544	0	-100	0	230	101300000	1000	0	0	-1	1000
10945155	1312	1537	0	-100	0	230	101300000	1000	0	0	-1	1000
10957715	1290	1539	0	-100	0	230	101300000	1000	0	0	-1	1000
10970275	1286	1539	0	-100	0	230	101300000	1000	0	0	-1	1000
10982835	1298	1533	0	-100	0	230	101300000	1000	0	0	-1	1000
10995395	1286	1533	0	-100	0	230	101300000	1000	0	0	-1	1000
11007955	1285	1542	0	-100	0	230	101300000	1000	0	0	-1	1000
11020515	1292	1537	0	-100	0	230	101300000	1000	0	0	-1	1000
11033075	1292	1535	0	-100	0	230	101300000	1000	0	0	-1	1000
11045635	1289	1543	0	-100	0	230	101300000	1000	0	0	-1	1000
11058195	1299	1536	0	-100	0	230	101300000	1000	0	0	-1	1000
11070755	1301	1535	0	-100	0	230	101300000	1000	0	0	-1	1000
11083315	1292	1545	0	-100	0	230	101300000	1000	0	0	-1	1000
11095875	1307	1535	0	-100	0	230	101300000	1000	0	0	-1	1000
11108435	1323	1537	0	-100	0	230	101300000	1000	0	0	-1	1000
11120995	1308	1535	0	-100	0	230	101300000	1000	0	0	-1	1000
11133555	1311	1543	0	-100	0	230	101300000	1000	0	0	-1	1000
11146115	1306	1539	0	-100	0	230	101300000	1000	0	0	-1	1000
11158675	1305	1536	0	-100	0	230	101300000	1000	0	0	-1	1000
11171235	1296	1541	0	-100	0	230	101300000	1000	0	0	-1	1000
11183795	1291	1533	0	-100	0	230	101300000	1000	0	0	-1	1000
11196355	1287	1539	0	-100	0	230	101300000	1000	0	0	-1	1000
11208915	1289	1536	0	-100	0	230	101300000	1000	0	0	-1	1000
11221475	1313	1535	0	-100	0	230	101300000	1000	0	0	-1	1000
11234035	1301	1542	0	-100	0	230	101300000	1000	0	0	-1	1000
11246595	1294	1540	0	-100	0	230	101300000	1000	0	0	-1	1000
11259155	1303	1533	0	-100	0	230	101300000	1000	0	0	-1	1000
11271715	1288	1537	0	-100	0	230	101300000	1000	0	0	-1	1000
11284275	1297	1540	0	-100	0	230	101300000	1000	0	0	-1	1000
11296835	1308	1535	0	-100	0	230	101300000	1000	0	0	-1	1000
11309395	1311	1540	0	-100	0	230	101300000	1000	0	0	-1	1000
11321955	1304	1535	0	-100	0	230	101300000	1000	0	0	-1	1000
11334515	1299	1536	0	-100	0	230	101300000	1000	0	0	-1	1000
11347075	1294	1541	0	-100	0	230	101300000	1000	0	0	-1	1000
11359635	1294	1533	0	-100	0	230	101300000	1000	0	0	-1	1000
11372195	1286	1537	0	-100	0	230	101300000	1000	0	0	-1	1000
11384755	1294	1535	0	-100	0	230	101300000	1000	0	0	-1	1000
11397315	1288	1532	0	-100	0	230	101300000	1000	0	0	-1	1000
11409875	1293	1541	0	-100	0	230	101300000	1000	0	0	-1	1000
11422435	1300	1533	0	-100	0	230	101300000	1000	0	0	-1	1000
11434995	1299	1539	0	-100	0	230	101300000	1000	0	0	-1	1000
11447555	1314	1537	0	-100	0	230	101300000	1000	0	0	-1	1000
11460115	1306	1539	0	-100	0	230	101300000	1000	0	0	-1	1000
11472675	1297	1538	0	-100	0	230	101300000	1000	0	0	-1	1000
11485235	1299	1535	0	-100	0	230	101300000	1000	0	0	-1	1000
11497795	1283	1542	0	-100	0	230	101300000	1000	0	0	-1	1000
11510355	1299	1532	0	-100	0	230	101300000	1000	0	0	-1	1000
11522915	1290	1535	0	-100	0	230	101300000	1000	0	0	-1	1000
11535475	1291	1538	0	-100	0	230	101300000	1000	0	0	-1	1000
11548035	1303	1536	0	-100	0	230	101300000	1000	0	0	-1	1000
11560595	1298	1538	0	-100	0	230	101300000	1000	0	0	-1	1000
11573155	1317	1535	0	-100	0	230	101300000	1000	0	0	-1	1000
11585715	1308	1539	0	-100	0	230	101300000	1000	0	0	-1	1000
11598275	1299	1536	0	-100	0	230	101300000	1000	0	0	-1	1000
11610835	1287	1534	0	-100	0	230	101300000	1000	0	0	-1	1000
11623395	1294	1542	0	-100	0	230	101300000	1000	0	0	-1	1000
11635955	1300	1531	0	-100	0	230	101300000	1000	0	0	-1	1000
11648515	1296	1544	0	-100	0	230	101300000	1000	0	0	-1	1000
11661075	1309	1533	0	-100	0	230	101300000	1000	0	0	-1	1000
11673635	1292	1543	0	-100	0	230	101300000	1000	0	0	-1	1000
11686195	1290	1533	0	-100	0	230	101300000	1000	0	0	-1	1000
11698755	1294	1540	0	-100	0	230	101300000	1000	0	0	-1	1000
11711315	1304	1537	0	-100	0	230	101300000	1000	0	0	-1	1000
11723875	1289	1537	0	-100	0	230	101300000	1000	0	0	-1	1000
11736435	1291	1534	0	-100	0	230	101300000	1000	0	0	-1	1000
11748995	1304	1540	0	-100	0	230	101300000	1000	0	0	-1	1000
11761555	1296	1533	0	-100	0	230	101300000	1000	0	0	-1	1000
11774115	1289	1541	0	-100	0	230	101300000	1000	0	0	-1	1000
11786675	1301	1534	0	-100	0	230	101300000	1000	0	0	-1	1000
11799235	1297	1541	0	-100	0	230	101300000	1000	0	0	-1	1000
11811795	1292	1534	0	-100	0	230	101300000	1000	0	0	-1	1000
11824355	1289	1543	0	-100	0	230	101300000	1000	0	0	-1	1000
11836915	1292	1533	0	-100	0	230	101300000	1000	0	0	-1	1000
11849475	1284	1539	0	-100	0	230	101300000	1000	0	0	-1	1000
11862035	1297	1537	0	-100	0	230	101300000	1000	0	0	-1	1000
11874595	1297	1536	0	-100	0	230	101300000	1000	0	0	-1	1000
11887155	1309	1541	0	-100	0	230	101300000	1000	0	0	-1	1000
11899715	1307	1536	0	-100	0	230	101300000	1000	0	0	-1	1000
11912275	1299	1540	0	-100	0	230	101300000	1000	0	0	-1	1000
11924835	1313	1535	0	-100	0	230	101300000	1000	0	0	-1	1000
11937395	1302	1542	0	-100	0	230	101300000	1000	0	0	-1	1000
11949955	1308	1535	0	-100	0	230	101300000	1000	0	0	-1	1000
11962515	1296	1543	0	-100	0	230	101300000	1000	0	0	-1	1000
11975075	1306	1536	0	-100	0	230	101300000	1000	0	0	-1	1000
11987635	1298	1540	0	-100	0	230	101300000	1000	0	0	-1	1000
12000195	1292	1540	0	-100	0	230	101300000	1000	0	0	-1	1000
12012755	1296	1536	0	-100	0	230	101300000	1000	0	0	-1	1000
12025315	1294	1539	0	-100	0	230	101300000	1000	0	0	-1	1000
12037875	1295	1539	0	-100	0	230	101300000	1000	0	0	-1	1000
12050435	1296	1533	0	-100	0	230	101300000	1000	0	0	-1	1000
12062995	1287	1536	0	-100	0	230	101300000	1000	0	0	-1	1000
12075555	1289	1540	0	-100	0	230	101300000	1000	0	0	-1	1000
12088115	1294	1535	0	-100	0	230	101300000	1000	0	0	-1	1000
12100675	1285	1543	0	-100	0	230	101300000	1000	0	0	-1	1000
12113235	1296	1532	0	-100	0	230	101300000	1000	0	0	-1	1000
12125795	1291	1534	0	-100	0	230	101300000	1000	0	0	-1	1000
12138355	1288	1539	0	-100	0	230	101300000	1000	0	0	-1	1000
12150915	1286	1537	0	-100	0	230	101300000	1000	0	0	-1	1000
12163475	1296	1532	0	-100	0	230	101300000	1000	0	0	-1	1000
12176035	1304	1537	0	-100	0	230	101300000	1000	0	0	-1	1000
12188595	1296	1535	0	-100	0	230	101300000	1000	0	0	-1	1000
12201155	1296	1533	0	-100	0	230	101300000	1000	0	0	-1	1000
12213715	1289	1539	0	-100	0	230	101300000	1000	0	0	-1	1000
12226275	1297	1542	0	-100	0	230	101300000	1000	0	0	-1	1000
12238835	1302	1544	0	-100	0	230	101300000	1000	0	0	-1	1000
12251395	1304	1541	0	-100	0	230	101300000	1000	0	0	-1	1000
12263955	1292	1535	0	-100	0	230	101300000	1000	0	0	-1	1000
12276515	1300	1535	0	-100	0	230	101300000	1000	0	0	-1	1000
12289075	1291	1534	0	-100	0	230	101300000	1000	0	0	-1	1000
12301635	1289	1535	0	-100	0	230	101300000	1000	0	0	-1	1000
12314195	1287	1542	0	-100	0	230	101300000	1000	0	0	-1	1000
12326755	1294	1542	0	-100	0	230	101300000	1000	0	0	-1	1000
12339315	1302	1539	0	-100	0	230	101300000	1000	0	0	-1	1000
12351875	1325	1535	0	-100	0	230	101300000	1000	0	0	-1	1000
12364435	1297	1535	0	-100	0	230	101300000	1000	0	0	-1	1000
12376995	1289	1535	0	-100	0	230	101300000	1000	0	0	-1	1000
12389555	1296	1535	0	-100	0	230	101300000	1000	0	0	-1	1000
12402115	1289	1533	0	-100	0	230	101300000	1000	0	0	-1	1000
12414675	1291	1541	0	-100	0	230	101300000	1000	0	0	-1	1000
12427235	1298	1534	0	-100	0	230	101300000	1000	0	0	-1	1000
12439795	1313	1535	0	-100	0	230	101300000	1000	0	0	-1	1000
12452355	1309	1536	0	-100	0	230	101300000	1000	0	0	-1	1000
12464915	1292	1537	0	-100	0	230	101300000	1000	0	0	-1	1000
12477475	1289	1544	0	-100	0	230	101300000	1000	0	0	-1	1000
12490035	1289	1542	0	-100	0	230	101300000	1000	0	0	-1	1000
12502595	1294	1538	0	-100	0	230	101300000	1000	0	0	-1	1000
12515155	1304	1535	0	-100	0	230	101300000	1000	0	0	-1	1000
12540275	1294	1536	0	-100	0	230	101300000	1000	0	0	-1	1000
12552835	1283	1539	0	-100	0	230	101300000	1000	0	0	-1	1000
12565395	1289	1541	0	-100	0	230	101300000	1000	0	0	-1	1000
12577955	1289	1534	0	-100	0	230	101300000	1000	0	0	-1	1000
12590515	1304	1538	0	-100	0	230	101300000	1000	0	0	-1	1000
12603075	1321	1533	0	-100	0	230	101300000	1000	0	0	-1	1000
12615635	1291	1534	0	-100	0	230	101300000	1000	0	0	-1	1000
12628195	1289	1539	0	-100	0	230	101300000	1000	0	0	-1	1000
12640755	1296	1539	0	-100	0	230	101300000	1000	0	0	-1	1000
12653315	1299	1540	0	-100	0	230	101300000	1000	0	0	-1	1000
12665875	1316	1536	0	-100	0	230	101300000	1000	0	0	-1	1000
12678435	1297	1536	0	-100	0	230	101300000	1000	0	0	-1	1000
12753795	1291	1535	0	-100	0	230	101300000	1000	0	0	-1	1000
12766355	1289	1536	0	-100	0	230	101300000	1000	0	0	-1	1000
12778915	1291	1544	0	-100	0	230	101300000	1000	0	0	-1	1000
12791475	1292	1540	0	-100	0	230	101300000	1000	0	0	-1	1000
12804035	1297	1529	0	-100	0	230	101300000	1000	0	0	-1	1000
12816595	1297	1533	0	-100	0	230	101300000	1000	0	0	-1	1000
12829155	1311	1539	0	-100	0	230	101300000	1000	0	0	-1	1000
12841715	1287	1539	0	-100	0	230	101300000	1000	0	0	-1	1000
12854275	1296	1535	0	-100	0	230	101300000	1000	0	0	-1	1000
12866835	1308	1532	0	-100	0	230	101300000	1000	0	0	-1	1000
12879395	1306	1535	0	-100	0	230	101300000	1000	0	0	-1	1000
12891955	1291	1534	0	-100	0	230	101300000	1000	0	0	-1	1000
12942195	1286	1533	0	-100	0	230	101300000	1000	0	0	-1	1000
12954755	1304	1535	0	-100	0	230	101300000	1000	0	0	-1	1000
12967315	1309	1534	0	-100	0	230	101300000	1000	0	0	-1	1000
12979875	1287	1538	0	-100	0	230	101300000	1000	0	0	-1	1000
12992435	1294	1541	0	-100	0	230	101300000	1000	0	0	-1	1000
13004995	1301	1542	0	-100	0	230	101300000	1000	0	0	-1	1000
13017555	1296	1532	0	-100	0	230	101300000	1000	0	0	-1	1000
13030115	1298	1534	0	-100	0	230	101300000	1000	0	0	-1	1000
13042675	1297	1545	0	-100	0	230	101300000	1000	0	0	-1	1000
13055235	1304	1543	0	-100	0	230	101300000	1000	0	0	-1	1000
13067795	1294	1535	0	-100	0	230	101300000	1000	0	0	-1	1000
13080355	1298	1534	0	-100	0	230	101300000	1000	0	0	-1	1000
13092915	1306	1540	0	-100	0	230	101300000	1000	0	0	-1	1000
13105475	1287	1543	0	-100	0	230	101300000	1000	0	0	-1	1000
13118035	1292	1536	0	-100	0	230	101300000	1000	0	0	-1	1000
13130595	1309	1538	0	-100	0	230	101300000	1000	0	0	-1	1000
13143155	1301	1535	0	-100	0	230	101300000	1000	0	0	-1	1000
13155715	1289	1533	0	-100	0	230	101300000	1000	0	0	-1	1000
13168275	1299	1544	0	-100	0	230	101300000	1000	0	0	-1	1000
13180835	1289	1537	0	-100	0	230	101300000	1000	0	0	-1	1000
13193395	1296	1534	0	-100	0	230	101300000	1000	0	0	-1	1000
13205955	1309	1540	0	-100	0	230	101300000	1000	0	0	-1	1000
13218515	1287	1541	0	-100	0	230	101300000	1000	0	0	-1	1000
13231075	1298	1535	0	-100	0	230	101300000	1000	0	0	-1	1000
13243635	1291	1533	0	-100	0	230	101300000	1000	0	0	-1	1000
13256195	1292	1544	0	-100	0	230	101300000	1000	0	0	-1	1000
13268755	1306	1538	0	-100	0	230	101300000	1000	0	0	-1	1000
13281315	1313	1534	0	-100	0	230	101300000	1000	0	0	-1	1000
13293875	1289	1539	0	-100	0	230	101300000	1000	0	0	-1	1000
13306435	1287	1537	0	-100	0	230	101300000	1000	0	0	-1	1000
13318995	1299	1539	0	-100	0	230	101300000	1000	0	0	-1	1000
13331555	1295	1539	0	-100	0	230	101300000	1000	0	0	-1	1000
13344115	1304	1544	0	-100	0	230	101300000	1000	0	0	-1	1000
13356675	1285	1537	0	-100	0	230	101300000	1000	0	0	-1	1000
13369235	1316	1536	0	-100	0	230	101300000	1000	0	0	-1	1000
13381795	1287	1535	0	-100	0	230	101300000	1000	0	0	-1	1000
13394355	1304	1543	0	-100	0	230	101300000	1000	0	0	-1	1000
13406915	1287	1539	0	-100	0	230	101300000	1000	0	0	-1	1000
13419475	1301	1536	0	-100	0	230	101300000	1000	0	0	-1	1000
13432035	1306	1535	0	-100	0	230	101300000	1000	0	0	-1	1000
13444595	1286	1537	0	-100	0	230	101300000	1000	0	0	-1	1000
13457155	1304	1544	0	-100	0	230	101300000	1000	0	0	-1	1000
13469715	1285	1539	0	-100	0	230	101300000	1000	0	0	-1	1000
13482275	1298	1537	0	-100	0	230	101300000	1000	0	0	-1	1000
13494835	1291	1540	0	-100	0	230	101300000	1000	0	0	-1	1000
13507395	1290	1541	0	-100	0	230	101300000	1000	0	0	-1	1000
13519955	1321	1536	0	-100	0	230	101300000	1000	0	0	-1	1000
13532515	1291	1533	0	-100	0	230	101300000	1000	0	0	-1	1000
13545075	1304	1540	0	-100	0	230	101300000	1000	0	0	-1	1000
13557635	1285	1541	0	-100	0	230	101300000	1000	0	0	-1	1000
13570195	1304	1537	0	-100	0	230	101300000	1000	0	0	-1	1000
13582755	1292	1535	0	-100	0	230	101300000	1000	0	0	-1	1000
13595315	1290	1535	0	-100	0	230	101300000	1000	0	0	-1	1000
13607875	1289	1544	0	-100	0	230	101300000	1000	0	0	-1	1000
13620435	1296	1540	0	-100	0	230	101300000	1000	0	0	-1	1000
13632995	1297	1543	0	-100	0	230	101300000	1000	0	0	-1	1000
13645555	1294	1530	0	-100	0	230	101300000	1000	0	0	-1	1000
13658115	1294	1537	0	-100	0	230	101300000	1000	0	0	-1	1000
13670675	1289	1539	0	-100	0	230	101300000	1000	0	0	-1	1000
13683235	1299	1540	0	-100	0	230	101300000	1000	0	0	-1	1000
13695795	1290	1534	0	-100	0	230	101300000	1000	0	0	-1	1000
13708355	1309	1533	0	-100	0	230	101300000	1000	0	0	-1	1000
13720915	1295	1533	0	-100	0	230	101300000	1000	0	0	-1	1000
13733475	1304	1535	0	-100	0	230	101300000	1000	0	0	-1	1000
13746035	1287	1542	0	-100	0	230	101300000	1000	0	0	-1	1000
13758595	1290	1535	0	-100	0	230	101300000	1000	0	0	-1	1000
13771155	1312	1537	0	-100	0	230	101300000	1000	0	0	-1	1000
13783715	1292	1539	0	-100	0	230	101300000	1000	0	0	-1	1000
13796275	1289	1537	0	-100	0	230	101300000	1000	0	0	-1	1000
13808835	1301	1539	0	-100	0	230	101300000	1000	0	0	-1	1000
13821395	1299	1539	0	-100	0	230	101300000	1000	0	0	-1	1000
13833955	1289	1537	0	-100	0	230	101300000	1000	0	0	-1	1000
13846515	1297	1533	0	-100	0	230	101300000	1000	0	0	-1	1000
13859075	1298	1539	0	-100	0	230	101300000	1000	0	0	-1	1000
13871635	1292	1543	0	-100	0	230	101300000	1000	0	0	-1	1000
13884195	1295	1535	0	-100	0	230	101300000	1000	0	0	-1	1000
13896755	1301	1537	0	-100	0	230	101300000	1000	0	0	-1	1000
13909315	1283	1537	0	-100	0	230	101300000	1000	0	0	-1	1000
13921875	1294	1543	0	-100	0	230	101300000	1000	0	0	-1	1000
13934435	1290	1535	0	-100	0	230	101300000	1000	0	0	-1	1000
13946995	1305	1539	0	-100	0	230	101300000	1000	0	0	-1	1000
13959555	1290	1534	0	-100	0	230	101300000	1000	0	0	-1	1000
13972115	1316	1542	0	-100	0	230	101300000	1000	0	0	-1	1000
13984675	1286	1538	0	-100	0	230	101300000	1000	0	0	-1	1000
13997235	1301	1534	0	-100	0	230	101300000	1000	0	0	-1	1000
14009795	1292	1542	0	-100	0	230	101300000	1000	0	0	-1	1000
14022355	1287	1542	0	-100	0	230	101300000	1000	0	0	-1	1000
14034915	1303	1536	0	-100	0	230	101300000	1000	0	0	-1	1000
14047475	1286	1534	0	-100	0	230	101300000	1000	0	0	-1	1000
14060035	1301	1542	0	-100	0	230	101300000	1000	0	0	-1	1000
14072595	1292	1534	0	-100	0	230	101300000	1000	0	0	-1	1000
14085155	1306	1535	0	-100	0	230	101300000	1000	0	0	-1	1000
14097715	1292	1543	0	-100	0	230	101300000	1000	0	0	-1	1000
14110275	1282	1536	0	-100	0	230	101300000	1000	0	0	-1	1000
14122835	1306	1536	0	-100	0	230	101300000	1000	0	0	-1	1000
14135395	1284	1533	0	-100	0	230	101300000	1000	0	0	-1	1000
14147955	1312	1543	0	-100	0	230	101300000	1000	0	0	-1	1000
14160515	1295	1542	0	-100	0	230	101300000	1000	0	0	-1	1000
14173075	1292	1536	0	-100	0	230	101300000	1000	0	0	-1	1000
14185635	1306	1534	0	-100	0	230	101300000	1000	0	0	-1	1000
14198195	1289	1535	0	-100	0	230	101300000	1000	0	0	-1	1000
14210755	1289	1538	0	-100	0	230	101300000	1000	0	0	-1	1000
14223315	1289	1543	0	-100	0	230	101300000	1000	0	0	-1	1000
14235875	1287	1534	0	-100	0	230	101300000	1000	0	0	-1	1000
14248435	1299	1536	0	-100	0	230	101300000	1000	0	0	-1	1000
14260995	1287	1536	0	-100	0	230	101300000	1000	0	0	-1	1000
14273555	1297	1540	0	-100	0	230	101300000	1000	0	0	-1	1000
14286115	1303	1532	0	-100	0	230	101300000	1000	0	0	-1	1000
14298675	1296	1533	0	-100	0	230	101300000	1000	0	0	-1	1000
14311235	1306	1539	0	-100	0	230	101300000	1000	0	0	-1	1000
14323795	1284	1541	0	-100	0	230	101300000	1000	0	0	-1	1000
14336355	1313	1536	0	-100	0	230	101300000	1000	0	0	-1	1000
14348915	1284	1535	0	-100	0	230	101300000	1000	0	0	-1	1000
14361475	1293	1543	0	-100	0	230	101300000	1000	0	0	-1	1000
14374035	1297	1534	0	-100	0	230	101300000	1000	0	0	-1	1000
14386595	1304	1537	0	-100	0	230	101300000	1000	0	0	-1	1000
14399155	1303	1538	0	-100	0	230	101300000	1000	0	0	-1	1000
14411715	1287	1536	0	-100	0	230	101300000	1000	0	0	-1	1000
14424275	1323	1535	0	-100	0	230	101300000	1000	0	0	-1	1000
14436835	1296	1536	0	-100	0	230	101300000	1000	0	0	-1	1000
14449395	1287	1542	0	-100	0	230	101300000	1000	0	0	-1	1000
14461955	1311	1535	0	-100	0	230	101300000	1000	0	0	-1	1000
14474515	1299	1535	0	-100	0	230	101300000	1000	0	0	-1	1000
14487075	1282	1539	0	-100	0	230	101300000	1000	0	0	-1	1000
14499635	1308	1543	0	-100	0	230	101300000	1000	0	0	-1	1000
14512195	1295	1540	0	-100	0	230	101300000	1000	0	0	-1	1000
14524755	1289	1535	0	-100	0	230	101300000	1000	0	0	-1	1000
14537315	1309	1539	0	-100	0	230	101300000	1000	0	0	-1	1000
14549875	1294	1544	0	-100	0	230	101300000	1000	0	0	-1	1000
14562435	1294	1535	0	-100	0	230	101300000	1000	0	0	-1	1000
14574995	1318	1535	0	-100	0	230	101300000	1000	0	0	-1	1000
14587555	1297	1545	0	-100	0	230	101300000	1000	0	0	-1	1000
14600115	1293	1533	0	-100	0	230	101300000	1000	0	0	-1	1000
14612675	1303	1535	0	-100	0	230	101300000	1000	0	0	-1	1000
14625235	1294	1540	0	-100	0	230	101300000	1000	0	0	-1	1000
14637795	1286	1541	0	-100	0	230	101300000	1000	0	0	-1	1000
14650355	1282	1537	0	-100	0	230	101300000	1000	0	0	-1	1000
14662915	1311	1535	0	-100	0	230	101300000	1000	0	0	-1	1000
14675475	1298	1533	0	-100	0	230	101300000	1000	0	0	-1	1000
14688035	1290	1544	0	-100	0	230	101300000	1000	0	0	-1	1000
14700595	1291	1539	0	-100	0	230	101300000	1000	0	0	-1	1000
14713155	1311	1533	0	-100	0	230	101300000	1000	0	0	-1	1000
14725715	1294	1533	0	-100	0	230	101300000	1000	0	0	-1	1000
14738275	1287	1543	0	-100	0	230	101300000	1000	0	0	-1	1000
14750835	1318	1534	0	-100	0	230	101300000	1000	0	0	-1	1000
14763395	1296	1544	0	-100	0	230	101300000	1000	0	0	-1	1000
14775955	1290	1535	0	-100	0	230	101300000	1000	0	0	-1	1000
14788515	1301	1537	0	-100	0	230	101300000	1000	0	0	-1	1000
14801075	1282	1541	0	-100	0	230	101300000	1000	0	0	-1	1000
14813635	1298	1535	0	-100	0	230	101300000	1000	0	0	-1	1000
14826195	1289	1541	0	-100	0	230	101300000	1000	0	0	-1	1000
14838755	1306	1538	0	-100	0	230	101300000	1000	0	0	-1	1000
14851315	1281	1534	0	-100	0	230	101300000	1000	0	0	-1	1000
14863875	1299	1542	0	-100	0	230	101300000	1000	0	0	-1	1000
14876435	1298	1535	0	-100	0	230	101300000	1000	0	0	-1	1000
14888995	1296	1535	0	-100	0	230	101300000	1000	0	0	-1	1000
14901555	1311	1534	0	-100	0	230	101300000	1000	0	0	-1	1000
14914115	1299	1545	0	-100	0	230	101300000	1000	0	0	-1	1000
14926675	1294	1537	0	-100	0	230	101300000	1000	0	0	-1	1000
14939235	1286	1537	0	-100	0	230	101300000	1000	0	0	-1	1000
14951795	1287	1535	0	-100	0	230	101300000	1000	0	0	-1	1000
14964355	1291	1541	0	-100	0	230	101300000	1000	0	0	-1	1000
14976915	1301	1535	0	-100	0	230	101300000	1000	0	0	-1	1000
14989475	1292	1544	0	-100	0	230	101300000	1000	0	0	-1	1000
15002035	1289	1535	0	-100	0	230	101300000	1000	0	0	-1	1000
15014595	1285	1540	0	-100	0	230	101300000	1000	0	0	-1	1000
15027155	1294	1535	0	-100	0	230	101300000	1000	0	0	-1	1000
15039715	1292	1539	0	-100	0	230	101300000	1000	0	0	-1	1000
15052275	1306	1537	0	-100	0	230	101300000	1000	0	0	-1	1000
15064835	1297	1540	0	-100	0	230	101300000	1000	0	0	-1	1000
15077395	1288	1537	0	-100	0	230	101300000	1000	0	0	-1	1000
15089955	1296	1534	0	-100	0	230	101300000	1000	0	0	-1	1000
15102515	1292	1543	0	-100	0	230	101300000	1000	0	0	-1	1000
15115075	1313	1535	0	-100	0	230	101300000	1000	0	0	-1	1000
15127635	1308	1539	0	-100	0	230	101300000	1000	0	0	-1	1000
15140195	1299	1535	0	-100	0	230	101300000	1000	0	0	-1	1000
15152755	1289	1531	0	-100	0	230	101300000	1000	0	0	-1	1000
15165315	1286	1537	0	-100	0	230	101300000	1000	0	0	-1	1000
15177875	1294	1535	0	-100	0	230	101300000	1000	0	0	-1	1000
15190435	1287	1541	0	-100	0	230	101300000	1000	0	0	-1	1000
15202995	1303	1540	0	-100	0	230	101300000	1000	0	0	-1	1000
15215555	1302	1543	0	-100	0	230	101300000	1000	0	0	-1	1000
15228115	1303	1534	0	-100	0	230	101300000	1000	0	0	-1	1000
15240675	1297	1542	0	-100	0	230	101300000	1000	0	0	-1	1000
15253235	1298	1533	0	-100	0	230	101300000	1000	0	0	-1	1000
15265795	1294	1543	0	-100	0	230	101300000	1000	0	0	-1	1000
15278355	1294	1531	0	-100	0	230	101300000	1000	0	0	-1	1000
15290915	1287	1543	0	-100	0	230	101300000	1000	0	0	-1	1000
15303475	1305	1536	0	-100	0	230	101300000	1000	0	0	-1	1000
15316035	1287	1538	0	-100	0	230	101300000	1000	0	0	-1	1000
15328595	1299	1534	0	-100	0	230	101300000	1000	0	0	-1	1000
15341155	1304	1538	0	-100	0	230	101300000	1000	0	0	-1	1000
15353715	1284	1539	0	-100	0	230	101300000	1000	0	0	-1	1000
15366275	1316	1536	0	-100	0	230	101300000	1000	0	0	-1	1000
15378835	1294	1542	0	-100	0	230	101300000	1000	0	0	-1	1000
15391395	1294	1535	0	-100	0	230	101300000	1000	0	0	-1	1000
15403955	1309	1543	0	-100	0	230	101300000	1000	0	0	-1	1000
15416515	1306	1537	0	-100	0	230	101300000	1000	0	0	-1	1000
15429075	1306	1539	0	-100	0	230	101300000	1000	0	0	-1	1000
15441635	1299	1542	0	-100	0	230	101300000	1000	0	0	-1	1000
15454195	1299	1531	0	-100	0	230	101300000	1000	0	0	-1	1000
15466755	1295	1544	0	-100	0	230	101300000	1000	0	0	-1	1000
15479315	1291	1535	0	-100	0	230	101300000	1000	0	0	-1	1000
15491875	1294	1536	0	-100	0	230	101300000	1000	0	0	-1	1000
15504435	1289	1542	0	-100	0	230	101300000	1000	0	0	-1	1000
15516995	1286	1536	0	-100	0	230	101300000	1000	0	0	-1	1000
15529555	1294	1539	0	-100	0	230	101300000	1000	0	0	-1	1000
15542115	1294	1537	0	-100	0	230	101300000	1000	0	0	-1	1000
15554675	1304	1536	0	-100	0	230	101300000	1000	0	0	-1	1000
15567235	1301	1539	0	-100	0	230	101300000	1000	0	0	-1	1000
15579795	1316	1535	0	-100	0	230	101300000	1000	0	0	-1	1000
15592355	1306	1537	0	-100	0	230	101300000	1000	0	0	-1	1000
15604915	1304	1542	0	-100	0	230	101300000	1000	0	0	-1	1000
15617475	1301	1539	0	-100	0	230	101300000	1000	0	0	-1	1000
15655155	1314	1538	0	-100	0	230	101300000	1000	0	0	-1	1000
15667715	1309	1544	0	-100	0	230	101300000	1000	0	0	-1	1000
15680275	1308	1535	0	-100	0	230	101300000	1000	0	0	-1	1000
15692835	1307	1542	0	-100	0	230	101300000	1000	0	0	-1	1000
15705395	1306	1535	0	-100	0	230	101300000	1000	0	0	-1	1000
15717955	1301	1540	0	-100	0	230	101300000	1000	0	0	-1	1000
15730515	1297	1537	0	-100	0	230	101300000	1000	0	0	-1	1000
15743075	1306	1534	0	-100	0	230	101300000	1000	0	0	-1	1000
15755635	1297	1544	0	-100	0	230	101300000	1000	0	0	-1	1000
15768195	1306	1536	0	-100	0	230	101300000	1000	0	0	-1	1000
15780755	1299	1540	0	-100	0	230	101300000	1000	0	0	-1	1000
15793315	1304	1536	0	-100	0	230	101300000	1000	0	0	-1	1000
15856115	1299	1546	0	-100	0	230	101300000	1000	0	0	-1	1000
15868675	1298	1532	0	-100	0	230	101300000	1000	0	0	-1	1000
15881235	1286	1542	0	-100	0	230	101300000	1000	0	0	-1	1000
15893795	1289	1532	0	-100	0	230	101300000	1000	0	0	-1	1000
15906355	1304	1544	0	-100	0	230	101300000	1000	0	0	-1	1000
15918915	1309	1539	0	-100	0	230	101300000	1000	0	0	-1	1000
15931475	1291	1539	0	-100	0	230	101300000	1000	0	0	-1	1000
15944035	1304	1538	0	-100	0	230	101300000	1000	0	0	-1	1000
15956595	1299	1539	0	-100	0	230	101300000	1000	0	0	-1	1000
15969155	1299	1538	0	-100	0	230	101300000	1000	0	0	-1	1000
15981715	1291	1537	0	-100	0	230	101300000	1000	0	0	-1	1000
15994275	1296	1536	0	-100	0	230	101300000	1000	0	0	-1	1000
16006835	1284	1539	0	-100	0	230	101300000	1000	0	0	-1	1000
16019395	1291	1535	0	-100	0	230	101300000	1000	0	0	-1	1000
16031955	1291	1541	0	-100	0	230	101300000	1000	0	0	-1	1000
16044515	1295	1533	0	-100	0	230	101300000	1000	0	0	-1	1000
16057075	1286	1541	0	-100	0	230	101300000	1000	0	0	-1	1000
16069635	1296	1531	0	-100	0	230	101300000	1000	0	0	-1	1000
16082195	1291	1540	0	-100	0	230	101300000	1000	0	0	-1	1000
16094755	1301	1537	0	-100	0	230	101300000	1000	0	0	-1	1000
16107315	1291	1543	0	-100	0	230	101300000	1000	0	0	-1	1000
16119875	1306	1536	0	-100	0	230	101300000	1000	0	0	-1	1000
16132435	1297	1541	0	-100	0	230	101300000	1000	0	0	-1	1000
16144995	1304	1537	0	-100	0	230	101300000	1000	0	0	-1	1000
16157555	1301	1537	0	-100	0	230	101300000	1000	0	0	-1	1000
16170115	1296	1540	0	-100	0	230	101300000	1000	0	0	-1	1000
16182675	1308	1537	0	-100	0	230	101300000	1000	0	0	-1	1000
16195235	1292	1537	0	-100	0	230	101300000	1000	0	0	-1	1000
16207795	1296	1538	0	-100	0	230	101300000	1000	0	0	-1	1000
16220355	1287	1533	0	-100	0	230	101300000	1000	0	0	-1	1000
16232915	1287	1538	0	-100	0	230	101300000	1000	0	0	-1	1000
16245475	1288	1536	0	-100	0	230	101300000	1000	0	0	-1	1000
16258035	1298	1533	0	-100	0	230	101300000	1000	0	0	-1	1000
16270595	1299	1541	0	-100	0	230	101300000	1000	0	0	-1	1000
16283155	1306	1541	0	-100	0	230	101300000	1000	0	0	-1	1000
16295715	1311	1532	0	-100	0	230	101300000	1000	0	0	-1	1000
16308275	1297	1543	0	-100	0	230	101300000	1000	0	0	-1	1000
16320835	1300	1535	0	-100	0	230	101300000	1000	0	0	-1	1000
16333395	1302	1542	0	-100	0	230	101300000	1000	0	0	-1	1000
16345955	1304	1538	0	-100	0	230	101300000	1000	0	0	-1	1000
16358515	1294	1538	0	-100	0	230	101300000	1000	0	0	-1	1000
16371075	1296	1533	0	-100	0	230	101300000	1000	0	0	-1	1000
16383635	1284	1537	0	-100	0	230	101300000	1000	0	0	-1	1000
16396195	1291	1533	0	-100	0	230	101300000	1000	0	0	-1	1000
16408755	1287	1537	0	-100	0	230	101300000	1000	0	0	-1	1000
16421315	1297	1537	0	-100	0	230	101300000	1000	0	0	-1	1000
16433875	1307	1537	0	-100	0	230	101300000	1000	0	0	-1	1000
16446435	1294	1539	0	-100	0	230	101300000	1000	0	0	-1	1000
16458995	1289	1544	0	-100	0	230	101300000	1000	0	0	-1	1000
16471555	1292	1540	0	-100	0	230	101300000	1000	0	0	-1	1000
16484115	1302	1537	0	-100	0	230	101300000	1000	0	0	-1	1000
16496675	1307	1536	0	-100	0	230	101300000	1000	0	0	-1	1000
16509235	1287	1540	0	-100	0	230	101300000	1000	0	0	-1	1000
16521795	1294	1535	0	-100	0	230	101300000	1000	0	0	-1	1000
16534355	1289	1544	0	-100	0	230	101300000	1000	0	0	-1	1000
16546915	1301	1538	0	-100	0	230	101300000	1000	0	0	-1	1000
16559475	1300	1539	0	-100	0	230	101300000	1000	0	0	-1	1000
16572035	1306	1538	0	-100	0	230	101300000	1000	0	0	-1	1000
16584595	1295	1535	0	-100	0	230	101300000	1000	0	0	-1	1000
16597155	1295	1539	0	-100	0	230	101300000	1000	0	0	-1	1000
16609715	1293	1534	0	-100	0	230	101300000	1000	0	0	-1	1000
16622275	1294	1544	0	-100	0	230	101300000	1000	0	0	-1	1000
16634835	1308	1532	0	-100	0	230	101300000	1000	0	0	-1	1000
16647395	1292	1540	0	-100	0	230	101300000	1000	0	0	-1	1000
16659955	1289	1536	0	-100	0	230	101300000	1000	0	0	-1	1000
16672515	1291	1533	0	-100	0	230	101300000	1000	0	0	-1	1000
16685075	1293	1542	0	-100	0	230	101300000	1000	0	0	-1	1000
16697635	1315	1534	0	-100	0	230	101300000	1000	0	0	-1	1000
16710195	1284	1539	0	-100	0	230	101300000	1000	0	0	-1	1000
16722755	1284	1537	0	-100	0	230	101300000	1000	0	0	-1	1000
16735315	1292	1531	0	-100	0	230	101300000	1000	0	0	-1	1000
16747875	1299	1546	0	-100	0	230	101300000	1000	0	0	-1	1000
16760435	1312	1536	0	-100	0	230	101300000	1000	0	0	-1	1000
16772995	1287	1535	0	-100	0	230	101300000	1000	0	0	-1	1000
16785555	1289	1535	0	-100	0	230	101300000	1000	0	0	-1	1000
16798115	1296	1533	0	-100	0	230	101300000	1000	0	0	-1	1000
16810675	1295	1541	0	-100	0	230	101300000	1000	0	0	-1	1000
16823235	1313	1535	0	-100	0	230	101300000	1000	0	0	-1	1000
16835795	1290	1540	0	-100	0	230	101300000	1000	0	0	-1	1000
16848355	1287	1535	0	-100	0	230	101300000	1000	0	0	-1	1000
16860915	1285	1542	0	-100	0	230	101300000	1000	0	0	-1	1000
16873475	1293	1531	0	-100	0	230	101300000	1000	0	0	-1	1000
16886035	1289	1539	0	-100	0	230	101300000	1000	0	0	-1	1000
16898595	1287	1535	0	-100	0	230	101300000	1000	0	0	-1	1000
16911155	1302	1534	0	-100	0	230	101300000	1000	0	0	-1	1000
16923715	1292	1540	0	-100	0	230	101300000	1000	0	0	-1	1000
16936275	1292	1535	0	-100	0	230	101300000	1000	0	0	-1	1000
16948835	1282	1540	0	-100	0	230	101300000	1000	0	0	-1	1000
16961395	1299	1535	0	-100	0	230	101300000	1000	0	0	-1	1000
16973955	1287	1541	0	-100	0	230	101300000	1000	0	0	-1	1000
16986515	1303	1534	0	-100	0	230	101300000	1000	0	0	-1	1000
16999075	1287	1539	0	-100	0	230	101300000	1000	0	0	-1	1000
17011635	1287	1538	0	-100	0	230	101300000	1000	0	0	-1	1000
17024195	1298	1532	0	-100	0	230	101300000	1000	0	0	-1	1000
17036755	1299	1541	0	-100	0	230	101300000	1000	0	0	-1	1000
17049315	1285	1542	0	-100	0	230	101300000	1000	0	0	-1	1000
17061875	1293	1533	0	-100	0	230	101300000	1000	0	0	-1	1000
17074435	1291	1534	0	-100	0	230	101300000	1000	0	0	-1	1000
17086995	1301	1535	0	-100	0	230	101300000	1000	0	0	-1	1000
17099555	1289	1534	0	-100	0	230	101300000	1000	0	0	-1	1000
17112115	1289	1534	0	-100	0	230	101300000	1000	0	0	-1	1000
17124675	1294	1543	0	-100	0	230	101300000	1000	0	0	-1	1000
17137235	1301	1536	0	-100	0	230	101300000	1000	0	0	-1	1000
17149795	1287	1541	0	-100	0	230	101300000	1000	0	0	-1	1000
17162355	1293	1532	0	-100	0	230	101300000	1000	0	0	-1	1000
17174915	1298	1539	0	-100	0	230	101300000	1000	0	0	-1	1000
17187475	1290	1537	0	-100	0	230	101300000	1000	0	0	-1	1000
17200035	1281	1533	0	-100	0	230	101300000	1000	0	0	-1	1000
17212595	1287	1539	0	-100	0	230	101300000	1000	0	0	-1	1000
17225155	1319	1536	0	-100	0	230	101300000	1000	0	0	-1	1000
17237715	1292	1543	0	-100	0	230	101300000	1000	0	0	-1	1000
17250275	1290	1536	0	-100	0	230	101300000	1000	0	0	-1	1000
17262835	1304	1538	0	-100	0	230	101300000	1000	0	0	-1	1000
17275395	1296	1541	0	-100	0	230	101300000	1000	0	0	-1	1000
17287955	1289	1535	0	-100	0	230	101300000	1000	0	0	-1	1000
17300515	1301	1539	0	-100	0	230	101300000	1000	0	0	-1	1000
17313075	1311	1539	0	-100	0	230	101300000	1000	0	0	-1	1000
17325635	1282	1539	0	-100	0	230	101300000	1000	0	0	-1	1000
17338195	1296	1535	0	-100	0	230	101300000	1000	0	0	-1	1000
17350755	1309	1535	0	-100	0	230	101300000	1000	0	0	-1	1000
17363315	1304	1544	0	-100	0	230	101300000	1000	0	0	-1	1000
17375875	1299	1540	0	-100	0	230	101300000	1000	0	0	-1	1000
17388435	1294	1532	0	-100	0	230	101300000	1000	0	0	-1	1000
17400995	1289	1535	0	-100	0	230	101300000	1000	0	0	-1	1000
17413555	1288	1538	0	-100	0	230	101300000	1000	0	0	-1	1000
17426115	1292	1542	0	-100	0	230	101300000	1000	0	0	-1	1000
17438675	1289	1539	0	-100	0	230	101300000	1000	0	0	-1	1000
17451235	1299	1537	0	-100	0	230	101300000	1000	0	0	-1	1000
17463795	1306	1537	0	-100	0	230	101300000	1000	0	0	-1	1000
17476355	1310	1538	0	-100	0	230	101300000	1000	0	0	-1	1000
17488915	1284	1540	0	-100	0	230	101300000	1000	0	0	-1	1000
17501475	1295	1536	0	-100	0	230	101300000	1000	0	0	-1	1000
17514035	1309	1536	0	-100	0	230	101300000	1000	0	0	-1	1000
17526595	1282	1541	0	-100	0	230	101300000	1000	0	0	-1	1000
17539155	1296	1539	0	-100	0	230	101300000	1000	0	0	-1	1000
17551715	1306	1536	0	-100	0	230	101300000	1000	0	0	-1	1000
17564275	1282	1537	0	-100	0	230	101300000	1000	0	0	-1	1000
17576835	1290	1539	0	-100	0	230	101300000	1000	0	0	-1	1000
17589395	1304	1534	0	-100	0	230	101300000	1000	0	0	-1	1000
17601955	1306	1537	0	-100	0	230	101300000	1000	0	0	-1	1000
17614515	1280	1541	0	-100	0	230	101300000	1000	0	0	-1	1000
17627075	1291	1535	0	-100	0	230	101300000	1000	0	0	-1	1000
17639635	1299	1541	0	-100	0	230	101300000	1000	0	0	-1	1000
17652195	1285	1542	0	-100	0	230	101300000	1000	0	0	-1	1000
17664755	1294	1534	0	-100	0	230	101300000	1000	0	0	-1	1000
17677315	1296	1542	0	-100	0	230	101300000	1000	0	0	-1	1000
17689875	1295	1536	0	-100	0	230	101300000	1000	0	0	-1	1000
17702435	1291	1533	0	-100	0	230	101300000	1000	0	0	-1	1000
17714995	1291	1540	0	-100	0	230	101300000	1000	0	0	-1	1000
17727555	1306	1536	0	-100	0	230	101300000	1000	0	0	-1	1000
17740115	1285	1540	0	-100	0	230	101300000	1000	0	0	-1	1000
17752675	1288	1533	0	-100	0	230	101300000	1000	0	0	-1	1000
17765235	1302	1543	0	-100	0	230	101300000	1000	0	0	-1	1000
17777795	1292	1534	0	-100	0	230	101300000	1000	0	0	-1	1000
17790355	1282	1539	0	-100	0	230	101300000	1000	0	0	-1	1000
17802915	1284	1539	0	-100	0	230	101300000	1000	0	0	-1	1000
17815475	1304	1537	0	-100	0	230	101300000	1000	0	0	-1	1000
17828035	1299	1540	0	-100	0	230	101300000	1000	0	0	-1	1000
17840595	1285	1538	0	-100	0	230	101300000	1000	0	0	-1	1000
17853155	1303	1534	0	-100	0	230	101300000	1000	0	0	-1	1000
17865715	1297	1541	0	-100	0	230	101300000	1000	0	0	-1	1000
17878275	1302	1543	0	-100	0	230	101300000	1000	0	0	-1	1000
17890835	1306	1536	0	-100	0	230	101300000	1000	0	0	-1	1000
17903395	1286	1535	0	-100	0	230	101300000	1000	0	0	-1	1000
17915955	1283	1541	0	-100	0	230	101300000	1000	0	0	-1	1000
17928515	1301	1537	0	-100	0	230	101300000	1000	0	0	-1	1000
17941075	1301	1537	0	-100	0	230	101300000	1000	0	0	-1	1000
17953635	1314	1543	0	-100	0	230	101300000	1000	0	0	-1	1000
17966195	1287	1535	0	-100	0	230	101300000	1000	0	0	-1	1000
17978755	1291	1534	0	-100	0	230	101300000	1000	0	0	-1	1000
17991315	1285	1539	0	-100	0	230	101300000	1000	0	0	-1	1000
18003875	1309	1537	0	-100	0	230	101300000	1000	0	0	-1	1000
18016435	1289	1535	0	-100	0	230	101300000	1000	0	0	-1	1000
18028995	1287	1536	0	-100	0	230	101300000	1000	0	0	-1	1000
18041555	1303	1533	0	-100	0	230	101300000	1000	0	0	-1	1000
18054115	1297	1537	0	-100	0	230	101300000	1000	0	0	-1	1000
18066675	1289	1542	0	-100	0	230	101300000	1000	0	0	-1	1000
18079235	1289	1533	0	-100	0	230	101300000	1000	0	0	-1	1000
18091795	1302	1545	0	-100	0	230	101300000	1000	0	0	-1	1000
18104355	1284	1533	0	-100	0	230	101300000	1000	0	0	-1	1000
18116915	1291	1537	0	-100	0	230	101300000	1000	0	0	-1	1000
18129475	1301	1538	0	-100	0	230	101300000	1000	0	0	-1	1000
18142035	1308	1535	0	-100	0	230	101300000	1000	0	0	-1	1000
18154595	1284	1534	0	-100	0	230	101300000	1000	0	0	-1	1000
18167155	1296	1541	0	-100	0	230	101300000	1000	0	0	-1	1000
18179715	1300	1542	0	-100	0	230	101300000	1000	0	0	-1	1000
18192275	1301	1534	0	-100	0	230	101300000	1000	0	0	-1	1000
18204835	1291	1534	0	-100	0	230	101300000	1000	0	0	-1	1000
18217395	1295	1542	0	-100	0	230	101300000	1000	0	0	-1	1000
18229955	1307	1537	0	-100	0	230	101300000	1000	0	0	-1	1000
18242515	1302	1535	0	-100	0	230	101300000	1000	0	0	-1	1000
18255075	1289	1540	0	-100	0	230	101300000	1000	0	0	-1	1000
18267635	1289	1535	0	-100	0	230	101300000	1000	0	0	-1	1000
18280195	1303	1535	0	-100	0	230	101300000	1000	0	0	-1	1000
18292755	1287	1537	0	-100	0	230	101300000	1000	0	0	-1	1000
18305315	1280	1542	0	-100	0	230	101300000	1000	0	0	-1	1000
18317875	1301	1540	0	-100	0	230	101300000	1000	0	0	-1	1000
18330435	1309	1536	0	-100	0	230	101300000	1000	0	0	-1	1000
18342995	1285	1537	0	-100	0	230	101300000	1000	0	0	-1	1000
18355555	1286	1542	0	-100	0	230	101300000	1000	0	0	-1	1000
18368115	1297	1542	0	-100	0	230	101300000	1000	0	0	-1	1000
18380675	1313	1534	0	-100	0	230	101300000	1000	0	0	-1	1000
18393235	1289	1535	0	-100	0	230	101300000	1000	0	0	-1	1000
18405795	1283	1539	0	-100	0	230	101300000	1000	0	0	-1	1000
18418355	1299	1537	0	-100	0	230	101300000	1000	0	0	-1	1000
18430915	1310	1534	0	-100	0	230	101300000	1000	0	0	-1	1000
18443475	1289	1537	0	-100	0	230	101300000	1000	0	0	-1	1000
18456035	1290	1542	0	-100	0	230	101300000	1000	0	0	-1	1000
18468595	1304	1532	0	-100	0	230	101300000	1000	0	0	-1	1000
18481155	1297	1535	0	-100	0	230	101300000	1000	0	0	-1	1000
18493715	1291	1541	0	-100	0	230	101300000	1000	0	0	-1	1000
18506275	1298	1536	0	-100	0	230	101300000	1000	0	0	-1	1000
18518835	1303	1535	0	-100	0	230	101300000	1000	0	0	-1	1000
18531395	1286	1539	0	-100	0	230	101300000	1000	0	0	-1	1000
18569075	1299	1535	0	-100	0	230	101300000	1000	0	0	-1	1000
18581635	1292	1534	0	-100	0	230	101300000	1000	0	0	-1	1000
18594195	1306	1543	0	-100	0	230	101300000	1000	0	0	-1	1000
18606755	1287	1537	0	-100	0	230	101300000	1000	0	0	-1	1000
18619315	1294	1534	0	-100	0	230	101300000	1000	0	0	-1	1000
18631875	1296	1541	0	-100	0	230	101300000	1000	0	0	-1	1000
18644435	1295	1544	0	-100	0	230	101300000	1000	0	0	-1	1000
18656995	1288	1540	0	-100	0	230	101300000	1000	0	0	-1	1000
18669555	1296	1536	0	-100	0	230	101300000	1000	0	0	-1	1000
18682115	1313	1535	0	-100	0	230	101300000	1000	0	0	-1	1000
18694675	1287	1542	0	-100	0	230	101300000	1000	0	0	-1	1000
18707235	1294	1532	0	-100	0	230	101300000	1000	0	0	-1	1000
18807715	1308	1516	0	-100	0	230	101300000	1000	0	0	-1	1000
18820275	1281	1537	0	-100	0	230	101300000	1000	0	0	-1	1000
18832835	1282	1540	0	-100	0	230	101300000	1000	0	0	-1	1000
18845395	1296	1537	0	-100	0	230	101300000	1000	0	0	-1	1000
18857955	1289	1529	0	-100	0	230	101300000	1000	0	0	-1	1000
18870515	1288	1527	0	-100	0	230	101300000	1000	0	0	-1	1000
18883075	1306	1541	0	-100	0	230	101300000	1000	0	0	-1	1000
18895635	1291	1532	0	-100	0	230	101300000	1000	0	0	-1	1000
18908195	1291	1535	0	-100	0	230	101300000	1000	0	0	-1	1000
18920755	1301	1541	0	-100	0	230	101300000	1000	0	0	-1	1000
18933315	1289	1534	0	-100	0	230	101300000	1000	0	0	-1	1000
18945875	1292	1537	0	-100	0	230	101300000	1000	0	0	-1	1000
18970995	1294	1543	0	-100	0	230	101300000	1000	0	0	-1	1000
18983555	1295	1533	0	-100	0	230	101300000	1000	0	0	-1	1000
18996115	1296	1540	0	-100	0	230	101300000	1000	0	0	-1	1000
19008675	1312	1540	0	-100	0	230	101300000	1000	0	0	-1	1000
19021235	1289	1534	0	-100	0	230	101300000	1000	0	0	-1	1000
19033795	1290	1538	0	-100	0	230	101300000	1000	0	0	-1	1000
19046355	1299	1542	0	-100	0	230	101300000	1000	0	0	-1	1000
19058915	1287	1534	0	-100	0	230	101300000	1000	0	0	-1	1000
19071475	1298	1535	0	-100	0	230	101300000	1000	0	0	-1	1000
19084035	1301	1541	0	-100	0	230	101300000	1000	0	0	-1	1000
19096595	1287	1538	0	-100	0	230	101300000	1000	0	0	-1	1000
19109155	1291	1533	0	-100	0	230	101300000	1000	0	0	-1	1000
19121715	1304	1547	0	-100	0	230	101300000	1000	0	0	-1	1000
19134275	1301	1536	0	-100	0	230	101300000	1000	0	0	-1	1000
19146835	1291	1538	0	-100	0	230	101300000	1000	0	0	-1	1000
19159395	1295	1539	0	-100	0	230	101300000	1000	0	0	-1	1000
19171955	1308	1534	0	-100	0	230	101300000	1000	0	0	-1	1000
19184515	1281	1541	0	-100	0	230	101300000	1000	0	0	-1	1000
19197075	1303	1537	0	-100	0	230	101300000	1000	0	0	-1	1000
19209635	1315	1543	0	-100	0	230	101300000	1000	0	0	-1	1000
19222195	1294	1534	0	-100	0	230	101300000	1000	0	0	-1	1000
19234755	1293	1536	0	-100	0	230	101300000	1000	0	0	-1	1000
19247315	1304	1543	0	-100	0	230	101300000	1000	0	0	-1	1000
19259875	1296	1533	0	-100	0	230	101300000	1000	0	0	-1	1000
19272435	1284	1546	0	-100	0	230	101300000	1000	0	0	-1	1000
19284995	1298	1543	0	-100	0	230	101300000	1000	0	0	-1	1000
19297555	1299	1541	0	-100	0	230	101300000	1000	0	0	-1	1000
19310115	1281	1534	0	-100	0	230	101300000	1000	0	0	-1	1000
19322675	1294	1534	0	-100	0	230	101300000	1000	0	0	-1	1000
19335235	1299	1542	0	-100	0	230	101300000	1000	0	0	-1	1000
19347795	1287	1532	0	-100	0	230	101300000	1000	0	0	-1	1000
19360355	1289	1538	0	-100	0	230	101300000	1000	0	0	-1	1000
19372915	1304	1539	0	-100	0	230	101300000	1000	0	0	-1	1000
19385475	1289	1533	0	-100	0	230	101300000	1000	0	0	-1	1000
19398035	1287	1540	0	-100	0	230	101300000	1000	0	0	-1	1000
19410595	1294	1545	0	-100	0	230	101300000	1000	0	0	-1	1000
19423155	1302	1535	0	-100	0	230	101300000	1000	0	0	-1	1000
19435715	1296	1535	0	-100	0	230	101300000	1000	0	0	-1	1000
19448275	1296	1541	0	-100	0	230	101300000	1000	0	0	-1	1000
19460835	1307	1545	0	-100	0	230	101300000	1000	0	0	-1	1000
19473395	1295	1541	0	-100	0	230	101300000	1000	0	0	-1	1000
19485955	1298	1535	0	-100	0	230	101300000	1000	0	0	-1	1000
19498515	1294	1536	0	-100	0	230	101300000	1000	0	0	-1	1000
19511075	1295	1543	0	-100	0	230	101300000	1000	0	0	-1	1000
19523635	1289	1525	0	-100	0	230	101300000	1000	0	0	-1	1000
19536195	1291	1541	0	-100	0	230	101300000	1000	0	0	-1	1000
19548755	1304	1540	0	-100	0	230	101300000	1000	0	0	-1	1000
19561315	1292	1532	0	-100	0	230	101300000	1000	0	0	-1	1000
19573875	1318	1539	0	-100	0	230	101300000	1000	0	0	-1	1000
19586435	1286	1536	0	-100	0	230	101300000	1000	0	0	-1	1000
19598995	1298	1533	0	-100	0	230	101300000	1000	0	0	-1	1000
19611555	1294	1545	0	-100	0	230	101300000	1000	0	0	-1	1000
19624115	1295	1536	0	-100	0	230	101300000	1000	0	0	-1	1000
19636675	1306	1531	0	-100	0	230	101300000	1000	0	0	-1	1000
19649235	1286	1532	0	-100	0	230	101300000	1000	0	0	-1	1000
19661795	1291	1543	0	-100	0	230	101300000	1000	0	0	-1	1000
19674355	1307	1539	0	-100	0	230	101300000	1000	0	0	-1	1000
19686915	1286	1533	0	-100	0	230	101300000	1000	0	0	-1	1000
19699475	1311	1542	0	-100	0	230	101300000	1000	0	0	-1	1000
19712035	1294	1534	0	-100	0	230	101300000	1000	0	0	-1	1000
19724595	1294	1534	0	-100	0	230	101300000	1000	0	0	-1	1000
19737155	1288	1542	0	-100	0	230	101300000	1000	0	0	-1	1000
19749715	1295	1529	0	-100	0	230	101300000	1000	0	0	-1	1000
19762275	1294	1539	0	-100	0	230	101300000	1000	0	0	-1	1000
19774835	1292	1542	0	-100	0	230	101300000	1000	0	0	-1	1000
19787395	1303	1532	0	-100	0	230	101300000	1000	0	0	-1	1000
19799955	1289	1540	0	-100	0	230	101300000	1000	0	0	-1	1000
19812515	1294	1539	0	-100	0	230	101300000	1000	0	0	-1	1000
19825075	1318	1537	0	-100	0	230	101300000	1000	0	0	-1	1000
19837635	1286	1536	0	-100	0	230	101300000	1000	0	0	-1	1000
19850195	1299	1542	0	-100	0	230	101300000	1000	0	0	-1	1000
19862755	1289	1533	0	-100	0	230	101300000	1000	0	0	-1	1000
19875315	1298	1541	0	-100	0	230	101300000	1000	0	0	-1	1000
19887875	1284	1544	0	-100	0	230	101300000	1000	0	0	-1	1000
19900435	1292	1534	0	-100	0	230	101300000	1000	0	0	-1	1000
19912995	1304	1535	0	-100	0	230	101300000	1000	0	0	-1	1000
19925555	1291	1534	0	-100	0	230	101300000	1000	0	0	-1	1000
19938115	1294	1544	0	-100	0	230	101300000	1000	0	0	-1	1000
19950675	1313	1537	0	-100	0	230	101300000	1000	0	0	-1	1000
19963235	1286	1539	0	-100	0	230	101300000	1000	0	0	-1	1000
19975795	1294	1544	0	-100	0	230	101300000	1000	0	0	-1	1000
19988355	1299	1537	0	-100	0	230	101300000	1000	0	0	-1	1000
20000915	1287	1535	0	-100	0	230	101300000	1000	0	0	-1	1000
20013475	1288	1535	0	-100	0	230	101300000	1000	0	0	-1	1000
20026035	1294	1541	0	-100	0	230	101300000	1000	0	0	-1	1000
20038595	1277	1541	0	-100	0	230	101300000	1000	0	0	-1	1000
20051155	1297	1542	0	-100	0	230	101300000	1000	0	0	-1	1000
20063715	1297	1540	0	-100	0	230	101300000	1000	0	0	-1	1000
20076275	1289	1541	0	-100	0	230	101300000	1000	0	0	-1	1000
20088835	1306	1544	0	-100	0	230	101300000	1000	0	0	-1	1000
20101395	1289	1537	0	-100	0	230	101300000	1000	0	0	-1	1000
20113955	1302	1537	0	-100	0	230	101300000	1000	0	0	-1	1000
20126515	1291	1531	0	-100	0	230	101300000	1000	0	0	-1	1000
20139075	1298	1514	0	-100	0	230	101300000	1000	0	0	-1	1000
20151635	1310	1535	0	-100	0	230	101300000	1000	0	0	-1	1000
20164195	1286	1541	0	-100	0	230	101300000	1000	0	0	-1	1000
20176755	1299	1543	0	-100	0	230	101300000	1000	0	0	-1	1000
20189315	1294	1532	0	-100	0	230	101300000	1000	0	0	-1	1000
20201875	1292	1537	0	-100	0	230	101300000	1000	0	0	-1	1000
20214435	1282	1541	0	-100	0	230	101300000	1000	0	0	-1	1000
20226995	1283	1531	0	-100	0	230	101300000	1000	0	0	-1	1000
20239555	1304	1531	0	-100	0	230	101300000	1000	0	0	-1	1000
20252115	1281	1535	0	-100	0	230	101300000	1000	0	0	-1	1000
20264675	1304	1544	0	-100	0	230	101300000	1000	0	0	-1	1000
20277235	1277	1541	0	-100	0	230	101300000	1000	0	0	-1	1000
20289795	1301	1544	0	-100	0	230	101300000	1000	0	0	-1	1000
20302355	1282	1538	0	-100	0	230	101300000	1000	0	0	-1	1000
20314915	1300	1535	0	-100	0	230	101300000	1000	0	0	-1	1000
20327475	1306	1531	0	-100	0	230	101300000	1000	0	0	-1	1000
20340035	1287	1535	0	-100	0	230	101300000	1000	0	0	-1	1000
20352595	1306	1536	0	-100	0	230	101300000	1000	0	0	-1	1000
20365155	1300	1531	0	-100	0	230	101300000	1000	0	0	-1	1000
20377715	1308	1535	0	-100	0	230	101300000	1000	0	0	-1	1000
20390275	1284	1540	0	-100	0	230	101300000	1000	0	0	-1	1000
20402835	1306	1544	0	-100	0	230	101300000	1000	0	0	-1	1000
20415395	1278	1542	0	-100	0	230	101300000	1000	0	0	-1	1000
20427955	1293	1540	0	-100	0	230	101300000	1000	0	0	-1	1000
20440515	1287	1543	0	-100	0	230	101300000	1000	0	0	-1	1000
20453075	1293	1539	0	-100	0	230	101300000	1000	0	0	-1	1000
20465635	1301	1543	0	-100	0	230	101300000	1000	0	0	-1	1000
20478195	1285	1544	0	-100	0	230	101300000	1000	0	0	-1	1000
20490755	1287	1538	0	-100	0	230	101300000	1000	0	0	-1	1000
20503315	1307	1540	0	-100	0	230	101300000	1000	0	0	-1	1000
20515875	1289	1537	0	-100	0	230	101300000	1000	0	0	-1	1000
20528435	1292	1538	0	-100	0	230	101300000	1000	0	0	-1	1000
20540995	1292	1542	0	-100	0	230	101300000	1000	0	0	-1	1000
20553555	1294	1535	0	-100	0	230	101300000	1000	0	0	-1	1000
20566115	1286	1537	0	-100	0	230	101300000	1000	0	0	-1	1000
20578675	1298	1531	0	-100	0	230	101300000	1000	0	0	-1	1000
20591235	1287	1531	0	-100	0	230	101300000	1000	0	0	-1	1000
20603795	1303	1533	0	-100	0	230	101300000	1000	0	0	-1	1000
20616355	1286	1535	0	-100	0	230	101300000	1000	0	0	-1	1000
20628915	1282	1544	0	-100	0	230	101300000	1000	0	0	-1	1000
20641475	1290	1540	0	-100	0	230	101300000	1000	0	0	-1	1000
20654035	1299	1540	0	-100	0	230	101300000	1000	0	0	-1	1000
20666595	1287	1538	0	-100	0	230	101300000	1000	0	0	-1	1000
20679155	1312	1538	0	-100	0	230	101300000	1000	0	0	-1	1000
20691715	1296	1534	0	-100	0	230	101300000	1000	0	0	-1	1000
20704275	1297	1535	0	-100	0	230	101300000	1000	0	0	-1	1000
20716835	1288	1540	0	-100	0	230	101300000	1000	0	0	-1	1000
20729395	1282	1541	0	-100	0	230	101300000	1000	0	0	-1	1000
20741955	1294	1546	0	-100	0	230	101300000	1000	0	0	-1	1000
20754515	1282	1543	0	-100	0	230	101300000	1000	0	0	-1	1000
20767075	1304	1547	0	-100	0	230	101300000	1000	0	0	-1	1000
20779635	1289	1542	0	-100	0	230	101300000	1000	0	0	-1	1000
20792195	1304	1543	0	-100	0	230	101300000	1000	0	0	-1	1000
20804755	1284	1541	0	-100	0	230	101300000	1000	0	0	-1	1000
20817315	1292	1542	0	-100	0	230	101300000	1000	0	0	-1	1000
20829875	1290	1535	0	-100	0	230	101300000	1000	0	0	-1	1000
20842435	1291	1540	0	-100	0	230	101300000	1000	0	0	-1	1000
20854995	1301	1544	0	-100	0	230	101300000	1000	0	0	-1	1000
20867555	1289	1532	0	-100	0	230	101300000	1000	0	0	-1	1000
20880115	1311	1538	0	-100	0	230	101300000	1000	0	0	-1	1000
20892675	1296	1535	0	-100	0	230	101300000	1000	0	0	-1	1000
20905235	1296	1534	0	-100	0	230	101300000	1000	0	0	-1	1000
20917795	1291	1529	0	-100	0	230	101300000	1000	0	0	-1	1000
20930355	1289	1538	0	-100	0	230	101300000	1000	0	0	-1	1000
20942915	1297	1539	0	-100	0	230	101300000	1000	0	0	-1	1000
20955475	1287	1541	0	-100	0	230	101300000	1000	0	0	-1	1000
20968035	1308	1539	0	-100	0	230	101300000	1000	0	0	-1	1000
20980595	1280	1537	0	-100	0	230	101300000	1000	0	0	-1	1000
20993155	1305	1534	0	-100	0	230	101300000	1000	0	0	-1	1000
21005715	1313	1533	0	-100	0	230	101300000	1000	0	0	-1	1000
21018275	1301	1535	0	-100	0	230	101300000	1000	0	0	-1	1000
21030835	1293	1533	0	-100	0	230	101300000	1000	0	0	-1	1000
21043395	1299	1541	0	-100	0	230	101300000	1000	0	0	-1	1000
21055955	1302	1544	0	-100	0	230	101300000	1000	0	0	-1	1000
21068515	1277	1540	0	-100	0	230	101300000	1000	0	0	-1	1000
21081075	1298	1540	0	-100	0	230	101300000	1000	0	0	-1	1000
21093635	1309	1535	0	-100	0	230	101300000	1000	0	0	-1	1000
21106195	1306	1536	0	-100	0	230	101300000	1000	0	0	-1	1000
21118755	1286	1535	0	-100	0	230	101300000	1000	0	0	-1	1000
21131315	1291	1539	0	-100	0	230	101300000	1000	0	0	-1	1000
21143875	1292	1546	0	-100	0	230	101300000	1000	0	0	-1	1000
21156435	1280	1537	0	-100	0	230	101300000	1000	0	0	-1	1000
21168995	1308	1543	0	-100	0	230	101300000	1000	0	0	-1	1000
21181555	1283	1533	0	-100	0	230	101300000	1000	0	0	-1	1000
21194115	1309	1536	0	-100	0	230	101300000	1000	0	0	-1	1000
21206675	1303	1533	0	-100	0	230	101300000	1000	0	0	-1	1000
21219235	1287	1539	0	-100	0	230	101300000	1000	0	0	-1	1000
21231795	1314	1540	0	-100	0	230	101300000	1000	0	0	-1	1000
21244355	1296	1543	0	-100	0	230	101300000	1000	0	0	-1	1000
21256915	1280	1541	0	-100	0	230	101300000	1000	0	0	-1	1000
21269475	1302	1540	0	-100	0	230	101300000	1000	0	0	-1	1000
21282035	1296	1533	0	-100	0	230	101300000	1000	0	0	-1	1000
21294595	1288	1535	0	-100	0	230	101300000	1000	0	0	-1	1000
21307155	1297	1542	0	-100	0	230	101300000	1000	0	0	-1	1000
21319715	1289	1539	0	-100	0	230	101300000	1000	0	0	-1	1000
21332275	1304	1535	0	-100	0	230	101300000	1000	0	0	-1	1000
21344835	1300	1536	0	-100	0	230	101300000	1000	0	0	-1	1000
21357395	1284	1535	0	-100	0	230	101300000	1000	0	0	-1	1000
21369955	1306	1537	0	-100	0	230	101300000	1000	0	0	-1	1000
21382515	1288	1535	0	-100	0	230	101300000	1000	0	0	-1	1000
21395075	1279	1539	0	-100	0	230	101300000	1000	0	0	-1	1000
21407635	1301	1539	0	-100	0	230	101300000	1000	0	0	-1	1000
21420195	1290	1537	0	-100	0	230	101300000	1000	0	0	-1	1000
21432755	1291	1540	0	-100	0	230	101300000	1000	0	0	-1	1000
21445315	1292	1543	0	-100	0	230	101300000	1000	0	0	-1	1000
21457875	1281	1538	0	-100	0	230	101300000	1000	0	0	-1	1000
21470435	1292	1533	0	-100	0	230	101300000	1000	0	0	-1	1000
21482995	1297	1534	0	-100	0	230	101300000	1000	0	0	-1	1000
21495555	1285	1538	0	-100	0	230	101300000	1000	0	0	-1	1000
21508115	1303	1536	0	-100	0	230	101300000	1000	0	0	-1	1000
21520675	1299	1545	0	-100	0	230	101300000	1000	0	0	-1	1000
21533235	1287	1536	0	-100	0	230	101300000	1000	0	0	-1	1000
21545795	1309	1536	0	-100	0	230	101300000	1000	0	0	-1	1000
21558355	1289	1539	0	-100	0	230	101300000	1000	0	0	-1	1000
21570915	1289	1540	0	-100	0	230	101300000	1000	0	0	-1	1000
21583475	1299	1532	0	-100	0	230	101300000	1000	0	0	-1	1000
21596035	1293	1533	0	-100	0	230	101300000	1000	0	0	-1	1000
21608595	1301	1545	0	-100	0	230	101300000	1000	0	0	-1	1000
21621155	1284	1539	0	-100	0	230	101300000	1000	0	0	-1	1000
21633715	1287	1534	0	-100	0	230	101300000	1000	0	0	-1	1000
21646275	1310	1536	0	-100	0	230	101300000	1000	0	0	-1	1000
21721635	1301	1537	0	-100	0	230	101300000	1000	0	0	-1	1000
21734195	1294	1535	0	-100	0	230	101300000	1000	0	0	-1	1000
21746755	1285	1544	0	-100	0	230	101300000	1000	0	0	-1	1000
21759315	1294	1539	0	-100	0	230	101300000	1000	0	0	-1	1000
21771875	1298	1534	0	-100	0	230	101300000	1000	0	0	-1	1000
21784435	1287	1533	0	-100	0	230	101300000	1000	0	0	-1	1000
21796995	1312	1535	0	-100	0	230	101300000	1000	0	0	-1	1000
21809555	1287	1544	0	-100	0	230	101300000	1000	0	0	-1	1000
21822115	1285	1540	0	-100	0	230	101300000	1000	0	0	-1	1000
21834675	1307	1537	0	-100	0	230	101300000	1000	0	0	-1	1000
21847235	1297	1536	0	-100	0	230	101300000	1000	0	0	-1	1000
21859795	1284	1543	0	-100	0	230	101300000	1000	0	0	-1	1000
21910035	1316	1535	0	-100	0	230	101300000	1000	0	0	-1	1000
21922595	1294	1531	0	-100	0	230	101300000	1000	0	0	-1	1000
21935155	1295	1534	0	-100	0	230	101300000	1000	0	0	-1	1000
21947715	1306	1539	0	-100	0	230	101300000	1000	0	0	-1	1000
21960275	1298	1537	0	-100	0	230	101300000	1000	0	0	-1	1000
21972835	1289	1536	0	-100	0	230	101300000	1000	0	0	-1	1000
21985395	1296	1539	0	-100	0	230	101300000	1000	0	0	-1	1000
21997955	1290	1536	0	-100	0	230	101300000	1000	0	0	-1	1000
22010515	1311	1533	0	-100	0	230	101300000	1000	0	0	-1	1000
22023075	1288	1534	0	-100	0	230	101300000	1000	0	0	-1	1000
22035635	1296	1543	0	-100	0	230	101300000	1000	0	0	-1	1000
22048195	1299	1540	0	-100	0	230	101300000	1000	0	0	-1	1000
22060755	1295	1534	0	-100	0	230	101300000	1000	0	0	-1	1000
22073315	1288	1539	0	-100	0	230	101300000	1000	0	0	-1	1000
22085875	1281	1540	0	-100	0	230	101300000	1000	0	0	-1	1000
22098435	1298	1532	0	-100	0	230	101300000	1000	0	0	-1	1000
22110995	1299	1536	0	-100	0	230	101300000	1000	0	0	-1	1000
22123555	1297	1542	0	-100	0	230	101300000	1000	0	0	-1	1000
22136115	1292	1535	0	-100	0	230	101300000	1000	0	0	-1	1000
22148675	1304	1536	0	-100	0	230	101300000	1000	0	0	-1	1000
22161235	1285	1539	0	-100	0	230	101300000	1000	0	0	-1	1000
22173795	1287	1540	0	-100	0	230	101300000	1000	0	0	-1	1000
22186355	1291	1535	0	-100	0	230	101300000	1000	0	0	-1	1000
22198915	1318	1534	0	-100	0	230	101300000	1000	0	0	-1	1000
22211475	1297	1542	0	-100	0	230	101300000	1000	0	0	-1	1000
22224035	1296	1535	0	-100	0	230	101300000	1000	0	0	-1	1000
22236595	1294	1533	0	-100	0	230	101300000	1000	0	0	-1	1000
22249155	1292	1539	0	-100	0	230	101300000	1000	0	0	-1	1000
22261715	1299	1536	0	-100	0	230	101300000	1000	0	0	-1	1000
22274275	1293	1535	0	-100	0	230	101300000	1000	0	0	-1	1000
22286835	1294	1539	0	-100	0	230	101300000	1000	0	0	-1	1000
22299395	1294	1538	0	-100	0	230	101300000	1000	0	0	-1	1000
22311955	1289	1533	0	-100	0	230	101300000	1000	0	0	-1	1000
22324515	1306	1539	0	-100	0	230	101300000	1000	0	0	-1	1000
22337075	1280	1542	0	-100	0	230	101300000	1000	0	0	-1	1000
22349635	1295	1539	0	-100	0	230	101300000	1000	0	0	-1	1000
22362195	1297	1533	0	-100	0	230	101300000	1000	0	0	-1	1000
22374755	1299	1543	0	-100	0	230	101300000	1000	0	0	-1	1000
22387315	1291	1534	0	-100	0	230	101300000	1000	0	0	-1	1000
22399875	1298	1537	0	-100	0	230	101300000	1000	0	0	-1	1000
22412435	1288	1542	0	-100	0	230	101300000	1000	0	0	-1	1000
22424995	1301	1539	0	-100	0	230	101300000	1000	0	0	-1	1000
22437555	1295	1532	0	-100	0	230	101300000	1000	0	0	-1	1000
22450115	1308	1536	0	-100	0	230	101300000	1000	0	0	-1	1000
22462675	1281	1534	0	-100	0	230	101300000	1000	0	0	-1	1000
22475235	1308	1540	0	-100	0	230	101300000	1000	0	0	-1	1000
22487795	1291	1540	0	-100	0	230	101300000	1000	0	0	-1	1000
22500355	1301	1533	0	-100	0	230	101300000	1000	0	0	-1	1000
22512915	1291	1536	0	-100	0	230	101300000	1000	0	0	-1	1000
22525475	1321	1541	0	-100	0	230	101300000	1000	0	0	-1	1000
22538035	1291	1532	0	-100	0	230	101300000	1000	0	0	-1	1000
22550595	1298	1534	0	-100	0	230	101300000	1000	0	0	-1	1000
22563155	1307	1542	0	-100	0	230	101300000	1000	0	0	-1	1000
22575715	1289	1537	0	-100	0	230	101300000	1000	0	0	-1	1000
22588275	1284	1541	0	-100	0	230	101300000	1000	0	0	-1	1000
22600835	1296	1531	0	-100	0	230	101300000	1000	0	0	-1	1000
22613395	1298	1539	0	-100	0	230	101300000	1000	0	0	-1	1000
22625955	1292	1542	0	-100	0	230	101300000	1000	0	0	-1	1000
22638515	1284	1534	0	-100	0	230	101300000	1000	0	0	-1	1000
22651075	1277	1537	0	-100	0	230	101300000	1000	0	0	-1	1000
22663635	1278	1541	0	-100	0	230	101300000	1000	0	0	-1	1000
22676195	1297	1537	0	-100	0	230	101300000	1000	0	0	-1	1000
22688755	1287	1540	0	-100	0	230	101300000	1000	0	0	-1	1000
22701315	1289	1542	0	-100	0	230	101300000	1000	0	0	-1	1000
22713875	1299	1534	0	-100	0	230	101300000	1000	0	0	-1	1000
22726435	1286	1537	0	-100	0	230	101300000	1000	0	0	-1	1000
22738995	1309	1542	0	-100	0	230	101300000	1000	0	0	-1	1000
22751555	1289	1532	0	-100	0	230	101300000	1000	0	0	-1	1000
22764115	1309	1545	0	-100	0	230	101300000	1000	0	0	-1	1000
22776675	1293	1535	0	-100	0	230	101300000	1000	0	0	-1	1000
22789235	1289	1540	0	-100	0	230	101300000	1000	0	0	-1	1000
22801795	1292	1534	0	-100	0	230	101300000	1000	0	0	-1	1000
22814355	1294	1534	0	-100	0	230	101300000	1000	0	0	-1	1000
22826915	1282	1539	0	-100	0	230	101300000	1000	0	0	-1	1000
22839475	1297	1533	0	-100	0	230	101300000	1000	0	0	-1	1000
22852035	1316	1540	0	-100	0	230	101300000	1000	0	0	-1	1000
22864595	1286	1539	0	-100	0	230	101300000	1000	0	0	-1	1000
22877155	1309	1535	0	-100	0	230	101300000	1000	0	0	-1	1000
22889715	1296	1533	0	-100	0	230	101300000	1000	0	0	-1	1000
22902275	1308	1540	0	-100	0	230	101300000	1000	0	0	-1	1000
22914835	1288	1538	0	-100	0	230	101300000	1000	0	0	-1	1000
22927395	1306	1534	0	-100	0	230	101300000	1000	0	0	-1	1000
22939955	1286	1535	0	-100	0	230	101300000	1000	0	0	-1	1000
22952515	1297	1545	0	-100	0	230	101300000	1000	0	0	-1	1000
22965075	1282	1535	0	-100	0	230	101300000	1000	0	0	-1	1000
22977635	1296	1535	0	-100	0	230	101300000	1000	0	0	-1	1000
22990195	1284	1540	0	-100	0	230	101300000	1000	0	0	-1	1000
23002755	1305	1535	0	-100	0	230	101300000	1000	0	0	-1	1000
23015315	1291	1537	0	-100	0	230	101300000	1000	0	0	-1	1000
23027875	1306	1540	0	-100	0	230	101300000	1000	0	0	-1	1000
23040435	1286	1533	0	-100	0	230	101300000	1000	0	0	-1	1000
23052995	1294	1534	0	-100	0	230	101300000	1000	0	0	-1	1000
23065555	1311	1536	0	-100	0	230	101300000	1000	0	0	-1	1000
23078115	1277	1534	0	-100	0	230	101300000	1000	0	0	-1	1000
23090675	1281	1537	0	-100	0	230	101300000	1000	0	0	-1	1000
23103235	1309	1537	0	-100	0	230	101300000	1000	0	0	-1	1000
23115795	1282	1539	0	-100	0	230	101300000	1000	0	0	-1	1000
23128355	1291	1537	0	-100	0	230	101300000	1000	0	0	-1	1000
23140915	1301	1536	0	-100	0	230	101300000	1000	0	0	-1	1000
23153475	1292	1542	0	-100	0	230	101300000	1000	0	0	-1	1000
23166035	1296	1534	0	-100	0	230	101300000	1000	0	0	-1	1000
23178595	1299	1537	0	-100	0	230	101300000	1000	0	0	-1	1000
23191155	1289	1537	0	-100	0	230	101300000	1000	0	0	-1	1000
23203715	1291	1534	0	-100	0	230	101300000	1000	0	0	-1	1000
23216275	1289	1541	0	-100	0	230	101300000	1000	0	0	-1	1000
23228835	1294	1533	0	-100	0	230	101300000	1000	0	0	-1	1000
23241395	1286	1539	0	-100	0	230	101300000	1000	0	0	-1	1000
23253955	1287	1540	0	-100	0	230	101300000	1000	0	0	-1	1000
23266515	1285	1535	0	-100	0	230	101300000	1000	0	0	-1	1000
23279075	1290	1538	0	-100	0	230	101300000	1000	0	0	-1	1000
23291635	1282	1537	0	-100	0	230	101300000	1000	0	0	-1	1000
23304195	1294	1533	0	-100	0	230	101300000	1000	0	0	-1	1000
23316755	1284	1542	0	-100	0	230	101300000	1000	0	0	-1	1000
23329315	1304	1535	0	-100	0	230	101300000	1000	0	0	-1	1000
23341875	1283	1538	0	-100	0	230	101300000	1000	0	0	-1	1000
23354435	1299	1535	0	-100	0	230	101300000	1000	0	0	-1	1000
23366995	1291	1531	0	-100	0	230	101300000	1000	0	0	-1	1000
23379555	1293	1535	0	-100	0	230	101300000	1000	0	0	-1	1000
23392115	1301	1541	0	-100	0	230	101300000	1000	0	0	-1	1000
23404675	1289	1534	0	-100	0	230	101300000	1000	0	0	-1	1000
23417235	1291	1541	0	-100	0	230	101300000	1000	0	0	-1	1000
23429795	1314	1538	0	-100	0	230	101300000	1000	0	0	-1	1000
23442355	1286	1540	0	-100	0	230	101300000	1000	0	0	-1	1000
23454915	1286	1536	0	-100	0	230	101300000	1000	0	0	-1	1000
23467475	1306	1537	0	-100	0	230	101300000	1000	0	0	-1	1000
23480035	1295	1544	0	-100	0	230	101300000	1000	0	0	-1	1000
23492595	1293	1534	0	-100	0	230	101300000	1000	0	0	-1	1000
23505155	1297	1537	0	-100	0	230	101300000	1000	0	0	-1	1000
23517715	1282	1538	0	-100	0	230	101300000	1000	0	0	-1	1000
23530275	1286	1533	0	-100	0	230	101300000	1000	0	0	-1	1000
23542835	1306	1539	0	-100	0	230	101300000	1000	0	0	-1	1000
23555395	1286	1534	0	-100	0	230	101300000	1000	0	0	-1	1000
23567955	1287	1538	0	-100	0	230	101300000	1000	0	0	-1	1000
23580515	1298	1534	0	-100	0	230	101300000	1000	0	0	-1	1000
23593075	1290	1546	0	-100	0	230	101300000	1000	0	0	-1	1000
23605635	1296	1537	0	-100	0	230	101300000	1000	0	0	-1	1000
23618195	1311	1535	0	-100	0	230	101300000	1000	0	0	-1	1000
23630755	1292	1542	0	-100	0	230	101300000	1000	0	0	-1	1000
23643315	1287	1534	0	-100	0	230	101300000	1000	0	0	-1	1000
23655875	1281	1534	0	-100	0	230	101300000	1000	0	0	-1	1000
23668435	1288	1544	0	-100	0	230	101300000	1000	0	0	-1	1000
23680995	1299	1544	0	-100	0	230	101300000	1000	0	0	-1	1000
23693555	1284	1534	0	-100	0	230	101300000	1000	0	0	-1	1000
23706115	1297	1544	0	-100	0	230	101300000	1000	0	0	-1	1000
23718675	1285	1536	0	-100	0	230	101300000	1000	0	0	-1	1000
23731235	1297	1536	0	-100	0	230	101300000	1000	0	0	-1	1000
23743795	1297	1542	0	-100	0	230	101300000	1000	0	0	-1	1000
23756355	1294	1534	0	-100	0	230	101300000	1000	0	0	-1	1000
23768915	1299	1535	0	-100	0	230	101300000	1000	0	0	-1	1000
23781475	1287	1542	0	-100	0	230	101300000	1000	0	0	-1	1000
23794035	1303	1535	0	-100	0	230	101300000	1000	0	0	-1	1000
23806595	1297	1536	0	-100	0	230	101300000	1000	0	0	-1	1000
23819155	1299	1534	0	-100	0	230	101300000	1000	0	0	-1	1000
23831715	1309	1544	0	-100	0	230	101300000	1000	0	0	-1	1000
23844275	1291	1535	0	-100	0	230	101300000	1000	0	0	-1	1000
23856835	1311	1535	0	-100	0	230	101300000	1000	0	0	-1	1000
23869395	1272	1539	0	-100	0	230	101300000	1000	0	0	-1	1000
23881955	1286	1539	0	-100	0	230	101300000	1000	0	0	-1	1000
23894515	1294	1535	0	-100	0	230	101300000	1000	0	0	-1	1000
23907075	1292	1543	0	-100	0	230	101300000	1000	0	0	-1	1000
23919635	1299	1537	0	-100	0	230	101300000	1000	0	0	-1	1000
23932195	1295	1533	0	-100	0	230	101300000	1000	0	0	-1	1000
23944755	1308	1540	0	-100	0	230	101300000	1000	0	0	-1	1000
23957315	1283	1533	0	-100	0	230	101300000	1000	0	0	-1	1000
23969875	1301	1543	0	-100	0	230	101300000	1000	0	0	-1	1000
23982435	1281	1533	0	-100	0	230	101300000	1000	0	0	-1	1000
23994995	1299	1536	0	-100	0	230	101300000	1000	0	0	-1	1000
24007555	1291	1533	0	-100	0	230	101300000	1000	0	0	-1	1000
24020115	1292	1544	0	-100	0	230	101300000	1000	0	0	-1	1000
24032675	1291	1535	0	-100	0	230	101300000	1000	0	0	-1	1000
24045235	1292	1543	0	-100	0	230	101300000	1000	0	0	-1	1000
24057795	1291	1533	0	-100	0	230	101300000	1000	0	0	-1	1000
24070355	1301	1543	0	-100	0	230	101300000	1000	0	0	-1	1000
24082915	1289	1535	0	-100	0	230	101300000	1000	0	0	-1	1000
24095475	1285	1542	0	-100	0	230	101300000	1000	0	0	-1	1000
24108035	1313	1535	0	-100	0	230	101300000	1000	0	0	-1	1000
24120595	1282	1537	0	-100	0	230	101300000	1000	0	0	-1	1000
24133155	1296	1539	0	-100	0	230	101300000	1000	0	0	-1	1000
24145715	1314	1535	0	-100	0	230	101300000	1000	0	0	-1	1000
24158275	1277	1542	0	-100	0	230	101300000	1000	0	0	-1	1000
24170835	1289	1535	0	-100	0	230	101300000	1000	0	0	-1	1000
24183395	1309	1540	0	-100	0	230	101300000	1000	0	0	-1	1000
24195955	1288	1533	0	-100	0	230	101300000	1000	0	0	-1	1000
24208515	1301	1540	0	-100	0	230	101300000	1000	0	0	-1	1000
24221075	1293	1533	0	-100	0	230	101300000	1000	0	0	-1	1000
24233635	1297	1537	0	-100	0	230	101300000	1000	0	0	-1	1000
24246195	1289	1537	0	-100	0	230	101300000	1000	0	0	-1	1000
24258755	1291	1537	0	-100	0	230	101300000	1000	0	0	-1	1000
24271315	1301	1538	0	-100	0	230	101300000	1000	0	0	-1	1000
24283875	1284	1533	0	-100	0	230	101300000	1000	0	0	-1	1000
24296435	1292	1536	0	-100	0	230	101300000	1000	0	0	-1	1000
24308995	1291	1535	0	-100	0	230	101300000	1000	0	0	-1	1000
24321555	1301	1535	0	-100	0	230	101300000	1000	0	0	-1	1000
24334115	1283	1539	0	-100	0	230	101300000	1000	0	0	-1	1000
24346675	1306	1536	0	-100	0	230	101300000	1000	0	0	-1	1000
24359235	1290	1532	0	-100	0	230	101300000	1000	0	0	-1	1000
24371795	1296	1536	0	-100	0	230	101300000	1000	0	0	-1	1000
24384355	1302	1543	0	-100	0	230	101300000	1000	0	0	-1	1000
24396915	1291	1542	0	-100	0	230	101300000	1000	0	0	-1	1000
24409475	1308	1541	0	-100	0	230	101300000	1000	0	0	-1	1000
24422035	1291	1539	0	-100	0	230	101300000	1000	0	0	-1	1000
24434595	1321	1536	0	-100	0	230	101300000	1000	0	0	-1	1000
24447155	1304	1531	0	-100	0	230	101300000	1000	0	0	-1	1000
24459715	1301	1536	0	-100	0	230	101300000	1000	0	0	-1	1000
24472275	1301	1540	0	-100	0	230	101300000	1000	0	0	-1	1000
24484835	1278	1536	0	-100	0	230	101300000	1000	0	0	-1	1000
24497395	1287	1538	0	-100	0	230	101300000	1000	0	0	-1	1000
24509955	1279	1537	0	-100	0	230	101300000	1000	0	0	-1	1000
24522515	1313	1542	0	-100	0	230	101300000	1000	0	0	-1	1000
24535075	1286	1534	0	-100	0	230	101300000	1000	0	0	-1	1000
24547635	1294	1537	0	-100	0	230	101300000	1000	0	0	-1	1000
24560195	1298	1533	0	-100	0	230	101300000	1000	0	0	-1	1000
24572755	1284	1532	0	-100	0	230	101300000	1000	0	0	-1	1000
24585315	1307	1538	0	-100	0	230	101300000	1000	0	0	-1	1000
24635555	1289	1529	0	-100	0	230	101300000	1000	0	0	-1	1000
24648115	1306	1533	0	-100	0	230	101300000	1000	0	0	-1	1000
24660675	1291	1533	0	-100	0	230	101300000	1000	0	0	-1	1000
24673235	1312	1537	0	-100	0	230	101300000	1000	0	0	-1	1000
24685795	1301	1537	0	-100	0	230	101300000	1000	0	0	-1	1000
24698355	1300	1536	0	-100	0	230	101300000	1000	0	0	-1	1000
24710915	1295	1541	0	-100	0	230	101300000	1000	0	0	-1	1000
24723475	1299	1547	0	-100	0	230	101300000	1000	0	0	-1	1000
24736035	1286	1538	0	-100	0	230	101300000	1000	0	0	-1	1000
24748595	1285	1536	0	-100	0	230	101300000	1000	0	0	-1	1000
24761155	1302	1535	0	-100	0	230	101300000	1000	0	0	-1	1000
24836515	1298	1531	0	-100	0	230	101300000	1000	0	0	-1	1000
24849075	1287	1537	0	-100	0	230	101300000	1000	0	0	-1	1000
24861635	1285	1543	0	-100	0	230	101300000	1000	0	0	-1	1000
24874195	1292	1544	0	-100	0	230	101300000	1000	0	0	-1	1000
24886755	1294	1538	0	-100	0	230	101300000	1000	0	0	-1	1000
24899315	1301	1534	0	-100	0	230	101300000	1000	0	0	-1	1000
24911875	1308	1534	0	-100	0	230	101300000	1000	0	0	-1	1000
24924435	1289	1534	0	-100	0	230	101300000	1000	0	0	-1	1000
24936995	1297	1541	0	-100	0	230	101300000	1000	0	0	-1	1000
24949555	1299	1539	0	-100	0	230	101300000	1000	0	0	-1	1000
24962115	1273	1538	0	-100	0	230	101300000	1000	0	0	-1	1000
24974675	1275	1542	0	-100	0	230	101300000	1000	0	0	-1	1000
24987235	1306	1544	0	-100	0	230	101300000	1000	0	0	-1	1000
24999795	1294	1537	0	-100	0	230	101300000	1000	0	0	-1	1000
25012355	1284	1534	0	-100	0	230	101300000	1000	0	0	-1	1000
25024915	1311	1535	0	-100	0	230	101300000	1000	0	0	-1	1000
25037475	1305	1536	0	-100	0	230	101300000	1000	0	0	-1	1000
25050035	1282	1537	0	-100	0	230	101300000	1000	0	0	-1	1000
25062595	1294	1541	0	-100	0	230	101300000	1000	0	0	-1	1000
25075155	1295	1543	0	-100	0	230	101300000	1000	0	0	-1	1000
25087715	1290	1536	0	-100	0	230	101300000	1000	0	0	-1	1000
25100275	1294	1535	0	-100	0	230	101300000	1000	0	0	-1	1000
25112835	1318	1534	0	-100	0	230	101300000	1000	0	0	-1	1000
25125395	1288	1533	0	-100	0	230	101300000	1000	0	0	-1	1000
25137955	1284	1541	0	-100	0	230	101300000	1000	0	0	-1	1000
25150515	1289	1542	0	-100	0	230	101300000	1000	0	0	-1	1000
25163075	1287	1543	0	-100	0	230	101300000	1000	0	0	-1	1000
25175635	1316	1543	0	-100	0	230	101300000	1000	0	0	-1	1000
25188195	1289	1539	0	-100	0	230	101300000	1000	0	0	-1	1000
25200755	1296	1533	0	-100	0	230	101300000	1000	0	0	-1	1000
25213315	1303	1536	0	-100	0	230	101300000	1000	0	0	-1	1000
25225875	1311	1537	0	-100	0	230	101300000	1000	0	0	-1	1000
25238435	1292	1537	0	-100	0	230	101300000	1000	0	0	-1	1000
25250995	1287	1535	0	-100	0	230	101300000	1000	0	0	-1	1000
25263555	1294	1543	0	-100	0	230	101300000	1000	0	0	-1	1000
25276115	1297	1540	0	-100	0	230	101300000	1000	0	0	-1	1000
25288675	1277	1535	0	-100	0	230	101300000	1000	0	0	-1	1000
25301235	1298	1533	0	-100	0	230	101300000	1000	0	0	-1	1000
25313795	1303	1535	0	-100	0	230	101300000	1000	0	0	-1	1000
25326355	1289	1535	0	-100	0	230	101300000	1000	0	0	-1	1000
25338915	1291	1533	0	-100	0	230	101300000	1000	0	0	-1	1000
25351475	1303	1535	0	-100	0	230	101300000	1000	0	0	-1	1000
25364035	1298	1531	0	-100	0	230	101300000	1000	0	0	-1	1000
25376595	1310	1533	0	-100	0	230	101300000	1000	0	0	-1	1000
25389155	1298	1531	0	-100	0	230	101300000	1000	0	0	-1	1000
25401715	1287	1536	0	-100	0	230	101300000	1000	0	0	-1	1000
25414275	1300	1536	0	-100	0	230	101300000	1000	0	0	-1	1000
25426835	1291	1536	0	-100	0	230	101300000	1000	0	0	-1	1000
25439395	1309	1537	0	-100	0	230	101300000	1000	0	0	-1	1000
25451955	1288	1536	0	-100	0	230	101300000	1000	0	0	-1	1000
25464515	1302	1542	0	-100	0	230	101300000	1000	0	0	-1	1000
25477075	1300	1535	0	-100	0	230	101300000	1000	0	0	-1	1000
25489635	1298	1535	0	-100	0	230	101300000	1000	0	0	-1	1000
25502195	1318	1531	0	-100	0	230	101300000	1000	0	0	-1	1000
25514755	1279	1542	0	-100	0	230	101300000	1000	0	0	-1	1000
25527315	1282	1540	0	-100	0	230	101300000	1000	0	0	-1	1000
25539875	1313	1542	0	-100	0	230	101300000	1000	0	0	-1	1000
25552435	1303	1533	0	-100	0	230	101300000	1000	0	0	-1	1000
25564995	1296	1537	0	-100	0	230	101300000	1000	0	0	-1	1000
25577555	1302	1535	0	-100	0	230	101300000	1000	0	0	-1	1000
25590115	1287	1545	0	-100	0	230	101300000	1000	0	0	-1	1000
25602675	1290	1538	0	-100	0	230	101300000	1000	0	0	-1	1000
25615235	1284	1535	0	-100	0	230	101300000	1000	0	0	-1	1000
25627795	1311	1536	0	-100	0	230	101300000	1000	0	0	-1	1000
25640355	1298	1532	0	-100	0	230	101300000	1000	0	0	-1	1000
25652915	1292	1537	0	-100	0	230	101300000	1000	0	0	-1	1000
25665475	1304	1542	0	-100	0	230	101300000	1000	0	0	-1	1000
25678035	1295	1537	0	-100	0	230	101300000	1000	0	0	-1	1000
25690595	1294	1534	0	-100	0	230	101300000	1000	0	0	-1	1000
25703155	1295	1537	0	-100	0	230	101300000	1000	0	0	-1	1000
25715715	1298	1541	0	-100	0	230	101300000	1000	0	0	-1	1000
25728275	1294	1539	0	-100	0	230	101300000	1000	0	0	-1	1000
25740835	1296	1537	0	-100	0	230	101300000	1000	0	0	-1	1000
25753395	1296	1536	0	-100	0	230	101300000	1000	0	0	-1	1000
25765955	1294	1542	0	-100	0	230	101300000	1000	0	0	-1	1000
25778515	1296	1533	0	-100	0	230	101300000	1000	0	0	-1	1000
25791075	1301	1538	0	-100	0	230	101300000	1000	0	0	-1	1000
25803635	1292	1540	0	-100	0	230	101300000	1000	0	0	-1	1000
25816195	1301	1537	0	-100	0	230	101300000	1000	0	0	-1	1000
25828755	1281	1537	0	-100	0	230	101300000	1000	0	0	-1	1000
25841315	1286	1536	0	-100	0	230	101300000	1000	0	0	-1	1000
25853875	1296	1533	0	-100	0	230	101300000	1000	0	0	-1	1000
25866435	1280	1537	0	-100	0	230	101300000	1000	0	0	-1	1000
25878995	1304	1535	0	-100	0	230	101300000	1000	0	0	-1	1000
25891555	1301	1537	0	-100	0	230	101300000	1000	0	0	-1	1000
25904115	1301	1541	0	-100	0	230	101300000	1000	0	0	-1	1000
25916675	1290	1536	0	-100	0	230	101300000	1000	0	0	-1	1000
25929235	1299	1533	0	-100	0	230	101300000	1000	0	0	-1	1000
25941795	1282	1537	0	-100	0	230	101300000	1000	0	0	-1	1000
25954355	1298	1538	0	-100	0	230	101300000	1000	0	0	-1	1000
25966915	1303	1534	0	-100	0	230	101300000	1000	0	0	-1	1000
25979475	1306	1539	0	-100	0	230	101300000	1000	0	0	-1	1000
25992035	1284	1541	0	-100	0	230	101300000	1000	0	0	-1	1000
26004595	1300	1533	0	-100	0	230	101300000	1000	0	0	-1	1000
26017155	1311	1534	0	-100	0	230	101300000	1000	0	0	-1	1000
26029715	1285	1542	0	-100	0	230	101300000	1000	0	0	-1	1000
26042275	1280	1540	0	-100	0	230	101300000	1000	0	0	-1	1000
26054835	1318	1536	0	-100	0	230	101300000	1000	0	0	-1	1000
26067395	1292	1540	0	-100	0	230	101300000	1000	0	0	-1	1000
26079955	1277	1537	0	-100	0	230	101300000	1000	0	0	-1	1000
26092515	1295	1534	0	-100	0	230	101300000	1000	0	0	-1	1000
26105075	1292	1538	0	-100	0	230	101300000	1000	0	0	-1	1000
26117635	1294	1539	0	-100	0	230	101300000	1000	0	0	-1	1000
26130195	1314	1535	0	-100	0	230	101300000	1000	0	0	-1	1000
26142755	1309	1537	0	-100	0	230	101300000	1000	0	0	-1	1000
26155315	1269	1542	0	-100	0	230	101300000	1000	0	0	-1	1000
26167875	1289	1534	0	-100	0	230	101300000	1000	0	0	-1	1000
26180435	1312	1538	0	-100	0	230	101300000	1000	0	0	-1	1000
26192995	1290	1532	0	-100	0	230	101300000	1000	0	0	-1	1000
26205555	1294	1535	0	-100	0	230	101300000	1000	0	0	-1	1000
26218115	1303	1535	0	-100	0	230	101300000	1000	0	0	-1	1000
26230675	1301	1536	0	-100	0	230	101300000	1000	0	0	-1	1000
26243235	1296	1541	0	-100	0	230	101300000	1000	0	0	-1	1000
26255795	1281	1539	0	-100	0	230	101300000	1000	0	0	-1	1000
26268355	1289	1534	0	-100	0	230	101300000	1000	0	0	-1	1000
26280915	1284	1533	0	-100	0	230	101300000	1000	0	0	-1	1000
26293475	1299	1533	0	-100	0	230	101300000	1000	0	0	-1	1000
26306035	1291	1537	0	-100	0	230	101300000	1000	0	0	-1	1000
26318595	1282	1541	0	-100	0	230	101300000	1000	0	0	-1	1000
26331155	1297	1542	0	-100	0	230	101300000	1000	0	0	-1	1000
26343715	1297	1542	0	-100	0	230	101300000	1000	0	0	-1	1000
26356275	1312	1545	0	-100	0	230	101300000	1000	0	0	-1	1000
26368835	1299	1542	0	-100	0	230	101300000	1000	0	0	-1	1000
26381395	1280	1548	0	-100	0	230	101300000	1000	0	0	-1	1000
26393955	1294	1540	0	-100	0	230	101300000	1000	0	0	-1	1000
26406515	1287	1539	0	-100	0	230	101300000	1000	0	0	-1	1000
26419075	1285	1538	0	-100	0	230	101300000	1000	0	0	-1	1000
26431635	1294	1536	0	-100	0	230	101300000	1000	0	0	-1	1000
26444195	1313	1535	0	-100	0	230	101300000	1000	0	0	-1	1000
26456755	1312	1539	0	-100	0	230	101300000	1000	0	0	-1	1000
26469315	1308	1536	0	-100	0	230	101300000	1000	0	0	-1	1000
26481875	1287	1540	0	-100	0	230	101300000	1000	0	0	-1	1000
26494435	1275	1538	0	-100	0	230	101300000	1000	0	0	-1	1000
26506995	1289	1537	0	-100	0	230	101300000	1000	0	0	-1	1000
26519555	1282	1539	0	-100	0	230	101300000	1000	0	0	-1	1000
26532115	1287	1542	0	-100	0	230	101300000	1000	0	0	-1	1000
26544675	1290	1542	0	-100	0	230	101300000	1000	0	0	-1	1000
26557235	1305	1538	0	-100	0	230	101300000	1000	0	0	-1	1000
26569795	1314	1540	0	-100	0	230	101300000	1000	0	0	-1	1000
26582355	1284	1537	0	-100	0	230	101300000	1000	0	0	-1	1000
26594915	1303	1532	0	-100	0	230	101300000	1000	0	0	-1	1000
26607475	1301	1534	0	-100	0	230	101300000	1000	0	0	-1	1000
26620035	1294	1532	0	-100	0	230	101300000	1000	0	0	-1	1000
26632595	1289	1537	0	-100	0	230	101300000	1000	0	0	-1	1000
26645155	1297	1541	0	-100	0	230	101300000	1000	0	0	-1	1000
26657715	1272	1542	0	-100	0	230	101300000	1000	0	0	-1	1000
26670275	1316	1538	0	-100	0	230	101300000	1000	0	0	-1	1000
26682835	1309	1538	0	-100	0	230	101300000	1000	0	0	-1	1000
26695395	1296	1533	0	-100	0	230	101300000	1000	0	0	-1	1000
26707955	1286	1535	0	-100	0	230	101300000	1000	0	0	-1	1000
26720515	1301	1534	0	-100	0	230	101300000	1000	0	0	-1	1000
26733075	1308	1533	0	-100	0	230	101300000	1000	0	0	-1	1000
26745635	1294	1535	0	-100	0	230	101300000	1000	0	0	-1	1000
26758195	1312	1535	0	-100	0	230	101300000	1000	0	0	-1	1000
26770755	1295	1539	0	-100	0	230	101300000	1000	0	0	-1	1000
26783315	1289	1537	0	-100	0	230	101300000	1000	0	0	-1	1000
26795875	1287	1540	0	-100	0	230	101300000	1000	0	0	-1	1000
26808435	1274	1541	0	-100	0	230	101300000	1000	0	0	-1	1000
26820995	1278	1530	0	-100	0	230	101300000	1000	0	0	-1	1000
26833555	1296	1533	0	-100	0	230	101300000	1000	0	0	-1	1000
26846115	1294	1535	0	-100	0	230	101300000	1000	0	0	-1	1000
26858675	1285	1536	0	-100	0	230	101300000	1000	0	0	-1	1000
26871235	1299	1536	0	-100	0	230	101300000	1000	0	0	-1	1000
26883795	1287	1534	0	-100	0	230	101300000	1000	0	0	-1	1000
26896355	1294	1533	0	-100	0	230	101300000	1000	0	0	-1	1000
26908915	1318	1534	0	-100	0	230	101300000	1000	0	0	-1	1000
26921475	1294	1538	0	-100	0	230	101300000	1000	0	0	-1	1000
26934035	1299	1540	0	-100	0	230	101300000	1000	0	0	-1	1000
26946595	1301	1541	0	-100	0	230	101300000	1000	0	0	-1	1000
26959155	1309	1543	0	-100	0	230	101300000	1000	0	0	-1	1000
26971715	1304	1542	0	-100	0	230	101300000	1000	0	0	-1	1000
26984275	1279	1541	0	-100	0	230	101300000	1000	0	0	-1	1000
26996835	1293	1541	0	-100	0	230	101300000	1000	0	0	-1	1000
27009395	1304	1542	0	-100	0	230	101300000	1000	0	0	-1	1000
27021955	1278	1542	0	-100	0	230	101300000	1000	0	0	-1	1000
27034515	1277	1541	0	-100	0	230	101300000	1000	0	0	-1	1000
27047075	1300	1543	0	-100	0	230	101300000	1000	0	0	-1	1000
