timestamp	voltage	current	windSpeed	pitchAngle	rpm	temperature	ambientPressure	humidity	accelerationX	accelerationY	accelerationZ	currentSink
7039070	2008	0	0	-100	0	230	101300000	1000	0	0	-1	0
7046523	2007	0	0	-100	0	230	101300000	1000	0	0	-1	0
7059083	2005	0	0	-100	0	230	101300000	1000	0	0	-1	0
7071643	2004	0	0	-100	0	230	101300000	1000	0	0	-1	0
7084203	2001	0	0	-100	0	230	101300000	1000	0	0	-1	0
7096763	1999	0	0	-100	0	230	101300000	1000	0	0	-1	0
7109323	2007	4	0	-100	0	230	101300000	1000	0	0	-1	0
7121883	1997	3	0	-100	0	230	101300000	1000	0	0	-1	0
7134443	1999	0	0	-100	0	230	101300000	1000	0	0	-1	0
7147004	2002	3	0	-100	0	230	101300000	1000	0	0	-1	0
7159563	2005	0	0	-100	0	230	101300000	1000	0	0	-1	0
7172123	2012	0	0	-100	0	230	101300000	1000	0	0	-1	0
7184683	2004	0	0	-100	0	230	101300000	1000	0	0	-1	0
7197243	1999	0	0	-100	0	230	101300000	1000	0	0	-1	0
7209803	2004	2	0	-100	0	230	101300000	1000	0	0	-1	0
7222363	2000	4	0	-100	0	230	101300000	1000	0	0	-1	0
7234923	2002	0	0	-100	0	230	101300000	1000	0	0	-1	0
7247483	2003	0	0	-100	0	230	101300000	1000	0	0	-1	0
7260043	2002	0	0	-100	0	230	101300000	1000	0	0	-1	0
7272603	2001	3	0	-100	0	230	101300000	1000	0	0	-1	0
7285163	1999	3	0	-100	0	230	101300000	1000	0	0	-1	0
7297723	1996	1	0	-100	0	230	101300000	1000	0	0	-1	0
7310283	2004	0	0	-100	0	230	101300000	1000	0	0	-1	0
7322843	2005	0	0	-100	0	230	101300000	1000	0	0	-1	0
7335403	2005	0	0	-100	0	230	101300000	1000	0	0	-1	0
7347963	2007	0	0	-100	0	230	101300000	1000	0	0	-1	0
7691115	19	151	0	-100	0	230	101300000	1000	0	0	-1	1000
7703675	12	150	0	-100	0	230	101300000	1000	0	0	-1	1000
7716235	7	154	0	-100	0	230	101300000	1000	0	0	-1	1000
7728795	9	147	0	-100	0	230	101300000	1000	0	0	-1	1000
7741355	12	149	0	-100	0	230	101300000	1000	0	0	-1	1000
7753915	7	151	0	-100	0	230	101300000	1000	0	0	-1	1000
7766475	9	153	0	-100	0	230	101300000	1000	0	0	-1	1000
7779035	7	151	0	-100	0	230	101300000	1000	0	0	-1	1000
7791595	12	151	0	-100	0	230	101300000	1000	0	0	-1	1000
7804155	9	154	0	-100	0	230	101300000	1000	0	0	-1	1000
7816715	12	150	0	-100	0	230	101300000	1000	0	0	-1	1000
7829275	12	147	0	-100	0	230	101300000	1000	0	0	-1	1000
7841835	9	154	0	-100	0	230	101300000	1000	0	0	-1	1000
7854395	14	150	0	-100	0	230	101300000	1000	0	0	-1	1000
7866955	12	149	0	-100	0	230	101300000	1000	0	0	-1	1000
7879515	7	158	0	-100	0	230	101300000	1000	0	0	-1	1000
7892075	7	152	0	-100	0	230	101300000	1000	0	0	-1	1000
7904635	12	149	0	-100	0	230	101300000	1000	0	0	-1	1000
7917195	9	155	0	-100	0	230	101300000	1000	0	0	-1	1000
7929755	14	150	0	-100	0	230	101300000	1000	0	0	-1	1000
7942315	16	151	0	-100	0	230	101300000	1000	0	0	-1	1000
7954875	7	157	0	-100	0	230	101300000	1000	0	0	-1	1000
7967435	9	146	0	-100	0	230	101300000	1000	0	0	-1	1000
7979995	12	153	0	-100	0	230	101300000	1000	0	0	-1	1000
7992555	4	157	0	-100	0	230	101300000	1000	0	0	-1	1000
8005115	12	158	0	-100	0	230	101300000	1000	0	0	-1	1000
8017675	7	151	0	-100	0	230	101300000	1000	0	0	-1	1000
8030235	12	146	0	-100	0	230	101300000	1000	0	0	-1	1000
8042795	12	148	0	-100	0	230	101300000	1000	0	0	-1	1000
8055355	9	157	0	-100	0	230	101300000	1000	0	0	-1	1000
8067915	7	156	0	-100	0	230	101300000	1000	0	0	-1	1000
8080475	7	153	0	-100	0	230	101300000	1000	0	0	-1	1000
8093035	14	150	0	-100	0	230	101300000	1000	0	0	-1	1000
8105595	12	151	0	-100	0	230	101300000	1000	0	0	-1	1000
8118155	9	157	0	-100	0	230	101300000	1000	0	0	-1	1000
8130715	4	152	0	-100	0	230	101300000	1000	0	0	-1	1000
8143275	9	148	0	-100	0	230	101300000	1000	0	0	-1	1000
8155835	12	151	0	-100	0	230	101300000	1000	0	0	-1	1000
8168395	9	158	0	-100	0	230	101300000	1000	0	0	-1	1000
8180955	7	156	0	-100	0	230	101300000	1000	0	0	-1	1000
8193515	14	151	0	-100	0	230	101300000	1000	0	0	-1	1000
8206075	12	149	0	-100	0	230	101300000	1000	0	0	-1	1000
8218635	9	157	0	-100	0	230	101300000	1000	0	0	-1	1000
8231195	4	150	0	-100	0	230	101300000	1000	0	0	-1	1000
8243755	14	146	0	-100	0	230	101300000	1000	0	0	-1	1000
8256315	14	151	0	-100	0	230	101300000	1000	0	0	-1	1000
8268875	9	155	0	-100	0	230	101300000	1000	0	0	-1	1000
8281435	4	153	0	-100	0	230	101300000	1000	0	0	-1	1000
8293995	7	155	0	-100	0	230	101300000	1000	0	0	-1	1000
8306555	9	147	0	-100	0	230	101300000	1000	0	0	-1	1000
8319115	16	151	0	-100	0	230	101300000	1000	0	0	-1	1000
8331675	14	151	0	-100	0	230	101300000	1000	0	0	-1	1000
8344235	12	150	0	-100	0	230	101300000	1000	0	0	-1	1000
8356795	12	150	0	-100	0	230	101300000	1000	0	0	-1	1000
8369355	7	151	0	-100	0	230	101300000	1000	0	0	-1	1000
8381915	9	156	0	-100	0	230	101300000	1000	0	0	-1	1000
8394475	9	154	0	-100	0	230	101300000	1000	0	0	-1	1000
8407035	7	151	0	-100	0	230	101300000	1000	0	0	-1	1000
8419595	14	149	0	-100	0	230	101300000	1000	0	0	-1	1000
8432155	12	150	0	-100	0	230	101300000	1000	0	0	-1	1000
8444715	9	152	0	-100	0	230	101300000	1000	0	0	-1	1000
8457275	7	153	0	-100	0	230	101300000	1000	0	0	-1	1000
8469835	7	154	0	-100	0	230	101300000	1000	0	0	-1	1000
8482395	9	155	0	-100	0	230	101300000	1000	0	0	-1	1000
8494955	7	156	0	-100	0	230	101300000	1000	0	0	-1	1000
8507515	4	151	0	-100	0	230	101300000	1000	0	0	-1	1000
8520075	7	153	0	-100	0	230	101300000	1000	0	0	-1	1000
8532635	9	150	0	-100	0	230	101300000	1000	0	0	-1	1000
8545195	14	147	0	-100	0	230	101300000	1000	0	0	-1	1000
8557755	12	149	0	-100	0	230	101300000	1000	0	0	-1	1000
8570315	16	151	0	-100	0	230	101300000	1000	0	0	-1	1000
8582875	7	152	0	-100	0	230	101300000	1000	0	0	-1	1000
8595435	9	155	0	-100	0	230	101300000	1000	0	0	-1	1000
8607995	4	157	0	-100	0	230	101300000	1000	0	0	-1	1000
8620555	9	150	0	-100	0	230	101300000	1000	0	0	-1	1000
8633115	19	151	0	-100	0	230	101300000	1000	0	0	-1	1000
8645675	14	150	0	-100	0	230	101300000	1000	0	0	-1	1000
8658235	9	152	0	-100	0	230	101300000	1000	0	0	-1	1000
8670795	7	152	0	-100	0	230	101300000	1000	0	0	-1	1000
8683355	9	155	0	-100	0	230	101300000	1000	0	0	-1	1000
8695915	7	156	0	-100	0	230	101300000	1000	0	0	-1	1000
8708475	4	151	0	-100	0	230	101300000	1000	0	0	-1	1000
8721035	4	149	0	-100	0	230	101300000	1000	0	0	-1	1000
8733595	7	152	0	-100	0	230	101300000	1000	0	0	-1	1000
8746155	9	147	0	-100	0	230	101300000	1000	0	0	-1	1000
8758715	16	151	0	-100	0	230	101300000	1000	0	0	-1	1000
8771275	14	147	0	-100	0	230	101300000	1000	0	0	-1	1000
8783835	14	149	0	-100	0	230	101300000	1000	0	0	-1	1000
8796395	14	148	0	-100	0	230	101300000	1000	0	0	-1	1000
8808955	12	148	0	-100	0	230	101300000	1000	0	0	-1	1000
8821515	9	154	0	-100	0	230	101300000	1000	0	0	-1	1000
8834075	9	156	0	-100	0	230	101300000	1000	0	0	-1	1000
8846635	7	156	0	-100	0	230	101300000	1000	0	0	-1	1000
8859195	7	152	0	-100	0	230	101300000	1000	0	0	-1	1000
8871755	12	148	0	-100	0	230	101300000	1000	0	0	-1	1000
8884315	19	151	0	-100	0	230	101300000	1000	0	0	-1	1000
8896875	14	150	0	-100	0	230	101300000	1000	0	0	-1	1000
8909435	9	157	0	-100	0	230	101300000	1000	0	0	-1	1000
8921995	9	154	0	-100	0	230	101300000	1000	0	0	-1	1000
8934555	4	151	0	-100	0	230	101300000	1000	0	0	-1	1000
8947115	19	152	0	-100	0	230	101300000	1000	0	0	-1	1000
8959675	9	154	0	-100	0	230	101300000	1000	0	0	-1	1000
8972235	7	157	0	-100	0	230	101300000	1000	0	0	-1	1000
8984795	7	153	0	-100	0	230	101300000	1000	0	0	-1	1000
8997355	12	151	0	-100	0	230	101300000	1000	0	0	-1	1000
9009915	9	155	0	-100	0	230	101300000	1000	0	0	-1	1000
9022475	9	147	0	-100	0	230	101300000	1000	0	0	-1	1000
9035035	12	148	0	-100	0	230	101300000	1000	0	0	-1	1000
9047595	7	153	0	-100	0	230	101300000	1000	0	0	-1	1000
9060155	4	150	0	-100	0	230	101300000	1000	0	0	-1	1000
9072715	12	148	0	-100	0	230	101300000	1000	0	0	-1	1000
9085275	7	148	0	-100	0	230	101300000	1000	0	0	-1	1000
9097835	7	157	0	-100	0	230	101300000	1000	0	0	-1	1000
9110395	14	150	0	-100	0	230	101300000	1000	0	0	-1	1000
9122955	9	153	0	-100	0	230	101300000	1000	0	0	-1	1000
9135515	4	153	0	-100	0	230	101300000	1000	0	0	-1	1000
9148075	16	150	0	-100	0	230	101300000	1000	0	0	-1	1000
9160635	9	153	0	-100	0	230	101300000	1000	0	0	-1	1000
9173195	9	154	0	-100	0	230	101300000	1000	0	0	-1	1000
9185755	7	153	0	-100	0	230	101300000	1000	0	0	-1	1000
9198315	19	155	0	-100	0	230	101300000	1000	0	0	-1	1000
9210875	9	156	0	-100	0	230	101300000	1000	0	0	-1	1000
9223435	7	152	0	-100	0	230	101300000	1000	0	0	-1	1000
9235995	14	154	0	-100	0	230	101300000	1000	0	0	-1	1000
9248555	9	153	0	-100	0	230	101300000	1000	0	0	-1	1000
9261115	12	156	0	-100	0	230	101300000	1000	0	0	-1	1000
9273675	4	149	0	-100	0	230	101300000	1000	0	0	-1	1000
9286235	12	147	0	-100	0	230	101300000	1000	0	0	-1	1000
9298795	9	153	0	-100	0	230	101300000	1000	0	0	-1	1000
9311355	7	157	0	-100	0	230	101300000	1000	0	0	-1	1000
9323915	7	151	0	-100	0	230	101300000	1000	0	0	-1	1000
9336475	16	149	0	-100	0	230	101300000	1000	0	0	-1	1000
9349035	9	152	0	-100	0	230	101300000	1000	0	0	-1	1000
9361595	7	156	0	-100	0	230	101300000	1000	0	0	-1	1000
9374155	7	152	0	-100	0	230	101300000	1000	0	0	-1	1000
9386715	12	148	0	-100	0	230	101300000	1000	0	0	-1	1000
9399275	4	152	0	-100	0	230	101300000	1000	0	0	-1	1000
9411835	14	150	0	-100	0	230	101300000	1000	0	0	-1	1000
9424395	9	154	0	-100	0	230	101300000	1000	0	0	-1	1000
9436955	7	157	0	-100	0	230	101300000	1000	0	0	-1	1000
9449515	9	148	0	-100	0	230	101300000	1000	0	0	-1	1000
9462075	12	148	0	-100	0	230	101300000	1000	0	0	-1	1000
9474635	9	156	0	-100	0	230	101300000	1000	0	0	-1	1000
9487195	4	150	0	-100	0	230	101300000	1000	0	0	-1	1000
9499755	14	148	0	-100	0	230	101300000	1000	0	0	-1	1000
9512315	14	155	0	-100	0	230	101300000	1000	0	0	-1	1000
9524875	7	153	0	-100	0	230	101300000	1000	0	0	-1	1000
9537435	14	146	0	-100	0	230	101300000	1000	0	0	-1	1000
9549995	7	147	0	-100	0	230	101300000	1000	0	0	-1	1000
9562555	7	157	0	-100	0	230	101300000	1000	0	0	-1	1000
9575115	19	151	0	-100	0	230	101300000	1000	0	0	-1	1000
9587675	7	154	0	-100	0	230	101300000	1000	0	0	-1	1000
9600235	9	149	0	-100	0	230	101300000	1000	0	0	-1	1000
9612795	14	148	0	-100	0	230	101300000	1000	0	0	-1	1000
9625355	9	154	0	-100	0	230	101300000	1000	0	0	-1	1000
9637915	7	155	0	-100	0	230	101300000	1000	0	0	-1	1000
9650475	9	151	0	-100	0	230	101300000	1000	0	0	-1	1000
9663035	9	153	0	-100	0	230	101300000	1000	0	0	-1	1000
9675595	9	155	0	-100	0	230	101300000	1000	0	0	-1	1000
9688155	7	152	0	-100	0	230	101300000	1000	0	0	-1	1000
9700715	12	148	0	-100	0	230	101300000	1000	0	0	-1	1000
9713275	7	157	0	-100	0	230	101300000	1000	0	0	-1	1000
9725835	12	150	0	-100	0	230	101300000	1000	0	0	-1	1000
9738395	12	148	0	-100	0	230	101300000	1000	0	0	-1	1000
9750955	9	151	0	-100	0	230	101300000	1000	0	0	-1	1000
9763515	12	146	0	-100	0	230	101300000	1000	0	0	-1	1000
9776075	9	153	0	-100	0	230	101300000	1000	0	0	-1	1000
9788635	9	155	0	-100	0	230	101300000	1000	0	0	-1	1000
9801195	7	155	0	-100	0	230	101300000	1000	0	0	-1	1000
9813755	7	153	0	-100	0	230	101300000	1000	0	0	-1	1000
9826315	19	150	0	-100	0	230	101300000	1000	0	0	-1	1000
9838875	12	149	0	-100	0	230	101300000	1000	0	0	-1	1000
9851435	7	150	0	-100	0	230	101300000	1000	0	0	-1	1000
9863995	9	154	0	-100	0	230	101300000	1000	0	0	-1	1000
9876555	7	155	0	-100	0	230	101300000	1000	0	0	-1	1000
9889115	14	153	0	-100	0	230	101300000	1000	0	0	-1	1000
9901675	14	148	0	-100	0	230	101300000	1000	0	0	-1	1000
9914235	12	150	0	-100	0	230	101300000	1000	0	0	-1	1000
9926795	9	153	0	-100	0	230	101300000	1000	0	0	-1	1000
9939355	7	153	0	-100	0	230	101300000	1000	0	0	-1	1000
9951915	7	159	0	-100	0	230	101300000	1000	0	0	-1	1000
9964475	4	151	0	-100	0	230	101300000	1000	0	0	-1	1000
9977035	12	149	0	-100	0	230	101300000	1000	0	0	-1	1000
9989595	12	150	0	-100	0	230	101300000	1000	0	0	-1	1000
10002155	7	151	0	-100	0	230	101300000	1000	0	0	-1	1000
10014715	7	155	0	-100	0	230	101300000	1000	0	0	-1	1000
10027275	4	149	0	-100	0	230	101300000	1000	0	0	-1	1000
10039835	7	152	0	-100	0	230	101300000	1000	0	0	-1	1000
10052395	9	149	0	-100	0	230	101300000	1000	0	0	-1	1000
10064955	14	146	0	-100	0	230	101300000	1000	0	0	-1	1000
10077515	12	148	0	-100	0	230	101300000	1000	0	0	-1	1000
10090075	7	150	0	-100	0	230	101300000	1000	0	0	-1	1000
10102635	7	154	0	-100	0	230	101300000	1000	0	0	-1	1000
10115195	7	158	0	-100	0	230	101300000	1000	0	0	-1	1000
10127755	4	150	0	-100	0	230	101300000	1000	0	0	-1	1000
10140315	12	155	0	-100	0	230	101300000	1000	0	0	-1	1000
10152875	12	147	0	-100	0	230	101300000	1000	0	0	-1	1000
10165435	9	153	0	-100	0	230	101300000	1000	0	0	-1	1000
10177995	4	150	0	-100	0	230	101300000	1000	0	0	-1	1000
10190555	7	156	0	-100	0	230	101300000	1000	0	0	-1	1000
10203115	12	156	0	-100	0	230	101300000	1000	0	0	-1	1000
10215675	9	148	0	-100	0	230	101300000	1000	0	0	-1	1000
10228235	14	149	0	-100	0	230	101300000	1000	0	0	-1	1000
10240795	9	154	0	-100	0	230	101300000	1000	0	0	-1	1000
10253355	9	155	0	-100	0	230	101300000	1000	0	0	-1	1000
10265915	4	151	0	-100	0	230	101300000	1000	0	0	-1	1000
10278475	9	151	0	-100	0	230	101300000	1000	0	0	-1	1000
10291035	12	151	0	-100	0	230	101300000	1000	0	0	-1	1000
10303595	14	150	0	-100	0	230	101300000	1000	0	0	-1	1000
10316155	9	152	0	-100	0	230	101300000	1000	0	0	-1	1000
10328715	4	157	0	-100	0	230	101300000	1000	0	0	-1	1000
10341275	7	153	0	-100	0	230	101300000	1000	0	0	-1	1000
10353835	4	153	0	-100	0	230	101300000	1000	0	0	-1	1000
10366395	7	155	0	-100	0	230	101300000	1000	0	0	-1	1000
10378955	7	150	0	-100	0	230	101300000	1000	0	0	-1	1000
10391515	14	150	0	-100	0	230	101300000	1000	0	0	-1	1000
10404075	14	148	0	-100	0	230	101300000	1000	0	0	-1	1000
10416635	12	150	0	-100	0	230	101300000	1000	0	0	-1	1000
10429195	12	148	0	-100	0	230	101300000	1000	0	0	-1	1000
10441755	7	149	0	-100	0	230	101300000	1000	0	0	-1	1000
10454315	9	159	0	-100	0	230	101300000	1000	0	0	-1	1000
10466875	7	158	0	-100	0	230	101300000	1000	0	0	-1	1000
10479435	4	149	0	-100	0	230	101300000	1000	0	0	-1	1000
10491995	4	156	0	-100	0	230	101300000	1000	0	0	-1	1000
10504555	12	150	0	-100	0	230	101300000	1000	0	0	-1	1000
10517115	16	148	0	-100	0	230	101300000	1000	0	0	-1	1000
10529675	14	149	0	-100	0	230	101300000	1000	0	0	-1	1000
10542235	14	146	0	-100	0	230	101300000	1000	0	0	-1	1000
10554795	12	146	0	-100	0	230	101300000	1000	0	0	-1	1000
10567355	14	150	0	-100	0	230	101300000	1000	0	0	-1	1000
10579915	12	149	0	-100	0	230	101300000	1000	0	0	-1	1000
10592475	9	155	0	-100	0	230	101300000	1000	0	0	-1	1000
10605035	7	153	0	-100	0	230	101300000	1000	0	0	-1	1000
10617595	7	150	0	-100	0	230	101300000	1000	0	0	-1	1000
10630155	9	156	0	-100	0	230	101300000	1000	0	0	-1	1000
10642715	7	154	0	-100	0	230	101300000	1000	0	0	-1	1000
10655275	9	155	0	-100	0	230	101300000	1000	0	0	-1	1000
10667835	7	158	0	-100	0	230	101300000	1000	0	0	-1	1000
10680395	7	155	0	-100	0	230	101300000	1000	0	0	-1	1000
10692955	14	150	0	-100	0	230	101300000	1000	0	0	-1	1000
10705515	12	149	0	-100	0	230	101300000	1000	0	0	-1	1000
10718075	9	152	0	-100	0	230	101300000	1000	0	0	-1	1000
10730635	7	152	0	-100	0	230	101300000	1000	0	0	-1	1000
10743195	7	153	0	-100	0	230	101300000	1000	0	0	-1	1000
10755755	7	155	0	-100	0	230	101300000	1000	0	0	-1	1000
10768315	14	157	0	-100	0	230	101300000	1000	0	0	-1	1000
10780875	7	152	0	-100	0	230	101300000	1000	0	0	-1	1000
10793435	12	149	0	-100	0	230	101300000	1000	0	0	-1	1000
10805995	14	155	0	-100	0	230	101300000	1000	0	0	-1	1000
10818555	12	149	0	-100	0	230	101300000	1000	0	0	-1	1000
10831115	14	151	0	-100	0	230	101300000	1000	0	0	-1	1000
10843675	4	157	0	-100	0	230	101300000	1000	0	0	-1	1000
10856235	7	156	0	-100	0	230	101300000	1000	0	0	-1	1000
10868795	4	153	0	-100	0	230	101300000	1000	0	0	-1	1000
10881355	7	156	0	-100	0	230	101300000	1000	0	0	-1	1000
10893915	7	157	0	-100	0	230	101300000	1000	0	0	-1	1000
10906475	7	157	0	-100	0	230	101300000	1000	0	0	-1	1000
10919035	7	156	0	-100	0	230	101300000	1000	0	0	-1	1000
10931595	4	151	0	-100	0	230	101300000	1000	0	0	-1	1000
10944155	4	150	0	-100	0	230	101300000	1000	0	0	-1	1000
10956715	4	151	0	-100	0	230	101300000	1000	0	0	-1	1000
10969275	4	151	0	-100	0	230	101300000	1000	0	0	-1	1000
10981835	7	156	0	-100	0	230	101300000	1000	0	0	-1	1000
10994395	7	156	0	-100	0	230	101300000	1000	0	0	-1	1000
11006955	4	152	0	-100	0	230	101300000	1000	0	0	-1	1000
11019515	7	155	0	-100	0	230	101300000	1000	0	0	-1	1000
11032075	7	155	0	-100	0	230	101300000	1000	0	0	-1	1000
11044635	9	149	0	-100	0	230	101300000	1000	0	0	-1	1000
11057195	9	147	0	-100	0	230	101300000	1000	0	0	-1	1000
11069755	9	146	0	-100	0	230	101300000	1000	0	0	-1	1000
11082315	14	151	0	-100	0	230	101300000	1000	0	0	-1	1000
11094875	12	149	0	-100	0	230	101300000	1000	0	0	-1	1000
11107435	12	150	0	-100	0	230	101300000	1000	0	0	-1	1000
11119995	12	154	0	-100	0	230	101300000	1000	0	0	-1	1000
11132555	12	150	0	-100	0	230	101300000	1000	0	0	-1	1000
11145115	14	151	0	-100	0	230	101300000	1000	0	0	-1	1000
11157675	9	154	0	-100	0	230	101300000	1000	0	0	-1	1000
11170235	12	150	0	-100	0	230	101300000	1000	0	0	-1	1000
11182795	7	147	0	-100	0	230	101300000	1000	0	0	-1	1000
11195355	7	151	0	-100	0	230	101300000	1000	0	0	-1	1000
11207915	7	153	0	-100	0	230	101300000	1000	0	0	-1	1000
11220475	7	156	0	-100	0	230	101300000	1000	0	0	-1	1000
11233035	7	152	0	-100	0	230	101300000	1000	0	0	-1	1000
11245595	12	151	0	-100	0	230	101300000	1000	0	0	-1	1000
11258155	14	150	0	-100	0	230	101300000	1000	0	0	-1	1000
11270715	9	152	0	-100	0	230	101300000	1000	0	0	-1	1000
11283275	4	157	0	-100	0	230	101300000	1000	0	0	-1	1000
11295835	9	156	0	-100	0	230	101300000	1000	0	0	-1	1000
11308395	7	153	0	-100	0	230	101300000	1000	0	0	-1	1000
11320955	7	153	0	-100	0	230	101300000	1000	0	0	-1	1000
11333515	7	154	0	-100	0	230	101300000	1000	0	0	-1	1000
11346075	7	154	0	-100	0	230	101300000	1000	0	0	-1	1000
11358635	9	155	0	-100	0	230	101300000	1000	0	0	-1	1000
11371195	9	155	0	-100	0	230	101300000	1000	0	0	-1	1000
11383755	7	154	0	-100	0	230	101300000	1000	0	0	-1	1000
11396315	12	155	0	-100	0	230	101300000	1000	0	0	-1	1000
11408875	4	155	0	-100	0	230	101300000	1000	0	0	-1	1000
11421435	7	154	0	-100	0	230	101300000	1000	0	0	-1	1000
11433995	9	153	0	-100	0	230	101300000	1000	0	0	-1	1000
11446555	7	154	0	-100	0	230	101300000	1000	0	0	-1	1000
11459115	12	153	0	-100	0	230	101300000	1000	0	0	-1	1000
11471675	7	151	0	-100	0	230	101300000	1000	0	0	-1	1000
11484235	9	147	0	-100	0	230	101300000	1000	0	0	-1	1000
11496795	12	149	0	-100	0	230	101300000	1000	0	0	-1	1000
11509355	14	150	0	-100	0	230	101300000	1000	0	0	-1	1000
11521915	12	147	0	-100	0	230	101300000	1000	0	0	-1	1000
11534475	14	147	0	-100	0	230	101300000	1000	0	0	-1	1000
11547035	12	149	0	-100	0	230	101300000	1000	0	0	-1	1000
11559595	9	151	0	-100	0	230	101300000	1000	0	0	-1	1000
11572155	12	151	0	-100	0	230	101300000	1000	0	0	-1	1000
11584715	12	146	0	-100	0	230	101300000	1000	0	0	-1	1000
11597275	9	147	0	-100	0	230	101300000	1000	0	0	-1	1000
11609835	4	149	0	-100	0	230	101300000	1000	0	0	-1	1000
11622395	7	152	0	-100	0	230	101300000	1000	0	0	-1	1000
11634955	12	150	0	-100	0	230	101300000	1000	0	0	-1	1000
11647515	14	151	0	-100	0	230	101300000	1000	0	0	-1	1000
11660075	14	149	0	-100	0	230	101300000	1000	0	0	-1	1000
11672635	12	149	0	-100	0	230	101300000	1000	0	0	-1	1000
11685195	12	150	0	-100	0	230	101300000	1000	0	0	-1	1000
11697755	7	150	0	-100	0	230	101300000	1000	0	0	-1	1000
11710315	12	155	0	-100	0	230	101300000	1000	0	0	-1	1000
11722875	9	153	0	-100	0	230	101300000	1000	0	0	-1	1000
11735435	4	151	0	-100	0	230	101300000	1000	0	0	-1	1000
11747995	4	157	0	-100	0	230	101300000	1000	0	0	-1	1000
11760555	7	154	0	-100	0	230	101300000	1000	0	0	-1	1000
11773115	12	155	0	-100	0	230	101300000	1000	0	0	-1	1000
11785675	9	149	0	-100	0	230	101300000	1000	0	0	-1	1000
11798235	14	151	0	-100	0	230	101300000	1000	0	0	-1	1000
11810795	12	146	0	-100	0	230	101300000	1000	0	0	-1	1000
11823355	12	150	0	-100	0	230	101300000	1000	0	0	-1	1000
11835915	14	151	0	-100	0	230	101300000	1000	0	0	-1	1000
11848475	14	150	0	-100	0	230	101300000	1000	0	0	-1	1000
11861035	12	150	0	-100	0	230	101300000	1000	0	0	-1	1000
11873595	9	153	0	-100	0	230	101300000	1000	0	0	-1	1000
11886155	7	153	0	-100	0	230	101300000	1000	0	0	-1	1000
11898715	7	157	0	-100	0	230	101300000	1000	0	0	-1	1000
11911275	4	149	0	-100	0	230	101300000	1000	0	0	-1	1000
11923835	12	150	0	-100	0	230	101300000	1000	0	0	-1	1000
11936395	14	151	0	-100	0	230	101300000	1000	0	0	-1	1000
11948955	12	147	0	-100	0	230	101300000	1000	0	0	-1	1000
11961515	12	149	0	-100	0	230	101300000	1000	0	0	-1	1000
11974075	12	150	0	-100	0	230	101300000	1000	0	0	-1	1000
11986635	7	148	0	-100	0	230	101300000	1000	0	0	-1	1000
11999195	7	151	0	-100	0	230	101300000	1000	0	0	-1	1000
12011755	9	154	0	-100	0	230	101300000	1000	0	0	-1	1000
12024315	12	158	0	-100	0	230	101300000	1000	0	0	-1	1000
12036875	7	151	0	-100	0	230	101300000	1000	0	0	-1	1000
12049435	14	150	0	-100	0	230	101300000	1000	0	0	-1	1000
12061995	12	154	0	-100	0	230	101300000	1000	0	0	-1	1000
12074555	12	149	0	-100	0	230	101300000	1000	0	0	-1	1000
12087115	14	151	0	-100	0	230	101300000	1000	0	0	-1	1000
12099675	4	157	0	-100	0	230	101300000	1000	0	0	-1	1000
12112235	7	152	0	-100	0	230	101300000	1000	0	0	-1	1000
12124795	7	158	0	-100	0	230	101300000	1000	0	0	-1	1000
12137355	4	152	0	-100	0	230	101300000	1000	0	0	-1	1000
12149915	4	147	0	-100	0	230	101300000	1000	0	0	-1	1000
12162475	9	150	0	-100	0	230	101300000	1000	0	0	-1	1000
12175035	12	150	0	-100	0	230	101300000	1000	0	0	-1	1000
12187595	12	148	0	-100	0	230	101300000	1000	0	0	-1	1000
12200155	12	150	0	-100	0	230	101300000	1000	0	0	-1	1000
12212715	9	154	0	-100	0	230	101300000	1000	0	0	-1	1000
12225275	9	152	0	-100	0	230	101300000	1000	0	0	-1	1000
12237835	9	154	0	-100	0	230	101300000	1000	0	0	-1	1000
12250395	12	148	0	-100	0	230	101300000	1000	0	0	-1	1000
12262955	12	149	0	-100	0	230	101300000	1000	0	0	-1	1000
12275515	7	152	0	-100	0	230	101300000	1000	0	0	-1	1000
12288075	7	155	0	-100	0	230	101300000	1000	0	0	-1	1000
12300635	9	148	0	-100	0	230	101300000	1000	0	0	-1	1000
12313195	14	148	0	-100	0	230	101300000	1000	0	0	-1	1000
12325755	12	149	0	-100	0	230	101300000	1000	0	0	-1	1000
12338315	12	155	0	-100	0	230	101300000	1000	0	0	-1	1000
12350875	7	152	0	-100	0	230	101300000	1000	0	0	-1	1000
12363435	14	147	0	-100	0	230	101300000	1000	0	0	-1	1000
12375995	9	151	0	-100	0	230	101300000	1000	0	0	-1	1000
12388555	9	155	0	-100	0	230	101300000	1000	0	0	-1	1000
12401115	9	151	0	-100	0	230	101300000	1000	0	0	-1	1000
12413675	14	151	0	-100	0	230	101300000	1000	0	0	-1	1000
12426235	12	148	0	-100	0	230	101300000	1000	0	0	-1	1000
12438795	7	155	0	-100	0	230	101300000	1000	0	0	-1	1000
12451355	9	147	0	-100	0	230	101300000	1000	0	0	-1	1000
12463915	14	149	0	-100	0	230	101300000	1000	0	0	-1	1000
12476475	7	149	0	-100	0	230	101300000	1000	0	0	-1	1000
12489035	4	152	0	-100	0	230	101300000	1000	0	0	-1	1000
12501595	7	153	0	-100	0	230	101300000	1000	0	0	-1	1000
12514155	14	147	0	-100	0	230	101300000	1000	0	0	-1	1000
12526715	12	150	0	-100	0	230	101300000	1000	0	0	-1	1000
12539275	7	153	0	-100	0	230	101300000	1000	0	0	-1	1000
12551835	4	148	0	-100	0	230	101300000	1000	0	0	-1	1000
12564395	14	148	0	-100	0	230	101300000	1000	0	0	-1	1000
12576955	9	152	0	-100	0	230	101300000	1000	0	0	-1	1000
12589515	7	152	0	-100	0	230	101300000	1000	0	0	-1	1000
12602075	9	159	0	-100	0	230	101300000	1000	0	0	-1	1000
12614635	9	155	0	-100	0	230	101300000	1000	0	0	-1	1000
12627195	4	149	0	-100	0	230	101300000	1000	0	0	-1	1000
12639755	12	151	0	-100	0	230	101300000	1000	0	0	-1	1000
12652315	16	151	0	-100	0	230	101300000	1000	0	0	-1	1000
12664875	7	149	0	-100	0	230	101300000	1000	0	0	-1	1000
12677435	7	153	0	-100	0	230	101300000	1000	0	0	-1	1000
12689995	4	154	0	-100	0	230	101300000	1000	0	0	-1	1000
12702555	7	155	0	-100	0	230	101300000	1000	0	0	-1	1000
12715115	12	155	0	-100	0	230	101300000	1000	0	0	-1	1000
12727675	14	147	0	-100	0	230	101300000	1000	0	0	-1	1000
12740235	14	148	0	-100	0	230	101300000	1000	0	0	-1	1000
12752795	12	150	0	-100	0	230	101300000	1000	0	0	-1	1000
12765355	9	153	0	-100	0	230	101300000	1000	0	0	-1	1000
12777915	7	153	0	-100	0	230	101300000	1000	0	0	-1	1000
12790475	9	156	0	-100	0	230	101300000	1000	0	0	-1	1000
12803035	4	154	0	-100	0	230	101300000	1000	0	0	-1	1000
12815595	4	150	0	-100	0	230	101300000	1000	0	0	-1	1000
12828155	7	154	0	-100	0	230	101300000	1000	0	0	-1	1000
12840715	7	151	0	-100	0	230	101300000	1000	0	0	-1	1000
12853275	12	151	0	-100	0	230	101300000	1000	0	0	-1	1000
12865835	14	150	0	-100	0	230	101300000	1000	0	0	-1	1000
12878395	14	146	0	-100	0	230	101300000	1000	0	0	-1	1000
12890955	12	149	0	-100	0	230	101300000	1000	0	0	-1	1000
12903515	9	153	0	-100	0	230	101300000	1000	0	0	-1	1000
12916075	4	157	0	-100	0	230	101300000	1000	0	0	-1	1000
12928635	9	155	0	-100	0	230	101300000	1000	0	0	-1	1000
12941195	7	157	0	-100	0	230	101300000	1000	0	0	-1	1000
12953755	7	155	0	-100	0	230	101300000	1000	0	0	-1	1000
12966315	12	155	0	-100	0	230	101300000	1000	0	0	-1	1000
12978875	9	149	0	-100	0	230	101300000	1000	0	0	-1	1000
12991435	14	150	0	-100	0	230	101300000	1000	0	0	-1	1000
13003995	14	155	0	-100	0	230	101300000	1000	0	0	-1	1000
13016555	12	147	0	-100	0	230	101300000	1000	0	0	-1	1000
13029115	19	152	0	-100	0	230	101300000	1000	0	0	-1	1000
13041675	12	147	0	-100	0	230	101300000	1000	0	0	-1	1000
13054235	7	154	0	-100	0	230	101300000	1000	0	0	-1	1000
13066795	4	153	0	-100	0	230	101300000	1000	0	0	-1	1000
13079355	7	153	0	-100	0	230	101300000	1000	0	0	-1	1000
13091915	9	147	0	-100	0	230	101300000	1000	0	0	-1	1000
13104475	14	151	0	-100	0	230	101300000	1000	0	0	-1	1000
13117035	12	147	0	-100	0	230	101300000	1000	0	0	-1	1000
13129595	12	150	0	-100	0	230	101300000	1000	0	0	-1	1000
13142155	9	154	0	-100	0	230	101300000	1000	0	0	-1	1000
13154715	7	153	0	-100	0	230	101300000	1000	0	0	-1	1000
13167275	9	155	0	-100	0	230	101300000	1000	0	0	-1	1000
13179835	4	150	0	-100	0	230	101300000	1000	0	0	-1	1000
13192395	7	152	0	-100	0	230	101300000	1000	0	0	-1	1000
13204955	14	148	0	-100	0	230	101300000	1000	0	0	-1	1000
13217515	14	147	0	-100	0	230	101300000	1000	0	0	-1	1000
13230075	12	149	0	-100	0	230	101300000	1000	0	0	-1	1000
13242635	12	149	0	-100	0	230	101300000	1000	0	0	-1	1000
13255195	9	155	0	-100	0	230	101300000	1000	0	0	-1	1000
13267755	7	149	0	-100	0	230	101300000	1000	0	0	-1	1000
13280315	14	155	0	-100	0	230	101300000	1000	0	0	-1	1000
13292875	7	152	0	-100	0	230	101300000	1000	0	0	-1	1000
13305435	9	155	0	-100	0	230	101300000	1000	0	0	-1	1000
13317995	7	149	0	-100	0	230	101300000	1000	0	0	-1	1000
13330555	4	149	0	-100	0	230	101300000	1000	0	0	-1	1000
13343115	12	153	0	-100	0	230	101300000	1000	0	0	-1	1000
13355675	12	151	0	-100	0	230	101300000	1000	0	0	-1	1000
13368235	12	147	0	-100	0	230	101300000	1000	0	0	-1	1000
13380795	14	151	0	-100	0	230	101300000	1000	0	0	-1	1000
13393355	12	149	0	-100	0	230	101300000	1000	0	0	-1	1000
13405915	7	151	0	-100	0	230	101300000	1000	0	0	-1	1000
13418475	7	157	0	-100	0	230	101300000	1000	0	0	-1	1000
13431035	7	154	0	-100	0	230	101300000	1000	0	0	-1	1000
13443595	14	149	0	-100	0	230	101300000	1000	0	0	-1	1000
13456155	12	148	0	-100	0	230	101300000	1000	0	0	-1	1000
13468715	4	155	0	-100	0	230	101300000	1000	0	0	-1	1000
13481275	7	155	0	-100	0	230	101300000	1000	0	0	-1	1000
13493835	7	155	0	-100	0	230	101300000	1000	0	0	-1	1000
13506395	7	152	0	-100	0	230	101300000	1000	0	0	-1	1000
13518955	7	151	0	-100	0	230	101300000	1000	0	0	-1	1000
13531515	12	151	0	-100	0	230	101300000	1000	0	0	-1	1000
13544075	14	149	0	-100	0	230	101300000	1000	0	0	-1	1000
13556635	14	147	0	-100	0	230	101300000	1000	0	0	-1	1000
13569195	14	149	0	-100	0	230	101300000	1000	0	0	-1	1000
13581755	12	149	0	-100	0	230	101300000	1000	0	0	-1	1000
13594315	19	155	0	-100	0	230	101300000	1000	0	0	-1	1000
13606875	9	155	0	-100	0	230	101300000	1000	0	0	-1	1000
13619435	9	152	0	-100	0	230	101300000	1000	0	0	-1	1000
13631995	7	147	0	-100	0	230	101300000	1000	0	0	-1	1000
13644555	7	156	0	-100	0	230	101300000	1000	0	0	-1	1000
13657115	12	155	0	-100	0	230	101300000	1000	0	0	-1	1000
13669675	4	157	0	-100	0	230	101300000	1000	0	0	-1	1000
13682235	7	154	0	-100	0	230	101300000	1000	0	0	-1	1000
13694795	7	152	0	-100	0	230	101300000	1000	0	0	-1	1000
13707355	7	152	0	-100	0	230	101300000	1000	0	0	-1	1000
13719915	7	150	0	-100	0	230	101300000	1000	0	0	-1	1000
13732475	7	155	0	-100	0	230	101300000	1000	0	0	-1	1000
13745035	9	154	0	-100	0	230	101300000	1000	0	0	-1	1000
13757595	4	150	0	-100	0	230	101300000	1000	0	0	-1	1000
13770155	12	150	0	-100	0	230	101300000	1000	0	0	-1	1000
13782715	14	147	0	-100	0	230	101300000	1000	0	0	-1	1000
13795275	14	148	0	-100	0	230	101300000	1000	0	0	-1	1000
13807835	9	153	0	-100	0	230	101300000	1000	0	0	-1	1000
13820395	7	163	0	-100	0	230	101300000	1000	0	0	-1	1000
13832955	9	156	0	-100	0	230	101300000	1000	0	0	-1	1000
13845515	7	155	0	-100	0	230	101300000	1000	0	0	-1	1000
13858075	7	151	0	-100	0	230	101300000	1000	0	0	-1	1000
13870635	12	147	0	-100	0	230	101300000	1000	0	0	-1	1000
13883195	9	152	0	-100	0	230	101300000	1000	0	0	-1	1000
13895755	9	155	0	-100	0	230	101300000	1000	0	0	-1	1000
13908315	12	157	0	-100	0	230	101300000	1000	0	0	-1	1000
13920875	7	151	0	-100	0	230	101300000	1000	0	0	-1	1000
13933435	16	151	0	-100	0	230	101300000	1000	0	0	-1	1000
13945995	14	155	0	-100	0	230	101300000	1000	0	0	-1	1000
13958555	12	149	0	-100	0	230	101300000	1000	0	0	-1	1000
13971115	14	152	0	-100	0	230	101300000	1000	0	0	-1	1000
13983675	4	157	0	-100	0	230	101300000	1000	0	0	-1	1000
13996235	7	156	0	-100	0	230	101300000	1000	0	0	-1	1000
14008795	4	150	0	-100	0	230	101300000	1000	0	0	-1	1000
14021355	7	150	0	-100	0	230	101300000	1000	0	0	-1	1000
14033915	14	150	0	-100	0	230	101300000	1000	0	0	-1	1000
14046475	12	149	0	-100	0	230	101300000	1000	0	0	-1	1000
14059035	7	153	0	-100	0	230	101300000	1000	0	0	-1	1000
14071595	7	155	0	-100	0	230	101300000	1000	0	0	-1	1000
14084155	12	148	0	-100	0	230	101300000	1000	0	0	-1	1000
14096715	14	148	0	-100	0	230	101300000	1000	0	0	-1	1000
14109275	12	149	0	-100	0	230	101300000	1000	0	0	-1	1000
14121835	7	151	0	-100	0	230	101300000	1000	0	0	-1	1000
14134395	9	155	0	-100	0	230	101300000	1000	0	0	-1	1000
14146955	4	149	0	-100	0	230	101300000	1000	0	0	-1	1000
14159515	12	150	0	-100	0	230	101300000	1000	0	0	-1	1000
14172075	14	149	0	-100	0	230	101300000	1000	0	0	-1	1000
14184635	9	153	0	-100	0	230	101300000	1000	0	0	-1	1000
14197195	7	158	0	-100	0	230	101300000	1000	0	0	-1	1000
14209755	7	155	0	-100	0	230	101300000	1000	0	0	-1	1000
14222315	9	153	0	-100	0	230	101300000	1000	0	0	-1	1000
14234875	7	150	0	-100	0	230	101300000	1000	0	0	-1	1000
14247435	14	149	0	-100	0	230	101300000	1000	0	0	-1	1000
14259995	12	154	0	-100	0	230	101300000	1000	0	0	-1	1000
14272555	9	153	0	-100	0	230	101300000	1000	0	0	-1	1000
14285115	14	154	0	-100	0	230	101300000	1000	0	0	-1	1000
14297675	4	151	0	-100	0	230	101300000	1000	0	0	-1	1000
14310235	7	150	0	-100	0	230	101300000	1000	0	0	-1	1000
14322795	12	151	0	-100	0	230	101300000	1000	0	0	-1	1000
14335355	7	155	0	-100	0	230	101300000	1000	0	0	-1	1000
14347915	9	151	0	-100	0	230	101300000	1000	0	0	-1	1000
14360475	14	150	0	-100	0	230	101300000	1000	0	0	-1	1000
14373035	12	150	0	-100	0	230	101300000	1000	0	0	-1	1000
14385595	4	156	0	-100	0	230	101300000	1000	0	0	-1	1000
14398155	4	150	0	-100	0	230	101300000	1000	0	0	-1	1000
14410715	7	151	0	-100	0	230	101300000	1000	0	0	-1	1000
14423275	12	147	0	-100	0	230	101300000	1000	0	0	-1	1000
14435835	12	150	0	-100	0	230	101300000	1000	0	0	-1	1000
14448395	9	152	0	-100	0	230	101300000	1000	0	0	-1	1000
14460955	4	156	0	-100	0	230	101300000	1000	0	0	-1	1000
14473515	7	157	0	-100	0	230	101300000	1000	0	0	-1	1000
14486075	7	156	0	-100	0	230	101300000	1000	0	0	-1	1000
14498635	7	156	0	-100	0	230	101300000	1000	0	0	-1	1000
14511195	7	152	0	-100	0	230	101300000	1000	0	0	-1	1000
14523755	14	150	0	-100	0	230	101300000	1000	0	0	-1	1000
14536315	14	151	0	-100	0	230	101300000	1000	0	0	-1	1000
14548875	7	151	0	-100	0	230	101300000	1000	0	0	-1	1000
14561435	7	153	0	-100	0	230	101300000	1000	0	0	-1	1000
14573995	4	155	0	-100	0	230	101300000	1000	0	0	-1	1000
14586555	7	153	0	-100	0	230	101300000	1000	0	0	-1	1000
14599115	12	155	0	-100	0	230	101300000	1000	0	0	-1	1000
14611675	9	147	0	-100	0	230	101300000	1000	0	0	-1	1000
14624235	12	151	0	-100	0	230	101300000	1000	0	0	-1	1000
14636795	12	150	0	-100	0	230	101300000	1000	0	0	-1	1000
14649355	14	147	0	-100	0	230	101300000	1000	0	0	-1	1000
14661915	12	150	0	-100	0	230	101300000	1000	0	0	-1	1000
14674475	12	149	0	-100	0	230	101300000	1000	0	0	-1	1000
14687035	12	150	0	-100	0	230	101300000	1000	0	0	-1	1000
14699595	12	149	0	-100	0	230	101300000	1000	0	0	-1	1000
14712155	9	153	0	-100	0	230	101300000	1000	0	0	-1	1000
14724715	7	150	0	-100	0	230	101300000	1000	0	0	-1	1000
14737275	7	148	0	-100	0	230	101300000	1000	0	0	-1	1000
14749835	4	155	0	-100	0	230	101300000	1000	0	0	-1	1000
14762395	9	155	0	-100	0	230	101300000	1000	0	0	-1	1000
14774955	7	155	0	-100	0	230	101300000	1000	0	0	-1	1000
14787515	7	150	0	-100	0	230	101300000	1000	0	0	-1	1000
14800075	12	150	0	-100	0	230	101300000	1000	0	0	-1	1000
14812635	12	146	0	-100	0	230	101300000	1000	0	0	-1	1000
14825195	12	147	0	-100	0	230	101300000	1000	0	0	-1	1000
14837755	9	154	0	-100	0	230	101300000	1000	0	0	-1	1000
14850315	14	151	0	-100	0	230	101300000	1000	0	0	-1	1000
14862875	9	154	0	-100	0	230	101300000	1000	0	0	-1	1000
14875435	7	148	0	-100	0	230	101300000	1000	0	0	-1	1000
14887995	7	146	0	-100	0	230	101300000	1000	0	0	-1	1000
14900555	7	152	0	-100	0	230	101300000	1000	0	0	-1	1000
14913115	12	157	0	-100	0	230	101300000	1000	0	0	-1	1000
14925675	4	149	0	-100	0	230	101300000	1000	0	0	-1	1000
14938235	12	149	0	-100	0	230	101300000	1000	0	0	-1	1000
14950795	14	146	0	-100	0	230	101300000	1000	0	0	-1	1000
14963355	12	150	0	-100	0	230	101300000	1000	0	0	-1	1000
14975915	12	149	0	-100	0	230	101300000	1000	0	0	-1	1000
14988475	12	147	0	-100	0	230	101300000	1000	0	0	-1	1000
15001035	7	150	0	-100	0	230	101300000	1000	0	0	-1	1000
15013595	7	153	0	-100	0	230	101300000	1000	0	0	-1	1000
15026155	7	156	0	-100	0	230	101300000	1000	0	0	-1	1000
15038715	7	155	0	-100	0	230	101300000	1000	0	0	-1	1000
15051275	7	154	0	-100	0	230	101300000	1000	0	0	-1	1000
15063835	14	151	0	-100	0	230	101300000	1000	0	0	-1	1000
15076395	12	148	0	-100	0	230	101300000	1000	0	0	-1	1000
15088955	7	154	0	-100	0	230	101300000	1000	0	0	-1	1000
15101515	7	155	0	-100	0	230	101300000	1000	0	0	-1	1000
15114075	7	152	0	-100	0	230	101300000	1000	0	0	-1	1000
15126635	14	148	0	-100	0	230	101300000	1000	0	0	-1	1000
15139195	12	146	0	-100	0	230	101300000	1000	0	0	-1	1000
15151755	14	148	0	-100	0	230	101300000	1000	0	0	-1	1000
15164315	19	151	0	-100	0	230	101300000	1000	0	0	-1	1000
15176875	14	151	0	-100	0	230	101300000	1000	0	0	-1	1000
15189435	14	147	0	-100	0	230	101300000	1000	0	0	-1	1000
15201995	14	155	0	-100	0	230	101300000	1000	0	0	-1	1000
15214555	14	149	0	-100	0	230	101300000	1000	0	0	-1	1000
15227115	16	151	0	-100	0	230	101300000	1000	0	0	-1	1000
15239675	9	147	0	-100	0	230	101300000	1000	0	0	-1	1000
15252235	7	152	0	-100	0	230	101300000	1000	0	0	-1	1000
15264795	12	148	0	-100	0	230	101300000	1000	0	0	-1	1000
15277355	14	148	0	-100	0	230	101300000	1000	0	0	-1	1000
15289915	14	150	0	-100	0	230	101300000	1000	0	0	-1	1000
15302475	7	153	0	-100	0	230	101300000	1000	0	0	-1	1000
15315035	7	152	0	-100	0	230	101300000	1000	0	0	-1	1000
15327595	7	158	0	-100	0	230	101300000	1000	0	0	-1	1000
15340155	7	156	0	-100	0	230	101300000	1000	0	0	-1	1000
15352715	7	156	0	-100	0	230	101300000	1000	0	0	-1	1000
15365275	4	151	0	-100	0	230	101300000	1000	0	0	-1	1000
15377835	4	149	0	-100	0	230	101300000	1000	0	0	-1	1000
15390395	7	155	0	-100	0	230	101300000	1000	0	0	-1	1000
15402955	7	151	0	-100	0	230	101300000	1000	0	0	-1	1000
15415515	9	146	0	-100	0	230	101300000	1000	0	0	-1	1000
15428075	9	147	0	-100	0	230	101300000	1000	0	0	-1	1000
15440635	14	151	0	-100	0	230	101300000	1000	0	0	-1	1000
15453195	14	149	0	-100	0	230	101300000	1000	0	0	-1	1000
15465755	12	148	0	-100	0	230	101300000	1000	0	0	-1	1000
15478315	14	150	0	-100	0	230	101300000	1000	0	0	-1	1000
15490875	4	155	0	-100	0	230	101300000	1000	0	0	-1	1000
15503435	4	152	0	-100	0	230	101300000	1000	0	0	-1	1000
15515995	4	155	0	-100	0	230	101300000	1000	0	0	-1	1000
15528555	9	147	0	-100	0	230	101300000	1000	0	0	-1	1000
15541115	19	151	0	-100	0	230	101300000	1000	0	0	-1	1000
15553675	9	153	0	-100	0	230	101300000	1000	0	0	-1	1000
15566235	7	150	0	-100	0	230	101300000	1000	0	0	-1	1000
15578795	4	157	0	-100	0	230	101300000	1000	0	0	-1	1000
15591355	7	154	0	-100	0	230	101300000	1000	0	0	-1	1000
15603915	4	154	0	-100	0	230	101300000	1000	0	0	-1	1000
15616475	7	154	0	-100	0	230	101300000	1000	0	0	-1	1000
15629035	12	151	0	-100	0	230	101300000	1000	0	0	-1	1000
15641595	12	149	0	-100	0	230	101300000	1000	0	0	-1	1000
15654155	12	150	0	-100	0	230	101300000	1000	0	0	-1	1000
15666715	7	152	0	-100	0	230	101300000	1000	0	0	-1	1000
15679275	7	156	0	-100	0	230	101300000	1000	0	0	-1	1000
15691835	4	149	0	-100	0	230	101300000	1000	0	0	-1	1000
15704395	12	151	0	-100	0	230	101300000	1000	0	0	-1	1000
15716955	12	147	0	-100	0	230	101300000	1000	0	0	-1	1000
15729515	12	149	0	-100	0	230	101300000	1000	0	0	-1	1000
15742075	7	152	0	-100	0	230	101300000	1000	0	0	-1	1000
15754635	7	156	0	-100	0	230	101300000	1000	0	0	-1	1000
15767195	9	149	0	-100	0	230	101300000	1000	0	0	-1	1000
15779755	14	148	0	-100	0	230	101300000	1000	0	0	-1	1000
15792315	16	150	0	-100	0	230	101300000	1000	0	0	-1	1000
15804875	7	153	0	-100	0	230	101300000	1000	0	0	-1	1000
15817435	7	155	0	-100	0	230	101300000	1000	0	0	-1	1000
15829995	4	155	0	-100	0	230	101300000	1000	0	0	-1	1000
15842555	14	151	0	-100	0	230	101300000	1000	0	0	-1	1000
15855115	21	151	0	-100	0	230	101300000	1000	0	0	-1	1000
15867675	12	146	0	-100	0	230	101300000	1000	0	0	-1	1000
15880235	12	150	0	-100	0	230	101300000	1000	0	0	-1	1000
15892795	12	148	0	-100	0	230	101300000	1000	0	0	-1	1000
15905355	9	153	0	-100	0	230	101300000	1000	0	0	-1	1000
15917915	7	149	0	-100	0	230	101300000	1000	0	0	-1	1000
15930475	9	155	0	-100	0	230	101300000	1000	0	0	-1	1000
15943035	4	155	0	-100	0	230	101300000	1000	0	0	-1	1000
15955595	4	156	0	-100	0	230	101300000	1000	0	0	-1	1000
15968155	9	155	0	-100	0	230	101300000	1000	0	0	-1	1000
15980715	7	150	0	-100	0	230	101300000	1000	0	0	-1	1000
15993275	7	152	0	-100	0	230	101300000	1000	0	0	-1	1000
16005835	4	156	0	-100	0	230	101300000	1000	0	0	-1	1000
16018395	7	155	0	-100	0	230	101300000	1000	0	0	-1	1000
16030955	4	155	0	-100	0	230	101300000	1000	0	0	-1	1000
16043515	7	156	0	-100	0	230	101300000	1000	0	0	-1	1000
16056075	7	157	0	-100	0	230	101300000	1000	0	0	-1	1000
16068635	7	156	0	-100	0	230	101300000	1000	0	0	-1	1000
16081195	4	150	0	-100	0	230	101300000	1000	0	0	-1	1000
16093755	7	153	0	-100	0	230	101300000	1000	0	0	-1	1000
16106315	14	155	0	-100	0	230	101300000	1000	0	0	-1	1000
16118875	12	149	0	-100	0	230	101300000	1000	0	0	-1	1000
16131435	12	150	0	-100	0	230	101300000	1000	0	0	-1	1000
16143995	12	156	0	-100	0	230	101300000	1000	0	0	-1	1000
16156555	14	146	0	-100	0	230	101300000	1000	0	0	-1	1000
16169115	19	150	0	-100	0	230	101300000	1000	0	0	-1	1000
16181675	14	150	0	-100	0	230	101300000	1000	0	0	-1	1000
16194235	12	148	0	-100	0	230	101300000	1000	0	0	-1	1000
16206795	7	149	0	-100	0	230	101300000	1000	0	0	-1	1000
16219355	7	155	0	-100	0	230	101300000	1000	0	0	-1	1000
16231915	12	157	0	-100	0	230	101300000	1000	0	0	-1	1000
16244475	7	156	0	-100	0	230	101300000	1000	0	0	-1	1000
16257035	4	149	0	-100	0	230	101300000	1000	0	0	-1	1000
16269595	9	148	0	-100	0	230	101300000	1000	0	0	-1	1000
16282155	7	152	0	-100	0	230	101300000	1000	0	0	-1	1000
16294715	12	150	0	-100	0	230	101300000	1000	0	0	-1	1000
16307275	16	151	0	-100	0	230	101300000	1000	0	0	-1	1000
16319835	14	149	0	-100	0	230	101300000	1000	0	0	-1	1000
16332395	12	149	0	-100	0	230	101300000	1000	0	0	-1	1000
16344955	7	153	0	-100	0	230	101300000	1000	0	0	-1	1000
16357515	7	154	0	-100	0	230	101300000	1000	0	0	-1	1000
16370075	4	154	0	-100	0	230	101300000	1000	0	0	-1	1000
16382635	4	151	0	-100	0	230	101300000	1000	0	0	-1	1000
16395195	9	147	0	-100	0	230	101300000	1000	0	0	-1	1000
16407755	14	148	0	-100	0	230	101300000	1000	0	0	-1	1000
16420315	16	150	0	-100	0	230	101300000	1000	0	0	-1	1000
16432875	9	153	0	-100	0	230	101300000	1000	0	0	-1	1000
16445435	9	153	0	-100	0	230	101300000	1000	0	0	-1	1000
16457995	9	149	0	-100	0	230	101300000	1000	0	0	-1	1000
16470555	9	153	0	-100	0	230	101300000	1000	0	0	-1	1000
16483115	14	151	0	-100	0	230	101300000	1000	0	0	-1	1000
16495675	9	158	0	-100	0	230	101300000	1000	0	0	-1	1000
16508235	7	149	0	-100	0	230	101300000	1000	0	0	-1	1000
16520795	7	154	0	-100	0	230	101300000	1000	0	0	-1	1000
16533355	4	155	0	-100	0	230	101300000	1000	0	0	-1	1000
16545915	4	151	0	-100	0	230	101300000	1000	0	0	-1	1000
16558475	12	151	0	-100	0	230	101300000	1000	0	0	-1	1000
16571035	12	150	0	-100	0	230	101300000	1000	0	0	-1	1000
16583595	7	150	0	-100	0	230	101300000	1000	0	0	-1	1000
16596155	4	158	0	-100	0	230	101300000	1000	0	0	-1	1000
16608715	7	157	0	-100	0	230	101300000	1000	0	0	-1	1000
16621275	4	151	0	-100	0	230	101300000	1000	0	0	-1	1000
16633835	14	150	0	-100	0	230	101300000	1000	0	0	-1	1000
16646395	14	149	0	-100	0	230	101300000	1000	0	0	-1	1000
16658955	9	155	0	-100	0	230	101300000	1000	0	0	-1	1000
16671515	9	155	0	-100	0	230	101300000	1000	0	0	-1	1000
16684075	9	151	0	-100	0	230	101300000	1000	0	0	-1	1000
16696635	7	151	0	-100	0	230	101300000	1000	0	0	-1	1000
16709195	12	146	0	-100	0	230	101300000	1000	0	0	-1	1000
16721755	12	148	0	-100	0	230	101300000	1000	0	0	-1	1000
16734315	12	155	0	-100	0	230	101300000	1000	0	0	-1	1000
16746875	7	156	0	-100	0	230	101300000	1000	0	0	-1	1000
16759435	12	150	0	-100	0	230	101300000	1000	0	0	-1	1000
16771995	12	153	0	-100	0	230	101300000	1000	0	0	-1	1000
16784555	7	151	0	-100	0	230	101300000	1000	0	0	-1	1000
16797115	12	160	0	-100	0	230	101300000	1000	0	0	-1	1000
16809675	4	151	0	-100	0	230	101300000	1000	0	0	-1	1000
16822235	9	147	0	-100	0	230	101300000	1000	0	0	-1	1000
16834795	14	147	0	-100	0	230	101300000	1000	0	0	-1	1000
16847355	12	148	0	-100	0	230	101300000	1000	0	0	-1	1000
16859915	7	151	0	-100	0	230	101300000	1000	0	0	-1	1000
16872475	7	156	0	-100	0	230	101300000	1000	0	0	-1	1000
16885035	7	152	0	-100	0	230	101300000	1000	0	0	-1	1000
16897595	12	148	0	-100	0	230	101300000	1000	0	0	-1	1000
16910155	14	150	0	-100	0	230	101300000	1000	0	0	-1	1000
16922715	7	151	0	-100	0	230	101300000	1000	0	0	-1	1000
16935275	7	158	0	-100	0	230	101300000	1000	0	0	-1	1000
16947835	4	150	0	-100	0	230	101300000	1000	0	0	-1	1000
16960395	12	149	0	-100	0	230	101300000	1000	0	0	-1	1000
16972955	14	149	0	-100	0	230	101300000	1000	0	0	-1	1000
16985515	9	152	0	-100	0	230	101300000	1000	0	0	-1	1000
16998075	7	152	0	-100	0	230	101300000	1000	0	0	-1	1000
17010635	2	150	0	-100	0	230	101300000	1000	0	0	-1	1000
17023195	12	150	0	-100	0	230	101300000	1000	0	0	-1	1000
17035755	12	150	0	-100	0	230	101300000	1000	0	0	-1	1000
17048315	12	156	0	-100	0	230	101300000	1000	0	0	-1	1000
17060875	9	147	0	-100	0	230	101300000	1000	0	0	-1	1000
17073435	12	146	0	-100	0	230	101300000	1000	0	0	-1	1000
17085995	7	148	0	-100	0	230	101300000	1000	0	0	-1	1000
17098555	7	154	0	-100	0	230	101300000	1000	0	0	-1	1000
17111115	19	151	0	-100	0	230	101300000	1000	0	0	-1	1000
17123675	12	149	0	-100	0	230	101300000	1000	0	0	-1	1000
17136235	4	156	0	-100	0	230	101300000	1000	0	0	-1	1000
17148795	7	157	0	-100	0	230	101300000	1000	0	0	-1	1000
17161355	7	152	0	-100	0	230	101300000	1000	0	0	-1	1000
17173915	14	148	0	-100	0	230	101300000	1000	0	0	-1	1000
17186475	9	153	0	-100	0	230	101300000	1000	0	0	-1	1000
17199035	4	156	0	-100	0	230	101300000	1000	0	0	-1	1000
17211595	4	149	0	-100	0	230	101300000	1000	0	0	-1	1000
17224155	7	151	0	-100	0	230	101300000	1000	0	0	-1	1000
17236715	12	147	0	-100	0	230	101300000	1000	0	0	-1	1000
17249275	9	155	0	-100	0	230	101300000	1000	0	0	-1	1000
17261835	7	152	0	-100	0	230	101300000	1000	0	0	-1	1000
17274395	4	152	0	-100	0	230	101300000	1000	0	0	-1	1000
17286955	7	151	0	-100	0	230	101300000	1000	0	0	-1	1000
17299515	14	151	0	-100	0	230	101300000	1000	0	0	-1	1000
17312075	7	152	0	-100	0	230	101300000	1000	0	0	-1	1000
17324635	7	156	0	-100	0	230	101300000	1000	0	0	-1	1000
17337195	7	151	0	-100	0	230	101300000	1000	0	0	-1	1000
17349755	9	153	0	-100	0	230	101300000	1000	0	0	-1	1000
17362315	12	157	0	-100	0	230	101300000	1000	0	0	-1	1000
17374875	14	150	0	-100	0	230	101300000	1000	0	0	-1	1000
17387435	7	151	0	-100	0	230	101300000	1000	0	0	-1	1000
17399995	4	157	0	-100	0	230	101300000	1000	0	0	-1	1000
17412555	12	147	0	-100	0	230	101300000	1000	0	0	-1	1000
17425115	12	151	0	-100	0	230	101300000	1000	0	0	-1	1000
17437675	7	155	0	-100	0	230	101300000	1000	0	0	-1	1000
17450235	16	151	0	-100	0	230	101300000	1000	0	0	-1	1000
17462795	14	149	0	-100	0	230	101300000	1000	0	0	-1	1000
17475355	12	154	0	-100	0	230	101300000	1000	0	0	-1	1000
17487915	7	155	0	-100	0	230	101300000	1000	0	0	-1	1000
17500475	12	149	0	-100	0	230	101300000	1000	0	0	-1	1000
17513035	7	150	0	-100	0	230	101300000	1000	0	0	-1	1000
17525595	4	150	0	-100	0	230	101300000	1000	0	0	-1	1000
17538155	12	147	0	-100	0	230	101300000	1000	0	0	-1	1000
17550715	7	151	0	-100	0	230	101300000	1000	0	0	-1	1000
17563275	4	150	0	-100	0	230	101300000	1000	0	0	-1	1000
17575835	14	147	0	-100	0	230	101300000	1000	0	0	-1	1000
17588395	7	152	0	-100	0	230	101300000	1000	0	0	-1	1000
17600955	4	151	0	-100	0	230	101300000	1000	0	0	-1	1000
17613515	14	147	0	-100	0	230	101300000	1000	0	0	-1	1000
17626075	7	149	0	-100	0	230	101300000	1000	0	0	-1	1000
17638635	7	156	0	-100	0	230	101300000	1000	0	0	-1	1000
17651195	12	149	0	-100	0	230	101300000	1000	0	0	-1	1000
17663755	12	150	0	-100	0	230	101300000	1000	0	0	-1	1000
17676315	12	157	0	-100	0	230	101300000	1000	0	0	-1	1000
17688875	7	150	0	-100	0	230	101300000	1000	0	0	-1	1000
17701435	14	148	0	-100	0	230	101300000	1000	0	0	-1	1000
17713995	9	152	0	-100	0	230	101300000	1000	0	0	-1	1000
17726555	9	149	0	-100	0	230	101300000	1000	0	0	-1	1000
17739115	16	151	0	-100	0	230	101300000	1000	0	0	-1	1000
17751675	7	157	0	-100	0	230	101300000	1000	0	0	-1	1000
17764235	14	149	0	-100	0	230	101300000	1000	0	0	-1	1000
17776795	9	156	0	-100	0	230	101300000	1000	0	0	-1	1000
17789355	4	149	0	-100	0	230	101300000	1000	0	0	-1	1000
17801915	12	147	0	-100	0	230	101300000	1000	0	0	-1	1000
17814475	14	150	0	-100	0	230	101300000	1000	0	0	-1	1000
17827035	4	156	0	-100	0	230	101300000	1000	0	0	-1	1000
17839595	7	155	0	-100	0	230	101300000	1000	0	0	-1	1000
17852155	12	148	0	-100	0	230	101300000	1000	0	0	-1	1000
17864715	4	158	0	-100	0	230	101300000	1000	0	0	-1	1000
17877275	7	156	0	-100	0	230	101300000	1000	0	0	-1	1000
17889835	12	149	0	-100	0	230	101300000	1000	0	0	-1	1000
17902395	12	151	0	-100	0	230	101300000	1000	0	0	-1	1000
17914955	7	150	0	-100	0	230	101300000	1000	0	0	-1	1000
17927515	9	154	0	-100	0	230	101300000	1000	0	0	-1	1000
17940075	7	155	0	-100	0	230	101300000	1000	0	0	-1	1000
17952635	9	147	0	-100	0	230	101300000	1000	0	0	-1	1000
17965195	14	149	0	-100	0	230	101300000	1000	0	0	-1	1000
17977755	12	149	0	-100	0	230	101300000	1000	0	0	-1	1000
17990315	12	151	0	-100	0	230	101300000	1000	0	0	-1	1000
18002875	7	155	0	-100	0	230	101300000	1000	0	0	-1	1000
18015435	7	158	0	-100	0	230	101300000	1000	0	0	-1	1000
18027995	4	157	0	-100	0	230	101300000	1000	0	0	-1	1000
18040555	12	147	0	-100	0	230	101300000	1000	0	0	-1	1000
18053115	16	149	0	-100	0	230	101300000	1000	0	0	-1	1000
18065675	12	156	0	-100	0	230	101300000	1000	0	0	-1	1000
18078235	7	155	0	-100	0	230	101300000	1000	0	0	-1	1000
18090795	14	147	0	-100	0	230	101300000	1000	0	0	-1	1000
18103355	9	152	0	-100	0	230	101300000	1000	0	0	-1	1000
18115915	4	154	0	-100	0	230	101300000	1000	0	0	-1	1000
18128475	9	154	0	-100	0	230	101300000	1000	0	0	-1	1000
18141035	7	155	0	-100	0	230	101300000	1000	0	0	-1	1000
18153595	7	151	0	-100	0	230	101300000	1000	0	0	-1	1000
18166155	14	149	0	-100	0	230	101300000	1000	0	0	-1	1000
18178715	14	150	0	-100	0	230	101300000	1000	0	0	-1	1000
18191275	7	154	0	-100	0	230	101300000	1000	0	0	-1	1000
18203835	9	153	0	-100	0	230	101300000	1000	0	0	-1	1000
18216395	9	147	0	-100	0	230	101300000	1000	0	0	-1	1000
18228955	14	151	0	-100	0	230	101300000	1000	0	0	-1	1000
18241515	9	157	0	-100	0	230	101300000	1000	0	0	-1	1000
18254075	7	157	0	-100	0	230	101300000	1000	0	0	-1	1000
18266635	7	154	0	-100	0	230	101300000	1000	0	0	-1	1000
18279195	14	146	0	-100	0	230	101300000	1000	0	0	-1	1000
18291755	7	152	0	-100	0	230	101300000	1000	0	0	-1	1000
18304315	12	155	0	-100	0	230	101300000	1000	0	0	-1	1000
18316875	14	149	0	-100	0	230	101300000	1000	0	0	-1	1000
18329435	4	155	0	-100	0	230	101300000	1000	0	0	-1	1000
18341995	4	157	0	-100	0	230	101300000	1000	0	0	-1	1000
18354555	14	150	0	-100	0	230	101300000	1000	0	0	-1	1000
18367115	12	151	0	-100	0	230	101300000	1000	0	0	-1	1000
18379675	7	157	0	-100	0	230	101300000	1000	0	0	-1	1000
18392235	12	150	0	-100	0	230	101300000	1000	0	0	-1	1000
18404795	9	154	0	-100	0	230	101300000	1000	0	0	-1	1000
18417355	7	157	0	-100	0	230	101300000	1000	0	0	-1	1000
18429915	7	153	0	-100	0	230	101300000	1000	0	0	-1	1000
18442475	14	148	0	-100	0	230	101300000	1000	0	0	-1	1000
18455035	7	151	0	-100	0	230	101300000	1000	0	0	-1	1000
18467595	4	150	0	-100	0	230	101300000	1000	0	0	-1	1000
18480155	14	151	0	-100	0	230	101300000	1000	0	0	-1	1000
18492715	9	152	0	-100	0	230	101300000	1000	0	0	-1	1000
18505275	7	157	0	-100	0	230	101300000	1000	0	0	-1	1000
18517835	12	148	0	-100	0	230	101300000	1000	0	0	-1	1000
18530395	9	156	0	-100	0	230	101300000	1000	0	0	-1	1000
18542955	9	150	0	-100	0	230	101300000	1000	0	0	-1	1000
18555515	12	149	0	-100	0	230	101300000	1000	0	0	-1	1000
18568075	7	158	0	-100	0	230	101300000	1000	0	0	-1	1000
18580635	14	150	0	-100	0	230	101300000	1000	0	0	-1	1000
18593195	9	154	0	-100	0	230	101300000	1000	0	0	-1	1000
18605755	4	155	0	-100	0	230	101300000	1000	0	0	-1	1000
18618315	12	156	0	-100	0	230	101300000	1000	0	0	-1	1000
18630875	9	147	0	-100	0	230	101300000	1000	0	0	-1	1000
18643435	14	150	0	-100	0	230	101300000	1000	0	0	-1	1000
18655995	14	154	0	-100	0	230	101300000	1000	0	0	-1	1000
18668555	12	149	0	-100	0	230	101300000	1000	0	0	-1	1000
18681115	16	151	0	-100	0	230	101300000	1000	0	0	-1	1000
18693675	7	153	0	-100	0	230	101300000	1000	0	0	-1	1000
18706235	9	155	0	-100	0	230	101300000	1000	0	0	-1	1000
18718795	4	152	0	-100	0	230	101300000	1000	0	0	-1	1000
18731355	7	152	0	-100	0	230	101300000	1000	0	0	-1	1000
18743915	7	152	0	-100	0	230	101300000	1000	0	0	-1	1000
18756475	7	154	0	-100	0	230	101300000	1000	0	0	-1	1000
18769035	9	148	0	-100	0	230	101300000	1000	0	0	-1	1000
18781595	12	148	0	-100	0	230	101300000	1000	0	0	-1	1000
18794155	14	146	0	-100	0	230	101300000	1000	0	0	-1	1000
18806715	12	150	0	-100	0	230	101300000	1000	0	0	-1	1000
18819275	12	176	0	-100	0	230	101300000	1000	0	0	-1	1000
18831835	7	151	0	-100	0	230	101300000	1000	0	0	-1	1000
18844395	12	158	0	-100	0	230	101300000	1000	0	0	-1	1000
18856955	4	151	0	-100	0	230	101300000	1000	0	0	-1	1000
18869515	7	154	0	-100	0	230	101300000	1000	0	0	-1	1000
18882075	14	147	0	-100	0	230	101300000	1000	0	0	-1	1000
18894635	12	150	0	-100	0	230	101300000	1000	0	0	-1	1000
18907195	9	153	0	-100	0	230	101300000	1000	0	0	-1	1000
18919755	4	156	0	-100	0	230	101300000	1000	0	0	-1	1000
18932315	14	159	0	-100	0	230	101300000	1000	0	0	-1	1000
18944875	4	153	0	-100	0	230	101300000	1000	0	0	-1	1000
18957435	4	151	0	-100	0	230	101300000	1000	0	0	-1	1000
18969995	7	154	0	-100	0	230	101300000	1000	0	0	-1	1000
18982555	14	152	0	-100	0	230	101300000	1000	0	0	-1	1000
18995115	19	151	0	-100	0	230	101300000	1000	0	0	-1	1000
19007675	9	154	0	-100	0	230	101300000	1000	0	0	-1	1000
19020235	7	149	0	-100	0	230	101300000	1000	0	0	-1	1000
19032795	4	156	0	-100	0	230	101300000	1000	0	0	-1	1000
19045355	4	156	0	-100	0	230	101300000	1000	0	0	-1	1000
19057915	7	155	0	-100	0	230	101300000	1000	0	0	-1	1000
19070475	7	149	0	-100	0	230	101300000	1000	0	0	-1	1000
19083035	9	150	0	-100	0	230	101300000	1000	0	0	-1	1000
19095595	9	153	0	-100	0	230	101300000	1000	0	0	-1	1000
19108155	12	166	0	-100	0	230	101300000	1000	0	0	-1	1000
19120715	7	151	0	-100	0	230	101300000	1000	0	0	-1	1000
19133275	4	155	0	-100	0	230	101300000	1000	0	0	-1	1000
19145835	4	156	0	-100	0	230	101300000	1000	0	0	-1	1000
19158395	7	155	0	-100	0	230	101300000	1000	0	0	-1	1000
19170955	4	149	0	-100	0	230	101300000	1000	0	0	-1	1000
19183515	9	147	0	-100	0	230	101300000	1000	0	0	-1	1000
19196075	12	150	0	-100	0	230	101300000	1000	0	0	-1	1000
19208635	14	151	0	-100	0	230	101300000	1000	0	0	-1	1000
19221195	12	147	0	-100	0	230	101300000	1000	0	0	-1	1000
19233755	12	148	0	-100	0	230	101300000	1000	0	0	-1	1000
19246315	19	147	0	-100	0	230	101300000	1000	0	0	-1	1000
19258875	14	151	0	-100	0	230	101300000	1000	0	0	-1	1000
19271435	12	143	0	-100	0	230	101300000	1000	0	0	-1	1000
19283995	14	156	0	-100	0	230	101300000	1000	0	0	-1	1000
19296555	14	151	0	-100	0	230	101300000	1000	0	0	-1	1000
19309115	16	192	0	-100	0	230	101300000	1000	0	0	-1	1000
19321675	12	148	0	-100	0	230	101300000	1000	0	0	-1	1000
19334235	14	151	0	-100	0	230	101300000	1000	0	0	-1	1000
19346795	12	148	0	-100	0	230	101300000	1000	0	0	-1	1000
19359355	14	150	0	-100	0	230	101300000	1000	0	0	-1	1000
19371915	12	150	0	-100	0	230	101300000	1000	0	0	-1	1000
19384475	7	147	0	-100	0	230	101300000	1000	0	0	-1	1000
19397035	7	153	0	-100	0	230	101300000	1000	0	0	-1	1000
19409595	9	159	0	-100	0	230	101300000	1000	0	0	-1	1000
19447275	9	155	0	-100	0	230	101300000	1000	0	0	-1	1000
19459835	9	156	0	-100	0	230	101300000	1000	0	0	-1	1000
19472395	9	155	0	-100	0	230	101300000	1000	0	0	-1	1000
19484955	9	157	0	-100	0	230	101300000	1000	0	0	-1	1000
19497515	9	156	0	-100	0	230	101300000	1000	0	0	-1	1000
19510075	7	152	0	-100	0	230	101300000	1000	0	0	-1	1000
19522635	4	159	0	-100	0	230	101300000	1000	0	0	-1	1000
19535195	4	158	0	-100	0	230	101300000	1000	0	0	-1	1000
19547755	7	155	0	-100	0	230	101300000	1000	0	0	-1	1000
19560315	14	159	0	-100	0	230	101300000	1000	0	0	-1	1000
19572875	4	148	0	-100	0	230	101300000	1000	0	0	-1	1000
19585435	7	152	0	-100	0	230	101300000	1000	0	0	-1	1000
19673355	7	158	0	-100	0	230	101300000	1000	0	0	-1	1000
19685915	7	155	0	-100	0	230	101300000	1000	0	0	-1	1000
19698475	4	151	0	-100	0	230	101300000	1000	0	0	-1	1000
19711035	4	150	0	-100	0	230	101300000	1000	0	0	-1	1000
19723595	4	148	0	-100	0	230	101300000	1000	0	0	-1	1000
19736155	7	154	0	-100	0	230	101300000	1000	0	0	-1	1000
19748715	7	155	0	-100	0	230	101300000	1000	0	0	-1	1000
19761275	4	151	0	-100	0	230	101300000	1000	0	0	-1	1000
19773835	7	150	0	-100	0	230	101300000	1000	0	0	-1	1000
19786395	4	149	0	-100	0	230	101300000	1000	0	0	-1	1000
19798955	7	159	0	-100	0	230	101300000	1000	0	0	-1	1000
19811515	4	151	0	-100	0	230	101300000	1000	0	0	-1	1000
19824075	7	159	0	-100	0	230	101300000	1000	0	0	-1	1000
19836635	7	152	0	-100	0	230	101300000	1000	0	0	-1	1000
19849195	7	153	0	-100	0	230	101300000	1000	0	0	-1	1000
19861755	12	151	0	-100	0	230	101300000	1000	0	0	-1	1000
19874315	19	151	0	-100	0	230	101300000	1000	0	0	-1	1000
19886875	16	148	0	-100	0	230	101300000	1000	0	0	-1	1000
19899435	12	149	0	-100	0	230	101300000	1000	0	0	-1	1000
19911995	14	158	0	-100	0	230	101300000	1000	0	0	-1	1000
19924555	14	144	0	-100	0	230	101300000	1000	0	0	-1	1000
19937115	19	149	0	-100	0	230	101300000	1000	0	0	-1	1000
19949675	14	151	0	-100	0	230	101300000	1000	0	0	-1	1000
19962235	9	155	0	-100	0	230	101300000	1000	0	0	-1	1000
19974795	7	152	0	-100	0	230	101300000	1000	0	0	-1	1000
19987355	7	149	0	-100	0	230	101300000	1000	0	0	-1	1000
19999915	4	158	0	-100	0	230	101300000	1000	0	0	-1	1000
20012475	9	155	0	-100	0	230	101300000	1000	0	0	-1	1000
20025035	9	155	0	-100	0	230	101300000	1000	0	0	-1	1000
20037595	7	159	0	-100	0	230	101300000	1000	0	0	-1	1000
20050155	7	159	0	-100	0	230	101300000	1000	0	0	-1	1000
20062715	7	111	0	-100	0	230	101300000	1000	0	0	-1	1000
20075275	7	158	0	-100	0	230	101300000	1000	0	0	-1	1000
20087835	7	155	0	-100	0	230	101300000	1000	0	0	-1	1000
20100395	4	152	0	-100	0	230	101300000	1000	0	0	-1	1000
20112955	7	158	0	-100	0	230	101300000	1000	0	0	-1	1000
20125515	7	159	0	-100	0	230	101300000	1000	0	0	-1	1000
20138075	9	155	0	-100	0	230	101300000	1000	0	0	-1	1000
20150635	9	186	0	-100	0	230	101300000	1000	0	0	-1	1000
20163195	7	152	0	-100	0	230	101300000	1000	0	0	-1	1000
20175755	7	151	0	-100	0	230	101300000	1000	0	0	-1	1000
20188315	14	151	0	-100	0	230	101300000	1000	0	0	-1	1000
20200875	9	158	0	-100	0	230	101300000	1000	0	0	-1	1000
20213435	7	152	0	-100	0	230	101300000	1000	0	0	-1	1000
20225995	7	147	0	-100	0	230	101300000	1000	0	0	-1	1000
20238555	7	167	0	-100	0	230	101300000	1000	0	0	-1	1000
20251115	14	157	0	-100	0	230	101300000	1000	0	0	-1	1000
20263675	9	154	0	-100	0	230	101300000	1000	0	0	-1	1000
20276235	7	156	0	-100	0	230	101300000	1000	0	0	-1	1000
20288795	7	153	0	-100	0	230	101300000	1000	0	0	-1	1000
20301355	7	156	0	-100	0	230	101300000	1000	0	0	-1	1000
20313915	7	157	0	-100	0	230	101300000	1000	0	0	-1	1000
20326475	4	151	0	-100	0	230	101300000	1000	0	0	-1	1000
20339035	7	151	0	-100	0	230	101300000	1000	0	0	-1	1000
20351595	12	216	0	-100	0	230	101300000	1000	0	0	-1	1000
20364155	12	148	0	-100	0	230	101300000	1000	0	0	-1	1000
20376715	14	147	0	-100	0	230	101300000	1000	0	0	-1	1000
20389275	14	152	0	-100	0	230	101300000	1000	0	0	-1	1000
20401835	12	147	0	-100	0	230	101300000	1000	0	0	-1	1000
20414395	9	154	0	-100	0	230	101300000	1000	0	0	-1	1000
20426955	7	151	0	-100	0	230	101300000	1000	0	0	-1	1000
20439515	7	155	0	-100	0	230	101300000	1000	0	0	-1	1000
20452075	4	155	0	-100	0	230	101300000	1000	0	0	-1	1000
20464635	7	155	0	-100	0	230	101300000	1000	0	0	-1	1000
20477195	4	151	0	-100	0	230	101300000	1000	0	0	-1	1000
20489755	2	151	0	-100	0	230	101300000	1000	0	0	-1	1000
20502315	9	155	0	-100	0	230	101300000	1000	0	0	-1	1000
20514875	4	151	0	-100	0	230	101300000	1000	0	0	-1	1000
20527435	7	156	0	-100	0	230	101300000	1000	0	0	-1	1000
20539995	7	158	0	-100	0	230	101300000	1000	0	0	-1	1000
20552555	12	147	0	-100	0	230	101300000	1000	0	0	-1	1000
20565115	19	151	0	-100	0	230	101300000	1000	0	0	-1	1000
20577675	14	151	0	-100	0	230	101300000	1000	0	0	-1	1000
20590235	14	152	0	-100	0	230	101300000	1000	0	0	-1	1000
20602795	14	151	0	-100	0	230	101300000	1000	0	0	-1	1000
20615355	12	147	0	-100	0	230	101300000	1000	0	0	-1	1000
20627915	12	148	0	-100	0	230	101300000	1000	0	0	-1	1000
20640475	14	151	0	-100	0	230	101300000	1000	0	0	-1	1000
20653035	12	148	0	-100	0	230	101300000	1000	0	0	-1	1000
20665595	9	155	0	-100	0	230	101300000	1000	0	0	-1	1000
20678155	9	151	0	-100	0	230	101300000	1000	0	0	-1	1000
20690715	9	153	0	-100	0	230	101300000	1000	0	0	-1	1000
20703275	7	150	0	-100	0	230	101300000	1000	0	0	-1	1000
20715835	7	154	0	-100	0	230	101300000	1000	0	0	-1	1000
20728395	7	152	0	-100	0	230	101300000	1000	0	0	-1	1000
20740955	4	157	0	-100	0	230	101300000	1000	0	0	-1	1000
20753515	7	153	0	-100	0	230	101300000	1000	0	0	-1	1000
20766075	7	153	0	-100	0	230	101300000	1000	0	0	-1	1000
20778635	9	154	0	-100	0	230	101300000	1000	0	0	-1	1000
20791195	7	154	0	-100	0	230	101300000	1000	0	0	-1	1000
20803755	7	150	0	-100	0	230	101300000	1000	0	0	-1	1000
20816315	16	151	0	-100	0	230	101300000	1000	0	0	-1	1000
20828875	12	148	0	-100	0	230	101300000	1000	0	0	-1	1000
20841435	14	150	0	-100	0	230	101300000	1000	0	0	-1	1000
20853995	7	147	0	-100	0	230	101300000	1000	0	0	-1	1000
20866555	7	158	0	-100	0	230	101300000	1000	0	0	-1	1000
20879115	12	157	0	-100	0	230	101300000	1000	0	0	-1	1000
20891675	7	152	0	-100	0	230	101300000	1000	0	0	-1	1000
20904235	14	151	0	-100	0	230	101300000	1000	0	0	-1	1000
20916795	14	151	0	-100	0	230	101300000	1000	0	0	-1	1000
20929355	7	149	0	-100	0	230	101300000	1000	0	0	-1	1000
20941915	7	156	0	-100	0	230	101300000	1000	0	0	-1	1000
20954475	14	151	0	-100	0	230	101300000	1000	0	0	-1	1000
20967035	9	153	0	-100	0	230	101300000	1000	0	0	-1	1000
20979595	9	153	0	-100	0	230	101300000	1000	0	0	-1	1000
20992155	7	153	0	-100	0	230	101300000	1000	0	0	-1	1000
21004715	14	146	0	-100	0	230	101300000	1000	0	0	-1	1000
21017275	7	149	0	-100	0	230	101300000	1000	0	0	-1	1000
21029835	7	156	0	-100	0	230	101300000	1000	0	0	-1	1000
21042395	14	151	0	-100	0	230	101300000	1000	0	0	-1	1000
21054955	9	152	0	-100	0	230	101300000	1000	0	0	-1	1000
21067515	7	155	0	-100	0	230	101300000	1000	0	0	-1	1000
21080075	14	150	0	-100	0	230	101300000	1000	0	0	-1	1000
21092635	9	154	0	-100	0	230	101300000	1000	0	0	-1	1000
21105195	7	157	0	-100	0	230	101300000	1000	0	0	-1	1000
21117755	7	151	0	-100	0	230	101300000	1000	0	0	-1	1000
21130315	19	151	0	-100	0	230	101300000	1000	0	0	-1	1000
21142875	14	151	0	-100	0	230	101300000	1000	0	0	-1	1000
21155435	7	159	0	-100	0	230	101300000	1000	0	0	-1	1000
21167995	9	154	0	-100	0	230	101300000	1000	0	0	-1	1000
21180555	12	151	0	-100	0	230	101300000	1000	0	0	-1	1000
21193115	9	155	0	-100	0	230	101300000	1000	0	0	-1	1000
21205675	9	151	0	-100	0	230	101300000	1000	0	0	-1	1000
21218235	9	151	0	-100	0	230	101300000	1000	0	0	-1	1000
21230795	7	154	0	-100	0	230	101300000	1000	0	0	-1	1000
21243355	7	156	0	-100	0	230	101300000	1000	0	0	-1	1000
21255915	12	150	0	-100	0	230	101300000	1000	0	0	-1	1000
21268475	12	148	0	-100	0	230	101300000	1000	0	0	-1	1000
21281035	9	155	0	-100	0	230	101300000	1000	0	0	-1	1000
21293595	9	147	0	-100	0	230	101300000	1000	0	0	-1	1000
21306155	12	148	0	-100	0	230	101300000	1000	0	0	-1	1000
21318715	9	155	0	-100	0	230	101300000	1000	0	0	-1	1000
21331275	7	152	0	-100	0	230	101300000	1000	0	0	-1	1000
21343835	12	149	0	-100	0	230	101300000	1000	0	0	-1	1000
21356395	7	154	0	-100	0	230	101300000	1000	0	0	-1	1000
21368955	7	151	0	-100	0	230	101300000	1000	0	0	-1	1000
21381515	14	150	0	-100	0	230	101300000	1000	0	0	-1	1000
21394075	7	156	0	-100	0	230	101300000	1000	0	0	-1	1000
21406635	14	150	0	-100	0	230	101300000	1000	0	0	-1	1000
21419195	7	150	0	-100	0	230	101300000	1000	0	0	-1	1000
21431755	7	156	0	-100	0	230	101300000	1000	0	0	-1	1000
21444315	19	151	0	-100	0	230	101300000	1000	0	0	-1	1000
21456875	9	156	0	-100	0	230	101300000	1000	0	0	-1	1000
21469435	12	147	0	-100	0	230	101300000	1000	0	0	-1	1000
21481995	4	148	0	-100	0	230	101300000	1000	0	0	-1	1000
21494555	7	154	0	-100	0	230	101300000	1000	0	0	-1	1000
21507115	16	150	0	-100	0	230	101300000	1000	0	0	-1	1000
21519675	7	156	0	-100	0	230	101300000	1000	0	0	-1	1000
21532235	12	150	0	-100	0	230	101300000	1000	0	0	-1	1000
21544795	12	148	0	-100	0	230	101300000	1000	0	0	-1	1000
21557355	7	151	0	-100	0	230	101300000	1000	0	0	-1	1000
21569915	9	155	0	-100	0	230	101300000	1000	0	0	-1	1000
21582475	7	150	0	-100	0	230	101300000	1000	0	0	-1	1000
21595035	9	155	0	-100	0	230	101300000	1000	0	0	-1	1000
21607595	7	157	0	-100	0	230	101300000	1000	0	0	-1	1000
21620155	12	149	0	-100	0	230	101300000	1000	0	0	-1	1000
21632715	7	155	0	-100	0	230	101300000	1000	0	0	-1	1000
21645275	7	151	0	-100	0	230	101300000	1000	0	0	-1	1000
21657835	12	149	0	-100	0	230	101300000	1000	0	0	-1	1000
21670395	4	150	0	-100	0	230	101300000	1000	0	0	-1	1000
21682955	12	151	0	-100	0	230	101300000	1000	0	0	-1	1000
21695515	7	155	0	-100	0	230	101300000	1000	0	0	-1	1000
21708075	12	151	0	-100	0	230	101300000	1000	0	0	-1	1000
21720635	7	148	0	-100	0	230	101300000	1000	0	0	-1	1000
21733195	7	153	0	-100	0	230	101300000	1000	0	0	-1	1000
21745755	14	150	0	-100	0	230	101300000	1000	0	0	-1	1000
21758315	9	159	0	-100	0	230	101300000	1000	0	0	-1	1000
21770875	7	152	0	-100	0	230	101300000	1000	0	0	-1	1000
21783435	12	149	0	-100	0	230	101300000	1000	0	0	-1	1000
21795995	7	151	0	-100	0	230	101300000	1000	0	0	-1	1000
21808555	14	147	0	-100	0	230	101300000	1000	0	0	-1	1000
21821115	12	156	0	-100	0	230	101300000	1000	0	0	-1	1000
21833675	9	150	0	-100	0	230	101300000	1000	0	0	-1	1000
21846235	14	150	0	-100	0	230	101300000	1000	0	0	-1	1000
21858795	9	154	0	-100	0	230	101300000	1000	0	0	-1	1000
21871355	14	151	0	-100	0	230	101300000	1000	0	0	-1	1000
21883915	7	153	0	-100	0	230	101300000	1000	0	0	-1	1000
21896475	4	151	0	-100	0	230	101300000	1000	0	0	-1	1000
21909035	14	146	0	-100	0	230	101300000	1000	0	0	-1	1000
21921595	12	149	0	-100	0	230	101300000	1000	0	0	-1	1000
21934155	9	156	0	-100	0	230	101300000	1000	0	0	-1	1000
21946715	12	156	0	-100	0	230	101300000	1000	0	0	-1	1000
21959275	4	150	0	-100	0	230	101300000	1000	0	0	-1	1000
21971835	12	150	0	-100	0	230	101300000	1000	0	0	-1	1000
21984395	14	150	0	-100	0	230	101300000	1000	0	0	-1	1000
21996955	7	154	0	-100	0	230	101300000	1000	0	0	-1	1000
22009515	9	155	0	-100	0	230	101300000	1000	0	0	-1	1000
22022075	4	151	0	-100	0	230	101300000	1000	0	0	-1	1000
22034635	7	152	0	-100	0	230	101300000	1000	0	0	-1	1000
22047195	7	150	0	-100	0	230	101300000	1000	0	0	-1	1000
22059755	14	146	0	-100	0	230	101300000	1000	0	0	-1	1000
22072315	19	151	0	-100	0	230	101300000	1000	0	0	-1	1000
22084875	14	150	0	-100	0	230	101300000	1000	0	0	-1	1000
22097435	12	148	0	-100	0	230	101300000	1000	0	0	-1	1000
22109995	7	148	0	-100	0	230	101300000	1000	0	0	-1	1000
22122555	12	154	0	-100	0	230	101300000	1000	0	0	-1	1000
22135115	9	152	0	-100	0	230	101300000	1000	0	0	-1	1000
22147675	7	152	0	-100	0	230	101300000	1000	0	0	-1	1000
22160235	14	149	0	-100	0	230	101300000	1000	0	0	-1	1000
22172795	14	150	0	-100	0	230	101300000	1000	0	0	-1	1000
22185355	12	149	0	-100	0	230	101300000	1000	0	0	-1	1000
22197915	12	148	0	-100	0	230	101300000	1000	0	0	-1	1000
22210475	9	153	0	-100	0	230	101300000	1000	0	0	-1	1000
22223035	7	154	0	-100	0	230	101300000	1000	0	0	-1	1000
22235595	9	153	0	-100	0	230	101300000	1000	0	0	-1	1000
22248155	7	154	0	-100	0	230	101300000	1000	0	0	-1	1000
22260715	14	151	0	-100	0	230	101300000	1000	0	0	-1	1000
22273275	12	147	0	-100	0	230	101300000	1000	0	0	-1	1000
22285835	14	149	0	-100	0	230	101300000	1000	0	0	-1	1000
22298395	7	151	0	-100	0	230	101300000	1000	0	0	-1	1000
22310955	7	155	0	-100	0	230	101300000	1000	0	0	-1	1000
22323515	9	150	0	-100	0	230	101300000	1000	0	0	-1	1000
22336075	14	149	0	-100	0	230	101300000	1000	0	0	-1	1000
22386315	16	151	0	-100	0	230	101300000	1000	0	0	-1	1000
22398875	9	158	0	-100	0	230	101300000	1000	0	0	-1	1000
22411435	7	157	0	-100	0	230	101300000	1000	0	0	-1	1000
22423995	4	158	0	-100	0	230	101300000	1000	0	0	-1	1000
22436555	14	151	0	-100	0	230	101300000	1000	0	0	-1	1000
22449115	16	151	0	-100	0	230	101300000	1000	0	0	-1	1000
22461675	7	153	0	-100	0	230	101300000	1000	0	0	-1	1000
22474235	7	156	0	-100	0	230	101300000	1000	0	0	-1	1000
22486795	12	149	0	-100	0	230	101300000	1000	0	0	-1	1000
22499355	14	149	0	-100	0	230	101300000	1000	0	0	-1	1000
22511915	9	154	0	-100	0	230	101300000	1000	0	0	-1	1000
22599835	12	146	0	-100	0	230	101300000	1000	0	0	-1	1000
22612395	4	158	0	-100	0	230	101300000	1000	0	0	-1	1000
22624955	4	153	0	-100	0	230	101300000	1000	0	0	-1	1000
22637515	7	153	0	-100	0	230	101300000	1000	0	0	-1	1000
22650075	9	146	0	-100	0	230	101300000	1000	0	0	-1	1000
22662635	14	150	0	-100	0	230	101300000	1000	0	0	-1	1000
22675195	14	150	0	-100	0	230	101300000	1000	0	0	-1	1000
22687755	7	148	0	-100	0	230	101300000	1000	0	0	-1	1000
22700315	14	156	0	-100	0	230	101300000	1000	0	0	-1	1000
22712875	2	151	0	-100	0	230	101300000	1000	0	0	-1	1000
22725435	12	149	0	-100	0	230	101300000	1000	0	0	-1	1000
22763115	12	158	0	-100	0	230	101300000	1000	0	0	-1	1000
22775675	7	150	0	-100	0	230	101300000	1000	0	0	-1	1000
22788235	12	150	0	-100	0	230	101300000	1000	0	0	-1	1000
22800795	9	155	0	-100	0	230	101300000	1000	0	0	-1	1000
22813355	7	157	0	-100	0	230	101300000	1000	0	0	-1	1000
22825915	7	151	0	-100	0	230	101300000	1000	0	0	-1	1000
22838475	9	153	0	-100	0	230	101300000	1000	0	0	-1	1000
22851035	7	158	0	-100	0	230	101300000	1000	0	0	-1	1000
22863595	9	148	0	-100	0	230	101300000	1000	0	0	-1	1000
22876155	12	149	0	-100	0	230	101300000	1000	0	0	-1	1000
22888715	7	159	0	-100	0	230	101300000	1000	0	0	-1	1000
22901275	12	151	0	-100	0	230	101300000	1000	0	0	-1	1000
22913835	12	149	0	-100	0	230	101300000	1000	0	0	-1	1000
22926395	7	157	0	-100	0	230	101300000	1000	0	0	-1	1000
22938955	14	150	0	-100	0	230	101300000	1000	0	0	-1	1000
22951515	9	154	0	-100	0	230	101300000	1000	0	0	-1	1000
22964075	7	155	0	-100	0	230	101300000	1000	0	0	-1	1000
22976635	12	146	0	-100	0	230	101300000	1000	0	0	-1	1000
22989195	9	155	0	-100	0	230	101300000	1000	0	0	-1	1000
23001755	7	156	0	-100	0	230	101300000	1000	0	0	-1	1000
23014315	14	151	0	-100	0	230	101300000	1000	0	0	-1	1000
23026875	12	150	0	-100	0	230	101300000	1000	0	0	-1	1000
23039435	7	153	0	-100	0	230	101300000	1000	0	0	-1	1000
23051995	4	157	0	-100	0	230	101300000	1000	0	0	-1	1000
23064555	14	150	0	-100	0	230	101300000	1000	0	0	-1	1000
23077115	16	151	0	-100	0	230	101300000	1000	0	0	-1	1000
23089675	7	154	0	-100	0	230	101300000	1000	0	0	-1	1000
23102235	7	156	0	-100	0	230	101300000	1000	0	0	-1	1000
23114795	9	146	0	-100	0	230	101300000	1000	0	0	-1	1000
23127355	14	149	0	-100	0	230	101300000	1000	0	0	-1	1000
23139915	14	151	0	-100	0	230	101300000	1000	0	0	-1	1000
23152475	12	150	0	-100	0	230	101300000	1000	0	0	-1	1000
23165035	4	158	0	-100	0	230	101300000	1000	0	0	-1	1000
23177595	7	157	0	-100	0	230	101300000	1000	0	0	-1	1000
23190155	7	151	0	-100	0	230	101300000	1000	0	0	-1	1000
23202715	14	150	0	-100	0	230	101300000	1000	0	0	-1	1000
23215275	9	157	0	-100	0	230	101300000	1000	0	0	-1	1000
23227835	7	154	0	-100	0	230	101300000	1000	0	0	-1	1000
23240395	9	154	0	-100	0	230	101300000	1000	0	0	-1	1000
23252955	4	153	0	-100	0	230	101300000	1000	0	0	-1	1000
23265515	4	151	0	-100	0	230	101300000	1000	0	0	-1	1000
23278075	2	151	0	-100	0	230	101300000	1000	0	0	-1	1000
23290635	9	145	0	-100	0	230	101300000	1000	0	0	-1	1000
23303195	14	149	0	-100	0	230	101300000	1000	0	0	-1	1000
23315755	9	157	0	-100	0	230	101300000	1000	0	0	-1	1000
23328315	12	158	0	-100	0	230	101300000	1000	0	0	-1	1000
23340875	9	146	0	-100	0	230	101300000	1000	0	0	-1	1000
23353435	14	147	0	-100	0	230	101300000	1000	0	0	-1	1000
23365995	12	150	0	-100	0	230	101300000	1000	0	0	-1	1000
23378555	4	157	0	-100	0	230	101300000	1000	0	0	-1	1000
23391115	12	158	0	-100	0	230	101300000	1000	0	0	-1	1000
23403675	7	152	0	-100	0	230	101300000	1000	0	0	-1	1000
23416235	12	146	0	-100	0	230	101300000	1000	0	0	-1	1000
23428795	12	149	0	-100	0	230	101300000	1000	0	0	-1	1000
23441355	9	156	0	-100	0	230	101300000	1000	0	0	-1	1000
23453915	4	156	0	-100	0	230	101300000	1000	0	0	-1	1000
23466475	9	155	0	-100	0	230	101300000	1000	0	0	-1	1000
23479035	4	149	0	-100	0	230	101300000	1000	0	0	-1	1000
23491595	12	151	0	-100	0	230	101300000	1000	0	0	-1	1000
23504155	14	150	0	-100	0	230	101300000	1000	0	0	-1	1000
23516715	9	153	0	-100	0	230	101300000	1000	0	0	-1	1000
23529275	7	155	0	-100	0	230	101300000	1000	0	0	-1	1000
23541835	7	156	0	-100	0	230	101300000	1000	0	0	-1	1000
23554395	7	155	0	-100	0	230	101300000	1000	0	0	-1	1000
23566955	7	152	0	-100	0	230	101300000	1000	0	0	-1	1000
23579515	14	148	0	-100	0	230	101300000	1000	0	0	-1	1000
23592075	12	150	0	-100	0	230	101300000	1000	0	0	-1	1000
23604635	7	151	0	-100	0	230	101300000	1000	0	0	-1	1000
23617195	9	156	0	-100	0	230	101300000	1000	0	0	-1	1000
23629755	7	156	0	-100	0	230	101300000	1000	0	0	-1	1000
23642315	9	152	0	-100	0	230	101300000	1000	0	0	-1	1000
23654875	7	152	0	-100	0	230	101300000	1000	0	0	-1	1000
23667435	7	151	0	-100	0	230	101300000	1000	0	0	-1	1000
23679995	12	157	0	-100	0	230	101300000	1000	0	0	-1	1000
23692555	14	148	0	-100	0	230	101300000	1000	0	0	-1	1000
23705115	16	150	0	-100	0	230	101300000	1000	0	0	-1	1000
23717675	7	155	0	-100	0	230	101300000	1000	0	0	-1	1000
23730235	7	156	0	-100	0	230	101300000	1000	0	0	-1	1000
23742795	14	150	0	-100	0	230	101300000	1000	0	0	-1	1000
23755355	12	150	0	-100	0	230	101300000	1000	0	0	-1	1000
23767915	9	155	0	-100	0	230	101300000	1000	0	0	-1	1000
23780475	4	150	0	-100	0	230	101300000	1000	0	0	-1	1000
23793035	14	151	0	-100	0	230	101300000	1000	0	0	-1	1000
23805595	14	150	0	-100	0	230	101300000	1000	0	0	-1	1000
23818155	7	152	0	-100	0	230	101300000	1000	0	0	-1	1000
23830715	7	156	0	-100	0	230	101300000	1000	0	0	-1	1000
23843275	12	151	0	-100	0	230	101300000	1000	0	0	-1	1000
23855835	12	149	0	-100	0	230	101300000	1000	0	0	-1	1000
23868395	7	156	0	-100	0	230	101300000	1000	0	0	-1	1000
23880955	7	151	0	-100	0	230	101300000	1000	0	0	-1	1000
23893515	12	149	0	-100	0	230	101300000	1000	0	0	-1	1000
23906075	9	156	0	-100	0	230	101300000	1000	0	0	-1	1000
23918635	7	153	0	-100	0	230	101300000	1000	0	0	-1	1000
23931195	12	150	0	-100	0	230	101300000	1000	0	0	-1	1000
23943755	7	152	0	-100	0	230	101300000	1000	0	0	-1	1000
23956315	14	158	0	-100	0	230	101300000	1000	0	0	-1	1000
23968875	14	151	0	-100	0	230	101300000	1000	0	0	-1	1000
23981435	14	149	0	-100	0	230	101300000	1000	0	0	-1	1000
23993995	7	149	0	-100	0	230	101300000	1000	0	0	-1	1000
24006555	12	150	0	-100	0	230	101300000	1000	0	0	-1	1000
24019115	16	150	0	-100	0	230	101300000	1000	0	0	-1	1000
24031675	9	155	0	-100	0	230	101300000	1000	0	0	-1	1000
24044235	7	153	0	-100	0	230	101300000	1000	0	0	-1	1000
24056795	14	150	0	-100	0	230	101300000	1000	0	0	-1	1000
24069355	14	147	0	-100	0	230	101300000	1000	0	0	-1	1000
24081915	9	153	0	-100	0	230	101300000	1000	0	0	-1	1000
24094475	7	153	0	-100	0	230	101300000	1000	0	0	-1	1000
24107035	4	154	0	-100	0	230	101300000	1000	0	0	-1	1000
24119595	7	151	0	-100	0	230	101300000	1000	0	0	-1	1000
24132155	14	147	0	-100	0	230	101300000	1000	0	0	-1	1000
24144715	12	148	0	-100	0	230	101300000	1000	0	0	-1	1000
24157275	7	154	0	-100	0	230	101300000	1000	0	0	-1	1000
24169835	7	155	0	-100	0	230	101300000	1000	0	0	-1	1000
24182395	12	149	0	-100	0	230	101300000	1000	0	0	-1	1000
24194955	14	147	0	-100	0	230	101300000	1000	0	0	-1	1000
24207515	14	149	0	-100	0	230	101300000	1000	0	0	-1	1000
24220075	7	150	0	-100	0	230	101300000	1000	0	0	-1	1000
24232635	9	156	0	-100	0	230	101300000	1000	0	0	-1	1000
24245195	4	150	0	-100	0	230	101300000	1000	0	0	-1	1000
24257755	14	149	0	-100	0	230	101300000	1000	0	0	-1	1000
24270315	16	151	0	-100	0	230	101300000	1000	0	0	-1	1000
24282875	9	155	0	-100	0	230	101300000	1000	0	0	-1	1000
24295435	4	149	0	-100	0	230	101300000	1000	0	0	-1	1000
24307995	9	154	0	-100	0	230	101300000	1000	0	0	-1	1000
24320555	14	146	0	-100	0	230	101300000	1000	0	0	-1	1000
24333115	19	151	0	-100	0	230	101300000	1000	0	0	-1	1000
24345675	9	155	0	-100	0	230	101300000	1000	0	0	-1	1000
24358235	7	152	0	-100	0	230	101300000	1000	0	0	-1	1000
24370795	7	153	0	-100	0	230	101300000	1000	0	0	-1	1000
24383355	7	153	0	-100	0	230	101300000	1000	0	0	-1	1000
24395915	7	153	0	-100	0	230	101300000	1000	0	0	-1	1000
24408475	9	156	0	-100	0	230	101300000	1000	0	0	-1	1000
24421035	9	156	0	-100	0	230	101300000	1000	0	0	-1	1000
24433595	7	155	0	-100	0	230	101300000	1000	0	0	-1	1000
24446155	4	154	0	-100	0	230	101300000	1000	0	0	-1	1000
24458715	4	151	0	-100	0	230	101300000	1000	0	0	-1	1000
24471275	7	152	0	-100	0	230	101300000	1000	0	0	-1	1000
24483835	9	147	0	-100	0	230	101300000	1000	0	0	-1	1000
24496395	12	151	0	-100	0	230	101300000	1000	0	0	-1	1000
24508955	14	147	0	-100	0	230	101300000	1000	0	0	-1	1000
24521515	12	151	0	-100	0	230	101300000	1000	0	0	-1	1000
24534075	12	149	0	-100	0	230	101300000	1000	0	0	-1	1000
24546635	7	148	0	-100	0	230	101300000	1000	0	0	-1	1000
24559195	9	158	0	-100	0	230	101300000	1000	0	0	-1	1000
24571755	9	157	0	-100	0	230	101300000	1000	0	0	-1	1000
24584315	12	155	0	-100	0	230	101300000	1000	0	0	-1	1000
24596875	7	157	0	-100	0	230	101300000	1000	0	0	-1	1000
24609435	4	150	0	-100	0	230	101300000	1000	0	0	-1	1000
24621995	9	155	0	-100	0	230	101300000	1000	0	0	-1	1000
24634555	16	150	0	-100	0	230	101300000	1000	0	0	-1	1000
24647115	19	151	0	-100	0	230	101300000	1000	0	0	-1	1000
24659675	12	150	0	-100	0	230	101300000	1000	0	0	-1	1000
24672235	9	155	0	-100	0	230	101300000	1000	0	0	-1	1000
24684795	4	157	0	-100	0	230	101300000	1000	0	0	-1	1000
24697355	9	155	0	-100	0	230	101300000	1000	0	0	-1	1000
24709915	7	155	0	-100	0	230	101300000	1000	0	0	-1	1000
24722475	9	147	0	-100	0	230	101300000	1000	0	0	-1	1000
24735035	14	146	0	-100	0	230	101300000	1000	0	0	-1	1000
24747595	12	148	0	-100	0	230	101300000	1000	0	0	-1	1000
24760155	9	155	0	-100	0	230	101300000	1000	0	0	-1	1000
24772715	7	153	0	-100	0	230	101300000	1000	0	0	-1	1000
24785275	9	155	0	-100	0	230	101300000	1000	0	0	-1	1000
24797835	7	155	0	-100	0	230	101300000	1000	0	0	-1	1000
24810395	9	147	0	-100	0	230	101300000	1000	0	0	-1	1000
24822955	14	150	0	-100	0	230	101300000	1000	0	0	-1	1000
24835515	14	148	0	-100	0	230	101300000	1000	0	0	-1	1000
24848075	9	155	0	-100	0	230	101300000	1000	0	0	-1	1000
24860635	9	155	0	-100	0	230	101300000	1000	0	0	-1	1000
24873195	4	151	0	-100	0	230	101300000	1000	0	0	-1	1000
24885755	9	148	0	-100	0	230	101300000	1000	0	0	-1	1000
24898315	21	153	0	-100	0	230	101300000	1000	0	0	-1	1000
24910875	12	150	0	-100	0	230	101300000	1000	0	0	-1	1000
24923435	9	153	0	-100	0	230	101300000	1000	0	0	-1	1000
24935995	7	145	0	-100	0	230	101300000	1000	0	0	-1	1000
24948555	7	158	0	-100	0	230	101300000	1000	0	0	-1	1000
24961115	12	156	0	-100	0	230	101300000	1000	0	0	-1	1000
24973675	12	149	0	-100	0	230	101300000	1000	0	0	-1	1000
24986235	14	147	0	-100	0	230	101300000	1000	0	0	-1	1000
24998795	9	153	0	-100	0	230	101300000	1000	0	0	-1	1000
25011355	7	153	0	-100	0	230	101300000	1000	0	0	-1	1000
25023915	4	156	0	-100	0	230	101300000	1000	0	0	-1	1000
25036475	9	155	0	-100	0	230	101300000	1000	0	0	-1	1000
25049035	7	157	0	-100	0	230	101300000	1000	0	0	-1	1000
25061595	4	151	0	-100	0	230	101300000	1000	0	0	-1	1000
25074155	7	153	0	-100	0	230	101300000	1000	0	0	-1	1000
25086715	9	147	0	-100	0	230	101300000	1000	0	0	-1	1000
25099275	12	148	0	-100	0	230	101300000	1000	0	0	-1	1000
25111835	12	150	0	-100	0	230	101300000	1000	0	0	-1	1000
25124395	7	154	0	-100	0	230	101300000	1000	0	0	-1	1000
25136955	7	156	0	-100	0	230	101300000	1000	0	0	-1	1000
25149515	14	151	0	-100	0	230	101300000	1000	0	0	-1	1000
25162075	12	149	0	-100	0	230	101300000	1000	0	0	-1	1000
25174635	7	151	0	-100	0	230	101300000	1000	0	0	-1	1000
25187195	7	152	0	-100	0	230	101300000	1000	0	0	-1	1000
25199755	12	148	0	-100	0	230	101300000	1000	0	0	-1	1000
25212315	12	160	0	-100	0	230	101300000	1000	0	0	-1	1000
25224875	12	151	0	-100	0	230	101300000	1000	0	0	-1	1000
25237435	12	147	0	-100	0	230	101300000	1000	0	0	-1	1000
25249995	9	151	0	-100	0	230	101300000	1000	0	0	-1	1000
25262555	7	155	0	-100	0	230	101300000	1000	0	0	-1	1000
25275115	14	155	0	-100	0	230	101300000	1000	0	0	-1	1000
25287675	14	150	0	-100	0	230	101300000	1000	0	0	-1	1000
25300235	14	146	0	-100	0	230	101300000	1000	0	0	-1	1000
25312795	14	151	0	-100	0	230	101300000	1000	0	0	-1	1000
25325355	12	150	0	-100	0	230	101300000	1000	0	0	-1	1000
25337915	7	152	0	-100	0	230	101300000	1000	0	0	-1	1000
25350475	9	156	0	-100	0	230	101300000	1000	0	0	-1	1000
25363035	4	152	0	-100	0	230	101300000	1000	0	0	-1	1000
25375595	7	153	0	-100	0	230	101300000	1000	0	0	-1	1000
25388155	14	150	0	-100	0	230	101300000	1000	0	0	-1	1000
25400715	12	151	0	-100	0	230	101300000	1000	0	0	-1	1000
25413275	4	159	0	-100	0	230	101300000	1000	0	0	-1	1000
25425835	7	156	0	-100	0	230	101300000	1000	0	0	-1	1000
25438395	4	149	0	-100	0	230	101300000	1000	0	0	-1	1000
25563995	12	156	0	-100	0	230	101300000	1000	0	0	-1	1000
25576555	16	148	0	-100	0	230	101300000	1000	0	0	-1	1000
25589115	16	150	0	-100	0	230	101300000	1000	0	0	-1	1000
25601675	12	149	0	-100	0	230	101300000	1000	0	0	-1	1000
25614235	9	149	0	-100	0	230	101300000	1000	0	0	-1	1000
25626795	12	149	0	-100	0	230	101300000	1000	0	0	-1	1000
25639355	12	147	0	-100	0	230	101300000	1000	0	0	-1	1000
25651915	12	147	0	-100	0	230	101300000	1000	0	0	-1	1000
25664475	14	147	0	-100	0	230	101300000	1000	0	0	-1	1000
25677035	16	149	0	-100	0	230	101300000	1000	0	0	-1	1000
25689595	14	147	0	-100	0	230	101300000	1000	0	0	-1	1000
25827755	7	150	0	-100	0	230	101300000	1000	0	0	-1	1000
25840315	12	156	0	-100	0	230	101300000	1000	0	0	-1	1000
25852875	14	151	0	-100	0	230	101300000	1000	0	0	-1	1000
25865435	7	156	0	-100	0	230	101300000	1000	0	0	-1	1000
25877995	12	154	0	-100	0	230	101300000	1000	0	0	-1	1000
25890555	12	155	0	-100	0	230	101300000	1000	0	0	-1	1000
25903115	16	151	0	-100	0	230	101300000	1000	0	0	-1	1000
25915675	9	153	0	-100	0	230	101300000	1000	0	0	-1	1000
25928235	7	159	0	-100	0	230	101300000	1000	0	0	-1	1000
25940795	14	151	0	-100	0	230	101300000	1000	0	0	-1	1000
25953355	9	156	0	-100	0	230	101300000	1000	0	0	-1	1000
25991035	4	152	0	-100	0	230	101300000	1000	0	0	-1	1000
26003595	12	149	0	-100	0	230	101300000	1000	0	0	-1	1000
26016155	7	155	0	-100	0	230	101300000	1000	0	0	-1	1000
26028715	12	148	0	-100	0	230	101300000	1000	0	0	-1	1000
26041275	7	151	0	-100	0	230	101300000	1000	0	0	-1	1000
26053835	7	155	0	-100	0	230	101300000	1000	0	0	-1	1000
26066395	14	151	0	-100	0	230	101300000	1000	0	0	-1	1000
26078955	9	153	0	-100	0	230	101300000	1000	0	0	-1	1000
26091515	7	155	0	-100	0	230	101300000	1000	0	0	-1	1000
26104075	12	147	0	-100	0	230	101300000	1000	0	0	-1	1000
26116635	7	154	0	-100	0	230	101300000	1000	0	0	-1	1000
26129195	4	149	0	-100	0	230	101300000	1000	0	0	-1	1000
26141755	12	147	0	-100	0	230	101300000	1000	0	0	-1	1000
26154315	14	150	0	-100	0	230	101300000	1000	0	0	-1	1000
26166875	7	158	0	-100	0	230	101300000	1000	0	0	-1	1000
26179435	7	150	0	-100	0	230	101300000	1000	0	0	-1	1000
26191995	9	148	0	-100	0	230	101300000	1000	0	0	-1	1000
26204555	7	153	0	-100	0	230	101300000	1000	0	0	-1	1000
26217115	9	151	0	-100	0	230	101300000	1000	0	0	-1	1000
26229675	12	149	0	-100	0	230	101300000	1000	0	0	-1	1000
26242235	4	153	0	-100	0	230	101300000	1000	0	0	-1	1000
26254795	12	148	0	-100	0	230	101300000	1000	0	0	-1	1000
26267355	9	155	0	-100	0	230	101300000	1000	0	0	-1	1000
26279915	9	149	0	-100	0	230	101300000	1000	0	0	-1	1000
26292475	12	150	0	-100	0	230	101300000	1000	0	0	-1	1000
26305035	7	157	0	-100	0	230	101300000	1000	0	0	-1	1000
26317595	12	148	0	-100	0	230	101300000	1000	0	0	-1	1000
26330155	7	155	0	-100	0	230	101300000	1000	0	0	-1	1000
26342715	14	149	0	-100	0	230	101300000	1000	0	0	-1	1000
26355275	9	154	0	-100	0	230	101300000	1000	0	0	-1	1000
26367835	14	150	0	-100	0	230	101300000	1000	0	0	-1	1000
26380395	4	158	0	-100	0	230	101300000	1000	0	0	-1	1000
26392955	12	151	0	-100	0	230	101300000	1000	0	0	-1	1000
26405515	7	154	0	-100	0	230	101300000	1000	0	0	-1	1000
26418075	14	149	0	-100	0	230	101300000	1000	0	0	-1	1000
26430635	4	157	0	-100	0	230	101300000	1000	0	0	-1	1000
26443195	7	151	0	-100	0	230	101300000	1000	0	0	-1	1000
26455755	9	155	0	-100	0	230	101300000	1000	0	0	-1	1000
26468315	14	153	0	-100	0	230	101300000	1000	0	0	-1	1000
26480875	7	148	0	-100	0	230	101300000	1000	0	0	-1	1000
26493435	9	151	0	-100	0	230	101300000	1000	0	0	-1	1000
26505995	9	149	0	-100	0	230	101300000	1000	0	0	-1	1000
26518555	4	149	0	-100	0	230	101300000	1000	0	0	-1	1000
26531115	16	150	0	-100	0	230	101300000	1000	0	0	-1	1000
26543675	7	156	0	-100	0	230	101300000	1000	0	0	-1	1000
26556235	14	151	0	-100	0	230	101300000	1000	0	0	-1	1000
26568795	7	155	0	-100	0	230	101300000	1000	0	0	-1	1000
26581355	12	150	0	-100	0	230	101300000	1000	0	0	-1	1000
26593915	7	156	0	-100	0	230	101300000	1000	0	0	-1	1000
26606475	14	149	0	-100	0	230	101300000	1000	0	0	-1	1000
26619035	7	153	0	-100	0	230	101300000	1000	0	0	-1	1000
26631595	7	153	0	-100	0	230	101300000	1000	0	0	-1	1000
26644155	14	149	0	-100	0	230	101300000	1000	0	0	-1	1000
26656715	9	155	0	-100	0	230	101300000	1000	0	0	-1	1000
26669275	14	146	0	-100	0	230	101300000	1000	0	0	-1	1000
26681835	4	152	0	-100	0	230	101300000	1000	0	0	-1	1000
26694395	12	149	0	-100	0	230	101300000	1000	0	0	-1	1000
26706955	7	155	0	-100	0	230	101300000	1000	0	0	-1	1000
26719515	14	150	0	-100	0	230	101300000	1000	0	0	-1	1000
26732075	7	154	0	-100	0	230	101300000	1000	0	0	-1	1000
26744635	14	147	0	-100	0	230	101300000	1000	0	0	-1	1000
26757195	4	156	0	-100	0	230	101300000	1000	0	0	-1	1000
26769755	7	152	0	-100	0	230	101300000	1000	0	0	-1	1000
26782315	16	151	0	-100	0	230	101300000	1000	0	0	-1	1000
26794875	7	156	0	-100	0	230	101300000	1000	0	0	-1	1000
26807435	12	147	0	-100	0	230	101300000	1000	0	0	-1	1000
26819995	7	146	0	-100	0	230	101300000	1000	0	0	-1	1000
26832555	7	154	0	-100	0	230	101300000	1000	0	0	-1	1000
26845115	14	151	0	-100	0	230	101300000	1000	0	0	-1	1000
26857675	7	155	0	-100	0	230	101300000	1000	0	0	-1	1000
26870235	14	149	0	-100	0	230	101300000	1000	0	0	-1	1000
26882795	9	156	0	-100	0	230	101300000	1000	0	0	-1	1000
26895355	4	153	0	-100	0	230	101300000	1000	0	0	-1	1000
26907915	7	150	0	-100	0	230	101300000	1000	0	0	-1	1000
26920475	12	148	0	-100	0	230	101300000	1000	0	0	-1	1000
26933035	9	155	0	-100	0	230	101300000	1000	0	0	-1	1000
26945595	7	152	0	-100	0	230	101300000	1000	0	0	-1	1000
26958155	9	151	0	-100	0	230	101300000	1000	0	0	-1	1000
26970715	7	156	0	-100	0	230	101300000	1000	0	0	-1	1000
26983275	9	151	0	-100	0	230	101300000	1000	0	0	-1	1000
26995835	12	148	0	-100	0	230	101300000	1000	0	0	-1	1000
27008395	9	155	0	-100	0	230	101300000	1000	0	0	-1	1000
27020955	9	148	0	-100	0	230	101300000	1000	0	0	-1	1000
27033515	9	152	0	-100	0	230	101300000	1000	0	0	-1	1000
27046075	4	151	0	-100	0	230	101300000	1000	0	0	-1	1000
