timestamp	voltage	current	windSpeed	pitchAngle	rpm	temperature	ambientPressure	humidity	accelerationX	accelerationY	accelerationZ	currentSink
7037070	2008	4	0	-100	0	230	101300000	1000	0	0	-1	0
7044523	2009	0	0	-100	0	230	101300000	1000	0	0	-1	0
7057083	2009	0	0	-100	0	230	101300000	1000	0	0	-1	0
7069643	2004	2	0	-100	0	230	101300000	1000	0	0	-1	0
7082203	2010	0	0	-100	0	230	101300000	1000	0	0	-1	0
7094763	2004	0	0	-100	0	230	101300000	1000	0	0	-1	0
7107323	2008	0	0	-100	0	230	101300000	1000	0	0	-1	0
7119883	2003	0	0	-100	0	230	101300000	1000	0	0	-1	0
7132443	2005	0	0	-100	0	230	101300000	1000	0	0	-1	0
7145004	2008	0	0	-100	0	230	101300000	1000	0	0	-1	0
7157563	2006	0	0	-100	0	230	101300000	1000	0	0	-1	0
7170123	2007	0	0	-100	0	230	101300000	1000	0	0	-1	0
7182683	2001	0	0	-100	0	230	101300000	1000	0	0	-1	0
7195243	2013	0	0	-100	0	230	101300000	1000	0	0	-1	0
7207803	2008	3	0	-100	0	230	101300000	1000	0	0	-1	0
7220363	2011	0	0	-100	0	230	101300000	1000	0	0	-1	0
7232923	2005	3	0	-100	0	230	101300000	1000	0	0	-1	0
7245483	2008	0	0	-100	0	230	101300000	1000	0	0	-1	0
7258043	2007	3	0	-100	0	230	101300000	1000	0	0	-1	0
7270603	2008	0	0	-100	0	230	101300000	1000	0	0	-1	0
7283163	2004	0	0	-100	0	230	101300000	1000	0	0	-1	0
7295723	2006	0	0	-100	0	230	101300000	1000	0	0	-1	0
7308283	2005	0	0	-100	0	230	101300000	1000	0	0	-1	0
7320843	2007	0	0	-100	0	230	101300000	1000	0	0	-1	0
7333403	2004	0	0	-100	0	230	101300000	1000	0	0	-1	0
7345963	2009	0	0	-100	0	230	101300000	1000	0	0	-1	0
7714235	16	206	0	-100	0	230	101300000	1000	0	0	-1	1000
7726795	26	203	0	-100	0	230	101300000	1000	0	0	-1	1000
7739355	21	206	0	-100	0	230	101300000	1000	0	0	-1	1000
7751915	26	204	0	-100	0	230	101300000	1000	0	0	-1	1000
7764475	19	210	0	-100	0	230	101300000	1000	0	0	-1	1000
7777035	26	204	0	-100	0	230	101300000	1000	0	0	-1	1000
7789595	21	205	0	-100	0	230	101300000	1000	0	0	-1	1000
7802155	21	204	0	-100	0	230	101300000	1000	0	0	-1	1000
7814715	21	205	0	-100	0	230	101300000	1000	0	0	-1	1000
7827275	19	202	0	-100	0	230	101300000	1000	0	0	-1	1000
7839835	24	202	0	-100	0	230	101300000	1000	0	0	-1	1000
7852395	19	202	0	-100	0	230	101300000	1000	0	0	-1	1000
7864955	24	203	0	-100	0	230	101300000	1000	0	0	-1	1000
7877515	19	201	0	-100	0	230	101300000	1000	0	0	-1	1000
7890075	24	201	0	-100	0	230	101300000	1000	0	0	-1	1000
7902635	16	208	0	-100	0	230	101300000	1000	0	0	-1	1000
7915195	21	202	0	-100	0	230	101300000	1000	0	0	-1	1000
7927755	16	205	0	-100	0	230	101300000	1000	0	0	-1	1000
7940315	24	202	0	-100	0	230	101300000	1000	0	0	-1	1000
7952875	16	207	0	-100	0	230	101300000	1000	0	0	-1	1000
7965435	24	202	0	-100	0	230	101300000	1000	0	0	-1	1000
7977995	16	202	0	-100	0	230	101300000	1000	0	0	-1	1000
7990555	26	202	0	-100	0	230	101300000	1000	0	0	-1	1000
8003115	19	203	0	-100	0	230	101300000	1000	0	0	-1	1000
8015675	21	203	0	-100	0	230	101300000	1000	0	0	-1	1000
8028235	26	204	0	-100	0	230	101300000	1000	0	0	-1	1000
8040795	21	211	0	-100	0	230	101300000	1000	0	0	-1	1000
8053355	26	203	0	-100	0	230	101300000	1000	0	0	-1	1000
8065915	19	202	0	-100	0	230	101300000	1000	0	0	-1	1000
8078475	26	202	0	-100	0	230	101300000	1000	0	0	-1	1000
8091035	19	205	0	-100	0	230	101300000	1000	0	0	-1	1000
8103595	16	206	0	-100	0	230	101300000	1000	0	0	-1	1000
8116155	26	203	0	-100	0	230	101300000	1000	0	0	-1	1000
8128715	21	210	0	-100	0	230	101300000	1000	0	0	-1	1000
8141275	24	202	0	-100	0	230	101300000	1000	0	0	-1	1000
8153835	19	204	0	-100	0	230	101300000	1000	0	0	-1	1000
8166395	24	206	0	-100	0	230	101300000	1000	0	0	-1	1000
8178955	21	202	0	-100	0	230	101300000	1000	0	0	-1	1000
8191515	26	201	0	-100	0	230	101300000	1000	0	0	-1	1000
8204075	19	202	0	-100	0	230	101300000	1000	0	0	-1	1000
8216635	21	208	0	-100	0	230	101300000	1000	0	0	-1	1000
8229195	26	204	0	-100	0	230	101300000	1000	0	0	-1	1000
8241755	19	203	0	-100	0	230	101300000	1000	0	0	-1	1000
8254315	21	207	0	-100	0	230	101300000	1000	0	0	-1	1000
8266875	24	202	0	-100	0	230	101300000	1000	0	0	-1	1000
8279435	21	204	0	-100	0	230	101300000	1000	0	0	-1	1000
8291995	16	202	0	-100	0	230	101300000	1000	0	0	-1	1000
8304555	19	211	0	-100	0	230	101300000	1000	0	0	-1	1000
8317115	26	202	0	-100	0	230	101300000	1000	0	0	-1	1000
8329675	21	202	0	-100	0	230	101300000	1000	0	0	-1	1000
8342235	21	210	0	-100	0	230	101300000	1000	0	0	-1	1000
8354795	19	210	0	-100	0	230	101300000	1000	0	0	-1	1000
8367355	26	203	0	-100	0	230	101300000	1000	0	0	-1	1000
8379915	26	204	0	-100	0	230	101300000	1000	0	0	-1	1000
8392475	16	206	0	-100	0	230	101300000	1000	0	0	-1	1000
8405035	16	209	0	-100	0	230	101300000	1000	0	0	-1	1000
8417595	19	210	0	-100	0	230	101300000	1000	0	0	-1	1000
8430155	26	202	0	-100	0	230	101300000	1000	0	0	-1	1000
8442715	16	207	0	-100	0	230	101300000	1000	0	0	-1	1000
8455275	16	207	0	-100	0	230	101300000	1000	0	0	-1	1000
8467835	24	204	0	-100	0	230	101300000	1000	0	0	-1	1000
8480395	16	206	0	-100	0	230	101300000	1000	0	0	-1	1000
8492955	19	210	0	-100	0	230	101300000	1000	0	0	-1	1000
8505515	24	202	0	-100	0	230	101300000	1000	0	0	-1	1000
8518075	16	207	0	-100	0	230	101300000	1000	0	0	-1	1000
8530635	21	205	0	-100	0	230	101300000	1000	0	0	-1	1000
8543195	26	204	0	-100	0	230	101300000	1000	0	0	-1	1000
8555755	21	209	0	-100	0	230	101300000	1000	0	0	-1	1000
8568315	24	202	0	-100	0	230	101300000	1000	0	0	-1	1000
8580875	19	205	0	-100	0	230	101300000	1000	0	0	-1	1000
8593435	19	211	0	-100	0	230	101300000	1000	0	0	-1	1000
8605995	26	210	0	-100	0	230	101300000	1000	0	0	-1	1000
8618555	19	202	0	-100	0	230	101300000	1000	0	0	-1	1000
8631115	21	207	0	-100	0	230	101300000	1000	0	0	-1	1000
8643675	24	201	0	-100	0	230	101300000	1000	0	0	-1	1000
8656235	26	204	0	-100	0	230	101300000	1000	0	0	-1	1000
8668795	19	205	0	-100	0	230	101300000	1000	0	0	-1	1000
8681355	19	208	0	-100	0	230	101300000	1000	0	0	-1	1000
8693915	26	201	0	-100	0	230	101300000	1000	0	0	-1	1000
8706475	21	203	0	-100	0	230	101300000	1000	0	0	-1	1000
8719035	19	206	0	-100	0	230	101300000	1000	0	0	-1	1000
8731595	21	205	0	-100	0	230	101300000	1000	0	0	-1	1000
8744155	21	201	0	-100	0	230	101300000	1000	0	0	-1	1000
8756715	26	199	0	-100	0	230	101300000	1000	0	0	-1	1000
8769275	16	206	0	-100	0	230	101300000	1000	0	0	-1	1000
8781835	21	210	0	-100	0	230	101300000	1000	0	0	-1	1000
8794395	21	205	0	-100	0	230	101300000	1000	0	0	-1	1000
8806955	24	203	0	-100	0	230	101300000	1000	0	0	-1	1000
8819515	21	203	0	-100	0	230	101300000	1000	0	0	-1	1000
8832075	19	208	0	-100	0	230	101300000	1000	0	0	-1	1000
8844635	24	201	0	-100	0	230	101300000	1000	0	0	-1	1000
8857195	19	199	0	-100	0	230	101300000	1000	0	0	-1	1000
8869755	21	210	0	-100	0	230	101300000	1000	0	0	-1	1000
8882315	24	201	0	-100	0	230	101300000	1000	0	0	-1	1000
8894875	19	202	0	-100	0	230	101300000	1000	0	0	-1	1000
8907435	16	209	0	-100	0	230	101300000	1000	0	0	-1	1000
8919995	21	202	0	-100	0	230	101300000	1000	0	0	-1	1000
8932555	26	203	0	-100	0	230	101300000	1000	0	0	-1	1000
8945115	19	203	0	-100	0	230	101300000	1000	0	0	-1	1000
8957675	19	210	0	-100	0	230	101300000	1000	0	0	-1	1000
8970235	24	200	0	-100	0	230	101300000	1000	0	0	-1	1000
8982795	16	209	0	-100	0	230	101300000	1000	0	0	-1	1000
8995355	19	209	0	-100	0	230	101300000	1000	0	0	-1	1000
9007915	26	201	0	-100	0	230	101300000	1000	0	0	-1	1000
9020475	19	205	0	-100	0	230	101300000	1000	0	0	-1	1000
9033035	21	204	0	-100	0	230	101300000	1000	0	0	-1	1000
9045595	24	201	0	-100	0	230	101300000	1000	0	0	-1	1000
9058155	19	203	0	-100	0	230	101300000	1000	0	0	-1	1000
9070715	19	210	0	-100	0	230	101300000	1000	0	0	-1	1000
9083275	24	200	0	-100	0	230	101300000	1000	0	0	-1	1000
9095835	19	204	0	-100	0	230	101300000	1000	0	0	-1	1000
9108395	19	208	0	-100	0	230	101300000	1000	0	0	-1	1000
9120955	29	203	0	-100	0	230	101300000	1000	0	0	-1	1000
9133515	19	204	0	-100	0	230	101300000	1000	0	0	-1	1000
9146075	19	208	0	-100	0	230	101300000	1000	0	0	-1	1000
9158635	26	200	0	-100	0	230	101300000	1000	0	0	-1	1000
9171195	19	203	0	-100	0	230	101300000	1000	0	0	-1	1000
9183755	21	206	0	-100	0	230	101300000	1000	0	0	-1	1000
9196315	24	203	0	-100	0	230	101300000	1000	0	0	-1	1000
9208875	24	203	0	-100	0	230	101300000	1000	0	0	-1	1000
9221435	21	211	0	-100	0	230	101300000	1000	0	0	-1	1000
9233995	24	204	0	-100	0	230	101300000	1000	0	0	-1	1000
9246555	26	203	0	-100	0	230	101300000	1000	0	0	-1	1000
9259115	19	202	0	-100	0	230	101300000	1000	0	0	-1	1000
9271675	19	210	0	-100	0	230	101300000	1000	0	0	-1	1000
9284235	26	199	0	-100	0	230	101300000	1000	0	0	-1	1000
9296795	19	202	0	-100	0	230	101300000	1000	0	0	-1	1000
9309355	21	213	0	-100	0	230	101300000	1000	0	0	-1	1000
9321915	19	208	0	-100	0	230	101300000	1000	0	0	-1	1000
9334475	24	201	0	-100	0	230	101300000	1000	0	0	-1	1000
9347035	16	206	0	-100	0	230	101300000	1000	0	0	-1	1000
9359595	19	208	0	-100	0	230	101300000	1000	0	0	-1	1000
9372155	24	203	0	-100	0	230	101300000	1000	0	0	-1	1000
9384715	16	206	0	-100	0	230	101300000	1000	0	0	-1	1000
9397275	16	207	0	-100	0	230	101300000	1000	0	0	-1	1000
9409835	24	203	0	-100	0	230	101300000	1000	0	0	-1	1000
9422395	19	203	0	-100	0	230	101300000	1000	0	0	-1	1000
9434955	21	207	0	-100	0	230	101300000	1000	0	0	-1	1000
9447515	24	202	0	-100	0	230	101300000	1000	0	0	-1	1000
9460075	21	202	0	-100	0	230	101300000	1000	0	0	-1	1000
9472635	19	205	0	-100	0	230	101300000	1000	0	0	-1	1000
9485195	24	203	0	-100	0	230	101300000	1000	0	0	-1	1000
9497755	24	202	0	-100	0	230	101300000	1000	0	0	-1	1000
9510315	19	208	0	-100	0	230	101300000	1000	0	0	-1	1000
9522875	26	202	0	-100	0	230	101300000	1000	0	0	-1	1000
9535435	19	206	0	-100	0	230	101300000	1000	0	0	-1	1000
9547995	24	204	0	-100	0	230	101300000	1000	0	0	-1	1000
9560555	19	202	0	-100	0	230	101300000	1000	0	0	-1	1000
9573115	16	206	0	-100	0	230	101300000	1000	0	0	-1	1000
9585675	26	199	0	-100	0	230	101300000	1000	0	0	-1	1000
9598235	19	206	0	-100	0	230	101300000	1000	0	0	-1	1000
9610795	24	202	0	-100	0	230	101300000	1000	0	0	-1	1000
9623355	19	205	0	-100	0	230	101300000	1000	0	0	-1	1000
9635915	26	205	0	-100	0	230	101300000	1000	0	0	-1	1000
9648475	19	204	0	-100	0	230	101300000	1000	0	0	-1	1000
9661035	24	202	0	-100	0	230	101300000	1000	0	0	-1	1000
9673595	19	200	0	-100	0	230	101300000	1000	0	0	-1	1000
9686155	19	210	0	-100	0	230	101300000	1000	0	0	-1	1000
9698715	24	203	0	-100	0	230	101300000	1000	0	0	-1	1000
9711275	19	201	0	-100	0	230	101300000	1000	0	0	-1	1000
9723835	19	209	0	-100	0	230	101300000	1000	0	0	-1	1000
9736395	26	203	0	-100	0	230	101300000	1000	0	0	-1	1000
9748955	21	207	0	-100	0	230	101300000	1000	0	0	-1	1000
9761515	21	206	0	-100	0	230	101300000	1000	0	0	-1	1000
9774075	21	202	0	-100	0	230	101300000	1000	0	0	-1	1000
9786635	19	199	0	-100	0	230	101300000	1000	0	0	-1	1000
9799195	21	210	0	-100	0	230	101300000	1000	0	0	-1	1000
9811755	24	202	0	-100	0	230	101300000	1000	0	0	-1	1000
9824315	19	202	0	-100	0	230	101300000	1000	0	0	-1	1000
9836875	19	209	0	-100	0	230	101300000	1000	0	0	-1	1000
9849435	26	205	0	-100	0	230	101300000	1000	0	0	-1	1000
9861995	19	202	0	-100	0	230	101300000	1000	0	0	-1	1000
9874555	24	201	0	-100	0	230	101300000	1000	0	0	-1	1000
9887115	21	210	0	-100	0	230	101300000	1000	0	0	-1	1000
9899675	24	202	0	-100	0	230	101300000	1000	0	0	-1	1000
9912235	21	207	0	-100	0	230	101300000	1000	0	0	-1	1000
9924795	19	210	0	-100	0	230	101300000	1000	0	0	-1	1000
9937355	24	202	0	-100	0	230	101300000	1000	0	0	-1	1000
9949915	19	206	0	-100	0	230	101300000	1000	0	0	-1	1000
9962475	24	201	0	-100	0	230	101300000	1000	0	0	-1	1000
9975035	21	206	0	-100	0	230	101300000	1000	0	0	-1	1000
9987595	16	207	0	-100	0	230	101300000	1000	0	0	-1	1000
10000155	26	203	0	-100	0	230	101300000	1000	0	0	-1	1000
10012715	16	206	0	-100	0	230	101300000	1000	0	0	-1	1000
10025275	21	202	0	-100	0	230	101300000	1000	0	0	-1	1000
10037835	19	210	0	-100	0	230	101300000	1000	0	0	-1	1000
10050395	21	201	0	-100	0	230	101300000	1000	0	0	-1	1000
10062955	19	210	0	-100	0	230	101300000	1000	0	0	-1	1000
10075515	24	200	0	-100	0	230	101300000	1000	0	0	-1	1000
10088075	16	208	0	-100	0	230	101300000	1000	0	0	-1	1000
10100635	24	201	0	-100	0	230	101300000	1000	0	0	-1	1000
10113195	19	202	0	-100	0	230	101300000	1000	0	0	-1	1000
10125755	24	203	0	-100	0	230	101300000	1000	0	0	-1	1000
10138315	19	202	0	-100	0	230	101300000	1000	0	0	-1	1000
10150875	21	202	0	-100	0	230	101300000	1000	0	0	-1	1000
10163435	26	203	0	-100	0	230	101300000	1000	0	0	-1	1000
10175995	21	203	0	-100	0	230	101300000	1000	0	0	-1	1000
10188555	26	199	0	-100	0	230	101300000	1000	0	0	-1	1000
10201115	16	209	0	-100	0	230	101300000	1000	0	0	-1	1000
10213675	19	211	0	-100	0	230	101300000	1000	0	0	-1	1000
10226235	29	205	0	-100	0	230	101300000	1000	0	0	-1	1000
10238795	19	207	0	-100	0	230	101300000	1000	0	0	-1	1000
10251355	21	202	0	-100	0	230	101300000	1000	0	0	-1	1000
10263915	19	205	0	-100	0	230	101300000	1000	0	0	-1	1000
10276475	21	201	0	-100	0	230	101300000	1000	0	0	-1	1000
10289035	24	203	0	-100	0	230	101300000	1000	0	0	-1	1000
10301595	19	207	0	-100	0	230	101300000	1000	0	0	-1	1000
10314155	26	202	0	-100	0	230	101300000	1000	0	0	-1	1000
10326715	16	206	0	-100	0	230	101300000	1000	0	0	-1	1000
10339275	21	205	0	-100	0	230	101300000	1000	0	0	-1	1000
10351835	24	201	0	-100	0	230	101300000	1000	0	0	-1	1000
10364395	21	207	0	-100	0	230	101300000	1000	0	0	-1	1000
10376955	19	209	0	-100	0	230	101300000	1000	0	0	-1	1000
10389515	21	203	0	-100	0	230	101300000	1000	0	0	-1	1000
10402075	24	202	0	-100	0	230	101300000	1000	0	0	-1	1000
10414635	19	201	0	-100	0	230	101300000	1000	0	0	-1	1000
10427195	19	207	0	-100	0	230	101300000	1000	0	0	-1	1000
10439755	21	203	0	-100	0	230	101300000	1000	0	0	-1	1000
10452315	26	198	0	-100	0	230	101300000	1000	0	0	-1	1000
10464875	19	202	0	-100	0	230	101300000	1000	0	0	-1	1000
10477435	19	210	0	-100	0	230	101300000	1000	0	0	-1	1000
10489995	24	210	0	-100	0	230	101300000	1000	0	0	-1	1000
10502555	19	205	0	-100	0	230	101300000	1000	0	0	-1	1000
10515115	24	201	0	-100	0	230	101300000	1000	0	0	-1	1000
10527675	24	202	0	-100	0	230	101300000	1000	0	0	-1	1000
10540235	19	207	0	-100	0	230	101300000	1000	0	0	-1	1000
10552795	24	202	0	-100	0	230	101300000	1000	0	0	-1	1000
10565355	24	204	0	-100	0	230	101300000	1000	0	0	-1	1000
10577915	19	208	0	-100	0	230	101300000	1000	0	0	-1	1000
10590475	24	203	0	-100	0	230	101300000	1000	0	0	-1	1000
10603035	19	202	0	-100	0	230	101300000	1000	0	0	-1	1000
10615595	19	209	0	-100	0	230	101300000	1000	0	0	-1	1000
10628155	26	200	0	-100	0	230	101300000	1000	0	0	-1	1000
10640715	19	205	0	-100	0	230	101300000	1000	0	0	-1	1000
10653275	24	202	0	-100	0	230	101300000	1000	0	0	-1	1000
10665835	19	201	0	-100	0	230	101300000	1000	0	0	-1	1000
10678395	19	209	0	-100	0	230	101300000	1000	0	0	-1	1000
10690955	26	201	0	-100	0	230	101300000	1000	0	0	-1	1000
10703515	16	209	0	-100	0	230	101300000	1000	0	0	-1	1000
10716075	24	202	0	-100	0	230	101300000	1000	0	0	-1	1000
10728635	16	208	0	-100	0	230	101300000	1000	0	0	-1	1000
10741195	24	202	0	-100	0	230	101300000	1000	0	0	-1	1000
10753755	19	201	0	-100	0	230	101300000	1000	0	0	-1	1000
10766315	16	206	0	-100	0	230	101300000	1000	0	0	-1	1000
10778875	24	203	0	-100	0	230	101300000	1000	0	0	-1	1000
10791435	21	206	0	-100	0	230	101300000	1000	0	0	-1	1000
10803995	26	209	0	-100	0	230	101300000	1000	0	0	-1	1000
10816555	19	210	0	-100	0	230	101300000	1000	0	0	-1	1000
10829115	26	203	0	-100	0	230	101300000	1000	0	0	-1	1000
10841675	24	210	0	-100	0	230	101300000	1000	0	0	-1	1000
10854235	29	203	0	-100	0	230	101300000	1000	0	0	-1	1000
10866795	16	208	0	-100	0	230	101300000	1000	0	0	-1	1000
10879355	21	203	0	-100	0	230	101300000	1000	0	0	-1	1000
10891915	21	203	0	-100	0	230	101300000	1000	0	0	-1	1000
10904475	21	207	0	-100	0	230	101300000	1000	0	0	-1	1000
10917035	26	200	0	-100	0	230	101300000	1000	0	0	-1	1000
10929595	19	208	0	-100	0	230	101300000	1000	0	0	-1	1000
10942155	24	202	0	-100	0	230	101300000	1000	0	0	-1	1000
10954715	16	208	0	-100	0	230	101300000	1000	0	0	-1	1000
10967275	24	201	0	-100	0	230	101300000	1000	0	0	-1	1000
10979835	21	206	0	-100	0	230	101300000	1000	0	0	-1	1000
10992395	21	205	0	-100	0	230	101300000	1000	0	0	-1	1000
11004955	19	202	0	-100	0	230	101300000	1000	0	0	-1	1000
11017515	21	203	0	-100	0	230	101300000	1000	0	0	-1	1000
11030075	24	202	0	-100	0	230	101300000	1000	0	0	-1	1000
11042635	21	211	0	-100	0	230	101300000	1000	0	0	-1	1000
11055195	24	202	0	-100	0	230	101300000	1000	0	0	-1	1000
11067755	19	201	0	-100	0	230	101300000	1000	0	0	-1	1000
11080315	19	209	0	-100	0	230	101300000	1000	0	0	-1	1000
11092875	26	201	0	-100	0	230	101300000	1000	0	0	-1	1000
11105435	19	206	0	-100	0	230	101300000	1000	0	0	-1	1000
11117995	24	204	0	-100	0	230	101300000	1000	0	0	-1	1000
11130555	16	207	0	-100	0	230	101300000	1000	0	0	-1	1000
11143115	19	207	0	-100	0	230	101300000	1000	0	0	-1	1000
11155675	21	203	0	-100	0	230	101300000	1000	0	0	-1	1000
11168235	24	206	0	-100	0	230	101300000	1000	0	0	-1	1000
11180795	24	203	0	-100	0	230	101300000	1000	0	0	-1	1000
11193355	26	201	0	-100	0	230	101300000	1000	0	0	-1	1000
11205915	21	202	0	-100	0	230	101300000	1000	0	0	-1	1000
11218475	19	206	0	-100	0	230	101300000	1000	0	0	-1	1000
11231035	19	210	0	-100	0	230	101300000	1000	0	0	-1	1000
11243595	29	201	0	-100	0	230	101300000	1000	0	0	-1	1000
11256155	19	203	0	-100	0	230	101300000	1000	0	0	-1	1000
11268715	21	201	0	-100	0	230	101300000	1000	0	0	-1	1000
11281275	26	202	0	-100	0	230	101300000	1000	0	0	-1	1000
11293835	21	211	0	-100	0	230	101300000	1000	0	0	-1	1000
11306395	26	202	0	-100	0	230	101300000	1000	0	0	-1	1000
11318955	19	206	0	-100	0	230	101300000	1000	0	0	-1	1000
11331515	24	203	0	-100	0	230	101300000	1000	0	0	-1	1000
11344075	16	208	0	-100	0	230	101300000	1000	0	0	-1	1000
11356635	24	202	0	-100	0	230	101300000	1000	0	0	-1	1000
11369195	19	203	0	-100	0	230	101300000	1000	0	0	-1	1000
11381755	26	204	0	-100	0	230	101300000	1000	0	0	-1	1000
11394315	19	206	0	-100	0	230	101300000	1000	0	0	-1	1000
11406875	26	202	0	-100	0	230	101300000	1000	0	0	-1	1000
11419435	21	210	0	-100	0	230	101300000	1000	0	0	-1	1000
11431995	29	208	0	-100	0	230	101300000	1000	0	0	-1	1000
11444555	19	210	0	-100	0	230	101300000	1000	0	0	-1	1000
11457115	24	201	0	-100	0	230	101300000	1000	0	0	-1	1000
11469675	21	201	0	-100	0	230	101300000	1000	0	0	-1	1000
11482235	19	204	0	-100	0	230	101300000	1000	0	0	-1	1000
11494795	26	203	0	-100	0	230	101300000	1000	0	0	-1	1000
11507355	19	203	0	-100	0	230	101300000	1000	0	0	-1	1000
11519915	24	202	0	-100	0	230	101300000	1000	0	0	-1	1000
11532475	16	209	0	-100	0	230	101300000	1000	0	0	-1	1000
11545035	26	203	0	-100	0	230	101300000	1000	0	0	-1	1000
11557595	21	208	0	-100	0	230	101300000	1000	0	0	-1	1000
11570155	24	202	0	-100	0	230	101300000	1000	0	0	-1	1000
11582715	19	201	0	-100	0	230	101300000	1000	0	0	-1	1000
11595275	16	207	0	-100	0	230	101300000	1000	0	0	-1	1000
11607835	21	202	0	-100	0	230	101300000	1000	0	0	-1	1000
11620395	21	202	0	-100	0	230	101300000	1000	0	0	-1	1000
11632955	19	204	0	-100	0	230	101300000	1000	0	0	-1	1000
11645515	24	203	0	-100	0	230	101300000	1000	0	0	-1	1000
11658075	14	208	0	-100	0	230	101300000	1000	0	0	-1	1000
11670635	24	202	0	-100	0	230	101300000	1000	0	0	-1	1000
11683195	21	206	0	-100	0	230	101300000	1000	0	0	-1	1000
11695755	19	201	0	-100	0	230	101300000	1000	0	0	-1	1000
11708315	21	202	0	-100	0	230	101300000	1000	0	0	-1	1000
11720875	19	202	0	-100	0	230	101300000	1000	0	0	-1	1000
11733435	26	202	0	-100	0	230	101300000	1000	0	0	-1	1000
11745995	21	203	0	-100	0	230	101300000	1000	0	0	-1	1000
11758555	19	205	0	-100	0	230	101300000	1000	0	0	-1	1000
11771115	26	202	0	-100	0	230	101300000	1000	0	0	-1	1000
11783675	19	210	0	-100	0	230	101300000	1000	0	0	-1	1000
11796235	19	204	0	-100	0	230	101300000	1000	0	0	-1	1000
11808795	24	202	0	-100	0	230	101300000	1000	0	0	-1	1000
11821355	19	205	0	-100	0	230	101300000	1000	0	0	-1	1000
11833915	24	201	0	-100	0	230	101300000	1000	0	0	-1	1000
11846475	16	206	0	-100	0	230	101300000	1000	0	0	-1	1000
11859035	26	203	0	-100	0	230	101300000	1000	0	0	-1	1000
11871595	21	208	0	-100	0	230	101300000	1000	0	0	-1	1000
11884155	26	201	0	-100	0	230	101300000	1000	0	0	-1	1000
11896715	24	208	0	-100	0	230	101300000	1000	0	0	-1	1000
11909275	26	204	0	-100	0	230	101300000	1000	0	0	-1	1000
11921835	19	208	0	-100	0	230	101300000	1000	0	0	-1	1000
11934395	19	203	0	-100	0	230	101300000	1000	0	0	-1	1000
11946955	21	202	0	-100	0	230	101300000	1000	0	0	-1	1000
11959515	16	207	0	-100	0	230	101300000	1000	0	0	-1	1000
11972075	24	202	0	-100	0	230	101300000	1000	0	0	-1	1000
11984635	16	206	0	-100	0	230	101300000	1000	0	0	-1	1000
11997195	24	202	0	-100	0	230	101300000	1000	0	0	-1	1000
12009755	19	203	0	-100	0	230	101300000	1000	0	0	-1	1000
12022315	19	211	0	-100	0	230	101300000	1000	0	0	-1	1000
12034875	29	203	0	-100	0	230	101300000	1000	0	0	-1	1000
12047435	19	209	0	-100	0	230	101300000	1000	0	0	-1	1000
12059995	24	208	0	-100	0	230	101300000	1000	0	0	-1	1000
12072555	21	208	0	-100	0	230	101300000	1000	0	0	-1	1000
12085115	26	204	0	-100	0	230	101300000	1000	0	0	-1	1000
12097675	19	210	0	-100	0	230	101300000	1000	0	0	-1	1000
12110235	26	204	0	-100	0	230	101300000	1000	0	0	-1	1000
12122795	24	206	0	-100	0	230	101300000	1000	0	0	-1	1000
12135355	26	203	0	-100	0	230	101300000	1000	0	0	-1	1000
12147915	19	209	0	-100	0	230	101300000	1000	0	0	-1	1000
12160475	26	203	0	-100	0	230	101300000	1000	0	0	-1	1000
12173035	19	210	0	-100	0	230	101300000	1000	0	0	-1	1000
12185595	19	202	0	-100	0	230	101300000	1000	0	0	-1	1000
12198155	24	201	0	-100	0	230	101300000	1000	0	0	-1	1000
12210715	19	206	0	-100	0	230	101300000	1000	0	0	-1	1000
12223275	24	203	0	-100	0	230	101300000	1000	0	0	-1	1000
12235835	19	205	0	-100	0	230	101300000	1000	0	0	-1	1000
12248395	26	201	0	-100	0	230	101300000	1000	0	0	-1	1000
12260955	16	206	0	-100	0	230	101300000	1000	0	0	-1	1000
12273515	19	211	0	-100	0	230	101300000	1000	0	0	-1	1000
12286075	29	204	0	-100	0	230	101300000	1000	0	0	-1	1000
12298635	19	206	0	-100	0	230	101300000	1000	0	0	-1	1000
12311195	26	203	0	-100	0	230	101300000	1000	0	0	-1	1000
12323755	19	204	0	-100	0	230	101300000	1000	0	0	-1	1000
12336315	21	202	0	-100	0	230	101300000	1000	0	0	-1	1000
12348875	16	206	0	-100	0	230	101300000	1000	0	0	-1	1000
12361435	16	206	0	-100	0	230	101300000	1000	0	0	-1	1000
12373995	29	208	0	-100	0	230	101300000	1000	0	0	-1	1000
12386555	21	210	0	-100	0	230	101300000	1000	0	0	-1	1000
12399115	24	199	0	-100	0	230	101300000	1000	0	0	-1	1000
12411675	16	210	0	-100	0	230	101300000	1000	0	0	-1	1000
12424235	26	204	0	-100	0	230	101300000	1000	0	0	-1	1000
12436795	19	206	0	-100	0	230	101300000	1000	0	0	-1	1000
12449355	24	201	0	-100	0	230	101300000	1000	0	0	-1	1000
12461915	21	210	0	-100	0	230	101300000	1000	0	0	-1	1000
12474475	21	201	0	-100	0	230	101300000	1000	0	0	-1	1000
12487035	19	201	0	-100	0	230	101300000	1000	0	0	-1	1000
12499595	19	209	0	-100	0	230	101300000	1000	0	0	-1	1000
12512155	26	204	0	-100	0	230	101300000	1000	0	0	-1	1000
12524715	19	202	0	-100	0	230	101300000	1000	0	0	-1	1000
12537275	19	210	0	-100	0	230	101300000	1000	0	0	-1	1000
12549835	29	204	0	-100	0	230	101300000	1000	0	0	-1	1000
12562395	21	210	0	-100	0	230	101300000	1000	0	0	-1	1000
12574955	26	202	0	-100	0	230	101300000	1000	0	0	-1	1000
12587515	19	206	0	-100	0	230	101300000	1000	0	0	-1	1000
12600075	24	202	0	-100	0	230	101300000	1000	0	0	-1	1000
12612635	16	208	0	-100	0	230	101300000	1000	0	0	-1	1000
12625195	19	208	0	-100	0	230	101300000	1000	0	0	-1	1000
12637755	16	206	0	-100	0	230	101300000	1000	0	0	-1	1000
12650315	24	202	0	-100	0	230	101300000	1000	0	0	-1	1000
12662875	19	206	0	-100	0	230	101300000	1000	0	0	-1	1000
12675435	29	202	0	-100	0	230	101300000	1000	0	0	-1	1000
12687995	19	201	0	-100	0	230	101300000	1000	0	0	-1	1000
12700555	24	204	0	-100	0	230	101300000	1000	0	0	-1	1000
12713115	19	209	0	-100	0	230	101300000	1000	0	0	-1	1000
12725675	19	203	0	-100	0	230	101300000	1000	0	0	-1	1000
12738235	26	200	0	-100	0	230	101300000	1000	0	0	-1	1000
12750795	16	206	0	-100	0	230	101300000	1000	0	0	-1	1000
12763355	21	206	0	-100	0	230	101300000	1000	0	0	-1	1000
12775915	24	201	0	-100	0	230	101300000	1000	0	0	-1	1000
12788475	19	202	0	-100	0	230	101300000	1000	0	0	-1	1000
12801035	26	202	0	-100	0	230	101300000	1000	0	0	-1	1000
12813595	16	210	0	-100	0	230	101300000	1000	0	0	-1	1000
12826155	24	201	0	-100	0	230	101300000	1000	0	0	-1	1000
12838715	21	210	0	-100	0	230	101300000	1000	0	0	-1	1000
12851275	24	201	0	-100	0	230	101300000	1000	0	0	-1	1000
12863835	19	206	0	-100	0	230	101300000	1000	0	0	-1	1000
12876395	26	201	0	-100	0	230	101300000	1000	0	0	-1	1000
12888955	21	210	0	-100	0	230	101300000	1000	0	0	-1	1000
12901515	24	204	0	-100	0	230	101300000	1000	0	0	-1	1000
12914075	21	202	0	-100	0	230	101300000	1000	0	0	-1	1000
12926635	16	207	0	-100	0	230	101300000	1000	0	0	-1	1000
12939195	24	202	0	-100	0	230	101300000	1000	0	0	-1	1000
12951755	19	202	0	-100	0	230	101300000	1000	0	0	-1	1000
12964315	21	202	0	-100	0	230	101300000	1000	0	0	-1	1000
12976875	16	206	0	-100	0	230	101300000	1000	0	0	-1	1000
12989435	24	201	0	-100	0	230	101300000	1000	0	0	-1	1000
13001995	19	209	0	-100	0	230	101300000	1000	0	0	-1	1000
13014555	19	210	0	-100	0	230	101300000	1000	0	0	-1	1000
13027115	21	202	0	-100	0	230	101300000	1000	0	0	-1	1000
13039675	16	208	0	-100	0	230	101300000	1000	0	0	-1	1000
13052235	19	202	0	-100	0	230	101300000	1000	0	0	-1	1000
13064795	24	201	0	-100	0	230	101300000	1000	0	0	-1	1000
13077355	19	206	0	-100	0	230	101300000	1000	0	0	-1	1000
13089915	24	200	0	-100	0	230	101300000	1000	0	0	-1	1000
13102475	21	210	0	-100	0	230	101300000	1000	0	0	-1	1000
13115035	26	204	0	-100	0	230	101300000	1000	0	0	-1	1000
13127595	19	210	0	-100	0	230	101300000	1000	0	0	-1	1000
13140155	21	206	0	-100	0	230	101300000	1000	0	0	-1	1000
13152715	21	202	0	-100	0	230	101300000	1000	0	0	-1	1000
13165275	16	206	0	-100	0	230	101300000	1000	0	0	-1	1000
13177835	19	209	0	-100	0	230	101300000	1000	0	0	-1	1000
13190395	26	204	0	-100	0	230	101300000	1000	0	0	-1	1000
13202955	16	206	0	-100	0	230	101300000	1000	0	0	-1	1000
13215515	24	203	0	-100	0	230	101300000	1000	0	0	-1	1000
13228075	19	206	0	-100	0	230	101300000	1000	0	0	-1	1000
13240635	16	209	0	-100	0	230	101300000	1000	0	0	-1	1000
13253195	26	200	0	-100	0	230	101300000	1000	0	0	-1	1000
13265755	21	201	0	-100	0	230	101300000	1000	0	0	-1	1000
13278315	19	208	0	-100	0	230	101300000	1000	0	0	-1	1000
13290875	19	203	0	-100	0	230	101300000	1000	0	0	-1	1000
13303435	24	204	0	-100	0	230	101300000	1000	0	0	-1	1000
13315995	19	203	0	-100	0	230	101300000	1000	0	0	-1	1000
13328555	19	206	0	-100	0	230	101300000	1000	0	0	-1	1000
13341115	26	200	0	-100	0	230	101300000	1000	0	0	-1	1000
13353675	19	210	0	-100	0	230	101300000	1000	0	0	-1	1000
13366235	19	205	0	-100	0	230	101300000	1000	0	0	-1	1000
13378795	26	204	0	-100	0	230	101300000	1000	0	0	-1	1000
13391355	21	207	0	-100	0	230	101300000	1000	0	0	-1	1000
13403915	21	205	0	-100	0	230	101300000	1000	0	0	-1	1000
13416475	24	201	0	-100	0	230	101300000	1000	0	0	-1	1000
13429035	24	210	0	-100	0	230	101300000	1000	0	0	-1	1000
13441595	19	201	0	-100	0	230	101300000	1000	0	0	-1	1000
13454155	24	203	0	-100	0	230	101300000	1000	0	0	-1	1000
13466715	19	208	0	-100	0	230	101300000	1000	0	0	-1	1000
13479275	19	202	0	-100	0	230	101300000	1000	0	0	-1	1000
13491835	26	201	0	-100	0	230	101300000	1000	0	0	-1	1000
13504395	19	210	0	-100	0	230	101300000	1000	0	0	-1	1000
13516955	16	207	0	-100	0	230	101300000	1000	0	0	-1	1000
13529515	24	200	0	-100	0	230	101300000	1000	0	0	-1	1000
13542075	16	204	0	-100	0	230	101300000	1000	0	0	-1	1000
13554635	19	203	0	-100	0	230	101300000	1000	0	0	-1	1000
13567195	26	201	0	-100	0	230	101300000	1000	0	0	-1	1000
13579755	19	206	0	-100	0	230	101300000	1000	0	0	-1	1000
13592315	19	205	0	-100	0	230	101300000	1000	0	0	-1	1000
13604875	26	201	0	-100	0	230	101300000	1000	0	0	-1	1000
13617435	19	209	0	-100	0	230	101300000	1000	0	0	-1	1000
13629995	19	208	0	-100	0	230	101300000	1000	0	0	-1	1000
13642555	19	209	0	-100	0	230	101300000	1000	0	0	-1	1000
13655115	21	204	0	-100	0	230	101300000	1000	0	0	-1	1000
13667675	19	210	0	-100	0	230	101300000	1000	0	0	-1	1000
13680235	26	204	0	-100	0	230	101300000	1000	0	0	-1	1000
13692795	21	205	0	-100	0	230	101300000	1000	0	0	-1	1000
13705355	24	202	0	-100	0	230	101300000	1000	0	0	-1	1000
13717915	19	210	0	-100	0	230	101300000	1000	0	0	-1	1000
13730475	21	203	0	-100	0	230	101300000	1000	0	0	-1	1000
13743035	19	208	0	-100	0	230	101300000	1000	0	0	-1	1000
13755595	16	206	0	-100	0	230	101300000	1000	0	0	-1	1000
13768155	24	201	0	-100	0	230	101300000	1000	0	0	-1	1000
13780715	16	209	0	-100	0	230	101300000	1000	0	0	-1	1000
13793275	24	200	0	-100	0	230	101300000	1000	0	0	-1	1000
13805835	24	208	0	-100	0	230	101300000	1000	0	0	-1	1000
13818395	26	200	0	-100	0	230	101300000	1000	0	0	-1	1000
13830955	19	207	0	-100	0	230	101300000	1000	0	0	-1	1000
13843515	26	201	0	-100	0	230	101300000	1000	0	0	-1	1000
13856075	19	209	0	-100	0	230	101300000	1000	0	0	-1	1000
13868635	26	199	0	-100	0	230	101300000	1000	0	0	-1	1000
13881195	21	207	0	-100	0	230	101300000	1000	0	0	-1	1000
13893755	24	202	0	-100	0	230	101300000	1000	0	0	-1	1000
13906315	16	206	0	-100	0	230	101300000	1000	0	0	-1	1000
13918875	19	200	0	-100	0	230	101300000	1000	0	0	-1	1000
13931435	19	209	0	-100	0	230	101300000	1000	0	0	-1	1000
13943995	26	207	0	-100	0	230	101300000	1000	0	0	-1	1000
13956555	16	209	0	-100	0	230	101300000	1000	0	0	-1	1000
13969115	26	203	0	-100	0	230	101300000	1000	0	0	-1	1000
13981675	16	206	0	-100	0	230	101300000	1000	0	0	-1	1000
13994235	19	209	0	-100	0	230	101300000	1000	0	0	-1	1000
14006795	26	203	0	-100	0	230	101300000	1000	0	0	-1	1000
14019355	19	206	0	-100	0	230	101300000	1000	0	0	-1	1000
14031915	24	202	0	-100	0	230	101300000	1000	0	0	-1	1000
14044475	16	210	0	-100	0	230	101300000	1000	0	0	-1	1000
14057035	26	199	0	-100	0	230	101300000	1000	0	0	-1	1000
14069595	19	210	0	-100	0	230	101300000	1000	0	0	-1	1000
14082155	26	201	0	-100	0	230	101300000	1000	0	0	-1	1000
14094715	19	206	0	-100	0	230	101300000	1000	0	0	-1	1000
14107275	24	201	0	-100	0	230	101300000	1000	0	0	-1	1000
14119835	14	207	0	-100	0	230	101300000	1000	0	0	-1	1000
14132395	21	201	0	-100	0	230	101300000	1000	0	0	-1	1000
14144955	19	200	0	-100	0	230	101300000	1000	0	0	-1	1000
14157515	19	210	0	-100	0	230	101300000	1000	0	0	-1	1000
14170075	19	199	0	-100	0	230	101300000	1000	0	0	-1	1000
14182635	19	210	0	-100	0	230	101300000	1000	0	0	-1	1000
14195195	19	202	0	-100	0	230	101300000	1000	0	0	-1	1000
14207755	24	201	0	-100	0	230	101300000	1000	0	0	-1	1000
14220315	19	206	0	-100	0	230	101300000	1000	0	0	-1	1000
14232875	29	202	0	-100	0	230	101300000	1000	0	0	-1	1000
14245435	16	206	0	-100	0	230	101300000	1000	0	0	-1	1000
14257995	26	208	0	-100	0	230	101300000	1000	0	0	-1	1000
14270555	19	206	0	-100	0	230	101300000	1000	0	0	-1	1000
14283115	26	201	0	-100	0	230	101300000	1000	0	0	-1	1000
14295675	19	205	0	-100	0	230	101300000	1000	0	0	-1	1000
14308235	26	204	0	-100	0	230	101300000	1000	0	0	-1	1000
14320795	21	210	0	-100	0	230	101300000	1000	0	0	-1	1000
14333355	26	201	0	-100	0	230	101300000	1000	0	0	-1	1000
14345915	21	209	0	-100	0	230	101300000	1000	0	0	-1	1000
14358475	29	206	0	-100	0	230	101300000	1000	0	0	-1	1000
14371035	19	209	0	-100	0	230	101300000	1000	0	0	-1	1000
14383595	24	203	0	-100	0	230	101300000	1000	0	0	-1	1000
14396155	24	203	0	-100	0	230	101300000	1000	0	0	-1	1000
14408715	19	204	0	-100	0	230	101300000	1000	0	0	-1	1000
14421275	26	203	0	-100	0	230	101300000	1000	0	0	-1	1000
14433835	21	208	0	-100	0	230	101300000	1000	0	0	-1	1000
14446395	26	203	0	-100	0	230	101300000	1000	0	0	-1	1000
14458955	16	210	0	-100	0	230	101300000	1000	0	0	-1	1000
14471515	26	202	0	-100	0	230	101300000	1000	0	0	-1	1000
14484075	16	208	0	-100	0	230	101300000	1000	0	0	-1	1000
14496635	24	203	0	-100	0	230	101300000	1000	0	0	-1	1000
14509195	19	202	0	-100	0	230	101300000	1000	0	0	-1	1000
14521755	24	201	0	-100	0	230	101300000	1000	0	0	-1	1000
14534315	19	206	0	-100	0	230	101300000	1000	0	0	-1	1000
14546875	24	201	0	-100	0	230	101300000	1000	0	0	-1	1000
14559435	16	206	0	-100	0	230	101300000	1000	0	0	-1	1000
14571995	26	204	0	-100	0	230	101300000	1000	0	0	-1	1000
14584555	16	206	0	-100	0	230	101300000	1000	0	0	-1	1000
14597115	19	210	0	-100	0	230	101300000	1000	0	0	-1	1000
14609675	24	203	0	-100	0	230	101300000	1000	0	0	-1	1000
14622235	16	206	0	-100	0	230	101300000	1000	0	0	-1	1000
14634795	24	202	0	-100	0	230	101300000	1000	0	0	-1	1000
14647355	19	211	0	-100	0	230	101300000	1000	0	0	-1	1000
14659915	24	204	0	-100	0	230	101300000	1000	0	0	-1	1000
14672475	19	208	0	-100	0	230	101300000	1000	0	0	-1	1000
14685035	29	203	0	-100	0	230	101300000	1000	0	0	-1	1000
14697595	19	205	0	-100	0	230	101300000	1000	0	0	-1	1000
14710155	24	201	0	-100	0	230	101300000	1000	0	0	-1	1000
14722715	16	208	0	-100	0	230	101300000	1000	0	0	-1	1000
14735275	19	206	0	-100	0	230	101300000	1000	0	0	-1	1000
14747835	19	201	0	-100	0	230	101300000	1000	0	0	-1	1000
14760395	19	210	0	-100	0	230	101300000	1000	0	0	-1	1000
14772955	24	202	0	-100	0	230	101300000	1000	0	0	-1	1000
14785515	21	206	0	-100	0	230	101300000	1000	0	0	-1	1000
14798075	24	200	0	-100	0	230	101300000	1000	0	0	-1	1000
14810635	16	207	0	-100	0	230	101300000	1000	0	0	-1	1000
14823195	21	202	0	-100	0	230	101300000	1000	0	0	-1	1000
14835755	21	204	0	-100	0	230	101300000	1000	0	0	-1	1000
14848315	16	206	0	-100	0	230	101300000	1000	0	0	-1	1000
14860875	24	202	0	-100	0	230	101300000	1000	0	0	-1	1000
14873435	19	207	0	-100	0	230	101300000	1000	0	0	-1	1000
14885995	26	208	0	-100	0	230	101300000	1000	0	0	-1	1000
14898555	19	210	0	-100	0	230	101300000	1000	0	0	-1	1000
14911115	19	200	0	-100	0	230	101300000	1000	0	0	-1	1000
14923675	19	210	0	-100	0	230	101300000	1000	0	0	-1	1000
14936235	21	204	0	-100	0	230	101300000	1000	0	0	-1	1000
14948795	19	210	0	-100	0	230	101300000	1000	0	0	-1	1000
14961355	29	203	0	-100	0	230	101300000	1000	0	0	-1	1000
14973915	24	210	0	-100	0	230	101300000	1000	0	0	-1	1000
14986475	26	201	0	-100	0	230	101300000	1000	0	0	-1	1000
14999035	19	208	0	-100	0	230	101300000	1000	0	0	-1	1000
15011595	29	201	0	-100	0	230	101300000	1000	0	0	-1	1000
15024155	19	207	0	-100	0	230	101300000	1000	0	0	-1	1000
15036715	26	200	0	-100	0	230	101300000	1000	0	0	-1	1000
15049275	16	205	0	-100	0	230	101300000	1000	0	0	-1	1000
15061835	29	204	0	-100	0	230	101300000	1000	0	0	-1	1000
15074395	21	208	0	-100	0	230	101300000	1000	0	0	-1	1000
15086955	26	202	0	-100	0	230	101300000	1000	0	0	-1	1000
15099515	19	203	0	-100	0	230	101300000	1000	0	0	-1	1000
15112075	24	202	0	-100	0	230	101300000	1000	0	0	-1	1000
15124635	19	208	0	-100	0	230	101300000	1000	0	0	-1	1000
15137195	26	204	0	-100	0	230	101300000	1000	0	0	-1	1000
15149755	21	203	0	-100	0	230	101300000	1000	0	0	-1	1000
15162315	19	205	0	-100	0	230	101300000	1000	0	0	-1	1000
15174875	26	202	0	-100	0	230	101300000	1000	0	0	-1	1000
15187435	16	206	0	-100	0	230	101300000	1000	0	0	-1	1000
15199995	19	209	0	-100	0	230	101300000	1000	0	0	-1	1000
15212555	24	201	0	-100	0	230	101300000	1000	0	0	-1	1000
15225115	19	202	0	-100	0	230	101300000	1000	0	0	-1	1000
15237675	21	201	0	-100	0	230	101300000	1000	0	0	-1	1000
15250235	21	203	0	-100	0	230	101300000	1000	0	0	-1	1000
15262795	21	207	0	-100	0	230	101300000	1000	0	0	-1	1000
15275355	26	202	0	-100	0	230	101300000	1000	0	0	-1	1000
15287915	19	209	0	-100	0	230	101300000	1000	0	0	-1	1000
15300475	21	202	0	-100	0	230	101300000	1000	0	0	-1	1000
15313035	21	202	0	-100	0	230	101300000	1000	0	0	-1	1000
15325595	19	200	0	-100	0	230	101300000	1000	0	0	-1	1000
15338155	19	210	0	-100	0	230	101300000	1000	0	0	-1	1000
15350715	26	202	0	-100	0	230	101300000	1000	0	0	-1	1000
15363275	16	206	0	-100	0	230	101300000	1000	0	0	-1	1000
15375835	24	202	0	-100	0	230	101300000	1000	0	0	-1	1000
15388395	19	210	0	-100	0	230	101300000	1000	0	0	-1	1000
15400955	19	201	0	-100	0	230	101300000	1000	0	0	-1	1000
15413515	24	202	0	-100	0	230	101300000	1000	0	0	-1	1000
15426075	19	209	0	-100	0	230	101300000	1000	0	0	-1	1000
15438635	26	204	0	-100	0	230	101300000	1000	0	0	-1	1000
15451195	19	210	0	-100	0	230	101300000	1000	0	0	-1	1000
15463755	24	203	0	-100	0	230	101300000	1000	0	0	-1	1000
15476315	16	203	0	-100	0	230	101300000	1000	0	0	-1	1000
15488875	19	202	0	-100	0	230	101300000	1000	0	0	-1	1000
15501435	24	202	0	-100	0	230	101300000	1000	0	0	-1	1000
15513995	19	210	0	-100	0	230	101300000	1000	0	0	-1	1000
15526555	21	202	0	-100	0	230	101300000	1000	0	0	-1	1000
15539115	16	209	0	-100	0	230	101300000	1000	0	0	-1	1000
15551675	26	202	0	-100	0	230	101300000	1000	0	0	-1	1000
15564235	19	206	0	-100	0	230	101300000	1000	0	0	-1	1000
15576795	24	199	0	-100	0	230	101300000	1000	0	0	-1	1000
15589355	19	208	0	-100	0	230	101300000	1000	0	0	-1	1000
15601915	26	199	0	-100	0	230	101300000	1000	0	0	-1	1000
15614475	19	206	0	-100	0	230	101300000	1000	0	0	-1	1000
15627035	24	202	0	-100	0	230	101300000	1000	0	0	-1	1000
15639595	16	207	0	-100	0	230	101300000	1000	0	0	-1	1000
15652155	19	206	0	-100	0	230	101300000	1000	0	0	-1	1000
15664715	19	204	0	-100	0	230	101300000	1000	0	0	-1	1000
15677275	21	202	0	-100	0	230	101300000	1000	0	0	-1	1000
15689835	16	208	0	-100	0	230	101300000	1000	0	0	-1	1000
15702395	24	202	0	-100	0	230	101300000	1000	0	0	-1	1000
15714955	19	202	0	-100	0	230	101300000	1000	0	0	-1	1000
15727515	24	204	0	-100	0	230	101300000	1000	0	0	-1	1000
15740075	16	206	0	-100	0	230	101300000	1000	0	0	-1	1000
15752635	16	207	0	-100	0	230	101300000	1000	0	0	-1	1000
15765195	26	201	0	-100	0	230	101300000	1000	0	0	-1	1000
15777755	19	206	0	-100	0	230	101300000	1000	0	0	-1	1000
15790315	24	200	0	-100	0	230	101300000	1000	0	0	-1	1000
15802875	21	207	0	-100	0	230	101300000	1000	0	0	-1	1000
15815435	26	203	0	-100	0	230	101300000	1000	0	0	-1	1000
15827995	19	202	0	-100	0	230	101300000	1000	0	0	-1	1000
15840555	21	203	0	-100	0	230	101300000	1000	0	0	-1	1000
15853115	16	203	0	-100	0	230	101300000	1000	0	0	-1	1000
15865675	21	203	0	-100	0	230	101300000	1000	0	0	-1	1000
15878235	19	209	0	-100	0	230	101300000	1000	0	0	-1	1000
15890795	24	199	0	-100	0	230	101300000	1000	0	0	-1	1000
15903355	19	207	0	-100	0	230	101300000	1000	0	0	-1	1000
15915915	24	202	0	-100	0	230	101300000	1000	0	0	-1	1000
15928475	21	210	0	-100	0	230	101300000	1000	0	0	-1	1000
15941035	26	201	0	-100	0	230	101300000	1000	0	0	-1	1000
15953595	19	203	0	-100	0	230	101300000	1000	0	0	-1	1000
15966155	21	202	0	-100	0	230	101300000	1000	0	0	-1	1000
15978715	16	208	0	-100	0	230	101300000	1000	0	0	-1	1000
15991275	24	202	0	-100	0	230	101300000	1000	0	0	-1	1000
16003835	19	208	0	-100	0	230	101300000	1000	0	0	-1	1000
16016395	26	202	0	-100	0	230	101300000	1000	0	0	-1	1000
16028955	19	203	0	-100	0	230	101300000	1000	0	0	-1	1000
16041515	21	201	0	-100	0	230	101300000	1000	0	0	-1	1000
16054075	16	207	0	-100	0	230	101300000	1000	0	0	-1	1000
16066635	26	202	0	-100	0	230	101300000	1000	0	0	-1	1000
16079195	19	206	0	-100	0	230	101300000	1000	0	0	-1	1000
16091755	26	201	0	-100	0	230	101300000	1000	0	0	-1	1000
16104315	16	206	0	-100	0	230	101300000	1000	0	0	-1	1000
16116875	19	200	0	-100	0	230	101300000	1000	0	0	-1	1000
16129435	21	203	0	-100	0	230	101300000	1000	0	0	-1	1000
16141995	21	206	0	-100	0	230	101300000	1000	0	0	-1	1000
16154555	16	206	0	-100	0	230	101300000	1000	0	0	-1	1000
16167115	19	202	0	-100	0	230	101300000	1000	0	0	-1	1000
16179675	21	202	0	-100	0	230	101300000	1000	0	0	-1	1000
16192235	16	207	0	-100	0	230	101300000	1000	0	0	-1	1000
16204795	24	201	0	-100	0	230	101300000	1000	0	0	-1	1000
16217355	21	210	0	-100	0	230	101300000	1000	0	0	-1	1000
16229915	24	201	0	-100	0	230	101300000	1000	0	0	-1	1000
16242475	19	210	0	-100	0	230	101300000	1000	0	0	-1	1000
16255035	21	203	0	-100	0	230	101300000	1000	0	0	-1	1000
16267595	19	210	0	-100	0	230	101300000	1000	0	0	-1	1000
16280155	16	205	0	-100	0	230	101300000	1000	0	0	-1	1000
16292715	24	202	0	-100	0	230	101300000	1000	0	0	-1	1000
16305275	16	210	0	-100	0	230	101300000	1000	0	0	-1	1000
16317835	26	202	0	-100	0	230	101300000	1000	0	0	-1	1000
16330395	19	208	0	-100	0	230	101300000	1000	0	0	-1	1000
16342955	19	202	0	-100	0	230	101300000	1000	0	0	-1	1000
16355515	26	200	0	-100	0	230	101300000	1000	0	0	-1	1000
16368075	19	208	0	-100	0	230	101300000	1000	0	0	-1	1000
16380635	26	198	0	-100	0	230	101300000	1000	0	0	-1	1000
16393195	19	209	0	-100	0	230	101300000	1000	0	0	-1	1000
16405755	19	202	0	-100	0	230	101300000	1000	0	0	-1	1000
16418315	26	200	0	-100	0	230	101300000	1000	0	0	-1	1000
16430875	19	208	0	-100	0	230	101300000	1000	0	0	-1	1000
16443435	26	204	0	-100	0	230	101300000	1000	0	0	-1	1000
16455995	21	203	0	-100	0	230	101300000	1000	0	0	-1	1000
16468555	16	207	0	-100	0	230	101300000	1000	0	0	-1	1000
16481115	24	201	0	-100	0	230	101300000	1000	0	0	-1	1000
16493675	19	204	0	-100	0	230	101300000	1000	0	0	-1	1000
16506235	26	204	0	-100	0	230	101300000	1000	0	0	-1	1000
16518795	19	208	0	-100	0	230	101300000	1000	0	0	-1	1000
16531355	19	201	0	-100	0	230	101300000	1000	0	0	-1	1000
16543915	24	201	0	-100	0	230	101300000	1000	0	0	-1	1000
16556475	16	205	0	-100	0	230	101300000	1000	0	0	-1	1000
16569035	26	201	0	-100	0	230	101300000	1000	0	0	-1	1000
16581595	19	209	0	-100	0	230	101300000	1000	0	0	-1	1000
16594155	24	205	0	-100	0	230	101300000	1000	0	0	-1	1000
16606715	21	201	0	-100	0	230	101300000	1000	0	0	-1	1000
16619275	16	208	0	-100	0	230	101300000	1000	0	0	-1	1000
16631835	24	206	0	-100	0	230	101300000	1000	0	0	-1	1000
16644395	16	209	0	-100	0	230	101300000	1000	0	0	-1	1000
16656955	26	201	0	-100	0	230	101300000	1000	0	0	-1	1000
16669515	19	205	0	-100	0	230	101300000	1000	0	0	-1	1000
16682075	21	205	0	-100	0	230	101300000	1000	0	0	-1	1000
16694635	21	208	0	-100	0	230	101300000	1000	0	0	-1	1000
16707195	19	211	0	-100	0	230	101300000	1000	0	0	-1	1000
16719755	19	193	0	-100	0	230	101300000	1000	0	0	-1	1000
16732315	24	200	0	-100	0	230	101300000	1000	0	0	-1	1000
16744875	19	201	0	-100	0	230	101300000	1000	0	0	-1	1000
16757435	24	203	0	-100	0	230	101300000	1000	0	0	-1	1000
16769995	19	208	0	-100	0	230	101300000	1000	0	0	-1	1000
16782555	21	201	0	-100	0	230	101300000	1000	0	0	-1	1000
16795115	16	206	0	-100	0	230	101300000	1000	0	0	-1	1000
16807675	19	208	0	-100	0	230	101300000	1000	0	0	-1	1000
16820235	21	202	0	-100	0	230	101300000	1000	0	0	-1	1000
16832795	21	210	0	-100	0	230	101300000	1000	0	0	-1	1000
16845355	24	205	0	-100	0	230	101300000	1000	0	0	-1	1000
16857915	19	202	0	-100	0	230	101300000	1000	0	0	-1	1000
16870475	21	207	0	-100	0	230	101300000	1000	0	0	-1	1000
16883035	24	202	0	-100	0	230	101300000	1000	0	0	-1	1000
16895595	19	200	0	-100	0	230	101300000	1000	0	0	-1	1000
16908155	21	211	0	-100	0	230	101300000	1000	0	0	-1	1000
16920715	24	202	0	-100	0	230	101300000	1000	0	0	-1	1000
16933275	26	200	0	-100	0	230	101300000	1000	0	0	-1	1000
16945835	19	203	0	-100	0	230	101300000	1000	0	0	-1	1000
16958395	16	206	0	-100	0	230	101300000	1000	0	0	-1	1000
16970955	24	200	0	-100	0	230	101300000	1000	0	0	-1	1000
16983515	19	198	0	-100	0	230	101300000	1000	0	0	-1	1000
16996075	19	210	0	-100	0	230	101300000	1000	0	0	-1	1000
17008635	26	200	0	-100	0	230	101300000	1000	0	0	-1	1000
17021195	19	202	0	-100	0	230	101300000	1000	0	0	-1	1000
17033755	19	211	0	-100	0	230	101300000	1000	0	0	-1	1000
17046315	24	202	0	-100	0	230	101300000	1000	0	0	-1	1000
17058875	21	189	0	-100	0	230	101300000	1000	0	0	-1	1000
17071435	24	198	0	-100	0	230	101300000	1000	0	0	-1	1000
17083995	16	199	0	-100	0	230	101300000	1000	0	0	-1	1000
17096555	24	198	0	-100	0	230	101300000	1000	0	0	-1	1000
17109115	16	206	0	-100	0	230	101300000	1000	0	0	-1	1000
17121675	19	209	0	-100	0	230	101300000	1000	0	0	-1	1000
17134235	24	203	0	-100	0	230	101300000	1000	0	0	-1	1000
17146795	19	210	0	-100	0	230	101300000	1000	0	0	-1	1000
17159355	26	201	0	-100	0	230	101300000	1000	0	0	-1	1000
17171915	19	206	0	-100	0	230	101300000	1000	0	0	-1	1000
17184475	24	204	0	-100	0	230	101300000	1000	0	0	-1	1000
17197035	19	207	0	-100	0	230	101300000	1000	0	0	-1	1000
17209595	24	202	0	-100	0	230	101300000	1000	0	0	-1	1000
17222155	19	202	0	-100	0	230	101300000	1000	0	0	-1	1000
17234715	24	197	0	-100	0	230	101300000	1000	0	0	-1	1000
17247275	16	211	0	-100	0	230	101300000	1000	0	0	-1	1000
17259835	26	201	0	-100	0	230	101300000	1000	0	0	-1	1000
17272395	19	204	0	-100	0	230	101300000	1000	0	0	-1	1000
17284955	24	201	0	-100	0	230	101300000	1000	0	0	-1	1000
17297515	19	206	0	-100	0	230	101300000	1000	0	0	-1	1000
17310075	24	200	0	-100	0	230	101300000	1000	0	0	-1	1000
17322635	19	210	0	-100	0	230	101300000	1000	0	0	-1	1000
17335195	19	202	0	-100	0	230	101300000	1000	0	0	-1	1000
17347755	24	200	0	-100	0	230	101300000	1000	0	0	-1	1000
17360315	19	200	0	-100	0	230	101300000	1000	0	0	-1	1000
17372875	24	200	0	-100	0	230	101300000	1000	0	0	-1	1000
17385435	19	205	0	-100	0	230	101300000	1000	0	0	-1	1000
17397995	26	205	0	-100	0	230	101300000	1000	0	0	-1	1000
17410555	21	208	0	-100	0	230	101300000	1000	0	0	-1	1000
17423115	26	206	0	-100	0	230	101300000	1000	0	0	-1	1000
17435675	19	210	0	-100	0	230	101300000	1000	0	0	-1	1000
17448235	19	200	0	-100	0	230	101300000	1000	0	0	-1	1000
17460795	24	201	0	-100	0	230	101300000	1000	0	0	-1	1000
17473355	19	204	0	-100	0	230	101300000	1000	0	0	-1	1000
17485915	26	204	0	-100	0	230	101300000	1000	0	0	-1	1000
17498475	19	210	0	-100	0	230	101300000	1000	0	0	-1	1000
17511035	19	204	0	-100	0	230	101300000	1000	0	0	-1	1000
17523595	24	195	0	-100	0	230	101300000	1000	0	0	-1	1000
17536155	19	208	0	-100	0	230	101300000	1000	0	0	-1	1000
17548715	16	206	0	-100	0	230	101300000	1000	0	0	-1	1000
17561275	21	200	0	-100	0	230	101300000	1000	0	0	-1	1000
17573835	21	210	0	-100	0	230	101300000	1000	0	0	-1	1000
17586395	26	202	0	-100	0	230	101300000	1000	0	0	-1	1000
17598955	16	205	0	-100	0	230	101300000	1000	0	0	-1	1000
17611515	19	191	0	-100	0	230	101300000	1000	0	0	-1	1000
17624075	24	202	0	-100	0	230	101300000	1000	0	0	-1	1000
17636635	24	202	0	-100	0	230	101300000	1000	0	0	-1	1000
17649195	21	206	0	-100	0	230	101300000	1000	0	0	-1	1000
17661755	16	206	0	-100	0	230	101300000	1000	0	0	-1	1000
17674315	24	197	0	-100	0	230	101300000	1000	0	0	-1	1000
17686875	19	210	0	-100	0	230	101300000	1000	0	0	-1	1000
17699435	19	204	0	-100	0	230	101300000	1000	0	0	-1	1000
17711995	24	209	0	-100	0	230	101300000	1000	0	0	-1	1000
17724555	21	200	0	-100	0	230	101300000	1000	0	0	-1	1000
17737115	24	203	0	-100	0	230	101300000	1000	0	0	-1	1000
17749675	19	207	0	-100	0	230	101300000	1000	0	0	-1	1000
17762235	21	201	0	-100	0	230	101300000	1000	0	0	-1	1000
17774795	19	211	0	-100	0	230	101300000	1000	0	0	-1	1000
17787355	21	203	0	-100	0	230	101300000	1000	0	0	-1	1000
17799915	19	210	0	-100	0	230	101300000	1000	0	0	-1	1000
17812475	19	168	0	-100	0	230	101300000	1000	0	0	-1	1000
17825035	21	202	0	-100	0	230	101300000	1000	0	0	-1	1000
17837595	16	210	0	-100	0	230	101300000	1000	0	0	-1	1000
17850155	26	198	0	-100	0	230	101300000	1000	0	0	-1	1000
17862715	21	206	0	-100	0	230	101300000	1000	0	0	-1	1000
17875275	26	205	0	-100	0	230	101300000	1000	0	0	-1	1000
17887835	16	205	0	-100	0	230	101300000	1000	0	0	-1	1000
17900395	26	196	0	-100	0	230	101300000	1000	0	0	-1	1000
17912955	21	208	0	-100	0	230	101300000	1000	0	0	-1	1000
17925515	29	224	0	-100	0	230	101300000	1000	0	0	-1	1000
17938075	16	207	0	-100	0	230	101300000	1000	0	0	-1	1000
17950635	26	207	0	-100	0	230	101300000	1000	0	0	-1	1000
17963195	19	210	0	-100	0	230	101300000	1000	0	0	-1	1000
17975755	24	201	0	-100	0	230	101300000	1000	0	0	-1	1000
17988315	19	208	0	-100	0	230	101300000	1000	0	0	-1	1000
18000875	26	199	0	-100	0	230	101300000	1000	0	0	-1	1000
18013435	19	207	0	-100	0	230	101300000	1000	0	0	-1	1000
18025995	24	205	0	-100	0	230	101300000	1000	0	0	-1	1000
18038555	16	210	0	-100	0	230	101300000	1000	0	0	-1	1000
18051115	19	210	0	-100	0	230	101300000	1000	0	0	-1	1000
18063675	26	200	0	-100	0	230	101300000	1000	0	0	-1	1000
18076235	19	205	0	-100	0	230	101300000	1000	0	0	-1	1000
18088795	24	200	0	-100	0	230	101300000	1000	0	0	-1	1000
18101355	21	209	0	-100	0	230	101300000	1000	0	0	-1	1000
18113915	26	202	0	-100	0	230	101300000	1000	0	0	-1	1000
18126475	19	209	0	-100	0	230	101300000	1000	0	0	-1	1000
18139035	21	202	0	-100	0	230	101300000	1000	0	0	-1	1000
18151595	19	213	0	-100	0	230	101300000	1000	0	0	-1	1000
18164155	26	203	0	-100	0	230	101300000	1000	0	0	-1	1000
18176715	21	207	0	-100	0	230	101300000	1000	0	0	-1	1000
18189275	24	205	0	-100	0	230	101300000	1000	0	0	-1	1000
18201835	21	206	0	-100	0	230	101300000	1000	0	0	-1	1000
18214395	21	201	0	-100	0	230	101300000	1000	0	0	-1	1000
18226955	21	199	0	-100	0	230	101300000	1000	0	0	-1	1000
18239515	16	205	0	-100	0	230	101300000	1000	0	0	-1	1000
18252075	21	201	0	-100	0	230	101300000	1000	0	0	-1	1000
18264635	16	207	0	-100	0	230	101300000	1000	0	0	-1	1000
18277195	24	202	0	-100	0	230	101300000	1000	0	0	-1	1000
18289755	19	207	0	-100	0	230	101300000	1000	0	0	-1	1000
18302315	19	185	0	-100	0	230	101300000	1000	0	0	-1	1000
18314875	26	201	0	-100	0	230	101300000	1000	0	0	-1	1000
18327435	19	209	0	-100	0	230	101300000	1000	0	0	-1	1000
18339995	16	202	0	-100	0	230	101300000	1000	0	0	-1	1000
18352555	24	197	0	-100	0	230	101300000	1000	0	0	-1	1000
18365115	21	202	0	-100	0	230	101300000	1000	0	0	-1	1000
18377675	16	206	0	-100	0	230	101300000	1000	0	0	-1	1000
18390235	24	197	0	-100	0	230	101300000	1000	0	0	-1	1000
18402795	19	209	0	-100	0	230	101300000	1000	0	0	-1	1000
18415355	19	201	0	-100	0	230	101300000	1000	0	0	-1	1000
18427915	24	201	0	-100	0	230	101300000	1000	0	0	-1	1000
18440475	16	210	0	-100	0	230	101300000	1000	0	0	-1	1000
18453035	26	201	0	-100	0	230	101300000	1000	0	0	-1	1000
18465595	16	205	0	-100	0	230	101300000	1000	0	0	-1	1000
18478155	21	205	0	-100	0	230	101300000	1000	0	0	-1	1000
18490715	24	204	0	-100	0	230	101300000	1000	0	0	-1	1000
18503275	16	210	0	-100	0	230	101300000	1000	0	0	-1	1000
18515835	26	204	0	-100	0	230	101300000	1000	0	0	-1	1000
18528395	21	211	0	-100	0	230	101300000	1000	0	0	-1	1000
18540955	26	204	0	-100	0	230	101300000	1000	0	0	-1	1000
18553515	16	206	0	-100	0	230	101300000	1000	0	0	-1	1000
18566075	16	206	0	-100	0	230	101300000	1000	0	0	-1	1000
18578635	24	201	0	-100	0	230	101300000	1000	0	0	-1	1000
18591195	21	210	0	-100	0	230	101300000	1000	0	0	-1	1000
18603755	26	204	0	-100	0	230	101300000	1000	0	0	-1	1000
18616315	19	210	0	-100	0	230	101300000	1000	0	0	-1	1000
18628875	19	202	0	-100	0	230	101300000	1000	0	0	-1	1000
18641435	24	204	0	-100	0	230	101300000	1000	0	0	-1	1000
18653995	21	201	0	-100	0	230	101300000	1000	0	0	-1	1000
18666555	26	201	0	-100	0	230	101300000	1000	0	0	-1	1000
18679115	19	210	0	-100	0	230	101300000	1000	0	0	-1	1000
18691675	24	201	0	-100	0	230	101300000	1000	0	0	-1	1000
18704235	21	207	0	-100	0	230	101300000	1000	0	0	-1	1000
18716795	26	201	0	-100	0	230	101300000	1000	0	0	-1	1000
18729355	21	212	0	-100	0	230	101300000	1000	0	0	-1	1000
18741915	24	202	0	-100	0	230	101300000	1000	0	0	-1	1000
18754475	19	208	0	-100	0	230	101300000	1000	0	0	-1	1000
18767035	24	202	0	-100	0	230	101300000	1000	0	0	-1	1000
18779595	19	209	0	-100	0	230	101300000	1000	0	0	-1	1000
18792155	21	206	0	-100	0	230	101300000	1000	0	0	-1	1000
18804715	21	202	0	-100	0	230	101300000	1000	0	0	-1	1000
18817275	16	206	0	-100	0	230	101300000	1000	0	0	-1	1000
18829835	21	202	0	-100	0	230	101300000	1000	0	0	-1	1000
18842395	19	202	0	-100	0	230	101300000	1000	0	0	-1	1000
18854955	24	202	0	-100	0	230	101300000	1000	0	0	-1	1000
18867515	19	203	0	-100	0	230	101300000	1000	0	0	-1	1000
18880075	24	202	0	-100	0	230	101300000	1000	0	0	-1	1000
18892635	16	209	0	-100	0	230	101300000	1000	0	0	-1	1000
18905195	26	199	0	-100	0	230	101300000	1000	0	0	-1	1000
18917755	21	206	0	-100	0	230	101300000	1000	0	0	-1	1000
18930315	26	199	0	-100	0	230	101300000	1000	0	0	-1	1000
18942875	16	207	0	-100	0	230	101300000	1000	0	0	-1	1000
18955435	24	202	0	-100	0	230	101300000	1000	0	0	-1	1000
18967995	19	208	0	-100	0	230	101300000	1000	0	0	-1	1000
18980555	26	201	0	-100	0	230	101300000	1000	0	0	-1	1000
18993115	21	207	0	-100	0	230	101300000	1000	0	0	-1	1000
19005675	24	203	0	-100	0	230	101300000	1000	0	0	-1	1000
19018235	19	211	0	-100	0	230	101300000	1000	0	0	-1	1000
19030795	19	201	0	-100	0	230	101300000	1000	0	0	-1	1000
19043355	24	201	0	-100	0	230	101300000	1000	0	0	-1	1000
19055915	21	207	0	-100	0	230	101300000	1000	0	0	-1	1000
19068475	19	202	0	-100	0	230	101300000	1000	0	0	-1	1000
19081035	26	203	0	-100	0	230	101300000	1000	0	0	-1	1000
19093595	21	203	0	-100	0	230	101300000	1000	0	0	-1	1000
19106155	21	210	0	-100	0	230	101300000	1000	0	0	-1	1000
19118715	26	204	0	-100	0	230	101300000	1000	0	0	-1	1000
19131275	19	208	0	-100	0	230	101300000	1000	0	0	-1	1000
19143835	19	203	0	-100	0	230	101300000	1000	0	0	-1	1000
19156395	24	203	0	-100	0	230	101300000	1000	0	0	-1	1000
19168955	19	209	0	-100	0	230	101300000	1000	0	0	-1	1000
19181515	19	201	0	-100	0	230	101300000	1000	0	0	-1	1000
19194075	24	202	0	-100	0	230	101300000	1000	0	0	-1	1000
19206635	19	207	0	-100	0	230	101300000	1000	0	0	-1	1000
19219195	24	202	0	-100	0	230	101300000	1000	0	0	-1	1000
19231755	21	202	0	-100	0	230	101300000	1000	0	0	-1	1000
19244315	16	207	0	-100	0	230	101300000	1000	0	0	-1	1000
19256875	24	202	0	-100	0	230	101300000	1000	0	0	-1	1000
19269435	19	206	0	-100	0	230	101300000	1000	0	0	-1	1000
19281995	24	209	0	-100	0	230	101300000	1000	0	0	-1	1000
19294555	21	209	0	-100	0	230	101300000	1000	0	0	-1	1000
19307115	29	202	0	-100	0	230	101300000	1000	0	0	-1	1000
19319675	19	210	0	-100	0	230	101300000	1000	0	0	-1	1000
19332235	26	203	0	-100	0	230	101300000	1000	0	0	-1	1000
19344795	19	209	0	-100	0	230	101300000	1000	0	0	-1	1000
19357355	26	200	0	-100	0	230	101300000	1000	0	0	-1	1000
19369915	21	211	0	-100	0	230	101300000	1000	0	0	-1	1000
19382475	26	201	0	-100	0	230	101300000	1000	0	0	-1	1000
19395035	16	207	0	-100	0	230	101300000	1000	0	0	-1	1000
19407595	16	206	0	-100	0	230	101300000	1000	0	0	-1	1000
19420155	26	203	0	-100	0	230	101300000	1000	0	0	-1	1000
19432715	16	206	0	-100	0	230	101300000	1000	0	0	-1	1000
19445275	16	204	0	-100	0	230	101300000	1000	0	0	-1	1000
19457835	21	201	0	-100	0	230	101300000	1000	0	0	-1	1000
19470395	19	206	0	-100	0	230	101300000	1000	0	0	-1	1000
19482955	24	203	0	-100	0	230	101300000	1000	0	0	-1	1000
19495515	24	203	0	-100	0	230	101300000	1000	0	0	-1	1000
19508075	16	210	0	-100	0	230	101300000	1000	0	0	-1	1000
19520635	24	201	0	-100	0	230	101300000	1000	0	0	-1	1000
19533195	16	210	0	-100	0	230	101300000	1000	0	0	-1	1000
19545755	24	202	0	-100	0	230	101300000	1000	0	0	-1	1000
19558315	16	206	0	-100	0	230	101300000	1000	0	0	-1	1000
19570875	19	210	0	-100	0	230	101300000	1000	0	0	-1	1000
19583435	26	199	0	-100	0	230	101300000	1000	0	0	-1	1000
19595995	19	206	0	-100	0	230	101300000	1000	0	0	-1	1000
19608555	24	201	0	-100	0	230	101300000	1000	0	0	-1	1000
19621115	19	202	0	-100	0	230	101300000	1000	0	0	-1	1000
19633675	21	202	0	-100	0	230	101300000	1000	0	0	-1	1000
19646235	29	202	0	-100	0	230	101300000	1000	0	0	-1	1000
19658795	16	208	0	-100	0	230	101300000	1000	0	0	-1	1000
19671355	21	202	0	-100	0	230	101300000	1000	0	0	-1	1000
19683915	16	208	0	-100	0	230	101300000	1000	0	0	-1	1000
19696475	21	201	0	-100	0	230	101300000	1000	0	0	-1	1000
19709035	19	202	0	-100	0	230	101300000	1000	0	0	-1	1000
19721595	21	206	0	-100	0	230	101300000	1000	0	0	-1	1000
19734155	26	202	0	-100	0	230	101300000	1000	0	0	-1	1000
19746715	19	205	0	-100	0	230	101300000	1000	0	0	-1	1000
19759275	24	202	0	-100	0	230	101300000	1000	0	0	-1	1000
19771835	21	203	0	-100	0	230	101300000	1000	0	0	-1	1000
19784395	16	205	0	-100	0	230	101300000	1000	0	0	-1	1000
19796955	26	204	0	-100	0	230	101300000	1000	0	0	-1	1000
19809515	21	206	0	-100	0	230	101300000	1000	0	0	-1	1000
19822075	24	202	0	-100	0	230	101300000	1000	0	0	-1	1000
19834635	19	210	0	-100	0	230	101300000	1000	0	0	-1	1000
19847195	26	203	0	-100	0	230	101300000	1000	0	0	-1	1000
19859755	19	209	0	-100	0	230	101300000	1000	0	0	-1	1000
19872315	26	200	0	-100	0	230	101300000	1000	0	0	-1	1000
19884875	19	206	0	-100	0	230	101300000	1000	0	0	-1	1000
19897435	21	202	0	-100	0	230	101300000	1000	0	0	-1	1000
19909995	19	208	0	-100	0	230	101300000	1000	0	0	-1	1000
19922555	21	204	0	-100	0	230	101300000	1000	0	0	-1	1000
19935115	19	202	0	-100	0	230	101300000	1000	0	0	-1	1000
19947675	24	200	0	-100	0	230	101300000	1000	0	0	-1	1000
19960235	19	209	0	-100	0	230	101300000	1000	0	0	-1	1000
19972795	19	202	0	-100	0	230	101300000	1000	0	0	-1	1000
19985355	19	210	0	-100	0	230	101300000	1000	0	0	-1	1000
19997915	21	204	0	-100	0	230	101300000	1000	0	0	-1	1000
20010475	19	207	0	-100	0	230	101300000	1000	0	0	-1	1000
20023035	16	206	0	-100	0	230	101300000	1000	0	0	-1	1000
20035595	24	203	0	-100	0	230	101300000	1000	0	0	-1	1000
20048155	21	209	0	-100	0	230	101300000	1000	0	0	-1	1000
20060715	21	202	0	-100	0	230	101300000	1000	0	0	-1	1000
20073275	21	201	0	-100	0	230	101300000	1000	0	0	-1	1000
20085835	16	208	0	-100	0	230	101300000	1000	0	0	-1	1000
20098395	26	203	0	-100	0	230	101300000	1000	0	0	-1	1000
20110955	21	205	0	-100	0	230	101300000	1000	0	0	-1	1000
20123515	19	204	0	-100	0	230	101300000	1000	0	0	-1	1000
20136075	24	202	0	-100	0	230	101300000	1000	0	0	-1	1000
20148635	21	207	0	-100	0	230	101300000	1000	0	0	-1	1000
20161195	19	202	0	-100	0	230	101300000	1000	0	0	-1	1000
20173755	21	202	0	-100	0	230	101300000	1000	0	0	-1	1000
20186315	16	208	0	-100	0	230	101300000	1000	0	0	-1	1000
20198875	26	200	0	-100	0	230	101300000	1000	0	0	-1	1000
20211435	16	207	0	-100	0	230	101300000	1000	0	0	-1	1000
20223995	19	208	0	-100	0	230	101300000	1000	0	0	-1	1000
20299355	19	201	0	-100	0	230	101300000	1000	0	0	-1	1000
20311915	26	201	0	-100	0	230	101300000	1000	0	0	-1	1000
20324475	21	203	0	-100	0	230	101300000	1000	0	0	-1	1000
20337035	19	207	0	-100	0	230	101300000	1000	0	0	-1	1000
20349595	21	203	0	-100	0	230	101300000	1000	0	0	-1	1000
20362155	26	203	0	-100	0	230	101300000	1000	0	0	-1	1000
20374715	24	206	0	-100	0	230	101300000	1000	0	0	-1	1000
20387275	19	202	0	-100	0	230	101300000	1000	0	0	-1	1000
20399835	21	204	0	-100	0	230	101300000	1000	0	0	-1	1000
20412395	16	209	0	-100	0	230	101300000	1000	0	0	-1	1000
20424955	24	200	0	-100	0	230	101300000	1000	0	0	-1	1000
20500315	19	208	0	-100	0	230	101300000	1000	0	0	-1	1000
20512875	24	202	0	-100	0	230	101300000	1000	0	0	-1	1000
20525435	19	210	0	-100	0	230	101300000	1000	0	0	-1	1000
20537995	19	208	0	-100	0	230	101300000	1000	0	0	-1	1000
20550555	21	201	0	-100	0	230	101300000	1000	0	0	-1	1000
20563115	16	206	0	-100	0	230	101300000	1000	0	0	-1	1000
20575675	24	202	0	-100	0	230	101300000	1000	0	0	-1	1000
20588235	19	207	0	-100	0	230	101300000	1000	0	0	-1	1000
20600795	26	203	0	-100	0	230	101300000	1000	0	0	-1	1000
20613355	24	203	0	-100	0	230	101300000	1000	0	0	-1	1000
20625915	16	209	0	-100	0	230	101300000	1000	0	0	-1	1000
20638475	24	201	0	-100	0	230	101300000	1000	0	0	-1	1000
20651035	19	206	0	-100	0	230	101300000	1000	0	0	-1	1000
20663595	24	201	0	-100	0	230	101300000	1000	0	0	-1	1000
20676155	21	210	0	-100	0	230	101300000	1000	0	0	-1	1000
20688715	26	203	0	-100	0	230	101300000	1000	0	0	-1	1000
20701275	19	209	0	-100	0	230	101300000	1000	0	0	-1	1000
20713835	26	203	0	-100	0	230	101300000	1000	0	0	-1	1000
20726395	19	210	0	-100	0	230	101300000	1000	0	0	-1	1000
20738955	16	208	0	-100	0	230	101300000	1000	0	0	-1	1000
20751515	26	204	0	-100	0	230	101300000	1000	0	0	-1	1000
20764075	19	207	0	-100	0	230	101300000	1000	0	0	-1	1000
20776635	26	204	0	-100	0	230	101300000	1000	0	0	-1	1000
20789195	16	203	0	-100	0	230	101300000	1000	0	0	-1	1000
20801755	19	202	0	-100	0	230	101300000	1000	0	0	-1	1000
20814315	24	202	0	-100	0	230	101300000	1000	0	0	-1	1000
20826875	19	204	0	-100	0	230	101300000	1000	0	0	-1	1000
20839435	24	201	0	-100	0	230	101300000	1000	0	0	-1	1000
20851995	24	202	0	-100	0	230	101300000	1000	0	0	-1	1000
20864555	21	202	0	-100	0	230	101300000	1000	0	0	-1	1000
20877115	21	203	0	-100	0	230	101300000	1000	0	0	-1	1000
20889675	19	203	0	-100	0	230	101300000	1000	0	0	-1	1000
20902235	24	203	0	-100	0	230	101300000	1000	0	0	-1	1000
20914795	19	207	0	-100	0	230	101300000	1000	0	0	-1	1000
20927355	26	201	0	-100	0	230	101300000	1000	0	0	-1	1000
20939915	19	208	0	-100	0	230	101300000	1000	0	0	-1	1000
20952475	29	204	0	-100	0	230	101300000	1000	0	0	-1	1000
20965035	19	210	0	-100	0	230	101300000	1000	0	0	-1	1000
20977595	26	201	0	-100	0	230	101300000	1000	0	0	-1	1000
20990155	19	208	0	-100	0	230	101300000	1000	0	0	-1	1000
21002715	21	202	0	-100	0	230	101300000	1000	0	0	-1	1000
21015275	21	202	0	-100	0	230	101300000	1000	0	0	-1	1000
21027835	16	208	0	-100	0	230	101300000	1000	0	0	-1	1000
21040395	26	203	0	-100	0	230	101300000	1000	0	0	-1	1000
21052955	21	210	0	-100	0	230	101300000	1000	0	0	-1	1000
21065515	26	202	0	-100	0	230	101300000	1000	0	0	-1	1000
21078075	19	209	0	-100	0	230	101300000	1000	0	0	-1	1000
21090635	19	203	0	-100	0	230	101300000	1000	0	0	-1	1000
21103195	21	202	0	-100	0	230	101300000	1000	0	0	-1	1000
21115755	16	207	0	-100	0	230	101300000	1000	0	0	-1	1000
21128315	26	201	0	-100	0	230	101300000	1000	0	0	-1	1000
21140875	21	206	0	-100	0	230	101300000	1000	0	0	-1	1000
21153435	29	205	0	-100	0	230	101300000	1000	0	0	-1	1000
21165995	19	202	0	-100	0	230	101300000	1000	0	0	-1	1000
21178555	21	202	0	-100	0	230	101300000	1000	0	0	-1	1000
21191115	19	211	0	-100	0	230	101300000	1000	0	0	-1	1000
21203675	26	203	0	-100	0	230	101300000	1000	0	0	-1	1000
21216235	19	209	0	-100	0	230	101300000	1000	0	0	-1	1000
21228795	24	201	0	-100	0	230	101300000	1000	0	0	-1	1000
21241355	21	209	0	-100	0	230	101300000	1000	0	0	-1	1000
21253915	24	201	0	-100	0	230	101300000	1000	0	0	-1	1000
21266475	19	204	0	-100	0	230	101300000	1000	0	0	-1	1000
21279035	21	202	0	-100	0	230	101300000	1000	0	0	-1	1000
21291595	19	203	0	-100	0	230	101300000	1000	0	0	-1	1000
21304155	21	202	0	-100	0	230	101300000	1000	0	0	-1	1000
21316715	16	207	0	-100	0	230	101300000	1000	0	0	-1	1000
21329275	21	201	0	-100	0	230	101300000	1000	0	0	-1	1000
21341835	16	207	0	-100	0	230	101300000	1000	0	0	-1	1000
21354395	21	202	0	-100	0	230	101300000	1000	0	0	-1	1000
21366955	16	208	0	-100	0	230	101300000	1000	0	0	-1	1000
21379515	21	203	0	-100	0	230	101300000	1000	0	0	-1	1000
21392075	19	202	0	-100	0	230	101300000	1000	0	0	-1	1000
21404635	19	210	0	-100	0	230	101300000	1000	0	0	-1	1000
21417195	24	202	0	-100	0	230	101300000	1000	0	0	-1	1000
21429755	21	209	0	-100	0	230	101300000	1000	0	0	-1	1000
21442315	24	204	0	-100	0	230	101300000	1000	0	0	-1	1000
21454875	16	205	0	-100	0	230	101300000	1000	0	0	-1	1000
21467435	21	204	0	-100	0	230	101300000	1000	0	0	-1	1000
21479995	19	202	0	-100	0	230	101300000	1000	0	0	-1	1000
21492555	19	203	0	-100	0	230	101300000	1000	0	0	-1	1000
21505115	26	204	0	-100	0	230	101300000	1000	0	0	-1	1000
21517675	21	207	0	-100	0	230	101300000	1000	0	0	-1	1000
21530235	21	206	0	-100	0	230	101300000	1000	0	0	-1	1000
21542795	24	203	0	-100	0	230	101300000	1000	0	0	-1	1000
21555355	21	210	0	-100	0	230	101300000	1000	0	0	-1	1000
21567915	19	202	0	-100	0	230	101300000	1000	0	0	-1	1000
21580475	24	202	0	-100	0	230	101300000	1000	0	0	-1	1000
21593035	19	201	0	-100	0	230	101300000	1000	0	0	-1	1000
21605595	19	209	0	-100	0	230	101300000	1000	0	0	-1	1000
21618155	19	204	0	-100	0	230	101300000	1000	0	0	-1	1000
21630715	26	202	0	-100	0	230	101300000	1000	0	0	-1	1000
21643275	16	208	0	-100	0	230	101300000	1000	0	0	-1	1000
21655835	26	199	0	-100	0	230	101300000	1000	0	0	-1	1000
21668395	19	210	0	-100	0	230	101300000	1000	0	0	-1	1000
21680955	19	199	0	-100	0	230	101300000	1000	0	0	-1	1000
21693515	24	202	0	-100	0	230	101300000	1000	0	0	-1	1000
21706075	16	207	0	-100	0	230	101300000	1000	0	0	-1	1000
21718635	24	202	0	-100	0	230	101300000	1000	0	0	-1	1000
21731195	24	203	0	-100	0	230	101300000	1000	0	0	-1	1000
21743755	16	210	0	-100	0	230	101300000	1000	0	0	-1	1000
21756315	24	203	0	-100	0	230	101300000	1000	0	0	-1	1000
21768875	26	203	0	-100	0	230	101300000	1000	0	0	-1	1000
21781435	19	210	0	-100	0	230	101300000	1000	0	0	-1	1000
21793995	19	209	0	-100	0	230	101300000	1000	0	0	-1	1000
21806555	24	202	0	-100	0	230	101300000	1000	0	0	-1	1000
21819115	21	209	0	-100	0	230	101300000	1000	0	0	-1	1000
21831675	26	203	0	-100	0	230	101300000	1000	0	0	-1	1000
21844235	19	211	0	-100	0	230	101300000	1000	0	0	-1	1000
21856795	19	205	0	-100	0	230	101300000	1000	0	0	-1	1000
21869355	26	202	0	-100	0	230	101300000	1000	0	0	-1	1000
21881915	21	202	0	-100	0	230	101300000	1000	0	0	-1	1000
21894475	19	206	0	-100	0	230	101300000	1000	0	0	-1	1000
21907035	26	203	0	-100	0	230	101300000	1000	0	0	-1	1000
21919595	19	211	0	-100	0	230	101300000	1000	0	0	-1	1000
21932155	16	208	0	-100	0	230	101300000	1000	0	0	-1	1000
21944715	26	200	0	-100	0	230	101300000	1000	0	0	-1	1000
21957275	16	202	0	-100	0	230	101300000	1000	0	0	-1	1000
21969835	19	205	0	-100	0	230	101300000	1000	0	0	-1	1000
21982395	29	203	0	-100	0	230	101300000	1000	0	0	-1	1000
21994955	21	205	0	-100	0	230	101300000	1000	0	0	-1	1000
22007515	16	208	0	-100	0	230	101300000	1000	0	0	-1	1000
22020075	21	202	0	-100	0	230	101300000	1000	0	0	-1	1000
22032635	19	205	0	-100	0	230	101300000	1000	0	0	-1	1000
22045195	26	201	0	-100	0	230	101300000	1000	0	0	-1	1000
22057755	19	209	0	-100	0	230	101300000	1000	0	0	-1	1000
22070315	16	206	0	-100	0	230	101300000	1000	0	0	-1	1000
22082875	26	204	0	-100	0	230	101300000	1000	0	0	-1	1000
22095435	19	208	0	-100	0	230	101300000	1000	0	0	-1	1000
22107995	19	208	0	-100	0	230	101300000	1000	0	0	-1	1000
22120555	24	201	0	-100	0	230	101300000	1000	0	0	-1	1000
22133115	21	205	0	-100	0	230	101300000	1000	0	0	-1	1000
22145675	21	205	0	-100	0	230	101300000	1000	0	0	-1	1000
22158235	26	203	0	-100	0	230	101300000	1000	0	0	-1	1000
22170795	19	205	0	-100	0	230	101300000	1000	0	0	-1	1000
22183355	26	201	0	-100	0	230	101300000	1000	0	0	-1	1000
22195915	19	210	0	-100	0	230	101300000	1000	0	0	-1	1000
22208475	21	205	0	-100	0	230	101300000	1000	0	0	-1	1000
22221035	21	202	0	-100	0	230	101300000	1000	0	0	-1	1000
22233595	16	209	0	-100	0	230	101300000	1000	0	0	-1	1000
22246155	26	203	0	-100	0	230	101300000	1000	0	0	-1	1000
22258715	19	210	0	-100	0	230	101300000	1000	0	0	-1	1000
22271275	19	205	0	-100	0	230	101300000	1000	0	0	-1	1000
22283835	26	202	0	-100	0	230	101300000	1000	0	0	-1	1000
22296395	21	202	0	-100	0	230	101300000	1000	0	0	-1	1000
22308955	19	205	0	-100	0	230	101300000	1000	0	0	-1	1000
22321515	26	201	0	-100	0	230	101300000	1000	0	0	-1	1000
22334075	19	211	0	-100	0	230	101300000	1000	0	0	-1	1000
22346635	16	206	0	-100	0	230	101300000	1000	0	0	-1	1000
22359195	26	203	0	-100	0	230	101300000	1000	0	0	-1	1000
22371755	19	207	0	-100	0	230	101300000	1000	0	0	-1	1000
22384315	26	202	0	-100	0	230	101300000	1000	0	0	-1	1000
22396875	19	207	0	-100	0	230	101300000	1000	0	0	-1	1000
22409435	19	203	0	-100	0	230	101300000	1000	0	0	-1	1000
22421995	24	207	0	-100	0	230	101300000	1000	0	0	-1	1000
22434555	19	207	0	-100	0	230	101300000	1000	0	0	-1	1000
22447115	26	201	0	-100	0	230	101300000	1000	0	0	-1	1000
22459675	21	210	0	-100	0	230	101300000	1000	0	0	-1	1000
22472235	26	204	0	-100	0	230	101300000	1000	0	0	-1	1000
22484795	19	210	0	-100	0	230	101300000	1000	0	0	-1	1000
22497355	21	206	0	-100	0	230	101300000	1000	0	0	-1	1000
22509915	24	201	0	-100	0	230	101300000	1000	0	0	-1	1000
22522475	16	210	0	-100	0	230	101300000	1000	0	0	-1	1000
22535035	26	204	0	-100	0	230	101300000	1000	0	0	-1	1000
22547595	19	206	0	-100	0	230	101300000	1000	0	0	-1	1000
22560155	26	204	0	-100	0	230	101300000	1000	0	0	-1	1000
22572715	19	206	0	-100	0	230	101300000	1000	0	0	-1	1000
22585275	24	201	0	-100	0	230	101300000	1000	0	0	-1	1000
22597835	21	210	0	-100	0	230	101300000	1000	0	0	-1	1000
22610395	26	202	0	-100	0	230	101300000	1000	0	0	-1	1000
22622955	19	204	0	-100	0	230	101300000	1000	0	0	-1	1000
22635515	19	210	0	-100	0	230	101300000	1000	0	0	-1	1000
22648075	26	203	0	-100	0	230	101300000	1000	0	0	-1	1000
22660635	21	209	0	-100	0	230	101300000	1000	0	0	-1	1000
22673195	26	200	0	-100	0	230	101300000	1000	0	0	-1	1000
22685755	19	205	0	-100	0	230	101300000	1000	0	0	-1	1000
22698315	26	201	0	-100	0	230	101300000	1000	0	0	-1	1000
22710875	21	210	0	-100	0	230	101300000	1000	0	0	-1	1000
22723435	26	201	0	-100	0	230	101300000	1000	0	0	-1	1000
22735995	21	202	0	-100	0	230	101300000	1000	0	0	-1	1000
22748555	29	204	0	-100	0	230	101300000	1000	0	0	-1	1000
22761115	16	205	0	-100	0	230	101300000	1000	0	0	-1	1000
22773675	24	201	0	-100	0	230	101300000	1000	0	0	-1	1000
22786235	21	209	0	-100	0	230	101300000	1000	0	0	-1	1000
22798795	26	201	0	-100	0	230	101300000	1000	0	0	-1	1000
22811355	19	207	0	-100	0	230	101300000	1000	0	0	-1	1000
22823915	26	203	0	-100	0	230	101300000	1000	0	0	-1	1000
22836475	16	207	0	-100	0	230	101300000	1000	0	0	-1	1000
22849035	19	211	0	-100	0	230	101300000	1000	0	0	-1	1000
22861595	19	198	0	-100	0	230	101300000	1000	0	0	-1	1000
22874155	19	212	0	-100	0	230	101300000	1000	0	0	-1	1000
22886715	24	203	0	-100	0	230	101300000	1000	0	0	-1	1000
22899275	16	205	0	-100	0	230	101300000	1000	0	0	-1	1000
22911835	26	203	0	-100	0	230	101300000	1000	0	0	-1	1000
22924395	24	209	0	-100	0	230	101300000	1000	0	0	-1	1000
22936955	26	201	0	-100	0	230	101300000	1000	0	0	-1	1000
22949515	21	207	0	-100	0	230	101300000	1000	0	0	-1	1000
22962075	24	204	0	-100	0	230	101300000	1000	0	0	-1	1000
22974635	19	209	0	-100	0	230	101300000	1000	0	0	-1	1000
22987195	24	202	0	-100	0	230	101300000	1000	0	0	-1	1000
22999755	19	210	0	-100	0	230	101300000	1000	0	0	-1	1000
23012315	26	200	0	-100	0	230	101300000	1000	0	0	-1	1000
23024875	19	208	0	-100	0	230	101300000	1000	0	0	-1	1000
23037435	24	200	0	-100	0	230	101300000	1000	0	0	-1	1000
23049995	21	201	0	-100	0	230	101300000	1000	0	0	-1	1000
23062555	26	201	0	-100	0	230	101300000	1000	0	0	-1	1000
23075115	19	206	0	-100	0	230	101300000	1000	0	0	-1	1000
23087675	26	202	0	-100	0	230	101300000	1000	0	0	-1	1000
23100235	19	205	0	-100	0	230	101300000	1000	0	0	-1	1000
23112795	26	201	0	-100	0	230	101300000	1000	0	0	-1	1000
23125355	19	209	0	-100	0	230	101300000	1000	0	0	-1	1000
23137915	26	202	0	-100	0	230	101300000	1000	0	0	-1	1000
23150475	19	210	0	-100	0	230	101300000	1000	0	0	-1	1000
23163035	19	202	0	-100	0	230	101300000	1000	0	0	-1	1000
23175595	24	199	0	-100	0	230	101300000	1000	0	0	-1	1000
23225835	19	210	0	-100	0	230	101300000	1000	0	0	-1	1000
23238395	19	203	0	-100	0	230	101300000	1000	0	0	-1	1000
23250955	24	200	0	-100	0	230	101300000	1000	0	0	-1	1000
23263515	21	208	0	-100	0	230	101300000	1000	0	0	-1	1000
23276075	19	201	0	-100	0	230	101300000	1000	0	0	-1	1000
23288635	26	200	0	-100	0	230	101300000	1000	0	0	-1	1000
23301195	21	206	0	-100	0	230	101300000	1000	0	0	-1	1000
23313755	19	202	0	-100	0	230	101300000	1000	0	0	-1	1000
23326315	24	201	0	-100	0	230	101300000	1000	0	0	-1	1000
23338875	21	206	0	-100	0	230	101300000	1000	0	0	-1	1000
23351435	21	204	0	-100	0	230	101300000	1000	0	0	-1	1000
23363995	24	201	0	-100	0	230	101300000	1000	0	0	-1	1000
23439355	19	204	0	-100	0	230	101300000	1000	0	0	-1	1000
23451915	26	201	0	-100	0	230	101300000	1000	0	0	-1	1000
23464475	19	210	0	-100	0	230	101300000	1000	0	0	-1	1000
23477035	19	205	0	-100	0	230	101300000	1000	0	0	-1	1000
23489595	24	201	0	-100	0	230	101300000	1000	0	0	-1	1000
23502155	16	209	0	-100	0	230	101300000	1000	0	0	-1	1000
23514715	26	201	0	-100	0	230	101300000	1000	0	0	-1	1000
23527275	16	206	0	-100	0	230	101300000	1000	0	0	-1	1000
23539835	26	202	0	-100	0	230	101300000	1000	0	0	-1	1000
23552395	19	209	0	-100	0	230	101300000	1000	0	0	-1	1000
23564955	21	204	0	-100	0	230	101300000	1000	0	0	-1	1000
23577515	21	203	0	-100	0	230	101300000	1000	0	0	-1	1000
23590075	16	209	0	-100	0	230	101300000	1000	0	0	-1	1000
23602635	24	202	0	-100	0	230	101300000	1000	0	0	-1	1000
23615195	19	204	0	-100	0	230	101300000	1000	0	0	-1	1000
23627755	19	205	0	-100	0	230	101300000	1000	0	0	-1	1000
23640315	19	201	0	-100	0	230	101300000	1000	0	0	-1	1000
23652875	21	203	0	-100	0	230	101300000	1000	0	0	-1	1000
23665435	21	202	0	-100	0	230	101300000	1000	0	0	-1	1000
23677995	19	202	0	-100	0	230	101300000	1000	0	0	-1	1000
23690555	26	203	0	-100	0	230	101300000	1000	0	0	-1	1000
23703115	21	206	0	-100	0	230	101300000	1000	0	0	-1	1000
23715675	29	204	0	-100	0	230	101300000	1000	0	0	-1	1000
23728235	19	210	0	-100	0	230	101300000	1000	0	0	-1	1000
23740795	24	202	0	-100	0	230	101300000	1000	0	0	-1	1000
23753355	19	209	0	-100	0	230	101300000	1000	0	0	-1	1000
23765915	26	200	0	-100	0	230	101300000	1000	0	0	-1	1000
23778475	19	205	0	-100	0	230	101300000	1000	0	0	-1	1000
23791035	24	203	0	-100	0	230	101300000	1000	0	0	-1	1000
23803595	16	208	0	-100	0	230	101300000	1000	0	0	-1	1000
23816155	24	202	0	-100	0	230	101300000	1000	0	0	-1	1000
23828715	19	205	0	-100	0	230	101300000	1000	0	0	-1	1000
23841275	21	203	0	-100	0	230	101300000	1000	0	0	-1	1000
23853835	19	201	0	-100	0	230	101300000	1000	0	0	-1	1000
23866395	19	209	0	-100	0	230	101300000	1000	0	0	-1	1000
23878955	29	204	0	-100	0	230	101300000	1000	0	0	-1	1000
23891515	21	210	0	-100	0	230	101300000	1000	0	0	-1	1000
23904075	24	203	0	-100	0	230	101300000	1000	0	0	-1	1000
23916635	19	209	0	-100	0	230	101300000	1000	0	0	-1	1000
23929195	26	202	0	-100	0	230	101300000	1000	0	0	-1	1000
23941755	21	203	0	-100	0	230	101300000	1000	0	0	-1	1000
23954315	21	206	0	-100	0	230	101300000	1000	0	0	-1	1000
23966875	26	202	0	-100	0	230	101300000	1000	0	0	-1	1000
23979435	19	206	0	-100	0	230	101300000	1000	0	0	-1	1000
23991995	26	209	0	-100	0	230	101300000	1000	0	0	-1	1000
24004555	19	210	0	-100	0	230	101300000	1000	0	0	-1	1000
24017115	24	202	0	-100	0	230	101300000	1000	0	0	-1	1000
24029675	19	206	0	-100	0	230	101300000	1000	0	0	-1	1000
24042235	24	203	0	-100	0	230	101300000	1000	0	0	-1	1000
24054795	16	207	0	-100	0	230	101300000	1000	0	0	-1	1000
24067355	19	210	0	-100	0	230	101300000	1000	0	0	-1	1000
24079915	24	203	0	-100	0	230	101300000	1000	0	0	-1	1000
24092475	21	207	0	-100	0	230	101300000	1000	0	0	-1	1000
24105035	24	201	0	-100	0	230	101300000	1000	0	0	-1	1000
24117595	16	210	0	-100	0	230	101300000	1000	0	0	-1	1000
24130155	21	202	0	-100	0	230	101300000	1000	0	0	-1	1000
24142715	21	206	0	-100	0	230	101300000	1000	0	0	-1	1000
24155275	16	206	0	-100	0	230	101300000	1000	0	0	-1	1000
24167835	26	204	0	-100	0	230	101300000	1000	0	0	-1	1000
24180395	16	206	0	-100	0	230	101300000	1000	0	0	-1	1000
24192955	19	209	0	-100	0	230	101300000	1000	0	0	-1	1000
24205515	24	199	0	-100	0	230	101300000	1000	0	0	-1	1000
24218075	16	209	0	-100	0	230	101300000	1000	0	0	-1	1000
24230635	24	202	0	-100	0	230	101300000	1000	0	0	-1	1000
24243195	16	208	0	-100	0	230	101300000	1000	0	0	-1	1000
24255755	24	201	0	-100	0	230	101300000	1000	0	0	-1	1000
24268315	19	201	0	-100	0	230	101300000	1000	0	0	-1	1000
24280875	16	207	0	-100	0	230	101300000	1000	0	0	-1	1000
24293435	26	200	0	-100	0	230	101300000	1000	0	0	-1	1000
24305995	19	206	0	-100	0	230	101300000	1000	0	0	-1	1000
24318555	19	206	0	-100	0	230	101300000	1000	0	0	-1	1000
24331115	19	202	0	-100	0	230	101300000	1000	0	0	-1	1000
24343675	19	208	0	-100	0	230	101300000	1000	0	0	-1	1000
24356235	24	203	0	-100	0	230	101300000	1000	0	0	-1	1000
24368795	16	209	0	-100	0	230	101300000	1000	0	0	-1	1000
24381355	21	202	0	-100	0	230	101300000	1000	0	0	-1	1000
24393915	14	208	0	-100	0	230	101300000	1000	0	0	-1	1000
24406475	26	203	0	-100	0	230	101300000	1000	0	0	-1	1000
24419035	19	210	0	-100	0	230	101300000	1000	0	0	-1	1000
24431595	21	204	0	-100	0	230	101300000	1000	0	0	-1	1000
24444155	21	202	0	-100	0	230	101300000	1000	0	0	-1	1000
24456715	16	206	0	-100	0	230	101300000	1000	0	0	-1	1000
24469275	19	207	0	-100	0	230	101300000	1000	0	0	-1	1000
24481835	14	207	0	-100	0	230	101300000	1000	0	0	-1	1000
24494395	21	203	0	-100	0	230	101300000	1000	0	0	-1	1000
24506955	16	209	0	-100	0	230	101300000	1000	0	0	-1	1000
24519515	21	201	0	-100	0	230	101300000	1000	0	0	-1	1000
24532075	19	207	0	-100	0	230	101300000	1000	0	0	-1	1000
24544635	19	200	0	-100	0	230	101300000	1000	0	0	-1	1000
24557195	26	202	0	-100	0	230	101300000	1000	0	0	-1	1000
24569755	21	209	0	-100	0	230	101300000	1000	0	0	-1	1000
24582315	26	203	0	-100	0	230	101300000	1000	0	0	-1	1000
24594875	21	203	0	-100	0	230	101300000	1000	0	0	-1	1000
24607435	19	206	0	-100	0	230	101300000	1000	0	0	-1	1000
24619995	26	210	0	-100	0	230	101300000	1000	0	0	-1	1000
24632555	19	208	0	-100	0	230	101300000	1000	0	0	-1	1000
24645115	16	206	0	-100	0	230	101300000	1000	0	0	-1	1000
24657675	26	203	0	-100	0	230	101300000	1000	0	0	-1	1000
24670235	21	207	0	-100	0	230	101300000	1000	0	0	-1	1000
24682795	26	202	0	-100	0	230	101300000	1000	0	0	-1	1000
24695355	19	209	0	-100	0	230	101300000	1000	0	0	-1	1000
24707915	19	200	0	-100	0	230	101300000	1000	0	0	-1	1000
24720475	21	201	0	-100	0	230	101300000	1000	0	0	-1	1000
24733035	16	208	0	-100	0	230	101300000	1000	0	0	-1	1000
24745595	26	199	0	-100	0	230	101300000	1000	0	0	-1	1000
24758155	19	210	0	-100	0	230	101300000	1000	0	0	-1	1000
24770715	21	202	0	-100	0	230	101300000	1000	0	0	-1	1000
24783275	19	206	0	-100	0	230	101300000	1000	0	0	-1	1000
24795835	19	202	0	-100	0	230	101300000	1000	0	0	-1	1000
24808395	24	201	0	-100	0	230	101300000	1000	0	0	-1	1000
24820955	19	210	0	-100	0	230	101300000	1000	0	0	-1	1000
24833515	24	202	0	-100	0	230	101300000	1000	0	0	-1	1000
24846075	19	210	0	-100	0	230	101300000	1000	0	0	-1	1000
24858635	19	205	0	-100	0	230	101300000	1000	0	0	-1	1000
24871195	21	201	0	-100	0	230	101300000	1000	0	0	-1	1000
24883755	21	211	0	-100	0	230	101300000	1000	0	0	-1	1000
24896315	24	203	0	-100	0	230	101300000	1000	0	0	-1	1000
24908875	16	206	0	-100	0	230	101300000	1000	0	0	-1	1000
24921435	21	203	0	-100	0	230	101300000	1000	0	0	-1	1000
24933995	19	203	0	-100	0	230	101300000	1000	0	0	-1	1000
24946555	19	201	0	-100	0	230	101300000	1000	0	0	-1	1000
24959115	21	202	0	-100	0	230	101300000	1000	0	0	-1	1000
24971675	19	202	0	-100	0	230	101300000	1000	0	0	-1	1000
24984235	24	201	0	-100	0	230	101300000	1000	0	0	-1	1000
24996795	19	202	0	-100	0	230	101300000	1000	0	0	-1	1000
25009355	24	203	0	-100	0	230	101300000	1000	0	0	-1	1000
25021915	19	202	0	-100	0	230	101300000	1000	0	0	-1	1000
25034475	24	202	0	-100	0	230	101300000	1000	0	0	-1	1000
25047035	21	210	0	-100	0	230	101300000	1000	0	0	-1	1000
25059595	24	202	0	-100	0	230	101300000	1000	0	0	-1	1000
25072155	19	209	0	-100	0	230	101300000	1000	0	0	-1	1000
25084715	19	202	0	-100	0	230	101300000	1000	0	0	-1	1000
25097275	24	202	0	-100	0	230	101300000	1000	0	0	-1	1000
25109835	19	206	0	-100	0	230	101300000	1000	0	0	-1	1000
25122395	26	201	0	-100	0	230	101300000	1000	0	0	-1	1000
25134955	21	206	0	-100	0	230	101300000	1000	0	0	-1	1000
25147515	26	203	0	-100	0	230	101300000	1000	0	0	-1	1000
25160075	19	207	0	-100	0	230	101300000	1000	0	0	-1	1000
25172635	21	204	0	-100	0	230	101300000	1000	0	0	-1	1000
25185195	16	207	0	-100	0	230	101300000	1000	0	0	-1	1000
25197755	21	203	0	-100	0	230	101300000	1000	0	0	-1	1000
25210315	19	210	0	-100	0	230	101300000	1000	0	0	-1	1000
25222875	16	206	0	-100	0	230	101300000	1000	0	0	-1	1000
25235435	21	202	0	-100	0	230	101300000	1000	0	0	-1	1000
25247995	19	205	0	-100	0	230	101300000	1000	0	0	-1	1000
25260555	24	202	0	-100	0	230	101300000	1000	0	0	-1	1000
25273115	21	208	0	-100	0	230	101300000	1000	0	0	-1	1000
25285675	24	203	0	-100	0	230	101300000	1000	0	0	-1	1000
25298235	19	207	0	-100	0	230	101300000	1000	0	0	-1	1000
25310795	16	207	0	-100	0	230	101300000	1000	0	0	-1	1000
25323355	26	203	0	-100	0	230	101300000	1000	0	0	-1	1000
25335915	19	209	0	-100	0	230	101300000	1000	0	0	-1	1000
25348475	21	206	0	-100	0	230	101300000	1000	0	0	-1	1000
25361035	26	202	0	-100	0	230	101300000	1000	0	0	-1	1000
25373595	19	206	0	-100	0	230	101300000	1000	0	0	-1	1000
25386155	24	203	0	-100	0	230	101300000	1000	0	0	-1	1000
25398715	21	202	0	-100	0	230	101300000	1000	0	0	-1	1000
25411275	19	203	0	-100	0	230	101300000	1000	0	0	-1	1000
25423835	26	202	0	-100	0	230	101300000	1000	0	0	-1	1000
25436395	19	210	0	-100	0	230	101300000	1000	0	0	-1	1000
25448955	16	206	0	-100	0	230	101300000	1000	0	0	-1	1000
25461515	26	205	0	-100	0	230	101300000	1000	0	0	-1	1000
25474075	19	207	0	-100	0	230	101300000	1000	0	0	-1	1000
25486635	24	202	0	-100	0	230	101300000	1000	0	0	-1	1000
25499195	21	202	0	-100	0	230	101300000	1000	0	0	-1	1000
25511755	16	209	0	-100	0	230	101300000	1000	0	0	-1	1000
25524315	26	200	0	-100	0	230	101300000	1000	0	0	-1	1000
25536875	21	210	0	-100	0	230	101300000	1000	0	0	-1	1000
25549435	26	203	0	-100	0	230	101300000	1000	0	0	-1	1000
25561995	16	202	0	-100	0	230	101300000	1000	0	0	-1	1000
25574555	19	206	0	-100	0	230	101300000	1000	0	0	-1	1000
25587115	24	203	0	-100	0	230	101300000	1000	0	0	-1	1000
25599675	19	208	0	-100	0	230	101300000	1000	0	0	-1	1000
25612235	21	203	0	-100	0	230	101300000	1000	0	0	-1	1000
25624795	21	203	0	-100	0	230	101300000	1000	0	0	-1	1000
25637355	16	207	0	-100	0	230	101300000	1000	0	0	-1	1000
25649915	24	203	0	-100	0	230	101300000	1000	0	0	-1	1000
25662475	24	210	0	-100	0	230	101300000	1000	0	0	-1	1000
25675035	26	203	0	-100	0	230	101300000	1000	0	0	-1	1000
25687595	21	206	0	-100	0	230	101300000	1000	0	0	-1	1000
25700155	19	201	0	-100	0	230	101300000	1000	0	0	-1	1000
25712715	21	201	0	-100	0	230	101300000	1000	0	0	-1	1000
25725275	16	209	0	-100	0	230	101300000	1000	0	0	-1	1000
25737835	24	202	0	-100	0	230	101300000	1000	0	0	-1	1000
25750395	19	210	0	-100	0	230	101300000	1000	0	0	-1	1000
25762955	24	202	0	-100	0	230	101300000	1000	0	0	-1	1000
25775515	21	204	0	-100	0	230	101300000	1000	0	0	-1	1000
25788075	14	206	0	-100	0	230	101300000	1000	0	0	-1	1000
25800635	24	201	0	-100	0	230	101300000	1000	0	0	-1	1000
25813195	19	210	0	-100	0	230	101300000	1000	0	0	-1	1000
25825755	24	203	0	-100	0	230	101300000	1000	0	0	-1	1000
25838315	21	202	0	-100	0	230	101300000	1000	0	0	-1	1000
25850875	16	207	0	-100	0	230	101300000	1000	0	0	-1	1000
25863435	26	202	0	-100	0	230	101300000	1000	0	0	-1	1000
25875995	19	206	0	-100	0	230	101300000	1000	0	0	-1	1000
25888555	26	202	0	-100	0	230	101300000	1000	0	0	-1	1000
25901115	19	207	0	-100	0	230	101300000	1000	0	0	-1	1000
25913675	26	201	0	-100	0	230	101300000	1000	0	0	-1	1000
25926235	19	208	0	-100	0	230	101300000	1000	0	0	-1	1000
25938795	24	203	0	-100	0	230	101300000	1000	0	0	-1	1000
25951355	19	210	0	-100	0	230	101300000	1000	0	0	-1	1000
25963915	26	203	0	-100	0	230	101300000	1000	0	0	-1	1000
25976475	19	208	0	-100	0	230	101300000	1000	0	0	-1	1000
25989035	21	203	0	-100	0	230	101300000	1000	0	0	-1	1000
26001595	21	202	0	-100	0	230	101300000	1000	0	0	-1	1000
26014155	19	207	0	-100	0	230	101300000	1000	0	0	-1	1000
26026715	24	203	0	-100	0	230	101300000	1000	0	0	-1	1000
26039275	24	201	0	-100	0	230	101300000	1000	0	0	-1	1000
26051835	21	211	0	-100	0	230	101300000	1000	0	0	-1	1000
26064395	26	201	0	-100	0	230	101300000	1000	0	0	-1	1000
26076955	19	208	0	-100	0	230	101300000	1000	0	0	-1	1000
26089515	26	202	0	-100	0	230	101300000	1000	0	0	-1	1000
26102075	19	206	0	-100	0	230	101300000	1000	0	0	-1	1000
26114635	26	202	0	-100	0	230	101300000	1000	0	0	-1	1000
26127195	24	210	0	-100	0	230	101300000	1000	0	0	-1	1000
26139755	26	205	0	-100	0	230	101300000	1000	0	0	-1	1000
26152315	19	210	0	-100	0	230	101300000	1000	0	0	-1	1000
26164875	19	204	0	-100	0	230	101300000	1000	0	0	-1	1000
26177435	21	205	0	-100	0	230	101300000	1000	0	0	-1	1000
26189995	19	206	0	-100	0	230	101300000	1000	0	0	-1	1000
26202555	26	200	0	-100	0	230	101300000	1000	0	0	-1	1000
26215115	19	210	0	-100	0	230	101300000	1000	0	0	-1	1000
26227675	26	201	0	-100	0	230	101300000	1000	0	0	-1	1000
26240235	19	206	0	-100	0	230	101300000	1000	0	0	-1	1000
26252795	24	202	0	-100	0	230	101300000	1000	0	0	-1	1000
26265355	16	207	0	-100	0	230	101300000	1000	0	0	-1	1000
26340715	19	206	0	-100	0	230	101300000	1000	0	0	-1	1000
26353275	19	202	0	-100	0	230	101300000	1000	0	0	-1	1000
26365835	19	209	0	-100	0	230	101300000	1000	0	0	-1	1000
26378395	26	201	0	-100	0	230	101300000	1000	0	0	-1	1000
26390955	16	208	0	-100	0	230	101300000	1000	0	0	-1	1000
26403515	19	211	0	-100	0	230	101300000	1000	0	0	-1	1000
26416075	21	202	0	-100	0	230	101300000	1000	0	0	-1	1000
26428635	21	210	0	-100	0	230	101300000	1000	0	0	-1	1000
26441195	26	202	0	-100	0	230	101300000	1000	0	0	-1	1000
26453755	19	201	0	-100	0	230	101300000	1000	0	0	-1	1000
26466315	19	210	0	-100	0	230	101300000	1000	0	0	-1	1000
26478875	24	202	0	-100	0	230	101300000	1000	0	0	-1	1000
26516555	26	202	0	-100	0	230	101300000	1000	0	0	-1	1000
26529115	19	202	0	-100	0	230	101300000	1000	0	0	-1	1000
26541675	19	209	0	-100	0	230	101300000	1000	0	0	-1	1000
26554235	24	203	0	-100	0	230	101300000	1000	0	0	-1	1000
26566795	16	206	0	-100	0	230	101300000	1000	0	0	-1	1000
26579355	19	209	0	-100	0	230	101300000	1000	0	0	-1	1000
26591915	26	202	0	-100	0	230	101300000	1000	0	0	-1	1000
26604475	19	203	0	-100	0	230	101300000	1000	0	0	-1	1000
26617035	21	203	0	-100	0	230	101300000	1000	0	0	-1	1000
26629595	26	203	0	-100	0	230	101300000	1000	0	0	-1	1000
26642155	19	207	0	-100	0	230	101300000	1000	0	0	-1	1000
26654715	29	204	0	-100	0	230	101300000	1000	0	0	-1	1000
26667275	19	206	0	-100	0	230	101300000	1000	0	0	-1	1000
26679835	24	203	0	-100	0	230	101300000	1000	0	0	-1	1000
26692395	16	209	0	-100	0	230	101300000	1000	0	0	-1	1000
26704955	26	202	0	-100	0	230	101300000	1000	0	0	-1	1000
26717515	19	202	0	-100	0	230	101300000	1000	0	0	-1	1000
26730075	24	203	0	-100	0	230	101300000	1000	0	0	-1	1000
26742635	16	207	0	-100	0	230	101300000	1000	0	0	-1	1000
26755195	19	210	0	-100	0	230	101300000	1000	0	0	-1	1000
26767755	24	203	0	-100	0	230	101300000	1000	0	0	-1	1000
26780315	19	210	0	-100	0	230	101300000	1000	0	0	-1	1000
26792875	26	202	0	-100	0	230	101300000	1000	0	0	-1	1000
26805435	19	209	0	-100	0	230	101300000	1000	0	0	-1	1000
26817995	26	208	0	-100	0	230	101300000	1000	0	0	-1	1000
26830555	19	206	0	-100	0	230	101300000	1000	0	0	-1	1000
26843115	26	202	0	-100	0	230	101300000	1000	0	0	-1	1000
26855675	26	202	0	-100	0	230	101300000	1000	0	0	-1	1000
26868235	21	210	0	-100	0	230	101300000	1000	0	0	-1	1000
26880795	24	198	0	-100	0	230	101300000	1000	0	0	-1	1000
26893355	19	209	0	-100	0	230	101300000	1000	0	0	-1	1000
26905915	21	205	0	-100	0	230	101300000	1000	0	0	-1	1000
26918475	19	206	0	-100	0	230	101300000	1000	0	0	-1	1000
26931035	19	202	0	-100	0	230	101300000	1000	0	0	-1	1000
26943595	24	201	0	-100	0	230	101300000	1000	0	0	-1	1000
26956155	19	201	0	-100	0	230	101300000	1000	0	0	-1	1000
26968715	24	203	0	-100	0	230	101300000	1000	0	0	-1	1000
26981275	16	209	0	-100	0	230	101300000	1000	0	0	-1	1000
26993835	24	204	0	-100	0	230	101300000	1000	0	0	-1	1000
27006395	16	210	0	-100	0	230	101300000	1000	0	0	-1	1000
27018955	24	203	0	-100	0	230	101300000	1000	0	0	-1	1000
27031515	19	207	0	-100	0	230	101300000	1000	0	0	-1	1000
27044075	26	204	0	-100	0	230	101300000	1000	0	0	-1	1000
