timestamp	voltage	current	windSpeed	pitchAngle	rpm	temperature	ambientPressure	humidity	accelerationX	accelerationY	accelerationZ	currentSink
7038070	2005	0	0	-100	0	230	101300000	1000	0	0	-1	0
7045523	2004	0	0	-100	0	230	101300000	1000	0	0	-1	0
7058083	1999	4	0	-100	0	230	101300000	1000	0	0	-1	0
7070643	2004	0	0	-100	0	230	101300000	1000	0	0	-1	0
7083203	2001	0	0	-100	0	230	101300000	1000	0	0	-1	0
7095763	1999	3	0	-100	0	230	101300000	1000	0	0	-1	0
7108323	2009	0	0	-100	0	230	101300000	1000	0	0	-1	0
7120883	2002	3	0	-100	0	230	101300000	1000	0	0	-1	0
7133443	2005	0	0	-100	0	230	101300000	1000	0	0	-1	0
7146004	2005	0	0	-100	0	230	101300000	1000	0	0	-1	0
7158563	1997	2	0	-100	0	230	101300000	1000	0	0	-1	0
7171123	2014	0	0	-100	0	230	101300000	1000	0	0	-1	0
7183683	2002	4	0	-100	0	230	101300000	1000	0	0	-1	0
7196243	2006	0	0	-100	0	230	101300000	1000	0	0	-1	0
7208803	1998	0	0	-100	0	230	101300000	1000	0	0	-1	0
7221363	2000	0	0	-100	0	230	101300000	1000	0	0	-1	0
7233923	2003	0	0	-100	0	230	101300000	1000	0	0	-1	0
7246483	1997	2	0	-100	0	230	101300000	1000	0	0	-1	0
7259043	2005	0	0	-100	0	230	101300000	1000	0	0	-1	0
7271603	2000	4	0	-100	0	230	101300000	1000	0	0	-1	0
7284163	2004	0	0	-100	0	230	101300000	1000	0	0	-1	0
7296723	2003	0	0	-100	0	230	101300000	1000	0	0	-1	0
7309283	1999	4	0	-100	0	230	101300000	1000	0	0	-1	0
7321843	2004	0	0	-100	0	230	101300000	1000	0	0	-1	0
7334403	2001	0	0	-100	0	230	101300000	1000	0	0	-1	0
7346963	1999	4	0	-100	0	230	101300000	1000	0	0	-1	0
7690115	38	308	0	-100	0	230	101300000	1000	0	0	-1	1000
7702675	31	309	0	-100	0	230	101300000	1000	0	0	-1	1000
7715235	29	306	0	-100	0	230	101300000	1000	0	0	-1	1000
7727795	31	302	0	-100	0	230	101300000	1000	0	0	-1	1000
7740355	29	311	0	-100	0	230	101300000	1000	0	0	-1	1000
7752915	29	306	0	-100	0	230	101300000	1000	0	0	-1	1000
7765475	36	302	0	-100	0	230	101300000	1000	0	0	-1	1000
7778035	31	303	0	-100	0	230	101300000	1000	0	0	-1	1000
7790595	31	309	0	-100	0	230	101300000	1000	0	0	-1	1000
7803155	31	304	0	-100	0	230	101300000	1000	0	0	-1	1000
7815715	31	303	0	-100	0	230	101300000	1000	0	0	-1	1000
7828275	26	310	0	-100	0	230	101300000	1000	0	0	-1	1000
7840835	33	300	0	-100	0	230	101300000	1000	0	0	-1	1000
7853395	31	302	0	-100	0	230	101300000	1000	0	0	-1	1000
7865955	31	311	0	-100	0	230	101300000	1000	0	0	-1	1000
7878515	33	304	0	-100	0	230	101300000	1000	0	0	-1	1000
7891075	29	303	0	-100	0	230	101300000	1000	0	0	-1	1000
7903635	29	307	0	-100	0	230	101300000	1000	0	0	-1	1000
7916195	36	303	0	-100	0	230	101300000	1000	0	0	-1	1000
7928755	29	306	0	-100	0	230	101300000	1000	0	0	-1	1000
7941315	38	304	0	-100	0	230	101300000	1000	0	0	-1	1000
7953875	26	307	0	-100	0	230	101300000	1000	0	0	-1	1000
7966435	33	304	0	-100	0	230	101300000	1000	0	0	-1	1000
7978995	26	303	0	-100	0	230	101300000	1000	0	0	-1	1000
7991555	36	305	0	-100	0	230	101300000	1000	0	0	-1	1000
8004115	33	308	0	-100	0	230	101300000	1000	0	0	-1	1000
8016675	33	305	0	-100	0	230	101300000	1000	0	0	-1	1000
8029235	31	310	0	-100	0	230	101300000	1000	0	0	-1	1000
8041795	36	303	0	-100	0	230	101300000	1000	0	0	-1	1000
8054355	29	311	0	-100	0	230	101300000	1000	0	0	-1	1000
8066915	33	303	0	-100	0	230	101300000	1000	0	0	-1	1000
8079475	26	310	0	-100	0	230	101300000	1000	0	0	-1	1000
8092035	33	303	0	-100	0	230	101300000	1000	0	0	-1	1000
8104595	26	310	0	-100	0	230	101300000	1000	0	0	-1	1000
8117155	33	304	0	-100	0	230	101300000	1000	0	0	-1	1000
8129715	26	311	0	-100	0	230	101300000	1000	0	0	-1	1000
8142275	36	304	0	-100	0	230	101300000	1000	0	0	-1	1000
8154835	31	304	0	-100	0	230	101300000	1000	0	0	-1	1000
8167395	29	310	0	-100	0	230	101300000	1000	0	0	-1	1000
8179955	36	306	0	-100	0	230	101300000	1000	0	0	-1	1000
8192515	29	306	0	-100	0	230	101300000	1000	0	0	-1	1000
8205075	26	308	0	-100	0	230	101300000	1000	0	0	-1	1000
8217635	29	303	0	-100	0	230	101300000	1000	0	0	-1	1000
8230195	31	304	0	-100	0	230	101300000	1000	0	0	-1	1000
8242755	29	305	0	-100	0	230	101300000	1000	0	0	-1	1000
8255315	36	309	0	-100	0	230	101300000	1000	0	0	-1	1000
8267875	36	303	0	-100	0	230	101300000	1000	0	0	-1	1000
8280435	29	311	0	-100	0	230	101300000	1000	0	0	-1	1000
8292995	36	309	0	-100	0	230	101300000	1000	0	0	-1	1000
8305555	29	310	0	-100	0	230	101300000	1000	0	0	-1	1000
8318115	38	307	0	-100	0	230	101300000	1000	0	0	-1	1000
8330675	26	308	0	-100	0	230	101300000	1000	0	0	-1	1000
8343235	31	303	0	-100	0	230	101300000	1000	0	0	-1	1000
8355795	29	307	0	-100	0	230	101300000	1000	0	0	-1	1000
8368355	31	304	0	-100	0	230	101300000	1000	0	0	-1	1000
8380915	31	303	0	-100	0	230	101300000	1000	0	0	-1	1000
8393475	26	309	0	-100	0	230	101300000	1000	0	0	-1	1000
8406035	36	303	0	-100	0	230	101300000	1000	0	0	-1	1000
8418595	29	308	0	-100	0	230	101300000	1000	0	0	-1	1000
8431155	29	307	0	-100	0	230	101300000	1000	0	0	-1	1000
8443715	31	303	0	-100	0	230	101300000	1000	0	0	-1	1000
8456275	29	308	0	-100	0	230	101300000	1000	0	0	-1	1000
8468835	31	302	0	-100	0	230	101300000	1000	0	0	-1	1000
8481395	29	307	0	-100	0	230	101300000	1000	0	0	-1	1000
8493955	29	303	0	-100	0	230	101300000	1000	0	0	-1	1000
8506515	26	309	0	-100	0	230	101300000	1000	0	0	-1	1000
8519075	33	302	0	-100	0	230	101300000	1000	0	0	-1	1000
8531635	29	311	0	-100	0	230	101300000	1000	0	0	-1	1000
8544195	36	303	0	-100	0	230	101300000	1000	0	0	-1	1000
8556755	29	308	0	-100	0	230	101300000	1000	0	0	-1	1000
8569315	36	304	0	-100	0	230	101300000	1000	0	0	-1	1000
8581875	29	307	0	-100	0	230	101300000	1000	0	0	-1	1000
8594435	33	305	0	-100	0	230	101300000	1000	0	0	-1	1000
8606995	31	305	0	-100	0	230	101300000	1000	0	0	-1	1000
8619555	33	303	0	-100	0	230	101300000	1000	0	0	-1	1000
8632115	36	312	0	-100	0	230	101300000	1000	0	0	-1	1000
8644675	36	304	0	-100	0	230	101300000	1000	0	0	-1	1000
8657235	31	308	0	-100	0	230	101300000	1000	0	0	-1	1000
8669795	36	304	0	-100	0	230	101300000	1000	0	0	-1	1000
8682355	29	306	0	-100	0	230	101300000	1000	0	0	-1	1000
8694915	36	305	0	-100	0	230	101300000	1000	0	0	-1	1000
8707475	29	309	0	-100	0	230	101300000	1000	0	0	-1	1000
8720035	31	303	0	-100	0	230	101300000	1000	0	0	-1	1000
8732595	26	302	0	-100	0	230	101300000	1000	0	0	-1	1000
8745155	26	307	0	-100	0	230	101300000	1000	0	0	-1	1000
8757715	33	302	0	-100	0	230	101300000	1000	0	0	-1	1000
8770275	26	310	0	-100	0	230	101300000	1000	0	0	-1	1000
8782835	36	300	0	-100	0	230	101300000	1000	0	0	-1	1000
8795395	29	309	0	-100	0	230	101300000	1000	0	0	-1	1000
8807955	33	304	0	-100	0	230	101300000	1000	0	0	-1	1000
8820515	29	304	0	-100	0	230	101300000	1000	0	0	-1	1000
8833075	29	309	0	-100	0	230	101300000	1000	0	0	-1	1000
8845635	33	302	0	-100	0	230	101300000	1000	0	0	-1	1000
8858195	29	311	0	-100	0	230	101300000	1000	0	0	-1	1000
8870755	29	302	0	-100	0	230	101300000	1000	0	0	-1	1000
8883315	38	308	0	-100	0	230	101300000	1000	0	0	-1	1000
8895875	26	308	0	-100	0	230	101300000	1000	0	0	-1	1000
8908435	36	304	0	-100	0	230	101300000	1000	0	0	-1	1000
8920995	29	304	0	-100	0	230	101300000	1000	0	0	-1	1000
8933555	36	305	0	-100	0	230	101300000	1000	0	0	-1	1000
8946115	31	312	0	-100	0	230	101300000	1000	0	0	-1	1000
8958675	31	303	0	-100	0	230	101300000	1000	0	0	-1	1000
8971235	26	306	0	-100	0	230	101300000	1000	0	0	-1	1000
8983795	31	302	0	-100	0	230	101300000	1000	0	0	-1	1000
8996355	26	307	0	-100	0	230	101300000	1000	0	0	-1	1000
9008915	31	304	0	-100	0	230	101300000	1000	0	0	-1	1000
9021475	31	305	0	-100	0	230	101300000	1000	0	0	-1	1000
9034035	29	309	0	-100	0	230	101300000	1000	0	0	-1	1000
9046595	33	303	0	-100	0	230	101300000	1000	0	0	-1	1000
9059155	29	309	0	-100	0	230	101300000	1000	0	0	-1	1000
9071715	36	304	0	-100	0	230	101300000	1000	0	0	-1	1000
9084275	26	309	0	-100	0	230	101300000	1000	0	0	-1	1000
9096835	31	302	0	-100	0	230	101300000	1000	0	0	-1	1000
9109395	29	307	0	-100	0	230	101300000	1000	0	0	-1	1000
9121955	29	306	0	-100	0	230	101300000	1000	0	0	-1	1000
9134515	36	304	0	-100	0	230	101300000	1000	0	0	-1	1000
9147075	26	308	0	-100	0	230	101300000	1000	0	0	-1	1000
9159635	36	301	0	-100	0	230	101300000	1000	0	0	-1	1000
9172195	26	311	0	-100	0	230	101300000	1000	0	0	-1	1000
9184755	33	303	0	-100	0	230	101300000	1000	0	0	-1	1000
9197315	33	311	0	-100	0	230	101300000	1000	0	0	-1	1000
9209875	29	304	0	-100	0	230	101300000	1000	0	0	-1	1000
9222435	29	303	0	-100	0	230	101300000	1000	0	0	-1	1000
9234995	26	302	0	-100	0	230	101300000	1000	0	0	-1	1000
9247555	33	304	0	-100	0	230	101300000	1000	0	0	-1	1000
9260115	31	308	0	-100	0	230	101300000	1000	0	0	-1	1000
9272675	36	301	0	-100	0	230	101300000	1000	0	0	-1	1000
9285235	29	310	0	-100	0	230	101300000	1000	0	0	-1	1000
9297795	36	302	0	-100	0	230	101300000	1000	0	0	-1	1000
9310355	26	309	0	-100	0	230	101300000	1000	0	0	-1	1000
9322915	33	303	0	-100	0	230	101300000	1000	0	0	-1	1000
9335475	26	309	0	-100	0	230	101300000	1000	0	0	-1	1000
9348035	31	304	0	-100	0	230	101300000	1000	0	0	-1	1000
9360595	31	304	0	-100	0	230	101300000	1000	0	0	-1	1000
9373155	29	307	0	-100	0	230	101300000	1000	0	0	-1	1000
9385715	33	303	0	-100	0	230	101300000	1000	0	0	-1	1000
9398275	26	310	0	-100	0	230	101300000	1000	0	0	-1	1000
9410835	31	304	0	-100	0	230	101300000	1000	0	0	-1	1000
9423395	31	303	0	-100	0	230	101300000	1000	0	0	-1	1000
9435955	26	307	0	-100	0	230	101300000	1000	0	0	-1	1000
9448515	33	303	0	-100	0	230	101300000	1000	0	0	-1	1000
9461075	26	306	0	-100	0	230	101300000	1000	0	0	-1	1000
9473635	29	305	0	-100	0	230	101300000	1000	0	0	-1	1000
9486195	29	304	0	-100	0	230	101300000	1000	0	0	-1	1000
9498755	31	304	0	-100	0	230	101300000	1000	0	0	-1	1000
9511315	31	309	0	-100	0	230	101300000	1000	0	0	-1	1000
9523875	33	302	0	-100	0	230	101300000	1000	0	0	-1	1000
9536435	29	310	0	-100	0	230	101300000	1000	0	0	-1	1000
9548995	33	311	0	-100	0	230	101300000	1000	0	0	-1	1000
9561555	29	310	0	-100	0	230	101300000	1000	0	0	-1	1000
9574115	41	306	0	-100	0	230	101300000	1000	0	0	-1	1000
9586675	29	310	0	-100	0	230	101300000	1000	0	0	-1	1000
9599235	29	305	0	-100	0	230	101300000	1000	0	0	-1	1000
9611795	38	303	0	-100	0	230	101300000	1000	0	0	-1	1000
9624355	31	309	0	-100	0	230	101300000	1000	0	0	-1	1000
9636915	36	302	0	-100	0	230	101300000	1000	0	0	-1	1000
9649475	26	309	0	-100	0	230	101300000	1000	0	0	-1	1000
9662035	29	305	0	-100	0	230	101300000	1000	0	0	-1	1000
9674595	33	306	0	-100	0	230	101300000	1000	0	0	-1	1000
9687155	29	309	0	-100	0	230	101300000	1000	0	0	-1	1000
9699715	33	303	0	-100	0	230	101300000	1000	0	0	-1	1000
9712275	31	308	0	-100	0	230	101300000	1000	0	0	-1	1000
9724835	33	301	0	-100	0	230	101300000	1000	0	0	-1	1000
9737395	26	310	0	-100	0	230	101300000	1000	0	0	-1	1000
9749955	33	306	0	-100	0	230	101300000	1000	0	0	-1	1000
9762515	26	309	0	-100	0	230	101300000	1000	0	0	-1	1000
9775075	33	303	0	-100	0	230	101300000	1000	0	0	-1	1000
9787635	26	307	0	-100	0	230	101300000	1000	0	0	-1	1000
9800195	31	303	0	-100	0	230	101300000	1000	0	0	-1	1000
9812755	29	311	0	-100	0	230	101300000	1000	0	0	-1	1000
9825315	38	307	0	-100	0	230	101300000	1000	0	0	-1	1000
9837875	26	309	0	-100	0	230	101300000	1000	0	0	-1	1000
9850435	26	306	0	-100	0	230	101300000	1000	0	0	-1	1000
9862995	31	307	0	-100	0	230	101300000	1000	0	0	-1	1000
9875555	33	303	0	-100	0	230	101300000	1000	0	0	-1	1000
9888115	36	315	0	-100	0	230	101300000	1000	0	0	-1	1000
9900675	33	302	0	-100	0	230	101300000	1000	0	0	-1	1000
9913235	26	310	0	-100	0	230	101300000	1000	0	0	-1	1000
9925795	29	302	0	-100	0	230	101300000	1000	0	0	-1	1000
9938355	33	302	0	-100	0	230	101300000	1000	0	0	-1	1000
9950915	29	310	0	-100	0	230	101300000	1000	0	0	-1	1000
9963475	29	305	0	-100	0	230	101300000	1000	0	0	-1	1000
9976035	33	303	0	-100	0	230	101300000	1000	0	0	-1	1000
9988595	26	310	0	-100	0	230	101300000	1000	0	0	-1	1000
10001155	29	306	0	-100	0	230	101300000	1000	0	0	-1	1000
10013715	33	302	0	-100	0	230	101300000	1000	0	0	-1	1000
10026275	26	309	0	-100	0	230	101300000	1000	0	0	-1	1000
10038835	29	308	0	-100	0	230	101300000	1000	0	0	-1	1000
10051395	33	304	0	-100	0	230	101300000	1000	0	0	-1	1000
10063955	29	306	0	-100	0	230	101300000	1000	0	0	-1	1000
10076515	29	309	0	-100	0	230	101300000	1000	0	0	-1	1000
10089075	33	304	0	-100	0	230	101300000	1000	0	0	-1	1000
10101635	33	301	0	-100	0	230	101300000	1000	0	0	-1	1000
10114195	29	306	0	-100	0	230	101300000	1000	0	0	-1	1000
10126755	31	311	0	-100	0	230	101300000	1000	0	0	-1	1000
10139315	38	307	0	-100	0	230	101300000	1000	0	0	-1	1000
10151875	31	307	0	-100	0	230	101300000	1000	0	0	-1	1000
10164435	31	311	0	-100	0	230	101300000	1000	0	0	-1	1000
10176995	36	306	0	-100	0	230	101300000	1000	0	0	-1	1000
10189555	29	307	0	-100	0	230	101300000	1000	0	0	-1	1000
10202115	33	310	0	-100	0	230	101300000	1000	0	0	-1	1000
10214675	31	303	0	-100	0	230	101300000	1000	0	0	-1	1000
10227235	36	304	0	-100	0	230	101300000	1000	0	0	-1	1000
10239795	26	310	0	-100	0	230	101300000	1000	0	0	-1	1000
10252355	31	302	0	-100	0	230	101300000	1000	0	0	-1	1000
10264915	29	304	0	-100	0	230	101300000	1000	0	0	-1	1000
10277475	31	307	0	-100	0	230	101300000	1000	0	0	-1	1000
10290035	31	302	0	-100	0	230	101300000	1000	0	0	-1	1000
10302595	26	306	0	-100	0	230	101300000	1000	0	0	-1	1000
10315155	29	308	0	-100	0	230	101300000	1000	0	0	-1	1000
10327715	36	303	0	-100	0	230	101300000	1000	0	0	-1	1000
10340275	29	307	0	-100	0	230	101300000	1000	0	0	-1	1000
10352835	29	308	0	-100	0	230	101300000	1000	0	0	-1	1000
10365395	31	302	0	-100	0	230	101300000	1000	0	0	-1	1000
10377955	36	301	0	-100	0	230	101300000	1000	0	0	-1	1000
10390515	29	303	0	-100	0	230	101300000	1000	0	0	-1	1000
10403075	26	310	0	-100	0	230	101300000	1000	0	0	-1	1000
10415635	29	303	0	-100	0	230	101300000	1000	0	0	-1	1000
10428195	33	300	0	-100	0	230	101300000	1000	0	0	-1	1000
10440755	26	307	0	-100	0	230	101300000	1000	0	0	-1	1000
10453315	31	309	0	-100	0	230	101300000	1000	0	0	-1	1000
10465875	33	302	0	-100	0	230	101300000	1000	0	0	-1	1000
10478435	26	308	0	-100	0	230	101300000	1000	0	0	-1	1000
10490995	26	305	0	-100	0	230	101300000	1000	0	0	-1	1000
10503555	33	303	0	-100	0	230	101300000	1000	0	0	-1	1000
10516115	38	304	0	-100	0	230	101300000	1000	0	0	-1	1000
10528675	26	309	0	-100	0	230	101300000	1000	0	0	-1	1000
10541235	26	307	0	-100	0	230	101300000	1000	0	0	-1	1000
10553795	36	303	0	-100	0	230	101300000	1000	0	0	-1	1000
10566355	29	305	0	-100	0	230	101300000	1000	0	0	-1	1000
10578915	29	308	0	-100	0	230	101300000	1000	0	0	-1	1000
10591475	33	302	0	-100	0	230	101300000	1000	0	0	-1	1000
10604035	26	307	0	-100	0	230	101300000	1000	0	0	-1	1000
10616595	26	306	0	-100	0	230	101300000	1000	0	0	-1	1000
10629155	36	302	0	-100	0	230	101300000	1000	0	0	-1	1000
10641715	26	309	0	-100	0	230	101300000	1000	0	0	-1	1000
10654275	29	302	0	-100	0	230	101300000	1000	0	0	-1	1000
10666835	33	304	0	-100	0	230	101300000	1000	0	0	-1	1000
10679395	29	306	0	-100	0	230	101300000	1000	0	0	-1	1000
10691955	33	301	0	-100	0	230	101300000	1000	0	0	-1	1000
10704515	26	310	0	-100	0	230	101300000	1000	0	0	-1	1000
10717075	29	302	0	-100	0	230	101300000	1000	0	0	-1	1000
10729635	33	304	0	-100	0	230	101300000	1000	0	0	-1	1000
10742195	26	309	0	-100	0	230	101300000	1000	0	0	-1	1000
10754755	26	306	0	-100	0	230	101300000	1000	0	0	-1	1000
10767315	38	304	0	-100	0	230	101300000	1000	0	0	-1	1000
10779875	26	307	0	-100	0	230	101300000	1000	0	0	-1	1000
10792435	26	310	0	-100	0	230	101300000	1000	0	0	-1	1000
10804995	31	306	0	-100	0	230	101300000	1000	0	0	-1	1000
10817555	29	303	0	-100	0	230	101300000	1000	0	0	-1	1000
10830115	31	311	0	-100	0	230	101300000	1000	0	0	-1	1000
10842675	31	304	0	-100	0	230	101300000	1000	0	0	-1	1000
10855235	31	302	0	-100	0	230	101300000	1000	0	0	-1	1000
10867795	29	309	0	-100	0	230	101300000	1000	0	0	-1	1000
10880355	31	302	0	-100	0	230	101300000	1000	0	0	-1	1000
10892915	33	303	0	-100	0	230	101300000	1000	0	0	-1	1000
10905475	29	311	0	-100	0	230	101300000	1000	0	0	-1	1000
10918035	33	302	0	-100	0	230	101300000	1000	0	0	-1	1000
10930595	33	304	0	-100	0	230	101300000	1000	0	0	-1	1000
10943155	26	308	0	-100	0	230	101300000	1000	0	0	-1	1000
10955715	29	308	0	-100	0	230	101300000	1000	0	0	-1	1000
10968275	33	303	0	-100	0	230	101300000	1000	0	0	-1	1000
10980835	26	306	0	-100	0	230	101300000	1000	0	0	-1	1000
10993395	26	308	0	-100	0	230	101300000	1000	0	0	-1	1000
11005955	31	302	0	-100	0	230	101300000	1000	0	0	-1	1000
11018515	26	310	0	-100	0	230	101300000	1000	0	0	-1	1000
11031075	33	304	0	-100	0	230	101300000	1000	0	0	-1	1000
11043635	26	308	0	-100	0	230	101300000	1000	0	0	-1	1000
11056195	29	303	0	-100	0	230	101300000	1000	0	0	-1	1000
11068755	33	303	0	-100	0	230	101300000	1000	0	0	-1	1000
11081315	33	310	0	-100	0	230	101300000	1000	0	0	-1	1000
11093875	29	307	0	-100	0	230	101300000	1000	0	0	-1	1000
11106435	31	302	0	-100	0	230	101300000	1000	0	0	-1	1000
11118995	29	302	0	-100	0	230	101300000	1000	0	0	-1	1000
11131555	36	302	0	-100	0	230	101300000	1000	0	0	-1	1000
11144115	33	310	0	-100	0	230	101300000	1000	0	0	-1	1000
11156675	33	303	0	-100	0	230	101300000	1000	0	0	-1	1000
11169235	29	303	0	-100	0	230	101300000	1000	0	0	-1	1000
11181795	29	310	0	-100	0	230	101300000	1000	0	0	-1	1000
11194355	33	303	0	-100	0	230	101300000	1000	0	0	-1	1000
11206915	29	309	0	-100	0	230	101300000	1000	0	0	-1	1000
11219475	33	302	0	-100	0	230	101300000	1000	0	0	-1	1000
11232035	29	306	0	-100	0	230	101300000	1000	0	0	-1	1000
11244595	31	302	0	-100	0	230	101300000	1000	0	0	-1	1000
11257155	31	304	0	-100	0	230	101300000	1000	0	0	-1	1000
11269715	29	308	0	-100	0	230	101300000	1000	0	0	-1	1000
11282275	33	302	0	-100	0	230	101300000	1000	0	0	-1	1000
11294835	31	312	0	-100	0	230	101300000	1000	0	0	-1	1000
11307395	36	303	0	-100	0	230	101300000	1000	0	0	-1	1000
11319955	26	307	0	-100	0	230	101300000	1000	0	0	-1	1000
11332515	29	308	0	-100	0	230	101300000	1000	0	0	-1	1000
11345075	36	301	0	-100	0	230	101300000	1000	0	0	-1	1000
11357635	29	302	0	-100	0	230	101300000	1000	0	0	-1	1000
11370195	26	310	0	-100	0	230	101300000	1000	0	0	-1	1000
11382755	31	303	0	-100	0	230	101300000	1000	0	0	-1	1000
11395315	38	310	0	-100	0	230	101300000	1000	0	0	-1	1000
11407875	26	311	0	-100	0	230	101300000	1000	0	0	-1	1000
11420435	31	303	0	-100	0	230	101300000	1000	0	0	-1	1000
11432995	33	306	0	-100	0	230	101300000	1000	0	0	-1	1000
11445555	29	310	0	-100	0	230	101300000	1000	0	0	-1	1000
11458115	31	309	0	-100	0	230	101300000	1000	0	0	-1	1000
11470675	36	302	0	-100	0	230	101300000	1000	0	0	-1	1000
11483235	29	302	0	-100	0	230	101300000	1000	0	0	-1	1000
11495795	26	308	0	-100	0	230	101300000	1000	0	0	-1	1000
11508355	33	301	0	-100	0	230	101300000	1000	0	0	-1	1000
11520915	29	306	0	-100	0	230	101300000	1000	0	0	-1	1000
11533475	36	304	0	-100	0	230	101300000	1000	0	0	-1	1000
11546035	29	307	0	-100	0	230	101300000	1000	0	0	-1	1000
11558595	33	305	0	-100	0	230	101300000	1000	0	0	-1	1000
11571155	26	302	0	-100	0	230	101300000	1000	0	0	-1	1000
11583715	29	307	0	-100	0	230	101300000	1000	0	0	-1	1000
11596275	33	303	0	-100	0	230	101300000	1000	0	0	-1	1000
11608835	26	308	0	-100	0	230	101300000	1000	0	0	-1	1000
11621395	33	302	0	-100	0	230	101300000	1000	0	0	-1	1000
11633955	29	311	0	-100	0	230	101300000	1000	0	0	-1	1000
11646515	33	302	0	-100	0	230	101300000	1000	0	0	-1	1000
11659075	26	310	0	-100	0	230	101300000	1000	0	0	-1	1000
11671635	33	303	0	-100	0	230	101300000	1000	0	0	-1	1000
11684195	29	311	0	-100	0	230	101300000	1000	0	0	-1	1000
11696755	33	304	0	-100	0	230	101300000	1000	0	0	-1	1000
11709315	33	313	0	-100	0	230	101300000	1000	0	0	-1	1000
11721875	36	302	0	-100	0	230	101300000	1000	0	0	-1	1000
11734435	29	308	0	-100	0	230	101300000	1000	0	0	-1	1000
11746995	33	311	0	-100	0	230	101300000	1000	0	0	-1	1000
11759555	29	303	0	-100	0	230	101300000	1000	0	0	-1	1000
11772115	31	311	0	-100	0	230	101300000	1000	0	0	-1	1000
11784675	33	302	0	-100	0	230	101300000	1000	0	0	-1	1000
11797235	29	306	0	-100	0	230	101300000	1000	0	0	-1	1000
11809795	26	307	0	-100	0	230	101300000	1000	0	0	-1	1000
11822355	31	302	0	-100	0	230	101300000	1000	0	0	-1	1000
11834915	29	309	0	-100	0	230	101300000	1000	0	0	-1	1000
11847475	33	302	0	-100	0	230	101300000	1000	0	0	-1	1000
11860035	29	307	0	-100	0	230	101300000	1000	0	0	-1	1000
11872595	26	307	0	-100	0	230	101300000	1000	0	0	-1	1000
11885155	33	303	0	-100	0	230	101300000	1000	0	0	-1	1000
11897715	29	310	0	-100	0	230	101300000	1000	0	0	-1	1000
11910275	33	305	0	-100	0	230	101300000	1000	0	0	-1	1000
11922835	26	310	0	-100	0	230	101300000	1000	0	0	-1	1000
11935395	36	303	0	-100	0	230	101300000	1000	0	0	-1	1000
11947955	29	312	0	-100	0	230	101300000	1000	0	0	-1	1000
11960515	33	304	0	-100	0	230	101300000	1000	0	0	-1	1000
11973075	26	308	0	-100	0	230	101300000	1000	0	0	-1	1000
11985635	26	306	0	-100	0	230	101300000	1000	0	0	-1	1000
11998195	33	304	0	-100	0	230	101300000	1000	0	0	-1	1000
12010755	26	306	0	-100	0	230	101300000	1000	0	0	-1	1000
12023315	41	303	0	-100	0	230	101300000	1000	0	0	-1	1000
12035875	29	310	0	-100	0	230	101300000	1000	0	0	-1	1000
12048435	33	302	0	-100	0	230	101300000	1000	0	0	-1	1000
12060995	29	306	0	-100	0	230	101300000	1000	0	0	-1	1000
12073555	33	300	0	-100	0	230	101300000	1000	0	0	-1	1000
12086115	31	307	0	-100	0	230	101300000	1000	0	0	-1	1000
12098675	29	303	0	-100	0	230	101300000	1000	0	0	-1	1000
12111235	33	304	0	-100	0	230	101300000	1000	0	0	-1	1000
12123795	29	309	0	-100	0	230	101300000	1000	0	0	-1	1000
12136355	33	302	0	-100	0	230	101300000	1000	0	0	-1	1000
12148915	26	307	0	-100	0	230	101300000	1000	0	0	-1	1000
12161475	29	308	0	-100	0	230	101300000	1000	0	0	-1	1000
12174035	36	305	0	-100	0	230	101300000	1000	0	0	-1	1000
12186595	29	311	0	-100	0	230	101300000	1000	0	0	-1	1000
12199155	33	302	0	-100	0	230	101300000	1000	0	0	-1	1000
12211715	26	310	0	-100	0	230	101300000	1000	0	0	-1	1000
12224275	31	302	0	-100	0	230	101300000	1000	0	0	-1	1000
12236835	26	310	0	-100	0	230	101300000	1000	0	0	-1	1000
12249395	31	302	0	-100	0	230	101300000	1000	0	0	-1	1000
12261955	29	310	0	-100	0	230	101300000	1000	0	0	-1	1000
12274515	33	302	0	-100	0	230	101300000	1000	0	0	-1	1000
12287075	26	309	0	-100	0	230	101300000	1000	0	0	-1	1000
12299635	31	303	0	-100	0	230	101300000	1000	0	0	-1	1000
12312195	26	310	0	-100	0	230	101300000	1000	0	0	-1	1000
12324755	33	304	0	-100	0	230	101300000	1000	0	0	-1	1000
12337315	33	311	0	-100	0	230	101300000	1000	0	0	-1	1000
12349875	33	300	0	-100	0	230	101300000	1000	0	0	-1	1000
12362435	29	308	0	-100	0	230	101300000	1000	0	0	-1	1000
12374995	36	311	0	-100	0	230	101300000	1000	0	0	-1	1000
12387555	26	306	0	-100	0	230	101300000	1000	0	0	-1	1000
12400115	38	306	0	-100	0	230	101300000	1000	0	0	-1	1000
12412675	29	307	0	-100	0	230	101300000	1000	0	0	-1	1000
12425235	33	304	0	-100	0	230	101300000	1000	0	0	-1	1000
12437795	26	309	0	-100	0	230	101300000	1000	0	0	-1	1000
12450355	36	305	0	-100	0	230	101300000	1000	0	0	-1	1000
12462915	31	310	0	-100	0	230	101300000	1000	0	0	-1	1000
12475475	33	305	0	-100	0	230	101300000	1000	0	0	-1	1000
12488035	29	310	0	-100	0	230	101300000	1000	0	0	-1	1000
12500595	31	302	0	-100	0	230	101300000	1000	0	0	-1	1000
12513155	29	303	0	-100	0	230	101300000	1000	0	0	-1	1000
12525715	26	306	0	-100	0	230	101300000	1000	0	0	-1	1000
12538275	29	306	0	-100	0	230	101300000	1000	0	0	-1	1000
12550835	31	303	0	-100	0	230	101300000	1000	0	0	-1	1000
12563395	26	307	0	-100	0	230	101300000	1000	0	0	-1	1000
12575955	31	302	0	-100	0	230	101300000	1000	0	0	-1	1000
12588515	29	309	0	-100	0	230	101300000	1000	0	0	-1	1000
12601075	33	303	0	-100	0	230	101300000	1000	0	0	-1	1000
12613635	26	304	0	-100	0	230	101300000	1000	0	0	-1	1000
12626195	29	307	0	-100	0	230	101300000	1000	0	0	-1	1000
12638755	33	302	0	-100	0	230	101300000	1000	0	0	-1	1000
12651315	33	312	0	-100	0	230	101300000	1000	0	0	-1	1000
12663875	29	303	0	-100	0	230	101300000	1000	0	0	-1	1000
12676435	29	307	0	-100	0	230	101300000	1000	0	0	-1	1000
12688995	29	302	0	-100	0	230	101300000	1000	0	0	-1	1000
12701555	36	303	0	-100	0	230	101300000	1000	0	0	-1	1000
12714115	33	312	0	-100	0	230	101300000	1000	0	0	-1	1000
12726675	33	301	0	-100	0	230	101300000	1000	0	0	-1	1000
12739235	29	310	0	-100	0	230	101300000	1000	0	0	-1	1000
12751795	33	305	0	-100	0	230	101300000	1000	0	0	-1	1000
12764355	26	309	0	-100	0	230	101300000	1000	0	0	-1	1000
12776915	33	303	0	-100	0	230	101300000	1000	0	0	-1	1000
12789475	26	306	0	-100	0	230	101300000	1000	0	0	-1	1000
12802035	26	306	0	-100	0	230	101300000	1000	0	0	-1	1000
12814595	33	302	0	-100	0	230	101300000	1000	0	0	-1	1000
12827155	26	309	0	-100	0	230	101300000	1000	0	0	-1	1000
12839715	29	303	0	-100	0	230	101300000	1000	0	0	-1	1000
12852275	31	304	0	-100	0	230	101300000	1000	0	0	-1	1000
12864835	29	306	0	-100	0	230	101300000	1000	0	0	-1	1000
12877395	29	302	0	-100	0	230	101300000	1000	0	0	-1	1000
12889955	31	308	0	-100	0	230	101300000	1000	0	0	-1	1000
12902515	36	305	0	-100	0	230	101300000	1000	0	0	-1	1000
12915075	29	306	0	-100	0	230	101300000	1000	0	0	-1	1000
12927635	36	304	0	-100	0	230	101300000	1000	0	0	-1	1000
12940195	29	308	0	-100	0	230	101300000	1000	0	0	-1	1000
12952755	29	303	0	-100	0	230	101300000	1000	0	0	-1	1000
12965315	36	305	0	-100	0	230	101300000	1000	0	0	-1	1000
12977875	26	308	0	-100	0	230	101300000	1000	0	0	-1	1000
12990435	33	302	0	-100	0	230	101300000	1000	0	0	-1	1000
13002995	26	302	0	-100	0	230	101300000	1000	0	0	-1	1000
13015555	36	301	0	-100	0	230	101300000	1000	0	0	-1	1000
13028115	33	308	0	-100	0	230	101300000	1000	0	0	-1	1000
13040675	29	303	0	-100	0	230	101300000	1000	0	0	-1	1000
13053235	29	303	0	-100	0	230	101300000	1000	0	0	-1	1000
13065795	29	307	0	-100	0	230	101300000	1000	0	0	-1	1000
13078355	29	304	0	-100	0	230	101300000	1000	0	0	-1	1000
13090915	31	303	0	-100	0	230	101300000	1000	0	0	-1	1000
13103475	26	307	0	-100	0	230	101300000	1000	0	0	-1	1000
13116035	29	306	0	-100	0	230	101300000	1000	0	0	-1	1000
13128595	29	304	0	-100	0	230	101300000	1000	0	0	-1	1000
13141155	31	304	0	-100	0	230	101300000	1000	0	0	-1	1000
13153715	26	307	0	-100	0	230	101300000	1000	0	0	-1	1000
13166275	36	303	0	-100	0	230	101300000	1000	0	0	-1	1000
13178835	26	307	0	-100	0	230	101300000	1000	0	0	-1	1000
13191395	36	306	0	-100	0	230	101300000	1000	0	0	-1	1000
13203955	29	310	0	-100	0	230	101300000	1000	0	0	-1	1000
13216515	33	302	0	-100	0	230	101300000	1000	0	0	-1	1000
13229075	26	310	0	-100	0	230	101300000	1000	0	0	-1	1000
13241635	31	302	0	-100	0	230	101300000	1000	0	0	-1	1000
13254195	29	308	0	-100	0	230	101300000	1000	0	0	-1	1000
13266755	29	302	0	-100	0	230	101300000	1000	0	0	-1	1000
13279315	36	307	0	-100	0	230	101300000	1000	0	0	-1	1000
13291875	26	304	0	-100	0	230	101300000	1000	0	0	-1	1000
13304435	36	303	0	-100	0	230	101300000	1000	0	0	-1	1000
13316995	31	302	0	-100	0	230	101300000	1000	0	0	-1	1000
13329555	33	302	0	-100	0	230	101300000	1000	0	0	-1	1000
13342115	33	315	0	-100	0	230	101300000	1000	0	0	-1	1000
13354675	33	302	0	-100	0	230	101300000	1000	0	0	-1	1000
13367235	29	308	0	-100	0	230	101300000	1000	0	0	-1	1000
13379795	36	302	0	-100	0	230	101300000	1000	0	0	-1	1000
13392355	26	310	0	-100	0	230	101300000	1000	0	0	-1	1000
13404915	33	301	0	-100	0	230	101300000	1000	0	0	-1	1000
13417475	31	309	0	-100	0	230	101300000	1000	0	0	-1	1000
13430035	33	303	0	-100	0	230	101300000	1000	0	0	-1	1000
13442595	26	307	0	-100	0	230	101300000	1000	0	0	-1	1000
13455155	26	307	0	-100	0	230	101300000	1000	0	0	-1	1000
13467715	33	302	0	-100	0	230	101300000	1000	0	0	-1	1000
13480275	29	309	0	-100	0	230	101300000	1000	0	0	-1	1000
13492835	29	306	0	-100	0	230	101300000	1000	0	0	-1	1000
13505395	31	304	0	-100	0	230	101300000	1000	0	0	-1	1000
13517955	31	310	0	-100	0	230	101300000	1000	0	0	-1	1000
13530515	33	302	0	-100	0	230	101300000	1000	0	0	-1	1000
13543075	31	302	0	-100	0	230	101300000	1000	0	0	-1	1000
13555635	26	310	0	-100	0	230	101300000	1000	0	0	-1	1000
13568195	36	305	0	-100	0	230	101300000	1000	0	0	-1	1000
13580755	33	303	0	-100	0	230	101300000	1000	0	0	-1	1000
13593315	36	314	0	-100	0	230	101300000	1000	0	0	-1	1000
13605875	36	305	0	-100	0	230	101300000	1000	0	0	-1	1000
13618435	26	303	0	-100	0	230	101300000	1000	0	0	-1	1000
13630995	29	306	0	-100	0	230	101300000	1000	0	0	-1	1000
13643555	31	303	0	-100	0	230	101300000	1000	0	0	-1	1000
13656115	36	310	0	-100	0	230	101300000	1000	0	0	-1	1000
13668675	29	304	0	-100	0	230	101300000	1000	0	0	-1	1000
13681235	33	302	0	-100	0	230	101300000	1000	0	0	-1	1000
13693795	29	309	0	-100	0	230	101300000	1000	0	0	-1	1000
13706355	33	303	0	-100	0	230	101300000	1000	0	0	-1	1000
13718915	31	310	0	-100	0	230	101300000	1000	0	0	-1	1000
13731475	33	303	0	-100	0	230	101300000	1000	0	0	-1	1000
13744035	29	304	0	-100	0	230	101300000	1000	0	0	-1	1000
13756595	26	308	0	-100	0	230	101300000	1000	0	0	-1	1000
13769155	33	303	0	-100	0	230	101300000	1000	0	0	-1	1000
13781715	29	311	0	-100	0	230	101300000	1000	0	0	-1	1000
13794275	33	305	0	-100	0	230	101300000	1000	0	0	-1	1000
13806835	31	302	0	-100	0	230	101300000	1000	0	0	-1	1000
13819395	29	307	0	-100	0	230	101300000	1000	0	0	-1	1000
13831955	26	307	0	-100	0	230	101300000	1000	0	0	-1	1000
13844515	31	302	0	-100	0	230	101300000	1000	0	0	-1	1000
13857075	29	310	0	-100	0	230	101300000	1000	0	0	-1	1000
13869635	36	306	0	-100	0	230	101300000	1000	0	0	-1	1000
13882195	31	304	0	-100	0	230	101300000	1000	0	0	-1	1000
13894755	29	310	0	-100	0	230	101300000	1000	0	0	-1	1000
13907315	38	305	0	-100	0	230	101300000	1000	0	0	-1	1000
13919875	26	307	0	-100	0	230	101300000	1000	0	0	-1	1000
13932435	26	307	0	-100	0	230	101300000	1000	0	0	-1	1000
13944995	31	304	0	-100	0	230	101300000	1000	0	0	-1	1000
13957555	24	309	0	-100	0	230	101300000	1000	0	0	-1	1000
13970115	38	306	0	-100	0	230	101300000	1000	0	0	-1	1000
13982675	29	306	0	-100	0	230	101300000	1000	0	0	-1	1000
13995235	29	307	0	-100	0	230	101300000	1000	0	0	-1	1000
14007795	33	302	0	-100	0	230	101300000	1000	0	0	-1	1000
14020355	29	311	0	-100	0	230	101300000	1000	0	0	-1	1000
14032915	36	305	0	-100	0	230	101300000	1000	0	0	-1	1000
14045475	24	307	0	-100	0	230	101300000	1000	0	0	-1	1000
14058035	29	307	0	-100	0	230	101300000	1000	0	0	-1	1000
14070595	33	302	0	-100	0	230	101300000	1000	0	0	-1	1000
14083155	26	310	0	-100	0	230	101300000	1000	0	0	-1	1000
14095715	33	304	0	-100	0	230	101300000	1000	0	0	-1	1000
14108275	31	303	0	-100	0	230	101300000	1000	0	0	-1	1000
14120835	26	307	0	-100	0	230	101300000	1000	0	0	-1	1000
14133395	29	304	0	-100	0	230	101300000	1000	0	0	-1	1000
14145955	31	303	0	-100	0	230	101300000	1000	0	0	-1	1000
14158515	29	306	0	-100	0	230	101300000	1000	0	0	-1	1000
14171075	36	302	0	-100	0	230	101300000	1000	0	0	-1	1000
14183635	26	309	0	-100	0	230	101300000	1000	0	0	-1	1000
14196195	29	302	0	-100	0	230	101300000	1000	0	0	-1	1000
14208755	29	304	0	-100	0	230	101300000	1000	0	0	-1	1000
14221315	36	310	0	-100	0	230	101300000	1000	0	0	-1	1000
14233875	33	305	0	-100	0	230	101300000	1000	0	0	-1	1000
14246435	26	307	0	-100	0	230	101300000	1000	0	0	-1	1000
14258995	31	303	0	-100	0	230	101300000	1000	0	0	-1	1000
14271555	29	304	0	-100	0	230	101300000	1000	0	0	-1	1000
14284115	33	308	0	-100	0	230	101300000	1000	0	0	-1	1000
14296675	33	302	0	-100	0	230	101300000	1000	0	0	-1	1000
14309235	26	308	0	-100	0	230	101300000	1000	0	0	-1	1000
14321795	29	302	0	-100	0	230	101300000	1000	0	0	-1	1000
14334355	33	303	0	-100	0	230	101300000	1000	0	0	-1	1000
14346915	26	310	0	-100	0	230	101300000	1000	0	0	-1	1000
14359475	29	301	0	-100	0	230	101300000	1000	0	0	-1	1000
14372035	33	302	0	-100	0	230	101300000	1000	0	0	-1	1000
14384595	29	311	0	-100	0	230	101300000	1000	0	0	-1	1000
14397155	26	309	0	-100	0	230	101300000	1000	0	0	-1	1000
14409715	33	304	0	-100	0	230	101300000	1000	0	0	-1	1000
14422275	26	308	0	-100	0	230	101300000	1000	0	0	-1	1000
14434835	29	304	0	-100	0	230	101300000	1000	0	0	-1	1000
14447395	33	301	0	-100	0	230	101300000	1000	0	0	-1	1000
14459955	36	301	0	-100	0	230	101300000	1000	0	0	-1	1000
14472515	26	308	0	-100	0	230	101300000	1000	0	0	-1	1000
14485075	31	307	0	-100	0	230	101300000	1000	0	0	-1	1000
14497635	33	302	0	-100	0	230	101300000	1000	0	0	-1	1000
14510195	26	308	0	-100	0	230	101300000	1000	0	0	-1	1000
14522755	29	308	0	-100	0	230	101300000	1000	0	0	-1	1000
14535315	38	311	0	-100	0	230	101300000	1000	0	0	-1	1000
14547875	33	305	0	-100	0	230	101300000	1000	0	0	-1	1000
14560435	26	310	0	-100	0	230	101300000	1000	0	0	-1	1000
14572995	26	302	0	-100	0	230	101300000	1000	0	0	-1	1000
14585555	36	303	0	-100	0	230	101300000	1000	0	0	-1	1000
14598115	38	309	0	-100	0	230	101300000	1000	0	0	-1	1000
14610675	26	314	0	-100	0	230	101300000	1000	0	0	-1	1000
14623235	31	306	0	-100	0	230	101300000	1000	0	0	-1	1000
14635795	33	305	0	-100	0	230	101300000	1000	0	0	-1	1000
14648355	31	303	0	-100	0	230	101300000	1000	0	0	-1	1000
14660915	26	309	0	-100	0	230	101300000	1000	0	0	-1	1000
14673475	29	305	0	-100	0	230	101300000	1000	0	0	-1	1000
14686035	36	304	0	-100	0	230	101300000	1000	0	0	-1	1000
14698595	26	306	0	-100	0	230	101300000	1000	0	0	-1	1000
14711155	29	309	0	-100	0	230	101300000	1000	0	0	-1	1000
14723715	33	299	0	-100	0	230	101300000	1000	0	0	-1	1000
14736275	26	307	0	-100	0	230	101300000	1000	0	0	-1	1000
14748835	29	302	0	-100	0	230	101300000	1000	0	0	-1	1000
14761395	31	304	0	-100	0	230	101300000	1000	0	0	-1	1000
14773955	29	313	0	-100	0	230	101300000	1000	0	0	-1	1000
14786515	31	303	0	-100	0	230	101300000	1000	0	0	-1	1000
14799075	31	302	0	-100	0	230	101300000	1000	0	0	-1	1000
14811635	29	344	0	-100	0	230	101300000	1000	0	0	-1	1000
14824195	33	304	0	-100	0	230	101300000	1000	0	0	-1	1000
14836755	24	310	0	-100	0	230	101300000	1000	0	0	-1	1000
14849315	33	307	0	-100	0	230	101300000	1000	0	0	-1	1000
14861875	33	300	0	-100	0	230	101300000	1000	0	0	-1	1000
14874435	26	308	0	-100	0	230	101300000	1000	0	0	-1	1000
14886995	26	307	0	-100	0	230	101300000	1000	0	0	-1	1000
14899555	31	293	0	-100	0	230	101300000	1000	0	0	-1	1000
14912115	41	305	0	-100	0	230	101300000	1000	0	0	-1	1000
14924675	33	302	0	-100	0	230	101300000	1000	0	0	-1	1000
14937235	26	306	0	-100	0	230	101300000	1000	0	0	-1	1000
14949795	29	308	0	-100	0	230	101300000	1000	0	0	-1	1000
14962355	29	306	0	-100	0	230	101300000	1000	0	0	-1	1000
14974915	33	301	0	-100	0	230	101300000	1000	0	0	-1	1000
14987475	29	301	0	-100	0	230	101300000	1000	0	0	-1	1000
15000035	26	311	0	-100	0	230	101300000	1000	0	0	-1	1000
15012595	29	313	0	-100	0	230	101300000	1000	0	0	-1	1000
15025155	26	307	0	-100	0	230	101300000	1000	0	0	-1	1000
15037715	31	304	0	-100	0	230	101300000	1000	0	0	-1	1000
15050275	33	302	0	-100	0	230	101300000	1000	0	0	-1	1000
15062835	26	308	0	-100	0	230	101300000	1000	0	0	-1	1000
15075395	29	310	0	-100	0	230	101300000	1000	0	0	-1	1000
15087955	29	306	0	-100	0	230	101300000	1000	0	0	-1	1000
15100515	33	302	0	-100	0	230	101300000	1000	0	0	-1	1000
15113075	26	305	0	-100	0	230	101300000	1000	0	0	-1	1000
15125635	29	312	0	-100	0	230	101300000	1000	0	0	-1	1000
15138195	31	302	0	-100	0	230	101300000	1000	0	0	-1	1000
15150755	33	303	0	-100	0	230	101300000	1000	0	0	-1	1000
15163315	31	309	0	-100	0	230	101300000	1000	0	0	-1	1000
15175875	26	306	0	-100	0	230	101300000	1000	0	0	-1	1000
15188435	33	305	0	-100	0	230	101300000	1000	0	0	-1	1000
15200995	29	307	0	-100	0	230	101300000	1000	0	0	-1	1000
15213555	26	310	0	-100	0	230	101300000	1000	0	0	-1	1000
15226115	31	307	0	-100	0	230	101300000	1000	0	0	-1	1000
15238675	31	303	0	-100	0	230	101300000	1000	0	0	-1	1000
15251235	31	291	0	-100	0	230	101300000	1000	0	0	-1	1000
15263795	26	311	0	-100	0	230	101300000	1000	0	0	-1	1000
15276355	29	305	0	-100	0	230	101300000	1000	0	0	-1	1000
15288915	36	304	0	-100	0	230	101300000	1000	0	0	-1	1000
15301475	29	304	0	-100	0	230	101300000	1000	0	0	-1	1000
15314035	26	309	0	-100	0	230	101300000	1000	0	0	-1	1000
15326595	26	307	0	-100	0	230	101300000	1000	0	0	-1	1000
15339155	33	304	0	-100	0	230	101300000	1000	0	0	-1	1000
15351715	33	302	0	-100	0	230	101300000	1000	0	0	-1	1000
15364275	26	306	0	-100	0	230	101300000	1000	0	0	-1	1000
15376835	29	311	0	-100	0	230	101300000	1000	0	0	-1	1000
15389395	29	302	0	-100	0	230	101300000	1000	0	0	-1	1000
15401955	33	305	0	-100	0	230	101300000	1000	0	0	-1	1000
15414515	33	302	0	-100	0	230	101300000	1000	0	0	-1	1000
15427075	33	303	0	-100	0	230	101300000	1000	0	0	-1	1000
15439635	26	311	0	-100	0	230	101300000	1000	0	0	-1	1000
15452195	29	313	0	-100	0	230	101300000	1000	0	0	-1	1000
15464755	31	302	0	-100	0	230	101300000	1000	0	0	-1	1000
15477315	41	303	0	-100	0	230	101300000	1000	0	0	-1	1000
15489875	31	305	0	-100	0	230	101300000	1000	0	0	-1	1000
15502435	26	310	0	-100	0	230	101300000	1000	0	0	-1	1000
15514995	29	302	0	-100	0	230	101300000	1000	0	0	-1	1000
15527555	33	300	0	-100	0	230	101300000	1000	0	0	-1	1000
15540115	31	310	0	-100	0	230	101300000	1000	0	0	-1	1000
15552675	26	308	0	-100	0	230	101300000	1000	0	0	-1	1000
15565235	36	305	0	-100	0	230	101300000	1000	0	0	-1	1000
15577795	26	310	0	-100	0	230	101300000	1000	0	0	-1	1000
15590355	29	307	0	-100	0	230	101300000	1000	0	0	-1	1000
15602915	36	303	0	-100	0	230	101300000	1000	0	0	-1	1000
15615475	29	309	0	-100	0	230	101300000	1000	0	0	-1	1000
15628035	33	303	0	-100	0	230	101300000	1000	0	0	-1	1000
15640595	26	311	0	-100	0	230	101300000	1000	0	0	-1	1000
15653155	31	304	0	-100	0	230	101300000	1000	0	0	-1	1000
15665715	33	304	0	-100	0	230	101300000	1000	0	0	-1	1000
15678275	29	309	0	-100	0	230	101300000	1000	0	0	-1	1000
15690835	33	304	0	-100	0	230	101300000	1000	0	0	-1	1000
15703395	33	303	0	-100	0	230	101300000	1000	0	0	-1	1000
15715955	31	311	0	-100	0	230	101300000	1000	0	0	-1	1000
15728515	31	303	0	-100	0	230	101300000	1000	0	0	-1	1000
15741075	29	306	0	-100	0	230	101300000	1000	0	0	-1	1000
15753635	26	306	0	-100	0	230	101300000	1000	0	0	-1	1000
15766195	36	303	0	-100	0	230	101300000	1000	0	0	-1	1000
15778755	26	311	0	-100	0	230	101300000	1000	0	0	-1	1000
15791315	41	306	0	-100	0	230	101300000	1000	0	0	-1	1000
15803875	26	310	0	-100	0	230	101300000	1000	0	0	-1	1000
15816435	36	305	0	-100	0	230	101300000	1000	0	0	-1	1000
15828995	26	303	0	-100	0	230	101300000	1000	0	0	-1	1000
15841555	33	303	0	-100	0	230	101300000	1000	0	0	-1	1000
15854115	33	312	0	-100	0	230	101300000	1000	0	0	-1	1000
15866675	31	305	0	-100	0	230	101300000	1000	0	0	-1	1000
15879235	36	304	0	-100	0	230	101300000	1000	0	0	-1	1000
15891795	26	310	0	-100	0	230	101300000	1000	0	0	-1	1000
15904355	29	304	0	-100	0	230	101300000	1000	0	0	-1	1000
15916915	33	303	0	-100	0	230	101300000	1000	0	0	-1	1000
15929475	26	311	0	-100	0	230	101300000	1000	0	0	-1	1000
15942035	33	304	0	-100	0	230	101300000	1000	0	0	-1	1000
15954595	29	308	0	-100	0	230	101300000	1000	0	0	-1	1000
15967155	31	302	0	-100	0	230	101300000	1000	0	0	-1	1000
15979715	26	307	0	-100	0	230	101300000	1000	0	0	-1	1000
15992275	31	302	0	-100	0	230	101300000	1000	0	0	-1	1000
16004835	29	307	0	-100	0	230	101300000	1000	0	0	-1	1000
16017395	26	308	0	-100	0	230	101300000	1000	0	0	-1	1000
16029955	31	305	0	-100	0	230	101300000	1000	0	0	-1	1000
16042515	29	306	0	-100	0	230	101300000	1000	0	0	-1	1000
16055075	29	306	0	-100	0	230	101300000	1000	0	0	-1	1000
16067635	29	305	0	-100	0	230	101300000	1000	0	0	-1	1000
16080195	36	304	0	-100	0	230	101300000	1000	0	0	-1	1000
16092755	31	313	0	-100	0	230	101300000	1000	0	0	-1	1000
16105315	38	305	0	-100	0	230	101300000	1000	0	0	-1	1000
16117875	29	307	0	-100	0	230	101300000	1000	0	0	-1	1000
16130435	29	305	0	-100	0	230	101300000	1000	0	0	-1	1000
16142995	29	309	0	-100	0	230	101300000	1000	0	0	-1	1000
16155555	29	309	0	-100	0	230	101300000	1000	0	0	-1	1000
16168115	38	306	0	-100	0	230	101300000	1000	0	0	-1	1000
16180675	33	311	0	-100	0	230	101300000	1000	0	0	-1	1000
16193235	33	302	0	-100	0	230	101300000	1000	0	0	-1	1000
16205795	29	311	0	-100	0	230	101300000	1000	0	0	-1	1000
16218355	33	305	0	-100	0	230	101300000	1000	0	0	-1	1000
16230915	29	310	0	-100	0	230	101300000	1000	0	0	-1	1000
16243475	33	301	0	-100	0	230	101300000	1000	0	0	-1	1000
16256035	26	310	0	-100	0	230	101300000	1000	0	0	-1	1000
16268595	36	305	0	-100	0	230	101300000	1000	0	0	-1	1000
16281155	26	311	0	-100	0	230	101300000	1000	0	0	-1	1000
16293715	33	305	0	-100	0	230	101300000	1000	0	0	-1	1000
16306275	26	310	0	-100	0	230	101300000	1000	0	0	-1	1000
16318835	26	302	0	-100	0	230	101300000	1000	0	0	-1	1000
16331395	29	307	0	-100	0	230	101300000	1000	0	0	-1	1000
16343955	29	307	0	-100	0	230	101300000	1000	0	0	-1	1000
16356515	33	302	0	-100	0	230	101300000	1000	0	0	-1	1000
16369075	29	309	0	-100	0	230	101300000	1000	0	0	-1	1000
16381635	26	302	0	-100	0	230	101300000	1000	0	0	-1	1000
16394195	33	303	0	-100	0	230	101300000	1000	0	0	-1	1000
16406755	29	307	0	-100	0	230	101300000	1000	0	0	-1	1000
16419315	38	306	0	-100	0	230	101300000	1000	0	0	-1	1000
16431875	29	312	0	-100	0	230	101300000	1000	0	0	-1	1000
16444435	33	300	0	-100	0	230	101300000	1000	0	0	-1	1000
16456995	29	302	0	-100	0	230	101300000	1000	0	0	-1	1000
16469555	31	302	0	-100	0	230	101300000	1000	0	0	-1	1000
16482115	31	311	0	-100	0	230	101300000	1000	0	0	-1	1000
16494675	31	304	0	-100	0	230	101300000	1000	0	0	-1	1000
16507235	29	303	0	-100	0	230	101300000	1000	0	0	-1	1000
16519795	26	307	0	-100	0	230	101300000	1000	0	0	-1	1000
16532355	33	301	0	-100	0	230	101300000	1000	0	0	-1	1000
16544915	26	310	0	-100	0	230	101300000	1000	0	0	-1	1000
16557475	33	303	0	-100	0	230	101300000	1000	0	0	-1	1000
16570035	29	306	0	-100	0	230	101300000	1000	0	0	-1	1000
16582595	29	309	0	-100	0	230	101300000	1000	0	0	-1	1000
16595155	31	302	0	-100	0	230	101300000	1000	0	0	-1	1000
16607715	33	303	0	-100	0	230	101300000	1000	0	0	-1	1000
16620275	29	310	0	-100	0	230	101300000	1000	0	0	-1	1000
16632835	31	307	0	-100	0	230	101300000	1000	0	0	-1	1000
16645395	33	302	0	-100	0	230	101300000	1000	0	0	-1	1000
16657955	26	308	0	-100	0	230	101300000	1000	0	0	-1	1000
16670515	26	306	0	-100	0	230	101300000	1000	0	0	-1	1000
16683075	33	302	0	-100	0	230	101300000	1000	0	0	-1	1000
16695635	29	306	0	-100	0	230	101300000	1000	0	0	-1	1000
16708195	29	310	0	-100	0	230	101300000	1000	0	0	-1	1000
16720755	31	303	0	-100	0	230	101300000	1000	0	0	-1	1000
16733315	41	307	0	-100	0	230	101300000	1000	0	0	-1	1000
16745875	26	308	0	-100	0	230	101300000	1000	0	0	-1	1000
16758435	29	308	0	-100	0	230	101300000	1000	0	0	-1	1000
16770995	33	302	0	-100	0	230	101300000	1000	0	0	-1	1000
16783555	33	304	0	-100	0	230	101300000	1000	0	0	-1	1000
16796115	31	312	0	-100	0	230	101300000	1000	0	0	-1	1000
16808675	31	302	0	-100	0	230	101300000	1000	0	0	-1	1000
16821235	31	302	0	-100	0	230	101300000	1000	0	0	-1	1000
16833795	26	310	0	-100	0	230	101300000	1000	0	0	-1	1000
16846355	31	304	0	-100	0	230	101300000	1000	0	0	-1	1000
16858915	36	303	0	-100	0	230	101300000	1000	0	0	-1	1000
16871475	29	310	0	-100	0	230	101300000	1000	0	0	-1	1000
16884035	33	303	0	-100	0	230	101300000	1000	0	0	-1	1000
16896595	36	304	0	-100	0	230	101300000	1000	0	0	-1	1000
16909155	26	309	0	-100	0	230	101300000	1000	0	0	-1	1000
16921715	29	303	0	-100	0	230	101300000	1000	0	0	-1	1000
16934275	33	301	0	-100	0	230	101300000	1000	0	0	-1	1000
16946835	26	307	0	-100	0	230	101300000	1000	0	0	-1	1000
16959395	31	310	0	-100	0	230	101300000	1000	0	0	-1	1000
16971955	31	302	0	-100	0	230	101300000	1000	0	0	-1	1000
16984515	33	304	0	-100	0	230	101300000	1000	0	0	-1	1000
16997075	26	311	0	-100	0	230	101300000	1000	0	0	-1	1000
17009635	29	304	0	-100	0	230	101300000	1000	0	0	-1	1000
17022195	36	301	0	-100	0	230	101300000	1000	0	0	-1	1000
17034755	29	305	0	-100	0	230	101300000	1000	0	0	-1	1000
17047315	33	314	0	-100	0	230	101300000	1000	0	0	-1	1000
17059875	33	302	0	-100	0	230	101300000	1000	0	0	-1	1000
17072435	31	303	0	-100	0	230	101300000	1000	0	0	-1	1000
17084995	31	303	0	-100	0	230	101300000	1000	0	0	-1	1000
17097555	33	303	0	-100	0	230	101300000	1000	0	0	-1	1000
17110115	31	311	0	-100	0	230	101300000	1000	0	0	-1	1000
17122675	31	303	0	-100	0	230	101300000	1000	0	0	-1	1000
17135235	31	304	0	-100	0	230	101300000	1000	0	0	-1	1000
17147795	29	309	0	-100	0	230	101300000	1000	0	0	-1	1000
17160355	31	302	0	-100	0	230	101300000	1000	0	0	-1	1000
17172915	31	304	0	-100	0	230	101300000	1000	0	0	-1	1000
17185475	29	310	0	-100	0	230	101300000	1000	0	0	-1	1000
17198035	29	305	0	-100	0	230	101300000	1000	0	0	-1	1000
17210595	33	302	0	-100	0	230	101300000	1000	0	0	-1	1000
17223155	31	307	0	-100	0	230	101300000	1000	0	0	-1	1000
17235715	26	310	0	-100	0	230	101300000	1000	0	0	-1	1000
17248275	26	307	0	-100	0	230	101300000	1000	0	0	-1	1000
17260835	29	303	0	-100	0	230	101300000	1000	0	0	-1	1000
17273395	31	302	0	-100	0	230	101300000	1000	0	0	-1	1000
17285955	36	304	0	-100	0	230	101300000	1000	0	0	-1	1000
17298515	26	310	0	-100	0	230	101300000	1000	0	0	-1	1000
17311075	26	304	0	-100	0	230	101300000	1000	0	0	-1	1000
17323635	31	302	0	-100	0	230	101300000	1000	0	0	-1	1000
17336195	26	307	0	-100	0	230	101300000	1000	0	0	-1	1000
17348755	26	306	0	-100	0	230	101300000	1000	0	0	-1	1000
17361315	38	308	0	-100	0	230	101300000	1000	0	0	-1	1000
17373875	26	307	0	-100	0	230	101300000	1000	0	0	-1	1000
17386435	31	308	0	-100	0	230	101300000	1000	0	0	-1	1000
17398995	31	305	0	-100	0	230	101300000	1000	0	0	-1	1000
17411555	36	305	0	-100	0	230	101300000	1000	0	0	-1	1000
17424115	33	312	0	-100	0	230	101300000	1000	0	0	-1	1000
17436675	29	303	0	-100	0	230	101300000	1000	0	0	-1	1000
17449235	33	301	0	-100	0	230	101300000	1000	0	0	-1	1000
17461795	29	304	0	-100	0	230	101300000	1000	0	0	-1	1000
17474355	29	310	0	-100	0	230	101300000	1000	0	0	-1	1000
17486915	31	305	0	-100	0	230	101300000	1000	0	0	-1	1000
17499475	31	303	0	-100	0	230	101300000	1000	0	0	-1	1000
17512035	26	311	0	-100	0	230	101300000	1000	0	0	-1	1000
17524595	29	303	0	-100	0	230	101300000	1000	0	0	-1	1000
17537155	33	305	0	-100	0	230	101300000	1000	0	0	-1	1000
17549715	29	310	0	-100	0	230	101300000	1000	0	0	-1	1000
17562275	29	302	0	-100	0	230	101300000	1000	0	0	-1	1000
17574835	36	302	0	-100	0	230	101300000	1000	0	0	-1	1000
17587395	26	308	0	-100	0	230	101300000	1000	0	0	-1	1000
17599955	29	307	0	-100	0	230	101300000	1000	0	0	-1	1000
17612515	33	303	0	-100	0	230	101300000	1000	0	0	-1	1000
17625075	31	302	0	-100	0	230	101300000	1000	0	0	-1	1000
17637635	29	309	0	-100	0	230	101300000	1000	0	0	-1	1000
17650195	31	303	0	-100	0	230	101300000	1000	0	0	-1	1000
17662755	33	303	0	-100	0	230	101300000	1000	0	0	-1	1000
17675315	31	311	0	-100	0	230	101300000	1000	0	0	-1	1000
17687875	31	305	0	-100	0	230	101300000	1000	0	0	-1	1000
17700435	33	304	0	-100	0	230	101300000	1000	0	0	-1	1000
17712995	26	303	0	-100	0	230	101300000	1000	0	0	-1	1000
17725555	33	302	0	-100	0	230	101300000	1000	0	0	-1	1000
17738115	33	311	0	-100	0	230	101300000	1000	0	0	-1	1000
17750675	26	306	0	-100	0	230	101300000	1000	0	0	-1	1000
17763235	33	300	0	-100	0	230	101300000	1000	0	0	-1	1000
17775795	29	310	0	-100	0	230	101300000	1000	0	0	-1	1000
17788355	31	302	0	-100	0	230	101300000	1000	0	0	-1	1000
17800915	31	307	0	-100	0	230	101300000	1000	0	0	-1	1000
17813475	26	307	0	-100	0	230	101300000	1000	0	0	-1	1000
17826035	33	305	0	-100	0	230	101300000	1000	0	0	-1	1000
17838595	29	307	0	-100	0	230	101300000	1000	0	0	-1	1000
17851155	33	302	0	-100	0	230	101300000	1000	0	0	-1	1000
17863715	29	310	0	-100	0	230	101300000	1000	0	0	-1	1000
17876275	33	304	0	-100	0	230	101300000	1000	0	0	-1	1000
17888835	24	308	0	-100	0	230	101300000	1000	0	0	-1	1000
17901395	29	302	0	-100	0	230	101300000	1000	0	0	-1	1000
17913955	31	303	0	-100	0	230	101300000	1000	0	0	-1	1000
17926515	31	308	0	-100	0	230	101300000	1000	0	0	-1	1000
17939075	36	304	0	-100	0	230	101300000	1000	0	0	-1	1000
17951635	33	309	0	-100	0	230	101300000	1000	0	0	-1	1000
17964195	33	301	0	-100	0	230	101300000	1000	0	0	-1	1000
17976755	29	311	0	-100	0	230	101300000	1000	0	0	-1	1000
17989315	38	306	0	-100	0	230	101300000	1000	0	0	-1	1000
18001875	26	309	0	-100	0	230	101300000	1000	0	0	-1	1000
18014435	29	305	0	-100	0	230	101300000	1000	0	0	-1	1000
18026995	36	310	0	-100	0	230	101300000	1000	0	0	-1	1000
18039555	26	310	0	-100	0	230	101300000	1000	0	0	-1	1000
18052115	38	307	0	-100	0	230	101300000	1000	0	0	-1	1000
18064675	26	311	0	-100	0	230	101300000	1000	0	0	-1	1000
18077235	31	304	0	-100	0	230	101300000	1000	0	0	-1	1000
18089795	36	305	0	-100	0	230	101300000	1000	0	0	-1	1000
18102355	26	309	0	-100	0	230	101300000	1000	0	0	-1	1000
18114915	26	304	0	-100	0	230	101300000	1000	0	0	-1	1000
18127475	36	303	0	-100	0	230	101300000	1000	0	0	-1	1000
18140035	29	310	0	-100	0	230	101300000	1000	0	0	-1	1000
18152595	36	302	0	-100	0	230	101300000	1000	0	0	-1	1000
18165155	29	311	0	-100	0	230	101300000	1000	0	0	-1	1000
18177715	33	303	0	-100	0	230	101300000	1000	0	0	-1	1000
18190275	26	309	0	-100	0	230	101300000	1000	0	0	-1	1000
18202835	26	308	0	-100	0	230	101300000	1000	0	0	-1	1000
18215395	36	302	0	-100	0	230	101300000	1000	0	0	-1	1000
18227955	26	308	0	-100	0	230	101300000	1000	0	0	-1	1000
18240515	26	304	0	-100	0	230	101300000	1000	0	0	-1	1000
18253075	33	303	0	-100	0	230	101300000	1000	0	0	-1	1000
18265635	29	309	0	-100	0	230	101300000	1000	0	0	-1	1000
18278195	33	301	0	-100	0	230	101300000	1000	0	0	-1	1000
18290755	26	309	0	-100	0	230	101300000	1000	0	0	-1	1000
18303315	33	305	0	-100	0	230	101300000	1000	0	0	-1	1000
18315875	36	305	0	-100	0	230	101300000	1000	0	0	-1	1000
18328435	26	312	0	-100	0	230	101300000	1000	0	0	-1	1000
18340995	33	307	0	-100	0	230	101300000	1000	0	0	-1	1000
18353555	26	308	0	-100	0	230	101300000	1000	0	0	-1	1000
18366115	33	309	0	-100	0	230	101300000	1000	0	0	-1	1000
18378675	36	305	0	-100	0	230	101300000	1000	0	0	-1	1000
18391235	29	312	0	-100	0	230	101300000	1000	0	0	-1	1000
18403795	31	303	0	-100	0	230	101300000	1000	0	0	-1	1000
18416355	29	305	0	-100	0	230	101300000	1000	0	0	-1	1000
18428915	31	310	0	-100	0	230	101300000	1000	0	0	-1	1000
18441475	33	304	0	-100	0	230	101300000	1000	0	0	-1	1000
18454035	26	309	0	-100	0	230	101300000	1000	0	0	-1	1000
18466595	26	302	0	-100	0	230	101300000	1000	0	0	-1	1000
18479155	36	304	0	-100	0	230	101300000	1000	0	0	-1	1000
18491715	29	310	0	-100	0	230	101300000	1000	0	0	-1	1000
18504275	31	304	0	-100	0	230	101300000	1000	0	0	-1	1000
18516835	29	305	0	-100	0	230	101300000	1000	0	0	-1	1000
18529395	31	311	0	-100	0	230	101300000	1000	0	0	-1	1000
18541955	33	305	0	-100	0	230	101300000	1000	0	0	-1	1000
18554515	26	307	0	-100	0	230	101300000	1000	0	0	-1	1000
18567075	29	306	0	-100	0	230	101300000	1000	0	0	-1	1000
18579635	31	304	0	-100	0	230	101300000	1000	0	0	-1	1000
18592195	33	304	0	-100	0	230	101300000	1000	0	0	-1	1000
18604755	29	311	0	-100	0	230	101300000	1000	0	0	-1	1000
18617315	38	308	0	-100	0	230	101300000	1000	0	0	-1	1000
18629875	36	305	0	-100	0	230	101300000	1000	0	0	-1	1000
18642435	26	311	0	-100	0	230	101300000	1000	0	0	-1	1000
18654995	33	303	0	-100	0	230	101300000	1000	0	0	-1	1000
18667555	29	304	0	-100	0	230	101300000	1000	0	0	-1	1000
18680115	38	311	0	-100	0	230	101300000	1000	0	0	-1	1000
18692675	36	303	0	-100	0	230	101300000	1000	0	0	-1	1000
18705235	26	311	0	-100	0	230	101300000	1000	0	0	-1	1000
18717795	33	304	0	-100	0	230	101300000	1000	0	0	-1	1000
18730355	31	305	0	-100	0	230	101300000	1000	0	0	-1	1000
18742915	29	308	0	-100	0	230	101300000	1000	0	0	-1	1000
18755475	33	303	0	-100	0	230	101300000	1000	0	0	-1	1000
18768035	29	310	0	-100	0	230	101300000	1000	0	0	-1	1000
18780595	31	303	0	-100	0	230	101300000	1000	0	0	-1	1000
18793155	26	308	0	-100	0	230	101300000	1000	0	0	-1	1000
18805715	26	306	0	-100	0	230	101300000	1000	0	0	-1	1000
18818275	33	300	0	-100	0	230	101300000	1000	0	0	-1	1000
18830835	26	308	0	-100	0	230	101300000	1000	0	0	-1	1000
18843395	33	308	0	-100	0	230	101300000	1000	0	0	-1	1000
18855955	31	304	0	-100	0	230	101300000	1000	0	0	-1	1000
18868515	36	303	0	-100	0	230	101300000	1000	0	0	-1	1000
18881075	26	309	0	-100	0	230	101300000	1000	0	0	-1	1000
18893635	29	306	0	-100	0	230	101300000	1000	0	0	-1	1000
18906195	33	303	0	-100	0	230	101300000	1000	0	0	-1	1000
18918755	31	303	0	-100	0	230	101300000	1000	0	0	-1	1000
18931315	31	312	0	-100	0	230	101300000	1000	0	0	-1	1000
18943875	29	305	0	-100	0	230	101300000	1000	0	0	-1	1000
18956435	33	303	0	-100	0	230	101300000	1000	0	0	-1	1000
18968995	26	304	0	-100	0	230	101300000	1000	0	0	-1	1000
18981555	31	304	0	-100	0	230	101300000	1000	0	0	-1	1000
18994115	41	307	0	-100	0	230	101300000	1000	0	0	-1	1000
19006675	26	309	0	-100	0	230	101300000	1000	0	0	-1	1000
19019235	29	307	0	-100	0	230	101300000	1000	0	0	-1	1000
19031795	36	305	0	-100	0	230	101300000	1000	0	0	-1	1000
19044355	29	307	0	-100	0	230	101300000	1000	0	0	-1	1000
19056915	29	307	0	-100	0	230	101300000	1000	0	0	-1	1000
19069475	31	303	0	-100	0	230	101300000	1000	0	0	-1	1000
19082035	36	304	0	-100	0	230	101300000	1000	0	0	-1	1000
19094595	31	313	0	-100	0	230	101300000	1000	0	0	-1	1000
19107155	36	304	0	-100	0	230	101300000	1000	0	0	-1	1000
19119715	29	311	0	-100	0	230	101300000	1000	0	0	-1	1000
19132275	33	304	0	-100	0	230	101300000	1000	0	0	-1	1000
19144835	31	305	0	-100	0	230	101300000	1000	0	0	-1	1000
19157395	29	306	0	-100	0	230	101300000	1000	0	0	-1	1000
19169955	36	303	0	-100	0	230	101300000	1000	0	0	-1	1000
19182515	29	310	0	-100	0	230	101300000	1000	0	0	-1	1000
19195075	33	302	0	-100	0	230	101300000	1000	0	0	-1	1000
19207635	31	305	0	-100	0	230	101300000	1000	0	0	-1	1000
19220195	31	311	0	-100	0	230	101300000	1000	0	0	-1	1000
19232755	31	302	0	-100	0	230	101300000	1000	0	0	-1	1000
19245315	33	307	0	-100	0	230	101300000	1000	0	0	-1	1000
19257875	26	306	0	-100	0	230	101300000	1000	0	0	-1	1000
19270435	33	300	0	-100	0	230	101300000	1000	0	0	-1	1000
19282995	26	306	0	-100	0	230	101300000	1000	0	0	-1	1000
19295555	33	304	0	-100	0	230	101300000	1000	0	0	-1	1000
19308115	38	304	0	-100	0	230	101300000	1000	0	0	-1	1000
19320675	26	309	0	-100	0	230	101300000	1000	0	0	-1	1000
19333235	31	303	0	-100	0	230	101300000	1000	0	0	-1	1000
19345795	33	305	0	-100	0	230	101300000	1000	0	0	-1	1000
19358355	26	310	0	-100	0	230	101300000	1000	0	0	-1	1000
19370915	33	304	0	-100	0	230	101300000	1000	0	0	-1	1000
19383475	26	310	0	-100	0	230	101300000	1000	0	0	-1	1000
19396035	31	304	0	-100	0	230	101300000	1000	0	0	-1	1000
19408595	36	306	0	-100	0	230	101300000	1000	0	0	-1	1000
19421155	29	311	0	-100	0	230	101300000	1000	0	0	-1	1000
19433715	33	302	0	-100	0	230	101300000	1000	0	0	-1	1000
19446275	26	306	0	-100	0	230	101300000	1000	0	0	-1	1000
19458835	29	307	0	-100	0	230	101300000	1000	0	0	-1	1000
19471395	33	300	0	-100	0	230	101300000	1000	0	0	-1	1000
19483955	26	307	0	-100	0	230	101300000	1000	0	0	-1	1000
19496515	33	310	0	-100	0	230	101300000	1000	0	0	-1	1000
19509075	36	303	0	-100	0	230	101300000	1000	0	0	-1	1000
19521635	26	307	0	-100	0	230	101300000	1000	0	0	-1	1000
19534195	29	308	0	-100	0	230	101300000	1000	0	0	-1	1000
19546755	33	302	0	-100	0	230	101300000	1000	0	0	-1	1000
19559315	33	313	0	-100	0	230	101300000	1000	0	0	-1	1000
19584435	33	302	0	-100	0	230	101300000	1000	0	0	-1	1000
19596995	31	297	0	-100	0	230	101300000	1000	0	0	-1	1000
19609555	36	302	0	-100	0	230	101300000	1000	0	0	-1	1000
19622115	33	312	0	-100	0	230	101300000	1000	0	0	-1	1000
19634675	31	303	0	-100	0	230	101300000	1000	0	0	-1	1000
19647235	29	304	0	-100	0	230	101300000	1000	0	0	-1	1000
19659795	29	308	0	-100	0	230	101300000	1000	0	0	-1	1000
19672355	36	300	0	-100	0	230	101300000	1000	0	0	-1	1000
19684915	26	311	0	-100	0	230	101300000	1000	0	0	-1	1000
19697475	26	303	0	-100	0	230	101300000	1000	0	0	-1	1000
19710035	36	304	0	-100	0	230	101300000	1000	0	0	-1	1000
19722595	29	311	0	-100	0	230	101300000	1000	0	0	-1	1000
19810515	33	301	0	-100	0	230	101300000	1000	0	0	-1	1000
19823075	26	310	0	-100	0	230	101300000	1000	0	0	-1	1000
19835635	29	303	0	-100	0	230	101300000	1000	0	0	-1	1000
19848195	31	303	0	-100	0	230	101300000	1000	0	0	-1	1000
19860755	31	307	0	-100	0	230	101300000	1000	0	0	-1	1000
19873315	38	306	0	-100	0	230	101300000	1000	0	0	-1	1000
19885875	26	311	0	-100	0	230	101300000	1000	0	0	-1	1000
19898435	33	303	0	-100	0	230	101300000	1000	0	0	-1	1000
19910995	29	308	0	-100	0	230	101300000	1000	0	0	-1	1000
19923555	26	308	0	-100	0	230	101300000	1000	0	0	-1	1000
19936115	38	305	0	-100	0	230	101300000	1000	0	0	-1	1000
19948675	26	309	0	-100	0	230	101300000	1000	0	0	-1	1000
19998915	36	304	0	-100	0	230	101300000	1000	0	0	-1	1000
20011475	29	311	0	-100	0	230	101300000	1000	0	0	-1	1000
20024035	33	302	0	-100	0	230	101300000	1000	0	0	-1	1000
20036595	29	307	0	-100	0	230	101300000	1000	0	0	-1	1000
20049155	26	306	0	-100	0	230	101300000	1000	0	0	-1	1000
20061715	36	305	0	-100	0	230	101300000	1000	0	0	-1	1000
20074275	29	312	0	-100	0	230	101300000	1000	0	0	-1	1000
20086835	36	303	0	-100	0	230	101300000	1000	0	0	-1	1000
20099395	26	308	0	-100	0	230	101300000	1000	0	0	-1	1000
20111955	31	307	0	-100	0	230	101300000	1000	0	0	-1	1000
20124515	36	305	0	-100	0	230	101300000	1000	0	0	-1	1000
20137075	29	308	0	-100	0	230	101300000	1000	0	0	-1	1000
20149635	36	301	0	-100	0	230	101300000	1000	0	0	-1	1000
20162195	26	310	0	-100	0	230	101300000	1000	0	0	-1	1000
20174755	33	304	0	-100	0	230	101300000	1000	0	0	-1	1000
20187315	31	309	0	-100	0	230	101300000	1000	0	0	-1	1000
20199875	31	307	0	-100	0	230	101300000	1000	0	0	-1	1000
20212435	36	303	0	-100	0	230	101300000	1000	0	0	-1	1000
20224995	29	306	0	-100	0	230	101300000	1000	0	0	-1	1000
20237555	31	302	0	-100	0	230	101300000	1000	0	0	-1	1000
20250115	36	308	0	-100	0	230	101300000	1000	0	0	-1	1000
20262675	26	307	0	-100	0	230	101300000	1000	0	0	-1	1000
20275235	36	304	0	-100	0	230	101300000	1000	0	0	-1	1000
20287795	31	307	0	-100	0	230	101300000	1000	0	0	-1	1000
20300355	33	303	0	-100	0	230	101300000	1000	0	0	-1	1000
20312915	26	308	0	-100	0	230	101300000	1000	0	0	-1	1000
20325475	29	302	0	-100	0	230	101300000	1000	0	0	-1	1000
20338035	36	304	0	-100	0	230	101300000	1000	0	0	-1	1000
20350595	26	311	0	-100	0	230	101300000	1000	0	0	-1	1000
20363155	33	303	0	-100	0	230	101300000	1000	0	0	-1	1000
20375715	29	306	0	-100	0	230	101300000	1000	0	0	-1	1000
20388275	26	306	0	-100	0	230	101300000	1000	0	0	-1	1000
20400835	33	300	0	-100	0	230	101300000	1000	0	0	-1	1000
20413395	29	309	0	-100	0	230	101300000	1000	0	0	-1	1000
20425955	29	306	0	-100	0	230	101300000	1000	0	0	-1	1000
20438515	33	303	0	-100	0	230	101300000	1000	0	0	-1	1000
20451075	29	310	0	-100	0	230	101300000	1000	0	0	-1	1000
20463635	33	303	0	-100	0	230	101300000	1000	0	0	-1	1000
20476195	26	310	0	-100	0	230	101300000	1000	0	0	-1	1000
20488755	31	302	0	-100	0	230	101300000	1000	0	0	-1	1000
20501315	36	307	0	-100	0	230	101300000	1000	0	0	-1	1000
20513875	31	307	0	-100	0	230	101300000	1000	0	0	-1	1000
20526435	36	301	0	-100	0	230	101300000	1000	0	0	-1	1000
20538995	26	303	0	-100	0	230	101300000	1000	0	0	-1	1000
20551555	31	303	0	-100	0	230	101300000	1000	0	0	-1	1000
20564115	33	310	0	-100	0	230	101300000	1000	0	0	-1	1000
20576675	31	302	0	-100	0	230	101300000	1000	0	0	-1	1000
20589235	31	306	0	-100	0	230	101300000	1000	0	0	-1	1000
20601795	26	308	0	-100	0	230	101300000	1000	0	0	-1	1000
20614355	33	301	0	-100	0	230	101300000	1000	0	0	-1	1000
20626915	29	312	0	-100	0	230	101300000	1000	0	0	-1	1000
20639475	33	302	0	-100	0	230	101300000	1000	0	0	-1	1000
20652035	29	311	0	-100	0	230	101300000	1000	0	0	-1	1000
20664595	33	303	0	-100	0	230	101300000	1000	0	0	-1	1000
20677155	31	305	0	-100	0	230	101300000	1000	0	0	-1	1000
20689715	31	310	0	-100	0	230	101300000	1000	0	0	-1	1000
20702275	33	304	0	-100	0	230	101300000	1000	0	0	-1	1000
20714835	26	310	0	-100	0	230	101300000	1000	0	0	-1	1000
20727395	31	302	0	-100	0	230	101300000	1000	0	0	-1	1000
20739955	26	307	0	-100	0	230	101300000	1000	0	0	-1	1000
20752515	29	302	0	-100	0	230	101300000	1000	0	0	-1	1000
20765075	26	306	0	-100	0	230	101300000	1000	0	0	-1	1000
20777635	31	305	0	-100	0	230	101300000	1000	0	0	-1	1000
20790195	29	307	0	-100	0	230	101300000	1000	0	0	-1	1000
20802755	33	303	0	-100	0	230	101300000	1000	0	0	-1	1000
20815315	31	309	0	-100	0	230	101300000	1000	0	0	-1	1000
20827875	33	303	0	-100	0	230	101300000	1000	0	0	-1	1000
20840435	26	307	0	-100	0	230	101300000	1000	0	0	-1	1000
20852995	31	303	0	-100	0	230	101300000	1000	0	0	-1	1000
20865555	29	306	0	-100	0	230	101300000	1000	0	0	-1	1000
20878115	36	306	0	-100	0	230	101300000	1000	0	0	-1	1000
20890675	33	303	0	-100	0	230	101300000	1000	0	0	-1	1000
20903235	29	312	0	-100	0	230	101300000	1000	0	0	-1	1000
20915795	36	303	0	-100	0	230	101300000	1000	0	0	-1	1000
20928355	29	305	0	-100	0	230	101300000	1000	0	0	-1	1000
20940915	29	311	0	-100	0	230	101300000	1000	0	0	-1	1000
20953475	31	303	0	-100	0	230	101300000	1000	0	0	-1	1000
20966035	33	301	0	-100	0	230	101300000	1000	0	0	-1	1000
20978595	31	303	0	-100	0	230	101300000	1000	0	0	-1	1000
20991155	26	308	0	-100	0	230	101300000	1000	0	0	-1	1000
21003715	26	309	0	-100	0	230	101300000	1000	0	0	-1	1000
21016275	26	307	0	-100	0	230	101300000	1000	0	0	-1	1000
21028835	33	303	0	-100	0	230	101300000	1000	0	0	-1	1000
21041395	36	301	0	-100	0	230	101300000	1000	0	0	-1	1000
21053955	29	307	0	-100	0	230	101300000	1000	0	0	-1	1000
21066515	29	311	0	-100	0	230	101300000	1000	0	0	-1	1000
21079075	31	304	0	-100	0	230	101300000	1000	0	0	-1	1000
21091635	33	304	0	-100	0	230	101300000	1000	0	0	-1	1000
21104195	26	310	0	-100	0	230	101300000	1000	0	0	-1	1000
21116755	31	303	0	-100	0	230	101300000	1000	0	0	-1	1000
21129315	41	305	0	-100	0	230	101300000	1000	0	0	-1	1000
21141875	29	309	0	-100	0	230	101300000	1000	0	0	-1	1000
21154435	29	313	0	-100	0	230	101300000	1000	0	0	-1	1000
21166995	31	303	0	-100	0	230	101300000	1000	0	0	-1	1000
21179555	33	304	0	-100	0	230	101300000	1000	0	0	-1	1000
21192115	31	308	0	-100	0	230	101300000	1000	0	0	-1	1000
21204675	29	313	0	-100	0	230	101300000	1000	0	0	-1	1000
21217235	33	304	0	-100	0	230	101300000	1000	0	0	-1	1000
21229795	29	305	0	-100	0	230	101300000	1000	0	0	-1	1000
21242355	31	310	0	-100	0	230	101300000	1000	0	0	-1	1000
21254915	31	303	0	-100	0	230	101300000	1000	0	0	-1	1000
21267475	36	304	0	-100	0	230	101300000	1000	0	0	-1	1000
21280035	24	308	0	-100	0	230	101300000	1000	0	0	-1	1000
21292595	29	309	0	-100	0	230	101300000	1000	0	0	-1	1000
21305155	33	302	0	-100	0	230	101300000	1000	0	0	-1	1000
21317715	31	306	0	-100	0	230	101300000	1000	0	0	-1	1000
21330275	31	310	0	-100	0	230	101300000	1000	0	0	-1	1000
21342835	33	303	0	-100	0	230	101300000	1000	0	0	-1	1000
21355395	26	305	0	-100	0	230	101300000	1000	0	0	-1	1000
21367955	31	309	0	-100	0	230	101300000	1000	0	0	-1	1000
21380515	33	302	0	-100	0	230	101300000	1000	0	0	-1	1000
21393075	29	306	0	-100	0	230	101300000	1000	0	0	-1	1000
21405635	29	311	0	-100	0	230	101300000	1000	0	0	-1	1000
21418195	33	303	0	-100	0	230	101300000	1000	0	0	-1	1000
21430755	29	307	0	-100	0	230	101300000	1000	0	0	-1	1000
21443315	36	311	0	-100	0	230	101300000	1000	0	0	-1	1000
21455875	33	305	0	-100	0	230	101300000	1000	0	0	-1	1000
21468435	36	304	0	-100	0	230	101300000	1000	0	0	-1	1000
21480995	31	310	0	-100	0	230	101300000	1000	0	0	-1	1000
21493555	29	308	0	-100	0	230	101300000	1000	0	0	-1	1000
21506115	36	313	0	-100	0	230	101300000	1000	0	0	-1	1000
21518675	29	303	0	-100	0	230	101300000	1000	0	0	-1	1000
21531235	38	303	0	-100	0	230	101300000	1000	0	0	-1	1000
21543795	29	307	0	-100	0	230	101300000	1000	0	0	-1	1000
21556355	29	311	0	-100	0	230	101300000	1000	0	0	-1	1000
21568915	29	302	0	-100	0	230	101300000	1000	0	0	-1	1000
21581475	33	301	0	-100	0	230	101300000	1000	0	0	-1	1000
21594035	26	307	0	-100	0	230	101300000	1000	0	0	-1	1000
21606595	26	307	0	-100	0	230	101300000	1000	0	0	-1	1000
21619155	33	301	0	-100	0	230	101300000	1000	0	0	-1	1000
21631715	26	308	0	-100	0	230	101300000	1000	0	0	-1	1000
21644275	26	306	0	-100	0	230	101300000	1000	0	0	-1	1000
21656835	33	304	0	-100	0	230	101300000	1000	0	0	-1	1000
21669395	29	309	0	-100	0	230	101300000	1000	0	0	-1	1000
21681955	26	308	0	-100	0	230	101300000	1000	0	0	-1	1000
21694515	33	303	0	-100	0	230	101300000	1000	0	0	-1	1000
21707075	29	307	0	-100	0	230	101300000	1000	0	0	-1	1000
21719635	31	310	0	-100	0	230	101300000	1000	0	0	-1	1000
21732195	33	303	0	-100	0	230	101300000	1000	0	0	-1	1000
21744755	26	309	0	-100	0	230	101300000	1000	0	0	-1	1000
21757315	36	310	0	-100	0	230	101300000	1000	0	0	-1	1000
21769875	36	302	0	-100	0	230	101300000	1000	0	0	-1	1000
21782435	29	308	0	-100	0	230	101300000	1000	0	0	-1	1000
21794995	31	304	0	-100	0	230	101300000	1000	0	0	-1	1000
21807555	29	306	0	-100	0	230	101300000	1000	0	0	-1	1000
21820115	33	308	0	-100	0	230	101300000	1000	0	0	-1	1000
21832675	36	304	0	-100	0	230	101300000	1000	0	0	-1	1000
21845235	29	306	0	-100	0	230	101300000	1000	0	0	-1	1000
21857795	31	309	0	-100	0	230	101300000	1000	0	0	-1	1000
21870355	33	303	0	-100	0	230	101300000	1000	0	0	-1	1000
21882915	29	306	0	-100	0	230	101300000	1000	0	0	-1	1000
21895475	26	307	0	-100	0	230	101300000	1000	0	0	-1	1000
21908035	33	302	0	-100	0	230	101300000	1000	0	0	-1	1000
21920595	29	307	0	-100	0	230	101300000	1000	0	0	-1	1000
21933155	26	306	0	-100	0	230	101300000	1000	0	0	-1	1000
21945715	33	303	0	-100	0	230	101300000	1000	0	0	-1	1000
21958275	29	307	0	-100	0	230	101300000	1000	0	0	-1	1000
21970835	29	305	0	-100	0	230	101300000	1000	0	0	-1	1000
21983395	33	304	0	-100	0	230	101300000	1000	0	0	-1	1000
21995955	29	306	0	-100	0	230	101300000	1000	0	0	-1	1000
22008515	31	302	0	-100	0	230	101300000	1000	0	0	-1	1000
22021075	26	303	0	-100	0	230	101300000	1000	0	0	-1	1000
22033635	29	307	0	-100	0	230	101300000	1000	0	0	-1	1000
22046195	29	306	0	-100	0	230	101300000	1000	0	0	-1	1000
22058755	29	307	0	-100	0	230	101300000	1000	0	0	-1	1000
22071315	38	311	0	-100	0	230	101300000	1000	0	0	-1	1000
22083875	26	309	0	-100	0	230	101300000	1000	0	0	-1	1000
22096435	33	305	0	-100	0	230	101300000	1000	0	0	-1	1000
22108995	29	303	0	-100	0	230	101300000	1000	0	0	-1	1000
22121555	36	304	0	-100	0	230	101300000	1000	0	0	-1	1000
22134115	33	304	0	-100	0	230	101300000	1000	0	0	-1	1000
22146675	26	309	0	-100	0	230	101300000	1000	0	0	-1	1000
22159235	33	304	0	-100	0	230	101300000	1000	0	0	-1	1000
22171795	31	308	0	-100	0	230	101300000	1000	0	0	-1	1000
22184355	31	304	0	-100	0	230	101300000	1000	0	0	-1	1000
22196915	29	303	0	-100	0	230	101300000	1000	0	0	-1	1000
22209475	26	308	0	-100	0	230	101300000	1000	0	0	-1	1000
22222035	33	304	0	-100	0	230	101300000	1000	0	0	-1	1000
22234595	29	311	0	-100	0	230	101300000	1000	0	0	-1	1000
22247155	33	301	0	-100	0	230	101300000	1000	0	0	-1	1000
22259715	26	306	0	-100	0	230	101300000	1000	0	0	-1	1000
22272275	29	306	0	-100	0	230	101300000	1000	0	0	-1	1000
22284835	31	303	0	-100	0	230	101300000	1000	0	0	-1	1000
22297395	29	305	0	-100	0	230	101300000	1000	0	0	-1	1000
22309955	29	306	0	-100	0	230	101300000	1000	0	0	-1	1000
22322515	33	303	0	-100	0	230	101300000	1000	0	0	-1	1000
22335075	26	307	0	-100	0	230	101300000	1000	0	0	-1	1000
22347635	36	304	0	-100	0	230	101300000	1000	0	0	-1	1000
22360195	29	310	0	-100	0	230	101300000	1000	0	0	-1	1000
22372755	31	302	0	-100	0	230	101300000	1000	0	0	-1	1000
22385315	31	308	0	-100	0	230	101300000	1000	0	0	-1	1000
22397875	26	307	0	-100	0	230	101300000	1000	0	0	-1	1000
22410435	33	303	0	-100	0	230	101300000	1000	0	0	-1	1000
22422995	26	307	0	-100	0	230	101300000	1000	0	0	-1	1000
22435555	31	303	0	-100	0	230	101300000	1000	0	0	-1	1000
22448115	41	305	0	-100	0	230	101300000	1000	0	0	-1	1000
22460675	26	310	0	-100	0	230	101300000	1000	0	0	-1	1000
22473235	31	303	0	-100	0	230	101300000	1000	0	0	-1	1000
22485795	26	307	0	-100	0	230	101300000	1000	0	0	-1	1000
22498355	31	302	0	-100	0	230	101300000	1000	0	0	-1	1000
22510915	26	309	0	-100	0	230	101300000	1000	0	0	-1	1000
22523475	33	303	0	-100	0	230	101300000	1000	0	0	-1	1000
22536035	29	310	0	-100	0	230	101300000	1000	0	0	-1	1000
22548595	36	303	0	-100	0	230	101300000	1000	0	0	-1	1000
22561155	29	310	0	-100	0	230	101300000	1000	0	0	-1	1000
22573715	33	305	0	-100	0	230	101300000	1000	0	0	-1	1000
22586275	26	311	0	-100	0	230	101300000	1000	0	0	-1	1000
22598835	36	305	0	-100	0	230	101300000	1000	0	0	-1	1000
22611395	26	307	0	-100	0	230	101300000	1000	0	0	-1	1000
22623955	29	304	0	-100	0	230	101300000	1000	0	0	-1	1000
22636515	31	303	0	-100	0	230	101300000	1000	0	0	-1	1000
22649075	29	307	0	-100	0	230	101300000	1000	0	0	-1	1000
22661635	33	302	0	-100	0	230	101300000	1000	0	0	-1	1000
22674195	26	307	0	-100	0	230	101300000	1000	0	0	-1	1000
22724435	29	304	0	-100	0	230	101300000	1000	0	0	-1	1000
22736995	36	311	0	-100	0	230	101300000	1000	0	0	-1	1000
22749555	29	310	0	-100	0	230	101300000	1000	0	0	-1	1000
22762115	38	307	0	-100	0	230	101300000	1000	0	0	-1	1000
22774675	26	309	0	-100	0	230	101300000	1000	0	0	-1	1000
22787235	31	303	0	-100	0	230	101300000	1000	0	0	-1	1000
22799795	31	304	0	-100	0	230	101300000	1000	0	0	-1	1000
22812355	31	308	0	-100	0	230	101300000	1000	0	0	-1	1000
22824915	33	302	0	-100	0	230	101300000	1000	0	0	-1	1000
22837475	29	311	0	-100	0	230	101300000	1000	0	0	-1	1000
22850035	33	304	0	-100	0	230	101300000	1000	0	0	-1	1000
22862595	29	307	0	-100	0	230	101300000	1000	0	0	-1	1000
22950515	33	306	0	-100	0	230	101300000	1000	0	0	-1	1000
22963075	26	308	0	-100	0	230	101300000	1000	0	0	-1	1000
22975635	29	302	0	-100	0	230	101300000	1000	0	0	-1	1000
22988195	31	304	0	-100	0	230	101300000	1000	0	0	-1	1000
23000755	29	310	0	-100	0	230	101300000	1000	0	0	-1	1000
23013315	41	302	0	-100	0	230	101300000	1000	0	0	-1	1000
23025875	29	311	0	-100	0	230	101300000	1000	0	0	-1	1000
23038435	31	302	0	-100	0	230	101300000	1000	0	0	-1	1000
23050995	29	308	0	-100	0	230	101300000	1000	0	0	-1	1000
23063555	26	307	0	-100	0	230	101300000	1000	0	0	-1	1000
23076115	41	307	0	-100	0	230	101300000	1000	0	0	-1	1000
23088675	26	311	0	-100	0	230	101300000	1000	0	0	-1	1000
23101235	33	304	0	-100	0	230	101300000	1000	0	0	-1	1000
23113795	29	308	0	-100	0	230	101300000	1000	0	0	-1	1000
23126355	31	302	0	-100	0	230	101300000	1000	0	0	-1	1000
23138915	26	307	0	-100	0	230	101300000	1000	0	0	-1	1000
23151475	29	303	0	-100	0	230	101300000	1000	0	0	-1	1000
23164035	31	304	0	-100	0	230	101300000	1000	0	0	-1	1000
23176595	29	307	0	-100	0	230	101300000	1000	0	0	-1	1000
23189155	36	300	0	-100	0	230	101300000	1000	0	0	-1	1000
23201715	29	311	0	-100	0	230	101300000	1000	0	0	-1	1000
23214275	33	303	0	-100	0	230	101300000	1000	0	0	-1	1000
23226835	24	308	0	-100	0	230	101300000	1000	0	0	-1	1000
23239395	29	302	0	-100	0	230	101300000	1000	0	0	-1	1000
23251955	26	306	0	-100	0	230	101300000	1000	0	0	-1	1000
23264515	26	307	0	-100	0	230	101300000	1000	0	0	-1	1000
23277075	33	303	0	-100	0	230	101300000	1000	0	0	-1	1000
23289635	29	310	0	-100	0	230	101300000	1000	0	0	-1	1000
23302195	33	303	0	-100	0	230	101300000	1000	0	0	-1	1000
23314755	29	309	0	-100	0	230	101300000	1000	0	0	-1	1000
23327315	38	306	0	-100	0	230	101300000	1000	0	0	-1	1000
23339875	29	309	0	-100	0	230	101300000	1000	0	0	-1	1000
23352435	36	306	0	-100	0	230	101300000	1000	0	0	-1	1000
23364995	29	302	0	-100	0	230	101300000	1000	0	0	-1	1000
23377555	33	302	0	-100	0	230	101300000	1000	0	0	-1	1000
23390115	31	311	0	-100	0	230	101300000	1000	0	0	-1	1000
23402675	33	302	0	-100	0	230	101300000	1000	0	0	-1	1000
23415235	26	309	0	-100	0	230	101300000	1000	0	0	-1	1000
23427795	29	302	0	-100	0	230	101300000	1000	0	0	-1	1000
23440355	29	306	0	-100	0	230	101300000	1000	0	0	-1	1000
23452915	26	306	0	-100	0	230	101300000	1000	0	0	-1	1000
23465475	36	302	0	-100	0	230	101300000	1000	0	0	-1	1000
23478035	26	311	0	-100	0	230	101300000	1000	0	0	-1	1000
23490595	33	303	0	-100	0	230	101300000	1000	0	0	-1	1000
23503155	26	309	0	-100	0	230	101300000	1000	0	0	-1	1000
23515715	31	303	0	-100	0	230	101300000	1000	0	0	-1	1000
23528275	31	305	0	-100	0	230	101300000	1000	0	0	-1	1000
23540835	29	307	0	-100	0	230	101300000	1000	0	0	-1	1000
23553395	33	304	0	-100	0	230	101300000	1000	0	0	-1	1000
23565955	29	307	0	-100	0	230	101300000	1000	0	0	-1	1000
23578515	29	309	0	-100	0	230	101300000	1000	0	0	-1	1000
23591075	31	302	0	-100	0	230	101300000	1000	0	0	-1	1000
23603635	33	302	0	-100	0	230	101300000	1000	0	0	-1	1000
23616195	26	309	0	-100	0	230	101300000	1000	0	0	-1	1000
23628755	26	309	0	-100	0	230	101300000	1000	0	0	-1	1000
23641315	38	307	0	-100	0	230	101300000	1000	0	0	-1	1000
23653875	31	308	0	-100	0	230	101300000	1000	0	0	-1	1000
23666435	31	310	0	-100	0	230	101300000	1000	0	0	-1	1000
23678995	33	303	0	-100	0	230	101300000	1000	0	0	-1	1000
23691555	33	304	0	-100	0	230	101300000	1000	0	0	-1	1000
23704115	31	311	0	-100	0	230	101300000	1000	0	0	-1	1000
23716675	26	307	0	-100	0	230	101300000	1000	0	0	-1	1000
23729235	33	303	0	-100	0	230	101300000	1000	0	0	-1	1000
23741795	31	304	0	-100	0	230	101300000	1000	0	0	-1	1000
23754355	29	311	0	-100	0	230	101300000	1000	0	0	-1	1000
23766915	29	306	0	-100	0	230	101300000	1000	0	0	-1	1000
23779475	36	304	0	-100	0	230	101300000	1000	0	0	-1	1000
23792035	26	311	0	-100	0	230	101300000	1000	0	0	-1	1000
23804595	33	304	0	-100	0	230	101300000	1000	0	0	-1	1000
23817155	26	310	0	-100	0	230	101300000	1000	0	0	-1	1000
23829715	33	302	0	-100	0	230	101300000	1000	0	0	-1	1000
23842275	24	308	0	-100	0	230	101300000	1000	0	0	-1	1000
23854835	33	302	0	-100	0	230	101300000	1000	0	0	-1	1000
23867395	29	307	0	-100	0	230	101300000	1000	0	0	-1	1000
23879955	29	303	0	-100	0	230	101300000	1000	0	0	-1	1000
23892515	29	307	0	-100	0	230	101300000	1000	0	0	-1	1000
23905075	31	303	0	-100	0	230	101300000	1000	0	0	-1	1000
23917635	29	304	0	-100	0	230	101300000	1000	0	0	-1	1000
23930195	26	306	0	-100	0	230	101300000	1000	0	0	-1	1000
23942755	33	302	0	-100	0	230	101300000	1000	0	0	-1	1000
23955315	31	310	0	-100	0	230	101300000	1000	0	0	-1	1000
23967875	29	302	0	-100	0	230	101300000	1000	0	0	-1	1000
23980435	33	303	0	-100	0	230	101300000	1000	0	0	-1	1000
23992995	26	304	0	-100	0	230	101300000	1000	0	0	-1	1000
24005555	33	303	0	-100	0	230	101300000	1000	0	0	-1	1000
24018115	33	308	0	-100	0	230	101300000	1000	0	0	-1	1000
24030675	29	308	0	-100	0	230	101300000	1000	0	0	-1	1000
24043235	36	302	0	-100	0	230	101300000	1000	0	0	-1	1000
24055795	26	309	0	-100	0	230	101300000	1000	0	0	-1	1000
24068355	29	307	0	-100	0	230	101300000	1000	0	0	-1	1000
24080915	33	303	0	-100	0	230	101300000	1000	0	0	-1	1000
24093475	29	307	0	-100	0	230	101300000	1000	0	0	-1	1000
24106035	29	307	0	-100	0	230	101300000	1000	0	0	-1	1000
24118595	33	302	0	-100	0	230	101300000	1000	0	0	-1	1000
24131155	33	303	0	-100	0	230	101300000	1000	0	0	-1	1000
24143715	26	309	0	-100	0	230	101300000	1000	0	0	-1	1000
24156275	26	307	0	-100	0	230	101300000	1000	0	0	-1	1000
24168835	33	304	0	-100	0	230	101300000	1000	0	0	-1	1000
24181395	33	302	0	-100	0	230	101300000	1000	0	0	-1	1000
24193955	29	312	0	-100	0	230	101300000	1000	0	0	-1	1000
24206515	29	302	0	-100	0	230	101300000	1000	0	0	-1	1000
24219075	36	306	0	-100	0	230	101300000	1000	0	0	-1	1000
24231635	26	308	0	-100	0	230	101300000	1000	0	0	-1	1000
24244195	29	308	0	-100	0	230	101300000	1000	0	0	-1	1000
24256755	33	303	0	-100	0	230	101300000	1000	0	0	-1	1000
24269315	33	307	0	-100	0	230	101300000	1000	0	0	-1	1000
24281875	31	307	0	-100	0	230	101300000	1000	0	0	-1	1000
24294435	33	303	0	-100	0	230	101300000	1000	0	0	-1	1000
24306995	26	307	0	-100	0	230	101300000	1000	0	0	-1	1000
24319555	29	311	0	-100	0	230	101300000	1000	0	0	-1	1000
24332115	33	305	0	-100	0	230	101300000	1000	0	0	-1	1000
24344675	33	302	0	-100	0	230	101300000	1000	0	0	-1	1000
24357235	26	307	0	-100	0	230	101300000	1000	0	0	-1	1000
24369795	31	309	0	-100	0	230	101300000	1000	0	0	-1	1000
24382355	33	303	0	-100	0	230	101300000	1000	0	0	-1	1000
24394915	26	310	0	-100	0	230	101300000	1000	0	0	-1	1000
24407475	29	303	0	-100	0	230	101300000	1000	0	0	-1	1000
24420035	36	304	0	-100	0	230	101300000	1000	0	0	-1	1000
24432595	33	305	0	-100	0	230	101300000	1000	0	0	-1	1000
24445155	26	308	0	-100	0	230	101300000	1000	0	0	-1	1000
24457715	29	308	0	-100	0	230	101300000	1000	0	0	-1	1000
24470275	29	302	0	-100	0	230	101300000	1000	0	0	-1	1000
24482835	33	302	0	-100	0	230	101300000	1000	0	0	-1	1000
24495395	29	304	0	-100	0	230	101300000	1000	0	0	-1	1000
24507955	29	307	0	-100	0	230	101300000	1000	0	0	-1	1000
24520515	33	303	0	-100	0	230	101300000	1000	0	0	-1	1000
24533075	29	311	0	-100	0	230	101300000	1000	0	0	-1	1000
24545635	31	302	0	-100	0	230	101300000	1000	0	0	-1	1000
24558195	31	303	0	-100	0	230	101300000	1000	0	0	-1	1000
24570755	26	306	0	-100	0	230	101300000	1000	0	0	-1	1000
24583315	38	303	0	-100	0	230	101300000	1000	0	0	-1	1000
24595875	29	309	0	-100	0	230	101300000	1000	0	0	-1	1000
24608435	29	306	0	-100	0	230	101300000	1000	0	0	-1	1000
24620995	33	310	0	-100	0	230	101300000	1000	0	0	-1	1000
24633555	24	309	0	-100	0	230	101300000	1000	0	0	-1	1000
24646115	36	310	0	-100	0	230	101300000	1000	0	0	-1	1000
24658675	29	303	0	-100	0	230	101300000	1000	0	0	-1	1000
24671235	33	302	0	-100	0	230	101300000	1000	0	0	-1	1000
24683795	26	310	0	-100	0	230	101300000	1000	0	0	-1	1000
24696355	29	308	0	-100	0	230	101300000	1000	0	0	-1	1000
24708915	36	308	0	-100	0	230	101300000	1000	0	0	-1	1000
24721475	26	307	0	-100	0	230	101300000	1000	0	0	-1	1000
24734035	26	308	0	-100	0	230	101300000	1000	0	0	-1	1000
24746595	33	304	0	-100	0	230	101300000	1000	0	0	-1	1000
24759155	36	305	0	-100	0	230	101300000	1000	0	0	-1	1000
24771715	26	309	0	-100	0	230	101300000	1000	0	0	-1	1000
24784275	29	309	0	-100	0	230	101300000	1000	0	0	-1	1000
24796835	33	303	0	-100	0	230	101300000	1000	0	0	-1	1000
24809395	36	302	0	-100	0	230	101300000	1000	0	0	-1	1000
24821955	26	306	0	-100	0	230	101300000	1000	0	0	-1	1000
24834515	26	310	0	-100	0	230	101300000	1000	0	0	-1	1000
24847075	29	306	0	-100	0	230	101300000	1000	0	0	-1	1000
24859635	33	303	0	-100	0	230	101300000	1000	0	0	-1	1000
24872195	33	302	0	-100	0	230	101300000	1000	0	0	-1	1000
24884755	26	307	0	-100	0	230	101300000	1000	0	0	-1	1000
24897315	31	314	0	-100	0	230	101300000	1000	0	0	-1	1000
24909875	29	303	0	-100	0	230	101300000	1000	0	0	-1	1000
24922435	33	302	0	-100	0	230	101300000	1000	0	0	-1	1000
24934995	29	307	0	-100	0	230	101300000	1000	0	0	-1	1000
24947555	31	311	0	-100	0	230	101300000	1000	0	0	-1	1000
24960115	33	306	0	-100	0	230	101300000	1000	0	0	-1	1000
24972675	33	303	0	-100	0	230	101300000	1000	0	0	-1	1000
24985235	36	304	0	-100	0	230	101300000	1000	0	0	-1	1000
24997795	26	308	0	-100	0	230	101300000	1000	0	0	-1	1000
25010355	26	310	0	-100	0	230	101300000	1000	0	0	-1	1000
25022915	26	308	0	-100	0	230	101300000	1000	0	0	-1	1000
25035475	31	304	0	-100	0	230	101300000	1000	0	0	-1	1000
25048035	36	303	0	-100	0	230	101300000	1000	0	0	-1	1000
25060595	26	311	0	-100	0	230	101300000	1000	0	0	-1	1000
25073155	29	308	0	-100	0	230	101300000	1000	0	0	-1	1000
25085715	29	302	0	-100	0	230	101300000	1000	0	0	-1	1000
25098275	33	303	0	-100	0	230	101300000	1000	0	0	-1	1000
25110835	33	304	0	-100	0	230	101300000	1000	0	0	-1	1000
25123395	26	307	0	-100	0	230	101300000	1000	0	0	-1	1000
25135955	26	309	0	-100	0	230	101300000	1000	0	0	-1	1000
25148515	29	306	0	-100	0	230	101300000	1000	0	0	-1	1000
25161075	33	302	0	-100	0	230	101300000	1000	0	0	-1	1000
25173635	36	305	0	-100	0	230	101300000	1000	0	0	-1	1000
25186195	26	308	0	-100	0	230	101300000	1000	0	0	-1	1000
25198755	31	310	0	-100	0	230	101300000	1000	0	0	-1	1000
25211315	33	304	0	-100	0	230	101300000	1000	0	0	-1	1000
25223875	33	304	0	-100	0	230	101300000	1000	0	0	-1	1000
25236435	33	303	0	-100	0	230	101300000	1000	0	0	-1	1000
25248995	26	302	0	-100	0	230	101300000	1000	0	0	-1	1000
25261555	29	304	0	-100	0	230	101300000	1000	0	0	-1	1000
25274115	41	305	0	-100	0	230	101300000	1000	0	0	-1	1000
25286675	26	307	0	-100	0	230	101300000	1000	0	0	-1	1000
25299235	26	308	0	-100	0	230	101300000	1000	0	0	-1	1000
25311795	33	302	0	-100	0	230	101300000	1000	0	0	-1	1000
25324355	26	309	0	-100	0	230	101300000	1000	0	0	-1	1000
25336915	29	306	0	-100	0	230	101300000	1000	0	0	-1	1000
25349475	33	303	0	-100	0	230	101300000	1000	0	0	-1	1000
25362035	26	310	0	-100	0	230	101300000	1000	0	0	-1	1000
25374595	29	303	0	-100	0	230	101300000	1000	0	0	-1	1000
25387155	33	303	0	-100	0	230	101300000	1000	0	0	-1	1000
25399715	26	309	0	-100	0	230	101300000	1000	0	0	-1	1000
25412275	26	302	0	-100	0	230	101300000	1000	0	0	-1	1000
25424835	36	302	0	-100	0	230	101300000	1000	0	0	-1	1000
25437395	29	306	0	-100	0	230	101300000	1000	0	0	-1	1000
25449955	31	311	0	-100	0	230	101300000	1000	0	0	-1	1000
25462515	31	302	0	-100	0	230	101300000	1000	0	0	-1	1000
25475075	33	304	0	-100	0	230	101300000	1000	0	0	-1	1000
25487635	29	311	0	-100	0	230	101300000	1000	0	0	-1	1000
25500195	26	304	0	-100	0	230	101300000	1000	0	0	-1	1000
25512755	33	302	0	-100	0	230	101300000	1000	0	0	-1	1000
25525315	31	308	0	-100	0	230	101300000	1000	0	0	-1	1000
25537875	29	310	0	-100	0	230	101300000	1000	0	0	-1	1000
25550435	31	303	0	-100	0	230	101300000	1000	0	0	-1	1000
25562995	33	310	0	-100	0	230	101300000	1000	0	0	-1	1000
25575555	29	311	0	-100	0	230	101300000	1000	0	0	-1	1000
25588115	33	305	0	-100	0	230	101300000	1000	0	0	-1	1000
25600675	36	302	0	-100	0	230	101300000	1000	0	0	-1	1000
25613235	29	307	0	-100	0	230	101300000	1000	0	0	-1	1000
25625795	29	310	0	-100	0	230	101300000	1000	0	0	-1	1000
25663475	29	309	0	-100	0	230	101300000	1000	0	0	-1	1000
25676035	26	307	0	-100	0	230	101300000	1000	0	0	-1	1000
25688595	33	301	0	-100	0	230	101300000	1000	0	0	-1	1000
25701155	26	310	0	-100	0	230	101300000	1000	0	0	-1	1000
25713715	29	306	0	-100	0	230	101300000	1000	0	0	-1	1000
25726275	33	303	0	-100	0	230	101300000	1000	0	0	-1	1000
25738835	33	303	0	-100	0	230	101300000	1000	0	0	-1	1000
25751395	26	309	0	-100	0	230	101300000	1000	0	0	-1	1000
25763955	26	306	0	-100	0	230	101300000	1000	0	0	-1	1000
25776515	33	303	0	-100	0	230	101300000	1000	0	0	-1	1000
25789075	33	303	0	-100	0	230	101300000	1000	0	0	-1	1000
25889555	29	302	0	-100	0	230	101300000	1000	0	0	-1	1000
25902115	41	306	0	-100	0	230	101300000	1000	0	0	-1	1000
25914675	29	302	0	-100	0	230	101300000	1000	0	0	-1	1000
25927235	26	307	0	-100	0	230	101300000	1000	0	0	-1	1000
25939795	26	310	0	-100	0	230	101300000	1000	0	0	-1	1000
25952355	29	311	0	-100	0	230	101300000	1000	0	0	-1	1000
25964915	26	307	0	-100	0	230	101300000	1000	0	0	-1	1000
25977475	31	302	0	-100	0	230	101300000	1000	0	0	-1	1000
25990035	36	304	0	-100	0	230	101300000	1000	0	0	-1	1000
26002595	36	302	0	-100	0	230	101300000	1000	0	0	-1	1000
26015155	36	305	0	-100	0	230	101300000	1000	0	0	-1	1000
26052835	29	306	0	-100	0	230	101300000	1000	0	0	-1	1000
26065395	29	304	0	-100	0	230	101300000	1000	0	0	-1	1000
26077955	33	303	0	-100	0	230	101300000	1000	0	0	-1	1000
26090515	33	303	0	-100	0	230	101300000	1000	0	0	-1	1000
26103075	29	309	0	-100	0	230	101300000	1000	0	0	-1	1000
26115635	26	307	0	-100	0	230	101300000	1000	0	0	-1	1000
26128195	33	303	0	-100	0	230	101300000	1000	0	0	-1	1000
26140755	33	302	0	-100	0	230	101300000	1000	0	0	-1	1000
26153315	33	310	0	-100	0	230	101300000	1000	0	0	-1	1000
26165875	29	306	0	-100	0	230	101300000	1000	0	0	-1	1000
26178435	29	303	0	-100	0	230	101300000	1000	0	0	-1	1000
26190995	33	309	0	-100	0	230	101300000	1000	0	0	-1	1000
26203555	31	306	0	-100	0	230	101300000	1000	0	0	-1	1000
26216115	33	312	0	-100	0	230	101300000	1000	0	0	-1	1000
26228675	26	306	0	-100	0	230	101300000	1000	0	0	-1	1000
26241235	33	302	0	-100	0	230	101300000	1000	0	0	-1	1000
26253795	36	304	0	-100	0	230	101300000	1000	0	0	-1	1000
26266355	29	309	0	-100	0	230	101300000	1000	0	0	-1	1000
26278915	29	311	0	-100	0	230	101300000	1000	0	0	-1	1000
26291475	26	307	0	-100	0	230	101300000	1000	0	0	-1	1000
26304035	33	302	0	-100	0	230	101300000	1000	0	0	-1	1000
26316595	33	301	0	-100	0	230	101300000	1000	0	0	-1	1000
26329155	26	307	0	-100	0	230	101300000	1000	0	0	-1	1000
26341715	31	312	0	-100	0	230	101300000	1000	0	0	-1	1000
26354275	29	304	0	-100	0	230	101300000	1000	0	0	-1	1000
26366835	33	303	0	-100	0	230	101300000	1000	0	0	-1	1000
26379395	31	303	0	-100	0	230	101300000	1000	0	0	-1	1000
26391955	26	309	0	-100	0	230	101300000	1000	0	0	-1	1000
26404515	29	308	0	-100	0	230	101300000	1000	0	0	-1	1000
26417075	31	302	0	-100	0	230	101300000	1000	0	0	-1	1000
26429635	33	301	0	-100	0	230	101300000	1000	0	0	-1	1000
26442195	33	302	0	-100	0	230	101300000	1000	0	0	-1	1000
26454755	26	311	0	-100	0	230	101300000	1000	0	0	-1	1000
26467315	31	310	0	-100	0	230	101300000	1000	0	0	-1	1000
26479875	33	302	0	-100	0	230	101300000	1000	0	0	-1	1000
26492435	31	305	0	-100	0	230	101300000	1000	0	0	-1	1000
26504995	26	302	0	-100	0	230	101300000	1000	0	0	-1	1000
26517555	29	311	0	-100	0	230	101300000	1000	0	0	-1	1000
26530115	31	310	0	-100	0	230	101300000	1000	0	0	-1	1000
26542675	31	302	0	-100	0	230	101300000	1000	0	0	-1	1000
26555235	33	304	0	-100	0	230	101300000	1000	0	0	-1	1000
26567795	33	300	0	-100	0	230	101300000	1000	0	0	-1	1000
26580355	36	304	0	-100	0	230	101300000	1000	0	0	-1	1000
26592915	29	305	0	-100	0	230	101300000	1000	0	0	-1	1000
26605475	26	308	0	-100	0	230	101300000	1000	0	0	-1	1000
26618035	29	311	0	-100	0	230	101300000	1000	0	0	-1	1000
26630595	29	302	0	-100	0	230	101300000	1000	0	0	-1	1000
26643155	33	304	0	-100	0	230	101300000	1000	0	0	-1	1000
26655715	36	304	0	-100	0	230	101300000	1000	0	0	-1	1000
26668275	26	307	0	-100	0	230	101300000	1000	0	0	-1	1000
26680835	29	312	0	-100	0	230	101300000	1000	0	0	-1	1000
26693395	29	306	0	-100	0	230	101300000	1000	0	0	-1	1000
26705955	33	304	0	-100	0	230	101300000	1000	0	0	-1	1000
26718515	29	306	0	-100	0	230	101300000	1000	0	0	-1	1000
26731075	31	311	0	-100	0	230	101300000	1000	0	0	-1	1000
26743635	29	302	0	-100	0	230	101300000	1000	0	0	-1	1000
26756195	33	302	0	-100	0	230	101300000	1000	0	0	-1	1000
26768755	26	307	0	-100	0	230	101300000	1000	0	0	-1	1000
26781315	33	313	0	-100	0	230	101300000	1000	0	0	-1	1000
26793875	29	305	0	-100	0	230	101300000	1000	0	0	-1	1000
26806435	33	303	0	-100	0	230	101300000	1000	0	0	-1	1000
26818995	29	309	0	-100	0	230	101300000	1000	0	0	-1	1000
26831555	24	311	0	-100	0	230	101300000	1000	0	0	-1	1000
26844115	33	315	0	-100	0	230	101300000	1000	0	0	-1	1000
26856675	29	307	0	-100	0	230	101300000	1000	0	0	-1	1000
26869235	31	303	0	-100	0	230	101300000	1000	0	0	-1	1000
26881795	31	302	0	-100	0	230	101300000	1000	0	0	-1	1000
26894355	36	304	0	-100	0	230	101300000	1000	0	0	-1	1000
26906915	33	301	0	-100	0	230	101300000	1000	0	0	-1	1000
26919475	31	303	0	-100	0	230	101300000	1000	0	0	-1	1000
26932035	26	307	0	-100	0	230	101300000	1000	0	0	-1	1000
26944595	31	311	0	-100	0	230	101300000	1000	0	0	-1	1000
26957155	29	302	0	-100	0	230	101300000	1000	0	0	-1	1000
26969715	33	304	0	-100	0	230	101300000	1000	0	0	-1	1000
26982275	29	303	0	-100	0	230	101300000	1000	0	0	-1	1000
26994835	26	311	0	-100	0	230	101300000	1000	0	0	-1	1000
27007395	26	307	0	-100	0	230	101300000	1000	0	0	-1	1000
27019955	29	306	0	-100	0	230	101300000	1000	0	0	-1	1000
27032515	36	304	0	-100	0	230	101300000	1000	0	0	-1	1000
27045075	33	302	0	-100	0	230	101300000	1000	0	0	-1	1000
