timestamp	voltage	current	windSpeed	pitchAngle	rpm	temperature	ambientPressure	humidity	accelerationX	accelerationY	accelerationZ	currentSink
7039070	2010	0	0	-100	0	230	101300000	1000	0	0	-1	0
7046523	2009	0	0	-100	0	230	101300000	1000	0	0	-1	0
7059083	2005	0	0	-100	0	230	101300000	1000	0	0	-1	0
7071643	2004	0	0	-100	0	230	101300000	1000	0	0	-1	0
7084203	2009	0	0	-100	0	230	101300000	1000	0	0	-1	0
7096763	2004	0	0	-100	0	230	101300000	1000	0	0	-1	0
7109323	2011	0	0	-100	0	230	101300000	1000	0	0	-1	0
7121883	2005	0	0	-100	0	230	101300000	1000	0	0	-1	0
7134443	2012	0	0	-100	0	230	101300000	1000	0	0	-1	0
7147004	2006	0	0	-100	0	230	101300000	1000	0	0	-1	0
7159563	2011	0	0	-100	0	230	101300000	1000	0	0	-1	0
7172123	2005	0	0	-100	0	230	101300000	1000	0	0	-1	0
7184683	2006	0	0	-100	0	230	101300000	1000	0	0	-1	0
7197243	2001	0	0	-100	0	230	101300000	1000	0	0	-1	0
7209803	2009	0	0	-100	0	230	101300000	1000	0	0	-1	0
7222363	2005	0	0	-100	0	230	101300000	1000	0	0	-1	0
7234923	2012	0	0	-100	0	230	101300000	1000	0	0	-1	0
7247483	2003	2	0	-100	0	230	101300000	1000	0	0	-1	0
7260043	2009	0	0	-100	0	230	101300000	1000	0	0	-1	0
7272603	2002	1	0	-100	0	230	101300000	1000	0	0	-1	0
7285163	2002	0	0	-100	0	230	101300000	1000	0	0	-1	0
7297723	2012	0	0	-100	0	230	101300000	1000	0	0	-1	0
7310283	2003	2	0	-100	0	230	101300000	1000	0	0	-1	0
7322843	2008	0	0	-100	0	230	101300000	1000	0	0	-1	0
7335403	2003	0	0	-100	0	230	101300000	1000	0	0	-1	0
7347963	2005	0	0	-100	0	230	101300000	1000	0	0	-1	0
7703675	48	410	0	-100	0	230	101300000	1000	0	0	-1	1000
7716235	46	410	0	-100	0	230	101300000	1000	0	0	-1	1000
7728795	53	407	0	-100	0	230	101300000	1000	0	0	-1	1000
7741355	46	415	0	-100	0	230	101300000	1000	0	0	-1	1000
7753915	53	408	0	-100	0	230	101300000	1000	0	0	-1	1000
7766475	46	414	0	-100	0	230	101300000	1000	0	0	-1	1000
7779035	50	407	0	-100	0	230	101300000	1000	0	0	-1	1000
7791595	48	409	0	-100	0	230	101300000	1000	0	0	-1	1000
7804155	43	411	0	-100	0	230	101300000	1000	0	0	-1	1000
7816715	55	408	0	-100	0	230	101300000	1000	0	0	-1	1000
7829275	46	414	0	-100	0	230	101300000	1000	0	0	-1	1000
7841835	50	407	0	-100	0	230	101300000	1000	0	0	-1	1000
7854395	46	411	0	-100	0	230	101300000	1000	0	0	-1	1000
7866955	48	412	0	-100	0	230	101300000	1000	0	0	-1	1000
7879515	53	408	0	-100	0	230	101300000	1000	0	0	-1	1000
7892075	46	411	0	-100	0	230	101300000	1000	0	0	-1	1000
7904635	48	412	0	-100	0	230	101300000	1000	0	0	-1	1000
7917195	55	408	0	-100	0	230	101300000	1000	0	0	-1	1000
7929755	46	411	0	-100	0	230	101300000	1000	0	0	-1	1000
7942315	55	409	0	-100	0	230	101300000	1000	0	0	-1	1000
7954875	48	411	0	-100	0	230	101300000	1000	0	0	-1	1000
7967435	50	406	0	-100	0	230	101300000	1000	0	0	-1	1000
7979995	48	407	0	-100	0	230	101300000	1000	0	0	-1	1000
7992555	48	407	0	-100	0	230	101300000	1000	0	0	-1	1000
8005115	50	408	0	-100	0	230	101300000	1000	0	0	-1	1000
8017675	48	414	0	-100	0	230	101300000	1000	0	0	-1	1000
8030235	46	407	0	-100	0	230	101300000	1000	0	0	-1	1000
8042795	53	405	0	-100	0	230	101300000	1000	0	0	-1	1000
8055355	43	413	0	-100	0	230	101300000	1000	0	0	-1	1000
8067915	48	408	0	-100	0	230	101300000	1000	0	0	-1	1000
8080475	53	408	0	-100	0	230	101300000	1000	0	0	-1	1000
8093035	46	417	0	-100	0	230	101300000	1000	0	0	-1	1000
8105595	50	407	0	-100	0	230	101300000	1000	0	0	-1	1000
8118155	41	411	0	-100	0	230	101300000	1000	0	0	-1	1000
8130715	46	408	0	-100	0	230	101300000	1000	0	0	-1	1000
8143275	53	408	0	-100	0	230	101300000	1000	0	0	-1	1000
8155835	46	415	0	-100	0	230	101300000	1000	0	0	-1	1000
8168395	50	408	0	-100	0	230	101300000	1000	0	0	-1	1000
8180955	55	408	0	-100	0	230	101300000	1000	0	0	-1	1000
8193515	43	413	0	-100	0	230	101300000	1000	0	0	-1	1000
8206075	50	407	0	-100	0	230	101300000	1000	0	0	-1	1000
8218635	48	408	0	-100	0	230	101300000	1000	0	0	-1	1000
8231195	48	411	0	-100	0	230	101300000	1000	0	0	-1	1000
8243755	53	408	0	-100	0	230	101300000	1000	0	0	-1	1000
8256315	48	407	0	-100	0	230	101300000	1000	0	0	-1	1000
8268875	46	414	0	-100	0	230	101300000	1000	0	0	-1	1000
8281435	48	408	0	-100	0	230	101300000	1000	0	0	-1	1000
8293995	50	414	0	-100	0	230	101300000	1000	0	0	-1	1000
8306555	46	412	0	-100	0	230	101300000	1000	0	0	-1	1000
8319115	55	407	0	-100	0	230	101300000	1000	0	0	-1	1000
8331675	43	415	0	-100	0	230	101300000	1000	0	0	-1	1000
8344235	50	407	0	-100	0	230	101300000	1000	0	0	-1	1000
8356795	43	411	0	-100	0	230	101300000	1000	0	0	-1	1000
8369355	48	412	0	-100	0	230	101300000	1000	0	0	-1	1000
8381915	50	407	0	-100	0	230	101300000	1000	0	0	-1	1000
8394475	50	412	0	-100	0	230	101300000	1000	0	0	-1	1000
8407035	50	406	0	-100	0	230	101300000	1000	0	0	-1	1000
8419595	46	412	0	-100	0	230	101300000	1000	0	0	-1	1000
8432155	48	406	0	-100	0	230	101300000	1000	0	0	-1	1000
8444715	50	409	0	-100	0	230	101300000	1000	0	0	-1	1000
8457275	46	410	0	-100	0	230	101300000	1000	0	0	-1	1000
8469835	50	408	0	-100	0	230	101300000	1000	0	0	-1	1000
8482395	46	412	0	-100	0	230	101300000	1000	0	0	-1	1000
8494955	53	406	0	-100	0	230	101300000	1000	0	0	-1	1000
8507515	43	413	0	-100	0	230	101300000	1000	0	0	-1	1000
8520075	48	408	0	-100	0	230	101300000	1000	0	0	-1	1000
8532635	48	410	0	-100	0	230	101300000	1000	0	0	-1	1000
8545195	46	411	0	-100	0	230	101300000	1000	0	0	-1	1000
8557755	53	408	0	-100	0	230	101300000	1000	0	0	-1	1000
8570315	43	413	0	-100	0	230	101300000	1000	0	0	-1	1000
8582875	46	411	0	-100	0	230	101300000	1000	0	0	-1	1000
8595435	53	407	0	-100	0	230	101300000	1000	0	0	-1	1000
8607995	48	411	0	-100	0	230	101300000	1000	0	0	-1	1000
8620555	50	413	0	-100	0	230	101300000	1000	0	0	-1	1000
8633115	53	408	0	-100	0	230	101300000	1000	0	0	-1	1000
8645675	48	408	0	-100	0	230	101300000	1000	0	0	-1	1000
8658235	48	412	0	-100	0	230	101300000	1000	0	0	-1	1000
8670795	53	408	0	-100	0	230	101300000	1000	0	0	-1	1000
8683355	46	410	0	-100	0	230	101300000	1000	0	0	-1	1000
8695915	46	415	0	-100	0	230	101300000	1000	0	0	-1	1000
8708475	46	411	0	-100	0	230	101300000	1000	0	0	-1	1000
8721035	50	408	0	-100	0	230	101300000	1000	0	0	-1	1000
8733595	53	408	0	-100	0	230	101300000	1000	0	0	-1	1000
8746155	41	411	0	-100	0	230	101300000	1000	0	0	-1	1000
8758715	48	412	0	-100	0	230	101300000	1000	0	0	-1	1000
8771275	48	406	0	-100	0	230	101300000	1000	0	0	-1	1000
8783835	53	404	0	-100	0	230	101300000	1000	0	0	-1	1000
8796395	48	411	0	-100	0	230	101300000	1000	0	0	-1	1000
8808955	46	414	0	-100	0	230	101300000	1000	0	0	-1	1000
8821515	48	410	0	-100	0	230	101300000	1000	0	0	-1	1000
8834075	48	406	0	-100	0	230	101300000	1000	0	0	-1	1000
8846635	53	405	0	-100	0	230	101300000	1000	0	0	-1	1000
8859195	46	412	0	-100	0	230	101300000	1000	0	0	-1	1000
8871755	46	411	0	-100	0	230	101300000	1000	0	0	-1	1000
8884315	53	409	0	-100	0	230	101300000	1000	0	0	-1	1000
8896875	46	416	0	-100	0	230	101300000	1000	0	0	-1	1000
8909435	53	406	0	-100	0	230	101300000	1000	0	0	-1	1000
8921995	48	414	0	-100	0	230	101300000	1000	0	0	-1	1000
8934555	48	415	0	-100	0	230	101300000	1000	0	0	-1	1000
8947115	50	407	0	-100	0	230	101300000	1000	0	0	-1	1000
8959675	46	412	0	-100	0	230	101300000	1000	0	0	-1	1000
8972235	46	409	0	-100	0	230	101300000	1000	0	0	-1	1000
8984795	53	407	0	-100	0	230	101300000	1000	0	0	-1	1000
8997355	43	416	0	-100	0	230	101300000	1000	0	0	-1	1000
9009915	46	408	0	-100	0	230	101300000	1000	0	0	-1	1000
9022475	55	409	0	-100	0	230	101300000	1000	0	0	-1	1000
9035035	46	414	0	-100	0	230	101300000	1000	0	0	-1	1000
9047595	48	407	0	-100	0	230	101300000	1000	0	0	-1	1000
9060155	50	406	0	-100	0	230	101300000	1000	0	0	-1	1000
9072715	46	415	0	-100	0	230	101300000	1000	0	0	-1	1000
9085275	50	407	0	-100	0	230	101300000	1000	0	0	-1	1000
9097835	48	408	0	-100	0	230	101300000	1000	0	0	-1	1000
9110395	46	415	0	-100	0	230	101300000	1000	0	0	-1	1000
9122955	50	407	0	-100	0	230	101300000	1000	0	0	-1	1000
9135515	50	409	0	-100	0	230	101300000	1000	0	0	-1	1000
9148075	48	414	0	-100	0	230	101300000	1000	0	0	-1	1000
9160635	46	412	0	-100	0	230	101300000	1000	0	0	-1	1000
9173195	50	407	0	-100	0	230	101300000	1000	0	0	-1	1000
9185755	53	408	0	-100	0	230	101300000	1000	0	0	-1	1000
9198315	46	410	0	-100	0	230	101300000	1000	0	0	-1	1000
9210875	46	413	0	-100	0	230	101300000	1000	0	0	-1	1000
9223435	48	407	0	-100	0	230	101300000	1000	0	0	-1	1000
9235995	53	412	0	-100	0	230	101300000	1000	0	0	-1	1000
9248555	46	411	0	-100	0	230	101300000	1000	0	0	-1	1000
9261115	46	413	0	-100	0	230	101300000	1000	0	0	-1	1000
9273675	50	406	0	-100	0	230	101300000	1000	0	0	-1	1000
9286235	50	407	0	-100	0	230	101300000	1000	0	0	-1	1000
9298795	46	414	0	-100	0	230	101300000	1000	0	0	-1	1000
9311355	53	407	0	-100	0	230	101300000	1000	0	0	-1	1000
9323915	50	409	0	-100	0	230	101300000	1000	0	0	-1	1000
9336475	46	414	0	-100	0	230	101300000	1000	0	0	-1	1000
9349035	48	407	0	-100	0	230	101300000	1000	0	0	-1	1000
9361595	55	405	0	-100	0	230	101300000	1000	0	0	-1	1000
9374155	38	408	0	-100	0	230	101300000	1000	0	0	-1	1000
9386715	48	416	0	-100	0	230	101300000	1000	0	0	-1	1000
9399275	53	408	0	-100	0	230	101300000	1000	0	0	-1	1000
9411835	48	409	0	-100	0	230	101300000	1000	0	0	-1	1000
9424395	43	411	0	-100	0	230	101300000	1000	0	0	-1	1000
9436955	53	407	0	-100	0	230	101300000	1000	0	0	-1	1000
9449515	46	415	0	-100	0	230	101300000	1000	0	0	-1	1000
9462075	50	408	0	-100	0	230	101300000	1000	0	0	-1	1000
9474635	46	411	0	-100	0	230	101300000	1000	0	0	-1	1000
9487195	43	411	0	-100	0	230	101300000	1000	0	0	-1	1000
9499755	53	409	0	-100	0	230	101300000	1000	0	0	-1	1000
9512315	48	412	0	-100	0	230	101300000	1000	0	0	-1	1000
9524875	50	407	0	-100	0	230	101300000	1000	0	0	-1	1000
9537435	48	409	0	-100	0	230	101300000	1000	0	0	-1	1000
9549995	48	408	0	-100	0	230	101300000	1000	0	0	-1	1000
9562555	53	408	0	-100	0	230	101300000	1000	0	0	-1	1000
9575115	46	410	0	-100	0	230	101300000	1000	0	0	-1	1000
9587675	48	416	0	-100	0	230	101300000	1000	0	0	-1	1000
9600235	50	406	0	-100	0	230	101300000	1000	0	0	-1	1000
9612795	50	408	0	-100	0	230	101300000	1000	0	0	-1	1000
9625355	48	416	0	-100	0	230	101300000	1000	0	0	-1	1000
9637915	50	407	0	-100	0	230	101300000	1000	0	0	-1	1000
9650475	53	408	0	-100	0	230	101300000	1000	0	0	-1	1000
9663035	46	412	0	-100	0	230	101300000	1000	0	0	-1	1000
9675595	46	411	0	-100	0	230	101300000	1000	0	0	-1	1000
9688155	50	407	0	-100	0	230	101300000	1000	0	0	-1	1000
9700715	48	409	0	-100	0	230	101300000	1000	0	0	-1	1000
9713275	46	415	0	-100	0	230	101300000	1000	0	0	-1	1000
9725835	48	408	0	-100	0	230	101300000	1000	0	0	-1	1000
9738395	50	407	0	-100	0	230	101300000	1000	0	0	-1	1000
9750955	53	408	0	-100	0	230	101300000	1000	0	0	-1	1000
9763515	46	413	0	-100	0	230	101300000	1000	0	0	-1	1000
9776075	48	412	0	-100	0	230	101300000	1000	0	0	-1	1000
9788635	53	406	0	-100	0	230	101300000	1000	0	0	-1	1000
9801195	53	408	0	-100	0	230	101300000	1000	0	0	-1	1000
9813755	46	414	0	-100	0	230	101300000	1000	0	0	-1	1000
9826315	46	411	0	-100	0	230	101300000	1000	0	0	-1	1000
9838875	50	408	0	-100	0	230	101300000	1000	0	0	-1	1000
9851435	48	407	0	-100	0	230	101300000	1000	0	0	-1	1000
9863995	46	408	0	-100	0	230	101300000	1000	0	0	-1	1000
9876555	46	408	0	-100	0	230	101300000	1000	0	0	-1	1000
9889115	53	408	0	-100	0	230	101300000	1000	0	0	-1	1000
9901675	46	410	0	-100	0	230	101300000	1000	0	0	-1	1000
9914235	46	412	0	-100	0	230	101300000	1000	0	0	-1	1000
9926795	46	413	0	-100	0	230	101300000	1000	0	0	-1	1000
9939355	46	411	0	-100	0	230	101300000	1000	0	0	-1	1000
9951915	50	407	0	-100	0	230	101300000	1000	0	0	-1	1000
9964475	50	407	0	-100	0	230	101300000	1000	0	0	-1	1000
9977035	46	409	0	-100	0	230	101300000	1000	0	0	-1	1000
9989595	46	412	0	-100	0	230	101300000	1000	0	0	-1	1000
10002155	43	414	0	-100	0	230	101300000	1000	0	0	-1	1000
10014715	48	417	0	-100	0	230	101300000	1000	0	0	-1	1000
10027275	48	408	0	-100	0	230	101300000	1000	0	0	-1	1000
10039835	50	407	0	-100	0	230	101300000	1000	0	0	-1	1000
10052395	48	407	0	-100	0	230	101300000	1000	0	0	-1	1000
10064955	43	414	0	-100	0	230	101300000	1000	0	0	-1	1000
10077515	46	411	0	-100	0	230	101300000	1000	0	0	-1	1000
10090075	50	407	0	-100	0	230	101300000	1000	0	0	-1	1000
10102635	53	407	0	-100	0	230	101300000	1000	0	0	-1	1000
10115195	46	412	0	-100	0	230	101300000	1000	0	0	-1	1000
10127755	46	416	0	-100	0	230	101300000	1000	0	0	-1	1000
10140315	46	411	0	-100	0	230	101300000	1000	0	0	-1	1000
10152875	48	407	0	-100	0	230	101300000	1000	0	0	-1	1000
10165435	53	408	0	-100	0	230	101300000	1000	0	0	-1	1000
10177995	55	413	0	-100	0	230	101300000	1000	0	0	-1	1000
10190555	46	410	0	-100	0	230	101300000	1000	0	0	-1	1000
10203115	48	415	0	-100	0	230	101300000	1000	0	0	-1	1000
10215675	46	409	0	-100	0	230	101300000	1000	0	0	-1	1000
10228235	48	408	0	-100	0	230	101300000	1000	0	0	-1	1000
10240795	53	409	0	-100	0	230	101300000	1000	0	0	-1	1000
10253355	46	413	0	-100	0	230	101300000	1000	0	0	-1	1000
10265915	46	411	0	-100	0	230	101300000	1000	0	0	-1	1000
10278475	50	406	0	-100	0	230	101300000	1000	0	0	-1	1000
10291035	53	404	0	-100	0	230	101300000	1000	0	0	-1	1000
10303595	46	410	0	-100	0	230	101300000	1000	0	0	-1	1000
10316155	43	414	0	-100	0	230	101300000	1000	0	0	-1	1000
10328715	48	407	0	-100	0	230	101300000	1000	0	0	-1	1000
10341275	50	407	0	-100	0	230	101300000	1000	0	0	-1	1000
10353835	43	413	0	-100	0	230	101300000	1000	0	0	-1	1000
10366395	48	417	0	-100	0	230	101300000	1000	0	0	-1	1000
10378955	43	411	0	-100	0	230	101300000	1000	0	0	-1	1000
10391515	48	408	0	-100	0	230	101300000	1000	0	0	-1	1000
10404075	53	409	0	-100	0	230	101300000	1000	0	0	-1	1000
10416635	53	406	0	-100	0	230	101300000	1000	0	0	-1	1000
10429195	46	412	0	-100	0	230	101300000	1000	0	0	-1	1000
10441755	43	413	0	-100	0	230	101300000	1000	0	0	-1	1000
10454315	48	412	0	-100	0	230	101300000	1000	0	0	-1	1000
10466875	48	407	0	-100	0	230	101300000	1000	0	0	-1	1000
10479435	53	407	0	-100	0	230	101300000	1000	0	0	-1	1000
10491995	53	413	0	-100	0	230	101300000	1000	0	0	-1	1000
10504555	46	412	0	-100	0	230	101300000	1000	0	0	-1	1000
10517115	46	412	0	-100	0	230	101300000	1000	0	0	-1	1000
10529675	48	407	0	-100	0	230	101300000	1000	0	0	-1	1000
10542235	53	408	0	-100	0	230	101300000	1000	0	0	-1	1000
10554795	53	407	0	-100	0	230	101300000	1000	0	0	-1	1000
10567355	46	412	0	-100	0	230	101300000	1000	0	0	-1	1000
10579915	46	413	0	-100	0	230	101300000	1000	0	0	-1	1000
10592475	48	412	0	-100	0	230	101300000	1000	0	0	-1	1000
10605035	46	408	0	-100	0	230	101300000	1000	0	0	-1	1000
10617595	48	408	0	-100	0	230	101300000	1000	0	0	-1	1000
10630155	50	403	0	-100	0	230	101300000	1000	0	0	-1	1000
10642715	50	407	0	-100	0	230	101300000	1000	0	0	-1	1000
10655275	46	411	0	-100	0	230	101300000	1000	0	0	-1	1000
10667835	46	414	0	-100	0	230	101300000	1000	0	0	-1	1000
10680395	46	411	0	-100	0	230	101300000	1000	0	0	-1	1000
10692955	50	406	0	-100	0	230	101300000	1000	0	0	-1	1000
10705515	55	409	0	-100	0	230	101300000	1000	0	0	-1	1000
10718075	43	413	0	-100	0	230	101300000	1000	0	0	-1	1000
10730635	46	411	0	-100	0	230	101300000	1000	0	0	-1	1000
10743195	53	408	0	-100	0	230	101300000	1000	0	0	-1	1000
10755755	48	411	0	-100	0	230	101300000	1000	0	0	-1	1000
10768315	46	412	0	-100	0	230	101300000	1000	0	0	-1	1000
10780875	50	408	0	-100	0	230	101300000	1000	0	0	-1	1000
10793435	53	407	0	-100	0	230	101300000	1000	0	0	-1	1000
10805995	43	409	0	-100	0	230	101300000	1000	0	0	-1	1000
10818555	43	408	0	-100	0	230	101300000	1000	0	0	-1	1000
10831115	53	407	0	-100	0	230	101300000	1000	0	0	-1	1000
10843675	53	405	0	-100	0	230	101300000	1000	0	0	-1	1000
10856235	46	412	0	-100	0	230	101300000	1000	0	0	-1	1000
10868795	43	412	0	-100	0	230	101300000	1000	0	0	-1	1000
10881355	46	414	0	-100	0	230	101300000	1000	0	0	-1	1000
10893915	46	412	0	-100	0	230	101300000	1000	0	0	-1	1000
10906475	48	407	0	-100	0	230	101300000	1000	0	0	-1	1000
10919035	53	408	0	-100	0	230	101300000	1000	0	0	-1	1000
10931595	46	411	0	-100	0	230	101300000	1000	0	0	-1	1000
10944155	46	413	0	-100	0	230	101300000	1000	0	0	-1	1000
10956715	48	406	0	-100	0	230	101300000	1000	0	0	-1	1000
10969275	53	406	0	-100	0	230	101300000	1000	0	0	-1	1000
10981835	46	414	0	-100	0	230	101300000	1000	0	0	-1	1000
10994395	48	408	0	-100	0	230	101300000	1000	0	0	-1	1000
11006955	53	407	0	-100	0	230	101300000	1000	0	0	-1	1000
11019515	46	415	0	-100	0	230	101300000	1000	0	0	-1	1000
11032075	46	408	0	-100	0	230	101300000	1000	0	0	-1	1000
11044635	53	405	0	-100	0	230	101300000	1000	0	0	-1	1000
11057195	46	414	0	-100	0	230	101300000	1000	0	0	-1	1000
11069755	50	407	0	-100	0	230	101300000	1000	0	0	-1	1000
11082315	50	409	0	-100	0	230	101300000	1000	0	0	-1	1000
11094875	46	414	0	-100	0	230	101300000	1000	0	0	-1	1000
11107435	48	407	0	-100	0	230	101300000	1000	0	0	-1	1000
11119995	50	415	0	-100	0	230	101300000	1000	0	0	-1	1000
11132555	46	414	0	-100	0	230	101300000	1000	0	0	-1	1000
11145115	50	407	0	-100	0	230	101300000	1000	0	0	-1	1000
11157675	48	409	0	-100	0	230	101300000	1000	0	0	-1	1000
11170235	48	411	0	-100	0	230	101300000	1000	0	0	-1	1000
11182795	53	408	0	-100	0	230	101300000	1000	0	0	-1	1000
11195355	46	412	0	-100	0	230	101300000	1000	0	0	-1	1000
11207915	50	413	0	-100	0	230	101300000	1000	0	0	-1	1000
11220475	53	407	0	-100	0	230	101300000	1000	0	0	-1	1000
11233035	43	413	0	-100	0	230	101300000	1000	0	0	-1	1000
11245595	46	408	0	-100	0	230	101300000	1000	0	0	-1	1000
11258155	46	407	0	-100	0	230	101300000	1000	0	0	-1	1000
11270715	46	415	0	-100	0	230	101300000	1000	0	0	-1	1000
11283275	50	406	0	-100	0	230	101300000	1000	0	0	-1	1000
11295835	53	409	0	-100	0	230	101300000	1000	0	0	-1	1000
11308395	46	415	0	-100	0	230	101300000	1000	0	0	-1	1000
11320955	46	411	0	-100	0	230	101300000	1000	0	0	-1	1000
11333515	53	407	0	-100	0	230	101300000	1000	0	0	-1	1000
11346075	55	409	0	-100	0	230	101300000	1000	0	0	-1	1000
11358635	46	413	0	-100	0	230	101300000	1000	0	0	-1	1000
11371195	46	413	0	-100	0	230	101300000	1000	0	0	-1	1000
11383755	48	412	0	-100	0	230	101300000	1000	0	0	-1	1000
11396315	48	408	0	-100	0	230	101300000	1000	0	0	-1	1000
11408875	53	407	0	-100	0	230	101300000	1000	0	0	-1	1000
11421435	53	405	0	-100	0	230	101300000	1000	0	0	-1	1000
11433995	50	413	0	-100	0	230	101300000	1000	0	0	-1	1000
11446555	43	412	0	-100	0	230	101300000	1000	0	0	-1	1000
11459115	48	415	0	-100	0	230	101300000	1000	0	0	-1	1000
11471675	46	411	0	-100	0	230	101300000	1000	0	0	-1	1000
11484235	50	406	0	-100	0	230	101300000	1000	0	0	-1	1000
11496795	53	409	0	-100	0	230	101300000	1000	0	0	-1	1000
11509355	43	412	0	-100	0	230	101300000	1000	0	0	-1	1000
11521915	46	412	0	-100	0	230	101300000	1000	0	0	-1	1000
11534475	50	407	0	-100	0	230	101300000	1000	0	0	-1	1000
11547035	50	408	0	-100	0	230	101300000	1000	0	0	-1	1000
11559595	48	414	0	-100	0	230	101300000	1000	0	0	-1	1000
11572155	46	407	0	-100	0	230	101300000	1000	0	0	-1	1000
11584715	53	408	0	-100	0	230	101300000	1000	0	0	-1	1000
11597275	46	413	0	-100	0	230	101300000	1000	0	0	-1	1000
11609835	48	410	0	-100	0	230	101300000	1000	0	0	-1	1000
11622395	53	406	0	-100	0	230	101300000	1000	0	0	-1	1000
11634955	46	411	0	-100	0	230	101300000	1000	0	0	-1	1000
11647515	46	414	0	-100	0	230	101300000	1000	0	0	-1	1000
11660075	50	407	0	-100	0	230	101300000	1000	0	0	-1	1000
11672635	53	409	0	-100	0	230	101300000	1000	0	0	-1	1000
11685195	46	413	0	-100	0	230	101300000	1000	0	0	-1	1000
11697755	46	412	0	-100	0	230	101300000	1000	0	0	-1	1000
11710315	50	407	0	-100	0	230	101300000	1000	0	0	-1	1000
11722875	46	408	0	-100	0	230	101300000	1000	0	0	-1	1000
11735435	46	416	0	-100	0	230	101300000	1000	0	0	-1	1000
11747995	46	409	0	-100	0	230	101300000	1000	0	0	-1	1000
11760555	50	406	0	-100	0	230	101300000	1000	0	0	-1	1000
11773115	46	408	0	-100	0	230	101300000	1000	0	0	-1	1000
11785675	48	415	0	-100	0	230	101300000	1000	0	0	-1	1000
11798235	48	408	0	-100	0	230	101300000	1000	0	0	-1	1000
11810795	53	409	0	-100	0	230	101300000	1000	0	0	-1	1000
11823355	46	414	0	-100	0	230	101300000	1000	0	0	-1	1000
11835915	46	409	0	-100	0	230	101300000	1000	0	0	-1	1000
11848475	50	408	0	-100	0	230	101300000	1000	0	0	-1	1000
11861035	53	408	0	-100	0	230	101300000	1000	0	0	-1	1000
11873595	46	413	0	-100	0	230	101300000	1000	0	0	-1	1000
11886155	43	415	0	-100	0	230	101300000	1000	0	0	-1	1000
11898715	46	407	0	-100	0	230	101300000	1000	0	0	-1	1000
11911275	53	407	0	-100	0	230	101300000	1000	0	0	-1	1000
11923835	46	412	0	-100	0	230	101300000	1000	0	0	-1	1000
11936395	43	415	0	-100	0	230	101300000	1000	0	0	-1	1000
11948955	46	412	0	-100	0	230	101300000	1000	0	0	-1	1000
11961515	50	409	0	-100	0	230	101300000	1000	0	0	-1	1000
11974075	46	412	0	-100	0	230	101300000	1000	0	0	-1	1000
11986635	46	411	0	-100	0	230	101300000	1000	0	0	-1	1000
11999195	48	408	0	-100	0	230	101300000	1000	0	0	-1	1000
12011755	53	408	0	-100	0	230	101300000	1000	0	0	-1	1000
12024315	46	411	0	-100	0	230	101300000	1000	0	0	-1	1000
12036875	48	412	0	-100	0	230	101300000	1000	0	0	-1	1000
12049435	53	408	0	-100	0	230	101300000	1000	0	0	-1	1000
12061995	46	412	0	-100	0	230	101300000	1000	0	0	-1	1000
12074555	46	411	0	-100	0	230	101300000	1000	0	0	-1	1000
12087115	53	408	0	-100	0	230	101300000	1000	0	0	-1	1000
12099675	46	412	0	-100	0	230	101300000	1000	0	0	-1	1000
12112235	46	412	0	-100	0	230	101300000	1000	0	0	-1	1000
12124795	53	405	0	-100	0	230	101300000	1000	0	0	-1	1000
12137355	46	415	0	-100	0	230	101300000	1000	0	0	-1	1000
12149915	48	409	0	-100	0	230	101300000	1000	0	0	-1	1000
12162475	53	408	0	-100	0	230	101300000	1000	0	0	-1	1000
12175035	46	413	0	-100	0	230	101300000	1000	0	0	-1	1000
12187595	50	408	0	-100	0	230	101300000	1000	0	0	-1	1000
12200155	43	409	0	-100	0	230	101300000	1000	0	0	-1	1000
12212715	48	412	0	-100	0	230	101300000	1000	0	0	-1	1000
12225275	50	408	0	-100	0	230	101300000	1000	0	0	-1	1000
12237835	48	414	0	-100	0	230	101300000	1000	0	0	-1	1000
12250395	50	406	0	-100	0	230	101300000	1000	0	0	-1	1000
12262955	43	409	0	-100	0	230	101300000	1000	0	0	-1	1000
12275515	48	411	0	-100	0	230	101300000	1000	0	0	-1	1000
12288075	53	408	0	-100	0	230	101300000	1000	0	0	-1	1000
12300635	43	414	0	-100	0	230	101300000	1000	0	0	-1	1000
12313195	48	407	0	-100	0	230	101300000	1000	0	0	-1	1000
12325755	53	406	0	-100	0	230	101300000	1000	0	0	-1	1000
12338315	48	408	0	-100	0	230	101300000	1000	0	0	-1	1000
12350875	43	413	0	-100	0	230	101300000	1000	0	0	-1	1000
12363435	48	411	0	-100	0	230	101300000	1000	0	0	-1	1000
12375995	50	412	0	-100	0	230	101300000	1000	0	0	-1	1000
12388555	46	410	0	-100	0	230	101300000	1000	0	0	-1	1000
12401115	46	412	0	-100	0	230	101300000	1000	0	0	-1	1000
12413675	50	407	0	-100	0	230	101300000	1000	0	0	-1	1000
12426235	46	415	0	-100	0	230	101300000	1000	0	0	-1	1000
12438795	50	406	0	-100	0	230	101300000	1000	0	0	-1	1000
12451355	43	414	0	-100	0	230	101300000	1000	0	0	-1	1000
12463915	50	407	0	-100	0	230	101300000	1000	0	0	-1	1000
12476475	43	413	0	-100	0	230	101300000	1000	0	0	-1	1000
12489035	48	408	0	-100	0	230	101300000	1000	0	0	-1	1000
12501595	46	409	0	-100	0	230	101300000	1000	0	0	-1	1000
12514155	46	411	0	-100	0	230	101300000	1000	0	0	-1	1000
12526715	53	406	0	-100	0	230	101300000	1000	0	0	-1	1000
12539275	43	414	0	-100	0	230	101300000	1000	0	0	-1	1000
12551835	48	408	0	-100	0	230	101300000	1000	0	0	-1	1000
12564395	53	407	0	-100	0	230	101300000	1000	0	0	-1	1000
12576955	46	414	0	-100	0	230	101300000	1000	0	0	-1	1000
12589515	48	407	0	-100	0	230	101300000	1000	0	0	-1	1000
12602075	53	406	0	-100	0	230	101300000	1000	0	0	-1	1000
12614635	43	414	0	-100	0	230	101300000	1000	0	0	-1	1000
12627195	46	408	0	-100	0	230	101300000	1000	0	0	-1	1000
12639755	53	406	0	-100	0	230	101300000	1000	0	0	-1	1000
12652315	43	414	0	-100	0	230	101300000	1000	0	0	-1	1000
12664875	46	410	0	-100	0	230	101300000	1000	0	0	-1	1000
12677435	53	404	0	-100	0	230	101300000	1000	0	0	-1	1000
12689995	46	409	0	-100	0	230	101300000	1000	0	0	-1	1000
12702555	50	408	0	-100	0	230	101300000	1000	0	0	-1	1000
12715115	46	409	0	-100	0	230	101300000	1000	0	0	-1	1000
12727675	48	410	0	-100	0	230	101300000	1000	0	0	-1	1000
12740235	50	408	0	-100	0	230	101300000	1000	0	0	-1	1000
12752795	48	413	0	-100	0	230	101300000	1000	0	0	-1	1000
12765355	53	408	0	-100	0	230	101300000	1000	0	0	-1	1000
12777915	46	411	0	-100	0	230	101300000	1000	0	0	-1	1000
12790475	50	409	0	-100	0	230	101300000	1000	0	0	-1	1000
12803035	43	413	0	-100	0	230	101300000	1000	0	0	-1	1000
12815595	53	408	0	-100	0	230	101300000	1000	0	0	-1	1000
12828155	43	414	0	-100	0	230	101300000	1000	0	0	-1	1000
12840715	50	408	0	-100	0	230	101300000	1000	0	0	-1	1000
12853275	48	412	0	-100	0	230	101300000	1000	0	0	-1	1000
12865835	53	408	0	-100	0	230	101300000	1000	0	0	-1	1000
12878395	48	408	0	-100	0	230	101300000	1000	0	0	-1	1000
12890955	48	407	0	-100	0	230	101300000	1000	0	0	-1	1000
12903515	48	412	0	-100	0	230	101300000	1000	0	0	-1	1000
12916075	50	409	0	-100	0	230	101300000	1000	0	0	-1	1000
12928635	46	412	0	-100	0	230	101300000	1000	0	0	-1	1000
12941195	46	409	0	-100	0	230	101300000	1000	0	0	-1	1000
12953755	50	408	0	-100	0	230	101300000	1000	0	0	-1	1000
12966315	46	415	0	-100	0	230	101300000	1000	0	0	-1	1000
12978875	50	408	0	-100	0	230	101300000	1000	0	0	-1	1000
12991435	46	414	0	-100	0	230	101300000	1000	0	0	-1	1000
13003995	50	410	0	-100	0	230	101300000	1000	0	0	-1	1000
13016555	46	414	0	-100	0	230	101300000	1000	0	0	-1	1000
13029115	50	407	0	-100	0	230	101300000	1000	0	0	-1	1000
13041675	46	410	0	-100	0	230	101300000	1000	0	0	-1	1000
13054235	50	408	0	-100	0	230	101300000	1000	0	0	-1	1000
13066795	46	410	0	-100	0	230	101300000	1000	0	0	-1	1000
13079355	50	408	0	-100	0	230	101300000	1000	0	0	-1	1000
13091915	46	413	0	-100	0	230	101300000	1000	0	0	-1	1000
13104475	50	407	0	-100	0	230	101300000	1000	0	0	-1	1000
13117035	46	413	0	-100	0	230	101300000	1000	0	0	-1	1000
13129595	50	408	0	-100	0	230	101300000	1000	0	0	-1	1000
13142155	46	411	0	-100	0	230	101300000	1000	0	0	-1	1000
13154715	53	407	0	-100	0	230	101300000	1000	0	0	-1	1000
13167275	46	412	0	-100	0	230	101300000	1000	0	0	-1	1000
13179835	43	412	0	-100	0	230	101300000	1000	0	0	-1	1000
13192395	48	407	0	-100	0	230	101300000	1000	0	0	-1	1000
13204955	46	412	0	-100	0	230	101300000	1000	0	0	-1	1000
13217515	46	411	0	-100	0	230	101300000	1000	0	0	-1	1000
13230075	50	406	0	-100	0	230	101300000	1000	0	0	-1	1000
13242635	46	411	0	-100	0	230	101300000	1000	0	0	-1	1000
13255195	55	408	0	-100	0	230	101300000	1000	0	0	-1	1000
13267755	48	415	0	-100	0	230	101300000	1000	0	0	-1	1000
13280315	55	409	0	-100	0	230	101300000	1000	0	0	-1	1000
13292875	48	408	0	-100	0	230	101300000	1000	0	0	-1	1000
13305435	43	413	0	-100	0	230	101300000	1000	0	0	-1	1000
13317995	53	412	0	-100	0	230	101300000	1000	0	0	-1	1000
13330555	48	417	0	-100	0	230	101300000	1000	0	0	-1	1000
13343115	53	408	0	-100	0	230	101300000	1000	0	0	-1	1000
13355675	48	413	0	-100	0	230	101300000	1000	0	0	-1	1000
13368235	55	408	0	-100	0	230	101300000	1000	0	0	-1	1000
13380795	46	411	0	-100	0	230	101300000	1000	0	0	-1	1000
13393355	53	408	0	-100	0	230	101300000	1000	0	0	-1	1000
13405915	50	417	0	-100	0	230	101300000	1000	0	0	-1	1000
13418475	53	403	0	-100	0	230	101300000	1000	0	0	-1	1000
13431035	46	414	0	-100	0	230	101300000	1000	0	0	-1	1000
13443595	50	408	0	-100	0	230	101300000	1000	0	0	-1	1000
13456155	43	411	0	-100	0	230	101300000	1000	0	0	-1	1000
13468715	48	410	0	-100	0	230	101300000	1000	0	0	-1	1000
13481275	53	409	0	-100	0	230	101300000	1000	0	0	-1	1000
13493835	46	414	0	-100	0	230	101300000	1000	0	0	-1	1000
13506395	46	408	0	-100	0	230	101300000	1000	0	0	-1	1000
13518955	53	408	0	-100	0	230	101300000	1000	0	0	-1	1000
13531515	46	413	0	-100	0	230	101300000	1000	0	0	-1	1000
13544075	48	412	0	-100	0	230	101300000	1000	0	0	-1	1000
13556635	53	407	0	-100	0	230	101300000	1000	0	0	-1	1000
13569195	48	408	0	-100	0	230	101300000	1000	0	0	-1	1000
13581755	46	414	0	-100	0	230	101300000	1000	0	0	-1	1000
13594315	46	410	0	-100	0	230	101300000	1000	0	0	-1	1000
13606875	50	408	0	-100	0	230	101300000	1000	0	0	-1	1000
13619435	48	408	0	-100	0	230	101300000	1000	0	0	-1	1000
13631995	46	406	0	-100	0	230	101300000	1000	0	0	-1	1000
13644555	50	408	0	-100	0	230	101300000	1000	0	0	-1	1000
13657115	46	412	0	-100	0	230	101300000	1000	0	0	-1	1000
13669675	46	410	0	-100	0	230	101300000	1000	0	0	-1	1000
13682235	53	406	0	-100	0	230	101300000	1000	0	0	-1	1000
13694795	43	414	0	-100	0	230	101300000	1000	0	0	-1	1000
13707355	50	405	0	-100	0	230	101300000	1000	0	0	-1	1000
13719915	46	414	0	-100	0	230	101300000	1000	0	0	-1	1000
13732475	50	408	0	-100	0	230	101300000	1000	0	0	-1	1000
13745035	46	413	0	-100	0	230	101300000	1000	0	0	-1	1000
13757595	48	408	0	-100	0	230	101300000	1000	0	0	-1	1000
13770155	43	408	0	-100	0	230	101300000	1000	0	0	-1	1000
13782715	48	408	0	-100	0	230	101300000	1000	0	0	-1	1000
13795275	50	408	0	-100	0	230	101300000	1000	0	0	-1	1000
13807835	46	412	0	-100	0	230	101300000	1000	0	0	-1	1000
13820395	53	409	0	-100	0	230	101300000	1000	0	0	-1	1000
13832955	43	411	0	-100	0	230	101300000	1000	0	0	-1	1000
13845515	50	409	0	-100	0	230	101300000	1000	0	0	-1	1000
13858075	46	413	0	-100	0	230	101300000	1000	0	0	-1	1000
13870635	48	408	0	-100	0	230	101300000	1000	0	0	-1	1000
13883195	50	407	0	-100	0	230	101300000	1000	0	0	-1	1000
13895755	46	416	0	-100	0	230	101300000	1000	0	0	-1	1000
13908315	48	408	0	-100	0	230	101300000	1000	0	0	-1	1000
13920875	48	407	0	-100	0	230	101300000	1000	0	0	-1	1000
13933435	46	414	0	-100	0	230	101300000	1000	0	0	-1	1000
13945995	50	406	0	-100	0	230	101300000	1000	0	0	-1	1000
13958555	50	407	0	-100	0	230	101300000	1000	0	0	-1	1000
13971115	50	405	0	-100	0	230	101300000	1000	0	0	-1	1000
13983675	50	408	0	-100	0	230	101300000	1000	0	0	-1	1000
13996235	46	411	0	-100	0	230	101300000	1000	0	0	-1	1000
14008795	43	413	0	-100	0	230	101300000	1000	0	0	-1	1000
14021355	43	414	0	-100	0	230	101300000	1000	0	0	-1	1000
14033915	46	411	0	-100	0	230	101300000	1000	0	0	-1	1000
14046475	48	409	0	-100	0	230	101300000	1000	0	0	-1	1000
14059035	48	408	0	-100	0	230	101300000	1000	0	0	-1	1000
14071595	53	408	0	-100	0	230	101300000	1000	0	0	-1	1000
14084155	50	406	0	-100	0	230	101300000	1000	0	0	-1	1000
14096715	53	408	0	-100	0	230	101300000	1000	0	0	-1	1000
14109275	53	408	0	-100	0	230	101300000	1000	0	0	-1	1000
14121835	53	408	0	-100	0	230	101300000	1000	0	0	-1	1000
14134395	50	407	0	-100	0	230	101300000	1000	0	0	-1	1000
14146955	48	407	0	-100	0	230	101300000	1000	0	0	-1	1000
14159515	48	407	0	-100	0	230	101300000	1000	0	0	-1	1000
14172075	43	411	0	-100	0	230	101300000	1000	0	0	-1	1000
14184635	46	410	0	-100	0	230	101300000	1000	0	0	-1	1000
14197195	48	410	0	-100	0	230	101300000	1000	0	0	-1	1000
14209755	46	406	0	-100	0	230	101300000	1000	0	0	-1	1000
14222315	46	409	0	-100	0	230	101300000	1000	0	0	-1	1000
14234875	46	411	0	-100	0	230	101300000	1000	0	0	-1	1000
14247435	46	416	0	-100	0	230	101300000	1000	0	0	-1	1000
14259995	46	407	0	-100	0	230	101300000	1000	0	0	-1	1000
14272555	46	414	0	-100	0	230	101300000	1000	0	0	-1	1000
14285115	48	414	0	-100	0	230	101300000	1000	0	0	-1	1000
14297675	48	411	0	-100	0	230	101300000	1000	0	0	-1	1000
14310235	48	415	0	-100	0	230	101300000	1000	0	0	-1	1000
14322795	46	415	0	-100	0	230	101300000	1000	0	0	-1	1000
14335355	46	414	0	-100	0	230	101300000	1000	0	0	-1	1000
14347915	46	414	0	-100	0	230	101300000	1000	0	0	-1	1000
14360475	46	415	0	-100	0	230	101300000	1000	0	0	-1	1000
14373035	46	414	0	-100	0	230	101300000	1000	0	0	-1	1000
14385595	43	414	0	-100	0	230	101300000	1000	0	0	-1	1000
14398155	41	412	0	-100	0	230	101300000	1000	0	0	-1	1000
14410715	46	413	0	-100	0	230	101300000	1000	0	0	-1	1000
14423275	46	412	0	-100	0	230	101300000	1000	0	0	-1	1000
14435835	43	412	0	-100	0	230	101300000	1000	0	0	-1	1000
14448395	48	415	0	-100	0	230	101300000	1000	0	0	-1	1000
14460955	50	408	0	-100	0	230	101300000	1000	0	0	-1	1000
14473515	55	408	0	-100	0	230	101300000	1000	0	0	-1	1000
14486075	46	396	0	-100	0	230	101300000	1000	0	0	-1	1000
14498635	46	413	0	-100	0	230	101300000	1000	0	0	-1	1000
14511195	48	415	0	-100	0	230	101300000	1000	0	0	-1	1000
14523755	46	408	0	-100	0	230	101300000	1000	0	0	-1	1000
14536315	53	408	0	-100	0	230	101300000	1000	0	0	-1	1000
14548875	50	409	0	-100	0	230	101300000	1000	0	0	-1	1000
14561435	48	412	0	-100	0	230	101300000	1000	0	0	-1	1000
14573995	43	413	0	-100	0	230	101300000	1000	0	0	-1	1000
14586555	46	413	0	-100	0	230	101300000	1000	0	0	-1	1000
14599115	48	413	0	-100	0	230	101300000	1000	0	0	-1	1000
14611675	48	412	0	-100	0	230	101300000	1000	0	0	-1	1000
14624235	46	408	0	-100	0	230	101300000	1000	0	0	-1	1000
14636795	50	406	0	-100	0	230	101300000	1000	0	0	-1	1000
14649355	50	407	0	-100	0	230	101300000	1000	0	0	-1	1000
14661915	43	412	0	-100	0	230	101300000	1000	0	0	-1	1000
14674475	48	415	0	-100	0	230	101300000	1000	0	0	-1	1000
14687035	48	407	0	-100	0	230	101300000	1000	0	0	-1	1000
14699595	53	408	0	-100	0	230	101300000	1000	0	0	-1	1000
14712155	46	408	0	-100	0	230	101300000	1000	0	0	-1	1000
14724715	43	412	0	-100	0	230	101300000	1000	0	0	-1	1000
14737275	48	413	0	-100	0	230	101300000	1000	0	0	-1	1000
14749835	48	407	0	-100	0	230	101300000	1000	0	0	-1	1000
14762395	50	407	0	-100	0	230	101300000	1000	0	0	-1	1000
14774955	53	407	0	-100	0	230	101300000	1000	0	0	-1	1000
14787515	46	415	0	-100	0	230	101300000	1000	0	0	-1	1000
14800075	46	409	0	-100	0	230	101300000	1000	0	0	-1	1000
14812635	50	406	0	-100	0	230	101300000	1000	0	0	-1	1000
14825195	50	403	0	-100	0	230	101300000	1000	0	0	-1	1000
14837755	46	404	0	-100	0	230	101300000	1000	0	0	-1	1000
14850315	43	413	0	-100	0	230	101300000	1000	0	0	-1	1000
14862875	46	418	0	-100	0	230	101300000	1000	0	0	-1	1000
14875435	46	407	0	-100	0	230	101300000	1000	0	0	-1	1000
14887995	50	416	0	-100	0	230	101300000	1000	0	0	-1	1000
14900555	43	411	0	-100	0	230	101300000	1000	0	0	-1	1000
14913115	48	412	0	-100	0	230	101300000	1000	0	0	-1	1000
14925675	50	330	0	-100	0	230	101300000	1000	0	0	-1	1000
14938235	53	407	0	-100	0	230	101300000	1000	0	0	-1	1000
14950795	43	416	0	-100	0	230	101300000	1000	0	0	-1	1000
14963355	46	413	0	-100	0	230	101300000	1000	0	0	-1	1000
14975915	50	407	0	-100	0	230	101300000	1000	0	0	-1	1000
14988475	55	408	0	-100	0	230	101300000	1000	0	0	-1	1000
15001035	46	413	0	-100	0	230	101300000	1000	0	0	-1	1000
15013595	46	414	0	-100	0	230	101300000	1000	0	0	-1	1000
15026155	43	407	0	-100	0	230	101300000	1000	0	0	-1	1000
15038715	53	409	0	-100	0	230	101300000	1000	0	0	-1	1000
15051275	48	406	0	-100	0	230	101300000	1000	0	0	-1	1000
15063835	43	409	0	-100	0	230	101300000	1000	0	0	-1	1000
15076395	48	410	0	-100	0	230	101300000	1000	0	0	-1	1000
15088955	46	407	0	-100	0	230	101300000	1000	0	0	-1	1000
15101515	50	411	0	-100	0	230	101300000	1000	0	0	-1	1000
15114075	48	409	0	-100	0	230	101300000	1000	0	0	-1	1000
15126635	43	416	0	-100	0	230	101300000	1000	0	0	-1	1000
15139195	48	414	0	-100	0	230	101300000	1000	0	0	-1	1000
15151755	48	409	0	-100	0	230	101300000	1000	0	0	-1	1000
15164315	50	408	0	-100	0	230	101300000	1000	0	0	-1	1000
15176875	53	410	0	-100	0	230	101300000	1000	0	0	-1	1000
15189435	43	414	0	-100	0	230	101300000	1000	0	0	-1	1000
15201995	46	404	0	-100	0	230	101300000	1000	0	0	-1	1000
15214555	50	400	0	-100	0	230	101300000	1000	0	0	-1	1000
15227115	53	408	0	-100	0	230	101300000	1000	0	0	-1	1000
15239675	46	413	0	-100	0	230	101300000	1000	0	0	-1	1000
15252235	46	412	0	-100	0	230	101300000	1000	0	0	-1	1000
15264795	48	405	0	-100	0	230	101300000	1000	0	0	-1	1000
15277355	50	407	0	-100	0	230	101300000	1000	0	0	-1	1000
15289915	53	409	0	-100	0	230	101300000	1000	0	0	-1	1000
15302475	46	417	0	-100	0	230	101300000	1000	0	0	-1	1000
15315035	46	412	0	-100	0	230	101300000	1000	0	0	-1	1000
15327595	53	407	0	-100	0	230	101300000	1000	0	0	-1	1000
15340155	48	408	0	-100	0	230	101300000	1000	0	0	-1	1000
15352715	50	408	0	-100	0	230	101300000	1000	0	0	-1	1000
15365275	43	413	0	-100	0	230	101300000	1000	0	0	-1	1000
15377835	48	411	0	-100	0	230	101300000	1000	0	0	-1	1000
15390395	46	408	0	-100	0	230	101300000	1000	0	0	-1	1000
15402955	50	407	0	-100	0	230	101300000	1000	0	0	-1	1000
15415515	48	409	0	-100	0	230	101300000	1000	0	0	-1	1000
15428075	43	412	0	-100	0	230	101300000	1000	0	0	-1	1000
15440635	46	413	0	-100	0	230	101300000	1000	0	0	-1	1000
15453195	43	412	0	-100	0	230	101300000	1000	0	0	-1	1000
15465755	50	407	0	-100	0	230	101300000	1000	0	0	-1	1000
15478315	53	405	0	-100	0	230	101300000	1000	0	0	-1	1000
15490875	46	411	0	-100	0	230	101300000	1000	0	0	-1	1000
15503435	46	412	0	-100	0	230	101300000	1000	0	0	-1	1000
15515995	43	408	0	-100	0	230	101300000	1000	0	0	-1	1000
15528555	43	412	0	-100	0	230	101300000	1000	0	0	-1	1000
15541115	43	417	0	-100	0	230	101300000	1000	0	0	-1	1000
15553675	46	415	0	-100	0	230	101300000	1000	0	0	-1	1000
15566235	46	411	0	-100	0	230	101300000	1000	0	0	-1	1000
15578795	46	414	0	-100	0	230	101300000	1000	0	0	-1	1000
15591355	46	415	0	-100	0	230	101300000	1000	0	0	-1	1000
15603915	43	411	0	-100	0	230	101300000	1000	0	0	-1	1000
15616475	48	408	0	-100	0	230	101300000	1000	0	0	-1	1000
15629035	48	409	0	-100	0	230	101300000	1000	0	0	-1	1000
15641595	50	408	0	-100	0	230	101300000	1000	0	0	-1	1000
15654155	50	405	0	-100	0	230	101300000	1000	0	0	-1	1000
15666715	53	406	0	-100	0	230	101300000	1000	0	0	-1	1000
15679275	53	406	0	-100	0	230	101300000	1000	0	0	-1	1000
15691835	53	401	0	-100	0	230	101300000	1000	0	0	-1	1000
15704395	50	407	0	-100	0	230	101300000	1000	0	0	-1	1000
15716955	53	411	0	-100	0	230	101300000	1000	0	0	-1	1000
15729515	50	404	0	-100	0	230	101300000	1000	0	0	-1	1000
15742075	50	409	0	-100	0	230	101300000	1000	0	0	-1	1000
15754635	50	404	0	-100	0	230	101300000	1000	0	0	-1	1000
15767195	50	404	0	-100	0	230	101300000	1000	0	0	-1	1000
15779755	53	405	0	-100	0	230	101300000	1000	0	0	-1	1000
15792315	53	401	0	-100	0	230	101300000	1000	0	0	-1	1000
15804875	53	410	0	-100	0	230	101300000	1000	0	0	-1	1000
15817435	53	408	0	-100	0	230	101300000	1000	0	0	-1	1000
15829995	50	412	0	-100	0	230	101300000	1000	0	0	-1	1000
15842555	50	405	0	-100	0	230	101300000	1000	0	0	-1	1000
15855115	53	408	0	-100	0	230	101300000	1000	0	0	-1	1000
15867675	53	405	0	-100	0	230	101300000	1000	0	0	-1	1000
15880235	53	406	0	-100	0	230	101300000	1000	0	0	-1	1000
15892795	53	407	0	-100	0	230	101300000	1000	0	0	-1	1000
15905355	50	410	0	-100	0	230	101300000	1000	0	0	-1	1000
15917915	53	406	0	-100	0	230	101300000	1000	0	0	-1	1000
15930475	50	408	0	-100	0	230	101300000	1000	0	0	-1	1000
15943035	46	410	0	-100	0	230	101300000	1000	0	0	-1	1000
15955595	46	409	0	-100	0	230	101300000	1000	0	0	-1	1000
15968155	43	408	0	-100	0	230	101300000	1000	0	0	-1	1000
15980715	46	411	0	-100	0	230	101300000	1000	0	0	-1	1000
15993275	46	410	0	-100	0	230	101300000	1000	0	0	-1	1000
16005835	43	411	0	-100	0	230	101300000	1000	0	0	-1	1000
16018395	43	412	0	-100	0	230	101300000	1000	0	0	-1	1000
16030955	46	414	0	-100	0	230	101300000	1000	0	0	-1	1000
16043515	46	409	0	-100	0	230	101300000	1000	0	0	-1	1000
16056075	50	407	0	-100	0	230	101300000	1000	0	0	-1	1000
16068635	53	408	0	-100	0	230	101300000	1000	0	0	-1	1000
16081195	50	407	0	-100	0	230	101300000	1000	0	0	-1	1000
16093755	50	408	0	-100	0	230	101300000	1000	0	0	-1	1000
16106315	43	409	0	-100	0	230	101300000	1000	0	0	-1	1000
16118875	48	410	0	-100	0	230	101300000	1000	0	0	-1	1000
16131435	50	406	0	-100	0	230	101300000	1000	0	0	-1	1000
16143995	53	417	0	-100	0	230	101300000	1000	0	0	-1	1000
16156555	46	415	0	-100	0	230	101300000	1000	0	0	-1	1000
16169115	48	446	0	-100	0	230	101300000	1000	0	0	-1	1000
16181675	50	404	0	-100	0	230	101300000	1000	0	0	-1	1000
16194235	55	406	0	-100	0	230	101300000	1000	0	0	-1	1000
16206795	46	413	0	-100	0	230	101300000	1000	0	0	-1	1000
16219355	48	408	0	-100	0	230	101300000	1000	0	0	-1	1000
16231915	53	403	0	-100	0	230	101300000	1000	0	0	-1	1000
16244475	46	412	0	-100	0	230	101300000	1000	0	0	-1	1000
16257035	46	413	0	-100	0	230	101300000	1000	0	0	-1	1000
16269595	50	410	0	-100	0	230	101300000	1000	0	0	-1	1000
16282155	48	406	0	-100	0	230	101300000	1000	0	0	-1	1000
16294715	46	415	0	-100	0	230	101300000	1000	0	0	-1	1000
16307275	50	407	0	-100	0	230	101300000	1000	0	0	-1	1000
16319835	48	407	0	-100	0	230	101300000	1000	0	0	-1	1000
16332395	46	414	0	-100	0	230	101300000	1000	0	0	-1	1000
16344955	48	408	0	-100	0	230	101300000	1000	0	0	-1	1000
16357515	53	407	0	-100	0	230	101300000	1000	0	0	-1	1000
16370075	46	413	0	-100	0	230	101300000	1000	0	0	-1	1000
16382635	48	412	0	-100	0	230	101300000	1000	0	0	-1	1000
16395195	50	408	0	-100	0	230	101300000	1000	0	0	-1	1000
16407755	48	408	0	-100	0	230	101300000	1000	0	0	-1	1000
16420315	46	416	0	-100	0	230	101300000	1000	0	0	-1	1000
16432875	48	408	0	-100	0	230	101300000	1000	0	0	-1	1000
16445435	50	405	0	-100	0	230	101300000	1000	0	0	-1	1000
16457995	48	411	0	-100	0	230	101300000	1000	0	0	-1	1000
16470555	46	416	0	-100	0	230	101300000	1000	0	0	-1	1000
16483115	46	411	0	-100	0	230	101300000	1000	0	0	-1	1000
16495675	50	408	0	-100	0	230	101300000	1000	0	0	-1	1000
16508235	48	408	0	-100	0	230	101300000	1000	0	0	-1	1000
16520795	48	414	0	-100	0	230	101300000	1000	0	0	-1	1000
16533355	43	411	0	-100	0	230	101300000	1000	0	0	-1	1000
16545915	53	409	0	-100	0	230	101300000	1000	0	0	-1	1000
16558475	53	408	0	-100	0	230	101300000	1000	0	0	-1	1000
16571035	46	414	0	-100	0	230	101300000	1000	0	0	-1	1000
16583595	46	407	0	-100	0	230	101300000	1000	0	0	-1	1000
16596155	48	404	0	-100	0	230	101300000	1000	0	0	-1	1000
16608715	43	413	0	-100	0	230	101300000	1000	0	0	-1	1000
16621275	48	410	0	-100	0	230	101300000	1000	0	0	-1	1000
16633835	50	406	0	-100	0	230	101300000	1000	0	0	-1	1000
16646395	46	414	0	-100	0	230	101300000	1000	0	0	-1	1000
16658955	48	408	0	-100	0	230	101300000	1000	0	0	-1	1000
16671515	53	408	0	-100	0	230	101300000	1000	0	0	-1	1000
16684075	43	414	0	-100	0	230	101300000	1000	0	0	-1	1000
16696635	46	408	0	-100	0	230	101300000	1000	0	0	-1	1000
16709195	53	408	0	-100	0	230	101300000	1000	0	0	-1	1000
16721755	48	416	0	-100	0	230	101300000	1000	0	0	-1	1000
16734315	50	406	0	-100	0	230	101300000	1000	0	0	-1	1000
16746875	46	409	0	-100	0	230	101300000	1000	0	0	-1	1000
16759435	48	413	0	-100	0	230	101300000	1000	0	0	-1	1000
16771995	50	407	0	-100	0	230	101300000	1000	0	0	-1	1000
16784555	48	407	0	-100	0	230	101300000	1000	0	0	-1	1000
16797115	43	414	0	-100	0	230	101300000	1000	0	0	-1	1000
16809675	43	412	0	-100	0	230	101300000	1000	0	0	-1	1000
16822235	50	408	0	-100	0	230	101300000	1000	0	0	-1	1000
16834795	46	411	0	-100	0	230	101300000	1000	0	0	-1	1000
16847355	48	415	0	-100	0	230	101300000	1000	0	0	-1	1000
16859915	48	408	0	-100	0	230	101300000	1000	0	0	-1	1000
16872475	50	407	0	-100	0	230	101300000	1000	0	0	-1	1000
16885035	46	411	0	-100	0	230	101300000	1000	0	0	-1	1000
16897595	46	412	0	-100	0	230	101300000	1000	0	0	-1	1000
16910155	48	403	0	-100	0	230	101300000	1000	0	0	-1	1000
16922715	46	413	0	-100	0	230	101300000	1000	0	0	-1	1000
16935275	46	417	0	-100	0	230	101300000	1000	0	0	-1	1000
16947835	46	408	0	-100	0	230	101300000	1000	0	0	-1	1000
16960395	48	407	0	-100	0	230	101300000	1000	0	0	-1	1000
16972955	50	406	0	-100	0	230	101300000	1000	0	0	-1	1000
16985515	53	408	0	-100	0	230	101300000	1000	0	0	-1	1000
16998075	50	408	0	-100	0	230	101300000	1000	0	0	-1	1000
17010635	46	410	0	-100	0	230	101300000	1000	0	0	-1	1000
17023195	46	414	0	-100	0	230	101300000	1000	0	0	-1	1000
17035755	46	407	0	-100	0	230	101300000	1000	0	0	-1	1000
17048315	53	408	0	-100	0	230	101300000	1000	0	0	-1	1000
17060875	50	409	0	-100	0	230	101300000	1000	0	0	-1	1000
17073435	46	410	0	-100	0	230	101300000	1000	0	0	-1	1000
17085995	46	409	0	-100	0	230	101300000	1000	0	0	-1	1000
17098555	46	413	0	-100	0	230	101300000	1000	0	0	-1	1000
17111115	50	406	0	-100	0	230	101300000	1000	0	0	-1	1000
17123675	53	408	0	-100	0	230	101300000	1000	0	0	-1	1000
17136235	53	409	0	-100	0	230	101300000	1000	0	0	-1	1000
17148795	43	412	0	-100	0	230	101300000	1000	0	0	-1	1000
17161355	41	414	0	-100	0	230	101300000	1000	0	0	-1	1000
17173915	43	414	0	-100	0	230	101300000	1000	0	0	-1	1000
17186475	46	412	0	-100	0	230	101300000	1000	0	0	-1	1000
17199035	53	407	0	-100	0	230	101300000	1000	0	0	-1	1000
17211595	46	412	0	-100	0	230	101300000	1000	0	0	-1	1000
17224155	43	410	0	-100	0	230	101300000	1000	0	0	-1	1000
17236715	53	408	0	-100	0	230	101300000	1000	0	0	-1	1000
17249275	48	412	0	-100	0	230	101300000	1000	0	0	-1	1000
17261835	43	410	0	-100	0	230	101300000	1000	0	0	-1	1000
17274395	50	408	0	-100	0	230	101300000	1000	0	0	-1	1000
17286955	50	407	0	-100	0	230	101300000	1000	0	0	-1	1000
17299515	46	414	0	-100	0	230	101300000	1000	0	0	-1	1000
17312075	48	408	0	-100	0	230	101300000	1000	0	0	-1	1000
17324635	50	404	0	-100	0	230	101300000	1000	0	0	-1	1000
17337195	43	413	0	-100	0	230	101300000	1000	0	0	-1	1000
17349755	46	412	0	-100	0	230	101300000	1000	0	0	-1	1000
17362315	50	408	0	-100	0	230	101300000	1000	0	0	-1	1000
17374875	46	411	0	-100	0	230	101300000	1000	0	0	-1	1000
17387435	48	408	0	-100	0	230	101300000	1000	0	0	-1	1000
17399995	48	417	0	-100	0	230	101300000	1000	0	0	-1	1000
17412555	48	413	0	-100	0	230	101300000	1000	0	0	-1	1000
17425115	50	408	0	-100	0	230	101300000	1000	0	0	-1	1000
17437675	50	407	0	-100	0	230	101300000	1000	0	0	-1	1000
17450235	46	413	0	-100	0	230	101300000	1000	0	0	-1	1000
17462795	50	407	0	-100	0	230	101300000	1000	0	0	-1	1000
17475355	48	409	0	-100	0	230	101300000	1000	0	0	-1	1000
17487915	43	412	0	-100	0	230	101300000	1000	0	0	-1	1000
17500475	53	404	0	-100	0	230	101300000	1000	0	0	-1	1000
17513035	46	414	0	-100	0	230	101300000	1000	0	0	-1	1000
17525595	48	408	0	-100	0	230	101300000	1000	0	0	-1	1000
17538155	48	403	0	-100	0	230	101300000	1000	0	0	-1	1000
17550715	46	411	0	-100	0	230	101300000	1000	0	0	-1	1000
17563275	46	415	0	-100	0	230	101300000	1000	0	0	-1	1000
17575835	48	408	0	-100	0	230	101300000	1000	0	0	-1	1000
17588395	53	406	0	-100	0	230	101300000	1000	0	0	-1	1000
17600955	43	413	0	-100	0	230	101300000	1000	0	0	-1	1000
17613515	43	411	0	-100	0	230	101300000	1000	0	0	-1	1000
17626075	50	408	0	-100	0	230	101300000	1000	0	0	-1	1000
17638635	48	407	0	-100	0	230	101300000	1000	0	0	-1	1000
17651195	46	415	0	-100	0	230	101300000	1000	0	0	-1	1000
17663755	46	409	0	-100	0	230	101300000	1000	0	0	-1	1000
17676315	50	408	0	-100	0	230	101300000	1000	0	0	-1	1000
17688875	48	412	0	-100	0	230	101300000	1000	0	0	-1	1000
17701435	50	415	0	-100	0	230	101300000	1000	0	0	-1	1000
17713995	48	409	0	-100	0	230	101300000	1000	0	0	-1	1000
17726555	50	406	0	-100	0	230	101300000	1000	0	0	-1	1000
17739115	46	410	0	-100	0	230	101300000	1000	0	0	-1	1000
17751675	43	414	0	-100	0	230	101300000	1000	0	0	-1	1000
17764235	43	411	0	-100	0	230	101300000	1000	0	0	-1	1000
17776795	53	408	0	-100	0	230	101300000	1000	0	0	-1	1000
17789355	53	409	0	-100	0	230	101300000	1000	0	0	-1	1000
17801915	53	408	0	-100	0	230	101300000	1000	0	0	-1	1000
17814475	48	408	0	-100	0	230	101300000	1000	0	0	-1	1000
17827035	46	413	0	-100	0	230	101300000	1000	0	0	-1	1000
17839595	43	413	0	-100	0	230	101300000	1000	0	0	-1	1000
17852155	43	410	0	-100	0	230	101300000	1000	0	0	-1	1000
17864715	46	407	0	-100	0	230	101300000	1000	0	0	-1	1000
17877275	50	407	0	-100	0	230	101300000	1000	0	0	-1	1000
17889835	50	409	0	-100	0	230	101300000	1000	0	0	-1	1000
17902395	46	412	0	-100	0	230	101300000	1000	0	0	-1	1000
17914955	46	410	0	-100	0	230	101300000	1000	0	0	-1	1000
17927515	50	406	0	-100	0	230	101300000	1000	0	0	-1	1000
17940075	53	406	0	-100	0	230	101300000	1000	0	0	-1	1000
17952635	48	409	0	-100	0	230	101300000	1000	0	0	-1	1000
17965195	43	414	0	-100	0	230	101300000	1000	0	0	-1	1000
17977755	43	411	0	-100	0	230	101300000	1000	0	0	-1	1000
17990315	50	407	0	-100	0	230	101300000	1000	0	0	-1	1000
18002875	53	408	0	-100	0	230	101300000	1000	0	0	-1	1000
18015435	43	413	0	-100	0	230	101300000	1000	0	0	-1	1000
18027995	46	408	0	-100	0	230	101300000	1000	0	0	-1	1000
18040555	50	407	0	-100	0	230	101300000	1000	0	0	-1	1000
18053115	46	413	0	-100	0	230	101300000	1000	0	0	-1	1000
18065675	43	410	0	-100	0	230	101300000	1000	0	0	-1	1000
18078235	50	404	0	-100	0	230	101300000	1000	0	0	-1	1000
18090795	46	414	0	-100	0	230	101300000	1000	0	0	-1	1000
18103355	46	408	0	-100	0	230	101300000	1000	0	0	-1	1000
18115915	53	407	0	-100	0	230	101300000	1000	0	0	-1	1000
18128475	46	410	0	-100	0	230	101300000	1000	0	0	-1	1000
18141035	46	415	0	-100	0	230	101300000	1000	0	0	-1	1000
18153595	50	407	0	-100	0	230	101300000	1000	0	0	-1	1000
18166155	41	410	0	-100	0	230	101300000	1000	0	0	-1	1000
18178715	46	412	0	-100	0	230	101300000	1000	0	0	-1	1000
18191275	50	406	0	-100	0	230	101300000	1000	0	0	-1	1000
18203835	46	409	0	-100	0	230	101300000	1000	0	0	-1	1000
18216395	48	413	0	-100	0	230	101300000	1000	0	0	-1	1000
18228955	50	406	0	-100	0	230	101300000	1000	0	0	-1	1000
18241515	50	410	0	-100	0	230	101300000	1000	0	0	-1	1000
18254075	46	417	0	-100	0	230	101300000	1000	0	0	-1	1000
18266635	50	408	0	-100	0	230	101300000	1000	0	0	-1	1000
18279195	43	412	0	-100	0	230	101300000	1000	0	0	-1	1000
18291755	43	411	0	-100	0	230	101300000	1000	0	0	-1	1000
18304315	53	408	0	-100	0	230	101300000	1000	0	0	-1	1000
18316875	48	409	0	-100	0	230	101300000	1000	0	0	-1	1000
18329435	46	414	0	-100	0	230	101300000	1000	0	0	-1	1000
18341995	46	409	0	-100	0	230	101300000	1000	0	0	-1	1000
18354555	50	408	0	-100	0	230	101300000	1000	0	0	-1	1000
18367115	53	408	0	-100	0	230	101300000	1000	0	0	-1	1000
18379675	46	413	0	-100	0	230	101300000	1000	0	0	-1	1000
18392235	43	411	0	-100	0	230	101300000	1000	0	0	-1	1000
18404795	53	405	0	-100	0	230	101300000	1000	0	0	-1	1000
18417355	43	414	0	-100	0	230	101300000	1000	0	0	-1	1000
18429915	48	408	0	-100	0	230	101300000	1000	0	0	-1	1000
18442475	50	405	0	-100	0	230	101300000	1000	0	0	-1	1000
18455035	43	413	0	-100	0	230	101300000	1000	0	0	-1	1000
18467595	46	411	0	-100	0	230	101300000	1000	0	0	-1	1000
18480155	48	406	0	-100	0	230	101300000	1000	0	0	-1	1000
18492715	50	407	0	-100	0	230	101300000	1000	0	0	-1	1000
18505275	53	408	0	-100	0	230	101300000	1000	0	0	-1	1000
18517835	50	408	0	-100	0	230	101300000	1000	0	0	-1	1000
18530395	46	411	0	-100	0	230	101300000	1000	0	0	-1	1000
18542955	46	411	0	-100	0	230	101300000	1000	0	0	-1	1000
18555515	46	413	0	-100	0	230	101300000	1000	0	0	-1	1000
18568075	46	414	0	-100	0	230	101300000	1000	0	0	-1	1000
18580635	43	414	0	-100	0	230	101300000	1000	0	0	-1	1000
18593195	48	411	0	-100	0	230	101300000	1000	0	0	-1	1000
18605755	48	411	0	-100	0	230	101300000	1000	0	0	-1	1000
18618315	53	407	0	-100	0	230	101300000	1000	0	0	-1	1000
18630875	53	408	0	-100	0	230	101300000	1000	0	0	-1	1000
18643435	53	408	0	-100	0	230	101300000	1000	0	0	-1	1000
18655995	48	411	0	-100	0	230	101300000	1000	0	0	-1	1000
18668555	53	405	0	-100	0	230	101300000	1000	0	0	-1	1000
18681115	53	409	0	-100	0	230	101300000	1000	0	0	-1	1000
18693675	46	409	0	-100	0	230	101300000	1000	0	0	-1	1000
18706235	43	411	0	-100	0	230	101300000	1000	0	0	-1	1000
18718795	43	412	0	-100	0	230	101300000	1000	0	0	-1	1000
18731355	43	412	0	-100	0	230	101300000	1000	0	0	-1	1000
18743915	48	414	0	-100	0	230	101300000	1000	0	0	-1	1000
18756475	43	411	0	-100	0	230	101300000	1000	0	0	-1	1000
18769035	48	408	0	-100	0	230	101300000	1000	0	0	-1	1000
18781595	53	408	0	-100	0	230	101300000	1000	0	0	-1	1000
18794155	50	404	0	-100	0	230	101300000	1000	0	0	-1	1000
18806715	53	409	0	-100	0	230	101300000	1000	0	0	-1	1000
18819275	46	408	0	-100	0	230	101300000	1000	0	0	-1	1000
18831835	43	413	0	-100	0	230	101300000	1000	0	0	-1	1000
18844395	46	414	0	-100	0	230	101300000	1000	0	0	-1	1000
18856955	48	415	0	-100	0	230	101300000	1000	0	0	-1	1000
18869515	48	411	0	-100	0	230	101300000	1000	0	0	-1	1000
18882075	48	408	0	-100	0	230	101300000	1000	0	0	-1	1000
18894635	48	407	0	-100	0	230	101300000	1000	0	0	-1	1000
18907195	50	408	0	-100	0	230	101300000	1000	0	0	-1	1000
18919755	53	405	0	-100	0	230	101300000	1000	0	0	-1	1000
18932315	50	403	0	-100	0	230	101300000	1000	0	0	-1	1000
18944875	50	404	0	-100	0	230	101300000	1000	0	0	-1	1000
18957435	53	408	0	-100	0	230	101300000	1000	0	0	-1	1000
18969995	53	415	0	-100	0	230	101300000	1000	0	0	-1	1000
18982555	55	409	0	-100	0	230	101300000	1000	0	0	-1	1000
18995115	53	408	0	-100	0	230	101300000	1000	0	0	-1	1000
19007675	53	408	0	-100	0	230	101300000	1000	0	0	-1	1000
19020235	53	408	0	-100	0	230	101300000	1000	0	0	-1	1000
19032795	53	407	0	-100	0	230	101300000	1000	0	0	-1	1000
19045355	53	407	0	-100	0	230	101300000	1000	0	0	-1	1000
19057915	50	407	0	-100	0	230	101300000	1000	0	0	-1	1000
19070475	48	410	0	-100	0	230	101300000	1000	0	0	-1	1000
19083035	46	414	0	-100	0	230	101300000	1000	0	0	-1	1000
19095595	46	415	0	-100	0	230	101300000	1000	0	0	-1	1000
19108155	41	412	0	-100	0	230	101300000	1000	0	0	-1	1000
19120715	43	414	0	-100	0	230	101300000	1000	0	0	-1	1000
19133275	46	414	0	-100	0	230	101300000	1000	0	0	-1	1000
19145835	46	414	0	-100	0	230	101300000	1000	0	0	-1	1000
19158395	48	412	0	-100	0	230	101300000	1000	0	0	-1	1000
19170955	53	409	0	-100	0	230	101300000	1000	0	0	-1	1000
19183515	53	405	0	-100	0	230	101300000	1000	0	0	-1	1000
19196075	53	407	0	-100	0	230	101300000	1000	0	0	-1	1000
19208635	46	408	0	-100	0	230	101300000	1000	0	0	-1	1000
19221195	46	412	0	-100	0	230	101300000	1000	0	0	-1	1000
19233755	46	416	0	-100	0	230	101300000	1000	0	0	-1	1000
19246315	46	416	0	-100	0	230	101300000	1000	0	0	-1	1000
19258875	43	414	0	-100	0	230	101300000	1000	0	0	-1	1000
19271435	43	412	0	-100	0	230	101300000	1000	0	0	-1	1000
19283995	48	416	0	-100	0	230	101300000	1000	0	0	-1	1000
19296555	55	409	0	-100	0	230	101300000	1000	0	0	-1	1000
19309115	53	407	0	-100	0	230	101300000	1000	0	0	-1	1000
19321675	53	405	0	-100	0	230	101300000	1000	0	0	-1	1000
19334235	53	408	0	-100	0	230	101300000	1000	0	0	-1	1000
19346795	53	408	0	-100	0	230	101300000	1000	0	0	-1	1000
19359355	48	407	0	-100	0	230	101300000	1000	0	0	-1	1000
19371915	46	410	0	-100	0	230	101300000	1000	0	0	-1	1000
19384475	48	411	0	-100	0	230	101300000	1000	0	0	-1	1000
19397035	46	413	0	-100	0	230	101300000	1000	0	0	-1	1000
19409595	43	410	0	-100	0	230	101300000	1000	0	0	-1	1000
19422155	48	407	0	-100	0	230	101300000	1000	0	0	-1	1000
19434715	50	404	0	-100	0	230	101300000	1000	0	0	-1	1000
19447275	50	406	0	-100	0	230	101300000	1000	0	0	-1	1000
19459835	46	412	0	-100	0	230	101300000	1000	0	0	-1	1000
19472395	43	412	0	-100	0	230	101300000	1000	0	0	-1	1000
19484955	53	407	0	-100	0	230	101300000	1000	0	0	-1	1000
19497515	50	406	0	-100	0	230	101300000	1000	0	0	-1	1000
19510075	48	407	0	-100	0	230	101300000	1000	0	0	-1	1000
19522635	46	415	0	-100	0	230	101300000	1000	0	0	-1	1000
19535195	46	412	0	-100	0	230	101300000	1000	0	0	-1	1000
19547755	53	405	0	-100	0	230	101300000	1000	0	0	-1	1000
19560315	46	408	0	-100	0	230	101300000	1000	0	0	-1	1000
19572875	48	413	0	-100	0	230	101300000	1000	0	0	-1	1000
19585435	46	414	0	-100	0	230	101300000	1000	0	0	-1	1000
19597995	43	411	0	-100	0	230	101300000	1000	0	0	-1	1000
19610555	50	408	0	-100	0	230	101300000	1000	0	0	-1	1000
19623115	50	407	0	-100	0	230	101300000	1000	0	0	-1	1000
19635675	43	411	0	-100	0	230	101300000	1000	0	0	-1	1000
19648235	43	413	0	-100	0	230	101300000	1000	0	0	-1	1000
19660795	48	407	0	-100	0	230	101300000	1000	0	0	-1	1000
19673355	50	406	0	-100	0	230	101300000	1000	0	0	-1	1000
19685915	48	406	0	-100	0	230	101300000	1000	0	0	-1	1000
19698475	46	410	0	-100	0	230	101300000	1000	0	0	-1	1000
19711035	46	415	0	-100	0	230	101300000	1000	0	0	-1	1000
19723595	46	410	0	-100	0	230	101300000	1000	0	0	-1	1000
19736155	50	405	0	-100	0	230	101300000	1000	0	0	-1	1000
19748715	50	408	0	-100	0	230	101300000	1000	0	0	-1	1000
19761275	48	412	0	-100	0	230	101300000	1000	0	0	-1	1000
19773835	43	414	0	-100	0	230	101300000	1000	0	0	-1	1000
19786395	46	412	0	-100	0	230	101300000	1000	0	0	-1	1000
19798955	46	412	0	-100	0	230	101300000	1000	0	0	-1	1000
19811515	46	413	0	-100	0	230	101300000	1000	0	0	-1	1000
19824075	43	413	0	-100	0	230	101300000	1000	0	0	-1	1000
19836635	46	412	0	-100	0	230	101300000	1000	0	0	-1	1000
19849195	46	411	0	-100	0	230	101300000	1000	0	0	-1	1000
19861755	46	412	0	-100	0	230	101300000	1000	0	0	-1	1000
19874315	46	411	0	-100	0	230	101300000	1000	0	0	-1	1000
19886875	50	411	0	-100	0	230	101300000	1000	0	0	-1	1000
19899435	48	415	0	-100	0	230	101300000	1000	0	0	-1	1000
19911995	43	408	0	-100	0	230	101300000	1000	0	0	-1	1000
19924555	48	409	0	-100	0	230	101300000	1000	0	0	-1	1000
19937115	48	409	0	-100	0	230	101300000	1000	0	0	-1	1000
19949675	48	410	0	-100	0	230	101300000	1000	0	0	-1	1000
19962235	46	413	0	-100	0	230	101300000	1000	0	0	-1	1000
19974795	46	414	0	-100	0	230	101300000	1000	0	0	-1	1000
19987355	46	415	0	-100	0	230	101300000	1000	0	0	-1	1000
19999915	46	416	0	-100	0	230	101300000	1000	0	0	-1	1000
20012475	46	416	0	-100	0	230	101300000	1000	0	0	-1	1000
20025035	48	415	0	-100	0	230	101300000	1000	0	0	-1	1000
20037595	46	411	0	-100	0	230	101300000	1000	0	0	-1	1000
20050155	48	406	0	-100	0	230	101300000	1000	0	0	-1	1000
20062715	48	407	0	-100	0	230	101300000	1000	0	0	-1	1000
20075275	48	407	0	-100	0	230	101300000	1000	0	0	-1	1000
20087835	50	408	0	-100	0	230	101300000	1000	0	0	-1	1000
20100395	48	407	0	-100	0	230	101300000	1000	0	0	-1	1000
20112955	46	407	0	-100	0	230	101300000	1000	0	0	-1	1000
20125515	48	408	0	-100	0	230	101300000	1000	0	0	-1	1000
20138075	46	408	0	-100	0	230	101300000	1000	0	0	-1	1000
20150635	48	410	0	-100	0	230	101300000	1000	0	0	-1	1000
20163195	46	410	0	-100	0	230	101300000	1000	0	0	-1	1000
20175755	48	412	0	-100	0	230	101300000	1000	0	0	-1	1000
20188315	46	415	0	-100	0	230	101300000	1000	0	0	-1	1000
20200875	46	415	0	-100	0	230	101300000	1000	0	0	-1	1000
20213435	50	414	0	-100	0	230	101300000	1000	0	0	-1	1000
20225995	48	408	0	-100	0	230	101300000	1000	0	0	-1	1000
20238555	46	411	0	-100	0	230	101300000	1000	0	0	-1	1000
20251115	48	412	0	-100	0	230	101300000	1000	0	0	-1	1000
20263675	48	413	0	-100	0	230	101300000	1000	0	0	-1	1000
20276235	48	417	0	-100	0	230	101300000	1000	0	0	-1	1000
20288795	46	414	0	-100	0	230	101300000	1000	0	0	-1	1000
20301355	46	416	0	-100	0	230	101300000	1000	0	0	-1	1000
20313915	46	415	0	-100	0	230	101300000	1000	0	0	-1	1000
20326475	46	414	0	-100	0	230	101300000	1000	0	0	-1	1000
20339035	46	413	0	-100	0	230	101300000	1000	0	0	-1	1000
20351595	43	413	0	-100	0	230	101300000	1000	0	0	-1	1000
20364155	43	410	0	-100	0	230	101300000	1000	0	0	-1	1000
20376715	46	409	0	-100	0	230	101300000	1000	0	0	-1	1000
20389275	48	408	0	-100	0	230	101300000	1000	0	0	-1	1000
20401835	46	407	0	-100	0	230	101300000	1000	0	0	-1	1000
20414395	48	407	0	-100	0	230	101300000	1000	0	0	-1	1000
20426955	48	408	0	-100	0	230	101300000	1000	0	0	-1	1000
20439515	48	408	0	-100	0	230	101300000	1000	0	0	-1	1000
20452075	48	408	0	-100	0	230	101300000	1000	0	0	-1	1000
20464635	48	408	0	-100	0	230	101300000	1000	0	0	-1	1000
20477195	53	408	0	-100	0	230	101300000	1000	0	0	-1	1000
20489755	53	408	0	-100	0	230	101300000	1000	0	0	-1	1000
20502315	50	409	0	-100	0	230	101300000	1000	0	0	-1	1000
20514875	48	408	0	-100	0	230	101300000	1000	0	0	-1	1000
20527435	46	409	0	-100	0	230	101300000	1000	0	0	-1	1000
20539995	48	413	0	-100	0	230	101300000	1000	0	0	-1	1000
20552555	48	408	0	-100	0	230	101300000	1000	0	0	-1	1000
20565115	53	405	0	-100	0	230	101300000	1000	0	0	-1	1000
20577675	50	405	0	-100	0	230	101300000	1000	0	0	-1	1000
20590235	50	407	0	-100	0	230	101300000	1000	0	0	-1	1000
20602795	53	407	0	-100	0	230	101300000	1000	0	0	-1	1000
20615355	48	408	0	-100	0	230	101300000	1000	0	0	-1	1000
20627915	46	407	0	-100	0	230	101300000	1000	0	0	-1	1000
20640475	46	407	0	-100	0	230	101300000	1000	0	0	-1	1000
20653035	48	407	0	-100	0	230	101300000	1000	0	0	-1	1000
20665595	48	407	0	-100	0	230	101300000	1000	0	0	-1	1000
20678155	46	406	0	-100	0	230	101300000	1000	0	0	-1	1000
20690715	46	407	0	-100	0	230	101300000	1000	0	0	-1	1000
20703275	48	407	0	-100	0	230	101300000	1000	0	0	-1	1000
20715835	50	407	0	-100	0	230	101300000	1000	0	0	-1	1000
20728395	53	407	0	-100	0	230	101300000	1000	0	0	-1	1000
20740955	55	410	0	-100	0	230	101300000	1000	0	0	-1	1000
20753515	43	412	0	-100	0	230	101300000	1000	0	0	-1	1000
20766075	46	414	0	-100	0	230	101300000	1000	0	0	-1	1000
20778635	46	412	0	-100	0	230	101300000	1000	0	0	-1	1000
20791195	46	412	0	-100	0	230	101300000	1000	0	0	-1	1000
20803755	46	411	0	-100	0	230	101300000	1000	0	0	-1	1000
20816315	46	413	0	-100	0	230	101300000	1000	0	0	-1	1000
20828875	43	414	0	-100	0	230	101300000	1000	0	0	-1	1000
20841435	46	415	0	-100	0	230	101300000	1000	0	0	-1	1000
20853995	46	407	0	-100	0	230	101300000	1000	0	0	-1	1000
20866555	46	409	0	-100	0	230	101300000	1000	0	0	-1	1000
20879115	50	406	0	-100	0	230	101300000	1000	0	0	-1	1000
20891675	50	408	0	-100	0	230	101300000	1000	0	0	-1	1000
20904235	55	409	0	-100	0	230	101300000	1000	0	0	-1	1000
20916795	48	411	0	-100	0	230	101300000	1000	0	0	-1	1000
20929355	46	414	0	-100	0	230	101300000	1000	0	0	-1	1000
20941915	48	416	0	-100	0	230	101300000	1000	0	0	-1	1000
20954475	48	410	0	-100	0	230	101300000	1000	0	0	-1	1000
20967035	46	412	0	-100	0	230	101300000	1000	0	0	-1	1000
20979595	43	411	0	-100	0	230	101300000	1000	0	0	-1	1000
20992155	46	406	0	-100	0	230	101300000	1000	0	0	-1	1000
21004715	50	408	0	-100	0	230	101300000	1000	0	0	-1	1000
21017275	53	408	0	-100	0	230	101300000	1000	0	0	-1	1000
21029835	55	409	0	-100	0	230	101300000	1000	0	0	-1	1000
21042395	48	411	0	-100	0	230	101300000	1000	0	0	-1	1000
21054955	46	413	0	-100	0	230	101300000	1000	0	0	-1	1000
21067515	48	415	0	-100	0	230	101300000	1000	0	0	-1	1000
21080075	46	411	0	-100	0	230	101300000	1000	0	0	-1	1000
21092635	48	408	0	-100	0	230	101300000	1000	0	0	-1	1000
21105195	53	408	0	-100	0	230	101300000	1000	0	0	-1	1000
21117755	53	407	0	-100	0	230	101300000	1000	0	0	-1	1000
21130315	55	408	0	-100	0	230	101300000	1000	0	0	-1	1000
21142875	55	409	0	-100	0	230	101300000	1000	0	0	-1	1000
21155435	48	413	0	-100	0	230	101300000	1000	0	0	-1	1000
21167995	43	411	0	-100	0	230	101300000	1000	0	0	-1	1000
21180555	43	414	0	-100	0	230	101300000	1000	0	0	-1	1000
21193115	48	416	0	-100	0	230	101300000	1000	0	0	-1	1000
21205675	50	414	0	-100	0	230	101300000	1000	0	0	-1	1000
21218235	46	411	0	-100	0	230	101300000	1000	0	0	-1	1000
21230795	48	411	0	-100	0	230	101300000	1000	0	0	-1	1000
21243355	48	410	0	-100	0	230	101300000	1000	0	0	-1	1000
21255915	50	408	0	-100	0	230	101300000	1000	0	0	-1	1000
21268475	48	408	0	-100	0	230	101300000	1000	0	0	-1	1000
21281035	50	408	0	-100	0	230	101300000	1000	0	0	-1	1000
21293595	53	407	0	-100	0	230	101300000	1000	0	0	-1	1000
21306155	50	407	0	-100	0	230	101300000	1000	0	0	-1	1000
21318715	55	407	0	-100	0	230	101300000	1000	0	0	-1	1000
21331275	48	408	0	-100	0	230	101300000	1000	0	0	-1	1000
21343835	43	411	0	-100	0	230	101300000	1000	0	0	-1	1000
21356395	46	414	0	-100	0	230	101300000	1000	0	0	-1	1000
21368955	46	412	0	-100	0	230	101300000	1000	0	0	-1	1000
21381515	46	413	0	-100	0	230	101300000	1000	0	0	-1	1000
21394075	46	411	0	-100	0	230	101300000	1000	0	0	-1	1000
21406635	48	408	0	-100	0	230	101300000	1000	0	0	-1	1000
21419195	53	408	0	-100	0	230	101300000	1000	0	0	-1	1000
21431755	48	408	0	-100	0	230	101300000	1000	0	0	-1	1000
21444315	46	412	0	-100	0	230	101300000	1000	0	0	-1	1000
21456875	46	413	0	-100	0	230	101300000	1000	0	0	-1	1000
21469435	48	412	0	-100	0	230	101300000	1000	0	0	-1	1000
21481995	48	409	0	-100	0	230	101300000	1000	0	0	-1	1000
21494555	50	406	0	-100	0	230	101300000	1000	0	0	-1	1000
21507115	53	404	0	-100	0	230	101300000	1000	0	0	-1	1000
21519675	53	408	0	-100	0	230	101300000	1000	0	0	-1	1000
21532235	48	410	0	-100	0	230	101300000	1000	0	0	-1	1000
21544795	46	410	0	-100	0	230	101300000	1000	0	0	-1	1000
21557355	43	411	0	-100	0	230	101300000	1000	0	0	-1	1000
21569915	46	414	0	-100	0	230	101300000	1000	0	0	-1	1000
21582475	46	412	0	-100	0	230	101300000	1000	0	0	-1	1000
21595035	46	408	0	-100	0	230	101300000	1000	0	0	-1	1000
21607595	50	407	0	-100	0	230	101300000	1000	0	0	-1	1000
21620155	48	403	0	-100	0	230	101300000	1000	0	0	-1	1000
21632715	53	407	0	-100	0	230	101300000	1000	0	0	-1	1000
21645275	50	408	0	-100	0	230	101300000	1000	0	0	-1	1000
21657835	46	412	0	-100	0	230	101300000	1000	0	0	-1	1000
21670395	46	415	0	-100	0	230	101300000	1000	0	0	-1	1000
21682955	48	414	0	-100	0	230	101300000	1000	0	0	-1	1000
21695515	43	411	0	-100	0	230	101300000	1000	0	0	-1	1000
21708075	46	408	0	-100	0	230	101300000	1000	0	0	-1	1000
21720635	46	409	0	-100	0	230	101300000	1000	0	0	-1	1000
21733195	50	408	0	-100	0	230	101300000	1000	0	0	-1	1000
21745755	50	408	0	-100	0	230	101300000	1000	0	0	-1	1000
21758315	50	409	0	-100	0	230	101300000	1000	0	0	-1	1000
21770875	55	409	0	-100	0	230	101300000	1000	0	0	-1	1000
21783435	48	409	0	-100	0	230	101300000	1000	0	0	-1	1000
21795995	43	413	0	-100	0	230	101300000	1000	0	0	-1	1000
21808555	43	413	0	-100	0	230	101300000	1000	0	0	-1	1000
21821115	46	415	0	-100	0	230	101300000	1000	0	0	-1	1000
21833675	46	413	0	-100	0	230	101300000	1000	0	0	-1	1000
21846235	46	412	0	-100	0	230	101300000	1000	0	0	-1	1000
21858795	46	412	0	-100	0	230	101300000	1000	0	0	-1	1000
21871355	48	412	0	-100	0	230	101300000	1000	0	0	-1	1000
21883915	48	410	0	-100	0	230	101300000	1000	0	0	-1	1000
21896475	48	408	0	-100	0	230	101300000	1000	0	0	-1	1000
21909035	50	407	0	-100	0	230	101300000	1000	0	0	-1	1000
21921595	50	408	0	-100	0	230	101300000	1000	0	0	-1	1000
21934155	50	407	0	-100	0	230	101300000	1000	0	0	-1	1000
21946715	48	411	0	-100	0	230	101300000	1000	0	0	-1	1000
21959275	48	413	0	-100	0	230	101300000	1000	0	0	-1	1000
21971835	43	415	0	-100	0	230	101300000	1000	0	0	-1	1000
21984395	48	411	0	-100	0	230	101300000	1000	0	0	-1	1000
21996955	46	411	0	-100	0	230	101300000	1000	0	0	-1	1000
22009515	46	409	0	-100	0	230	101300000	1000	0	0	-1	1000
22022075	48	408	0	-100	0	230	101300000	1000	0	0	-1	1000
22034635	48	408	0	-100	0	230	101300000	1000	0	0	-1	1000
22047195	48	408	0	-100	0	230	101300000	1000	0	0	-1	1000
22059755	50	408	0	-100	0	230	101300000	1000	0	0	-1	1000
22072315	48	408	0	-100	0	230	101300000	1000	0	0	-1	1000
22084875	53	407	0	-100	0	230	101300000	1000	0	0	-1	1000
22097435	50	408	0	-100	0	230	101300000	1000	0	0	-1	1000
22109995	50	410	0	-100	0	230	101300000	1000	0	0	-1	1000
22122555	53	408	0	-100	0	230	101300000	1000	0	0	-1	1000
22135115	53	406	0	-100	0	230	101300000	1000	0	0	-1	1000
22147675	53	405	0	-100	0	230	101300000	1000	0	0	-1	1000
22160235	53	408	0	-100	0	230	101300000	1000	0	0	-1	1000
22172795	53	409	0	-100	0	230	101300000	1000	0	0	-1	1000
22185355	46	410	0	-100	0	230	101300000	1000	0	0	-1	1000
22197915	46	413	0	-100	0	230	101300000	1000	0	0	-1	1000
22210475	46	416	0	-100	0	230	101300000	1000	0	0	-1	1000
22223035	46	416	0	-100	0	230	101300000	1000	0	0	-1	1000
22235595	46	416	0	-100	0	230	101300000	1000	0	0	-1	1000
22248155	41	411	0	-100	0	230	101300000	1000	0	0	-1	1000
22260715	48	408	0	-100	0	230	101300000	1000	0	0	-1	1000
22273275	50	409	0	-100	0	230	101300000	1000	0	0	-1	1000
22285835	53	409	0	-100	0	230	101300000	1000	0	0	-1	1000
22298395	53	407	0	-100	0	230	101300000	1000	0	0	-1	1000
22310955	53	408	0	-100	0	230	101300000	1000	0	0	-1	1000
22323515	46	412	0	-100	0	230	101300000	1000	0	0	-1	1000
22336075	46	415	0	-100	0	230	101300000	1000	0	0	-1	1000
22348635	48	416	0	-100	0	230	101300000	1000	0	0	-1	1000
22361195	46	410	0	-100	0	230	101300000	1000	0	0	-1	1000
22373755	46	412	0	-100	0	230	101300000	1000	0	0	-1	1000
22386315	48	409	0	-100	0	230	101300000	1000	0	0	-1	1000
22398875	50	406	0	-100	0	230	101300000	1000	0	0	-1	1000
22411435	50	405	0	-100	0	230	101300000	1000	0	0	-1	1000
22423995	48	415	0	-100	0	230	101300000	1000	0	0	-1	1000
22436555	46	415	0	-100	0	230	101300000	1000	0	0	-1	1000
22449115	48	408	0	-100	0	230	101300000	1000	0	0	-1	1000
22461675	50	405	0	-100	0	230	101300000	1000	0	0	-1	1000
22474235	46	412	0	-100	0	230	101300000	1000	0	0	-1	1000
22486795	48	411	0	-100	0	230	101300000	1000	0	0	-1	1000
22499355	53	408	0	-100	0	230	101300000	1000	0	0	-1	1000
22511915	53	409	0	-100	0	230	101300000	1000	0	0	-1	1000
22524475	43	412	0	-100	0	230	101300000	1000	0	0	-1	1000
22537035	46	413	0	-100	0	230	101300000	1000	0	0	-1	1000
22549595	48	408	0	-100	0	230	101300000	1000	0	0	-1	1000
22562155	48	406	0	-100	0	230	101300000	1000	0	0	-1	1000
22574715	53	405	0	-100	0	230	101300000	1000	0	0	-1	1000
22587275	48	409	0	-100	0	230	101300000	1000	0	0	-1	1000
22599835	48	413	0	-100	0	230	101300000	1000	0	0	-1	1000
22612395	46	417	0	-100	0	230	101300000	1000	0	0	-1	1000
22624955	46	412	0	-100	0	230	101300000	1000	0	0	-1	1000
22637515	53	407	0	-100	0	230	101300000	1000	0	0	-1	1000
22650075	53	408	0	-100	0	230	101300000	1000	0	0	-1	1000
22662635	46	413	0	-100	0	230	101300000	1000	0	0	-1	1000
22675195	46	416	0	-100	0	230	101300000	1000	0	0	-1	1000
22687755	46	412	0	-100	0	230	101300000	1000	0	0	-1	1000
22700315	46	407	0	-100	0	230	101300000	1000	0	0	-1	1000
22712875	50	408	0	-100	0	230	101300000	1000	0	0	-1	1000
22725435	55	409	0	-100	0	230	101300000	1000	0	0	-1	1000
22737995	43	410	0	-100	0	230	101300000	1000	0	0	-1	1000
22750555	48	415	0	-100	0	230	101300000	1000	0	0	-1	1000
22763115	48	412	0	-100	0	230	101300000	1000	0	0	-1	1000
22775675	48	407	0	-100	0	230	101300000	1000	0	0	-1	1000
22788235	50	409	0	-100	0	230	101300000	1000	0	0	-1	1000
22800795	53	409	0	-100	0	230	101300000	1000	0	0	-1	1000
22813355	50	407	0	-100	0	230	101300000	1000	0	0	-1	1000
22825915	46	411	0	-100	0	230	101300000	1000	0	0	-1	1000
22838475	46	413	0	-100	0	230	101300000	1000	0	0	-1	1000
22851035	48	415	0	-100	0	230	101300000	1000	0	0	-1	1000
22863595	46	412	0	-100	0	230	101300000	1000	0	0	-1	1000
22876155	43	406	0	-100	0	230	101300000	1000	0	0	-1	1000
22888715	50	405	0	-100	0	230	101300000	1000	0	0	-1	1000
22901275	53	408	0	-100	0	230	101300000	1000	0	0	-1	1000
22913835	53	409	0	-100	0	230	101300000	1000	0	0	-1	1000
22926395	43	412	0	-100	0	230	101300000	1000	0	0	-1	1000
22938955	48	417	0	-100	0	230	101300000	1000	0	0	-1	1000
22951515	48	411	0	-100	0	230	101300000	1000	0	0	-1	1000
22964075	46	409	0	-100	0	230	101300000	1000	0	0	-1	1000
22976635	53	408	0	-100	0	230	101300000	1000	0	0	-1	1000
22989195	53	406	0	-100	0	230	101300000	1000	0	0	-1	1000
23001755	53	408	0	-100	0	230	101300000	1000	0	0	-1	1000
23014315	46	411	0	-100	0	230	101300000	1000	0	0	-1	1000
23026875	46	414	0	-100	0	230	101300000	1000	0	0	-1	1000
23039435	48	415	0	-100	0	230	101300000	1000	0	0	-1	1000
23051995	46	405	0	-100	0	230	101300000	1000	0	0	-1	1000
23064555	48	407	0	-100	0	230	101300000	1000	0	0	-1	1000
23077115	50	409	0	-100	0	230	101300000	1000	0	0	-1	1000
23089675	53	408	0	-100	0	230	101300000	1000	0	0	-1	1000
23102235	53	408	0	-100	0	230	101300000	1000	0	0	-1	1000
23114795	48	412	0	-100	0	230	101300000	1000	0	0	-1	1000
23127355	43	413	0	-100	0	230	101300000	1000	0	0	-1	1000
23139915	48	413	0	-100	0	230	101300000	1000	0	0	-1	1000
23152475	48	407	0	-100	0	230	101300000	1000	0	0	-1	1000
23165035	53	408	0	-100	0	230	101300000	1000	0	0	-1	1000
23177595	46	414	0	-100	0	230	101300000	1000	0	0	-1	1000
23190155	48	406	0	-100	0	230	101300000	1000	0	0	-1	1000
23202715	48	411	0	-100	0	230	101300000	1000	0	0	-1	1000
23215275	46	412	0	-100	0	230	101300000	1000	0	0	-1	1000
23227835	53	408	0	-100	0	230	101300000	1000	0	0	-1	1000
23240395	50	409	0	-100	0	230	101300000	1000	0	0	-1	1000
23252955	43	414	0	-100	0	230	101300000	1000	0	0	-1	1000
23265515	43	411	0	-100	0	230	101300000	1000	0	0	-1	1000
23278075	50	408	0	-100	0	230	101300000	1000	0	0	-1	1000
23290635	53	409	0	-100	0	230	101300000	1000	0	0	-1	1000
23303195	46	414	0	-100	0	230	101300000	1000	0	0	-1	1000
23315755	46	412	0	-100	0	230	101300000	1000	0	0	-1	1000
23328315	50	408	0	-100	0	230	101300000	1000	0	0	-1	1000
23340875	48	409	0	-100	0	230	101300000	1000	0	0	-1	1000
23353435	46	415	0	-100	0	230	101300000	1000	0	0	-1	1000
23365995	48	408	0	-100	0	230	101300000	1000	0	0	-1	1000
23378555	53	405	0	-100	0	230	101300000	1000	0	0	-1	1000
23391115	50	409	0	-100	0	230	101300000	1000	0	0	-1	1000
23403675	46	412	0	-100	0	230	101300000	1000	0	0	-1	1000
23416235	46	412	0	-100	0	230	101300000	1000	0	0	-1	1000
23428795	50	407	0	-100	0	230	101300000	1000	0	0	-1	1000
23441355	48	412	0	-100	0	230	101300000	1000	0	0	-1	1000
23453915	48	410	0	-100	0	230	101300000	1000	0	0	-1	1000
23466475	50	408	0	-100	0	230	101300000	1000	0	0	-1	1000
23479035	48	407	0	-100	0	230	101300000	1000	0	0	-1	1000
23491595	46	415	0	-100	0	230	101300000	1000	0	0	-1	1000
23504155	48	406	0	-100	0	230	101300000	1000	0	0	-1	1000
23516715	53	409	0	-100	0	230	101300000	1000	0	0	-1	1000
23529275	46	413	0	-100	0	230	101300000	1000	0	0	-1	1000
23541835	46	410	0	-100	0	230	101300000	1000	0	0	-1	1000
23554395	50	408	0	-100	0	230	101300000	1000	0	0	-1	1000
23566955	53	408	0	-100	0	230	101300000	1000	0	0	-1	1000
23579515	46	411	0	-100	0	230	101300000	1000	0	0	-1	1000
23592075	46	413	0	-100	0	230	101300000	1000	0	0	-1	1000
23604635	46	413	0	-100	0	230	101300000	1000	0	0	-1	1000
23617195	46	413	0	-100	0	230	101300000	1000	0	0	-1	1000
23629755	46	413	0	-100	0	230	101300000	1000	0	0	-1	1000
23642315	46	409	0	-100	0	230	101300000	1000	0	0	-1	1000
23654875	53	409	0	-100	0	230	101300000	1000	0	0	-1	1000
23667435	53	405	0	-100	0	230	101300000	1000	0	0	-1	1000
23679995	50	411	0	-100	0	230	101300000	1000	0	0	-1	1000
23692555	48	408	0	-100	0	230	101300000	1000	0	0	-1	1000
23705115	48	408	0	-100	0	230	101300000	1000	0	0	-1	1000
23717675	46	412	0	-100	0	230	101300000	1000	0	0	-1	1000
23730235	46	411	0	-100	0	230	101300000	1000	0	0	-1	1000
23742795	48	412	0	-100	0	230	101300000	1000	0	0	-1	1000
23755355	43	414	0	-100	0	230	101300000	1000	0	0	-1	1000
23767915	46	411	0	-100	0	230	101300000	1000	0	0	-1	1000
23780475	50	407	0	-100	0	230	101300000	1000	0	0	-1	1000
23793035	53	408	0	-100	0	230	101300000	1000	0	0	-1	1000
23805595	50	407	0	-100	0	230	101300000	1000	0	0	-1	1000
23818155	48	404	0	-100	0	230	101300000	1000	0	0	-1	1000
23830715	53	407	0	-100	0	230	101300000	1000	0	0	-1	1000
23843275	53	408	0	-100	0	230	101300000	1000	0	0	-1	1000
23855835	50	408	0	-100	0	230	101300000	1000	0	0	-1	1000
23868395	50	407	0	-100	0	230	101300000	1000	0	0	-1	1000
23880955	48	408	0	-100	0	230	101300000	1000	0	0	-1	1000
23893515	46	412	0	-100	0	230	101300000	1000	0	0	-1	1000
23906075	46	411	0	-100	0	230	101300000	1000	0	0	-1	1000
23918635	46	412	0	-100	0	230	101300000	1000	0	0	-1	1000
23931195	48	412	0	-100	0	230	101300000	1000	0	0	-1	1000
23943755	43	414	0	-100	0	230	101300000	1000	0	0	-1	1000
23956315	46	413	0	-100	0	230	101300000	1000	0	0	-1	1000
23968875	48	412	0	-100	0	230	101300000	1000	0	0	-1	1000
23981435	46	409	0	-100	0	230	101300000	1000	0	0	-1	1000
23993995	50	416	0	-100	0	230	101300000	1000	0	0	-1	1000
24006555	53	408	0	-100	0	230	101300000	1000	0	0	-1	1000
24019115	50	404	0	-100	0	230	101300000	1000	0	0	-1	1000
24031675	50	406	0	-100	0	230	101300000	1000	0	0	-1	1000
24044235	48	407	0	-100	0	230	101300000	1000	0	0	-1	1000
24056795	48	412	0	-100	0	230	101300000	1000	0	0	-1	1000
24069355	46	413	0	-100	0	230	101300000	1000	0	0	-1	1000
24081915	48	408	0	-100	0	230	101300000	1000	0	0	-1	1000
24094475	53	407	0	-100	0	230	101300000	1000	0	0	-1	1000
24107035	50	408	0	-100	0	230	101300000	1000	0	0	-1	1000
24119595	46	409	0	-100	0	230	101300000	1000	0	0	-1	1000
24132155	46	412	0	-100	0	230	101300000	1000	0	0	-1	1000
24144715	43	415	0	-100	0	230	101300000	1000	0	0	-1	1000
24157275	46	412	0	-100	0	230	101300000	1000	0	0	-1	1000
24169835	53	406	0	-100	0	230	101300000	1000	0	0	-1	1000
24182395	53	408	0	-100	0	230	101300000	1000	0	0	-1	1000
24194955	50	407	0	-100	0	230	101300000	1000	0	0	-1	1000
24207515	48	407	0	-100	0	230	101300000	1000	0	0	-1	1000
24220075	46	411	0	-100	0	230	101300000	1000	0	0	-1	1000
24232635	46	415	0	-100	0	230	101300000	1000	0	0	-1	1000
24245195	43	411	0	-100	0	230	101300000	1000	0	0	-1	1000
24257755	48	409	0	-100	0	230	101300000	1000	0	0	-1	1000
24270315	53	409	0	-100	0	230	101300000	1000	0	0	-1	1000
24282875	53	405	0	-100	0	230	101300000	1000	0	0	-1	1000
24295435	53	407	0	-100	0	230	101300000	1000	0	0	-1	1000
24307995	50	408	0	-100	0	230	101300000	1000	0	0	-1	1000
24320555	48	408	0	-100	0	230	101300000	1000	0	0	-1	1000
24333115	48	410	0	-100	0	230	101300000	1000	0	0	-1	1000
24345675	43	412	0	-100	0	230	101300000	1000	0	0	-1	1000
24358235	48	412	0	-100	0	230	101300000	1000	0	0	-1	1000
24370795	46	413	0	-100	0	230	101300000	1000	0	0	-1	1000
24383355	48	408	0	-100	0	230	101300000	1000	0	0	-1	1000
24395915	53	405	0	-100	0	230	101300000	1000	0	0	-1	1000
24408475	50	408	0	-100	0	230	101300000	1000	0	0	-1	1000
24421035	43	412	0	-100	0	230	101300000	1000	0	0	-1	1000
24433595	46	414	0	-100	0	230	101300000	1000	0	0	-1	1000
24446155	43	408	0	-100	0	230	101300000	1000	0	0	-1	1000
24458715	50	406	0	-100	0	230	101300000	1000	0	0	-1	1000
24471275	50	408	0	-100	0	230	101300000	1000	0	0	-1	1000
24483835	46	409	0	-100	0	230	101300000	1000	0	0	-1	1000
24496395	46	414	0	-100	0	230	101300000	1000	0	0	-1	1000
24508955	46	411	0	-100	0	230	101300000	1000	0	0	-1	1000
24521515	53	407	0	-100	0	230	101300000	1000	0	0	-1	1000
24534075	50	406	0	-100	0	230	101300000	1000	0	0	-1	1000
24546635	46	412	0	-100	0	230	101300000	1000	0	0	-1	1000
24559195	43	414	0	-100	0	230	101300000	1000	0	0	-1	1000
24571755	46	413	0	-100	0	230	101300000	1000	0	0	-1	1000
24584315	53	409	0	-100	0	230	101300000	1000	0	0	-1	1000
24596875	53	407	0	-100	0	230	101300000	1000	0	0	-1	1000
24609435	50	406	0	-100	0	230	101300000	1000	0	0	-1	1000
24621995	48	406	0	-100	0	230	101300000	1000	0	0	-1	1000
24634555	48	412	0	-100	0	230	101300000	1000	0	0	-1	1000
24647115	48	414	0	-100	0	230	101300000	1000	0	0	-1	1000
24659675	46	416	0	-100	0	230	101300000	1000	0	0	-1	1000
24672235	43	414	0	-100	0	230	101300000	1000	0	0	-1	1000
24684795	43	411	0	-100	0	230	101300000	1000	0	0	-1	1000
24697355	48	407	0	-100	0	230	101300000	1000	0	0	-1	1000
24709915	53	404	0	-100	0	230	101300000	1000	0	0	-1	1000
24722475	53	407	0	-100	0	230	101300000	1000	0	0	-1	1000
24735035	50	408	0	-100	0	230	101300000	1000	0	0	-1	1000
24747595	48	407	0	-100	0	230	101300000	1000	0	0	-1	1000
24760155	43	409	0	-100	0	230	101300000	1000	0	0	-1	1000
24772715	48	411	0	-100	0	230	101300000	1000	0	0	-1	1000
24785275	43	413	0	-100	0	230	101300000	1000	0	0	-1	1000
24797835	43	411	0	-100	0	230	101300000	1000	0	0	-1	1000
24810395	48	407	0	-100	0	230	101300000	1000	0	0	-1	1000
24822955	53	409	0	-100	0	230	101300000	1000	0	0	-1	1000
24835515	53	408	0	-100	0	230	101300000	1000	0	0	-1	1000
24848075	53	405	0	-100	0	230	101300000	1000	0	0	-1	1000
24860635	53	407	0	-100	0	230	101300000	1000	0	0	-1	1000
24873195	50	408	0	-100	0	230	101300000	1000	0	0	-1	1000
24885755	46	408	0	-100	0	230	101300000	1000	0	0	-1	1000
24898315	46	412	0	-100	0	230	101300000	1000	0	0	-1	1000
24910875	46	411	0	-100	0	230	101300000	1000	0	0	-1	1000
24923435	46	416	0	-100	0	230	101300000	1000	0	0	-1	1000
24935995	46	408	0	-100	0	230	101300000	1000	0	0	-1	1000
24948555	46	414	0	-100	0	230	101300000	1000	0	0	-1	1000
24961115	46	415	0	-100	0	230	101300000	1000	0	0	-1	1000
24973675	46	411	0	-100	0	230	101300000	1000	0	0	-1	1000
24986235	46	411	0	-100	0	230	101300000	1000	0	0	-1	1000
24998795	48	408	0	-100	0	230	101300000	1000	0	0	-1	1000
25011355	50	407	0	-100	0	230	101300000	1000	0	0	-1	1000
25023915	50	407	0	-100	0	230	101300000	1000	0	0	-1	1000
25036475	50	408	0	-100	0	230	101300000	1000	0	0	-1	1000
25049035	53	405	0	-100	0	230	101300000	1000	0	0	-1	1000
25061595	50	407	0	-100	0	230	101300000	1000	0	0	-1	1000
25074155	43	409	0	-100	0	230	101300000	1000	0	0	-1	1000
25086715	48	412	0	-100	0	230	101300000	1000	0	0	-1	1000
25099275	46	412	0	-100	0	230	101300000	1000	0	0	-1	1000
25111835	46	411	0	-100	0	230	101300000	1000	0	0	-1	1000
25124395	43	413	0	-100	0	230	101300000	1000	0	0	-1	1000
25136955	46	409	0	-100	0	230	101300000	1000	0	0	-1	1000
25149515	53	409	0	-100	0	230	101300000	1000	0	0	-1	1000
25162075	50	406	0	-100	0	230	101300000	1000	0	0	-1	1000
25174635	50	408	0	-100	0	230	101300000	1000	0	0	-1	1000
25187195	48	408	0	-100	0	230	101300000	1000	0	0	-1	1000
25199755	48	407	0	-100	0	230	101300000	1000	0	0	-1	1000
25212315	48	408	0	-100	0	230	101300000	1000	0	0	-1	1000
25224875	50	406	0	-100	0	230	101300000	1000	0	0	-1	1000
25237435	50	406	0	-100	0	230	101300000	1000	0	0	-1	1000
25249995	53	413	0	-100	0	230	101300000	1000	0	0	-1	1000
25262555	53	406	0	-100	0	230	101300000	1000	0	0	-1	1000
25275115	53	407	0	-100	0	230	101300000	1000	0	0	-1	1000
25287675	53	408	0	-100	0	230	101300000	1000	0	0	-1	1000
25300235	46	409	0	-100	0	230	101300000	1000	0	0	-1	1000
25312795	46	409	0	-100	0	230	101300000	1000	0	0	-1	1000
25325355	46	412	0	-100	0	230	101300000	1000	0	0	-1	1000
25337915	48	417	0	-100	0	230	101300000	1000	0	0	-1	1000
25350475	46	411	0	-100	0	230	101300000	1000	0	0	-1	1000
25363035	48	407	0	-100	0	230	101300000	1000	0	0	-1	1000
25375595	53	407	0	-100	0	230	101300000	1000	0	0	-1	1000
25388155	48	405	0	-100	0	230	101300000	1000	0	0	-1	1000
25400715	53	405	0	-100	0	230	101300000	1000	0	0	-1	1000
25413275	53	408	0	-100	0	230	101300000	1000	0	0	-1	1000
25425835	53	408	0	-100	0	230	101300000	1000	0	0	-1	1000
25438395	48	409	0	-100	0	230	101300000	1000	0	0	-1	1000
25450955	46	414	0	-100	0	230	101300000	1000	0	0	-1	1000
25463515	46	416	0	-100	0	230	101300000	1000	0	0	-1	1000
25476075	46	411	0	-100	0	230	101300000	1000	0	0	-1	1000
25488635	50	407	0	-100	0	230	101300000	1000	0	0	-1	1000
25501195	50	408	0	-100	0	230	101300000	1000	0	0	-1	1000
25513755	48	407	0	-100	0	230	101300000	1000	0	0	-1	1000
25526315	55	407	0	-100	0	230	101300000	1000	0	0	-1	1000
25538875	46	411	0	-100	0	230	101300000	1000	0	0	-1	1000
25551435	46	415	0	-100	0	230	101300000	1000	0	0	-1	1000
25563995	46	407	0	-100	0	230	101300000	1000	0	0	-1	1000
25576555	53	408	0	-100	0	230	101300000	1000	0	0	-1	1000
25589115	48	409	0	-100	0	230	101300000	1000	0	0	-1	1000
25601675	46	413	0	-100	0	230	101300000	1000	0	0	-1	1000
25614235	46	414	0	-100	0	230	101300000	1000	0	0	-1	1000
25626795	46	415	0	-100	0	230	101300000	1000	0	0	-1	1000
25639355	43	410	0	-100	0	230	101300000	1000	0	0	-1	1000
25651915	48	410	0	-100	0	230	101300000	1000	0	0	-1	1000
25664475	50	406	0	-100	0	230	101300000	1000	0	0	-1	1000
25677035	50	408	0	-100	0	230	101300000	1000	0	0	-1	1000
25689595	53	406	0	-100	0	230	101300000	1000	0	0	-1	1000
25702155	48	406	0	-100	0	230	101300000	1000	0	0	-1	1000
25714715	46	409	0	-100	0	230	101300000	1000	0	0	-1	1000
25727275	48	408	0	-100	0	230	101300000	1000	0	0	-1	1000
25739835	48	407	0	-100	0	230	101300000	1000	0	0	-1	1000
25752395	48	409	0	-100	0	230	101300000	1000	0	0	-1	1000
25764955	46	412	0	-100	0	230	101300000	1000	0	0	-1	1000
25777515	46	413	0	-100	0	230	101300000	1000	0	0	-1	1000
25790075	46	415	0	-100	0	230	101300000	1000	0	0	-1	1000
25802635	46	414	0	-100	0	230	101300000	1000	0	0	-1	1000
25815195	48	415	0	-100	0	230	101300000	1000	0	0	-1	1000
25827755	46	410	0	-100	0	230	101300000	1000	0	0	-1	1000
25840315	46	409	0	-100	0	230	101300000	1000	0	0	-1	1000
25852875	43	412	0	-100	0	230	101300000	1000	0	0	-1	1000
25865435	43	411	0	-100	0	230	101300000	1000	0	0	-1	1000
25877995	46	408	0	-100	0	230	101300000	1000	0	0	-1	1000
25890555	48	412	0	-100	0	230	101300000	1000	0	0	-1	1000
25903115	48	414	0	-100	0	230	101300000	1000	0	0	-1	1000
25915675	46	415	0	-100	0	230	101300000	1000	0	0	-1	1000
25928235	46	416	0	-100	0	230	101300000	1000	0	0	-1	1000
25940795	46	414	0	-100	0	230	101300000	1000	0	0	-1	1000
25953355	46	413	0	-100	0	230	101300000	1000	0	0	-1	1000
25965915	43	414	0	-100	0	230	101300000	1000	0	0	-1	1000
25978475	46	412	0	-100	0	230	101300000	1000	0	0	-1	1000
25991035	46	411	0	-100	0	230	101300000	1000	0	0	-1	1000
26003595	50	409	0	-100	0	230	101300000	1000	0	0	-1	1000
26016155	48	407	0	-100	0	230	101300000	1000	0	0	-1	1000
26028715	53	407	0	-100	0	230	101300000	1000	0	0	-1	1000
26041275	50	405	0	-100	0	230	101300000	1000	0	0	-1	1000
26053835	50	407	0	-100	0	230	101300000	1000	0	0	-1	1000
26066395	53	409	0	-100	0	230	101300000	1000	0	0	-1	1000
26078955	46	409	0	-100	0	230	101300000	1000	0	0	-1	1000
26091515	46	412	0	-100	0	230	101300000	1000	0	0	-1	1000
26104075	46	415	0	-100	0	230	101300000	1000	0	0	-1	1000
26116635	46	415	0	-100	0	230	101300000	1000	0	0	-1	1000
26129195	46	412	0	-100	0	230	101300000	1000	0	0	-1	1000
26141755	46	412	0	-100	0	230	101300000	1000	0	0	-1	1000
26154315	48	408	0	-100	0	230	101300000	1000	0	0	-1	1000
26166875	53	406	0	-100	0	230	101300000	1000	0	0	-1	1000
26179435	50	407	0	-100	0	230	101300000	1000	0	0	-1	1000
26191995	55	413	0	-100	0	230	101300000	1000	0	0	-1	1000
26204555	53	408	0	-100	0	230	101300000	1000	0	0	-1	1000
26217115	48	408	0	-100	0	230	101300000	1000	0	0	-1	1000
26229675	46	411	0	-100	0	230	101300000	1000	0	0	-1	1000
26242235	46	415	0	-100	0	230	101300000	1000	0	0	-1	1000
26254795	48	407	0	-100	0	230	101300000	1000	0	0	-1	1000
26267355	50	407	0	-100	0	230	101300000	1000	0	0	-1	1000
26279915	53	404	0	-100	0	230	101300000	1000	0	0	-1	1000
26292475	48	411	0	-100	0	230	101300000	1000	0	0	-1	1000
26305035	48	413	0	-100	0	230	101300000	1000	0	0	-1	1000
26317595	50	406	0	-100	0	230	101300000	1000	0	0	-1	1000
26330155	46	408	0	-100	0	230	101300000	1000	0	0	-1	1000
26342715	43	414	0	-100	0	230	101300000	1000	0	0	-1	1000
26355275	46	411	0	-100	0	230	101300000	1000	0	0	-1	1000
26367835	50	407	0	-100	0	230	101300000	1000	0	0	-1	1000
26380395	53	404	0	-100	0	230	101300000	1000	0	0	-1	1000
26392955	46	409	0	-100	0	230	101300000	1000	0	0	-1	1000
26405515	43	413	0	-100	0	230	101300000	1000	0	0	-1	1000
26418075	46	411	0	-100	0	230	101300000	1000	0	0	-1	1000
26430635	48	407	0	-100	0	230	101300000	1000	0	0	-1	1000
26443195	53	406	0	-100	0	230	101300000	1000	0	0	-1	1000
26455755	53	407	0	-100	0	230	101300000	1000	0	0	-1	1000
26468315	46	408	0	-100	0	230	101300000	1000	0	0	-1	1000
26480875	43	414	0	-100	0	230	101300000	1000	0	0	-1	1000
26493435	46	417	0	-100	0	230	101300000	1000	0	0	-1	1000
26505995	46	406	0	-100	0	230	101300000	1000	0	0	-1	1000
26518555	50	408	0	-100	0	230	101300000	1000	0	0	-1	1000
26531115	48	410	0	-100	0	230	101300000	1000	0	0	-1	1000
26543675	46	416	0	-100	0	230	101300000	1000	0	0	-1	1000
26556235	46	412	0	-100	0	230	101300000	1000	0	0	-1	1000
26568795	48	408	0	-100	0	230	101300000	1000	0	0	-1	1000
26581355	50	406	0	-100	0	230	101300000	1000	0	0	-1	1000
26593915	50	404	0	-100	0	230	101300000	1000	0	0	-1	1000
26606475	48	408	0	-100	0	230	101300000	1000	0	0	-1	1000
26619035	43	413	0	-100	0	230	101300000	1000	0	0	-1	1000
26631595	48	410	0	-100	0	230	101300000	1000	0	0	-1	1000
26644155	48	406	0	-100	0	230	101300000	1000	0	0	-1	1000
26656715	53	407	0	-100	0	230	101300000	1000	0	0	-1	1000
26669275	50	408	0	-100	0	230	101300000	1000	0	0	-1	1000
26681835	46	415	0	-100	0	230	101300000	1000	0	0	-1	1000
26694395	48	411	0	-100	0	230	101300000	1000	0	0	-1	1000
26706955	53	407	0	-100	0	230	101300000	1000	0	0	-1	1000
26719515	46	412	0	-100	0	230	101300000	1000	0	0	-1	1000
26732075	46	410	0	-100	0	230	101300000	1000	0	0	-1	1000
26744635	53	405	0	-100	0	230	101300000	1000	0	0	-1	1000
26757195	46	412	0	-100	0	230	101300000	1000	0	0	-1	1000
26769755	48	417	0	-100	0	230	101300000	1000	0	0	-1	1000
26782315	46	408	0	-100	0	230	101300000	1000	0	0	-1	1000
26794875	50	408	0	-100	0	230	101300000	1000	0	0	-1	1000
26807435	53	408	0	-100	0	230	101300000	1000	0	0	-1	1000
26819995	43	412	0	-100	0	230	101300000	1000	0	0	-1	1000
26832555	48	412	0	-100	0	230	101300000	1000	0	0	-1	1000
26845115	50	408	0	-100	0	230	101300000	1000	0	0	-1	1000
26857675	50	405	0	-100	0	230	101300000	1000	0	0	-1	1000
26870235	43	413	0	-100	0	230	101300000	1000	0	0	-1	1000
26882795	48	412	0	-100	0	230	101300000	1000	0	0	-1	1000
26895355	50	408	0	-100	0	230	101300000	1000	0	0	-1	1000
26907915	53	408	0	-100	0	230	101300000	1000	0	0	-1	1000
26920475	46	414	0	-100	0	230	101300000	1000	0	0	-1	1000
26933035	48	411	0	-100	0	230	101300000	1000	0	0	-1	1000
26945595	50	406	0	-100	0	230	101300000	1000	0	0	-1	1000
26958155	50	407	0	-100	0	230	101300000	1000	0	0	-1	1000
26970715	43	412	0	-100	0	230	101300000	1000	0	0	-1	1000
26983275	46	412	0	-100	0	230	101300000	1000	0	0	-1	1000
26995835	50	406	0	-100	0	230	101300000	1000	0	0	-1	1000
27008395	48	408	0	-100	0	230	101300000	1000	0	0	-1	1000
27020955	48	415	0	-100	0	230	101300000	1000	0	0	-1	1000
27033515	46	410	0	-100	0	230	101300000	1000	0	0	-1	1000
27046075	53	405	0	-100	0	230	101300000	1000	0	0	-1	1000
