timestamp	voltage	current	windSpeed	pitchAngle	rpm	temperature	ambientPressure	humidity	accelerationX	accelerationY	accelerationZ	currentSink
7037070	2011	0	0	-100	0	230	101300000	1000	0	0	-1	0
7044523	2000	0	0	-100	0	230	101300000	1000	0	0	-1	0
7057083	2002	5	0	-100	0	230	101300000	1000	0	0	-1	0
7069643	1999	4	0	-100	0	230	101300000	1000	0	0	-1	0
7082203	2000	4	0	-100	0	230	101300000	1000	0	0	-1	0
7094763	1997	2	0	-100	0	230	101300000	1000	0	0	-1	0
7107323	2005	0	0	-100	0	230	101300000	1000	0	0	-1	0
7119883	2004	0	0	-100	0	230	101300000	1000	0	0	-1	0
7132443	2003	0	0	-100	0	230	101300000	1000	0	0	-1	0
7145004	2013	0	0	-100	0	230	101300000	1000	0	0	-1	0
7157563	1998	0	0	-100	0	230	101300000	1000	0	0	-1	0
7170123	2002	1	0	-100	0	230	101300000	1000	0	0	-1	0
7182683	2001	5	0	-100	0	230	101300000	1000	0	0	-1	0
7195243	2000	4	0	-100	0	230	101300000	1000	0	0	-1	0
7207803	2000	1	0	-100	0	230	101300000	1000	0	0	-1	0
7220363	2007	0	0	-100	0	230	101300000	1000	0	0	-1	0
7232923	2007	0	0	-100	0	230	101300000	1000	0	0	-1	0
7245483	2002	0	0	-100	0	230	101300000	1000	0	0	-1	0
7258043	1999	0	0	-100	0	230	101300000	1000	0	0	-1	0
7270603	2002	3	0	-100	0	230	101300000	1000	0	0	-1	0
7283163	2003	2	0	-100	0	230	101300000	1000	0	0	-1	0
7295723	1999	4	0	-100	0	230	101300000	1000	0	0	-1	0
7308283	1999	3	0	-100	0	230	101300000	1000	0	0	-1	0
7320843	2000	3	0	-100	0	230	101300000	1000	0	0	-1	0
7333403	2000	0	0	-100	0	230	101300000	1000	0	0	-1	0
7345963	2008	0	0	-100	0	230	101300000	1000	0	0	-1	0
7714235	58	508	0	-100	0	230	101300000	1000	0	0	-1	1000
7726795	55	512	0	-100	0	230	101300000	1000	0	0	-1	1000
7739355	58	514	0	-100	0	230	101300000	1000	0	0	-1	1000
7751915	58	514	0	-100	0	230	101300000	1000	0	0	-1	1000
7764475	58	509	0	-100	0	230	101300000	1000	0	0	-1	1000
7777035	67	510	0	-100	0	230	101300000	1000	0	0	-1	1000
7789595	63	508	0	-100	0	230	101300000	1000	0	0	-1	1000
7802155	60	515	0	-100	0	230	101300000	1000	0	0	-1	1000
7814715	55	515	0	-100	0	230	101300000	1000	0	0	-1	1000
7827275	58	510	0	-100	0	230	101300000	1000	0	0	-1	1000
7839835	60	508	0	-100	0	230	101300000	1000	0	0	-1	1000
7852395	60	507	0	-100	0	230	101300000	1000	0	0	-1	1000
7864955	58	511	0	-100	0	230	101300000	1000	0	0	-1	1000
7877515	58	517	0	-100	0	230	101300000	1000	0	0	-1	1000
7890075	58	511	0	-100	0	230	101300000	1000	0	0	-1	1000
7902635	63	507	0	-100	0	230	101300000	1000	0	0	-1	1000
7915195	63	508	0	-100	0	230	101300000	1000	0	0	-1	1000
7927755	55	510	0	-100	0	230	101300000	1000	0	0	-1	1000
7940315	55	512	0	-100	0	230	101300000	1000	0	0	-1	1000
7952875	60	516	0	-100	0	230	101300000	1000	0	0	-1	1000
7965435	58	516	0	-100	0	230	101300000	1000	0	0	-1	1000
7977995	55	512	0	-100	0	230	101300000	1000	0	0	-1	1000
7990555	55	513	0	-100	0	230	101300000	1000	0	0	-1	1000
8003115	55	511	0	-100	0	230	101300000	1000	0	0	-1	1000
8015675	58	509	0	-100	0	230	101300000	1000	0	0	-1	1000
8028235	65	509	0	-100	0	230	101300000	1000	0	0	-1	1000
8040795	62	506	0	-100	0	230	101300000	1000	0	0	-1	1000
8053355	65	509	0	-100	0	230	101300000	1000	0	0	-1	1000
8065915	62	509	0	-100	0	230	101300000	1000	0	0	-1	1000
8078475	55	509	0	-100	0	230	101300000	1000	0	0	-1	1000
8091035	55	513	0	-100	0	230	101300000	1000	0	0	-1	1000
8103595	55	516	0	-100	0	230	101300000	1000	0	0	-1	1000
8116155	60	517	0	-100	0	230	101300000	1000	0	0	-1	1000
8128715	63	509	0	-100	0	230	101300000	1000	0	0	-1	1000
8141275	62	506	0	-100	0	230	101300000	1000	0	0	-1	1000
8153835	63	506	0	-100	0	230	101300000	1000	0	0	-1	1000
8166395	62	507	0	-100	0	230	101300000	1000	0	0	-1	1000
8178955	65	508	0	-100	0	230	101300000	1000	0	0	-1	1000
8191515	63	508	0	-100	0	230	101300000	1000	0	0	-1	1000
8204075	63	508	0	-100	0	230	101300000	1000	0	0	-1	1000
8216635	62	508	0	-100	0	230	101300000	1000	0	0	-1	1000
8229195	62	511	0	-100	0	230	101300000	1000	0	0	-1	1000
8241755	60	509	0	-100	0	230	101300000	1000	0	0	-1	1000
8254315	55	509	0	-100	0	230	101300000	1000	0	0	-1	1000
8266875	55	510	0	-100	0	230	101300000	1000	0	0	-1	1000
8279435	58	514	0	-100	0	230	101300000	1000	0	0	-1	1000
8291995	58	508	0	-100	0	230	101300000	1000	0	0	-1	1000
8304555	55	514	0	-100	0	230	101300000	1000	0	0	-1	1000
8317115	58	513	0	-100	0	230	101300000	1000	0	0	-1	1000
8329675	65	510	0	-100	0	230	101300000	1000	0	0	-1	1000
8342235	63	508	0	-100	0	230	101300000	1000	0	0	-1	1000
8354795	63	509	0	-100	0	230	101300000	1000	0	0	-1	1000
8367355	58	511	0	-100	0	230	101300000	1000	0	0	-1	1000
8379915	55	512	0	-100	0	230	101300000	1000	0	0	-1	1000
8392475	55	518	0	-100	0	230	101300000	1000	0	0	-1	1000
8405035	55	514	0	-100	0	230	101300000	1000	0	0	-1	1000
8417595	60	509	0	-100	0	230	101300000	1000	0	0	-1	1000
8430155	70	511	0	-100	0	230	101300000	1000	0	0	-1	1000
8442715	60	507	0	-100	0	230	101300000	1000	0	0	-1	1000
8455275	58	508	0	-100	0	230	101300000	1000	0	0	-1	1000
8467835	60	515	0	-100	0	230	101300000	1000	0	0	-1	1000
8480395	55	515	0	-100	0	230	101300000	1000	0	0	-1	1000
8492955	55	512	0	-100	0	230	101300000	1000	0	0	-1	1000
8505515	60	513	0	-100	0	230	101300000	1000	0	0	-1	1000
8518075	58	511	0	-100	0	230	101300000	1000	0	0	-1	1000
8530635	63	509	0	-100	0	230	101300000	1000	0	0	-1	1000
8543195	63	505	0	-100	0	230	101300000	1000	0	0	-1	1000
8555755	62	509	0	-100	0	230	101300000	1000	0	0	-1	1000
8568315	58	510	0	-100	0	230	101300000	1000	0	0	-1	1000
8580875	58	515	0	-100	0	230	101300000	1000	0	0	-1	1000
8593435	58	515	0	-100	0	230	101300000	1000	0	0	-1	1000
8605995	58	512	0	-100	0	230	101300000	1000	0	0	-1	1000
8618555	60	509	0	-100	0	230	101300000	1000	0	0	-1	1000
8631115	63	506	0	-100	0	230	101300000	1000	0	0	-1	1000
8643675	60	508	0	-100	0	230	101300000	1000	0	0	-1	1000
8656235	58	511	0	-100	0	230	101300000	1000	0	0	-1	1000
8668795	58	515	0	-100	0	230	101300000	1000	0	0	-1	1000
8681355	55	513	0	-100	0	230	101300000	1000	0	0	-1	1000
8693915	58	509	0	-100	0	230	101300000	1000	0	0	-1	1000
8706475	63	505	0	-100	0	230	101300000	1000	0	0	-1	1000
8719035	60	509	0	-100	0	230	101300000	1000	0	0	-1	1000
8731595	58	509	0	-100	0	230	101300000	1000	0	0	-1	1000
8744155	63	516	0	-100	0	230	101300000	1000	0	0	-1	1000
8756715	58	517	0	-100	0	230	101300000	1000	0	0	-1	1000
8769275	53	515	0	-100	0	230	101300000	1000	0	0	-1	1000
8781835	62	511	0	-100	0	230	101300000	1000	0	0	-1	1000
8794395	63	508	0	-100	0	230	101300000	1000	0	0	-1	1000
8806955	55	512	0	-100	0	230	101300000	1000	0	0	-1	1000
8819515	53	515	0	-100	0	230	101300000	1000	0	0	-1	1000
8832075	60	510	0	-100	0	230	101300000	1000	0	0	-1	1000
8844635	60	507	0	-100	0	230	101300000	1000	0	0	-1	1000
8857195	55	513	0	-100	0	230	101300000	1000	0	0	-1	1000
8869755	55	515	0	-100	0	230	101300000	1000	0	0	-1	1000
8882315	58	512	0	-100	0	230	101300000	1000	0	0	-1	1000
8894875	63	509	0	-100	0	230	101300000	1000	0	0	-1	1000
8907435	60	508	0	-100	0	230	101300000	1000	0	0	-1	1000
8919995	55	507	0	-100	0	230	101300000	1000	0	0	-1	1000
8932555	58	512	0	-100	0	230	101300000	1000	0	0	-1	1000
8945115	53	515	0	-100	0	230	101300000	1000	0	0	-1	1000
8957675	60	509	0	-100	0	230	101300000	1000	0	0	-1	1000
8970235	63	506	0	-100	0	230	101300000	1000	0	0	-1	1000
8982795	60	508	0	-100	0	230	101300000	1000	0	0	-1	1000
8995355	55	512	0	-100	0	230	101300000	1000	0	0	-1	1000
9007915	58	517	0	-100	0	230	101300000	1000	0	0	-1	1000
9020475	58	517	0	-100	0	230	101300000	1000	0	0	-1	1000
9033035	58	512	0	-100	0	230	101300000	1000	0	0	-1	1000
9045595	63	508	0	-100	0	230	101300000	1000	0	0	-1	1000
9058155	65	509	0	-100	0	230	101300000	1000	0	0	-1	1000
9070715	55	513	0	-100	0	230	101300000	1000	0	0	-1	1000
9083275	55	515	0	-100	0	230	101300000	1000	0	0	-1	1000
9095835	55	512	0	-100	0	230	101300000	1000	0	0	-1	1000
9108395	60	509	0	-100	0	230	101300000	1000	0	0	-1	1000
9120955	60	509	0	-100	0	230	101300000	1000	0	0	-1	1000
9133515	55	512	0	-100	0	230	101300000	1000	0	0	-1	1000
9146075	53	514	0	-100	0	230	101300000	1000	0	0	-1	1000
9158635	55	515	0	-100	0	230	101300000	1000	0	0	-1	1000
9171195	55	513	0	-100	0	230	101300000	1000	0	0	-1	1000
9183755	58	514	0	-100	0	230	101300000	1000	0	0	-1	1000
9196315	55	512	0	-100	0	230	101300000	1000	0	0	-1	1000
9208875	58	511	0	-100	0	230	101300000	1000	0	0	-1	1000
9221435	55	512	0	-100	0	230	101300000	1000	0	0	-1	1000
9233995	55	513	0	-100	0	230	101300000	1000	0	0	-1	1000
9246555	55	512	0	-100	0	230	101300000	1000	0	0	-1	1000
9259115	53	515	0	-100	0	230	101300000	1000	0	0	-1	1000
9271675	55	516	0	-100	0	230	101300000	1000	0	0	-1	1000
9284235	55	516	0	-100	0	230	101300000	1000	0	0	-1	1000
9296795	55	516	0	-100	0	230	101300000	1000	0	0	-1	1000
9309355	55	516	0	-100	0	230	101300000	1000	0	0	-1	1000
9321915	58	516	0	-100	0	230	101300000	1000	0	0	-1	1000
9334475	60	514	0	-100	0	230	101300000	1000	0	0	-1	1000
9347035	55	513	0	-100	0	230	101300000	1000	0	0	-1	1000
9359595	55	513	0	-100	0	230	101300000	1000	0	0	-1	1000
9372155	63	519	0	-100	0	230	101300000	1000	0	0	-1	1000
9384715	55	514	0	-100	0	230	101300000	1000	0	0	-1	1000
9397275	60	510	0	-100	0	230	101300000	1000	0	0	-1	1000
9409835	63	506	0	-100	0	230	101300000	1000	0	0	-1	1000
9422395	63	509	0	-100	0	230	101300000	1000	0	0	-1	1000
9434955	60	508	0	-100	0	230	101300000	1000	0	0	-1	1000
9447515	60	509	0	-100	0	230	101300000	1000	0	0	-1	1000
9460075	58	510	0	-100	0	230	101300000	1000	0	0	-1	1000
9472635	55	513	0	-100	0	230	101300000	1000	0	0	-1	1000
9485195	58	513	0	-100	0	230	101300000	1000	0	0	-1	1000
9497755	55	513	0	-100	0	230	101300000	1000	0	0	-1	1000
9510315	58	513	0	-100	0	230	101300000	1000	0	0	-1	1000
9522875	58	517	0	-100	0	230	101300000	1000	0	0	-1	1000
9535435	60	515	0	-100	0	230	101300000	1000	0	0	-1	1000
9547995	55	509	0	-100	0	230	101300000	1000	0	0	-1	1000
9560555	55	517	0	-100	0	230	101300000	1000	0	0	-1	1000
9573115	53	512	0	-100	0	230	101300000	1000	0	0	-1	1000
9585675	58	508	0	-100	0	230	101300000	1000	0	0	-1	1000
9598235	63	505	0	-100	0	230	101300000	1000	0	0	-1	1000
9610795	60	508	0	-100	0	230	101300000	1000	0	0	-1	1000
9623355	55	509	0	-100	0	230	101300000	1000	0	0	-1	1000
9635915	55	511	0	-100	0	230	101300000	1000	0	0	-1	1000
9648475	55	512	0	-100	0	230	101300000	1000	0	0	-1	1000
9661035	55	516	0	-100	0	230	101300000	1000	0	0	-1	1000
9673595	53	515	0	-100	0	230	101300000	1000	0	0	-1	1000
9686155	60	515	0	-100	0	230	101300000	1000	0	0	-1	1000
9698715	60	508	0	-100	0	230	101300000	1000	0	0	-1	1000
9711275	62	506	0	-100	0	230	101300000	1000	0	0	-1	1000
9723835	60	509	0	-100	0	230	101300000	1000	0	0	-1	1000
9736395	60	509	0	-100	0	230	101300000	1000	0	0	-1	1000
9748955	58	512	0	-100	0	230	101300000	1000	0	0	-1	1000
9761515	58	512	0	-100	0	230	101300000	1000	0	0	-1	1000
9774075	55	513	0	-100	0	230	101300000	1000	0	0	-1	1000
9786635	58	517	0	-100	0	230	101300000	1000	0	0	-1	1000
9799195	58	516	0	-100	0	230	101300000	1000	0	0	-1	1000
9811755	55	515	0	-100	0	230	101300000	1000	0	0	-1	1000
9824315	55	511	0	-100	0	230	101300000	1000	0	0	-1	1000
9836875	63	509	0	-100	0	230	101300000	1000	0	0	-1	1000
9849435	62	507	0	-100	0	230	101300000	1000	0	0	-1	1000
9861995	63	512	0	-100	0	230	101300000	1000	0	0	-1	1000
9874555	63	509	0	-100	0	230	101300000	1000	0	0	-1	1000
9887115	58	510	0	-100	0	230	101300000	1000	0	0	-1	1000
9899675	58	511	0	-100	0	230	101300000	1000	0	0	-1	1000
9912235	58	512	0	-100	0	230	101300000	1000	0	0	-1	1000
9924795	55	516	0	-100	0	230	101300000	1000	0	0	-1	1000
9937355	55	513	0	-100	0	230	101300000	1000	0	0	-1	1000
9949915	60	509	0	-100	0	230	101300000	1000	0	0	-1	1000
9962475	65	506	0	-100	0	230	101300000	1000	0	0	-1	1000
9975035	58	508	0	-100	0	230	101300000	1000	0	0	-1	1000
9987595	55	513	0	-100	0	230	101300000	1000	0	0	-1	1000
10000155	58	515	0	-100	0	230	101300000	1000	0	0	-1	1000
10012715	63	510	0	-100	0	230	101300000	1000	0	0	-1	1000
10025275	62	509	0	-100	0	230	101300000	1000	0	0	-1	1000
10037835	60	508	0	-100	0	230	101300000	1000	0	0	-1	1000
10050395	58	514	0	-100	0	230	101300000	1000	0	0	-1	1000
10062955	55	516	0	-100	0	230	101300000	1000	0	0	-1	1000
10075515	60	512	0	-100	0	230	101300000	1000	0	0	-1	1000
10088075	60	510	0	-100	0	230	101300000	1000	0	0	-1	1000
10100635	55	512	0	-100	0	230	101300000	1000	0	0	-1	1000
10113195	58	516	0	-100	0	230	101300000	1000	0	0	-1	1000
10125755	58	512	0	-100	0	230	101300000	1000	0	0	-1	1000
10138315	62	507	0	-100	0	230	101300000	1000	0	0	-1	1000
10150875	60	509	0	-100	0	230	101300000	1000	0	0	-1	1000
10163435	58	512	0	-100	0	230	101300000	1000	0	0	-1	1000
10175995	55	514	0	-100	0	230	101300000	1000	0	0	-1	1000
10188555	62	507	0	-100	0	230	101300000	1000	0	0	-1	1000
10201115	60	508	0	-100	0	230	101300000	1000	0	0	-1	1000
10213675	58	513	0	-100	0	230	101300000	1000	0	0	-1	1000
10226235	55	516	0	-100	0	230	101300000	1000	0	0	-1	1000
10238795	58	509	0	-100	0	230	101300000	1000	0	0	-1	1000
10251355	63	507	0	-100	0	230	101300000	1000	0	0	-1	1000
10263915	60	508	0	-100	0	230	101300000	1000	0	0	-1	1000
10276475	58	513	0	-100	0	230	101300000	1000	0	0	-1	1000
10289035	55	514	0	-100	0	230	101300000	1000	0	0	-1	1000
10301595	60	508	0	-100	0	230	101300000	1000	0	0	-1	1000
10314155	65	509	0	-100	0	230	101300000	1000	0	0	-1	1000
10326715	58	512	0	-100	0	230	101300000	1000	0	0	-1	1000
10339275	55	515	0	-100	0	230	101300000	1000	0	0	-1	1000
10351835	63	509	0	-100	0	230	101300000	1000	0	0	-1	1000
10364395	63	508	0	-100	0	230	101300000	1000	0	0	-1	1000
10376955	58	510	0	-100	0	230	101300000	1000	0	0	-1	1000
10389515	55	516	0	-100	0	230	101300000	1000	0	0	-1	1000
10402075	58	513	0	-100	0	230	101300000	1000	0	0	-1	1000
10414635	63	509	0	-100	0	230	101300000	1000	0	0	-1	1000
10427195	63	509	0	-100	0	230	101300000	1000	0	0	-1	1000
10439755	58	511	0	-100	0	230	101300000	1000	0	0	-1	1000
10452315	55	515	0	-100	0	230	101300000	1000	0	0	-1	1000
10464875	55	514	0	-100	0	230	101300000	1000	0	0	-1	1000
10477435	63	506	0	-100	0	230	101300000	1000	0	0	-1	1000
10489995	60	508	0	-100	0	230	101300000	1000	0	0	-1	1000
10502555	60	516	0	-100	0	230	101300000	1000	0	0	-1	1000
10515115	55	514	0	-100	0	230	101300000	1000	0	0	-1	1000
10527675	60	510	0	-100	0	230	101300000	1000	0	0	-1	1000
10540235	63	509	0	-100	0	230	101300000	1000	0	0	-1	1000
10552795	63	508	0	-100	0	230	101300000	1000	0	0	-1	1000
10565355	60	509	0	-100	0	230	101300000	1000	0	0	-1	1000
10577915	55	512	0	-100	0	230	101300000	1000	0	0	-1	1000
10590475	58	514	0	-100	0	230	101300000	1000	0	0	-1	1000
10603035	55	516	0	-100	0	230	101300000	1000	0	0	-1	1000
10615595	58	510	0	-100	0	230	101300000	1000	0	0	-1	1000
10628155	70	512	0	-100	0	230	101300000	1000	0	0	-1	1000
10640715	62	509	0	-100	0	230	101300000	1000	0	0	-1	1000
10653275	62	509	0	-100	0	230	101300000	1000	0	0	-1	1000
10665835	58	513	0	-100	0	230	101300000	1000	0	0	-1	1000
10678395	55	517	0	-100	0	230	101300000	1000	0	0	-1	1000
10690955	62	509	0	-100	0	230	101300000	1000	0	0	-1	1000
10703515	60	508	0	-100	0	230	101300000	1000	0	0	-1	1000
10716075	58	518	0	-100	0	230	101300000	1000	0	0	-1	1000
10728635	55	513	0	-100	0	230	101300000	1000	0	0	-1	1000
10741195	62	507	0	-100	0	230	101300000	1000	0	0	-1	1000
10753755	60	509	0	-100	0	230	101300000	1000	0	0	-1	1000
10766315	58	513	0	-100	0	230	101300000	1000	0	0	-1	1000
10778875	60	509	0	-100	0	230	101300000	1000	0	0	-1	1000
10791435	60	509	0	-100	0	230	101300000	1000	0	0	-1	1000
10803995	55	510	0	-100	0	230	101300000	1000	0	0	-1	1000
10816555	60	509	0	-100	0	230	101300000	1000	0	0	-1	1000
10829115	60	513	0	-100	0	230	101300000	1000	0	0	-1	1000
10841675	55	513	0	-100	0	230	101300000	1000	0	0	-1	1000
10854235	62	509	0	-100	0	230	101300000	1000	0	0	-1	1000
10866795	58	516	0	-100	0	230	101300000	1000	0	0	-1	1000
10879355	58	509	0	-100	0	230	101300000	1000	0	0	-1	1000
10891915	58	509	0	-100	0	230	101300000	1000	0	0	-1	1000
10904475	53	514	0	-100	0	230	101300000	1000	0	0	-1	1000
10917035	65	509	0	-100	0	230	101300000	1000	0	0	-1	1000
10929595	58	515	0	-100	0	230	101300000	1000	0	0	-1	1000
10942155	65	514	0	-100	0	230	101300000	1000	0	0	-1	1000
10954715	62	510	0	-100	0	230	101300000	1000	0	0	-1	1000
10967275	55	513	0	-100	0	230	101300000	1000	0	0	-1	1000
10979835	55	512	0	-100	0	230	101300000	1000	0	0	-1	1000
10992395	63	510	0	-100	0	230	101300000	1000	0	0	-1	1000
11004955	55	512	0	-100	0	230	101300000	1000	0	0	-1	1000
11017515	55	514	0	-100	0	230	101300000	1000	0	0	-1	1000
11030075	60	508	0	-100	0	230	101300000	1000	0	0	-1	1000
11042635	60	508	0	-100	0	230	101300000	1000	0	0	-1	1000
11055195	58	514	0	-100	0	230	101300000	1000	0	0	-1	1000
11067755	58	515	0	-100	0	230	101300000	1000	0	0	-1	1000
11080315	65	510	0	-100	0	230	101300000	1000	0	0	-1	1000
11092875	60	508	0	-100	0	230	101300000	1000	0	0	-1	1000
11105435	55	517	0	-100	0	230	101300000	1000	0	0	-1	1000
11117995	55	512	0	-100	0	230	101300000	1000	0	0	-1	1000
11130555	63	510	0	-100	0	230	101300000	1000	0	0	-1	1000
11143115	62	510	0	-100	0	230	101300000	1000	0	0	-1	1000
11155675	60	508	0	-100	0	230	101300000	1000	0	0	-1	1000
11168235	55	509	0	-100	0	230	101300000	1000	0	0	-1	1000
11180795	58	512	0	-100	0	230	101300000	1000	0	0	-1	1000
11193355	58	513	0	-100	0	230	101300000	1000	0	0	-1	1000
11205915	60	514	0	-100	0	230	101300000	1000	0	0	-1	1000
11218475	58	514	0	-100	0	230	101300000	1000	0	0	-1	1000
11231035	58	513	0	-100	0	230	101300000	1000	0	0	-1	1000
11243595	60	517	0	-100	0	230	101300000	1000	0	0	-1	1000
11256155	63	520	0	-100	0	230	101300000	1000	0	0	-1	1000
11268715	60	515	0	-100	0	230	101300000	1000	0	0	-1	1000
11281275	58	513	0	-100	0	230	101300000	1000	0	0	-1	1000
11293835	58	513	0	-100	0	230	101300000	1000	0	0	-1	1000
11306395	58	513	0	-100	0	230	101300000	1000	0	0	-1	1000
11318955	55	513	0	-100	0	230	101300000	1000	0	0	-1	1000
11331515	58	509	0	-100	0	230	101300000	1000	0	0	-1	1000
11344075	58	508	0	-100	0	230	101300000	1000	0	0	-1	1000
11356635	60	510	0	-100	0	230	101300000	1000	0	0	-1	1000
11369195	58	508	0	-100	0	230	101300000	1000	0	0	-1	1000
11381755	62	508	0	-100	0	230	101300000	1000	0	0	-1	1000
11394315	63	508	0	-100	0	230	101300000	1000	0	0	-1	1000
11406875	62	506	0	-100	0	230	101300000	1000	0	0	-1	1000
11419435	60	509	0	-100	0	230	101300000	1000	0	0	-1	1000
11431995	53	512	0	-100	0	230	101300000	1000	0	0	-1	1000
11444555	55	516	0	-100	0	230	101300000	1000	0	0	-1	1000
11457115	58	517	0	-100	0	230	101300000	1000	0	0	-1	1000
11469675	60	514	0	-100	0	230	101300000	1000	0	0	-1	1000
11482235	55	514	0	-100	0	230	101300000	1000	0	0	-1	1000
11494795	58	509	0	-100	0	230	101300000	1000	0	0	-1	1000
11507355	63	508	0	-100	0	230	101300000	1000	0	0	-1	1000
11519915	60	508	0	-100	0	230	101300000	1000	0	0	-1	1000
11532475	65	508	0	-100	0	230	101300000	1000	0	0	-1	1000
11545035	65	509	0	-100	0	230	101300000	1000	0	0	-1	1000
11557595	63	506	0	-100	0	230	101300000	1000	0	0	-1	1000
11570155	67	510	0	-100	0	230	101300000	1000	0	0	-1	1000
11582715	63	509	0	-100	0	230	101300000	1000	0	0	-1	1000
11595275	55	511	0	-100	0	230	101300000	1000	0	0	-1	1000
11607835	55	514	0	-100	0	230	101300000	1000	0	0	-1	1000
11620395	55	515	0	-100	0	230	101300000	1000	0	0	-1	1000
11632955	58	516	0	-100	0	230	101300000	1000	0	0	-1	1000
11645515	55	512	0	-100	0	230	101300000	1000	0	0	-1	1000
11658075	55	510	0	-100	0	230	101300000	1000	0	0	-1	1000
11670635	58	509	0	-100	0	230	101300000	1000	0	0	-1	1000
11683195	60	509	0	-100	0	230	101300000	1000	0	0	-1	1000
11695755	62	508	0	-100	0	230	101300000	1000	0	0	-1	1000
11708315	62	507	0	-100	0	230	101300000	1000	0	0	-1	1000
11720875	62	507	0	-100	0	230	101300000	1000	0	0	-1	1000
11733435	63	510	0	-100	0	230	101300000	1000	0	0	-1	1000
11745995	58	517	0	-100	0	230	101300000	1000	0	0	-1	1000
11758555	60	508	0	-100	0	230	101300000	1000	0	0	-1	1000
11771115	58	510	0	-100	0	230	101300000	1000	0	0	-1	1000
11783675	55	513	0	-100	0	230	101300000	1000	0	0	-1	1000
11796235	55	513	0	-100	0	230	101300000	1000	0	0	-1	1000
11808795	55	513	0	-100	0	230	101300000	1000	0	0	-1	1000
11821355	53	513	0	-100	0	230	101300000	1000	0	0	-1	1000
11833915	53	515	0	-100	0	230	101300000	1000	0	0	-1	1000
11846475	55	515	0	-100	0	230	101300000	1000	0	0	-1	1000
11859035	55	515	0	-100	0	230	101300000	1000	0	0	-1	1000
11871595	55	515	0	-100	0	230	101300000	1000	0	0	-1	1000
11884155	60	517	0	-100	0	230	101300000	1000	0	0	-1	1000
11896715	55	515	0	-100	0	230	101300000	1000	0	0	-1	1000
11909275	55	516	0	-100	0	230	101300000	1000	0	0	-1	1000
11921835	55	516	0	-100	0	230	101300000	1000	0	0	-1	1000
11934395	60	516	0	-100	0	230	101300000	1000	0	0	-1	1000
11946955	55	516	0	-100	0	230	101300000	1000	0	0	-1	1000
11959515	55	517	0	-100	0	230	101300000	1000	0	0	-1	1000
11972075	53	517	0	-100	0	230	101300000	1000	0	0	-1	1000
11984635	55	514	0	-100	0	230	101300000	1000	0	0	-1	1000
11997195	55	515	0	-100	0	230	101300000	1000	0	0	-1	1000
12009755	55	516	0	-100	0	230	101300000	1000	0	0	-1	1000
12022315	55	515	0	-100	0	230	101300000	1000	0	0	-1	1000
12034875	60	515	0	-100	0	230	101300000	1000	0	0	-1	1000
12047435	55	513	0	-100	0	230	101300000	1000	0	0	-1	1000
12059995	55	508	0	-100	0	230	101300000	1000	0	0	-1	1000
12072555	55	510	0	-100	0	230	101300000	1000	0	0	-1	1000
12085115	58	508	0	-100	0	230	101300000	1000	0	0	-1	1000
12097675	63	509	0	-100	0	230	101300000	1000	0	0	-1	1000
12110235	60	509	0	-100	0	230	101300000	1000	0	0	-1	1000
12122795	62	508	0	-100	0	230	101300000	1000	0	0	-1	1000
12135355	58	509	0	-100	0	230	101300000	1000	0	0	-1	1000
12147915	58	508	0	-100	0	230	101300000	1000	0	0	-1	1000
12160475	58	509	0	-100	0	230	101300000	1000	0	0	-1	1000
12173035	60	509	0	-100	0	230	101300000	1000	0	0	-1	1000
12185595	60	509	0	-100	0	230	101300000	1000	0	0	-1	1000
12198155	60	513	0	-100	0	230	101300000	1000	0	0	-1	1000
12210715	55	514	0	-100	0	230	101300000	1000	0	0	-1	1000
12223275	58	512	0	-100	0	230	101300000	1000	0	0	-1	1000
12235835	58	513	0	-100	0	230	101300000	1000	0	0	-1	1000
12248395	55	512	0	-100	0	230	101300000	1000	0	0	-1	1000
12260955	60	516	0	-100	0	230	101300000	1000	0	0	-1	1000
12273515	58	517	0	-100	0	230	101300000	1000	0	0	-1	1000
12286075	58	512	0	-100	0	230	101300000	1000	0	0	-1	1000
12298635	58	514	0	-100	0	230	101300000	1000	0	0	-1	1000
12311195	60	514	0	-100	0	230	101300000	1000	0	0	-1	1000
12323755	58	517	0	-100	0	230	101300000	1000	0	0	-1	1000
12336315	55	515	0	-100	0	230	101300000	1000	0	0	-1	1000
12348875	58	514	0	-100	0	230	101300000	1000	0	0	-1	1000
12361435	65	509	0	-100	0	230	101300000	1000	0	0	-1	1000
12373995	63	513	0	-100	0	230	101300000	1000	0	0	-1	1000
12386555	60	508	0	-100	0	230	101300000	1000	0	0	-1	1000
12399115	60	509	0	-100	0	230	101300000	1000	0	0	-1	1000
12411675	55	512	0	-100	0	230	101300000	1000	0	0	-1	1000
12424235	55	513	0	-100	0	230	101300000	1000	0	0	-1	1000
12436795	55	516	0	-100	0	230	101300000	1000	0	0	-1	1000
12449355	55	516	0	-100	0	230	101300000	1000	0	0	-1	1000
12461915	55	513	0	-100	0	230	101300000	1000	0	0	-1	1000
12474475	58	509	0	-100	0	230	101300000	1000	0	0	-1	1000
12487035	65	511	0	-100	0	230	101300000	1000	0	0	-1	1000
12499595	63	506	0	-100	0	230	101300000	1000	0	0	-1	1000
12512155	70	506	0	-100	0	230	101300000	1000	0	0	-1	1000
12524715	60	511	0	-100	0	230	101300000	1000	0	0	-1	1000
12537275	60	509	0	-100	0	230	101300000	1000	0	0	-1	1000
12549835	55	513	0	-100	0	230	101300000	1000	0	0	-1	1000
12562395	55	517	0	-100	0	230	101300000	1000	0	0	-1	1000
12574955	55	514	0	-100	0	230	101300000	1000	0	0	-1	1000
12587515	63	509	0	-100	0	230	101300000	1000	0	0	-1	1000
12600075	63	509	0	-100	0	230	101300000	1000	0	0	-1	1000
12612635	58	509	0	-100	0	230	101300000	1000	0	0	-1	1000
12625195	55	513	0	-100	0	230	101300000	1000	0	0	-1	1000
12637755	55	516	0	-100	0	230	101300000	1000	0	0	-1	1000
12650315	53	513	0	-100	0	230	101300000	1000	0	0	-1	1000
12662875	63	509	0	-100	0	230	101300000	1000	0	0	-1	1000
12675435	60	509	0	-100	0	230	101300000	1000	0	0	-1	1000
12687995	58	505	0	-100	0	230	101300000	1000	0	0	-1	1000
12700555	58	515	0	-100	0	230	101300000	1000	0	0	-1	1000
12713115	58	517	0	-100	0	230	101300000	1000	0	0	-1	1000
12725675	55	514	0	-100	0	230	101300000	1000	0	0	-1	1000
12738235	58	509	0	-100	0	230	101300000	1000	0	0	-1	1000
12750795	63	509	0	-100	0	230	101300000	1000	0	0	-1	1000
12763355	60	509	0	-100	0	230	101300000	1000	0	0	-1	1000
12775915	58	514	0	-100	0	230	101300000	1000	0	0	-1	1000
12788475	55	517	0	-100	0	230	101300000	1000	0	0	-1	1000
12801035	55	515	0	-100	0	230	101300000	1000	0	0	-1	1000
12813595	55	512	0	-100	0	230	101300000	1000	0	0	-1	1000
12826155	67	511	0	-100	0	230	101300000	1000	0	0	-1	1000
12838715	62	511	0	-100	0	230	101300000	1000	0	0	-1	1000
12851275	55	510	0	-100	0	230	101300000	1000	0	0	-1	1000
12863835	58	516	0	-100	0	230	101300000	1000	0	0	-1	1000
12876395	55	516	0	-100	0	230	101300000	1000	0	0	-1	1000
12888955	55	515	0	-100	0	230	101300000	1000	0	0	-1	1000
12901515	58	512	0	-100	0	230	101300000	1000	0	0	-1	1000
12914075	63	509	0	-100	0	230	101300000	1000	0	0	-1	1000
12926635	62	508	0	-100	0	230	101300000	1000	0	0	-1	1000
12939195	55	509	0	-100	0	230	101300000	1000	0	0	-1	1000
12951755	60	515	0	-100	0	230	101300000	1000	0	0	-1	1000
12964315	55	516	0	-100	0	230	101300000	1000	0	0	-1	1000
12976875	55	515	0	-100	0	230	101300000	1000	0	0	-1	1000
12989435	63	508	0	-100	0	230	101300000	1000	0	0	-1	1000
13001995	62	508	0	-100	0	230	101300000	1000	0	0	-1	1000
13014555	55	512	0	-100	0	230	101300000	1000	0	0	-1	1000
13027115	55	513	0	-100	0	230	101300000	1000	0	0	-1	1000
13039675	60	509	0	-100	0	230	101300000	1000	0	0	-1	1000
13052235	62	509	0	-100	0	230	101300000	1000	0	0	-1	1000
13064795	58	510	0	-100	0	230	101300000	1000	0	0	-1	1000
13077355	58	513	0	-100	0	230	101300000	1000	0	0	-1	1000
13089915	55	516	0	-100	0	230	101300000	1000	0	0	-1	1000
13102475	60	510	0	-100	0	230	101300000	1000	0	0	-1	1000
13115035	62	510	0	-100	0	230	101300000	1000	0	0	-1	1000
13127595	55	509	0	-100	0	230	101300000	1000	0	0	-1	1000
13140155	60	518	0	-100	0	230	101300000	1000	0	0	-1	1000
13152715	55	513	0	-100	0	230	101300000	1000	0	0	-1	1000
13165275	62	508	0	-100	0	230	101300000	1000	0	0	-1	1000
13177835	62	508	0	-100	0	230	101300000	1000	0	0	-1	1000
13190395	58	511	0	-100	0	230	101300000	1000	0	0	-1	1000
13202955	58	512	0	-100	0	230	101300000	1000	0	0	-1	1000
13215515	55	516	0	-100	0	230	101300000	1000	0	0	-1	1000
13228075	58	512	0	-100	0	230	101300000	1000	0	0	-1	1000
13240635	63	508	0	-100	0	230	101300000	1000	0	0	-1	1000
13253195	58	508	0	-100	0	230	101300000	1000	0	0	-1	1000
13265755	58	514	0	-100	0	230	101300000	1000	0	0	-1	1000
13278315	55	514	0	-100	0	230	101300000	1000	0	0	-1	1000
13290875	60	509	0	-100	0	230	101300000	1000	0	0	-1	1000
13303435	62	507	0	-100	0	230	101300000	1000	0	0	-1	1000
13315995	60	512	0	-100	0	230	101300000	1000	0	0	-1	1000
13328555	55	510	0	-100	0	230	101300000	1000	0	0	-1	1000
13341115	55	515	0	-100	0	230	101300000	1000	0	0	-1	1000
13353675	60	509	0	-100	0	230	101300000	1000	0	0	-1	1000
13366235	60	508	0	-100	0	230	101300000	1000	0	0	-1	1000
13378795	58	514	0	-100	0	230	101300000	1000	0	0	-1	1000
13391355	55	513	0	-100	0	230	101300000	1000	0	0	-1	1000
13403915	63	508	0	-100	0	230	101300000	1000	0	0	-1	1000
13416475	60	508	0	-100	0	230	101300000	1000	0	0	-1	1000
13429035	60	513	0	-100	0	230	101300000	1000	0	0	-1	1000
13441595	55	512	0	-100	0	230	101300000	1000	0	0	-1	1000
13454155	67	510	0	-100	0	230	101300000	1000	0	0	-1	1000
13466715	55	511	0	-100	0	230	101300000	1000	0	0	-1	1000
13479275	55	516	0	-100	0	230	101300000	1000	0	0	-1	1000
13491835	60	509	0	-100	0	230	101300000	1000	0	0	-1	1000
13504395	60	507	0	-100	0	230	101300000	1000	0	0	-1	1000
13516955	58	516	0	-100	0	230	101300000	1000	0	0	-1	1000
13529515	58	510	0	-100	0	230	101300000	1000	0	0	-1	1000
13542075	63	508	0	-100	0	230	101300000	1000	0	0	-1	1000
13554635	58	513	0	-100	0	230	101300000	1000	0	0	-1	1000
13567195	55	512	0	-100	0	230	101300000	1000	0	0	-1	1000
13579755	63	509	0	-100	0	230	101300000	1000	0	0	-1	1000
13592315	55	512	0	-100	0	230	101300000	1000	0	0	-1	1000
13604875	55	512	0	-100	0	230	101300000	1000	0	0	-1	1000
13617435	60	507	0	-100	0	230	101300000	1000	0	0	-1	1000
13629995	55	509	0	-100	0	230	101300000	1000	0	0	-1	1000
13642555	58	510	0	-100	0	230	101300000	1000	0	0	-1	1000
13655115	62	509	0	-100	0	230	101300000	1000	0	0	-1	1000
13667675	55	512	0	-100	0	230	101300000	1000	0	0	-1	1000
13680235	58	509	0	-100	0	230	101300000	1000	0	0	-1	1000
13692795	55	509	0	-100	0	230	101300000	1000	0	0	-1	1000
13705355	55	512	0	-100	0	230	101300000	1000	0	0	-1	1000
13717915	63	509	0	-100	0	230	101300000	1000	0	0	-1	1000
13730475	58	516	0	-100	0	230	101300000	1000	0	0	-1	1000
13743035	60	509	0	-100	0	230	101300000	1000	0	0	-1	1000
13755595	62	509	0	-100	0	230	101300000	1000	0	0	-1	1000
13768155	60	514	0	-100	0	230	101300000	1000	0	0	-1	1000
13780715	55	512	0	-100	0	230	101300000	1000	0	0	-1	1000
13793275	63	510	0	-100	0	230	101300000	1000	0	0	-1	1000
13805835	55	508	0	-100	0	230	101300000	1000	0	0	-1	1000
13818395	55	517	0	-100	0	230	101300000	1000	0	0	-1	1000
13830955	55	512	0	-100	0	230	101300000	1000	0	0	-1	1000
13843515	63	508	0	-100	0	230	101300000	1000	0	0	-1	1000
13856075	55	513	0	-100	0	230	101300000	1000	0	0	-1	1000
13868635	55	516	0	-100	0	230	101300000	1000	0	0	-1	1000
13881195	63	509	0	-100	0	230	101300000	1000	0	0	-1	1000
13893755	62	509	0	-100	0	230	101300000	1000	0	0	-1	1000
13906315	60	514	0	-100	0	230	101300000	1000	0	0	-1	1000
13918875	55	513	0	-100	0	230	101300000	1000	0	0	-1	1000
13931435	63	507	0	-100	0	230	101300000	1000	0	0	-1	1000
13943995	55	508	0	-100	0	230	101300000	1000	0	0	-1	1000
13956555	55	515	0	-100	0	230	101300000	1000	0	0	-1	1000
13969115	58	513	0	-100	0	230	101300000	1000	0	0	-1	1000
13981675	62	505	0	-100	0	230	101300000	1000	0	0	-1	1000
13994235	60	509	0	-100	0	230	101300000	1000	0	0	-1	1000
14006795	55	512	0	-100	0	230	101300000	1000	0	0	-1	1000
14019355	53	514	0	-100	0	230	101300000	1000	0	0	-1	1000
14031915	60	507	0	-100	0	230	101300000	1000	0	0	-1	1000
14044475	58	509	0	-100	0	230	101300000	1000	0	0	-1	1000
14057035	55	515	0	-100	0	230	101300000	1000	0	0	-1	1000
14069595	63	510	0	-100	0	230	101300000	1000	0	0	-1	1000
14082155	67	510	0	-100	0	230	101300000	1000	0	0	-1	1000
14094715	55	513	0	-100	0	230	101300000	1000	0	0	-1	1000
14107275	58	514	0	-100	0	230	101300000	1000	0	0	-1	1000
14119835	55	515	0	-100	0	230	101300000	1000	0	0	-1	1000
14132395	58	509	0	-100	0	230	101300000	1000	0	0	-1	1000
14144955	65	509	0	-100	0	230	101300000	1000	0	0	-1	1000
14157515	58	508	0	-100	0	230	101300000	1000	0	0	-1	1000
14170075	55	512	0	-100	0	230	101300000	1000	0	0	-1	1000
14182635	55	514	0	-100	0	230	101300000	1000	0	0	-1	1000
14195195	58	516	0	-100	0	230	101300000	1000	0	0	-1	1000
14207755	60	509	0	-100	0	230	101300000	1000	0	0	-1	1000
14220315	60	507	0	-100	0	230	101300000	1000	0	0	-1	1000
14232875	55	513	0	-100	0	230	101300000	1000	0	0	-1	1000
14245435	55	515	0	-100	0	230	101300000	1000	0	0	-1	1000
14257995	65	514	0	-100	0	230	101300000	1000	0	0	-1	1000
14270555	60	509	0	-100	0	230	101300000	1000	0	0	-1	1000
14283115	55	517	0	-100	0	230	101300000	1000	0	0	-1	1000
14295675	63	511	0	-100	0	230	101300000	1000	0	0	-1	1000
14308235	60	509	0	-100	0	230	101300000	1000	0	0	-1	1000
14320795	55	513	0	-100	0	230	101300000	1000	0	0	-1	1000
14333355	55	515	0	-100	0	230	101300000	1000	0	0	-1	1000
14345915	65	507	0	-100	0	230	101300000	1000	0	0	-1	1000
14358475	58	512	0	-100	0	230	101300000	1000	0	0	-1	1000
14371035	58	509	0	-100	0	230	101300000	1000	0	0	-1	1000
14383595	58	509	0	-100	0	230	101300000	1000	0	0	-1	1000
14396155	60	517	0	-100	0	230	101300000	1000	0	0	-1	1000
14408715	60	509	0	-100	0	230	101300000	1000	0	0	-1	1000
14421275	63	508	0	-100	0	230	101300000	1000	0	0	-1	1000
14433835	58	515	0	-100	0	230	101300000	1000	0	0	-1	1000
14446395	53	514	0	-100	0	230	101300000	1000	0	0	-1	1000
14458955	62	508	0	-100	0	230	101300000	1000	0	0	-1	1000
14471515	60	508	0	-100	0	230	101300000	1000	0	0	-1	1000
14484075	58	513	0	-100	0	230	101300000	1000	0	0	-1	1000
14496635	58	515	0	-100	0	230	101300000	1000	0	0	-1	1000
14509195	60	507	0	-100	0	230	101300000	1000	0	0	-1	1000
14521755	55	510	0	-100	0	230	101300000	1000	0	0	-1	1000
14534315	55	516	0	-100	0	230	101300000	1000	0	0	-1	1000
14546875	60	509	0	-100	0	230	101300000	1000	0	0	-1	1000
14559435	62	511	0	-100	0	230	101300000	1000	0	0	-1	1000
14571995	58	506	0	-100	0	230	101300000	1000	0	0	-1	1000
14584555	55	513	0	-100	0	230	101300000	1000	0	0	-1	1000
14597115	63	508	0	-100	0	230	101300000	1000	0	0	-1	1000
14609675	58	518	0	-100	0	230	101300000	1000	0	0	-1	1000
14622235	58	512	0	-100	0	230	101300000	1000	0	0	-1	1000
14634795	63	508	0	-100	0	230	101300000	1000	0	0	-1	1000
14647355	55	512	0	-100	0	230	101300000	1000	0	0	-1	1000
14659915	55	515	0	-100	0	230	101300000	1000	0	0	-1	1000
14672475	63	512	0	-100	0	230	101300000	1000	0	0	-1	1000
14685035	58	517	0	-100	0	230	101300000	1000	0	0	-1	1000
14697595	58	509	0	-100	0	230	101300000	1000	0	0	-1	1000
14710155	67	510	0	-100	0	230	101300000	1000	0	0	-1	1000
14722715	55	512	0	-100	0	230	101300000	1000	0	0	-1	1000
14735275	55	514	0	-100	0	230	101300000	1000	0	0	-1	1000
14747835	63	508	0	-100	0	230	101300000	1000	0	0	-1	1000
14760395	58	514	0	-100	0	230	101300000	1000	0	0	-1	1000
14772955	58	508	0	-100	0	230	101300000	1000	0	0	-1	1000
14785515	58	508	0	-100	0	230	101300000	1000	0	0	-1	1000
14798075	53	517	0	-100	0	230	101300000	1000	0	0	-1	1000
14810635	60	508	0	-100	0	230	101300000	1000	0	0	-1	1000
14823195	60	509	0	-100	0	230	101300000	1000	0	0	-1	1000
14835755	55	514	0	-100	0	230	101300000	1000	0	0	-1	1000
14848315	65	507	0	-100	0	230	101300000	1000	0	0	-1	1000
14860875	55	513	0	-100	0	230	101300000	1000	0	0	-1	1000
14873435	58	513	0	-100	0	230	101300000	1000	0	0	-1	1000
14885995	62	512	0	-100	0	230	101300000	1000	0	0	-1	1000
14898555	58	517	0	-100	0	230	101300000	1000	0	0	-1	1000
14911115	58	509	0	-100	0	230	101300000	1000	0	0	-1	1000
14923675	60	509	0	-100	0	230	101300000	1000	0	0	-1	1000
14936235	58	518	0	-100	0	230	101300000	1000	0	0	-1	1000
14948795	55	512	0	-100	0	230	101300000	1000	0	0	-1	1000
14961355	63	507	0	-100	0	230	101300000	1000	0	0	-1	1000
14973915	55	512	0	-100	0	230	101300000	1000	0	0	-1	1000
14986475	55	514	0	-100	0	230	101300000	1000	0	0	-1	1000
14999035	65	509	0	-100	0	230	101300000	1000	0	0	-1	1000
15011595	55	508	0	-100	0	230	101300000	1000	0	0	-1	1000
15024155	60	517	0	-100	0	230	101300000	1000	0	0	-1	1000
15036715	63	509	0	-100	0	230	101300000	1000	0	0	-1	1000
15049275	63	509	0	-100	0	230	101300000	1000	0	0	-1	1000
15061835	58	517	0	-100	0	230	101300000	1000	0	0	-1	1000
15074395	58	511	0	-100	0	230	101300000	1000	0	0	-1	1000
15086955	58	509	0	-100	0	230	101300000	1000	0	0	-1	1000
15099515	58	516	0	-100	0	230	101300000	1000	0	0	-1	1000
15112075	55	509	0	-100	0	230	101300000	1000	0	0	-1	1000
15124635	60	508	0	-100	0	230	101300000	1000	0	0	-1	1000
15137195	55	516	0	-100	0	230	101300000	1000	0	0	-1	1000
15149755	65	509	0	-100	0	230	101300000	1000	0	0	-1	1000
15162315	55	509	0	-100	0	230	101300000	1000	0	0	-1	1000
15174875	60	512	0	-100	0	230	101300000	1000	0	0	-1	1000
15187435	58	508	0	-100	0	230	101300000	1000	0	0	-1	1000
15199995	55	512	0	-100	0	230	101300000	1000	0	0	-1	1000
15212555	60	508	0	-100	0	230	101300000	1000	0	0	-1	1000
15225115	58	513	0	-100	0	230	101300000	1000	0	0	-1	1000
15237675	53	512	0	-100	0	230	101300000	1000	0	0	-1	1000
15250235	62	509	0	-100	0	230	101300000	1000	0	0	-1	1000
15262795	55	516	0	-100	0	230	101300000	1000	0	0	-1	1000
15275355	58	509	0	-100	0	230	101300000	1000	0	0	-1	1000
15287915	60	510	0	-100	0	230	101300000	1000	0	0	-1	1000
15300475	55	517	0	-100	0	230	101300000	1000	0	0	-1	1000
15313035	60	508	0	-100	0	230	101300000	1000	0	0	-1	1000
15325595	60	517	0	-100	0	230	101300000	1000	0	0	-1	1000
15338155	67	513	0	-100	0	230	101300000	1000	0	0	-1	1000
15350715	58	511	0	-100	0	230	101300000	1000	0	0	-1	1000
15363275	55	514	0	-100	0	230	101300000	1000	0	0	-1	1000
15375835	67	511	0	-100	0	230	101300000	1000	0	0	-1	1000
15388395	60	509	0	-100	0	230	101300000	1000	0	0	-1	1000
15400955	58	515	0	-100	0	230	101300000	1000	0	0	-1	1000
15413515	58	509	0	-100	0	230	101300000	1000	0	0	-1	1000
15426075	60	508	0	-100	0	230	101300000	1000	0	0	-1	1000
15438635	55	513	0	-100	0	230	101300000	1000	0	0	-1	1000
15451195	55	513	0	-100	0	230	101300000	1000	0	0	-1	1000
15463755	62	507	0	-100	0	230	101300000	1000	0	0	-1	1000
15476315	58	509	0	-100	0	230	101300000	1000	0	0	-1	1000
15488875	55	517	0	-100	0	230	101300000	1000	0	0	-1	1000
15501435	58	511	0	-100	0	230	101300000	1000	0	0	-1	1000
15513995	63	515	0	-100	0	230	101300000	1000	0	0	-1	1000
15526555	58	509	0	-100	0	230	101300000	1000	0	0	-1	1000
15539115	58	515	0	-100	0	230	101300000	1000	0	0	-1	1000
15551675	55	517	0	-100	0	230	101300000	1000	0	0	-1	1000
15564235	58	512	0	-100	0	230	101300000	1000	0	0	-1	1000
15576795	62	508	0	-100	0	230	101300000	1000	0	0	-1	1000
15589355	60	511	0	-100	0	230	101300000	1000	0	0	-1	1000
15601915	58	514	0	-100	0	230	101300000	1000	0	0	-1	1000
15614475	55	514	0	-100	0	230	101300000	1000	0	0	-1	1000
15627035	58	511	0	-100	0	230	101300000	1000	0	0	-1	1000
15639595	55	517	0	-100	0	230	101300000	1000	0	0	-1	1000
15652155	60	508	0	-100	0	230	101300000	1000	0	0	-1	1000
15664715	58	509	0	-100	0	230	101300000	1000	0	0	-1	1000
15677275	65	508	0	-100	0	230	101300000	1000	0	0	-1	1000
15689835	62	508	0	-100	0	230	101300000	1000	0	0	-1	1000
15702395	60	507	0	-100	0	230	101300000	1000	0	0	-1	1000
15714955	60	507	0	-100	0	230	101300000	1000	0	0	-1	1000
15727515	62	509	0	-100	0	230	101300000	1000	0	0	-1	1000
15740075	58	512	0	-100	0	230	101300000	1000	0	0	-1	1000
15752635	58	514	0	-100	0	230	101300000	1000	0	0	-1	1000
15765195	55	516	0	-100	0	230	101300000	1000	0	0	-1	1000
15777755	55	515	0	-100	0	230	101300000	1000	0	0	-1	1000
15790315	58	517	0	-100	0	230	101300000	1000	0	0	-1	1000
15802875	60	512	0	-100	0	230	101300000	1000	0	0	-1	1000
15815435	62	508	0	-100	0	230	101300000	1000	0	0	-1	1000
15827995	65	511	0	-100	0	230	101300000	1000	0	0	-1	1000
15840555	60	510	0	-100	0	230	101300000	1000	0	0	-1	1000
15853115	55	511	0	-100	0	230	101300000	1000	0	0	-1	1000
15865675	58	515	0	-100	0	230	101300000	1000	0	0	-1	1000
15878235	55	514	0	-100	0	230	101300000	1000	0	0	-1	1000
15890795	65	509	0	-100	0	230	101300000	1000	0	0	-1	1000
15903355	60	508	0	-100	0	230	101300000	1000	0	0	-1	1000
15915915	58	504	0	-100	0	230	101300000	1000	0	0	-1	1000
15928475	53	513	0	-100	0	230	101300000	1000	0	0	-1	1000
15941035	55	515	0	-100	0	230	101300000	1000	0	0	-1	1000
15953595	63	509	0	-100	0	230	101300000	1000	0	0	-1	1000
15966155	67	509	0	-100	0	230	101300000	1000	0	0	-1	1000
15978715	53	514	0	-100	0	230	101300000	1000	0	0	-1	1000
15991275	58	513	0	-100	0	230	101300000	1000	0	0	-1	1000
16003835	63	508	0	-100	0	230	101300000	1000	0	0	-1	1000
16016395	60	509	0	-100	0	230	101300000	1000	0	0	-1	1000
16028955	55	511	0	-100	0	230	101300000	1000	0	0	-1	1000
16041515	55	515	0	-100	0	230	101300000	1000	0	0	-1	1000
16054075	53	515	0	-100	0	230	101300000	1000	0	0	-1	1000
16066635	60	506	0	-100	0	230	101300000	1000	0	0	-1	1000
16079195	62	505	0	-100	0	230	101300000	1000	0	0	-1	1000
16091755	63	517	0	-100	0	230	101300000	1000	0	0	-1	1000
16104315	60	508	0	-100	0	230	101300000	1000	0	0	-1	1000
16116875	58	510	0	-100	0	230	101300000	1000	0	0	-1	1000
16129435	55	512	0	-100	0	230	101300000	1000	0	0	-1	1000
16141995	58	508	0	-100	0	230	101300000	1000	0	0	-1	1000
16154555	60	515	0	-100	0	230	101300000	1000	0	0	-1	1000
16167115	55	512	0	-100	0	230	101300000	1000	0	0	-1	1000
16179675	58	509	0	-100	0	230	101300000	1000	0	0	-1	1000
16192235	63	509	0	-100	0	230	101300000	1000	0	0	-1	1000
16204795	63	509	0	-100	0	230	101300000	1000	0	0	-1	1000
16217355	60	509	0	-100	0	230	101300000	1000	0	0	-1	1000
16229915	55	513	0	-100	0	230	101300000	1000	0	0	-1	1000
16242475	58	513	0	-100	0	230	101300000	1000	0	0	-1	1000
16255035	58	513	0	-100	0	230	101300000	1000	0	0	-1	1000
16267595	58	517	0	-100	0	230	101300000	1000	0	0	-1	1000
16280155	65	519	0	-100	0	230	101300000	1000	0	0	-1	1000
16292715	55	514	0	-100	0	230	101300000	1000	0	0	-1	1000
16305275	58	509	0	-100	0	230	101300000	1000	0	0	-1	1000
16317835	60	509	0	-100	0	230	101300000	1000	0	0	-1	1000
16330395	63	510	0	-100	0	230	101300000	1000	0	0	-1	1000
16342955	63	508	0	-100	0	230	101300000	1000	0	0	-1	1000
16355515	60	508	0	-100	0	230	101300000	1000	0	0	-1	1000
16368075	60	510	0	-100	0	230	101300000	1000	0	0	-1	1000
16380635	58	515	0	-100	0	230	101300000	1000	0	0	-1	1000
16393195	55	515	0	-100	0	230	101300000	1000	0	0	-1	1000
16405755	65	511	0	-100	0	230	101300000	1000	0	0	-1	1000
16418315	60	511	0	-100	0	230	101300000	1000	0	0	-1	1000
16430875	58	516	0	-100	0	230	101300000	1000	0	0	-1	1000
16443435	55	516	0	-100	0	230	101300000	1000	0	0	-1	1000
16455995	60	517	0	-100	0	230	101300000	1000	0	0	-1	1000
16468555	62	504	0	-100	0	230	101300000	1000	0	0	-1	1000
16481115	60	511	0	-100	0	230	101300000	1000	0	0	-1	1000
16493675	55	512	0	-100	0	230	101300000	1000	0	0	-1	1000
16506235	55	514	0	-100	0	230	101300000	1000	0	0	-1	1000
16518795	55	511	0	-100	0	230	101300000	1000	0	0	-1	1000
16531355	63	508	0	-100	0	230	101300000	1000	0	0	-1	1000
16543915	55	509	0	-100	0	230	101300000	1000	0	0	-1	1000
16556475	55	521	0	-100	0	230	101300000	1000	0	0	-1	1000
16569035	55	514	0	-100	0	230	101300000	1000	0	0	-1	1000
16581595	65	507	0	-100	0	230	101300000	1000	0	0	-1	1000
16594155	65	510	0	-100	0	230	101300000	1000	0	0	-1	1000
16606715	55	514	0	-100	0	230	101300000	1000	0	0	-1	1000
16619275	58	513	0	-100	0	230	101300000	1000	0	0	-1	1000
16631835	55	513	0	-100	0	230	101300000	1000	0	0	-1	1000
16644395	55	516	0	-100	0	230	101300000	1000	0	0	-1	1000
16656955	55	511	0	-100	0	230	101300000	1000	0	0	-1	1000
16669515	55	513	0	-100	0	230	101300000	1000	0	0	-1	1000
16682075	55	506	0	-100	0	230	101300000	1000	0	0	-1	1000
16694635	58	509	0	-100	0	230	101300000	1000	0	0	-1	1000
16707195	62	507	0	-100	0	230	101300000	1000	0	0	-1	1000
16719755	60	508	0	-100	0	230	101300000	1000	0	0	-1	1000
16732315	60	509	0	-100	0	230	101300000	1000	0	0	-1	1000
16744875	63	509	0	-100	0	230	101300000	1000	0	0	-1	1000
16757435	60	507	0	-100	0	230	101300000	1000	0	0	-1	1000
16769995	58	510	0	-100	0	230	101300000	1000	0	0	-1	1000
16782555	55	512	0	-100	0	230	101300000	1000	0	0	-1	1000
16795115	58	517	0	-100	0	230	101300000	1000	0	0	-1	1000
16807675	55	513	0	-100	0	230	101300000	1000	0	0	-1	1000
16820235	63	509	0	-100	0	230	101300000	1000	0	0	-1	1000
16832795	60	510	0	-100	0	230	101300000	1000	0	0	-1	1000
16845355	60	517	0	-100	0	230	101300000	1000	0	0	-1	1000
16857915	53	512	0	-100	0	230	101300000	1000	0	0	-1	1000
16870475	55	515	0	-100	0	230	101300000	1000	0	0	-1	1000
16883035	53	512	0	-100	0	230	101300000	1000	0	0	-1	1000
16895595	58	508	0	-100	0	230	101300000	1000	0	0	-1	1000
16908155	70	508	0	-100	0	230	101300000	1000	0	0	-1	1000
16920715	60	509	0	-100	0	230	101300000	1000	0	0	-1	1000
16933275	58	512	0	-100	0	230	101300000	1000	0	0	-1	1000
16945835	58	513	0	-100	0	230	101300000	1000	0	0	-1	1000
16958395	58	535	0	-100	0	230	101300000	1000	0	0	-1	1000
16970955	63	506	0	-100	0	230	101300000	1000	0	0	-1	1000
16983515	55	511	0	-100	0	230	101300000	1000	0	0	-1	1000
16996075	55	512	0	-100	0	230	101300000	1000	0	0	-1	1000
17008635	62	505	0	-100	0	230	101300000	1000	0	0	-1	1000
17021195	58	509	0	-100	0	230	101300000	1000	0	0	-1	1000
17033755	55	513	0	-100	0	230	101300000	1000	0	0	-1	1000
17046315	55	536	0	-100	0	230	101300000	1000	0	0	-1	1000
17058875	62	507	0	-100	0	230	101300000	1000	0	0	-1	1000
17071435	63	508	0	-100	0	230	101300000	1000	0	0	-1	1000
17083995	55	509	0	-100	0	230	101300000	1000	0	0	-1	1000
17096555	55	514	0	-100	0	230	101300000	1000	0	0	-1	1000
17109115	63	509	0	-100	0	230	101300000	1000	0	0	-1	1000
17121675	62	510	0	-100	0	230	101300000	1000	0	0	-1	1000
17134235	55	512	0	-100	0	230	101300000	1000	0	0	-1	1000
17146795	55	515	0	-100	0	230	101300000	1000	0	0	-1	1000
17159355	55	512	0	-100	0	230	101300000	1000	0	0	-1	1000
17171915	60	508	0	-100	0	230	101300000	1000	0	0	-1	1000
17184475	62	511	0	-100	0	230	101300000	1000	0	0	-1	1000
17197035	58	510	0	-100	0	230	101300000	1000	0	0	-1	1000
17209595	53	515	0	-100	0	230	101300000	1000	0	0	-1	1000
17222155	63	513	0	-100	0	230	101300000	1000	0	0	-1	1000
17234715	60	507	0	-100	0	230	101300000	1000	0	0	-1	1000
17247275	62	508	0	-100	0	230	101300000	1000	0	0	-1	1000
17259835	58	509	0	-100	0	230	101300000	1000	0	0	-1	1000
17272395	58	513	0	-100	0	230	101300000	1000	0	0	-1	1000
17284955	55	517	0	-100	0	230	101300000	1000	0	0	-1	1000
17297515	60	509	0	-100	0	230	101300000	1000	0	0	-1	1000
17310075	63	507	0	-100	0	230	101300000	1000	0	0	-1	1000
17322635	63	508	0	-100	0	230	101300000	1000	0	0	-1	1000
17335195	58	510	0	-100	0	230	101300000	1000	0	0	-1	1000
17347755	58	513	0	-100	0	230	101300000	1000	0	0	-1	1000
17360315	55	516	0	-100	0	230	101300000	1000	0	0	-1	1000
17372875	55	513	0	-100	0	230	101300000	1000	0	0	-1	1000
17385435	63	508	0	-100	0	230	101300000	1000	0	0	-1	1000
17397995	65	514	0	-100	0	230	101300000	1000	0	0	-1	1000
17410555	63	509	0	-100	0	230	101300000	1000	0	0	-1	1000
17423115	60	508	0	-100	0	230	101300000	1000	0	0	-1	1000
17435675	60	507	0	-100	0	230	101300000	1000	0	0	-1	1000
17448235	62	510	0	-100	0	230	101300000	1000	0	0	-1	1000
17460795	58	509	0	-100	0	230	101300000	1000	0	0	-1	1000
17473355	55	511	0	-100	0	230	101300000	1000	0	0	-1	1000
17485915	55	516	0	-100	0	230	101300000	1000	0	0	-1	1000
17498475	55	517	0	-100	0	230	101300000	1000	0	0	-1	1000
17511035	58	511	0	-100	0	230	101300000	1000	0	0	-1	1000
17523595	63	506	0	-100	0	230	101300000	1000	0	0	-1	1000
17536155	63	510	0	-100	0	230	101300000	1000	0	0	-1	1000
17548715	60	517	0	-100	0	230	101300000	1000	0	0	-1	1000
17561275	55	515	0	-100	0	230	101300000	1000	0	0	-1	1000
17573835	53	513	0	-100	0	230	101300000	1000	0	0	-1	1000
17586395	60	508	0	-100	0	230	101300000	1000	0	0	-1	1000
17598955	63	509	0	-100	0	230	101300000	1000	0	0	-1	1000
17611515	65	508	0	-100	0	230	101300000	1000	0	0	-1	1000
17624075	58	509	0	-100	0	230	101300000	1000	0	0	-1	1000
17636635	55	517	0	-100	0	230	101300000	1000	0	0	-1	1000
17649195	58	510	0	-100	0	230	101300000	1000	0	0	-1	1000
17661755	63	508	0	-100	0	230	101300000	1000	0	0	-1	1000
17674315	62	509	0	-100	0	230	101300000	1000	0	0	-1	1000
17686875	58	514	0	-100	0	230	101300000	1000	0	0	-1	1000
17699435	55	514	0	-100	0	230	101300000	1000	0	0	-1	1000
17711995	62	516	0	-100	0	230	101300000	1000	0	0	-1	1000
17724555	58	509	0	-100	0	230	101300000	1000	0	0	-1	1000
17737115	55	513	0	-100	0	230	101300000	1000	0	0	-1	1000
17749675	55	515	0	-100	0	230	101300000	1000	0	0	-1	1000
17762235	60	509	0	-100	0	230	101300000	1000	0	0	-1	1000
17774795	62	511	0	-100	0	230	101300000	1000	0	0	-1	1000
17787355	58	509	0	-100	0	230	101300000	1000	0	0	-1	1000
17799915	60	514	0	-100	0	230	101300000	1000	0	0	-1	1000
17812475	55	513	0	-100	0	230	101300000	1000	0	0	-1	1000
17825035	62	508	0	-100	0	230	101300000	1000	0	0	-1	1000
17837595	58	509	0	-100	0	230	101300000	1000	0	0	-1	1000
17850155	60	517	0	-100	0	230	101300000	1000	0	0	-1	1000
17862715	60	509	0	-100	0	230	101300000	1000	0	0	-1	1000
17875275	60	509	0	-100	0	230	101300000	1000	0	0	-1	1000
17887835	53	516	0	-100	0	230	101300000	1000	0	0	-1	1000
17900395	60	509	0	-100	0	230	101300000	1000	0	0	-1	1000
17912955	63	508	0	-100	0	230	101300000	1000	0	0	-1	1000
17925515	55	511	0	-100	0	230	101300000	1000	0	0	-1	1000
17938075	55	515	0	-100	0	230	101300000	1000	0	0	-1	1000
17950635	58	510	0	-100	0	230	101300000	1000	0	0	-1	1000
17963195	62	509	0	-100	0	230	101300000	1000	0	0	-1	1000
17975755	55	513	0	-100	0	230	101300000	1000	0	0	-1	1000
17988315	55	515	0	-100	0	230	101300000	1000	0	0	-1	1000
18000875	63	509	0	-100	0	230	101300000	1000	0	0	-1	1000
18013435	58	509	0	-100	0	230	101300000	1000	0	0	-1	1000
18025995	58	509	0	-100	0	230	101300000	1000	0	0	-1	1000
18038555	55	512	0	-100	0	230	101300000	1000	0	0	-1	1000
18051115	65	510	0	-100	0	230	101300000	1000	0	0	-1	1000
18063675	60	514	0	-100	0	230	101300000	1000	0	0	-1	1000
18076235	60	511	0	-100	0	230	101300000	1000	0	0	-1	1000
18088795	60	509	0	-100	0	230	101300000	1000	0	0	-1	1000
18101355	58	516	0	-100	0	230	101300000	1000	0	0	-1	1000
18113915	62	508	0	-100	0	230	101300000	1000	0	0	-1	1000
18126475	58	511	0	-100	0	230	101300000	1000	0	0	-1	1000
18139035	55	512	0	-100	0	230	101300000	1000	0	0	-1	1000
18151595	63	508	0	-100	0	230	101300000	1000	0	0	-1	1000
18164155	63	514	0	-100	0	230	101300000	1000	0	0	-1	1000
18176715	55	515	0	-100	0	230	101300000	1000	0	0	-1	1000
18189275	63	510	0	-100	0	230	101300000	1000	0	0	-1	1000
18201835	55	514	0	-100	0	230	101300000	1000	0	0	-1	1000
18214395	55	514	0	-100	0	230	101300000	1000	0	0	-1	1000
18226955	63	507	0	-100	0	230	101300000	1000	0	0	-1	1000
18239515	53	513	0	-100	0	230	101300000	1000	0	0	-1	1000
18252075	55	514	0	-100	0	230	101300000	1000	0	0	-1	1000
18264635	60	509	0	-100	0	230	101300000	1000	0	0	-1	1000
18277195	63	508	0	-100	0	230	101300000	1000	0	0	-1	1000
18289755	60	508	0	-100	0	230	101300000	1000	0	0	-1	1000
18302315	58	518	0	-100	0	230	101300000	1000	0	0	-1	1000
18314875	58	510	0	-100	0	230	101300000	1000	0	0	-1	1000
18327435	65	508	0	-100	0	230	101300000	1000	0	0	-1	1000
18339995	60	510	0	-100	0	230	101300000	1000	0	0	-1	1000
18352555	60	513	0	-100	0	230	101300000	1000	0	0	-1	1000
18365115	55	515	0	-100	0	230	101300000	1000	0	0	-1	1000
18377675	63	509	0	-100	0	230	101300000	1000	0	0	-1	1000
18390235	65	509	0	-100	0	230	101300000	1000	0	0	-1	1000
18402795	55	509	0	-100	0	230	101300000	1000	0	0	-1	1000
18415355	58	516	0	-100	0	230	101300000	1000	0	0	-1	1000
18427915	55	514	0	-100	0	230	101300000	1000	0	0	-1	1000
18440475	60	508	0	-100	0	230	101300000	1000	0	0	-1	1000
18453035	60	508	0	-100	0	230	101300000	1000	0	0	-1	1000
18465595	55	517	0	-100	0	230	101300000	1000	0	0	-1	1000
18478155	63	512	0	-100	0	230	101300000	1000	0	0	-1	1000
18490715	60	508	0	-100	0	230	101300000	1000	0	0	-1	1000
18503275	55	511	0	-100	0	230	101300000	1000	0	0	-1	1000
18515835	58	516	0	-100	0	230	101300000	1000	0	0	-1	1000
18528395	65	510	0	-100	0	230	101300000	1000	0	0	-1	1000
18540955	60	508	0	-100	0	230	101300000	1000	0	0	-1	1000
18553515	58	515	0	-100	0	230	101300000	1000	0	0	-1	1000
18566075	53	514	0	-100	0	230	101300000	1000	0	0	-1	1000
18578635	63	509	0	-100	0	230	101300000	1000	0	0	-1	1000
18591195	60	507	0	-100	0	230	101300000	1000	0	0	-1	1000
18603755	58	511	0	-100	0	230	101300000	1000	0	0	-1	1000
18616315	55	514	0	-100	0	230	101300000	1000	0	0	-1	1000
18628875	58	513	0	-100	0	230	101300000	1000	0	0	-1	1000
18641435	65	509	0	-100	0	230	101300000	1000	0	0	-1	1000
18653995	63	509	0	-100	0	230	101300000	1000	0	0	-1	1000
18666555	55	513	0	-100	0	230	101300000	1000	0	0	-1	1000
18679115	55	516	0	-100	0	230	101300000	1000	0	0	-1	1000
18691675	58	509	0	-100	0	230	101300000	1000	0	0	-1	1000
18704235	60	508	0	-100	0	230	101300000	1000	0	0	-1	1000
18716795	58	508	0	-100	0	230	101300000	1000	0	0	-1	1000
18729355	55	516	0	-100	0	230	101300000	1000	0	0	-1	1000
18741915	55	514	0	-100	0	230	101300000	1000	0	0	-1	1000
18754475	60	510	0	-100	0	230	101300000	1000	0	0	-1	1000
18767035	62	507	0	-100	0	230	101300000	1000	0	0	-1	1000
18779595	55	509	0	-100	0	230	101300000	1000	0	0	-1	1000
18792155	63	517	0	-100	0	230	101300000	1000	0	0	-1	1000
18804715	58	513	0	-100	0	230	101300000	1000	0	0	-1	1000
18817275	63	507	0	-100	0	230	101300000	1000	0	0	-1	1000
18829835	55	511	0	-100	0	230	101300000	1000	0	0	-1	1000
18842395	55	514	0	-100	0	230	101300000	1000	0	0	-1	1000
18854955	62	508	0	-100	0	230	101300000	1000	0	0	-1	1000
18867515	60	509	0	-100	0	230	101300000	1000	0	0	-1	1000
18880075	58	516	0	-100	0	230	101300000	1000	0	0	-1	1000
18892635	53	512	0	-100	0	230	101300000	1000	0	0	-1	1000
18905195	62	509	0	-100	0	230	101300000	1000	0	0	-1	1000
18917755	60	508	0	-100	0	230	101300000	1000	0	0	-1	1000
18930315	55	516	0	-100	0	230	101300000	1000	0	0	-1	1000
18942875	58	509	0	-100	0	230	101300000	1000	0	0	-1	1000
18955435	63	506	0	-100	0	230	101300000	1000	0	0	-1	1000
18967995	60	509	0	-100	0	230	101300000	1000	0	0	-1	1000
18980555	58	513	0	-100	0	230	101300000	1000	0	0	-1	1000
18993115	53	513	0	-100	0	230	101300000	1000	0	0	-1	1000
19005675	65	510	0	-100	0	230	101300000	1000	0	0	-1	1000
19018235	60	508	0	-100	0	230	101300000	1000	0	0	-1	1000
19030795	53	513	0	-100	0	230	101300000	1000	0	0	-1	1000
19043355	55	516	0	-100	0	230	101300000	1000	0	0	-1	1000
19055915	55	513	0	-100	0	230	101300000	1000	0	0	-1	1000
19068475	62	507	0	-100	0	230	101300000	1000	0	0	-1	1000
19081035	63	508	0	-100	0	230	101300000	1000	0	0	-1	1000
19093595	60	509	0	-100	0	230	101300000	1000	0	0	-1	1000
19106155	60	518	0	-100	0	230	101300000	1000	0	0	-1	1000
19118715	55	514	0	-100	0	230	101300000	1000	0	0	-1	1000
19131275	60	507	0	-100	0	230	101300000	1000	0	0	-1	1000
19143835	60	509	0	-100	0	230	101300000	1000	0	0	-1	1000
19156395	60	510	0	-100	0	230	101300000	1000	0	0	-1	1000
19168955	60	512	0	-100	0	230	101300000	1000	0	0	-1	1000
19181515	55	518	0	-100	0	230	101300000	1000	0	0	-1	1000
19194075	55	513	0	-100	0	230	101300000	1000	0	0	-1	1000
19206635	60	507	0	-100	0	230	101300000	1000	0	0	-1	1000
19219195	60	508	0	-100	0	230	101300000	1000	0	0	-1	1000
19231755	55	509	0	-100	0	230	101300000	1000	0	0	-1	1000
19244315	58	516	0	-100	0	230	101300000	1000	0	0	-1	1000
19256875	53	514	0	-100	0	230	101300000	1000	0	0	-1	1000
19269435	65	509	0	-100	0	230	101300000	1000	0	0	-1	1000
19281995	60	508	0	-100	0	230	101300000	1000	0	0	-1	1000
19294555	55	516	0	-100	0	230	101300000	1000	0	0	-1	1000
19307115	60	509	0	-100	0	230	101300000	1000	0	0	-1	1000
19319675	62	507	0	-100	0	230	101300000	1000	0	0	-1	1000
19332235	55	512	0	-100	0	230	101300000	1000	0	0	-1	1000
19344795	63	509	0	-100	0	230	101300000	1000	0	0	-1	1000
19357355	55	512	0	-100	0	230	101300000	1000	0	0	-1	1000
19369915	60	507	0	-100	0	230	101300000	1000	0	0	-1	1000
19382475	58	517	0	-100	0	230	101300000	1000	0	0	-1	1000
19395035	63	508	0	-100	0	230	101300000	1000	0	0	-1	1000
19407595	55	514	0	-100	0	230	101300000	1000	0	0	-1	1000
19420155	65	509	0	-100	0	230	101300000	1000	0	0	-1	1000
19432715	55	515	0	-100	0	230	101300000	1000	0	0	-1	1000
19445275	62	506	0	-100	0	230	101300000	1000	0	0	-1	1000
19457835	53	512	0	-100	0	230	101300000	1000	0	0	-1	1000
19470395	58	509	0	-100	0	230	101300000	1000	0	0	-1	1000
19482955	55	509	0	-100	0	230	101300000	1000	0	0	-1	1000
19495515	63	509	0	-100	0	230	101300000	1000	0	0	-1	1000
19508075	53	512	0	-100	0	230	101300000	1000	0	0	-1	1000
19520635	60	509	0	-100	0	230	101300000	1000	0	0	-1	1000
19533195	53	512	0	-100	0	230	101300000	1000	0	0	-1	1000
19545755	63	508	0	-100	0	230	101300000	1000	0	0	-1	1000
19558315	60	517	0	-100	0	230	101300000	1000	0	0	-1	1000
19570875	60	508	0	-100	0	230	101300000	1000	0	0	-1	1000
19583435	53	513	0	-100	0	230	101300000	1000	0	0	-1	1000
19595995	60	508	0	-100	0	230	101300000	1000	0	0	-1	1000
19608555	53	514	0	-100	0	230	101300000	1000	0	0	-1	1000
19621115	60	508	0	-100	0	230	101300000	1000	0	0	-1	1000
19633675	55	515	0	-100	0	230	101300000	1000	0	0	-1	1000
19646235	63	509	0	-100	0	230	101300000	1000	0	0	-1	1000
19658795	58	515	0	-100	0	230	101300000	1000	0	0	-1	1000
19671355	58	510	0	-100	0	230	101300000	1000	0	0	-1	1000
19683915	55	513	0	-100	0	230	101300000	1000	0	0	-1	1000
19696475	60	509	0	-100	0	230	101300000	1000	0	0	-1	1000
19709035	55	510	0	-100	0	230	101300000	1000	0	0	-1	1000
19721595	55	513	0	-100	0	230	101300000	1000	0	0	-1	1000
19734155	67	509	0	-100	0	230	101300000	1000	0	0	-1	1000
19746715	58	514	0	-100	0	230	101300000	1000	0	0	-1	1000
19759275	60	509	0	-100	0	230	101300000	1000	0	0	-1	1000
19771835	53	514	0	-100	0	230	101300000	1000	0	0	-1	1000
19784395	60	508	0	-100	0	230	101300000	1000	0	0	-1	1000
19796955	55	514	0	-100	0	230	101300000	1000	0	0	-1	1000
19809515	63	507	0	-100	0	230	101300000	1000	0	0	-1	1000
19822075	55	513	0	-100	0	230	101300000	1000	0	0	-1	1000
19834635	63	509	0	-100	0	230	101300000	1000	0	0	-1	1000
19847195	55	513	0	-100	0	230	101300000	1000	0	0	-1	1000
19859755	53	514	0	-100	0	230	101300000	1000	0	0	-1	1000
19872315	65	505	0	-100	0	230	101300000	1000	0	0	-1	1000
19884875	58	508	0	-100	0	230	101300000	1000	0	0	-1	1000
19897435	55	514	0	-100	0	230	101300000	1000	0	0	-1	1000
19909995	62	514	0	-100	0	230	101300000	1000	0	0	-1	1000
19922555	58	509	0	-100	0	230	101300000	1000	0	0	-1	1000
19935115	55	516	0	-100	0	230	101300000	1000	0	0	-1	1000
19947675	58	508	0	-100	0	230	101300000	1000	0	0	-1	1000
19960235	60	508	0	-100	0	230	101300000	1000	0	0	-1	1000
19972795	55	515	0	-100	0	230	101300000	1000	0	0	-1	1000
19985355	63	510	0	-100	0	230	101300000	1000	0	0	-1	1000
19997915	58	508	0	-100	0	230	101300000	1000	0	0	-1	1000
20010475	55	516	0	-100	0	230	101300000	1000	0	0	-1	1000
20023035	65	508	0	-100	0	230	101300000	1000	0	0	-1	1000
20035595	55	513	0	-100	0	230	101300000	1000	0	0	-1	1000
20048155	63	511	0	-100	0	230	101300000	1000	0	0	-1	1000
20060715	55	511	0	-100	0	230	101300000	1000	0	0	-1	1000
20073275	62	509	0	-100	0	230	101300000	1000	0	0	-1	1000
20085835	55	515	0	-100	0	230	101300000	1000	0	0	-1	1000
20098395	60	508	0	-100	0	230	101300000	1000	0	0	-1	1000
20110955	53	514	0	-100	0	230	101300000	1000	0	0	-1	1000
20123515	62	508	0	-100	0	230	101300000	1000	0	0	-1	1000
20136075	58	517	0	-100	0	230	101300000	1000	0	0	-1	1000
20148635	58	511	0	-100	0	230	101300000	1000	0	0	-1	1000
20161195	60	508	0	-100	0	230	101300000	1000	0	0	-1	1000
20173755	55	513	0	-100	0	230	101300000	1000	0	0	-1	1000
20186315	58	510	0	-100	0	230	101300000	1000	0	0	-1	1000
20198875	63	508	0	-100	0	230	101300000	1000	0	0	-1	1000
20211435	58	516	0	-100	0	230	101300000	1000	0	0	-1	1000
20223995	63	516	0	-100	0	230	101300000	1000	0	0	-1	1000
20236555	55	512	0	-100	0	230	101300000	1000	0	0	-1	1000
20249115	55	511	0	-100	0	230	101300000	1000	0	0	-1	1000
20261675	58	508	0	-100	0	230	101300000	1000	0	0	-1	1000
20274235	55	518	0	-100	0	230	101300000	1000	0	0	-1	1000
20286795	63	507	0	-100	0	230	101300000	1000	0	0	-1	1000
20299355	60	514	0	-100	0	230	101300000	1000	0	0	-1	1000
20311915	55	511	0	-100	0	230	101300000	1000	0	0	-1	1000
20324475	60	508	0	-100	0	230	101300000	1000	0	0	-1	1000
20337035	55	513	0	-100	0	230	101300000	1000	0	0	-1	1000
20349595	62	509	0	-100	0	230	101300000	1000	0	0	-1	1000
20362155	63	519	0	-100	0	230	101300000	1000	0	0	-1	1000
20374715	58	510	0	-100	0	230	101300000	1000	0	0	-1	1000
20387275	60	508	0	-100	0	230	101300000	1000	0	0	-1	1000
20399835	58	514	0	-100	0	230	101300000	1000	0	0	-1	1000
20412395	58	509	0	-100	0	230	101300000	1000	0	0	-1	1000
20424955	62	509	0	-100	0	230	101300000	1000	0	0	-1	1000
20437515	55	513	0	-100	0	230	101300000	1000	0	0	-1	1000
20450075	55	513	0	-100	0	230	101300000	1000	0	0	-1	1000
20462635	63	508	0	-100	0	230	101300000	1000	0	0	-1	1000
20475195	55	516	0	-100	0	230	101300000	1000	0	0	-1	1000
20487755	60	509	0	-100	0	230	101300000	1000	0	0	-1	1000
20500315	60	509	0	-100	0	230	101300000	1000	0	0	-1	1000
20512875	53	514	0	-100	0	230	101300000	1000	0	0	-1	1000
20525435	60	508	0	-100	0	230	101300000	1000	0	0	-1	1000
20537995	55	508	0	-100	0	230	101300000	1000	0	0	-1	1000
20550555	63	509	0	-100	0	230	101300000	1000	0	0	-1	1000
20563115	55	509	0	-100	0	230	101300000	1000	0	0	-1	1000
20575675	53	513	0	-100	0	230	101300000	1000	0	0	-1	1000
20588235	60	508	0	-100	0	230	101300000	1000	0	0	-1	1000
20600795	55	512	0	-100	0	230	101300000	1000	0	0	-1	1000
20613355	55	513	0	-100	0	230	101300000	1000	0	0	-1	1000
20625915	62	509	0	-100	0	230	101300000	1000	0	0	-1	1000
20638475	55	513	0	-100	0	230	101300000	1000	0	0	-1	1000
20651035	58	516	0	-100	0	230	101300000	1000	0	0	-1	1000
20663595	55	514	0	-100	0	230	101300000	1000	0	0	-1	1000
20676155	67	512	0	-100	0	230	101300000	1000	0	0	-1	1000
20688715	63	509	0	-100	0	230	101300000	1000	0	0	-1	1000
20701275	55	511	0	-100	0	230	101300000	1000	0	0	-1	1000
20713835	58	516	0	-100	0	230	101300000	1000	0	0	-1	1000
20726395	63	509	0	-100	0	230	101300000	1000	0	0	-1	1000
20738955	62	507	0	-100	0	230	101300000	1000	0	0	-1	1000
20751515	58	516	0	-100	0	230	101300000	1000	0	0	-1	1000
20764075	58	511	0	-100	0	230	101300000	1000	0	0	-1	1000
20776635	63	509	0	-100	0	230	101300000	1000	0	0	-1	1000
20789195	60	516	0	-100	0	230	101300000	1000	0	0	-1	1000
20801755	58	509	0	-100	0	230	101300000	1000	0	0	-1	1000
20814315	60	508	0	-100	0	230	101300000	1000	0	0	-1	1000
20826875	53	516	0	-100	0	230	101300000	1000	0	0	-1	1000
20839435	58	509	0	-100	0	230	101300000	1000	0	0	-1	1000
20851995	60	509	0	-100	0	230	101300000	1000	0	0	-1	1000
20864555	58	512	0	-100	0	230	101300000	1000	0	0	-1	1000
20877115	58	510	0	-100	0	230	101300000	1000	0	0	-1	1000
20889675	62	508	0	-100	0	230	101300000	1000	0	0	-1	1000
20902235	55	513	0	-100	0	230	101300000	1000	0	0	-1	1000
20914795	55	516	0	-100	0	230	101300000	1000	0	0	-1	1000
20927355	53	514	0	-100	0	230	101300000	1000	0	0	-1	1000
20939915	55	509	0	-100	0	230	101300000	1000	0	0	-1	1000
20952475	60	509	0	-100	0	230	101300000	1000	0	0	-1	1000
20965035	63	508	0	-100	0	230	101300000	1000	0	0	-1	1000
20977595	60	509	0	-100	0	230	101300000	1000	0	0	-1	1000
20990155	60	515	0	-100	0	230	101300000	1000	0	0	-1	1000
21002715	55	516	0	-100	0	230	101300000	1000	0	0	-1	1000
21015275	55	512	0	-100	0	230	101300000	1000	0	0	-1	1000
21027835	63	510	0	-100	0	230	101300000	1000	0	0	-1	1000
21040395	55	511	0	-100	0	230	101300000	1000	0	0	-1	1000
21052955	60	516	0	-100	0	230	101300000	1000	0	0	-1	1000
21065515	55	513	0	-100	0	230	101300000	1000	0	0	-1	1000
21078075	63	506	0	-100	0	230	101300000	1000	0	0	-1	1000
21090635	60	508	0	-100	0	230	101300000	1000	0	0	-1	1000
21103195	58	513	0	-100	0	230	101300000	1000	0	0	-1	1000
21115755	53	514	0	-100	0	230	101300000	1000	0	0	-1	1000
21128315	65	508	0	-100	0	230	101300000	1000	0	0	-1	1000
21140875	55	509	0	-100	0	230	101300000	1000	0	0	-1	1000
21153435	53	515	0	-100	0	230	101300000	1000	0	0	-1	1000
21165995	62	515	0	-100	0	230	101300000	1000	0	0	-1	1000
21178555	55	512	0	-100	0	230	101300000	1000	0	0	-1	1000
21191115	55	515	0	-100	0	230	101300000	1000	0	0	-1	1000
21203675	63	508	0	-100	0	230	101300000	1000	0	0	-1	1000
21216235	60	508	0	-100	0	230	101300000	1000	0	0	-1	1000
21228795	55	515	0	-100	0	230	101300000	1000	0	0	-1	1000
21241355	65	511	0	-100	0	230	101300000	1000	0	0	-1	1000
21253915	58	508	0	-100	0	230	101300000	1000	0	0	-1	1000
21266475	55	515	0	-100	0	230	101300000	1000	0	0	-1	1000
21279035	63	509	0	-100	0	230	101300000	1000	0	0	-1	1000
21291595	58	507	0	-100	0	230	101300000	1000	0	0	-1	1000
21304155	60	518	0	-100	0	230	101300000	1000	0	0	-1	1000
21316715	58	512	0	-100	0	230	101300000	1000	0	0	-1	1000
21329275	62	507	0	-100	0	230	101300000	1000	0	0	-1	1000
21341835	58	515	0	-100	0	230	101300000	1000	0	0	-1	1000
21354395	55	511	0	-100	0	230	101300000	1000	0	0	-1	1000
21366955	62	509	0	-100	0	230	101300000	1000	0	0	-1	1000
21379515	55	510	0	-100	0	230	101300000	1000	0	0	-1	1000
21392075	55	517	0	-100	0	230	101300000	1000	0	0	-1	1000
21404635	58	509	0	-100	0	230	101300000	1000	0	0	-1	1000
21417195	62	508	0	-100	0	230	101300000	1000	0	0	-1	1000
21429755	58	510	0	-100	0	230	101300000	1000	0	0	-1	1000
21442315	55	516	0	-100	0	230	101300000	1000	0	0	-1	1000
21454875	60	509	0	-100	0	230	101300000	1000	0	0	-1	1000
21467435	63	510	0	-100	0	230	101300000	1000	0	0	-1	1000
21479995	55	511	0	-100	0	230	101300000	1000	0	0	-1	1000
21492555	55	514	0	-100	0	230	101300000	1000	0	0	-1	1000
21505115	63	508	0	-100	0	230	101300000	1000	0	0	-1	1000
21517675	58	509	0	-100	0	230	101300000	1000	0	0	-1	1000
21530235	55	518	0	-100	0	230	101300000	1000	0	0	-1	1000
21542795	58	513	0	-100	0	230	101300000	1000	0	0	-1	1000
21555355	63	508	0	-100	0	230	101300000	1000	0	0	-1	1000
21567915	55	513	0	-100	0	230	101300000	1000	0	0	-1	1000
21580475	53	515	0	-100	0	230	101300000	1000	0	0	-1	1000
21593035	63	510	0	-100	0	230	101300000	1000	0	0	-1	1000
21605595	55	508	0	-100	0	230	101300000	1000	0	0	-1	1000
21618155	60	516	0	-100	0	230	101300000	1000	0	0	-1	1000
21630715	63	508	0	-100	0	230	101300000	1000	0	0	-1	1000
21643275	55	514	0	-100	0	230	101300000	1000	0	0	-1	1000
21655835	53	514	0	-100	0	230	101300000	1000	0	0	-1	1000
21668395	60	508	0	-100	0	230	101300000	1000	0	0	-1	1000
21680955	55	512	0	-100	0	230	101300000	1000	0	0	-1	1000
21693515	55	514	0	-100	0	230	101300000	1000	0	0	-1	1000
21706075	65	510	0	-100	0	230	101300000	1000	0	0	-1	1000
21718635	60	508	0	-100	0	230	101300000	1000	0	0	-1	1000
21731195	58	514	0	-100	0	230	101300000	1000	0	0	-1	1000
21743755	58	510	0	-100	0	230	101300000	1000	0	0	-1	1000
21756315	63	510	0	-100	0	230	101300000	1000	0	0	-1	1000
21768875	55	513	0	-100	0	230	101300000	1000	0	0	-1	1000
21781435	55	516	0	-100	0	230	101300000	1000	0	0	-1	1000
21793995	58	518	0	-100	0	230	101300000	1000	0	0	-1	1000
21806555	60	509	0	-100	0	230	101300000	1000	0	0	-1	1000
21819115	55	515	0	-100	0	230	101300000	1000	0	0	-1	1000
21831675	55	518	0	-100	0	230	101300000	1000	0	0	-1	1000
21844235	60	509	0	-100	0	230	101300000	1000	0	0	-1	1000
21856795	58	513	0	-100	0	230	101300000	1000	0	0	-1	1000
21869355	58	510	0	-100	0	230	101300000	1000	0	0	-1	1000
21881915	60	509	0	-100	0	230	101300000	1000	0	0	-1	1000
21894475	55	517	0	-100	0	230	101300000	1000	0	0	-1	1000
21907035	63	510	0	-100	0	230	101300000	1000	0	0	-1	1000
21919595	58	509	0	-100	0	230	101300000	1000	0	0	-1	1000
21932155	58	515	0	-100	0	230	101300000	1000	0	0	-1	1000
21944715	62	509	0	-100	0	230	101300000	1000	0	0	-1	1000
21957275	58	513	0	-100	0	230	101300000	1000	0	0	-1	1000
21969835	58	511	0	-100	0	230	101300000	1000	0	0	-1	1000
21982395	60	508	0	-100	0	230	101300000	1000	0	0	-1	1000
21994955	58	518	0	-100	0	230	101300000	1000	0	0	-1	1000
22007515	58	508	0	-100	0	230	101300000	1000	0	0	-1	1000
22020075	60	509	0	-100	0	230	101300000	1000	0	0	-1	1000
22032635	55	515	0	-100	0	230	101300000	1000	0	0	-1	1000
22045195	65	506	0	-100	0	230	101300000	1000	0	0	-1	1000
22057755	58	509	0	-100	0	230	101300000	1000	0	0	-1	1000
22070315	55	515	0	-100	0	230	101300000	1000	0	0	-1	1000
22082875	65	507	0	-100	0	230	101300000	1000	0	0	-1	1000
22095435	53	512	0	-100	0	230	101300000	1000	0	0	-1	1000
22107995	55	510	0	-100	0	230	101300000	1000	0	0	-1	1000
22120555	60	508	0	-100	0	230	101300000	1000	0	0	-1	1000
22133115	55	513	0	-100	0	230	101300000	1000	0	0	-1	1000
22145675	58	513	0	-100	0	230	101300000	1000	0	0	-1	1000
22158235	63	510	0	-100	0	230	101300000	1000	0	0	-1	1000
22170795	58	517	0	-100	0	230	101300000	1000	0	0	-1	1000
22183355	62	510	0	-100	0	230	101300000	1000	0	0	-1	1000
22195915	55	511	0	-100	0	230	101300000	1000	0	0	-1	1000
22208475	55	514	0	-100	0	230	101300000	1000	0	0	-1	1000
22221035	60	507	0	-100	0	230	101300000	1000	0	0	-1	1000
22233595	55	513	0	-100	0	230	101300000	1000	0	0	-1	1000
22246155	65	513	0	-100	0	230	101300000	1000	0	0	-1	1000
22258715	60	508	0	-100	0	230	101300000	1000	0	0	-1	1000
22271275	58	516	0	-100	0	230	101300000	1000	0	0	-1	1000
22283835	62	508	0	-100	0	230	101300000	1000	0	0	-1	1000
22296395	58	508	0	-100	0	230	101300000	1000	0	0	-1	1000
22308955	55	515	0	-100	0	230	101300000	1000	0	0	-1	1000
22321515	63	510	0	-100	0	230	101300000	1000	0	0	-1	1000
22334075	55	514	0	-100	0	230	101300000	1000	0	0	-1	1000
22346635	63	509	0	-100	0	230	101300000	1000	0	0	-1	1000
22359195	58	510	0	-100	0	230	101300000	1000	0	0	-1	1000
22371755	55	517	0	-100	0	230	101300000	1000	0	0	-1	1000
22384315	62	508	0	-100	0	230	101300000	1000	0	0	-1	1000
22396875	58	517	0	-100	0	230	101300000	1000	0	0	-1	1000
22409435	60	509	0	-100	0	230	101300000	1000	0	0	-1	1000
22421995	60	509	0	-100	0	230	101300000	1000	0	0	-1	1000
22434555	55	516	0	-100	0	230	101300000	1000	0	0	-1	1000
22447115	58	512	0	-100	0	230	101300000	1000	0	0	-1	1000
22459675	63	508	0	-100	0	230	101300000	1000	0	0	-1	1000
22472235	55	513	0	-100	0	230	101300000	1000	0	0	-1	1000
22484795	55	514	0	-100	0	230	101300000	1000	0	0	-1	1000
22497355	62	506	0	-100	0	230	101300000	1000	0	0	-1	1000
22509915	58	509	0	-100	0	230	101300000	1000	0	0	-1	1000
22522475	55	516	0	-100	0	230	101300000	1000	0	0	-1	1000
22535035	63	510	0	-100	0	230	101300000	1000	0	0	-1	1000
22547595	60	508	0	-100	0	230	101300000	1000	0	0	-1	1000
22560155	60	517	0	-100	0	230	101300000	1000	0	0	-1	1000
22572715	62	508	0	-100	0	230	101300000	1000	0	0	-1	1000
22585275	55	511	0	-100	0	230	101300000	1000	0	0	-1	1000
22597835	55	514	0	-100	0	230	101300000	1000	0	0	-1	1000
22610395	63	509	0	-100	0	230	101300000	1000	0	0	-1	1000
22622955	55	513	0	-100	0	230	101300000	1000	0	0	-1	1000
22635515	53	515	0	-100	0	230	101300000	1000	0	0	-1	1000
22648075	62	507	0	-100	0	230	101300000	1000	0	0	-1	1000
22660635	58	510	0	-100	0	230	101300000	1000	0	0	-1	1000
22673195	55	516	0	-100	0	230	101300000	1000	0	0	-1	1000
22685755	60	509	0	-100	0	230	101300000	1000	0	0	-1	1000
22698315	60	510	0	-100	0	230	101300000	1000	0	0	-1	1000
22710875	53	516	0	-100	0	230	101300000	1000	0	0	-1	1000
22723435	63	508	0	-100	0	230	101300000	1000	0	0	-1	1000
22735995	58	505	0	-100	0	230	101300000	1000	0	0	-1	1000
22748555	60	510	0	-100	0	230	101300000	1000	0	0	-1	1000
22761115	58	508	0	-100	0	230	101300000	1000	0	0	-1	1000
22773675	55	514	0	-100	0	230	101300000	1000	0	0	-1	1000
22786235	60	509	0	-100	0	230	101300000	1000	0	0	-1	1000
22798795	55	517	0	-100	0	230	101300000	1000	0	0	-1	1000
22811355	60	509	0	-100	0	230	101300000	1000	0	0	-1	1000
22823915	63	508	0	-100	0	230	101300000	1000	0	0	-1	1000
22836475	58	518	0	-100	0	230	101300000	1000	0	0	-1	1000
22849035	55	512	0	-100	0	230	101300000	1000	0	0	-1	1000
22861595	62	507	0	-100	0	230	101300000	1000	0	0	-1	1000
22874155	63	519	0	-100	0	230	101300000	1000	0	0	-1	1000
22886715	63	509	0	-100	0	230	101300000	1000	0	0	-1	1000
22899275	58	510	0	-100	0	230	101300000	1000	0	0	-1	1000
22911835	53	514	0	-100	0	230	101300000	1000	0	0	-1	1000
22924395	65	507	0	-100	0	230	101300000	1000	0	0	-1	1000
22936955	58	510	0	-100	0	230	101300000	1000	0	0	-1	1000
22949515	58	515	0	-100	0	230	101300000	1000	0	0	-1	1000
22962075	55	511	0	-100	0	230	101300000	1000	0	0	-1	1000
22974635	63	509	0	-100	0	230	101300000	1000	0	0	-1	1000
22987195	55	513	0	-100	0	230	101300000	1000	0	0	-1	1000
22999755	58	516	0	-100	0	230	101300000	1000	0	0	-1	1000
23012315	58	511	0	-100	0	230	101300000	1000	0	0	-1	1000
23024875	62	509	0	-100	0	230	101300000	1000	0	0	-1	1000
23037435	55	512	0	-100	0	230	101300000	1000	0	0	-1	1000
23049995	55	513	0	-100	0	230	101300000	1000	0	0	-1	1000
23062555	60	509	0	-100	0	230	101300000	1000	0	0	-1	1000
23075115	55	512	0	-100	0	230	101300000	1000	0	0	-1	1000
23087675	55	512	0	-100	0	230	101300000	1000	0	0	-1	1000
23100235	58	508	0	-100	0	230	101300000	1000	0	0	-1	1000
23112795	58	518	0	-100	0	230	101300000	1000	0	0	-1	1000
23125355	58	511	0	-100	0	230	101300000	1000	0	0	-1	1000
23137915	60	509	0	-100	0	230	101300000	1000	0	0	-1	1000
23150475	55	513	0	-100	0	230	101300000	1000	0	0	-1	1000
23163035	53	515	0	-100	0	230	101300000	1000	0	0	-1	1000
23175595	63	510	0	-100	0	230	101300000	1000	0	0	-1	1000
23188155	62	510	0	-100	0	230	101300000	1000	0	0	-1	1000
23200715	55	515	0	-100	0	230	101300000	1000	0	0	-1	1000
23213275	65	506	0	-100	0	230	101300000	1000	0	0	-1	1000
23225835	58	514	0	-100	0	230	101300000	1000	0	0	-1	1000
23238395	55	515	0	-100	0	230	101300000	1000	0	0	-1	1000
23250955	60	506	0	-100	0	230	101300000	1000	0	0	-1	1000
23263515	58	511	0	-100	0	230	101300000	1000	0	0	-1	1000
23276075	53	515	0	-100	0	230	101300000	1000	0	0	-1	1000
23288635	65	511	0	-100	0	230	101300000	1000	0	0	-1	1000
23301195	58	508	0	-100	0	230	101300000	1000	0	0	-1	1000
23313755	58	516	0	-100	0	230	101300000	1000	0	0	-1	1000
23326315	58	509	0	-100	0	230	101300000	1000	0	0	-1	1000
23338875	62	508	0	-100	0	230	101300000	1000	0	0	-1	1000
23351435	58	515	0	-100	0	230	101300000	1000	0	0	-1	1000
23363995	63	516	0	-100	0	230	101300000	1000	0	0	-1	1000
23376555	58	509	0	-100	0	230	101300000	1000	0	0	-1	1000
23389115	55	512	0	-100	0	230	101300000	1000	0	0	-1	1000
23401675	65	506	0	-100	0	230	101300000	1000	0	0	-1	1000
23414235	58	512	0	-100	0	230	101300000	1000	0	0	-1	1000
23426795	58	517	0	-100	0	230	101300000	1000	0	0	-1	1000
23439355	65	507	0	-100	0	230	101300000	1000	0	0	-1	1000
23451915	58	509	0	-100	0	230	101300000	1000	0	0	-1	1000
23464475	55	515	0	-100	0	230	101300000	1000	0	0	-1	1000
23477035	63	510	0	-100	0	230	101300000	1000	0	0	-1	1000
23489595	60	510	0	-100	0	230	101300000	1000	0	0	-1	1000
23502155	60	518	0	-100	0	230	101300000	1000	0	0	-1	1000
23514715	65	509	0	-100	0	230	101300000	1000	0	0	-1	1000
23527275	60	507	0	-100	0	230	101300000	1000	0	0	-1	1000
23539835	58	510	0	-100	0	230	101300000	1000	0	0	-1	1000
23552395	55	515	0	-100	0	230	101300000	1000	0	0	-1	1000
23564955	58	511	0	-100	0	230	101300000	1000	0	0	-1	1000
23577515	60	510	0	-100	0	230	101300000	1000	0	0	-1	1000
23590075	55	511	0	-100	0	230	101300000	1000	0	0	-1	1000
23602635	55	517	0	-100	0	230	101300000	1000	0	0	-1	1000
23615195	58	511	0	-100	0	230	101300000	1000	0	0	-1	1000
23627755	60	508	0	-100	0	230	101300000	1000	0	0	-1	1000
23640315	58	511	0	-100	0	230	101300000	1000	0	0	-1	1000
23652875	55	512	0	-100	0	230	101300000	1000	0	0	-1	1000
23665435	62	505	0	-100	0	230	101300000	1000	0	0	-1	1000
23677995	60	509	0	-100	0	230	101300000	1000	0	0	-1	1000
23690555	60	512	0	-100	0	230	101300000	1000	0	0	-1	1000
23703115	55	516	0	-100	0	230	101300000	1000	0	0	-1	1000
23715675	55	511	0	-100	0	230	101300000	1000	0	0	-1	1000
23728235	60	508	0	-100	0	230	101300000	1000	0	0	-1	1000
23740795	60	508	0	-100	0	230	101300000	1000	0	0	-1	1000
23753355	58	512	0	-100	0	230	101300000	1000	0	0	-1	1000
23765915	58	514	0	-100	0	230	101300000	1000	0	0	-1	1000
23778475	62	507	0	-100	0	230	101300000	1000	0	0	-1	1000
23791035	58	510	0	-100	0	230	101300000	1000	0	0	-1	1000
23803595	55	514	0	-100	0	230	101300000	1000	0	0	-1	1000
23816155	70	511	0	-100	0	230	101300000	1000	0	0	-1	1000
23828715	60	509	0	-100	0	230	101300000	1000	0	0	-1	1000
23841275	55	514	0	-100	0	230	101300000	1000	0	0	-1	1000
23853835	55	514	0	-100	0	230	101300000	1000	0	0	-1	1000
23866395	60	509	0	-100	0	230	101300000	1000	0	0	-1	1000
23878955	62	506	0	-100	0	230	101300000	1000	0	0	-1	1000
23891515	62	509	0	-100	0	230	101300000	1000	0	0	-1	1000
23904075	58	511	0	-100	0	230	101300000	1000	0	0	-1	1000
23916635	58	516	0	-100	0	230	101300000	1000	0	0	-1	1000
23929195	63	511	0	-100	0	230	101300000	1000	0	0	-1	1000
23941755	58	517	0	-100	0	230	101300000	1000	0	0	-1	1000
23954315	62	506	0	-100	0	230	101300000	1000	0	0	-1	1000
23966875	55	512	0	-100	0	230	101300000	1000	0	0	-1	1000
23979435	65	510	0	-100	0	230	101300000	1000	0	0	-1	1000
23991995	55	507	0	-100	0	230	101300000	1000	0	0	-1	1000
24004555	55	513	0	-100	0	230	101300000	1000	0	0	-1	1000
24017115	60	510	0	-100	0	230	101300000	1000	0	0	-1	1000
24029675	55	512	0	-100	0	230	101300000	1000	0	0	-1	1000
24042235	55	515	0	-100	0	230	101300000	1000	0	0	-1	1000
24054795	53	514	0	-100	0	230	101300000	1000	0	0	-1	1000
24067355	65	510	0	-100	0	230	101300000	1000	0	0	-1	1000
24079915	60	509	0	-100	0	230	101300000	1000	0	0	-1	1000
24092475	55	510	0	-100	0	230	101300000	1000	0	0	-1	1000
24105035	55	512	0	-100	0	230	101300000	1000	0	0	-1	1000
24117595	58	515	0	-100	0	230	101300000	1000	0	0	-1	1000
24130155	63	516	0	-100	0	230	101300000	1000	0	0	-1	1000
24142715	65	510	0	-100	0	230	101300000	1000	0	0	-1	1000
24155275	60	508	0	-100	0	230	101300000	1000	0	0	-1	1000
24167835	58	509	0	-100	0	230	101300000	1000	0	0	-1	1000
24180395	58	518	0	-100	0	230	101300000	1000	0	0	-1	1000
24192955	55	515	0	-100	0	230	101300000	1000	0	0	-1	1000
24205515	55	512	0	-100	0	230	101300000	1000	0	0	-1	1000
24218075	60	508	0	-100	0	230	101300000	1000	0	0	-1	1000
24230635	62	508	0	-100	0	230	101300000	1000	0	0	-1	1000
24243195	55	511	0	-100	0	230	101300000	1000	0	0	-1	1000
24255755	55	516	0	-100	0	230	101300000	1000	0	0	-1	1000
24268315	60	506	0	-100	0	230	101300000	1000	0	0	-1	1000
24280875	55	512	0	-100	0	230	101300000	1000	0	0	-1	1000
24293435	58	515	0	-100	0	230	101300000	1000	0	0	-1	1000
24305995	63	515	0	-100	0	230	101300000	1000	0	0	-1	1000
24318555	58	509	0	-100	0	230	101300000	1000	0	0	-1	1000
24331115	55	515	0	-100	0	230	101300000	1000	0	0	-1	1000
24343675	58	509	0	-100	0	230	101300000	1000	0	0	-1	1000
24356235	60	509	0	-100	0	230	101300000	1000	0	0	-1	1000
24368795	55	512	0	-100	0	230	101300000	1000	0	0	-1	1000
24381355	55	515	0	-100	0	230	101300000	1000	0	0	-1	1000
24393915	65	509	0	-100	0	230	101300000	1000	0	0	-1	1000
24406475	60	508	0	-100	0	230	101300000	1000	0	0	-1	1000
24419035	55	517	0	-100	0	230	101300000	1000	0	0	-1	1000
24431595	53	513	0	-100	0	230	101300000	1000	0	0	-1	1000
24444155	70	510	0	-100	0	230	101300000	1000	0	0	-1	1000
24456715	60	508	0	-100	0	230	101300000	1000	0	0	-1	1000
24469275	58	513	0	-100	0	230	101300000	1000	0	0	-1	1000
24481835	55	514	0	-100	0	230	101300000	1000	0	0	-1	1000
24494395	65	507	0	-100	0	230	101300000	1000	0	0	-1	1000
24506955	55	513	0	-100	0	230	101300000	1000	0	0	-1	1000
24519515	55	512	0	-100	0	230	101300000	1000	0	0	-1	1000
24532075	60	509	0	-100	0	230	101300000	1000	0	0	-1	1000
24544635	55	514	0	-100	0	230	101300000	1000	0	0	-1	1000
24557195	65	510	0	-100	0	230	101300000	1000	0	0	-1	1000
24569755	63	508	0	-100	0	230	101300000	1000	0	0	-1	1000
24582315	58	516	0	-100	0	230	101300000	1000	0	0	-1	1000
24594875	58	509	0	-100	0	230	101300000	1000	0	0	-1	1000
24607435	63	509	0	-100	0	230	101300000	1000	0	0	-1	1000
24619995	55	508	0	-100	0	230	101300000	1000	0	0	-1	1000
24632555	65	509	0	-100	0	230	101300000	1000	0	0	-1	1000
24645115	58	514	0	-100	0	230	101300000	1000	0	0	-1	1000
24657675	63	510	0	-100	0	230	101300000	1000	0	0	-1	1000
24670235	55	509	0	-100	0	230	101300000	1000	0	0	-1	1000
24682795	55	515	0	-100	0	230	101300000	1000	0	0	-1	1000
24695355	63	508	0	-100	0	230	101300000	1000	0	0	-1	1000
24707915	58	513	0	-100	0	230	101300000	1000	0	0	-1	1000
24720475	58	508	0	-100	0	230	101300000	1000	0	0	-1	1000
24733035	60	508	0	-100	0	230	101300000	1000	0	0	-1	1000
24745595	53	516	0	-100	0	230	101300000	1000	0	0	-1	1000
24758155	70	512	0	-100	0	230	101300000	1000	0	0	-1	1000
24770715	58	509	0	-100	0	230	101300000	1000	0	0	-1	1000
24783275	55	516	0	-100	0	230	101300000	1000	0	0	-1	1000
24795835	58	509	0	-100	0	230	101300000	1000	0	0	-1	1000
24808395	60	507	0	-100	0	230	101300000	1000	0	0	-1	1000
24820955	55	515	0	-100	0	230	101300000	1000	0	0	-1	1000
24833515	63	508	0	-100	0	230	101300000	1000	0	0	-1	1000
24846075	55	512	0	-100	0	230	101300000	1000	0	0	-1	1000
24858635	55	512	0	-100	0	230	101300000	1000	0	0	-1	1000
24871195	60	508	0	-100	0	230	101300000	1000	0	0	-1	1000
24883755	58	513	0	-100	0	230	101300000	1000	0	0	-1	1000
24896315	55	515	0	-100	0	230	101300000	1000	0	0	-1	1000
24908875	62	507	0	-100	0	230	101300000	1000	0	0	-1	1000
24921435	55	507	0	-100	0	230	101300000	1000	0	0	-1	1000
24933995	55	508	0	-100	0	230	101300000	1000	0	0	-1	1000
24946555	58	509	0	-100	0	230	101300000	1000	0	0	-1	1000
24959115	62	509	0	-100	0	230	101300000	1000	0	0	-1	1000
24971675	55	512	0	-100	0	230	101300000	1000	0	0	-1	1000
24984235	55	516	0	-100	0	230	101300000	1000	0	0	-1	1000
24996795	63	510	0	-100	0	230	101300000	1000	0	0	-1	1000
25009355	58	508	0	-100	0	230	101300000	1000	0	0	-1	1000
25021915	55	516	0	-100	0	230	101300000	1000	0	0	-1	1000
25034475	63	507	0	-100	0	230	101300000	1000	0	0	-1	1000
25047035	55	509	0	-100	0	230	101300000	1000	0	0	-1	1000
25059595	55	517	0	-100	0	230	101300000	1000	0	0	-1	1000
25072155	63	514	0	-100	0	230	101300000	1000	0	0	-1	1000
25084715	60	508	0	-100	0	230	101300000	1000	0	0	-1	1000
25097275	55	512	0	-100	0	230	101300000	1000	0	0	-1	1000
25109835	55	513	0	-100	0	230	101300000	1000	0	0	-1	1000
25122395	60	509	0	-100	0	230	101300000	1000	0	0	-1	1000
25134955	55	513	0	-100	0	230	101300000	1000	0	0	-1	1000
25147515	55	514	0	-100	0	230	101300000	1000	0	0	-1	1000
25160075	63	510	0	-100	0	230	101300000	1000	0	0	-1	1000
25172635	58	508	0	-100	0	230	101300000	1000	0	0	-1	1000
25185195	55	517	0	-100	0	230	101300000	1000	0	0	-1	1000
25197755	55	512	0	-100	0	230	101300000	1000	0	0	-1	1000
25210315	65	508	0	-100	0	230	101300000	1000	0	0	-1	1000
25222875	55	508	0	-100	0	230	101300000	1000	0	0	-1	1000
25235435	55	516	0	-100	0	230	101300000	1000	0	0	-1	1000
25247995	58	514	0	-100	0	230	101300000	1000	0	0	-1	1000
25260555	62	508	0	-100	0	230	101300000	1000	0	0	-1	1000
25273115	58	508	0	-100	0	230	101300000	1000	0	0	-1	1000
25285675	58	517	0	-100	0	230	101300000	1000	0	0	-1	1000
25298235	58	511	0	-100	0	230	101300000	1000	0	0	-1	1000
25310795	60	508	0	-100	0	230	101300000	1000	0	0	-1	1000
25323355	58	513	0	-100	0	230	101300000	1000	0	0	-1	1000
25335915	58	516	0	-100	0	230	101300000	1000	0	0	-1	1000
25348475	65	510	0	-100	0	230	101300000	1000	0	0	-1	1000
25361035	60	508	0	-100	0	230	101300000	1000	0	0	-1	1000
25373595	55	517	0	-100	0	230	101300000	1000	0	0	-1	1000
25386155	67	511	0	-100	0	230	101300000	1000	0	0	-1	1000
25398715	55	513	0	-100	0	230	101300000	1000	0	0	-1	1000
25411275	53	512	0	-100	0	230	101300000	1000	0	0	-1	1000
25423835	60	508	0	-100	0	230	101300000	1000	0	0	-1	1000
25436395	58	514	0	-100	0	230	101300000	1000	0	0	-1	1000
25448955	55	516	0	-100	0	230	101300000	1000	0	0	-1	1000
25461515	65	509	0	-100	0	230	101300000	1000	0	0	-1	1000
25474075	62	509	0	-100	0	230	101300000	1000	0	0	-1	1000
25486635	58	513	0	-100	0	230	101300000	1000	0	0	-1	1000
25499195	53	515	0	-100	0	230	101300000	1000	0	0	-1	1000
25511755	58	513	0	-100	0	230	101300000	1000	0	0	-1	1000
25524315	65	509	0	-100	0	230	101300000	1000	0	0	-1	1000
25536875	63	508	0	-100	0	230	101300000	1000	0	0	-1	1000
25549435	58	509	0	-100	0	230	101300000	1000	0	0	-1	1000
25561995	55	507	0	-100	0	230	101300000	1000	0	0	-1	1000
25574555	55	515	0	-100	0	230	101300000	1000	0	0	-1	1000
25587115	55	511	0	-100	0	230	101300000	1000	0	0	-1	1000
25599675	63	510	0	-100	0	230	101300000	1000	0	0	-1	1000
25612235	63	508	0	-100	0	230	101300000	1000	0	0	-1	1000
25624795	60	507	0	-100	0	230	101300000	1000	0	0	-1	1000
25637355	58	508	0	-100	0	230	101300000	1000	0	0	-1	1000
25649915	55	512	0	-100	0	230	101300000	1000	0	0	-1	1000
25662475	58	515	0	-100	0	230	101300000	1000	0	0	-1	1000
25675035	55	517	0	-100	0	230	101300000	1000	0	0	-1	1000
25687595	55	514	0	-100	0	230	101300000	1000	0	0	-1	1000
25700155	63	517	0	-100	0	230	101300000	1000	0	0	-1	1000
25712715	55	514	0	-100	0	230	101300000	1000	0	0	-1	1000
25725275	55	511	0	-100	0	230	101300000	1000	0	0	-1	1000
25737835	55	512	0	-100	0	230	101300000	1000	0	0	-1	1000
25750395	58	511	0	-100	0	230	101300000	1000	0	0	-1	1000
25762955	60	510	0	-100	0	230	101300000	1000	0	0	-1	1000
25775515	62	507	0	-100	0	230	101300000	1000	0	0	-1	1000
25788075	63	508	0	-100	0	230	101300000	1000	0	0	-1	1000
25800635	60	509	0	-100	0	230	101300000	1000	0	0	-1	1000
25813195	62	508	0	-100	0	230	101300000	1000	0	0	-1	1000
25825755	62	508	0	-100	0	230	101300000	1000	0	0	-1	1000
25838315	63	508	0	-100	0	230	101300000	1000	0	0	-1	1000
25850875	58	509	0	-100	0	230	101300000	1000	0	0	-1	1000
25863435	58	513	0	-100	0	230	101300000	1000	0	0	-1	1000
25875995	58	508	0	-100	0	230	101300000	1000	0	0	-1	1000
25888555	55	516	0	-100	0	230	101300000	1000	0	0	-1	1000
25901115	60	509	0	-100	0	230	101300000	1000	0	0	-1	1000
25913675	65	508	0	-100	0	230	101300000	1000	0	0	-1	1000
25926235	60	509	0	-100	0	230	101300000	1000	0	0	-1	1000
25938795	55	512	0	-100	0	230	101300000	1000	0	0	-1	1000
25951355	55	514	0	-100	0	230	101300000	1000	0	0	-1	1000
25963915	62	506	0	-100	0	230	101300000	1000	0	0	-1	1000
25976475	55	511	0	-100	0	230	101300000	1000	0	0	-1	1000
25989035	55	514	0	-100	0	230	101300000	1000	0	0	-1	1000
26001595	60	509	0	-100	0	230	101300000	1000	0	0	-1	1000
26014155	60	515	0	-100	0	230	101300000	1000	0	0	-1	1000
26026715	58	509	0	-100	0	230	101300000	1000	0	0	-1	1000
26039275	60	507	0	-100	0	230	101300000	1000	0	0	-1	1000
26051835	55	516	0	-100	0	230	101300000	1000	0	0	-1	1000
26064395	63	510	0	-100	0	230	101300000	1000	0	0	-1	1000
26076955	58	509	0	-100	0	230	101300000	1000	0	0	-1	1000
26089515	58	517	0	-100	0	230	101300000	1000	0	0	-1	1000
26102075	53	513	0	-100	0	230	101300000	1000	0	0	-1	1000
26114635	62	507	0	-100	0	230	101300000	1000	0	0	-1	1000
26127195	60	508	0	-100	0	230	101300000	1000	0	0	-1	1000
26139755	58	514	0	-100	0	230	101300000	1000	0	0	-1	1000
26152315	55	512	0	-100	0	230	101300000	1000	0	0	-1	1000
26164875	62	509	0	-100	0	230	101300000	1000	0	0	-1	1000
26177435	55	512	0	-100	0	230	101300000	1000	0	0	-1	1000
26189995	58	508	0	-100	0	230	101300000	1000	0	0	-1	1000
26202555	58	511	0	-100	0	230	101300000	1000	0	0	-1	1000
26215115	63	505	0	-100	0	230	101300000	1000	0	0	-1	1000
26227675	60	509	0	-100	0	230	101300000	1000	0	0	-1	1000
26240235	58	518	0	-100	0	230	101300000	1000	0	0	-1	1000
26252795	53	513	0	-100	0	230	101300000	1000	0	0	-1	1000
26265355	63	504	0	-100	0	230	101300000	1000	0	0	-1	1000
26277915	55	511	0	-100	0	230	101300000	1000	0	0	-1	1000
26290475	53	513	0	-100	0	230	101300000	1000	0	0	-1	1000
26303035	62	508	0	-100	0	230	101300000	1000	0	0	-1	1000
26315595	60	508	0	-100	0	230	101300000	1000	0	0	-1	1000
26328155	63	518	0	-100	0	230	101300000	1000	0	0	-1	1000
26340715	55	512	0	-100	0	230	101300000	1000	0	0	-1	1000
26353275	62	506	0	-100	0	230	101300000	1000	0	0	-1	1000
26365835	60	509	0	-100	0	230	101300000	1000	0	0	-1	1000
26378395	55	514	0	-100	0	230	101300000	1000	0	0	-1	1000
26390955	60	509	0	-100	0	230	101300000	1000	0	0	-1	1000
26403515	60	509	0	-100	0	230	101300000	1000	0	0	-1	1000
26416075	55	516	0	-100	0	230	101300000	1000	0	0	-1	1000
26428635	60	509	0	-100	0	230	101300000	1000	0	0	-1	1000
26441195	62	511	0	-100	0	230	101300000	1000	0	0	-1	1000
26453755	58	518	0	-100	0	230	101300000	1000	0	0	-1	1000
26466315	63	509	0	-100	0	230	101300000	1000	0	0	-1	1000
26478875	60	509	0	-100	0	230	101300000	1000	0	0	-1	1000
26491435	55	515	0	-100	0	230	101300000	1000	0	0	-1	1000
26503995	58	516	0	-100	0	230	101300000	1000	0	0	-1	1000
26516555	60	508	0	-100	0	230	101300000	1000	0	0	-1	1000
26529115	53	512	0	-100	0	230	101300000	1000	0	0	-1	1000
26541675	53	513	0	-100	0	230	101300000	1000	0	0	-1	1000
26554235	62	507	0	-100	0	230	101300000	1000	0	0	-1	1000
26566795	60	510	0	-100	0	230	101300000	1000	0	0	-1	1000
26579355	58	513	0	-100	0	230	101300000	1000	0	0	-1	1000
26591915	55	514	0	-100	0	230	101300000	1000	0	0	-1	1000
26604475	62	506	0	-100	0	230	101300000	1000	0	0	-1	1000
26617035	58	509	0	-100	0	230	101300000	1000	0	0	-1	1000
26629595	55	515	0	-100	0	230	101300000	1000	0	0	-1	1000
26642155	63	513	0	-100	0	230	101300000	1000	0	0	-1	1000
26654715	65	509	0	-100	0	230	101300000	1000	0	0	-1	1000
26667275	60	508	0	-100	0	230	101300000	1000	0	0	-1	1000
26679835	58	511	0	-100	0	230	101300000	1000	0	0	-1	1000
26692395	58	515	0	-100	0	230	101300000	1000	0	0	-1	1000
26704955	58	509	0	-100	0	230	101300000	1000	0	0	-1	1000
26717515	62	508	0	-100	0	230	101300000	1000	0	0	-1	1000
26730075	55	513	0	-100	0	230	101300000	1000	0	0	-1	1000
26742635	55	514	0	-100	0	230	101300000	1000	0	0	-1	1000
26755195	62	507	0	-100	0	230	101300000	1000	0	0	-1	1000
26767755	58	508	0	-100	0	230	101300000	1000	0	0	-1	1000
26780315	58	517	0	-100	0	230	101300000	1000	0	0	-1	1000
26792875	53	516	0	-100	0	230	101300000	1000	0	0	-1	1000
26805435	60	511	0	-100	0	230	101300000	1000	0	0	-1	1000
26817995	65	512	0	-100	0	230	101300000	1000	0	0	-1	1000
26830555	60	509	0	-100	0	230	101300000	1000	0	0	-1	1000
26843115	58	516	0	-100	0	230	101300000	1000	0	0	-1	1000
26855675	55	513	0	-100	0	230	101300000	1000	0	0	-1	1000
26868235	65	509	0	-100	0	230	101300000	1000	0	0	-1	1000
26880795	63	509	0	-100	0	230	101300000	1000	0	0	-1	1000
26893355	55	509	0	-100	0	230	101300000	1000	0	0	-1	1000
26905915	58	517	0	-100	0	230	101300000	1000	0	0	-1	1000
26918475	60	509	0	-100	0	230	101300000	1000	0	0	-1	1000
26931035	63	508	0	-100	0	230	101300000	1000	0	0	-1	1000
26943595	60	508	0	-100	0	230	101300000	1000	0	0	-1	1000
26956155	60	516	0	-100	0	230	101300000	1000	0	0	-1	1000
26968715	60	516	0	-100	0	230	101300000	1000	0	0	-1	1000
26981275	55	515	0	-100	0	230	101300000	1000	0	0	-1	1000
26993835	55	512	0	-100	0	230	101300000	1000	0	0	-1	1000
27006395	60	510	0	-100	0	230	101300000	1000	0	0	-1	1000
27018955	65	506	0	-100	0	230	101300000	1000	0	0	-1	1000
27031515	60	511	0	-100	0	230	101300000	1000	0	0	-1	1000
27044075	60	508	0	-100	0	230	101300000	1000	0	0	-1	1000
