timestamp	voltage	current	windSpeed	pitchAngle	rpm	temperature	ambientPressure	humidity	accelerationX	accelerationY	accelerationZ	currentSink
7038070	2008	0	0	-100	0	230	101300000	1000	0	0	-1	0
7045523	2008	0	0	-100	0	230	101300000	1000	0	0	-1	0
7058083	2004	3	0	-100	0	230	101300000	1000	0	0	-1	0
7070643	2007	0	0	-100	0	230	101300000	1000	0	0	-1	0
7083203	1999	1	0	-100	0	230	101300000	1000	0	0	-1	0
7095763	1999	0	0	-100	0	230	101300000	1000	0	0	-1	0
7108323	2006	0	0	-100	0	230	101300000	1000	0	0	-1	0
7120883	1999	4	0	-100	0	230	101300000	1000	0	0	-1	0
7133443	2004	0	0	-100	0	230	101300000	1000	0	0	-1	0
7146004	2002	0	0	-100	0	230	101300000	1000	0	0	-1	0
7158563	2006	0	0	-100	0	230	101300000	1000	0	0	-1	0
7171123	1999	2	0	-100	0	230	101300000	1000	0	0	-1	0
7183683	2001	0	0	-100	0	230	101300000	1000	0	0	-1	0
7196243	2002	0	0	-100	0	230	101300000	1000	0	0	-1	0
7208803	2001	0	0	-100	0	230	101300000	1000	0	0	-1	0
7221363	2001	0	0	-100	0	230	101300000	1000	0	0	-1	0
7233923	2002	0	0	-100	0	230	101300000	1000	0	0	-1	0
7246483	1998	3	0	-100	0	230	101300000	1000	0	0	-1	0
7259043	2007	0	0	-100	0	230	101300000	1000	0	0	-1	0
7271603	1998	4	0	-100	0	230	101300000	1000	0	0	-1	0
7284163	2005	0	0	-100	0	230	101300000	1000	0	0	-1	0
7296723	2000	0	0	-100	0	230	101300000	1000	0	0	-1	0
7309283	2002	1	0	-100	0	230	101300000	1000	0	0	-1	0
7321843	2004	0	0	-100	0	230	101300000	1000	0	0	-1	0
7334403	1999	3	0	-100	0	230	101300000	1000	0	0	-1	0
7346963	2009	0	0	-100	0	230	101300000	1000	0	0	-1	0
7677555	0	48	0	-100	0	230	101300000	1000	0	0	-1	1000
7690115	0	50	0	-100	0	230	101300000	1000	0	0	-1	1000
7702675	0	49	0	-100	0	230	101300000	1000	0	0	-1	1000
7715235	0	46	0	-100	0	230	101300000	1000	0	0	-1	1000
7727795	2	47	0	-100	0	230	101300000	1000	0	0	-1	1000
7740355	0	45	0	-100	0	230	101300000	1000	0	0	-1	1000
7752915	0	50	0	-100	0	230	101300000	1000	0	0	-1	1000
7765475	0	50	0	-100	0	230	101300000	1000	0	0	-1	1000
7778035	0	47	0	-100	0	230	101300000	1000	0	0	-1	1000
7790595	0	53	0	-100	0	230	101300000	1000	0	0	-1	1000
7803155	0	50	0	-100	0	230	101300000	1000	0	0	-1	1000
7815715	0	49	0	-100	0	230	101300000	1000	0	0	-1	1000
7828275	0	49	0	-100	0	230	101300000	1000	0	0	-1	1000
7840835	0	54	0	-100	0	230	101300000	1000	0	0	-1	1000
7853395	0	47	0	-100	0	230	101300000	1000	0	0	-1	1000
7865955	0	47	0	-100	0	230	101300000	1000	0	0	-1	1000
7878515	0	50	0	-100	0	230	101300000	1000	0	0	-1	1000
7891075	0	52	0	-100	0	230	101300000	1000	0	0	-1	1000
7903635	0	47	0	-100	0	230	101300000	1000	0	0	-1	1000
7916195	0	50	0	-100	0	230	101300000	1000	0	0	-1	1000
7928755	0	50	0	-100	0	230	101300000	1000	0	0	-1	1000
7941315	0	48	0	-100	0	230	101300000	1000	0	0	-1	1000
7953875	2	46	0	-100	0	230	101300000	1000	0	0	-1	1000
7966435	0	46	0	-100	0	230	101300000	1000	0	0	-1	1000
7978995	0	47	0	-100	0	230	101300000	1000	0	0	-1	1000
7991555	0	46	0	-100	0	230	101300000	1000	0	0	-1	1000
8004115	0	54	0	-100	0	230	101300000	1000	0	0	-1	1000
8016675	0	48	0	-100	0	230	101300000	1000	0	0	-1	1000
8029235	0	54	0	-100	0	230	101300000	1000	0	0	-1	1000
8041795	0	47	0	-100	0	230	101300000	1000	0	0	-1	1000
8054355	0	50	0	-100	0	230	101300000	1000	0	0	-1	1000
8066915	0	48	0	-100	0	230	101300000	1000	0	0	-1	1000
8079475	0	47	0	-100	0	230	101300000	1000	0	0	-1	1000
8092035	0	52	0	-100	0	230	101300000	1000	0	0	-1	1000
8104595	0	47	0	-100	0	230	101300000	1000	0	0	-1	1000
8117155	0	50	0	-100	0	230	101300000	1000	0	0	-1	1000
8129715	0	51	0	-100	0	230	101300000	1000	0	0	-1	1000
8142275	0	43	0	-100	0	230	101300000	1000	0	0	-1	1000
8154835	0	47	0	-100	0	230	101300000	1000	0	0	-1	1000
8167395	0	52	0	-100	0	230	101300000	1000	0	0	-1	1000
8179955	0	51	0	-100	0	230	101300000	1000	0	0	-1	1000
8192515	0	47	0	-100	0	230	101300000	1000	0	0	-1	1000
8205075	0	48	0	-100	0	230	101300000	1000	0	0	-1	1000
8217635	0	52	0	-100	0	230	101300000	1000	0	0	-1	1000
8230195	0	48	0	-100	0	230	101300000	1000	0	0	-1	1000
8242755	0	54	0	-100	0	230	101300000	1000	0	0	-1	1000
8255315	0	49	0	-100	0	230	101300000	1000	0	0	-1	1000
8267875	0	46	0	-100	0	230	101300000	1000	0	0	-1	1000
8280435	0	53	0	-100	0	230	101300000	1000	0	0	-1	1000
8292995	0	52	0	-100	0	230	101300000	1000	0	0	-1	1000
8305555	0	50	0	-100	0	230	101300000	1000	0	0	-1	1000
8318115	0	50	0	-100	0	230	101300000	1000	0	0	-1	1000
8330675	0	48	0	-100	0	230	101300000	1000	0	0	-1	1000
8343235	0	48	0	-100	0	230	101300000	1000	0	0	-1	1000
8355795	0	54	0	-100	0	230	101300000	1000	0	0	-1	1000
8368355	0	50	0	-100	0	230	101300000	1000	0	0	-1	1000
8380915	0	46	0	-100	0	230	101300000	1000	0	0	-1	1000
8393475	0	46	0	-100	0	230	101300000	1000	0	0	-1	1000
8406035	0	53	0	-100	0	230	101300000	1000	0	0	-1	1000
8418595	0	48	0	-100	0	230	101300000	1000	0	0	-1	1000
8431155	0	46	0	-100	0	230	101300000	1000	0	0	-1	1000
8443715	2	47	0	-100	0	230	101300000	1000	0	0	-1	1000
8456275	0	46	0	-100	0	230	101300000	1000	0	0	-1	1000
8468835	0	52	0	-100	0	230	101300000	1000	0	0	-1	1000
8481395	0	50	0	-100	0	230	101300000	1000	0	0	-1	1000
8493955	0	46	0	-100	0	230	101300000	1000	0	0	-1	1000
8506515	0	54	0	-100	0	230	101300000	1000	0	0	-1	1000
8519075	0	47	0	-100	0	230	101300000	1000	0	0	-1	1000
8531635	0	47	0	-100	0	230	101300000	1000	0	0	-1	1000
8544195	0	54	0	-100	0	230	101300000	1000	0	0	-1	1000
8556755	0	49	0	-100	0	230	101300000	1000	0	0	-1	1000
8569315	0	48	0	-100	0	230	101300000	1000	0	0	-1	1000
8581875	0	54	0	-100	0	230	101300000	1000	0	0	-1	1000
8594435	0	45	0	-100	0	230	101300000	1000	0	0	-1	1000
8606995	0	46	0	-100	0	230	101300000	1000	0	0	-1	1000
8619555	0	51	0	-100	0	230	101300000	1000	0	0	-1	1000
8632115	0	47	0	-100	0	230	101300000	1000	0	0	-1	1000
8644675	0	50	0	-100	0	230	101300000	1000	0	0	-1	1000
8657235	0	54	0	-100	0	230	101300000	1000	0	0	-1	1000
8669795	2	45	0	-100	0	230	101300000	1000	0	0	-1	1000
8682355	0	47	0	-100	0	230	101300000	1000	0	0	-1	1000
8694915	0	50	0	-100	0	230	101300000	1000	0	0	-1	1000
8707475	0	53	0	-100	0	230	101300000	1000	0	0	-1	1000
8720035	0	45	0	-100	0	230	101300000	1000	0	0	-1	1000
8732595	0	50	0	-100	0	230	101300000	1000	0	0	-1	1000
8745155	0	48	0	-100	0	230	101300000	1000	0	0	-1	1000
8757715	0	47	0	-100	0	230	101300000	1000	0	0	-1	1000
8770275	0	54	0	-100	0	230	101300000	1000	0	0	-1	1000
8782835	0	49	0	-100	0	230	101300000	1000	0	0	-1	1000
8795395	0	46	0	-100	0	230	101300000	1000	0	0	-1	1000
8807955	0	50	0	-100	0	230	101300000	1000	0	0	-1	1000
8820515	0	51	0	-100	0	230	101300000	1000	0	0	-1	1000
8833075	0	46	0	-100	0	230	101300000	1000	0	0	-1	1000
8845635	0	50	0	-100	0	230	101300000	1000	0	0	-1	1000
8858195	2	46	0	-100	0	230	101300000	1000	0	0	-1	1000
8870755	0	46	0	-100	0	230	101300000	1000	0	0	-1	1000
8883315	0	47	0	-100	0	230	101300000	1000	0	0	-1	1000
8895875	2	48	0	-100	0	230	101300000	1000	0	0	-1	1000
8908435	0	47	0	-100	0	230	101300000	1000	0	0	-1	1000
8920995	0	46	0	-100	0	230	101300000	1000	0	0	-1	1000
8933555	0	54	0	-100	0	230	101300000	1000	0	0	-1	1000
8946115	0	48	0	-100	0	230	101300000	1000	0	0	-1	1000
8958675	0	45	0	-100	0	230	101300000	1000	0	0	-1	1000
8971235	0	50	0	-100	0	230	101300000	1000	0	0	-1	1000
8983795	0	51	0	-100	0	230	101300000	1000	0	0	-1	1000
8996355	0	46	0	-100	0	230	101300000	1000	0	0	-1	1000
9008915	0	52	0	-100	0	230	101300000	1000	0	0	-1	1000
9021475	0	50	0	-100	0	230	101300000	1000	0	0	-1	1000
9034035	0	48	0	-100	0	230	101300000	1000	0	0	-1	1000
9046595	0	50	0	-100	0	230	101300000	1000	0	0	-1	1000
9059155	0	48	0	-100	0	230	101300000	1000	0	0	-1	1000
9071715	0	46	0	-100	0	230	101300000	1000	0	0	-1	1000
9084275	0	53	0	-100	0	230	101300000	1000	0	0	-1	1000
9096835	0	47	0	-100	0	230	101300000	1000	0	0	-1	1000
9109395	0	54	0	-100	0	230	101300000	1000	0	0	-1	1000
9121955	0	47	0	-100	0	230	101300000	1000	0	0	-1	1000
9134515	0	46	0	-100	0	230	101300000	1000	0	0	-1	1000
9147075	2	46	0	-100	0	230	101300000	1000	0	0	-1	1000
9159635	0	47	0	-100	0	230	101300000	1000	0	0	-1	1000
9172195	0	52	0	-100	0	230	101300000	1000	0	0	-1	1000
9184755	0	47	0	-100	0	230	101300000	1000	0	0	-1	1000
9197315	0	46	0	-100	0	230	101300000	1000	0	0	-1	1000
9209875	0	54	0	-100	0	230	101300000	1000	0	0	-1	1000
9222435	0	48	0	-100	0	230	101300000	1000	0	0	-1	1000
9234995	0	46	0	-100	0	230	101300000	1000	0	0	-1	1000
9247555	0	50	0	-100	0	230	101300000	1000	0	0	-1	1000
9260115	0	45	0	-100	0	230	101300000	1000	0	0	-1	1000
9272675	0	51	0	-100	0	230	101300000	1000	0	0	-1	1000
9285235	0	47	0	-100	0	230	101300000	1000	0	0	-1	1000
9297795	0	50	0	-100	0	230	101300000	1000	0	0	-1	1000
9310355	0	49	0	-100	0	230	101300000	1000	0	0	-1	1000
9322915	0	47	0	-100	0	230	101300000	1000	0	0	-1	1000
9335475	0	50	0	-100	0	230	101300000	1000	0	0	-1	1000
9348035	0	47	0	-100	0	230	101300000	1000	0	0	-1	1000
9360595	0	54	0	-100	0	230	101300000	1000	0	0	-1	1000
9373155	0	47	0	-100	0	230	101300000	1000	0	0	-1	1000
9385715	0	55	0	-100	0	230	101300000	1000	0	0	-1	1000
9398275	0	47	0	-100	0	230	101300000	1000	0	0	-1	1000
9410835	0	50	0	-100	0	230	101300000	1000	0	0	-1	1000
9423395	0	51	0	-100	0	230	101300000	1000	0	0	-1	1000
9435955	0	47	0	-100	0	230	101300000	1000	0	0	-1	1000
9448515	2	46	0	-100	0	230	101300000	1000	0	0	-1	1000
9461075	0	48	0	-100	0	230	101300000	1000	0	0	-1	1000
9473635	0	56	0	-100	0	230	101300000	1000	0	0	-1	1000
9486195	0	46	0	-100	0	230	101300000	1000	0	0	-1	1000
9498755	0	50	0	-100	0	230	101300000	1000	0	0	-1	1000
9511315	0	52	0	-100	0	230	101300000	1000	0	0	-1	1000
9523875	0	46	0	-100	0	230	101300000	1000	0	0	-1	1000
9536435	0	54	0	-100	0	230	101300000	1000	0	0	-1	1000
9548995	0	54	0	-100	0	230	101300000	1000	0	0	-1	1000
9561555	0	46	0	-100	0	230	101300000	1000	0	0	-1	1000
9574115	0	54	0	-100	0	230	101300000	1000	0	0	-1	1000
9586675	0	46	0	-100	0	230	101300000	1000	0	0	-1	1000
9599235	0	47	0	-100	0	230	101300000	1000	0	0	-1	1000
9611795	0	53	0	-100	0	230	101300000	1000	0	0	-1	1000
9624355	2	47	0	-100	0	230	101300000	1000	0	0	-1	1000
9636915	0	45	0	-100	0	230	101300000	1000	0	0	-1	1000
9649475	0	51	0	-100	0	230	101300000	1000	0	0	-1	1000
9662035	2	46	0	-100	0	230	101300000	1000	0	0	-1	1000
9674595	0	45	0	-100	0	230	101300000	1000	0	0	-1	1000
9687155	0	47	0	-100	0	230	101300000	1000	0	0	-1	1000
9699715	0	50	0	-100	0	230	101300000	1000	0	0	-1	1000
9712275	0	46	0	-100	0	230	101300000	1000	0	0	-1	1000
9724835	0	54	0	-100	0	230	101300000	1000	0	0	-1	1000
9737395	0	48	0	-100	0	230	101300000	1000	0	0	-1	1000
9749955	0	46	0	-100	0	230	101300000	1000	0	0	-1	1000
9762515	0	54	0	-100	0	230	101300000	1000	0	0	-1	1000
9775075	0	46	0	-100	0	230	101300000	1000	0	0	-1	1000
9787635	0	51	0	-100	0	230	101300000	1000	0	0	-1	1000
9800195	0	46	0	-100	0	230	101300000	1000	0	0	-1	1000
9812755	0	49	0	-100	0	230	101300000	1000	0	0	-1	1000
9825315	0	50	0	-100	0	230	101300000	1000	0	0	-1	1000
9837875	0	46	0	-100	0	230	101300000	1000	0	0	-1	1000
9850435	0	51	0	-100	0	230	101300000	1000	0	0	-1	1000
9862995	0	49	0	-100	0	230	101300000	1000	0	0	-1	1000
9875555	0	54	0	-100	0	230	101300000	1000	0	0	-1	1000
9888115	0	44	0	-100	0	230	101300000	1000	0	0	-1	1000
9900675	0	52	0	-100	0	230	101300000	1000	0	0	-1	1000
9913235	0	48	0	-100	0	230	101300000	1000	0	0	-1	1000
9925795	0	48	0	-100	0	230	101300000	1000	0	0	-1	1000
9938355	0	51	0	-100	0	230	101300000	1000	0	0	-1	1000
9950915	0	46	0	-100	0	230	101300000	1000	0	0	-1	1000
9963475	0	51	0	-100	0	230	101300000	1000	0	0	-1	1000
9976035	0	47	0	-100	0	230	101300000	1000	0	0	-1	1000
9988595	2	47	0	-100	0	230	101300000	1000	0	0	-1	1000
10001155	0	46	0	-100	0	230	101300000	1000	0	0	-1	1000
10013715	0	51	0	-100	0	230	101300000	1000	0	0	-1	1000
10026275	0	47	0	-100	0	230	101300000	1000	0	0	-1	1000
10038835	0	48	0	-100	0	230	101300000	1000	0	0	-1	1000
10051395	0	50	0	-100	0	230	101300000	1000	0	0	-1	1000
10063955	0	46	0	-100	0	230	101300000	1000	0	0	-1	1000
10076515	0	54	0	-100	0	230	101300000	1000	0	0	-1	1000
10089075	0	46	0	-100	0	230	101300000	1000	0	0	-1	1000
10101635	0	50	0	-100	0	230	101300000	1000	0	0	-1	1000
10114195	0	48	0	-100	0	230	101300000	1000	0	0	-1	1000
10126755	0	50	0	-100	0	230	101300000	1000	0	0	-1	1000
10139315	0	50	0	-100	0	230	101300000	1000	0	0	-1	1000
10151875	0	46	0	-100	0	230	101300000	1000	0	0	-1	1000
10164435	0	52	0	-100	0	230	101300000	1000	0	0	-1	1000
10176995	0	47	0	-100	0	230	101300000	1000	0	0	-1	1000
10189555	0	51	0	-100	0	230	101300000	1000	0	0	-1	1000
10202115	0	47	0	-100	0	230	101300000	1000	0	0	-1	1000
10214675	0	53	0	-100	0	230	101300000	1000	0	0	-1	1000
10227235	0	49	0	-100	0	230	101300000	1000	0	0	-1	1000
10239795	2	47	0	-100	0	230	101300000	1000	0	0	-1	1000
10252355	0	47	0	-100	0	230	101300000	1000	0	0	-1	1000
10264915	0	53	0	-100	0	230	101300000	1000	0	0	-1	1000
10277475	0	46	0	-100	0	230	101300000	1000	0	0	-1	1000
10290035	0	50	0	-100	0	230	101300000	1000	0	0	-1	1000
10302595	0	53	0	-100	0	230	101300000	1000	0	0	-1	1000
10315155	0	48	0	-100	0	230	101300000	1000	0	0	-1	1000
10327715	2	46	0	-100	0	230	101300000	1000	0	0	-1	1000
10340275	0	50	0	-100	0	230	101300000	1000	0	0	-1	1000
10352835	0	46	0	-100	0	230	101300000	1000	0	0	-1	1000
10365395	0	48	0	-100	0	230	101300000	1000	0	0	-1	1000
10377955	0	55	0	-100	0	230	101300000	1000	0	0	-1	1000
10390515	0	46	0	-100	0	230	101300000	1000	0	0	-1	1000
10403075	0	47	0	-100	0	230	101300000	1000	0	0	-1	1000
10415635	0	50	0	-100	0	230	101300000	1000	0	0	-1	1000
10428195	0	50	0	-100	0	230	101300000	1000	0	0	-1	1000
10440755	0	48	0	-100	0	230	101300000	1000	0	0	-1	1000
10453315	0	54	0	-100	0	230	101300000	1000	0	0	-1	1000
10465875	0	49	0	-100	0	230	101300000	1000	0	0	-1	1000
10478435	0	46	0	-100	0	230	101300000	1000	0	0	-1	1000
10490995	0	50	0	-100	0	230	101300000	1000	0	0	-1	1000
10503555	0	46	0	-100	0	230	101300000	1000	0	0	-1	1000
10516115	0	54	0	-100	0	230	101300000	1000	0	0	-1	1000
10528675	0	47	0	-100	0	230	101300000	1000	0	0	-1	1000
10541235	0	48	0	-100	0	230	101300000	1000	0	0	-1	1000
10553795	0	47	0	-100	0	230	101300000	1000	0	0	-1	1000
10566355	0	47	0	-100	0	230	101300000	1000	0	0	-1	1000
10578915	0	54	0	-100	0	230	101300000	1000	0	0	-1	1000
10591475	0	48	0	-100	0	230	101300000	1000	0	0	-1	1000
10604035	0	46	0	-100	0	230	101300000	1000	0	0	-1	1000
10616595	0	56	0	-100	0	230	101300000	1000	0	0	-1	1000
10629155	0	47	0	-100	0	230	101300000	1000	0	0	-1	1000
10641715	0	51	0	-100	0	230	101300000	1000	0	0	-1	1000
10654275	0	50	0	-100	0	230	101300000	1000	0	0	-1	1000
10666835	0	46	0	-100	0	230	101300000	1000	0	0	-1	1000
10679395	0	51	0	-100	0	230	101300000	1000	0	0	-1	1000
10691955	0	50	0	-100	0	230	101300000	1000	0	0	-1	1000
10704515	0	47	0	-100	0	230	101300000	1000	0	0	-1	1000
10717075	0	54	0	-100	0	230	101300000	1000	0	0	-1	1000
10729635	0	48	0	-100	0	230	101300000	1000	0	0	-1	1000
10742195	0	50	0	-100	0	230	101300000	1000	0	0	-1	1000
10754755	0	48	0	-100	0	230	101300000	1000	0	0	-1	1000
10767315	0	46	0	-100	0	230	101300000	1000	0	0	-1	1000
10779875	2	48	0	-100	0	230	101300000	1000	0	0	-1	1000
10792435	0	48	0	-100	0	230	101300000	1000	0	0	-1	1000
10804995	0	46	0	-100	0	230	101300000	1000	0	0	-1	1000
10817555	0	47	0	-100	0	230	101300000	1000	0	0	-1	1000
10830115	0	48	0	-100	0	230	101300000	1000	0	0	-1	1000
10842675	0	54	0	-100	0	230	101300000	1000	0	0	-1	1000
10855235	0	46	0	-100	0	230	101300000	1000	0	0	-1	1000
10867795	0	50	0	-100	0	230	101300000	1000	0	0	-1	1000
10880355	0	50	0	-100	0	230	101300000	1000	0	0	-1	1000
10892915	0	47	0	-100	0	230	101300000	1000	0	0	-1	1000
10905475	0	53	0	-100	0	230	101300000	1000	0	0	-1	1000
10918035	0	45	0	-100	0	230	101300000	1000	0	0	-1	1000
10930595	0	50	0	-100	0	230	101300000	1000	0	0	-1	1000
10943155	0	50	0	-100	0	230	101300000	1000	0	0	-1	1000
10955715	0	47	0	-100	0	230	101300000	1000	0	0	-1	1000
10968275	0	53	0	-100	0	230	101300000	1000	0	0	-1	1000
10980835	0	48	0	-100	0	230	101300000	1000	0	0	-1	1000
11018515	0	46	0	-100	0	230	101300000	1000	0	0	-1	1000
11031075	0	47	0	-100	0	230	101300000	1000	0	0	-1	1000
11043635	0	54	0	-100	0	230	101300000	1000	0	0	-1	1000
11056195	0	47	0	-100	0	230	101300000	1000	0	0	-1	1000
11068755	0	48	0	-100	0	230	101300000	1000	0	0	-1	1000
11081315	0	54	0	-100	0	230	101300000	1000	0	0	-1	1000
11093875	0	48	0	-100	0	230	101300000	1000	0	0	-1	1000
11106435	0	46	0	-100	0	230	101300000	1000	0	0	-1	1000
11118995	0	46	0	-100	0	230	101300000	1000	0	0	-1	1000
11131555	2	46	0	-100	0	230	101300000	1000	0	0	-1	1000
11144115	0	48	0	-100	0	230	101300000	1000	0	0	-1	1000
11156675	0	54	0	-100	0	230	101300000	1000	0	0	-1	1000
11169235	0	44	0	-100	0	230	101300000	1000	0	0	-1	1000
11181795	0	54	0	-100	0	230	101300000	1000	0	0	-1	1000
11194355	0	49	0	-100	0	230	101300000	1000	0	0	-1	1000
11206915	0	55	0	-100	0	230	101300000	1000	0	0	-1	1000
11219475	0	46	0	-100	0	230	101300000	1000	0	0	-1	1000
11232035	0	51	0	-100	0	230	101300000	1000	0	0	-1	1000
11244595	0	50	0	-100	0	230	101300000	1000	0	0	-1	1000
11257155	0	46	0	-100	0	230	101300000	1000	0	0	-1	1000
11269715	0	54	0	-100	0	230	101300000	1000	0	0	-1	1000
11282275	0	44	0	-100	0	230	101300000	1000	0	0	-1	1000
11294835	0	56	0	-100	0	230	101300000	1000	0	0	-1	1000
11307395	0	46	0	-100	0	230	101300000	1000	0	0	-1	1000
11319955	0	48	0	-100	0	230	101300000	1000	0	0	-1	1000
11332515	0	51	0	-100	0	230	101300000	1000	0	0	-1	1000
11345075	0	47	0	-100	0	230	101300000	1000	0	0	-1	1000
11357635	0	54	0	-100	0	230	101300000	1000	0	0	-1	1000
11370195	0	47	0	-100	0	230	101300000	1000	0	0	-1	1000
11382755	0	47	0	-100	0	230	101300000	1000	0	0	-1	1000
11395315	0	54	0	-100	0	230	101300000	1000	0	0	-1	1000
11407875	0	46	0	-100	0	230	101300000	1000	0	0	-1	1000
11420435	0	51	0	-100	0	230	101300000	1000	0	0	-1	1000
11432995	0	50	0	-100	0	230	101300000	1000	0	0	-1	1000
11445555	0	46	0	-100	0	230	101300000	1000	0	0	-1	1000
11458115	0	54	0	-100	0	230	101300000	1000	0	0	-1	1000
11470675	0	47	0	-100	0	230	101300000	1000	0	0	-1	1000
11483235	0	46	0	-100	0	230	101300000	1000	0	0	-1	1000
11495795	0	54	0	-100	0	230	101300000	1000	0	0	-1	1000
11508355	0	46	0	-100	0	230	101300000	1000	0	0	-1	1000
11520915	2	46	0	-100	0	230	101300000	1000	0	0	-1	1000
11533475	0	47	0	-100	0	230	101300000	1000	0	0	-1	1000
11546035	0	54	0	-100	0	230	101300000	1000	0	0	-1	1000
11558595	0	46	0	-100	0	230	101300000	1000	0	0	-1	1000
11571155	0	49	0	-100	0	230	101300000	1000	0	0	-1	1000
11583715	0	51	0	-100	0	230	101300000	1000	0	0	-1	1000
11596275	0	49	0	-100	0	230	101300000	1000	0	0	-1	1000
11608835	0	54	0	-100	0	230	101300000	1000	0	0	-1	1000
11621395	0	45	0	-100	0	230	101300000	1000	0	0	-1	1000
11633955	0	54	0	-100	0	230	101300000	1000	0	0	-1	1000
11646515	0	44	0	-100	0	230	101300000	1000	0	0	-1	1000
11659075	0	54	0	-100	0	230	101300000	1000	0	0	-1	1000
11671635	0	46	0	-100	0	230	101300000	1000	0	0	-1	1000
11684195	0	48	0	-100	0	230	101300000	1000	0	0	-1	1000
11696755	0	50	0	-100	0	230	101300000	1000	0	0	-1	1000
11709315	0	45	0	-100	0	230	101300000	1000	0	0	-1	1000
11721875	0	53	0	-100	0	230	101300000	1000	0	0	-1	1000
11734435	0	46	0	-100	0	230	101300000	1000	0	0	-1	1000
11746995	0	54	0	-100	0	230	101300000	1000	0	0	-1	1000
11759555	0	53	0	-100	0	230	101300000	1000	0	0	-1	1000
11772115	0	46	0	-100	0	230	101300000	1000	0	0	-1	1000
11784675	0	50	0	-100	0	230	101300000	1000	0	0	-1	1000
11797235	0	50	0	-100	0	230	101300000	1000	0	0	-1	1000
11809795	0	46	0	-100	0	230	101300000	1000	0	0	-1	1000
11822355	0	54	0	-100	0	230	101300000	1000	0	0	-1	1000
11834915	0	47	0	-100	0	230	101300000	1000	0	0	-1	1000
11847475	2	46	0	-100	0	230	101300000	1000	0	0	-1	1000
11860035	0	48	0	-100	0	230	101300000	1000	0	0	-1	1000
11872595	0	48	0	-100	0	230	101300000	1000	0	0	-1	1000
11885155	0	53	0	-100	0	230	101300000	1000	0	0	-1	1000
11897715	0	46	0	-100	0	230	101300000	1000	0	0	-1	1000
11910275	0	44	0	-100	0	230	101300000	1000	0	0	-1	1000
11922835	0	50	0	-100	0	230	101300000	1000	0	0	-1	1000
11935395	0	50	0	-100	0	230	101300000	1000	0	0	-1	1000
11947955	0	47	0	-100	0	230	101300000	1000	0	0	-1	1000
11960515	0	51	0	-100	0	230	101300000	1000	0	0	-1	1000
11973075	0	48	0	-100	0	230	101300000	1000	0	0	-1	1000
11985635	0	46	0	-100	0	230	101300000	1000	0	0	-1	1000
11998195	0	56	0	-100	0	230	101300000	1000	0	0	-1	1000
12010755	0	48	0	-100	0	230	101300000	1000	0	0	-1	1000
12023315	0	51	0	-100	0	230	101300000	1000	0	0	-1	1000
12035875	0	50	0	-100	0	230	101300000	1000	0	0	-1	1000
12048435	0	45	0	-100	0	230	101300000	1000	0	0	-1	1000
12060995	2	51	0	-100	0	230	101300000	1000	0	0	-1	1000
12073555	0	46	0	-100	0	230	101300000	1000	0	0	-1	1000
12086115	0	49	0	-100	0	230	101300000	1000	0	0	-1	1000
12098675	0	53	0	-100	0	230	101300000	1000	0	0	-1	1000
12111235	0	48	0	-100	0	230	101300000	1000	0	0	-1	1000
12123795	0	50	0	-100	0	230	101300000	1000	0	0	-1	1000
12136355	0	50	0	-100	0	230	101300000	1000	0	0	-1	1000
12148915	0	46	0	-100	0	230	101300000	1000	0	0	-1	1000
12161475	0	54	0	-100	0	230	101300000	1000	0	0	-1	1000
12174035	0	47	0	-100	0	230	101300000	1000	0	0	-1	1000
12186595	0	46	0	-100	0	230	101300000	1000	0	0	-1	1000
12199155	0	52	0	-100	0	230	101300000	1000	0	0	-1	1000
12211715	0	50	0	-100	0	230	101300000	1000	0	0	-1	1000
12224275	0	46	0	-100	0	230	101300000	1000	0	0	-1	1000
12236835	2	47	0	-100	0	230	101300000	1000	0	0	-1	1000
12249395	0	47	0	-100	0	230	101300000	1000	0	0	-1	1000
12261955	0	51	0	-100	0	230	101300000	1000	0	0	-1	1000
12274515	0	51	0	-100	0	230	101300000	1000	0	0	-1	1000
12287075	0	47	0	-100	0	230	101300000	1000	0	0	-1	1000
12299635	0	51	0	-100	0	230	101300000	1000	0	0	-1	1000
12312195	0	48	0	-100	0	230	101300000	1000	0	0	-1	1000
12324755	0	47	0	-100	0	230	101300000	1000	0	0	-1	1000
12337315	0	55	0	-100	0	230	101300000	1000	0	0	-1	1000
12349875	0	46	0	-100	0	230	101300000	1000	0	0	-1	1000
12362435	2	46	0	-100	0	230	101300000	1000	0	0	-1	1000
12374995	0	48	0	-100	0	230	101300000	1000	0	0	-1	1000
12387555	0	50	0	-100	0	230	101300000	1000	0	0	-1	1000
12400115	0	47	0	-100	0	230	101300000	1000	0	0	-1	1000
12412675	0	48	0	-100	0	230	101300000	1000	0	0	-1	1000
12425235	0	49	0	-100	0	230	101300000	1000	0	0	-1	1000
12437795	0	47	0	-100	0	230	101300000	1000	0	0	-1	1000
12450355	0	50	0	-100	0	230	101300000	1000	0	0	-1	1000
12462915	0	45	0	-100	0	230	101300000	1000	0	0	-1	1000
12475475	0	54	0	-100	0	230	101300000	1000	0	0	-1	1000
12488035	0	47	0	-100	0	230	101300000	1000	0	0	-1	1000
12500595	0	50	0	-100	0	230	101300000	1000	0	0	-1	1000
12513155	0	46	0	-100	0	230	101300000	1000	0	0	-1	1000
12525715	0	52	0	-100	0	230	101300000	1000	0	0	-1	1000
12538275	0	46	0	-100	0	230	101300000	1000	0	0	-1	1000
12550835	0	54	0	-100	0	230	101300000	1000	0	0	-1	1000
12563395	0	48	0	-100	0	230	101300000	1000	0	0	-1	1000
12575955	2	46	0	-100	0	230	101300000	1000	0	0	-1	1000
12588515	0	47	0	-100	0	230	101300000	1000	0	0	-1	1000
12601075	0	50	0	-100	0	230	101300000	1000	0	0	-1	1000
12613635	0	51	0	-100	0	230	101300000	1000	0	0	-1	1000
12626195	2	46	0	-100	0	230	101300000	1000	0	0	-1	1000
12638755	0	46	0	-100	0	230	101300000	1000	0	0	-1	1000
12651315	0	54	0	-100	0	230	101300000	1000	0	0	-1	1000
12663875	0	49	0	-100	0	230	101300000	1000	0	0	-1	1000
12676435	0	54	0	-100	0	230	101300000	1000	0	0	-1	1000
12688995	0	52	0	-100	0	230	101300000	1000	0	0	-1	1000
12701555	0	50	0	-100	0	230	101300000	1000	0	0	-1	1000
12714115	0	48	0	-100	0	230	101300000	1000	0	0	-1	1000
12726675	0	50	0	-100	0	230	101300000	1000	0	0	-1	1000
12739235	0	48	0	-100	0	230	101300000	1000	0	0	-1	1000
12751795	0	53	0	-100	0	230	101300000	1000	0	0	-1	1000
12764355	0	45	0	-100	0	230	101300000	1000	0	0	-1	1000
12776915	0	50	0	-100	0	230	101300000	1000	0	0	-1	1000
12789475	0	49	0	-100	0	230	101300000	1000	0	0	-1	1000
12802035	0	48	0	-100	0	230	101300000	1000	0	0	-1	1000
12814595	0	49	0	-100	0	230	101300000	1000	0	0	-1	1000
12827155	0	46	0	-100	0	230	101300000	1000	0	0	-1	1000
12839715	0	54	0	-100	0	230	101300000	1000	0	0	-1	1000
12852275	0	49	0	-100	0	230	101300000	1000	0	0	-1	1000
12864835	0	47	0	-100	0	230	101300000	1000	0	0	-1	1000
12877395	0	52	0	-100	0	230	101300000	1000	0	0	-1	1000
12889955	0	46	0	-100	0	230	101300000	1000	0	0	-1	1000
12902515	0	50	0	-100	0	230	101300000	1000	0	0	-1	1000
12915075	2	46	0	-100	0	230	101300000	1000	0	0	-1	1000
12927635	0	44	0	-100	0	230	101300000	1000	0	0	-1	1000
12940195	0	50	0	-100	0	230	101300000	1000	0	0	-1	1000
12952755	0	49	0	-100	0	230	101300000	1000	0	0	-1	1000
12965315	0	51	0	-100	0	230	101300000	1000	0	0	-1	1000
12977875	0	46	0	-100	0	230	101300000	1000	0	0	-1	1000
12990435	0	54	0	-100	0	230	101300000	1000	0	0	-1	1000
13002995	0	52	0	-100	0	230	101300000	1000	0	0	-1	1000
13015555	2	47	0	-100	0	230	101300000	1000	0	0	-1	1000
13028115	0	47	0	-100	0	230	101300000	1000	0	0	-1	1000
13040675	0	52	0	-100	0	230	101300000	1000	0	0	-1	1000
13053235	0	47	0	-100	0	230	101300000	1000	0	0	-1	1000
13065795	0	54	0	-100	0	230	101300000	1000	0	0	-1	1000
13078355	0	44	0	-100	0	230	101300000	1000	0	0	-1	1000
13090915	0	50	0	-100	0	230	101300000	1000	0	0	-1	1000
13103475	0	49	0	-100	0	230	101300000	1000	0	0	-1	1000
13116035	0	47	0	-100	0	230	101300000	1000	0	0	-1	1000
13128595	0	51	0	-100	0	230	101300000	1000	0	0	-1	1000
13141155	0	46	0	-100	0	230	101300000	1000	0	0	-1	1000
13153715	0	54	0	-100	0	230	101300000	1000	0	0	-1	1000
13166275	0	45	0	-100	0	230	101300000	1000	0	0	-1	1000
13178835	0	51	0	-100	0	230	101300000	1000	0	0	-1	1000
13191395	0	47	0	-100	0	230	101300000	1000	0	0	-1	1000
13203955	0	47	0	-100	0	230	101300000	1000	0	0	-1	1000
13216515	0	53	0	-100	0	230	101300000	1000	0	0	-1	1000
13229075	0	44	0	-100	0	230	101300000	1000	0	0	-1	1000
13241635	0	50	0	-100	0	230	101300000	1000	0	0	-1	1000
13254195	2	49	0	-100	0	230	101300000	1000	0	0	-1	1000
13266755	0	47	0	-100	0	230	101300000	1000	0	0	-1	1000
13279315	0	54	0	-100	0	230	101300000	1000	0	0	-1	1000
13291875	0	47	0	-100	0	230	101300000	1000	0	0	-1	1000
13304435	0	50	0	-100	0	230	101300000	1000	0	0	-1	1000
13316995	0	47	0	-100	0	230	101300000	1000	0	0	-1	1000
13329555	0	45	0	-100	0	230	101300000	1000	0	0	-1	1000
13342115	0	50	0	-100	0	230	101300000	1000	0	0	-1	1000
13354675	2	47	0	-100	0	230	101300000	1000	0	0	-1	1000
13367235	0	49	0	-100	0	230	101300000	1000	0	0	-1	1000
13379795	0	47	0	-100	0	230	101300000	1000	0	0	-1	1000
13392355	0	50	0	-100	0	230	101300000	1000	0	0	-1	1000
13404915	0	50	0	-100	0	230	101300000	1000	0	0	-1	1000
13417475	0	47	0	-100	0	230	101300000	1000	0	0	-1	1000
13430035	0	51	0	-100	0	230	101300000	1000	0	0	-1	1000
13442595	0	46	0	-100	0	230	101300000	1000	0	0	-1	1000
13455155	0	53	0	-100	0	230	101300000	1000	0	0	-1	1000
13467715	0	48	0	-100	0	230	101300000	1000	0	0	-1	1000
13480275	0	46	0	-100	0	230	101300000	1000	0	0	-1	1000
13492835	0	54	0	-100	0	230	101300000	1000	0	0	-1	1000
13505395	0	49	0	-100	0	230	101300000	1000	0	0	-1	1000
13517955	0	46	0	-100	0	230	101300000	1000	0	0	-1	1000
13530515	0	54	0	-100	0	230	101300000	1000	0	0	-1	1000
13543075	0	53	0	-100	0	230	101300000	1000	0	0	-1	1000
13555635	0	43	0	-100	0	230	101300000	1000	0	0	-1	1000
13568195	0	46	0	-100	0	230	101300000	1000	0	0	-1	1000
13580755	0	55	0	-100	0	230	101300000	1000	0	0	-1	1000
13593315	0	47	0	-100	0	230	101300000	1000	0	0	-1	1000
13605875	0	46	0	-100	0	230	101300000	1000	0	0	-1	1000
13618435	0	53	0	-100	0	230	101300000	1000	0	0	-1	1000
13630995	0	53	0	-100	0	230	101300000	1000	0	0	-1	1000
13643555	0	47	0	-100	0	230	101300000	1000	0	0	-1	1000
13656115	0	54	0	-100	0	230	101300000	1000	0	0	-1	1000
13668675	0	48	0	-100	0	230	101300000	1000	0	0	-1	1000
13681235	0	51	0	-100	0	230	101300000	1000	0	0	-1	1000
13693795	0	46	0	-100	0	230	101300000	1000	0	0	-1	1000
13706355	0	46	0	-100	0	230	101300000	1000	0	0	-1	1000
13718915	0	52	0	-100	0	230	101300000	1000	0	0	-1	1000
13731475	0	46	0	-100	0	230	101300000	1000	0	0	-1	1000
13744035	0	54	0	-100	0	230	101300000	1000	0	0	-1	1000
13756595	0	45	0	-100	0	230	101300000	1000	0	0	-1	1000
13769155	0	51	0	-100	0	230	101300000	1000	0	0	-1	1000
13781715	0	50	0	-100	0	230	101300000	1000	0	0	-1	1000
13794275	0	50	0	-100	0	230	101300000	1000	0	0	-1	1000
13806835	0	46	0	-100	0	230	101300000	1000	0	0	-1	1000
13819395	0	49	0	-100	0	230	101300000	1000	0	0	-1	1000
13831955	2	50	0	-100	0	230	101300000	1000	0	0	-1	1000
13844515	0	50	0	-100	0	230	101300000	1000	0	0	-1	1000
13857075	0	47	0	-100	0	230	101300000	1000	0	0	-1	1000
13869635	0	51	0	-100	0	230	101300000	1000	0	0	-1	1000
13882195	0	49	0	-100	0	230	101300000	1000	0	0	-1	1000
13894755	0	53	0	-100	0	230	101300000	1000	0	0	-1	1000
13907315	0	47	0	-100	0	230	101300000	1000	0	0	-1	1000
13919875	2	48	0	-100	0	230	101300000	1000	0	0	-1	1000
13932435	0	47	0	-100	0	230	101300000	1000	0	0	-1	1000
13944995	0	47	0	-100	0	230	101300000	1000	0	0	-1	1000
13957555	0	46	0	-100	0	230	101300000	1000	0	0	-1	1000
13970115	0	49	0	-100	0	230	101300000	1000	0	0	-1	1000
13982675	0	47	0	-100	0	230	101300000	1000	0	0	-1	1000
13995235	0	47	0	-100	0	230	101300000	1000	0	0	-1	1000
14007795	0	54	0	-100	0	230	101300000	1000	0	0	-1	1000
14020355	0	47	0	-100	0	230	101300000	1000	0	0	-1	1000
14032915	2	46	0	-100	0	230	101300000	1000	0	0	-1	1000
14045475	0	48	0	-100	0	230	101300000	1000	0	0	-1	1000
14058035	0	47	0	-100	0	230	101300000	1000	0	0	-1	1000
14070595	0	54	0	-100	0	230	101300000	1000	0	0	-1	1000
14083155	0	46	0	-100	0	230	101300000	1000	0	0	-1	1000
14095715	2	48	0	-100	0	230	101300000	1000	0	0	-1	1000
14108275	0	50	0	-100	0	230	101300000	1000	0	0	-1	1000
14120835	0	48	0	-100	0	230	101300000	1000	0	0	-1	1000
14133395	0	49	0	-100	0	230	101300000	1000	0	0	-1	1000
14145955	0	47	0	-100	0	230	101300000	1000	0	0	-1	1000
14158515	0	50	0	-100	0	230	101300000	1000	0	0	-1	1000
14171075	0	47	0	-100	0	230	101300000	1000	0	0	-1	1000
14183635	0	53	0	-100	0	230	101300000	1000	0	0	-1	1000
14196195	0	44	0	-100	0	230	101300000	1000	0	0	-1	1000
14208755	0	54	0	-100	0	230	101300000	1000	0	0	-1	1000
14221315	0	48	0	-100	0	230	101300000	1000	0	0	-1	1000
14233875	2	47	0	-100	0	230	101300000	1000	0	0	-1	1000
14246435	0	48	0	-100	0	230	101300000	1000	0	0	-1	1000
14258995	0	47	0	-100	0	230	101300000	1000	0	0	-1	1000
14271555	0	46	0	-100	0	230	101300000	1000	0	0	-1	1000
14284115	0	55	0	-100	0	230	101300000	1000	0	0	-1	1000
14296675	0	43	0	-100	0	230	101300000	1000	0	0	-1	1000
14309235	0	53	0	-100	0	230	101300000	1000	0	0	-1	1000
14321795	0	46	0	-100	0	230	101300000	1000	0	0	-1	1000
14334355	0	50	0	-100	0	230	101300000	1000	0	0	-1	1000
14346915	0	51	0	-100	0	230	101300000	1000	0	0	-1	1000
14359475	0	44	0	-100	0	230	101300000	1000	0	0	-1	1000
14372035	0	52	0	-100	0	230	101300000	1000	0	0	-1	1000
14384595	0	46	0	-100	0	230	101300000	1000	0	0	-1	1000
14397155	0	49	0	-100	0	230	101300000	1000	0	0	-1	1000
14409715	0	54	0	-100	0	230	101300000	1000	0	0	-1	1000
14422275	0	47	0	-100	0	230	101300000	1000	0	0	-1	1000
14434835	0	47	0	-100	0	230	101300000	1000	0	0	-1	1000
14447395	0	49	0	-100	0	230	101300000	1000	0	0	-1	1000
14459955	0	52	0	-100	0	230	101300000	1000	0	0	-1	1000
14472515	0	51	0	-100	0	230	101300000	1000	0	0	-1	1000
14485075	0	47	0	-100	0	230	101300000	1000	0	0	-1	1000
14497635	2	46	0	-100	0	230	101300000	1000	0	0	-1	1000
14510195	0	49	0	-100	0	230	101300000	1000	0	0	-1	1000
14522755	0	47	0	-100	0	230	101300000	1000	0	0	-1	1000
14535315	0	49	0	-100	0	230	101300000	1000	0	0	-1	1000
14547875	0	46	0	-100	0	230	101300000	1000	0	0	-1	1000
14560435	0	55	0	-100	0	230	101300000	1000	0	0	-1	1000
14572995	0	51	0	-100	0	230	101300000	1000	0	0	-1	1000
14585555	2	49	0	-100	0	230	101300000	1000	0	0	-1	1000
14598115	0	46	0	-100	0	230	101300000	1000	0	0	-1	1000
14610675	0	51	0	-100	0	230	101300000	1000	0	0	-1	1000
14623235	0	46	0	-100	0	230	101300000	1000	0	0	-1	1000
14635795	0	50	0	-100	0	230	101300000	1000	0	0	-1	1000
14648355	0	47	0	-100	0	230	101300000	1000	0	0	-1	1000
14660915	0	46	0	-100	0	230	101300000	1000	0	0	-1	1000
14673475	0	55	0	-100	0	230	101300000	1000	0	0	-1	1000
14686035	0	47	0	-100	0	230	101300000	1000	0	0	-1	1000
14698595	0	53	0	-100	0	230	101300000	1000	0	0	-1	1000
14711155	0	46	0	-100	0	230	101300000	1000	0	0	-1	1000
14723715	0	51	0	-100	0	230	101300000	1000	0	0	-1	1000
14736275	0	50	0	-100	0	230	101300000	1000	0	0	-1	1000
14748835	0	47	0	-100	0	230	101300000	1000	0	0	-1	1000
14761395	2	46	0	-100	0	230	101300000	1000	0	0	-1	1000
14773955	0	50	0	-100	0	230	101300000	1000	0	0	-1	1000
14786515	0	46	0	-100	0	230	101300000	1000	0	0	-1	1000
14799075	0	51	0	-100	0	230	101300000	1000	0	0	-1	1000
14811635	0	50	0	-100	0	230	101300000	1000	0	0	-1	1000
14824195	0	46	0	-100	0	230	101300000	1000	0	0	-1	1000
14836755	0	53	0	-100	0	230	101300000	1000	0	0	-1	1000
14849315	0	47	0	-100	0	230	101300000	1000	0	0	-1	1000
14861875	0	50	0	-100	0	230	101300000	1000	0	0	-1	1000
14874435	0	47	0	-100	0	230	101300000	1000	0	0	-1	1000
14886995	0	50	0	-100	0	230	101300000	1000	0	0	-1	1000
14899555	0	50	0	-100	0	230	101300000	1000	0	0	-1	1000
14912115	0	47	0	-100	0	230	101300000	1000	0	0	-1	1000
14924675	0	54	0	-100	0	230	101300000	1000	0	0	-1	1000
14937235	0	48	0	-100	0	230	101300000	1000	0	0	-1	1000
14949795	0	52	0	-100	0	230	101300000	1000	0	0	-1	1000
14962355	0	48	0	-100	0	230	101300000	1000	0	0	-1	1000
14974915	0	48	0	-100	0	230	101300000	1000	0	0	-1	1000
14987475	0	53	0	-100	0	230	101300000	1000	0	0	-1	1000
15000035	0	44	0	-100	0	230	101300000	1000	0	0	-1	1000
15012595	0	52	0	-100	0	230	101300000	1000	0	0	-1	1000
15025155	0	46	0	-100	0	230	101300000	1000	0	0	-1	1000
15037715	0	50	0	-100	0	230	101300000	1000	0	0	-1	1000
15050275	0	46	0	-100	0	230	101300000	1000	0	0	-1	1000
15062835	0	47	0	-100	0	230	101300000	1000	0	0	-1	1000
15075395	2	48	0	-100	0	230	101300000	1000	0	0	-1	1000
15087955	0	45	0	-100	0	230	101300000	1000	0	0	-1	1000
15100515	0	51	0	-100	0	230	101300000	1000	0	0	-1	1000
15113075	0	47	0	-100	0	230	101300000	1000	0	0	-1	1000
15125635	0	50	0	-100	0	230	101300000	1000	0	0	-1	1000
15138195	0	47	0	-100	0	230	101300000	1000	0	0	-1	1000
15150755	0	48	0	-100	0	230	101300000	1000	0	0	-1	1000
15163315	0	50	0	-100	0	230	101300000	1000	0	0	-1	1000
15175875	0	46	0	-100	0	230	101300000	1000	0	0	-1	1000
15188435	0	53	0	-100	0	230	101300000	1000	0	0	-1	1000
15200995	0	54	0	-100	0	230	101300000	1000	0	0	-1	1000
15213555	0	50	0	-100	0	230	101300000	1000	0	0	-1	1000
15226115	0	50	0	-100	0	230	101300000	1000	0	0	-1	1000
15238675	0	46	0	-100	0	230	101300000	1000	0	0	-1	1000
15251235	0	51	0	-100	0	230	101300000	1000	0	0	-1	1000
15263795	0	47	0	-100	0	230	101300000	1000	0	0	-1	1000
15276355	0	53	0	-100	0	230	101300000	1000	0	0	-1	1000
15288915	0	46	0	-100	0	230	101300000	1000	0	0	-1	1000
15301475	0	54	0	-100	0	230	101300000	1000	0	0	-1	1000
15314035	0	47	0	-100	0	230	101300000	1000	0	0	-1	1000
15326595	0	47	0	-100	0	230	101300000	1000	0	0	-1	1000
15339155	0	51	0	-100	0	230	101300000	1000	0	0	-1	1000
15351715	0	48	0	-100	0	230	101300000	1000	0	0	-1	1000
15364275	0	48	0	-100	0	230	101300000	1000	0	0	-1	1000
15376835	0	53	0	-100	0	230	101300000	1000	0	0	-1	1000
15389395	0	47	0	-100	0	230	101300000	1000	0	0	-1	1000
15401955	0	54	0	-100	0	230	101300000	1000	0	0	-1	1000
15414515	0	46	0	-100	0	230	101300000	1000	0	0	-1	1000
15427075	2	47	0	-100	0	230	101300000	1000	0	0	-1	1000
15439635	0	48	0	-100	0	230	101300000	1000	0	0	-1	1000
15452195	0	54	0	-100	0	230	101300000	1000	0	0	-1	1000
15464755	0	48	0	-100	0	230	101300000	1000	0	0	-1	1000
15477315	0	55	0	-100	0	230	101300000	1000	0	0	-1	1000
15489875	0	44	0	-100	0	230	101300000	1000	0	0	-1	1000
15502435	0	52	0	-100	0	230	101300000	1000	0	0	-1	1000
15514995	0	53	0	-100	0	230	101300000	1000	0	0	-1	1000
15527555	0	51	0	-100	0	230	101300000	1000	0	0	-1	1000
15540115	0	49	0	-100	0	230	101300000	1000	0	0	-1	1000
15552675	0	55	0	-100	0	230	101300000	1000	0	0	-1	1000
15565235	0	47	0	-100	0	230	101300000	1000	0	0	-1	1000
15577795	2	48	0	-100	0	230	101300000	1000	0	0	-1	1000
15590355	0	46	0	-100	0	230	101300000	1000	0	0	-1	1000
15602915	2	46	0	-100	0	230	101300000	1000	0	0	-1	1000
15615475	0	48	0	-100	0	230	101300000	1000	0	0	-1	1000
15628035	0	46	0	-100	0	230	101300000	1000	0	0	-1	1000
15640595	0	50	0	-100	0	230	101300000	1000	0	0	-1	1000
15653155	0	47	0	-100	0	230	101300000	1000	0	0	-1	1000
15665715	0	51	0	-100	0	230	101300000	1000	0	0	-1	1000
15678275	0	48	0	-100	0	230	101300000	1000	0	0	-1	1000
15690835	0	49	0	-100	0	230	101300000	1000	0	0	-1	1000
15703395	0	46	0	-100	0	230	101300000	1000	0	0	-1	1000
15715955	0	55	0	-100	0	230	101300000	1000	0	0	-1	1000
15728515	0	46	0	-100	0	230	101300000	1000	0	0	-1	1000
15741075	0	49	0	-100	0	230	101300000	1000	0	0	-1	1000
15753635	0	49	0	-100	0	230	101300000	1000	0	0	-1	1000
15766195	0	48	0	-100	0	230	101300000	1000	0	0	-1	1000
15778755	0	47	0	-100	0	230	101300000	1000	0	0	-1	1000
15791315	0	50	0	-100	0	230	101300000	1000	0	0	-1	1000
15803875	0	48	0	-100	0	230	101300000	1000	0	0	-1	1000
15816435	0	50	0	-100	0	230	101300000	1000	0	0	-1	1000
15828995	0	53	0	-100	0	230	101300000	1000	0	0	-1	1000
15841555	0	54	0	-100	0	230	101300000	1000	0	0	-1	1000
15854115	0	45	0	-100	0	230	101300000	1000	0	0	-1	1000
15866675	0	54	0	-100	0	230	101300000	1000	0	0	-1	1000
15879235	0	46	0	-100	0	230	101300000	1000	0	0	-1	1000
15891795	0	53	0	-100	0	230	101300000	1000	0	0	-1	1000
15904355	0	46	0	-100	0	230	101300000	1000	0	0	-1	1000
15916915	0	46	0	-100	0	230	101300000	1000	0	0	-1	1000
15929475	0	50	0	-100	0	230	101300000	1000	0	0	-1	1000
15942035	0	47	0	-100	0	230	101300000	1000	0	0	-1	1000
15954595	0	52	0	-100	0	230	101300000	1000	0	0	-1	1000
15967155	0	46	0	-100	0	230	101300000	1000	0	0	-1	1000
15979715	0	46	0	-100	0	230	101300000	1000	0	0	-1	1000
15992275	0	53	0	-100	0	230	101300000	1000	0	0	-1	1000
16004835	0	45	0	-100	0	230	101300000	1000	0	0	-1	1000
16017395	0	55	0	-100	0	230	101300000	1000	0	0	-1	1000
16029955	0	45	0	-100	0	230	101300000	1000	0	0	-1	1000
16042515	0	53	0	-100	0	230	101300000	1000	0	0	-1	1000
16055075	0	47	0	-100	0	230	101300000	1000	0	0	-1	1000
16067635	0	47	0	-100	0	230	101300000	1000	0	0	-1	1000
16080195	0	51	0	-100	0	230	101300000	1000	0	0	-1	1000
16092755	0	45	0	-100	0	230	101300000	1000	0	0	-1	1000
16105315	2	46	0	-100	0	230	101300000	1000	0	0	-1	1000
16117875	0	47	0	-100	0	230	101300000	1000	0	0	-1	1000
16130435	0	47	0	-100	0	230	101300000	1000	0	0	-1	1000
16142995	0	46	0	-100	0	230	101300000	1000	0	0	-1	1000
16155555	0	45	0	-100	0	230	101300000	1000	0	0	-1	1000
16168115	0	53	0	-100	0	230	101300000	1000	0	0	-1	1000
16180675	0	45	0	-100	0	230	101300000	1000	0	0	-1	1000
16193235	0	54	0	-100	0	230	101300000	1000	0	0	-1	1000
16205795	0	46	0	-100	0	230	101300000	1000	0	0	-1	1000
16218355	0	54	0	-100	0	230	101300000	1000	0	0	-1	1000
16230915	0	47	0	-100	0	230	101300000	1000	0	0	-1	1000
16243475	0	50	0	-100	0	230	101300000	1000	0	0	-1	1000
16256035	0	46	0	-100	0	230	101300000	1000	0	0	-1	1000
16268595	0	50	0	-100	0	230	101300000	1000	0	0	-1	1000
16281155	0	49	0	-100	0	230	101300000	1000	0	0	-1	1000
16293715	0	46	0	-100	0	230	101300000	1000	0	0	-1	1000
16306275	0	54	0	-100	0	230	101300000	1000	0	0	-1	1000
16318835	0	49	0	-100	0	230	101300000	1000	0	0	-1	1000
16331395	0	52	0	-100	0	230	101300000	1000	0	0	-1	1000
16343955	0	48	0	-100	0	230	101300000	1000	0	0	-1	1000
16356515	0	47	0	-100	0	230	101300000	1000	0	0	-1	1000
16369075	0	49	0	-100	0	230	101300000	1000	0	0	-1	1000
16381635	0	45	0	-100	0	230	101300000	1000	0	0	-1	1000
16394195	0	54	0	-100	0	230	101300000	1000	0	0	-1	1000
16406755	0	46	0	-100	0	230	101300000	1000	0	0	-1	1000
16419315	0	53	0	-100	0	230	101300000	1000	0	0	-1	1000
16431875	0	47	0	-100	0	230	101300000	1000	0	0	-1	1000
16444435	2	47	0	-100	0	230	101300000	1000	0	0	-1	1000
16456995	0	50	0	-100	0	230	101300000	1000	0	0	-1	1000
16469555	0	54	0	-100	0	230	101300000	1000	0	0	-1	1000
16482115	0	45	0	-100	0	230	101300000	1000	0	0	-1	1000
16494675	0	54	0	-100	0	230	101300000	1000	0	0	-1	1000
16507235	0	46	0	-100	0	230	101300000	1000	0	0	-1	1000
16519795	0	50	0	-100	0	230	101300000	1000	0	0	-1	1000
16532355	0	46	0	-100	0	230	101300000	1000	0	0	-1	1000
16544915	0	49	0	-100	0	230	101300000	1000	0	0	-1	1000
16557475	0	48	0	-100	0	230	101300000	1000	0	0	-1	1000
16570035	0	48	0	-100	0	230	101300000	1000	0	0	-1	1000
16582595	0	50	0	-100	0	230	101300000	1000	0	0	-1	1000
16595155	0	46	0	-100	0	230	101300000	1000	0	0	-1	1000
16607715	2	46	0	-100	0	230	101300000	1000	0	0	-1	1000
16620275	0	48	0	-100	0	230	101300000	1000	0	0	-1	1000
16632835	0	47	0	-100	0	230	101300000	1000	0	0	-1	1000
16645395	0	54	0	-100	0	230	101300000	1000	0	0	-1	1000
16657955	0	46	0	-100	0	230	101300000	1000	0	0	-1	1000
16670515	2	46	0	-100	0	230	101300000	1000	0	0	-1	1000
16683075	0	46	0	-100	0	230	101300000	1000	0	0	-1	1000
16695635	0	51	0	-100	0	230	101300000	1000	0	0	-1	1000
16708195	0	46	0	-100	0	230	101300000	1000	0	0	-1	1000
16720755	0	50	0	-100	0	230	101300000	1000	0	0	-1	1000
16733315	0	47	0	-100	0	230	101300000	1000	0	0	-1	1000
16745875	0	50	0	-100	0	230	101300000	1000	0	0	-1	1000
16758435	0	47	0	-100	0	230	101300000	1000	0	0	-1	1000
16770995	0	51	0	-100	0	230	101300000	1000	0	0	-1	1000
16783555	0	50	0	-100	0	230	101300000	1000	0	0	-1	1000
16796115	2	49	0	-100	0	230	101300000	1000	0	0	-1	1000
16808675	0	48	0	-100	0	230	101300000	1000	0	0	-1	1000
16821235	0	46	0	-100	0	230	101300000	1000	0	0	-1	1000
16833795	0	53	0	-100	0	230	101300000	1000	0	0	-1	1000
16846355	0	44	0	-100	0	230	101300000	1000	0	0	-1	1000
16858915	0	54	0	-100	0	230	101300000	1000	0	0	-1	1000
16871475	0	45	0	-100	0	230	101300000	1000	0	0	-1	1000
16884035	0	54	0	-100	0	230	101300000	1000	0	0	-1	1000
16896595	0	45	0	-100	0	230	101300000	1000	0	0	-1	1000
16909155	0	53	0	-100	0	230	101300000	1000	0	0	-1	1000
16921715	0	46	0	-100	0	230	101300000	1000	0	0	-1	1000
16934275	2	46	0	-100	0	230	101300000	1000	0	0	-1	1000
16946835	0	46	0	-100	0	230	101300000	1000	0	0	-1	1000
16959395	0	47	0	-100	0	230	101300000	1000	0	0	-1	1000
16971955	0	50	0	-100	0	230	101300000	1000	0	0	-1	1000
16984515	0	44	0	-100	0	230	101300000	1000	0	0	-1	1000
16997075	0	54	0	-100	0	230	101300000	1000	0	0	-1	1000
17009635	0	47	0	-100	0	230	101300000	1000	0	0	-1	1000
17022195	0	52	0	-100	0	230	101300000	1000	0	0	-1	1000
17034755	0	49	0	-100	0	230	101300000	1000	0	0	-1	1000
17047315	0	47	0	-100	0	230	101300000	1000	0	0	-1	1000
17059875	0	53	0	-100	0	230	101300000	1000	0	0	-1	1000
17072435	0	46	0	-100	0	230	101300000	1000	0	0	-1	1000
17084995	0	50	0	-100	0	230	101300000	1000	0	0	-1	1000
17097555	0	52	0	-100	0	230	101300000	1000	0	0	-1	1000
17110115	0	47	0	-100	0	230	101300000	1000	0	0	-1	1000
17122675	0	50	0	-100	0	230	101300000	1000	0	0	-1	1000
17135235	0	47	0	-100	0	230	101300000	1000	0	0	-1	1000
17147795	0	47	0	-100	0	230	101300000	1000	0	0	-1	1000
17160355	0	51	0	-100	0	230	101300000	1000	0	0	-1	1000
17172915	0	46	0	-100	0	230	101300000	1000	0	0	-1	1000
17185475	0	54	0	-100	0	230	101300000	1000	0	0	-1	1000
17198035	0	45	0	-100	0	230	101300000	1000	0	0	-1	1000
17210595	0	54	0	-100	0	230	101300000	1000	0	0	-1	1000
17223155	0	46	0	-100	0	230	101300000	1000	0	0	-1	1000
17235715	2	48	0	-100	0	230	101300000	1000	0	0	-1	1000
17248275	0	47	0	-100	0	230	101300000	1000	0	0	-1	1000
17260835	0	51	0	-100	0	230	101300000	1000	0	0	-1	1000
17273395	0	46	0	-100	0	230	101300000	1000	0	0	-1	1000
17285955	0	48	0	-100	0	230	101300000	1000	0	0	-1	1000
17298515	0	50	0	-100	0	230	101300000	1000	0	0	-1	1000
17311075	0	46	0	-100	0	230	101300000	1000	0	0	-1	1000
17323635	0	50	0	-100	0	230	101300000	1000	0	0	-1	1000
17336195	0	47	0	-100	0	230	101300000	1000	0	0	-1	1000
17348755	0	53	0	-100	0	230	101300000	1000	0	0	-1	1000
17361315	0	44	0	-100	0	230	101300000	1000	0	0	-1	1000
17373875	0	50	0	-100	0	230	101300000	1000	0	0	-1	1000
17386435	0	47	0	-100	0	230	101300000	1000	0	0	-1	1000
17398995	0	44	0	-100	0	230	101300000	1000	0	0	-1	1000
17411555	0	50	0	-100	0	230	101300000	1000	0	0	-1	1000
17424115	0	46	0	-100	0	230	101300000	1000	0	0	-1	1000
17436675	2	50	0	-100	0	230	101300000	1000	0	0	-1	1000
17449235	0	47	0	-100	0	230	101300000	1000	0	0	-1	1000
17461795	0	51	0	-100	0	230	101300000	1000	0	0	-1	1000
17474355	0	46	0	-100	0	230	101300000	1000	0	0	-1	1000
17486915	0	54	0	-100	0	230	101300000	1000	0	0	-1	1000
17499475	0	46	0	-100	0	230	101300000	1000	0	0	-1	1000
17512035	2	46	0	-100	0	230	101300000	1000	0	0	-1	1000
17524595	0	47	0	-100	0	230	101300000	1000	0	0	-1	1000
17537155	0	52	0	-100	0	230	101300000	1000	0	0	-1	1000
17549715	0	46	0	-100	0	230	101300000	1000	0	0	-1	1000
17562275	0	54	0	-100	0	230	101300000	1000	0	0	-1	1000
17574835	0	48	0	-100	0	230	101300000	1000	0	0	-1	1000
17587395	0	53	0	-100	0	230	101300000	1000	0	0	-1	1000
17599955	0	47	0	-100	0	230	101300000	1000	0	0	-1	1000
17612515	0	47	0	-100	0	230	101300000	1000	0	0	-1	1000
17625075	0	50	0	-100	0	230	101300000	1000	0	0	-1	1000
17637635	0	48	0	-100	0	230	101300000	1000	0	0	-1	1000
17650195	0	51	0	-100	0	230	101300000	1000	0	0	-1	1000
17662755	0	47	0	-100	0	230	101300000	1000	0	0	-1	1000
17675315	2	46	0	-100	0	230	101300000	1000	0	0	-1	1000
17687875	0	46	0	-100	0	230	101300000	1000	0	0	-1	1000
17700435	0	52	0	-100	0	230	101300000	1000	0	0	-1	1000
17712995	0	47	0	-100	0	230	101300000	1000	0	0	-1	1000
17725555	0	50	0	-100	0	230	101300000	1000	0	0	-1	1000
17738115	0	50	0	-100	0	230	101300000	1000	0	0	-1	1000
17750675	0	45	0	-100	0	230	101300000	1000	0	0	-1	1000
17763235	0	54	0	-100	0	230	101300000	1000	0	0	-1	1000
17775795	0	46	0	-100	0	230	101300000	1000	0	0	-1	1000
17788355	0	48	0	-100	0	230	101300000	1000	0	0	-1	1000
17800915	0	54	0	-100	0	230	101300000	1000	0	0	-1	1000
17813475	0	46	0	-100	0	230	101300000	1000	0	0	-1	1000
17826035	0	48	0	-100	0	230	101300000	1000	0	0	-1	1000
17838595	0	50	0	-100	0	230	101300000	1000	0	0	-1	1000
17851155	0	46	0	-100	0	230	101300000	1000	0	0	-1	1000
17863715	0	53	0	-100	0	230	101300000	1000	0	0	-1	1000
17876275	0	47	0	-100	0	230	101300000	1000	0	0	-1	1000
17888835	0	50	0	-100	0	230	101300000	1000	0	0	-1	1000
17901395	0	51	0	-100	0	230	101300000	1000	0	0	-1	1000
17913955	0	47	0	-100	0	230	101300000	1000	0	0	-1	1000
17926515	0	54	0	-100	0	230	101300000	1000	0	0	-1	1000
17939075	0	48	0	-100	0	230	101300000	1000	0	0	-1	1000
17951635	0	52	0	-100	0	230	101300000	1000	0	0	-1	1000
17964195	0	47	0	-100	0	230	101300000	1000	0	0	-1	1000
17976755	0	48	0	-100	0	230	101300000	1000	0	0	-1	1000
17989315	0	51	0	-100	0	230	101300000	1000	0	0	-1	1000
18001875	0	47	0	-100	0	230	101300000	1000	0	0	-1	1000
18014435	0	50	0	-100	0	230	101300000	1000	0	0	-1	1000
18026995	0	53	0	-100	0	230	101300000	1000	0	0	-1	1000
18039555	0	54	0	-100	0	230	101300000	1000	0	0	-1	1000
18052115	0	46	0	-100	0	230	101300000	1000	0	0	-1	1000
18064675	0	49	0	-100	0	230	101300000	1000	0	0	-1	1000
18077235	0	50	0	-100	0	230	101300000	1000	0	0	-1	1000
18089795	0	46	0	-100	0	230	101300000	1000	0	0	-1	1000
18102355	0	54	0	-100	0	230	101300000	1000	0	0	-1	1000
18114915	0	47	0	-100	0	230	101300000	1000	0	0	-1	1000
18127475	0	47	0	-100	0	230	101300000	1000	0	0	-1	1000
18140035	0	50	0	-100	0	230	101300000	1000	0	0	-1	1000
18152595	0	49	0	-100	0	230	101300000	1000	0	0	-1	1000
18165155	0	54	0	-100	0	230	101300000	1000	0	0	-1	1000
18177715	0	47	0	-100	0	230	101300000	1000	0	0	-1	1000
18190275	0	46	0	-100	0	230	101300000	1000	0	0	-1	1000
18202835	0	53	0	-100	0	230	101300000	1000	0	0	-1	1000
18215395	0	46	0	-100	0	230	101300000	1000	0	0	-1	1000
18227955	0	48	0	-100	0	230	101300000	1000	0	0	-1	1000
18240515	0	55	0	-100	0	230	101300000	1000	0	0	-1	1000
18253075	0	46	0	-100	0	230	101300000	1000	0	0	-1	1000
18265635	0	47	0	-100	0	230	101300000	1000	0	0	-1	1000
18278195	0	50	0	-100	0	230	101300000	1000	0	0	-1	1000
18290755	0	47	0	-100	0	230	101300000	1000	0	0	-1	1000
18303315	0	49	0	-100	0	230	101300000	1000	0	0	-1	1000
18315875	0	51	0	-100	0	230	101300000	1000	0	0	-1	1000
18328435	0	47	0	-100	0	230	101300000	1000	0	0	-1	1000
18340995	0	50	0	-100	0	230	101300000	1000	0	0	-1	1000
18353555	0	50	0	-100	0	230	101300000	1000	0	0	-1	1000
18366115	0	48	0	-100	0	230	101300000	1000	0	0	-1	1000
18378675	0	54	0	-100	0	230	101300000	1000	0	0	-1	1000
18391235	0	47	0	-100	0	230	101300000	1000	0	0	-1	1000
18403795	0	48	0	-100	0	230	101300000	1000	0	0	-1	1000
18416355	0	51	0	-100	0	230	101300000	1000	0	0	-1	1000
18428915	0	46	0	-100	0	230	101300000	1000	0	0	-1	1000
18441475	0	52	0	-100	0	230	101300000	1000	0	0	-1	1000
18454035	0	51	0	-100	0	230	101300000	1000	0	0	-1	1000
18466595	0	44	0	-100	0	230	101300000	1000	0	0	-1	1000
18479155	0	53	0	-100	0	230	101300000	1000	0	0	-1	1000
18491715	0	47	0	-100	0	230	101300000	1000	0	0	-1	1000
18504275	0	49	0	-100	0	230	101300000	1000	0	0	-1	1000
18516835	0	49	0	-100	0	230	101300000	1000	0	0	-1	1000
18529395	0	46	0	-100	0	230	101300000	1000	0	0	-1	1000
18541955	0	55	0	-100	0	230	101300000	1000	0	0	-1	1000
18554515	0	46	0	-100	0	230	101300000	1000	0	0	-1	1000
18567075	0	51	0	-100	0	230	101300000	1000	0	0	-1	1000
18579635	0	47	0	-100	0	230	101300000	1000	0	0	-1	1000
18592195	0	45	0	-100	0	230	101300000	1000	0	0	-1	1000
18604755	2	50	0	-100	0	230	101300000	1000	0	0	-1	1000
18617315	0	47	0	-100	0	230	101300000	1000	0	0	-1	1000
18629875	0	48	0	-100	0	230	101300000	1000	0	0	-1	1000
18642435	0	53	0	-100	0	230	101300000	1000	0	0	-1	1000
18654995	0	47	0	-100	0	230	101300000	1000	0	0	-1	1000
18667555	0	50	0	-100	0	230	101300000	1000	0	0	-1	1000
18680115	0	50	0	-100	0	230	101300000	1000	0	0	-1	1000
18692675	0	47	0	-100	0	230	101300000	1000	0	0	-1	1000
18705235	0	54	0	-100	0	230	101300000	1000	0	0	-1	1000
18717795	0	46	0	-100	0	230	101300000	1000	0	0	-1	1000
18730355	0	48	0	-100	0	230	101300000	1000	0	0	-1	1000
18742915	0	54	0	-100	0	230	101300000	1000	0	0	-1	1000
18755475	0	46	0	-100	0	230	101300000	1000	0	0	-1	1000
18768035	2	46	0	-100	0	230	101300000	1000	0	0	-1	1000
18780595	0	46	0	-100	0	230	101300000	1000	0	0	-1	1000
18793155	0	46	0	-100	0	230	101300000	1000	0	0	-1	1000
18805715	0	51	0	-100	0	230	101300000	1000	0	0	-1	1000
18818275	0	49	0	-100	0	230	101300000	1000	0	0	-1	1000
18830835	0	52	0	-100	0	230	101300000	1000	0	0	-1	1000
18843395	0	53	0	-100	0	230	101300000	1000	0	0	-1	1000
18855955	0	44	0	-100	0	230	101300000	1000	0	0	-1	1000
18868515	0	54	0	-100	0	230	101300000	1000	0	0	-1	1000
18881075	0	47	0	-100	0	230	101300000	1000	0	0	-1	1000
18893635	0	48	0	-100	0	230	101300000	1000	0	0	-1	1000
18906195	0	50	0	-100	0	230	101300000	1000	0	0	-1	1000
18918755	0	48	0	-100	0	230	101300000	1000	0	0	-1	1000
18931315	2	46	0	-100	0	230	101300000	1000	0	0	-1	1000
18943875	0	50	0	-100	0	230	101300000	1000	0	0	-1	1000
18956435	0	48	0	-100	0	230	101300000	1000	0	0	-1	1000
18968995	0	44	0	-100	0	230	101300000	1000	0	0	-1	1000
18981555	0	44	0	-100	0	230	101300000	1000	0	0	-1	1000
18994115	0	50	0	-100	0	230	101300000	1000	0	0	-1	1000
19006675	0	46	0	-100	0	230	101300000	1000	0	0	-1	1000
19019235	2	46	0	-100	0	230	101300000	1000	0	0	-1	1000
19031795	0	47	0	-100	0	230	101300000	1000	0	0	-1	1000
19044355	0	49	0	-100	0	230	101300000	1000	0	0	-1	1000
19056915	0	55	0	-100	0	230	101300000	1000	0	0	-1	1000
19069475	0	47	0	-100	0	230	101300000	1000	0	0	-1	1000
19082035	0	53	0	-100	0	230	101300000	1000	0	0	-1	1000
19094595	0	48	0	-100	0	230	101300000	1000	0	0	-1	1000
19107155	0	53	0	-100	0	230	101300000	1000	0	0	-1	1000
19119715	0	45	0	-100	0	230	101300000	1000	0	0	-1	1000
19132275	0	50	0	-100	0	230	101300000	1000	0	0	-1	1000
19144835	0	47	0	-100	0	230	101300000	1000	0	0	-1	1000
19157395	0	49	0	-100	0	230	101300000	1000	0	0	-1	1000
19169955	0	53	0	-100	0	230	101300000	1000	0	0	-1	1000
19182515	0	45	0	-100	0	230	101300000	1000	0	0	-1	1000
19195075	0	49	0	-100	0	230	101300000	1000	0	0	-1	1000
19207635	0	51	0	-100	0	230	101300000	1000	0	0	-1	1000
19220195	0	46	0	-100	0	230	101300000	1000	0	0	-1	1000
19232755	2	49	0	-100	0	230	101300000	1000	0	0	-1	1000
19245315	0	48	0	-100	0	230	101300000	1000	0	0	-1	1000
19257875	0	54	0	-100	0	230	101300000	1000	0	0	-1	1000
19270435	0	47	0	-100	0	230	101300000	1000	0	0	-1	1000
19282995	0	46	0	-100	0	230	101300000	1000	0	0	-1	1000
19295555	0	44	0	-100	0	230	101300000	1000	0	0	-1	1000
19308115	0	51	0	-100	0	230	101300000	1000	0	0	-1	1000
19320675	0	46	0	-100	0	230	101300000	1000	0	0	-1	1000
19333235	0	54	0	-100	0	230	101300000	1000	0	0	-1	1000
19345795	0	47	0	-100	0	230	101300000	1000	0	0	-1	1000
19358355	0	54	0	-100	0	230	101300000	1000	0	0	-1	1000
19370915	0	45	0	-100	0	230	101300000	1000	0	0	-1	1000
19383475	0	54	0	-100	0	230	101300000	1000	0	0	-1	1000
19396035	0	46	0	-100	0	230	101300000	1000	0	0	-1	1000
19408595	0	53	0	-100	0	230	101300000	1000	0	0	-1	1000
19421155	0	44	0	-100	0	230	101300000	1000	0	0	-1	1000
19433715	0	51	0	-100	0	230	101300000	1000	0	0	-1	1000
19446275	0	50	0	-100	0	230	101300000	1000	0	0	-1	1000
19458835	0	46	0	-100	0	230	101300000	1000	0	0	-1	1000
19471395	0	54	0	-100	0	230	101300000	1000	0	0	-1	1000
19483955	0	45	0	-100	0	230	101300000	1000	0	0	-1	1000
19496515	0	54	0	-100	0	230	101300000	1000	0	0	-1	1000
19509075	0	47	0	-100	0	230	101300000	1000	0	0	-1	1000
19521635	0	53	0	-100	0	230	101300000	1000	0	0	-1	1000
19534195	0	47	0	-100	0	230	101300000	1000	0	0	-1	1000
19546755	0	50	0	-100	0	230	101300000	1000	0	0	-1	1000
19559315	0	47	0	-100	0	230	101300000	1000	0	0	-1	1000
19571875	0	53	0	-100	0	230	101300000	1000	0	0	-1	1000
19584435	0	46	0	-100	0	230	101300000	1000	0	0	-1	1000
19596995	0	46	0	-100	0	230	101300000	1000	0	0	-1	1000
19609555	0	49	0	-100	0	230	101300000	1000	0	0	-1	1000
19622115	0	49	0	-100	0	230	101300000	1000	0	0	-1	1000
19634675	0	46	0	-100	0	230	101300000	1000	0	0	-1	1000
19647235	0	47	0	-100	0	230	101300000	1000	0	0	-1	1000
19659795	2	46	0	-100	0	230	101300000	1000	0	0	-1	1000
19672355	0	46	0	-100	0	230	101300000	1000	0	0	-1	1000
19684915	0	51	0	-100	0	230	101300000	1000	0	0	-1	1000
19697475	0	46	0	-100	0	230	101300000	1000	0	0	-1	1000
19710035	0	50	0	-100	0	230	101300000	1000	0	0	-1	1000
19722595	0	46	0	-100	0	230	101300000	1000	0	0	-1	1000
19735155	0	52	0	-100	0	230	101300000	1000	0	0	-1	1000
19747715	0	47	0	-100	0	230	101300000	1000	0	0	-1	1000
19760275	0	47	0	-100	0	230	101300000	1000	0	0	-1	1000
19772835	0	53	0	-100	0	230	101300000	1000	0	0	-1	1000
19785395	0	44	0	-100	0	230	101300000	1000	0	0	-1	1000
19797955	0	54	0	-100	0	230	101300000	1000	0	0	-1	1000
19810515	0	43	0	-100	0	230	101300000	1000	0	0	-1	1000
19823075	0	53	0	-100	0	230	101300000	1000	0	0	-1	1000
19835635	0	46	0	-100	0	230	101300000	1000	0	0	-1	1000
19848195	0	50	0	-100	0	230	101300000	1000	0	0	-1	1000
19860755	0	45	0	-100	0	230	101300000	1000	0	0	-1	1000
19873315	0	52	0	-100	0	230	101300000	1000	0	0	-1	1000
19885875	0	47	0	-100	0	230	101300000	1000	0	0	-1	1000
19898435	0	49	0	-100	0	230	101300000	1000	0	0	-1	1000
19910995	0	49	0	-100	0	230	101300000	1000	0	0	-1	1000
19923555	0	48	0	-100	0	230	101300000	1000	0	0	-1	1000
19936115	0	50	0	-100	0	230	101300000	1000	0	0	-1	1000
19948675	0	46	0	-100	0	230	101300000	1000	0	0	-1	1000
19961235	0	54	0	-100	0	230	101300000	1000	0	0	-1	1000
19973795	0	48	0	-100	0	230	101300000	1000	0	0	-1	1000
19986355	0	49	0	-100	0	230	101300000	1000	0	0	-1	1000
19998915	0	51	0	-100	0	230	101300000	1000	0	0	-1	1000
20011475	0	47	0	-100	0	230	101300000	1000	0	0	-1	1000
20024035	0	54	0	-100	0	230	101300000	1000	0	0	-1	1000
20036595	2	46	0	-100	0	230	101300000	1000	0	0	-1	1000
20049155	0	47	0	-100	0	230	101300000	1000	0	0	-1	1000
20061715	0	54	0	-100	0	230	101300000	1000	0	0	-1	1000
20074275	0	45	0	-100	0	230	101300000	1000	0	0	-1	1000
20086835	0	50	0	-100	0	230	101300000	1000	0	0	-1	1000
20099395	0	50	0	-100	0	230	101300000	1000	0	0	-1	1000
20111955	0	47	0	-100	0	230	101300000	1000	0	0	-1	1000
20124515	2	47	0	-100	0	230	101300000	1000	0	0	-1	1000
20137075	0	47	0	-100	0	230	101300000	1000	0	0	-1	1000
20149635	0	51	0	-100	0	230	101300000	1000	0	0	-1	1000
20162195	0	47	0	-100	0	230	101300000	1000	0	0	-1	1000
20174755	0	50	0	-100	0	230	101300000	1000	0	0	-1	1000
20187315	0	46	0	-100	0	230	101300000	1000	0	0	-1	1000
20199875	0	50	0	-100	0	230	101300000	1000	0	0	-1	1000
20212435	0	50	0	-100	0	230	101300000	1000	0	0	-1	1000
20224995	0	54	0	-100	0	230	101300000	1000	0	0	-1	1000
20237555	0	51	0	-100	0	230	101300000	1000	0	0	-1	1000
20250115	0	47	0	-100	0	230	101300000	1000	0	0	-1	1000
20262675	0	52	0	-100	0	230	101300000	1000	0	0	-1	1000
20275235	0	48	0	-100	0	230	101300000	1000	0	0	-1	1000
20287795	0	53	0	-100	0	230	101300000	1000	0	0	-1	1000
20300355	0	46	0	-100	0	230	101300000	1000	0	0	-1	1000
20312915	0	53	0	-100	0	230	101300000	1000	0	0	-1	1000
20325475	0	48	0	-100	0	230	101300000	1000	0	0	-1	1000
20338035	0	47	0	-100	0	230	101300000	1000	0	0	-1	1000
20350595	0	52	0	-100	0	230	101300000	1000	0	0	-1	1000
20363155	0	46	0	-100	0	230	101300000	1000	0	0	-1	1000
20375715	0	53	0	-100	0	230	101300000	1000	0	0	-1	1000
20388275	0	46	0	-100	0	230	101300000	1000	0	0	-1	1000
20400835	0	50	0	-100	0	230	101300000	1000	0	0	-1	1000
20413395	0	46	0	-100	0	230	101300000	1000	0	0	-1	1000
20425955	0	51	0	-100	0	230	101300000	1000	0	0	-1	1000
20438515	0	46	0	-100	0	230	101300000	1000	0	0	-1	1000
20451075	0	54	0	-100	0	230	101300000	1000	0	0	-1	1000
20463635	0	44	0	-100	0	230	101300000	1000	0	0	-1	1000
20476195	0	50	0	-100	0	230	101300000	1000	0	0	-1	1000
20488755	0	49	0	-100	0	230	101300000	1000	0	0	-1	1000
20501315	0	47	0	-100	0	230	101300000	1000	0	0	-1	1000
20513875	0	48	0	-100	0	230	101300000	1000	0	0	-1	1000
20526435	0	50	0	-100	0	230	101300000	1000	0	0	-1	1000
20538995	0	52	0	-100	0	230	101300000	1000	0	0	-1	1000
20551555	0	54	0	-100	0	230	101300000	1000	0	0	-1	1000
20564115	0	49	0	-100	0	230	101300000	1000	0	0	-1	1000
20576675	0	53	0	-100	0	230	101300000	1000	0	0	-1	1000
20589235	0	48	0	-100	0	230	101300000	1000	0	0	-1	1000
20601795	0	47	0	-100	0	230	101300000	1000	0	0	-1	1000
20614355	0	55	0	-100	0	230	101300000	1000	0	0	-1	1000
20626915	0	46	0	-100	0	230	101300000	1000	0	0	-1	1000
20639475	0	53	0	-100	0	230	101300000	1000	0	0	-1	1000
20652035	0	46	0	-100	0	230	101300000	1000	0	0	-1	1000
20664595	0	51	0	-100	0	230	101300000	1000	0	0	-1	1000
20677155	0	46	0	-100	0	230	101300000	1000	0	0	-1	1000
20689715	0	48	0	-100	0	230	101300000	1000	0	0	-1	1000
20702275	0	50	0	-100	0	230	101300000	1000	0	0	-1	1000
20714835	0	45	0	-100	0	230	101300000	1000	0	0	-1	1000
20727395	0	54	0	-100	0	230	101300000	1000	0	0	-1	1000
20739955	0	46	0	-100	0	230	101300000	1000	0	0	-1	1000
20752515	0	52	0	-100	0	230	101300000	1000	0	0	-1	1000
20765075	0	46	0	-100	0	230	101300000	1000	0	0	-1	1000
20777635	0	46	0	-100	0	230	101300000	1000	0	0	-1	1000
20790195	0	50	0	-100	0	230	101300000	1000	0	0	-1	1000
20802755	0	47	0	-100	0	230	101300000	1000	0	0	-1	1000
20815315	0	50	0	-100	0	230	101300000	1000	0	0	-1	1000
20827875	0	47	0	-100	0	230	101300000	1000	0	0	-1	1000
20840435	0	50	0	-100	0	230	101300000	1000	0	0	-1	1000
20852995	0	52	0	-100	0	230	101300000	1000	0	0	-1	1000
20865555	0	54	0	-100	0	230	101300000	1000	0	0	-1	1000
20878115	0	46	0	-100	0	230	101300000	1000	0	0	-1	1000
20890675	0	50	0	-100	0	230	101300000	1000	0	0	-1	1000
20903235	0	46	0	-100	0	230	101300000	1000	0	0	-1	1000
20915795	0	50	0	-100	0	230	101300000	1000	0	0	-1	1000
20928355	0	47	0	-100	0	230	101300000	1000	0	0	-1	1000
20940915	0	50	0	-100	0	230	101300000	1000	0	0	-1	1000
20953475	0	51	0	-100	0	230	101300000	1000	0	0	-1	1000
20966035	0	47	0	-100	0	230	101300000	1000	0	0	-1	1000
20978595	0	54	0	-100	0	230	101300000	1000	0	0	-1	1000
20991155	0	47	0	-100	0	230	101300000	1000	0	0	-1	1000
21003715	2	46	0	-100	0	230	101300000	1000	0	0	-1	1000
21016275	0	46	0	-100	0	230	101300000	1000	0	0	-1	1000
21028835	0	48	0	-100	0	230	101300000	1000	0	0	-1	1000
21041395	0	50	0	-100	0	230	101300000	1000	0	0	-1	1000
21053955	0	48	0	-100	0	230	101300000	1000	0	0	-1	1000
21066515	0	55	0	-100	0	230	101300000	1000	0	0	-1	1000
21079075	0	45	0	-100	0	230	101300000	1000	0	0	-1	1000
21091635	0	55	0	-100	0	230	101300000	1000	0	0	-1	1000
21104195	0	47	0	-100	0	230	101300000	1000	0	0	-1	1000
21116755	0	50	0	-100	0	230	101300000	1000	0	0	-1	1000
21129315	0	50	0	-100	0	230	101300000	1000	0	0	-1	1000
21141875	0	48	0	-100	0	230	101300000	1000	0	0	-1	1000
21154435	0	49	0	-100	0	230	101300000	1000	0	0	-1	1000
21166995	0	50	0	-100	0	230	101300000	1000	0	0	-1	1000
21179555	0	50	0	-100	0	230	101300000	1000	0	0	-1	1000
21192115	0	44	0	-100	0	230	101300000	1000	0	0	-1	1000
21204675	0	53	0	-100	0	230	101300000	1000	0	0	-1	1000
21217235	0	47	0	-100	0	230	101300000	1000	0	0	-1	1000
21229795	2	46	0	-100	0	230	101300000	1000	0	0	-1	1000
21242355	0	46	0	-100	0	230	101300000	1000	0	0	-1	1000
21254915	0	47	0	-100	0	230	101300000	1000	0	0	-1	1000
21267475	0	49	0	-100	0	230	101300000	1000	0	0	-1	1000
21280035	0	51	0	-100	0	230	101300000	1000	0	0	-1	1000
21292595	0	47	0	-100	0	230	101300000	1000	0	0	-1	1000
21305155	0	49	0	-100	0	230	101300000	1000	0	0	-1	1000
21317715	0	51	0	-100	0	230	101300000	1000	0	0	-1	1000
21330275	0	49	0	-100	0	230	101300000	1000	0	0	-1	1000
21342835	0	52	0	-100	0	230	101300000	1000	0	0	-1	1000
21355395	0	48	0	-100	0	230	101300000	1000	0	0	-1	1000
21367955	0	50	0	-100	0	230	101300000	1000	0	0	-1	1000
21380515	0	50	0	-100	0	230	101300000	1000	0	0	-1	1000
21393075	0	46	0	-100	0	230	101300000	1000	0	0	-1	1000
21405635	0	54	0	-100	0	230	101300000	1000	0	0	-1	1000
21418195	0	46	0	-100	0	230	101300000	1000	0	0	-1	1000
21430755	2	47	0	-100	0	230	101300000	1000	0	0	-1	1000
21443315	0	47	0	-100	0	230	101300000	1000	0	0	-1	1000
21455875	0	51	0	-100	0	230	101300000	1000	0	0	-1	1000
21468435	0	46	0	-100	0	230	101300000	1000	0	0	-1	1000
21480995	0	50	0	-100	0	230	101300000	1000	0	0	-1	1000
21493555	0	46	0	-100	0	230	101300000	1000	0	0	-1	1000
21506115	0	51	0	-100	0	230	101300000	1000	0	0	-1	1000
21518675	0	46	0	-100	0	230	101300000	1000	0	0	-1	1000
21531235	0	54	0	-100	0	230	101300000	1000	0	0	-1	1000
21543795	0	47	0	-100	0	230	101300000	1000	0	0	-1	1000
21556355	0	50	0	-100	0	230	101300000	1000	0	0	-1	1000
21568915	0	50	0	-100	0	230	101300000	1000	0	0	-1	1000
21581475	0	44	0	-100	0	230	101300000	1000	0	0	-1	1000
21594035	0	54	0	-100	0	230	101300000	1000	0	0	-1	1000
21606595	0	50	0	-100	0	230	101300000	1000	0	0	-1	1000
21619155	0	46	0	-100	0	230	101300000	1000	0	0	-1	1000
21631715	0	54	0	-100	0	230	101300000	1000	0	0	-1	1000
21644275	0	47	0	-100	0	230	101300000	1000	0	0	-1	1000
21656835	0	49	0	-100	0	230	101300000	1000	0	0	-1	1000
21669395	0	50	0	-100	0	230	101300000	1000	0	0	-1	1000
21681955	0	46	0	-100	0	230	101300000	1000	0	0	-1	1000
21694515	0	50	0	-100	0	230	101300000	1000	0	0	-1	1000
21707075	0	51	0	-100	0	230	101300000	1000	0	0	-1	1000
21719635	0	47	0	-100	0	230	101300000	1000	0	0	-1	1000
21732195	0	48	0	-100	0	230	101300000	1000	0	0	-1	1000
21744755	0	52	0	-100	0	230	101300000	1000	0	0	-1	1000
21757315	0	47	0	-100	0	230	101300000	1000	0	0	-1	1000
21769875	0	47	0	-100	0	230	101300000	1000	0	0	-1	1000
21782435	0	54	0	-100	0	230	101300000	1000	0	0	-1	1000
21794995	0	47	0	-100	0	230	101300000	1000	0	0	-1	1000
21807555	0	47	0	-100	0	230	101300000	1000	0	0	-1	1000
21820115	0	53	0	-100	0	230	101300000	1000	0	0	-1	1000
21832675	0	52	0	-100	0	230	101300000	1000	0	0	-1	1000
21845235	0	47	0	-100	0	230	101300000	1000	0	0	-1	1000
21857795	0	50	0	-100	0	230	101300000	1000	0	0	-1	1000
21870355	0	50	0	-100	0	230	101300000	1000	0	0	-1	1000
21882915	0	48	0	-100	0	230	101300000	1000	0	0	-1	1000
21895475	0	51	0	-100	0	230	101300000	1000	0	0	-1	1000
21908035	0	47	0	-100	0	230	101300000	1000	0	0	-1	1000
21920595	0	54	0	-100	0	230	101300000	1000	0	0	-1	1000
21933155	0	47	0	-100	0	230	101300000	1000	0	0	-1	1000
21945715	2	49	0	-100	0	230	101300000	1000	0	0	-1	1000
21958275	0	48	0	-100	0	230	101300000	1000	0	0	-1	1000
21970835	0	53	0	-100	0	230	101300000	1000	0	0	-1	1000
21983395	0	47	0	-100	0	230	101300000	1000	0	0	-1	1000
21995955	0	49	0	-100	0	230	101300000	1000	0	0	-1	1000
22008515	0	50	0	-100	0	230	101300000	1000	0	0	-1	1000
22021075	0	46	0	-100	0	230	101300000	1000	0	0	-1	1000
22033635	0	50	0	-100	0	230	101300000	1000	0	0	-1	1000
22046195	0	54	0	-100	0	230	101300000	1000	0	0	-1	1000
22058755	0	47	0	-100	0	230	101300000	1000	0	0	-1	1000
22071315	0	48	0	-100	0	230	101300000	1000	0	0	-1	1000
22083875	0	49	0	-100	0	230	101300000	1000	0	0	-1	1000
22096435	0	50	0	-100	0	230	101300000	1000	0	0	-1	1000
22108995	0	53	0	-100	0	230	101300000	1000	0	0	-1	1000
22121555	0	50	0	-100	0	230	101300000	1000	0	0	-1	1000
22134115	0	52	0	-100	0	230	101300000	1000	0	0	-1	1000
22146675	0	47	0	-100	0	230	101300000	1000	0	0	-1	1000
22159235	0	47	0	-100	0	230	101300000	1000	0	0	-1	1000
22171795	0	53	0	-100	0	230	101300000	1000	0	0	-1	1000
22184355	0	46	0	-100	0	230	101300000	1000	0	0	-1	1000
22196915	0	46	0	-100	0	230	101300000	1000	0	0	-1	1000
22209475	0	52	0	-100	0	230	101300000	1000	0	0	-1	1000
22222035	0	46	0	-100	0	230	101300000	1000	0	0	-1	1000
22234595	0	46	0	-100	0	230	101300000	1000	0	0	-1	1000
22247155	0	54	0	-100	0	230	101300000	1000	0	0	-1	1000
22259715	0	47	0	-100	0	230	101300000	1000	0	0	-1	1000
22272275	0	50	0	-100	0	230	101300000	1000	0	0	-1	1000
22284835	0	52	0	-100	0	230	101300000	1000	0	0	-1	1000
22297395	0	45	0	-100	0	230	101300000	1000	0	0	-1	1000
22309955	0	54	0	-100	0	230	101300000	1000	0	0	-1	1000
22322515	0	48	0	-100	0	230	101300000	1000	0	0	-1	1000
22335075	0	54	0	-100	0	230	101300000	1000	0	0	-1	1000
22347635	0	46	0	-100	0	230	101300000	1000	0	0	-1	1000
22360195	0	47	0	-100	0	230	101300000	1000	0	0	-1	1000
22372755	0	55	0	-100	0	230	101300000	1000	0	0	-1	1000
22385315	0	46	0	-100	0	230	101300000	1000	0	0	-1	1000
22397875	2	46	0	-100	0	230	101300000	1000	0	0	-1	1000
22410435	0	50	0	-100	0	230	101300000	1000	0	0	-1	1000
22422995	0	51	0	-100	0	230	101300000	1000	0	0	-1	1000
22435555	0	53	0	-100	0	230	101300000	1000	0	0	-1	1000
22448115	0	50	0	-100	0	230	101300000	1000	0	0	-1	1000
22460675	0	46	0	-100	0	230	101300000	1000	0	0	-1	1000
22473235	0	52	0	-100	0	230	101300000	1000	0	0	-1	1000
22485795	0	48	0	-100	0	230	101300000	1000	0	0	-1	1000
22498355	0	46	0	-100	0	230	101300000	1000	0	0	-1	1000
22510915	0	53	0	-100	0	230	101300000	1000	0	0	-1	1000
22523475	0	47	0	-100	0	230	101300000	1000	0	0	-1	1000
22536035	0	46	0	-100	0	230	101300000	1000	0	0	-1	1000
22548595	0	53	0	-100	0	230	101300000	1000	0	0	-1	1000
22561155	0	48	0	-100	0	230	101300000	1000	0	0	-1	1000
22573715	0	44	0	-100	0	230	101300000	1000	0	0	-1	1000
22586275	0	53	0	-100	0	230	101300000	1000	0	0	-1	1000
22598835	0	48	0	-100	0	230	101300000	1000	0	0	-1	1000
22611395	0	47	0	-100	0	230	101300000	1000	0	0	-1	1000
22623955	0	54	0	-100	0	230	101300000	1000	0	0	-1	1000
22636515	0	46	0	-100	0	230	101300000	1000	0	0	-1	1000
22649075	0	46	0	-100	0	230	101300000	1000	0	0	-1	1000
22661635	0	51	0	-100	0	230	101300000	1000	0	0	-1	1000
22674195	0	51	0	-100	0	230	101300000	1000	0	0	-1	1000
22686755	0	48	0	-100	0	230	101300000	1000	0	0	-1	1000
22699315	0	47	0	-100	0	230	101300000	1000	0	0	-1	1000
22711875	0	54	0	-100	0	230	101300000	1000	0	0	-1	1000
22724435	0	46	0	-100	0	230	101300000	1000	0	0	-1	1000
22736995	0	51	0	-100	0	230	101300000	1000	0	0	-1	1000
22749555	2	47	0	-100	0	230	101300000	1000	0	0	-1	1000
22762115	0	50	0	-100	0	230	101300000	1000	0	0	-1	1000
22774675	0	46	0	-100	0	230	101300000	1000	0	0	-1	1000
22787235	0	45	0	-100	0	230	101300000	1000	0	0	-1	1000
22799795	0	47	0	-100	0	230	101300000	1000	0	0	-1	1000
22812355	0	51	0	-100	0	230	101300000	1000	0	0	-1	1000
22824915	0	54	0	-100	0	230	101300000	1000	0	0	-1	1000
22837475	0	46	0	-100	0	230	101300000	1000	0	0	-1	1000
22850035	0	47	0	-100	0	230	101300000	1000	0	0	-1	1000
22862595	0	47	0	-100	0	230	101300000	1000	0	0	-1	1000
22875155	0	52	0	-100	0	230	101300000	1000	0	0	-1	1000
22887715	0	50	0	-100	0	230	101300000	1000	0	0	-1	1000
22900275	0	47	0	-100	0	230	101300000	1000	0	0	-1	1000
22912835	0	48	0	-100	0	230	101300000	1000	0	0	-1	1000
22925395	0	50	0	-100	0	230	101300000	1000	0	0	-1	1000
22937955	0	54	0	-100	0	230	101300000	1000	0	0	-1	1000
22950515	0	50	0	-100	0	230	101300000	1000	0	0	-1	1000
22963075	0	48	0	-100	0	230	101300000	1000	0	0	-1	1000
22975635	0	46	0	-100	0	230	101300000	1000	0	0	-1	1000
22988195	0	48	0	-100	0	230	101300000	1000	0	0	-1	1000
23000755	0	51	0	-100	0	230	101300000	1000	0	0	-1	1000
23013315	0	50	0	-100	0	230	101300000	1000	0	0	-1	1000
23025875	0	46	0	-100	0	230	101300000	1000	0	0	-1	1000
23038435	0	47	0	-100	0	230	101300000	1000	0	0	-1	1000
23050995	0	47	0	-100	0	230	101300000	1000	0	0	-1	1000
23063555	0	46	0	-100	0	230	101300000	1000	0	0	-1	1000
23076115	0	45	0	-100	0	230	101300000	1000	0	0	-1	1000
23088675	0	51	0	-100	0	230	101300000	1000	0	0	-1	1000
23101235	0	54	0	-100	0	230	101300000	1000	0	0	-1	1000
23113795	0	47	0	-100	0	230	101300000	1000	0	0	-1	1000
23126355	0	45	0	-100	0	230	101300000	1000	0	0	-1	1000
23138915	0	50	0	-100	0	230	101300000	1000	0	0	-1	1000
23151475	2	47	0	-100	0	230	101300000	1000	0	0	-1	1000
23164035	0	50	0	-100	0	230	101300000	1000	0	0	-1	1000
23176595	0	47	0	-100	0	230	101300000	1000	0	0	-1	1000
23189155	0	46	0	-100	0	230	101300000	1000	0	0	-1	1000
23201715	0	48	0	-100	0	230	101300000	1000	0	0	-1	1000
23214275	2	46	0	-100	0	230	101300000	1000	0	0	-1	1000
23226835	0	50	0	-100	0	230	101300000	1000	0	0	-1	1000
23239395	0	47	0	-100	0	230	101300000	1000	0	0	-1	1000
23251955	0	50	0	-100	0	230	101300000	1000	0	0	-1	1000
23264515	0	52	0	-100	0	230	101300000	1000	0	0	-1	1000
23277075	0	46	0	-100	0	230	101300000	1000	0	0	-1	1000
23289635	0	52	0	-100	0	230	101300000	1000	0	0	-1	1000
23302195	0	50	0	-100	0	230	101300000	1000	0	0	-1	1000
23314755	0	48	0	-100	0	230	101300000	1000	0	0	-1	1000
23327315	0	50	0	-100	0	230	101300000	1000	0	0	-1	1000
23339875	0	45	0	-100	0	230	101300000	1000	0	0	-1	1000
23352435	0	54	0	-100	0	230	101300000	1000	0	0	-1	1000
23364995	0	47	0	-100	0	230	101300000	1000	0	0	-1	1000
23377555	0	46	0	-100	0	230	101300000	1000	0	0	-1	1000
23390115	0	50	0	-100	0	230	101300000	1000	0	0	-1	1000
23402675	0	46	0	-100	0	230	101300000	1000	0	0	-1	1000
23415235	0	46	0	-100	0	230	101300000	1000	0	0	-1	1000
23427795	0	50	0	-100	0	230	101300000	1000	0	0	-1	1000
23440355	0	54	0	-100	0	230	101300000	1000	0	0	-1	1000
23452915	0	47	0	-100	0	230	101300000	1000	0	0	-1	1000
23465475	0	47	0	-100	0	230	101300000	1000	0	0	-1	1000
23478035	2	47	0	-100	0	230	101300000	1000	0	0	-1	1000
23490595	0	50	0	-100	0	230	101300000	1000	0	0	-1	1000
23503155	0	46	0	-100	0	230	101300000	1000	0	0	-1	1000
23515715	0	50	0	-100	0	230	101300000	1000	0	0	-1	1000
23528275	0	54	0	-100	0	230	101300000	1000	0	0	-1	1000
23540835	0	47	0	-100	0	230	101300000	1000	0	0	-1	1000
23553395	0	46	0	-100	0	230	101300000	1000	0	0	-1	1000
23565955	0	47	0	-100	0	230	101300000	1000	0	0	-1	1000
23578515	0	48	0	-100	0	230	101300000	1000	0	0	-1	1000
23591075	0	51	0	-100	0	230	101300000	1000	0	0	-1	1000
23603635	0	53	0	-100	0	230	101300000	1000	0	0	-1	1000
23616195	0	51	0	-100	0	230	101300000	1000	0	0	-1	1000
23628755	0	46	0	-100	0	230	101300000	1000	0	0	-1	1000
23641315	0	46	0	-100	0	230	101300000	1000	0	0	-1	1000
23653875	0	49	0	-100	0	230	101300000	1000	0	0	-1	1000
23666435	2	47	0	-100	0	230	101300000	1000	0	0	-1	1000
23678995	0	46	0	-100	0	230	101300000	1000	0	0	-1	1000
23691555	0	47	0	-100	0	230	101300000	1000	0	0	-1	1000
23704115	0	44	0	-100	0	230	101300000	1000	0	0	-1	1000
23716675	0	50	0	-100	0	230	101300000	1000	0	0	-1	1000
23729235	0	54	0	-100	0	230	101300000	1000	0	0	-1	1000
23741795	0	46	0	-100	0	230	101300000	1000	0	0	-1	1000
23754355	0	47	0	-100	0	230	101300000	1000	0	0	-1	1000
23766915	0	52	0	-100	0	230	101300000	1000	0	0	-1	1000
23779475	0	50	0	-100	0	230	101300000	1000	0	0	-1	1000
23792035	0	48	0	-100	0	230	101300000	1000	0	0	-1	1000
23804595	0	44	0	-100	0	230	101300000	1000	0	0	-1	1000
23817155	0	51	0	-100	0	230	101300000	1000	0	0	-1	1000
23829715	0	50	0	-100	0	230	101300000	1000	0	0	-1	1000
23842275	0	48	0	-100	0	230	101300000	1000	0	0	-1	1000
23854835	0	50	0	-100	0	230	101300000	1000	0	0	-1	1000
23867395	0	54	0	-100	0	230	101300000	1000	0	0	-1	1000
23879955	0	46	0	-100	0	230	101300000	1000	0	0	-1	1000
23892515	0	44	0	-100	0	230	101300000	1000	0	0	-1	1000
23905075	0	51	0	-100	0	230	101300000	1000	0	0	-1	1000
23917635	2	48	0	-100	0	230	101300000	1000	0	0	-1	1000
23930195	0	50	0	-100	0	230	101300000	1000	0	0	-1	1000
23942755	0	47	0	-100	0	230	101300000	1000	0	0	-1	1000
23955315	0	46	0	-100	0	230	101300000	1000	0	0	-1	1000
23967875	0	50	0	-100	0	230	101300000	1000	0	0	-1	1000
23980435	0	54	0	-100	0	230	101300000	1000	0	0	-1	1000
23992995	0	45	0	-100	0	230	101300000	1000	0	0	-1	1000
24005555	0	48	0	-100	0	230	101300000	1000	0	0	-1	1000
24018115	0	47	0	-100	0	230	101300000	1000	0	0	-1	1000
24030675	0	47	0	-100	0	230	101300000	1000	0	0	-1	1000
24043235	0	53	0	-100	0	230	101300000	1000	0	0	-1	1000
24055795	0	50	0	-100	0	230	101300000	1000	0	0	-1	1000
24068355	0	46	0	-100	0	230	101300000	1000	0	0	-1	1000
24080915	0	52	0	-100	0	230	101300000	1000	0	0	-1	1000
24093475	0	49	0	-100	0	230	101300000	1000	0	0	-1	1000
24106035	0	47	0	-100	0	230	101300000	1000	0	0	-1	1000
24118595	0	50	0	-100	0	230	101300000	1000	0	0	-1	1000
24131155	0	48	0	-100	0	230	101300000	1000	0	0	-1	1000
24143715	0	54	0	-100	0	230	101300000	1000	0	0	-1	1000
24156275	0	47	0	-100	0	230	101300000	1000	0	0	-1	1000
24168835	0	48	0	-100	0	230	101300000	1000	0	0	-1	1000
24181395	0	54	0	-100	0	230	101300000	1000	0	0	-1	1000
24193955	0	50	0	-100	0	230	101300000	1000	0	0	-1	1000
24206515	0	46	0	-100	0	230	101300000	1000	0	0	-1	1000
24219075	0	47	0	-100	0	230	101300000	1000	0	0	-1	1000
24231635	0	53	0	-100	0	230	101300000	1000	0	0	-1	1000
24244195	0	46	0	-100	0	230	101300000	1000	0	0	-1	1000
24256755	0	46	0	-100	0	230	101300000	1000	0	0	-1	1000
24269315	0	46	0	-100	0	230	101300000	1000	0	0	-1	1000
24281875	0	50	0	-100	0	230	101300000	1000	0	0	-1	1000
24294435	0	54	0	-100	0	230	101300000	1000	0	0	-1	1000
24306995	0	49	0	-100	0	230	101300000	1000	0	0	-1	1000
24319555	0	48	0	-100	0	230	101300000	1000	0	0	-1	1000
24332115	0	54	0	-100	0	230	101300000	1000	0	0	-1	1000
24344675	0	46	0	-100	0	230	101300000	1000	0	0	-1	1000
24357235	2	46	0	-100	0	230	101300000	1000	0	0	-1	1000
24369795	0	53	0	-100	0	230	101300000	1000	0	0	-1	1000
24382355	0	47	0	-100	0	230	101300000	1000	0	0	-1	1000
24394915	0	44	0	-100	0	230	101300000	1000	0	0	-1	1000
24407475	0	50	0	-100	0	230	101300000	1000	0	0	-1	1000
24420035	0	56	0	-100	0	230	101300000	1000	0	0	-1	1000
24432595	0	47	0	-100	0	230	101300000	1000	0	0	-1	1000
24445155	0	48	0	-100	0	230	101300000	1000	0	0	-1	1000
24457715	0	51	0	-100	0	230	101300000	1000	0	0	-1	1000
24470275	0	50	0	-100	0	230	101300000	1000	0	0	-1	1000
24482835	0	46	0	-100	0	230	101300000	1000	0	0	-1	1000
24495395	0	48	0	-100	0	230	101300000	1000	0	0	-1	1000
24507955	0	53	0	-100	0	230	101300000	1000	0	0	-1	1000
24520515	0	46	0	-100	0	230	101300000	1000	0	0	-1	1000
24533075	0	45	0	-100	0	230	101300000	1000	0	0	-1	1000
24545635	0	48	0	-100	0	230	101300000	1000	0	0	-1	1000
24558195	0	54	0	-100	0	230	101300000	1000	0	0	-1	1000
24570755	0	53	0	-100	0	230	101300000	1000	0	0	-1	1000
24583315	0	48	0	-100	0	230	101300000	1000	0	0	-1	1000
24595875	0	46	0	-100	0	230	101300000	1000	0	0	-1	1000
24608435	0	46	0	-100	0	230	101300000	1000	0	0	-1	1000
24620995	0	46	0	-100	0	230	101300000	1000	0	0	-1	1000
24633555	0	51	0	-100	0	230	101300000	1000	0	0	-1	1000
24646115	0	50	0	-100	0	230	101300000	1000	0	0	-1	1000
24658675	0	50	0	-100	0	230	101300000	1000	0	0	-1	1000
24671235	0	47	0	-100	0	230	101300000	1000	0	0	-1	1000
24683795	0	48	0	-100	0	230	101300000	1000	0	0	-1	1000
24696355	0	47	0	-100	0	230	101300000	1000	0	0	-1	1000
24708915	0	49	0	-100	0	230	101300000	1000	0	0	-1	1000
24721475	0	46	0	-100	0	230	101300000	1000	0	0	-1	1000
24734035	0	47	0	-100	0	230	101300000	1000	0	0	-1	1000
24746595	0	47	0	-100	0	230	101300000	1000	0	0	-1	1000
24759155	0	47	0	-100	0	230	101300000	1000	0	0	-1	1000
24771715	0	47	0	-100	0	230	101300000	1000	0	0	-1	1000
24784275	0	48	0	-100	0	230	101300000	1000	0	0	-1	1000
24796835	0	47	0	-100	0	230	101300000	1000	0	0	-1	1000
24809395	0	50	0	-100	0	230	101300000	1000	0	0	-1	1000
24821955	0	52	0	-100	0	230	101300000	1000	0	0	-1	1000
24834515	2	46	0	-100	0	230	101300000	1000	0	0	-1	1000
24847075	2	46	0	-100	0	230	101300000	1000	0	0	-1	1000
24859635	2	46	0	-100	0	230	101300000	1000	0	0	-1	1000
24872195	0	50	0	-100	0	230	101300000	1000	0	0	-1	1000
24884755	0	51	0	-100	0	230	101300000	1000	0	0	-1	1000
24897315	0	50	0	-100	0	230	101300000	1000	0	0	-1	1000
24909875	0	52	0	-100	0	230	101300000	1000	0	0	-1	1000
24922435	0	52	0	-100	0	230	101300000	1000	0	0	-1	1000
24934995	2	50	0	-100	0	230	101300000	1000	0	0	-1	1000
24947555	0	51	0	-100	0	230	101300000	1000	0	0	-1	1000
24960115	2	46	0	-100	0	230	101300000	1000	0	0	-1	1000
24972675	0	54	0	-100	0	230	101300000	1000	0	0	-1	1000
24985235	0	54	0	-100	0	230	101300000	1000	0	0	-1	1000
24997795	0	50	0	-100	0	230	101300000	1000	0	0	-1	1000
25010355	0	47	0	-100	0	230	101300000	1000	0	0	-1	1000
25022915	0	46	0	-100	0	230	101300000	1000	0	0	-1	1000
25035475	0	47	0	-100	0	230	101300000	1000	0	0	-1	1000
25048035	0	46	0	-100	0	230	101300000	1000	0	0	-1	1000
25060595	0	48	0	-100	0	230	101300000	1000	0	0	-1	1000
25073155	0	54	0	-100	0	230	101300000	1000	0	0	-1	1000
25085715	0	51	0	-100	0	230	101300000	1000	0	0	-1	1000
25098275	0	46	0	-100	0	230	101300000	1000	0	0	-1	1000
25110835	0	47	0	-100	0	230	101300000	1000	0	0	-1	1000
25123395	0	47	0	-100	0	230	101300000	1000	0	0	-1	1000
25135955	0	54	0	-100	0	230	101300000	1000	0	0	-1	1000
25148515	0	50	0	-100	0	230	101300000	1000	0	0	-1	1000
25161075	0	46	0	-100	0	230	101300000	1000	0	0	-1	1000
25173635	0	47	0	-100	0	230	101300000	1000	0	0	-1	1000
25186195	0	50	0	-100	0	230	101300000	1000	0	0	-1	1000
25198755	2	46	0	-100	0	230	101300000	1000	0	0	-1	1000
25211315	0	55	0	-100	0	230	101300000	1000	0	0	-1	1000
25223875	0	50	0	-100	0	230	101300000	1000	0	0	-1	1000
25236435	0	47	0	-100	0	230	101300000	1000	0	0	-1	1000
25248995	0	54	0	-100	0	230	101300000	1000	0	0	-1	1000
25261555	2	47	0	-100	0	230	101300000	1000	0	0	-1	1000
25274115	0	50	0	-100	0	230	101300000	1000	0	0	-1	1000
25286675	0	46	0	-100	0	230	101300000	1000	0	0	-1	1000
25299235	0	47	0	-100	0	230	101300000	1000	0	0	-1	1000
25311795	0	53	0	-100	0	230	101300000	1000	0	0	-1	1000
25324355	0	54	0	-100	0	230	101300000	1000	0	0	-1	1000
25336915	0	46	0	-100	0	230	101300000	1000	0	0	-1	1000
25349475	0	46	0	-100	0	230	101300000	1000	0	0	-1	1000
25362035	0	50	0	-100	0	230	101300000	1000	0	0	-1	1000
25374595	0	54	0	-100	0	230	101300000	1000	0	0	-1	1000
25387155	0	47	0	-100	0	230	101300000	1000	0	0	-1	1000
25399715	0	48	0	-100	0	230	101300000	1000	0	0	-1	1000
25412275	0	48	0	-100	0	230	101300000	1000	0	0	-1	1000
25424835	2	46	0	-100	0	230	101300000	1000	0	0	-1	1000
25437395	0	51	0	-100	0	230	101300000	1000	0	0	-1	1000
25449955	0	49	0	-100	0	230	101300000	1000	0	0	-1	1000
25462515	0	46	0	-100	0	230	101300000	1000	0	0	-1	1000
25475075	0	46	0	-100	0	230	101300000	1000	0	0	-1	1000
25487635	0	47	0	-100	0	230	101300000	1000	0	0	-1	1000
25500195	2	46	0	-100	0	230	101300000	1000	0	0	-1	1000
25512755	0	54	0	-100	0	230	101300000	1000	0	0	-1	1000
25525315	0	50	0	-100	0	230	101300000	1000	0	0	-1	1000
25537875	0	46	0	-100	0	230	101300000	1000	0	0	-1	1000
25550435	0	48	0	-100	0	230	101300000	1000	0	0	-1	1000
25562995	0	54	0	-100	0	230	101300000	1000	0	0	-1	1000
25575555	2	46	0	-100	0	230	101300000	1000	0	0	-1	1000
25588115	0	53	0	-100	0	230	101300000	1000	0	0	-1	1000
25600675	0	47	0	-100	0	230	101300000	1000	0	0	-1	1000
25613235	0	46	0	-100	0	230	101300000	1000	0	0	-1	1000
25625795	0	50	0	-100	0	230	101300000	1000	0	0	-1	1000
25638355	0	53	0	-100	0	230	101300000	1000	0	0	-1	1000
25650915	0	50	0	-100	0	230	101300000	1000	0	0	-1	1000
25663475	0	49	0	-100	0	230	101300000	1000	0	0	-1	1000
25676035	0	46	0	-100	0	230	101300000	1000	0	0	-1	1000
25688595	0	47	0	-100	0	230	101300000	1000	0	0	-1	1000
25701155	0	46	0	-100	0	230	101300000	1000	0	0	-1	1000
25713715	0	47	0	-100	0	230	101300000	1000	0	0	-1	1000
25726275	0	50	0	-100	0	230	101300000	1000	0	0	-1	1000
25738835	0	54	0	-100	0	230	101300000	1000	0	0	-1	1000
25751395	0	51	0	-100	0	230	101300000	1000	0	0	-1	1000
25763955	0	46	0	-100	0	230	101300000	1000	0	0	-1	1000
25776515	0	47	0	-100	0	230	101300000	1000	0	0	-1	1000
25789075	0	54	0	-100	0	230	101300000	1000	0	0	-1	1000
25801635	0	50	0	-100	0	230	101300000	1000	0	0	-1	1000
25814195	0	46	0	-100	0	230	101300000	1000	0	0	-1	1000
25826755	0	48	0	-100	0	230	101300000	1000	0	0	-1	1000
25839315	0	47	0	-100	0	230	101300000	1000	0	0	-1	1000
25851875	0	53	0	-100	0	230	101300000	1000	0	0	-1	1000
25864435	0	50	0	-100	0	230	101300000	1000	0	0	-1	1000
25876995	0	48	0	-100	0	230	101300000	1000	0	0	-1	1000
25889555	0	48	0	-100	0	230	101300000	1000	0	0	-1	1000
25902115	0	51	0	-100	0	230	101300000	1000	0	0	-1	1000
25914675	0	50	0	-100	0	230	101300000	1000	0	0	-1	1000
25927235	0	47	0	-100	0	230	101300000	1000	0	0	-1	1000
25939795	0	49	0	-100	0	230	101300000	1000	0	0	-1	1000
25952355	2	46	0	-100	0	230	101300000	1000	0	0	-1	1000
25964915	0	54	0	-100	0	230	101300000	1000	0	0	-1	1000
25977475	0	50	0	-100	0	230	101300000	1000	0	0	-1	1000
25990035	0	46	0	-100	0	230	101300000	1000	0	0	-1	1000
26002595	0	46	0	-100	0	230	101300000	1000	0	0	-1	1000
26015155	0	48	0	-100	0	230	101300000	1000	0	0	-1	1000
26027715	0	51	0	-100	0	230	101300000	1000	0	0	-1	1000
26040275	2	46	0	-100	0	230	101300000	1000	0	0	-1	1000
26052835	2	49	0	-100	0	230	101300000	1000	0	0	-1	1000
26065395	0	54	0	-100	0	230	101300000	1000	0	0	-1	1000
26077955	0	50	0	-100	0	230	101300000	1000	0	0	-1	1000
26090515	0	48	0	-100	0	230	101300000	1000	0	0	-1	1000
26103075	0	48	0	-100	0	230	101300000	1000	0	0	-1	1000
26115635	0	45	0	-100	0	230	101300000	1000	0	0	-1	1000
26128195	0	47	0	-100	0	230	101300000	1000	0	0	-1	1000
26140755	0	51	0	-100	0	230	101300000	1000	0	0	-1	1000
26153315	0	53	0	-100	0	230	101300000	1000	0	0	-1	1000
26165875	0	49	0	-100	0	230	101300000	1000	0	0	-1	1000
26178435	0	48	0	-100	0	230	101300000	1000	0	0	-1	1000
26190995	0	51	0	-100	0	230	101300000	1000	0	0	-1	1000
26203555	0	45	0	-100	0	230	101300000	1000	0	0	-1	1000
26216115	0	46	0	-100	0	230	101300000	1000	0	0	-1	1000
26228675	0	52	0	-100	0	230	101300000	1000	0	0	-1	1000
26241235	0	53	0	-100	0	230	101300000	1000	0	0	-1	1000
26253795	0	54	0	-100	0	230	101300000	1000	0	0	-1	1000
26266355	0	50	0	-100	0	230	101300000	1000	0	0	-1	1000
26278915	0	47	0	-100	0	230	101300000	1000	0	0	-1	1000
26291475	0	47	0	-100	0	230	101300000	1000	0	0	-1	1000
26304035	0	46	0	-100	0	230	101300000	1000	0	0	-1	1000
26316595	0	49	0	-100	0	230	101300000	1000	0	0	-1	1000
26329155	0	53	0	-100	0	230	101300000	1000	0	0	-1	1000
26341715	0	48	0	-100	0	230	101300000	1000	0	0	-1	1000
26354275	0	48	0	-100	0	230	101300000	1000	0	0	-1	1000
26366835	0	46	0	-100	0	230	101300000	1000	0	0	-1	1000
26379395	0	43	0	-100	0	230	101300000	1000	0	0	-1	1000
26391955	0	46	0	-100	0	230	101300000	1000	0	0	-1	1000
26404515	4	48	0	-100	0	230	101300000	1000	0	0	-1	1000
26417075	0	50	0	-100	0	230	101300000	1000	0	0	-1	1000
26429635	0	46	0	-100	0	230	101300000	1000	0	0	-1	1000
26442195	0	46	0	-100	0	230	101300000	1000	0	0	-1	1000
26454755	0	54	0	-100	0	230	101300000	1000	0	0	-1	1000
26467315	0	54	0	-100	0	230	101300000	1000	0	0	-1	1000
26479875	0	48	0	-100	0	230	101300000	1000	0	0	-1	1000
26492435	0	46	0	-100	0	230	101300000	1000	0	0	-1	1000
26504995	0	49	0	-100	0	230	101300000	1000	0	0	-1	1000
26517555	0	50	0	-100	0	230	101300000	1000	0	0	-1	1000
26530115	0	47	0	-100	0	230	101300000	1000	0	0	-1	1000
26542675	0	46	0	-100	0	230	101300000	1000	0	0	-1	1000
26555235	0	53	0	-100	0	230	101300000	1000	0	0	-1	1000
26567795	0	47	0	-100	0	230	101300000	1000	0	0	-1	1000
26580355	0	44	0	-100	0	230	101300000	1000	0	0	-1	1000
26592915	0	51	0	-100	0	230	101300000	1000	0	0	-1	1000
26605475	0	54	0	-100	0	230	101300000	1000	0	0	-1	1000
26618035	0	48	0	-100	0	230	101300000	1000	0	0	-1	1000
26630595	0	46	0	-100	0	230	101300000	1000	0	0	-1	1000
26643155	0	53	0	-100	0	230	101300000	1000	0	0	-1	1000
26655715	0	50	0	-100	0	230	101300000	1000	0	0	-1	1000
26668275	0	46	0	-100	0	230	101300000	1000	0	0	-1	1000
26680835	0	47	0	-100	0	230	101300000	1000	0	0	-1	1000
26693395	2	47	0	-100	0	230	101300000	1000	0	0	-1	1000
26705955	0	50	0	-100	0	230	101300000	1000	0	0	-1	1000
26718515	0	47	0	-100	0	230	101300000	1000	0	0	-1	1000
26731075	0	45	0	-100	0	230	101300000	1000	0	0	-1	1000
26743635	0	50	0	-100	0	230	101300000	1000	0	0	-1	1000
26756195	0	54	0	-100	0	230	101300000	1000	0	0	-1	1000
26768755	0	46	0	-100	0	230	101300000	1000	0	0	-1	1000
26781315	0	44	0	-100	0	230	101300000	1000	0	0	-1	1000
26793875	0	50	0	-100	0	230	101300000	1000	0	0	-1	1000
26806435	0	54	0	-100	0	230	101300000	1000	0	0	-1	1000
26818995	0	46	0	-100	0	230	101300000	1000	0	0	-1	1000
26831555	0	47	0	-100	0	230	101300000	1000	0	0	-1	1000
26844115	0	44	0	-100	0	230	101300000	1000	0	0	-1	1000
26856675	0	47	0	-100	0	230	101300000	1000	0	0	-1	1000
26869235	0	52	0	-100	0	230	101300000	1000	0	0	-1	1000
26881795	0	51	0	-100	0	230	101300000	1000	0	0	-1	1000
26894355	0	46	0	-100	0	230	101300000	1000	0	0	-1	1000
26906915	0	47	0	-100	0	230	101300000	1000	0	0	-1	1000
26919475	2	47	0	-100	0	230	101300000	1000	0	0	-1	1000
26932035	0	50	0	-100	0	230	101300000	1000	0	0	-1	1000
26944595	0	47	0	-100	0	230	101300000	1000	0	0	-1	1000
26957155	0	50	0	-100	0	230	101300000	1000	0	0	-1	1000
26969715	0	55	0	-100	0	230	101300000	1000	0	0	-1	1000
26982275	0	48	0	-100	0	230	101300000	1000	0	0	-1	1000
26994835	0	45	0	-100	0	230	101300000	1000	0	0	-1	1000
27007395	0	50	0	-100	0	230	101300000	1000	0	0	-1	1000
27019955	0	49	0	-100	0	230	101300000	1000	0	0	-1	1000
27032515	0	46	0	-100	0	230	101300000	1000	0	0	-1	1000
27045075	0	50	0	-100	0	230	101300000	1000	0	0	-1	1000
