timestamp	voltage	current	windSpeed	pitchAngle	rpm	temperature	ambientPressure	humidity	accelerationX	accelerationY	accelerationZ	currentSink
7038070	2006	1	0	-100	0	230	101300000	1000	0	0	-1	0
7045523	2011	0	0	-100	0	230	101300000	1000	0	0	-1	0
7058083	2008	0	0	-100	0	230	101300000	1000	0	0	-1	0
7070643	2011	0	0	-100	0	230	101300000	1000	0	0	-1	0
7083203	2010	0	0	-100	0	230	101300000	1000	0	0	-1	0
7095763	2008	0	0	-100	0	230	101300000	1000	0	0	-1	0
7108323	2006	0	0	-100	0	230	101300000	1000	0	0	-1	0
7120883	2005	0	0	-100	0	230	101300000	1000	0	0	-1	0
7133443	2002	0	0	-100	0	230	101300000	1000	0	0	-1	0
7146004	2008	0	0	-100	0	230	101300000	1000	0	0	-1	0
7158563	2005	2	0	-100	0	230	101300000	1000	0	0	-1	0
7171123	2002	0	0	-100	0	230	101300000	1000	0	0	-1	0
7183683	2004	0	0	-100	0	230	101300000	1000	0	0	-1	0
7196243	2011	0	0	-100	0	230	101300000	1000	0	0	-1	0
7208803	2007	0	0	-100	0	230	101300000	1000	0	0	-1	0
7221363	2005	0	0	-100	0	230	101300000	1000	0	0	-1	0
7233923	2005	3	0	-100	0	230	101300000	1000	0	0	-1	0
7246483	2002	0	0	-100	0	230	101300000	1000	0	0	-1	0
7259043	2010	0	0	-100	0	230	101300000	1000	0	0	-1	0
7271603	2009	0	0	-100	0	230	101300000	1000	0	0	-1	0
7284163	2001	0	0	-100	0	230	101300000	1000	0	0	-1	0
7296723	2001	0	0	-100	0	230	101300000	1000	0	0	-1	0
7309283	2005	2	0	-100	0	230	101300000	1000	0	0	-1	0
7321843	2005	0	0	-100	0	230	101300000	1000	0	0	-1	0
7334403	2003	0	0	-100	0	230	101300000	1000	0	0	-1	0
7346963	2006	0	0	-100	0	230	101300000	1000	0	0	-1	0
7677555	75	616	0	-100	0	230	101300000	1000	0	0	-1	1000
7690115	75	615	0	-100	0	230	101300000	1000	0	0	-1	1000
7702675	77	619	0	-100	0	230	101300000	1000	0	0	-1	1000
7715235	72	620	0	-100	0	230	101300000	1000	0	0	-1	1000
7727795	72	618	0	-100	0	230	101300000	1000	0	0	-1	1000
7740355	75	618	0	-100	0	230	101300000	1000	0	0	-1	1000
7752915	75	619	0	-100	0	230	101300000	1000	0	0	-1	1000
7765475	75	618	0	-100	0	230	101300000	1000	0	0	-1	1000
7778035	75	617	0	-100	0	230	101300000	1000	0	0	-1	1000
7790595	75	620	0	-100	0	230	101300000	1000	0	0	-1	1000
7803155	72	616	0	-100	0	230	101300000	1000	0	0	-1	1000
7815715	75	613	0	-100	0	230	101300000	1000	0	0	-1	1000
7840835	82	612	0	-100	0	230	101300000	1000	0	0	-1	1000
7853395	80	612	0	-100	0	230	101300000	1000	0	0	-1	1000
7865955	80	613	0	-100	0	230	101300000	1000	0	0	-1	1000
7878515	82	614	0	-100	0	230	101300000	1000	0	0	-1	1000
7891075	80	612	0	-100	0	230	101300000	1000	0	0	-1	1000
7903635	77	618	0	-100	0	230	101300000	1000	0	0	-1	1000
7916195	75	617	0	-100	0	230	101300000	1000	0	0	-1	1000
7928755	75	621	0	-100	0	230	101300000	1000	0	0	-1	1000
7941315	75	620	0	-100	0	230	101300000	1000	0	0	-1	1000
7953875	75	620	0	-100	0	230	101300000	1000	0	0	-1	1000
7966435	72	616	0	-100	0	230	101300000	1000	0	0	-1	1000
7978995	80	620	0	-100	0	230	101300000	1000	0	0	-1	1000
8004115	84	612	0	-100	0	230	101300000	1000	0	0	-1	1000
8016675	79	612	0	-100	0	230	101300000	1000	0	0	-1	1000
8029235	75	617	0	-100	0	230	101300000	1000	0	0	-1	1000
8041795	77	618	0	-100	0	230	101300000	1000	0	0	-1	1000
8054355	75	619	0	-100	0	230	101300000	1000	0	0	-1	1000
8066915	72	619	0	-100	0	230	101300000	1000	0	0	-1	1000
8079475	75	616	0	-100	0	230	101300000	1000	0	0	-1	1000
8092035	77	610	0	-100	0	230	101300000	1000	0	0	-1	1000
8104595	82	614	0	-100	0	230	101300000	1000	0	0	-1	1000
8117155	77	612	0	-100	0	230	101300000	1000	0	0	-1	1000
8129715	80	610	0	-100	0	230	101300000	1000	0	0	-1	1000
8142275	77	613	0	-100	0	230	101300000	1000	0	0	-1	1000
8154835	80	611	0	-100	0	230	101300000	1000	0	0	-1	1000
8167395	80	611	0	-100	0	230	101300000	1000	0	0	-1	1000
8179955	77	618	0	-100	0	230	101300000	1000	0	0	-1	1000
8192515	77	619	0	-100	0	230	101300000	1000	0	0	-1	1000
8205075	72	617	0	-100	0	230	101300000	1000	0	0	-1	1000
8217635	77	618	0	-100	0	230	101300000	1000	0	0	-1	1000
8230195	72	620	0	-100	0	230	101300000	1000	0	0	-1	1000
8242755	72	618	0	-100	0	230	101300000	1000	0	0	-1	1000
8255315	77	611	0	-100	0	230	101300000	1000	0	0	-1	1000
8267875	77	612	0	-100	0	230	101300000	1000	0	0	-1	1000
8280435	80	612	0	-100	0	230	101300000	1000	0	0	-1	1000
8292995	84	617	0	-100	0	230	101300000	1000	0	0	-1	1000
8305555	79	611	0	-100	0	230	101300000	1000	0	0	-1	1000
8318115	80	611	0	-100	0	230	101300000	1000	0	0	-1	1000
8330675	75	613	0	-100	0	230	101300000	1000	0	0	-1	1000
8343235	75	618	0	-100	0	230	101300000	1000	0	0	-1	1000
8355795	75	620	0	-100	0	230	101300000	1000	0	0	-1	1000
8368355	75	617	0	-100	0	230	101300000	1000	0	0	-1	1000
8380915	84	614	0	-100	0	230	101300000	1000	0	0	-1	1000
8393475	82	614	0	-100	0	230	101300000	1000	0	0	-1	1000
8406035	77	617	0	-100	0	230	101300000	1000	0	0	-1	1000
8418595	75	616	0	-100	0	230	101300000	1000	0	0	-1	1000
8431155	75	616	0	-100	0	230	101300000	1000	0	0	-1	1000
8443715	77	616	0	-100	0	230	101300000	1000	0	0	-1	1000
8456275	72	616	0	-100	0	230	101300000	1000	0	0	-1	1000
8468835	77	611	0	-100	0	230	101300000	1000	0	0	-1	1000
8481395	82	610	0	-100	0	230	101300000	1000	0	0	-1	1000
8493955	77	619	0	-100	0	230	101300000	1000	0	0	-1	1000
8506515	77	618	0	-100	0	230	101300000	1000	0	0	-1	1000
8519075	75	620	0	-100	0	230	101300000	1000	0	0	-1	1000
8531635	77	611	0	-100	0	230	101300000	1000	0	0	-1	1000
8544195	82	613	0	-100	0	230	101300000	1000	0	0	-1	1000
8556755	80	610	0	-100	0	230	101300000	1000	0	0	-1	1000
8569315	72	617	0	-100	0	230	101300000	1000	0	0	-1	1000
8581875	75	619	0	-100	0	230	101300000	1000	0	0	-1	1000
8594435	77	613	0	-100	0	230	101300000	1000	0	0	-1	1000
8606995	80	619	0	-100	0	230	101300000	1000	0	0	-1	1000
8619555	77	615	0	-100	0	230	101300000	1000	0	0	-1	1000
8632115	77	620	0	-100	0	230	101300000	1000	0	0	-1	1000
8644675	72	617	0	-100	0	230	101300000	1000	0	0	-1	1000
8657235	77	611	0	-100	0	230	101300000	1000	0	0	-1	1000
8669795	80	609	0	-100	0	230	101300000	1000	0	0	-1	1000
8682355	75	614	0	-100	0	230	101300000	1000	0	0	-1	1000
8694915	75	616	0	-100	0	230	101300000	1000	0	0	-1	1000
8707475	75	614	0	-100	0	230	101300000	1000	0	0	-1	1000
8720035	75	618	0	-100	0	230	101300000	1000	0	0	-1	1000
8732595	80	610	0	-100	0	230	101300000	1000	0	0	-1	1000
8745155	70	618	0	-100	0	230	101300000	1000	0	0	-1	1000
8757715	79	611	0	-100	0	230	101300000	1000	0	0	-1	1000
8770275	75	618	0	-100	0	230	101300000	1000	0	0	-1	1000
8807955	77	617	0	-100	0	230	101300000	1000	0	0	-1	1000
8820515	75	618	0	-100	0	230	101300000	1000	0	0	-1	1000
8833075	80	613	0	-100	0	230	101300000	1000	0	0	-1	1000
8845635	75	622	0	-100	0	230	101300000	1000	0	0	-1	1000
8858195	80	612	0	-100	0	230	101300000	1000	0	0	-1	1000
8870755	72	618	0	-100	0	230	101300000	1000	0	0	-1	1000
8883315	80	611	0	-100	0	230	101300000	1000	0	0	-1	1000
8895875	75	615	0	-100	0	230	101300000	1000	0	0	-1	1000
8908435	75	615	0	-100	0	230	101300000	1000	0	0	-1	1000
8920995	80	612	0	-100	0	230	101300000	1000	0	0	-1	1000
8933555	75	618	0	-100	0	230	101300000	1000	0	0	-1	1000
8946115	84	613	0	-100	0	230	101300000	1000	0	0	-1	1000
8958675	75	617	0	-100	0	230	101300000	1000	0	0	-1	1000
8971235	80	611	0	-100	0	230	101300000	1000	0	0	-1	1000
8983795	75	614	0	-100	0	230	101300000	1000	0	0	-1	1000
8996355	75	616	0	-100	0	230	101300000	1000	0	0	-1	1000
9008915	77	617	0	-100	0	230	101300000	1000	0	0	-1	1000
9021475	75	615	0	-100	0	230	101300000	1000	0	0	-1	1000
9034035	80	610	0	-100	0	230	101300000	1000	0	0	-1	1000
9046595	75	620	0	-100	0	230	101300000	1000	0	0	-1	1000
9059155	75	610	0	-100	0	230	101300000	1000	0	0	-1	1000
9071715	77	614	0	-100	0	230	101300000	1000	0	0	-1	1000
9084275	77	617	0	-100	0	230	101300000	1000	0	0	-1	1000
9096835	75	617	0	-100	0	230	101300000	1000	0	0	-1	1000
9121955	75	617	0	-100	0	230	101300000	1000	0	0	-1	1000
9134515	79	611	0	-100	0	230	101300000	1000	0	0	-1	1000
9147075	72	617	0	-100	0	230	101300000	1000	0	0	-1	1000
9159635	77	615	0	-100	0	230	101300000	1000	0	0	-1	1000
9172195	75	620	0	-100	0	230	101300000	1000	0	0	-1	1000
9184755	79	612	0	-100	0	230	101300000	1000	0	0	-1	1000
9197315	75	621	0	-100	0	230	101300000	1000	0	0	-1	1000
9209875	82	611	0	-100	0	230	101300000	1000	0	0	-1	1000
9222435	75	618	0	-100	0	230	101300000	1000	0	0	-1	1000
9234995	82	621	0	-100	0	230	101300000	1000	0	0	-1	1000
9247555	75	618	0	-100	0	230	101300000	1000	0	0	-1	1000
9260115	77	613	0	-100	0	230	101300000	1000	0	0	-1	1000
9272675	75	613	0	-100	0	230	101300000	1000	0	0	-1	1000
9285235	72	615	0	-100	0	230	101300000	1000	0	0	-1	1000
9297795	80	611	0	-100	0	230	101300000	1000	0	0	-1	1000
9310355	77	619	0	-100	0	230	101300000	1000	0	0	-1	1000
9322915	75	617	0	-100	0	230	101300000	1000	0	0	-1	1000
9335475	80	612	0	-100	0	230	101300000	1000	0	0	-1	1000
9348035	75	621	0	-100	0	230	101300000	1000	0	0	-1	1000
9360595	77	611	0	-100	0	230	101300000	1000	0	0	-1	1000
9373155	75	610	0	-100	0	230	101300000	1000	0	0	-1	1000
9385715	77	616	0	-100	0	230	101300000	1000	0	0	-1	1000
9398275	75	614	0	-100	0	230	101300000	1000	0	0	-1	1000
9410835	82	613	0	-100	0	230	101300000	1000	0	0	-1	1000
9448515	82	610	0	-100	0	230	101300000	1000	0	0	-1	1000
9461075	75	614	0	-100	0	230	101300000	1000	0	0	-1	1000
9473635	75	620	0	-100	0	230	101300000	1000	0	0	-1	1000
9486195	82	613	0	-100	0	230	101300000	1000	0	0	-1	1000
9498755	79	612	0	-100	0	230	101300000	1000	0	0	-1	1000
9511315	75	619	0	-100	0	230	101300000	1000	0	0	-1	1000
9523875	82	614	0	-100	0	230	101300000	1000	0	0	-1	1000
9536435	82	614	0	-100	0	230	101300000	1000	0	0	-1	1000
9548995	75	610	0	-100	0	230	101300000	1000	0	0	-1	1000
9561555	75	621	0	-100	0	230	101300000	1000	0	0	-1	1000
9574115	75	619	0	-100	0	230	101300000	1000	0	0	-1	1000
9599235	82	610	0	-100	0	230	101300000	1000	0	0	-1	1000
9611795	80	610	0	-100	0	230	101300000	1000	0	0	-1	1000
9624355	79	613	0	-100	0	230	101300000	1000	0	0	-1	1000
9636915	75	616	0	-100	0	230	101300000	1000	0	0	-1	1000
9649475	77	618	0	-100	0	230	101300000	1000	0	0	-1	1000
9662035	72	616	0	-100	0	230	101300000	1000	0	0	-1	1000
9674595	82	610	0	-100	0	230	101300000	1000	0	0	-1	1000
9687155	72	611	0	-100	0	230	101300000	1000	0	0	-1	1000
9699715	75	620	0	-100	0	230	101300000	1000	0	0	-1	1000
9712275	80	610	0	-100	0	230	101300000	1000	0	0	-1	1000
9724835	72	618	0	-100	0	230	101300000	1000	0	0	-1	1000
9737395	75	618	0	-100	0	230	101300000	1000	0	0	-1	1000
9762515	79	611	0	-100	0	230	101300000	1000	0	0	-1	1000
9775075	77	618	0	-100	0	230	101300000	1000	0	0	-1	1000
9787635	72	619	0	-100	0	230	101300000	1000	0	0	-1	1000
9800195	75	616	0	-100	0	230	101300000	1000	0	0	-1	1000
9812755	79	609	0	-100	0	230	101300000	1000	0	0	-1	1000
9825315	80	611	0	-100	0	230	101300000	1000	0	0	-1	1000
9837875	75	618	0	-100	0	230	101300000	1000	0	0	-1	1000
9850435	72	618	0	-100	0	230	101300000	1000	0	0	-1	1000
9862995	82	618	0	-100	0	230	101300000	1000	0	0	-1	1000
9875555	80	611	0	-100	0	230	101300000	1000	0	0	-1	1000
9888115	75	617	0	-100	0	230	101300000	1000	0	0	-1	1000
9900675	75	616	0	-100	0	230	101300000	1000	0	0	-1	1000
9925795	75	616	0	-100	0	230	101300000	1000	0	0	-1	1000
9938355	77	612	0	-100	0	230	101300000	1000	0	0	-1	1000
9950915	77	618	0	-100	0	230	101300000	1000	0	0	-1	1000
9963475	75	620	0	-100	0	230	101300000	1000	0	0	-1	1000
9976035	80	613	0	-100	0	230	101300000	1000	0	0	-1	1000
9988595	77	616	0	-100	0	230	101300000	1000	0	0	-1	1000
10001155	70	619	0	-100	0	230	101300000	1000	0	0	-1	1000
10013715	82	614	0	-100	0	230	101300000	1000	0	0	-1	1000
10026275	75	617	0	-100	0	230	101300000	1000	0	0	-1	1000
10038835	72	617	0	-100	0	230	101300000	1000	0	0	-1	1000
10051395	80	611	0	-100	0	230	101300000	1000	0	0	-1	1000
10089075	82	613	0	-100	0	230	101300000	1000	0	0	-1	1000
10101635	72	618	0	-100	0	230	101300000	1000	0	0	-1	1000
10114195	72	617	0	-100	0	230	101300000	1000	0	0	-1	1000
10126755	82	611	0	-100	0	230	101300000	1000	0	0	-1	1000
10139315	75	615	0	-100	0	230	101300000	1000	0	0	-1	1000
10151875	72	619	0	-100	0	230	101300000	1000	0	0	-1	1000
10164435	80	612	0	-100	0	230	101300000	1000	0	0	-1	1000
10176995	82	615	0	-100	0	230	101300000	1000	0	0	-1	1000
10189555	77	619	0	-100	0	230	101300000	1000	0	0	-1	1000
10202115	77	611	0	-100	0	230	101300000	1000	0	0	-1	1000
10214675	82	612	0	-100	0	230	101300000	1000	0	0	-1	1000
10239795	72	620	0	-100	0	230	101300000	1000	0	0	-1	1000
10252355	79	610	0	-100	0	230	101300000	1000	0	0	-1	1000
10264915	79	612	0	-100	0	230	101300000	1000	0	0	-1	1000
10277475	75	620	0	-100	0	230	101300000	1000	0	0	-1	1000
10290035	77	612	0	-100	0	230	101300000	1000	0	0	-1	1000
10302595	80	610	0	-100	0	230	101300000	1000	0	0	-1	1000
10315155	75	611	0	-100	0	230	101300000	1000	0	0	-1	1000
10327715	75	617	0	-100	0	230	101300000	1000	0	0	-1	1000
10340275	72	621	0	-100	0	230	101300000	1000	0	0	-1	1000
10352835	77	610	0	-100	0	230	101300000	1000	0	0	-1	1000
10365395	79	610	0	-100	0	230	101300000	1000	0	0	-1	1000
10377955	77	620	0	-100	0	230	101300000	1000	0	0	-1	1000
10415635	80	611	0	-100	0	230	101300000	1000	0	0	-1	1000
10428195	72	614	0	-100	0	230	101300000	1000	0	0	-1	1000
10440755	75	619	0	-100	0	230	101300000	1000	0	0	-1	1000
10453315	77	612	0	-100	0	230	101300000	1000	0	0	-1	1000
10465875	82	614	0	-100	0	230	101300000	1000	0	0	-1	1000
10478435	77	622	0	-100	0	230	101300000	1000	0	0	-1	1000
10490995	75	613	0	-100	0	230	101300000	1000	0	0	-1	1000
10503555	77	610	0	-100	0	230	101300000	1000	0	0	-1	1000
10516115	82	610	0	-100	0	230	101300000	1000	0	0	-1	1000
10528675	80	611	0	-100	0	230	101300000	1000	0	0	-1	1000
10541235	72	615	0	-100	0	230	101300000	1000	0	0	-1	1000
10553795	75	618	0	-100	0	230	101300000	1000	0	0	-1	1000
10578915	80	612	0	-100	0	230	101300000	1000	0	0	-1	1000
10591475	82	612	0	-100	0	230	101300000	1000	0	0	-1	1000
10604035	82	614	0	-100	0	230	101300000	1000	0	0	-1	1000
10616595	75	617	0	-100	0	230	101300000	1000	0	0	-1	1000
10629155	72	619	0	-100	0	230	101300000	1000	0	0	-1	1000
10641715	75	620	0	-100	0	230	101300000	1000	0	0	-1	1000
10654275	77	618	0	-100	0	230	101300000	1000	0	0	-1	1000
10666835	75	618	0	-100	0	230	101300000	1000	0	0	-1	1000
10679395	77	620	0	-100	0	230	101300000	1000	0	0	-1	1000
10691955	82	613	0	-100	0	230	101300000	1000	0	0	-1	1000
10704515	82	611	0	-100	0	230	101300000	1000	0	0	-1	1000
10717075	82	612	0	-100	0	230	101300000	1000	0	0	-1	1000
10742195	72	618	0	-100	0	230	101300000	1000	0	0	-1	1000
10754755	75	619	0	-100	0	230	101300000	1000	0	0	-1	1000
10767315	75	619	0	-100	0	230	101300000	1000	0	0	-1	1000
10779875	75	620	0	-100	0	230	101300000	1000	0	0	-1	1000
10792435	77	616	0	-100	0	230	101300000	1000	0	0	-1	1000
10804995	75	612	0	-100	0	230	101300000	1000	0	0	-1	1000
10817555	72	618	0	-100	0	230	101300000	1000	0	0	-1	1000
10830115	75	613	0	-100	0	230	101300000	1000	0	0	-1	1000
10842675	79	610	0	-100	0	230	101300000	1000	0	0	-1	1000
10855235	82	613	0	-100	0	230	101300000	1000	0	0	-1	1000
10867795	82	614	0	-100	0	230	101300000	1000	0	0	-1	1000
10880355	80	613	0	-100	0	230	101300000	1000	0	0	-1	1000
10905475	72	619	0	-100	0	230	101300000	1000	0	0	-1	1000
10918035	75	620	0	-100	0	230	101300000	1000	0	0	-1	1000
10930595	75	617	0	-100	0	230	101300000	1000	0	0	-1	1000
10943155	72	612	0	-100	0	230	101300000	1000	0	0	-1	1000
10955715	75	612	0	-100	0	230	101300000	1000	0	0	-1	1000
10968275	80	613	0	-100	0	230	101300000	1000	0	0	-1	1000
10980835	77	617	0	-100	0	230	101300000	1000	0	0	-1	1000
10993395	75	613	0	-100	0	230	101300000	1000	0	0	-1	1000
11005955	77	616	0	-100	0	230	101300000	1000	0	0	-1	1000
11018515	77	616	0	-100	0	230	101300000	1000	0	0	-1	1000
11031075	77	618	0	-100	0	230	101300000	1000	0	0	-1	1000
11043635	77	618	0	-100	0	230	101300000	1000	0	0	-1	1000
11068755	82	614	0	-100	0	230	101300000	1000	0	0	-1	1000
11081315	80	611	0	-100	0	230	101300000	1000	0	0	-1	1000
11093875	79	608	0	-100	0	230	101300000	1000	0	0	-1	1000
11106435	82	611	0	-100	0	230	101300000	1000	0	0	-1	1000
11118995	80	619	0	-100	0	230	101300000	1000	0	0	-1	1000
11131555	80	609	0	-100	0	230	101300000	1000	0	0	-1	1000
11144115	80	611	0	-100	0	230	101300000	1000	0	0	-1	1000
11156675	82	610	0	-100	0	230	101300000	1000	0	0	-1	1000
11169235	82	612	0	-100	0	230	101300000	1000	0	0	-1	1000
11181795	82	614	0	-100	0	230	101300000	1000	0	0	-1	1000
11194355	80	611	0	-100	0	230	101300000	1000	0	0	-1	1000
11206915	82	613	0	-100	0	230	101300000	1000	0	0	-1	1000
11232035	79	610	0	-100	0	230	101300000	1000	0	0	-1	1000
11244595	80	609	0	-100	0	230	101300000	1000	0	0	-1	1000
11257155	77	612	0	-100	0	230	101300000	1000	0	0	-1	1000
11269715	82	613	0	-100	0	230	101300000	1000	0	0	-1	1000
11282275	79	611	0	-100	0	230	101300000	1000	0	0	-1	1000
11294835	75	611	0	-100	0	230	101300000	1000	0	0	-1	1000
11307395	75	616	0	-100	0	230	101300000	1000	0	0	-1	1000
11319955	72	616	0	-100	0	230	101300000	1000	0	0	-1	1000
11332515	75	616	0	-100	0	230	101300000	1000	0	0	-1	1000
11345075	77	619	0	-100	0	230	101300000	1000	0	0	-1	1000
11357635	75	621	0	-100	0	230	101300000	1000	0	0	-1	1000
11370195	75	621	0	-100	0	230	101300000	1000	0	0	-1	1000
11382755	75	619	0	-100	0	230	101300000	1000	0	0	-1	1000
11395315	75	618	0	-100	0	230	101300000	1000	0	0	-1	1000
11407875	75	616	0	-100	0	230	101300000	1000	0	0	-1	1000
11420435	75	615	0	-100	0	230	101300000	1000	0	0	-1	1000
11432995	77	613	0	-100	0	230	101300000	1000	0	0	-1	1000
11445555	77	621	0	-100	0	230	101300000	1000	0	0	-1	1000
11458115	75	618	0	-100	0	230	101300000	1000	0	0	-1	1000
11470675	75	620	0	-100	0	230	101300000	1000	0	0	-1	1000
11483235	77	616	0	-100	0	230	101300000	1000	0	0	-1	1000
11495795	72	621	0	-100	0	230	101300000	1000	0	0	-1	1000
11508355	75	617	0	-100	0	230	101300000	1000	0	0	-1	1000
11520915	75	614	0	-100	0	230	101300000	1000	0	0	-1	1000
11533475	80	613	0	-100	0	230	101300000	1000	0	0	-1	1000
11546035	79	611	0	-100	0	230	101300000	1000	0	0	-1	1000
11558595	82	612	0	-100	0	230	101300000	1000	0	0	-1	1000
11571155	75	609	0	-100	0	230	101300000	1000	0	0	-1	1000
11583715	82	614	0	-100	0	230	101300000	1000	0	0	-1	1000
11596275	82	613	0	-100	0	230	101300000	1000	0	0	-1	1000
11608835	82	610	0	-100	0	230	101300000	1000	0	0	-1	1000
11621395	82	612	0	-100	0	230	101300000	1000	0	0	-1	1000
11633955	82	613	0	-100	0	230	101300000	1000	0	0	-1	1000
11646515	77	618	0	-100	0	230	101300000	1000	0	0	-1	1000
11659075	77	618	0	-100	0	230	101300000	1000	0	0	-1	1000
11671635	77	618	0	-100	0	230	101300000	1000	0	0	-1	1000
11684195	80	611	0	-100	0	230	101300000	1000	0	0	-1	1000
11696755	80	610	0	-100	0	230	101300000	1000	0	0	-1	1000
11709315	80	611	0	-100	0	230	101300000	1000	0	0	-1	1000
11721875	80	611	0	-100	0	230	101300000	1000	0	0	-1	1000
11734435	82	613	0	-100	0	230	101300000	1000	0	0	-1	1000
11746995	77	614	0	-100	0	230	101300000	1000	0	0	-1	1000
11759555	82	611	0	-100	0	230	101300000	1000	0	0	-1	1000
11772115	80	611	0	-100	0	230	101300000	1000	0	0	-1	1000
11784675	80	611	0	-100	0	230	101300000	1000	0	0	-1	1000
11797235	80	610	0	-100	0	230	101300000	1000	0	0	-1	1000
11809795	82	612	0	-100	0	230	101300000	1000	0	0	-1	1000
11822355	82	613	0	-100	0	230	101300000	1000	0	0	-1	1000
11834915	82	614	0	-100	0	230	101300000	1000	0	0	-1	1000
11847475	77	612	0	-100	0	230	101300000	1000	0	0	-1	1000
11860035	75	616	0	-100	0	230	101300000	1000	0	0	-1	1000
11872595	75	618	0	-100	0	230	101300000	1000	0	0	-1	1000
11885155	70	618	0	-100	0	230	101300000	1000	0	0	-1	1000
11897715	72	620	0	-100	0	230	101300000	1000	0	0	-1	1000
11910275	75	616	0	-100	0	230	101300000	1000	0	0	-1	1000
11922835	77	621	0	-100	0	230	101300000	1000	0	0	-1	1000
11935395	79	610	0	-100	0	230	101300000	1000	0	0	-1	1000
11947955	82	610	0	-100	0	230	101300000	1000	0	0	-1	1000
11960515	79	609	0	-100	0	230	101300000	1000	0	0	-1	1000
11973075	79	610	0	-100	0	230	101300000	1000	0	0	-1	1000
11985635	84	609	0	-100	0	230	101300000	1000	0	0	-1	1000
11998195	82	613	0	-100	0	230	101300000	1000	0	0	-1	1000
12010755	82	614	0	-100	0	230	101300000	1000	0	0	-1	1000
12023315	82	614	0	-100	0	230	101300000	1000	0	0	-1	1000
12035875	82	614	0	-100	0	230	101300000	1000	0	0	-1	1000
12048435	82	615	0	-100	0	230	101300000	1000	0	0	-1	1000
12060995	82	619	0	-100	0	230	101300000	1000	0	0	-1	1000
12073555	79	612	0	-100	0	230	101300000	1000	0	0	-1	1000
12086115	80	610	0	-100	0	230	101300000	1000	0	0	-1	1000
12098675	77	620	0	-100	0	230	101300000	1000	0	0	-1	1000
12111235	72	618	0	-100	0	230	101300000	1000	0	0	-1	1000
12123795	75	619	0	-100	0	230	101300000	1000	0	0	-1	1000
12136355	75	618	0	-100	0	230	101300000	1000	0	0	-1	1000
12148915	72	617	0	-100	0	230	101300000	1000	0	0	-1	1000
12161475	75	615	0	-100	0	230	101300000	1000	0	0	-1	1000
12174035	82	614	0	-100	0	230	101300000	1000	0	0	-1	1000
12186595	79	609	0	-100	0	230	101300000	1000	0	0	-1	1000
12199155	77	611	0	-100	0	230	101300000	1000	0	0	-1	1000
12211715	80	611	0	-100	0	230	101300000	1000	0	0	-1	1000
12224275	79	612	0	-100	0	230	101300000	1000	0	0	-1	1000
12236835	77	617	0	-100	0	230	101300000	1000	0	0	-1	1000
12249395	75	613	0	-100	0	230	101300000	1000	0	0	-1	1000
12261955	75	617	0	-100	0	230	101300000	1000	0	0	-1	1000
12274515	72	617	0	-100	0	230	101300000	1000	0	0	-1	1000
12287075	75	617	0	-100	0	230	101300000	1000	0	0	-1	1000
12299635	77	616	0	-100	0	230	101300000	1000	0	0	-1	1000
12312195	75	620	0	-100	0	230	101300000	1000	0	0	-1	1000
12324755	77	611	0	-100	0	230	101300000	1000	0	0	-1	1000
12337315	82	612	0	-100	0	230	101300000	1000	0	0	-1	1000
12349875	79	613	0	-100	0	230	101300000	1000	0	0	-1	1000
12362435	75	613	0	-100	0	230	101300000	1000	0	0	-1	1000
12374995	75	614	0	-100	0	230	101300000	1000	0	0	-1	1000
12387555	75	621	0	-100	0	230	101300000	1000	0	0	-1	1000
12400115	77	611	0	-100	0	230	101300000	1000	0	0	-1	1000
12412675	80	613	0	-100	0	230	101300000	1000	0	0	-1	1000
12425235	82	613	0	-100	0	230	101300000	1000	0	0	-1	1000
12437795	77	615	0	-100	0	230	101300000	1000	0	0	-1	1000
12450355	75	615	0	-100	0	230	101300000	1000	0	0	-1	1000
12462915	72	618	0	-100	0	230	101300000	1000	0	0	-1	1000
12475475	77	619	0	-100	0	230	101300000	1000	0	0	-1	1000
12488035	72	620	0	-100	0	230	101300000	1000	0	0	-1	1000
12500595	75	615	0	-100	0	230	101300000	1000	0	0	-1	1000
12513155	79	612	0	-100	0	230	101300000	1000	0	0	-1	1000
12525715	79	611	0	-100	0	230	101300000	1000	0	0	-1	1000
12538275	75	612	0	-100	0	230	101300000	1000	0	0	-1	1000
12550835	72	616	0	-100	0	230	101300000	1000	0	0	-1	1000
12563395	72	619	0	-100	0	230	101300000	1000	0	0	-1	1000
12575955	82	615	0	-100	0	230	101300000	1000	0	0	-1	1000
12588515	75	613	0	-100	0	230	101300000	1000	0	0	-1	1000
12601075	75	616	0	-100	0	230	101300000	1000	0	0	-1	1000
12613635	72	618	0	-100	0	230	101300000	1000	0	0	-1	1000
12626195	82	613	0	-100	0	230	101300000	1000	0	0	-1	1000
12638755	79	612	0	-100	0	230	101300000	1000	0	0	-1	1000
12651315	75	615	0	-100	0	230	101300000	1000	0	0	-1	1000
12663875	72	617	0	-100	0	230	101300000	1000	0	0	-1	1000
12676435	82	611	0	-100	0	230	101300000	1000	0	0	-1	1000
12688995	80	611	0	-100	0	230	101300000	1000	0	0	-1	1000
12701555	75	617	0	-100	0	230	101300000	1000	0	0	-1	1000
12714115	75	621	0	-100	0	230	101300000	1000	0	0	-1	1000
12726675	75	616	0	-100	0	230	101300000	1000	0	0	-1	1000
12739235	79	610	0	-100	0	230	101300000	1000	0	0	-1	1000
12751795	77	618	0	-100	0	230	101300000	1000	0	0	-1	1000
12764355	72	617	0	-100	0	230	101300000	1000	0	0	-1	1000
12776915	75	621	0	-100	0	230	101300000	1000	0	0	-1	1000
12789475	72	616	0	-100	0	230	101300000	1000	0	0	-1	1000
12802035	77	612	0	-100	0	230	101300000	1000	0	0	-1	1000
12814595	80	610	0	-100	0	230	101300000	1000	0	0	-1	1000
12827155	75	611	0	-100	0	230	101300000	1000	0	0	-1	1000
12839715	75	615	0	-100	0	230	101300000	1000	0	0	-1	1000
12852275	75	618	0	-100	0	230	101300000	1000	0	0	-1	1000
12864835	75	621	0	-100	0	230	101300000	1000	0	0	-1	1000
12877395	75	617	0	-100	0	230	101300000	1000	0	0	-1	1000
12889955	82	613	0	-100	0	230	101300000	1000	0	0	-1	1000
12902515	77	618	0	-100	0	230	101300000	1000	0	0	-1	1000
12915075	75	622	0	-100	0	230	101300000	1000	0	0	-1	1000
12927635	75	616	0	-100	0	230	101300000	1000	0	0	-1	1000
12940195	80	611	0	-100	0	230	101300000	1000	0	0	-1	1000
12952755	75	615	0	-100	0	230	101300000	1000	0	0	-1	1000
12965315	75	622	0	-100	0	230	101300000	1000	0	0	-1	1000
12977875	80	611	0	-100	0	230	101300000	1000	0	0	-1	1000
12990435	77	618	0	-100	0	230	101300000	1000	0	0	-1	1000
13002995	77	613	0	-100	0	230	101300000	1000	0	0	-1	1000
13015555	72	617	0	-100	0	230	101300000	1000	0	0	-1	1000
13028115	80	613	0	-100	0	230	101300000	1000	0	0	-1	1000
13040675	82	611	0	-100	0	230	101300000	1000	0	0	-1	1000
13053235	82	611	0	-100	0	230	101300000	1000	0	0	-1	1000
13065795	75	613	0	-100	0	230	101300000	1000	0	0	-1	1000
13078355	75	618	0	-100	0	230	101300000	1000	0	0	-1	1000
13090915	77	618	0	-100	0	230	101300000	1000	0	0	-1	1000
13103475	75	620	0	-100	0	230	101300000	1000	0	0	-1	1000
13116035	75	615	0	-100	0	230	101300000	1000	0	0	-1	1000
13128595	82	611	0	-100	0	230	101300000	1000	0	0	-1	1000
13141155	77	615	0	-100	0	230	101300000	1000	0	0	-1	1000
13153715	75	621	0	-100	0	230	101300000	1000	0	0	-1	1000
13166275	77	613	0	-100	0	230	101300000	1000	0	0	-1	1000
13178835	80	609	0	-100	0	230	101300000	1000	0	0	-1	1000
13191395	75	615	0	-100	0	230	101300000	1000	0	0	-1	1000
13203955	72	620	0	-100	0	230	101300000	1000	0	0	-1	1000
13216515	82	614	0	-100	0	230	101300000	1000	0	0	-1	1000
13229075	80	611	0	-100	0	230	101300000	1000	0	0	-1	1000
13241635	75	620	0	-100	0	230	101300000	1000	0	0	-1	1000
13254195	75	615	0	-100	0	230	101300000	1000	0	0	-1	1000
13266755	82	614	0	-100	0	230	101300000	1000	0	0	-1	1000
13279315	75	615	0	-100	0	230	101300000	1000	0	0	-1	1000
13291875	72	617	0	-100	0	230	101300000	1000	0	0	-1	1000
13304435	80	609	0	-100	0	230	101300000	1000	0	0	-1	1000
13316995	75	611	0	-100	0	230	101300000	1000	0	0	-1	1000
13329555	72	618	0	-100	0	230	101300000	1000	0	0	-1	1000
13342115	82	610	0	-100	0	230	101300000	1000	0	0	-1	1000
13354675	75	616	0	-100	0	230	101300000	1000	0	0	-1	1000
13367235	72	618	0	-100	0	230	101300000	1000	0	0	-1	1000
13379795	80	613	0	-100	0	230	101300000	1000	0	0	-1	1000
13392355	75	621	0	-100	0	230	101300000	1000	0	0	-1	1000
13404915	79	612	0	-100	0	230	101300000	1000	0	0	-1	1000
13417475	77	617	0	-100	0	230	101300000	1000	0	0	-1	1000
13430035	75	620	0	-100	0	230	101300000	1000	0	0	-1	1000
13442595	82	614	0	-100	0	230	101300000	1000	0	0	-1	1000
13455155	75	614	0	-100	0	230	101300000	1000	0	0	-1	1000
13467715	80	612	0	-100	0	230	101300000	1000	0	0	-1	1000
13480275	75	616	0	-100	0	230	101300000	1000	0	0	-1	1000
13492835	77	612	0	-100	0	230	101300000	1000	0	0	-1	1000
13505395	75	614	0	-100	0	230	101300000	1000	0	0	-1	1000
13517955	77	610	0	-100	0	230	101300000	1000	0	0	-1	1000
13530515	75	616	0	-100	0	230	101300000	1000	0	0	-1	1000
13543075	80	611	0	-100	0	230	101300000	1000	0	0	-1	1000
13555635	72	617	0	-100	0	230	101300000	1000	0	0	-1	1000
13568195	79	611	0	-100	0	230	101300000	1000	0	0	-1	1000
13580755	75	621	0	-100	0	230	101300000	1000	0	0	-1	1000
13618435	77	616	0	-100	0	230	101300000	1000	0	0	-1	1000
13630995	75	618	0	-100	0	230	101300000	1000	0	0	-1	1000
13643555	77	616	0	-100	0	230	101300000	1000	0	0	-1	1000
13656115	72	620	0	-100	0	230	101300000	1000	0	0	-1	1000
13668675	79	609	0	-100	0	230	101300000	1000	0	0	-1	1000
13681235	75	616	0	-100	0	230	101300000	1000	0	0	-1	1000
13693795	77	610	0	-100	0	230	101300000	1000	0	0	-1	1000
13706355	75	614	0	-100	0	230	101300000	1000	0	0	-1	1000
13718915	72	617	0	-100	0	230	101300000	1000	0	0	-1	1000
13731475	77	616	0	-100	0	230	101300000	1000	0	0	-1	1000
13744035	72	619	0	-100	0	230	101300000	1000	0	0	-1	1000
13781715	75	613	0	-100	0	230	101300000	1000	0	0	-1	1000
13794275	75	615	0	-100	0	230	101300000	1000	0	0	-1	1000
13806835	75	617	0	-100	0	230	101300000	1000	0	0	-1	1000
13819395	82	613	0	-100	0	230	101300000	1000	0	0	-1	1000
13831955	72	621	0	-100	0	230	101300000	1000	0	0	-1	1000
13844515	79	612	0	-100	0	230	101300000	1000	0	0	-1	1000
13857075	75	619	0	-100	0	230	101300000	1000	0	0	-1	1000
13869635	77	613	0	-100	0	230	101300000	1000	0	0	-1	1000
13882195	75	619	0	-100	0	230	101300000	1000	0	0	-1	1000
13894755	79	611	0	-100	0	230	101300000	1000	0	0	-1	1000
13907315	70	618	0	-100	0	230	101300000	1000	0	0	-1	1000
13932435	75	616	0	-100	0	230	101300000	1000	0	0	-1	1000
13944995	79	611	0	-100	0	230	101300000	1000	0	0	-1	1000
13957555	72	617	0	-100	0	230	101300000	1000	0	0	-1	1000
13970115	75	613	0	-100	0	230	101300000	1000	0	0	-1	1000
13982675	77	611	0	-100	0	230	101300000	1000	0	0	-1	1000
13995235	72	617	0	-100	0	230	101300000	1000	0	0	-1	1000
14007795	82	614	0	-100	0	230	101300000	1000	0	0	-1	1000
14020355	75	616	0	-100	0	230	101300000	1000	0	0	-1	1000
14032915	80	612	0	-100	0	230	101300000	1000	0	0	-1	1000
14045475	75	617	0	-100	0	230	101300000	1000	0	0	-1	1000
14058035	77	611	0	-100	0	230	101300000	1000	0	0	-1	1000
14070595	75	616	0	-100	0	230	101300000	1000	0	0	-1	1000
14095715	77	619	0	-100	0	230	101300000	1000	0	0	-1	1000
14108275	79	608	0	-100	0	230	101300000	1000	0	0	-1	1000
14120835	72	621	0	-100	0	230	101300000	1000	0	0	-1	1000
14133395	80	611	0	-100	0	230	101300000	1000	0	0	-1	1000
14145955	75	620	0	-100	0	230	101300000	1000	0	0	-1	1000
14158515	77	614	0	-100	0	230	101300000	1000	0	0	-1	1000
14171075	75	619	0	-100	0	230	101300000	1000	0	0	-1	1000
14183635	82	614	0	-100	0	230	101300000	1000	0	0	-1	1000
14196195	75	619	0	-100	0	230	101300000	1000	0	0	-1	1000
14208755	80	609	0	-100	0	230	101300000	1000	0	0	-1	1000
14221315	75	617	0	-100	0	230	101300000	1000	0	0	-1	1000
14233875	82	614	0	-100	0	230	101300000	1000	0	0	-1	1000
14246435	75	617	0	-100	0	230	101300000	1000	0	0	-1	1000
14258995	75	617	0	-100	0	230	101300000	1000	0	0	-1	1000
14271555	77	620	0	-100	0	230	101300000	1000	0	0	-1	1000
14284115	75	619	0	-100	0	230	101300000	1000	0	0	-1	1000
14296675	84	610	0	-100	0	230	101300000	1000	0	0	-1	1000
14309235	77	620	0	-100	0	230	101300000	1000	0	0	-1	1000
14321795	82	614	0	-100	0	230	101300000	1000	0	0	-1	1000
14334355	72	615	0	-100	0	230	101300000	1000	0	0	-1	1000
14346915	72	616	0	-100	0	230	101300000	1000	0	0	-1	1000
14359475	75	614	0	-100	0	230	101300000	1000	0	0	-1	1000
14372035	77	610	0	-100	0	230	101300000	1000	0	0	-1	1000
14384595	77	618	0	-100	0	230	101300000	1000	0	0	-1	1000
14397155	70	616	0	-100	0	230	101300000	1000	0	0	-1	1000
14409715	82	614	0	-100	0	230	101300000	1000	0	0	-1	1000
14422275	77	618	0	-100	0	230	101300000	1000	0	0	-1	1000
14434835	75	615	0	-100	0	230	101300000	1000	0	0	-1	1000
14447395	80	610	0	-100	0	230	101300000	1000	0	0	-1	1000
14459955	77	617	0	-100	0	230	101300000	1000	0	0	-1	1000
14472515	75	614	0	-100	0	230	101300000	1000	0	0	-1	1000
14485075	79	613	0	-100	0	230	101300000	1000	0	0	-1	1000
14497635	77	616	0	-100	0	230	101300000	1000	0	0	-1	1000
14510195	82	612	0	-100	0	230	101300000	1000	0	0	-1	1000
14522755	72	616	0	-100	0	230	101300000	1000	0	0	-1	1000
14535315	75	616	0	-100	0	230	101300000	1000	0	0	-1	1000
14547875	77	617	0	-100	0	230	101300000	1000	0	0	-1	1000
14560435	72	620	0	-100	0	230	101300000	1000	0	0	-1	1000
14572995	82	621	0	-100	0	230	101300000	1000	0	0	-1	1000
14585555	77	620	0	-100	0	230	101300000	1000	0	0	-1	1000
14598115	75	617	0	-100	0	230	101300000	1000	0	0	-1	1000
14610675	80	610	0	-100	0	230	101300000	1000	0	0	-1	1000
14623235	75	621	0	-100	0	230	101300000	1000	0	0	-1	1000
14635795	80	610	0	-100	0	230	101300000	1000	0	0	-1	1000
14648355	75	618	0	-100	0	230	101300000	1000	0	0	-1	1000
14660915	82	614	0	-100	0	230	101300000	1000	0	0	-1	1000
14673475	72	615	0	-100	0	230	101300000	1000	0	0	-1	1000
14686035	75	616	0	-100	0	230	101300000	1000	0	0	-1	1000
14698595	77	616	0	-100	0	230	101300000	1000	0	0	-1	1000
14711155	70	617	0	-100	0	230	101300000	1000	0	0	-1	1000
14723715	79	612	0	-100	0	230	101300000	1000	0	0	-1	1000
14736275	75	621	0	-100	0	230	101300000	1000	0	0	-1	1000
14748835	75	613	0	-100	0	230	101300000	1000	0	0	-1	1000
14761395	82	613	0	-100	0	230	101300000	1000	0	0	-1	1000
14773955	72	620	0	-100	0	230	101300000	1000	0	0	-1	1000
14786515	82	614	0	-100	0	230	101300000	1000	0	0	-1	1000
14799075	77	617	0	-100	0	230	101300000	1000	0	0	-1	1000
14811635	72	620	0	-100	0	230	101300000	1000	0	0	-1	1000
14824195	84	613	0	-100	0	230	101300000	1000	0	0	-1	1000
14836755	77	620	0	-100	0	230	101300000	1000	0	0	-1	1000
14849315	72	618	0	-100	0	230	101300000	1000	0	0	-1	1000
14861875	82	612	0	-100	0	230	101300000	1000	0	0	-1	1000
14874435	75	612	0	-100	0	230	101300000	1000	0	0	-1	1000
14886995	75	616	0	-100	0	230	101300000	1000	0	0	-1	1000
14899555	82	611	0	-100	0	230	101300000	1000	0	0	-1	1000
14912115	77	620	0	-100	0	230	101300000	1000	0	0	-1	1000
14924675	75	620	0	-100	0	230	101300000	1000	0	0	-1	1000
14937235	80	611	0	-100	0	230	101300000	1000	0	0	-1	1000
14949795	77	617	0	-100	0	230	101300000	1000	0	0	-1	1000
14962355	72	620	0	-100	0	230	101300000	1000	0	0	-1	1000
14974915	82	613	0	-100	0	230	101300000	1000	0	0	-1	1000
14987475	75	614	0	-100	0	230	101300000	1000	0	0	-1	1000
15000035	75	616	0	-100	0	230	101300000	1000	0	0	-1	1000
15012595	79	612	0	-100	0	230	101300000	1000	0	0	-1	1000
15025155	70	620	0	-100	0	230	101300000	1000	0	0	-1	1000
15037715	82	613	0	-100	0	230	101300000	1000	0	0	-1	1000
15050275	77	618	0	-100	0	230	101300000	1000	0	0	-1	1000
15062835	75	618	0	-100	0	230	101300000	1000	0	0	-1	1000
15075395	77	616	0	-100	0	230	101300000	1000	0	0	-1	1000
15087955	72	621	0	-100	0	230	101300000	1000	0	0	-1	1000
15100515	79	611	0	-100	0	230	101300000	1000	0	0	-1	1000
15113075	75	614	0	-100	0	230	101300000	1000	0	0	-1	1000
15125635	72	617	0	-100	0	230	101300000	1000	0	0	-1	1000
15138195	82	614	0	-100	0	230	101300000	1000	0	0	-1	1000
15150755	75	616	0	-100	0	230	101300000	1000	0	0	-1	1000
15163315	82	615	0	-100	0	230	101300000	1000	0	0	-1	1000
15175875	80	611	0	-100	0	230	101300000	1000	0	0	-1	1000
15188435	72	620	0	-100	0	230	101300000	1000	0	0	-1	1000
15200995	79	619	0	-100	0	230	101300000	1000	0	0	-1	1000
15213555	75	615	0	-100	0	230	101300000	1000	0	0	-1	1000
15226115	75	619	0	-100	0	230	101300000	1000	0	0	-1	1000
15238675	82	614	0	-100	0	230	101300000	1000	0	0	-1	1000
15251235	75	616	0	-100	0	230	101300000	1000	0	0	-1	1000
15263795	75	616	0	-100	0	230	101300000	1000	0	0	-1	1000
15276355	80	611	0	-100	0	230	101300000	1000	0	0	-1	1000
15288915	72	619	0	-100	0	230	101300000	1000	0	0	-1	1000
15301475	79	612	0	-100	0	230	101300000	1000	0	0	-1	1000
15314035	75	617	0	-100	0	230	101300000	1000	0	0	-1	1000
15326595	77	612	0	-100	0	230	101300000	1000	0	0	-1	1000
15339155	75	611	0	-100	0	230	101300000	1000	0	0	-1	1000
15351715	75	616	0	-100	0	230	101300000	1000	0	0	-1	1000
15364275	75	613	0	-100	0	230	101300000	1000	0	0	-1	1000
15376835	72	619	0	-100	0	230	101300000	1000	0	0	-1	1000
15389395	82	611	0	-100	0	230	101300000	1000	0	0	-1	1000
15401955	77	619	0	-100	0	230	101300000	1000	0	0	-1	1000
15414515	75	614	0	-100	0	230	101300000	1000	0	0	-1	1000
15427075	79	612	0	-100	0	230	101300000	1000	0	0	-1	1000
15439635	75	620	0	-100	0	230	101300000	1000	0	0	-1	1000
15452195	82	615	0	-100	0	230	101300000	1000	0	0	-1	1000
15464755	75	619	0	-100	0	230	101300000	1000	0	0	-1	1000
15477315	75	620	0	-100	0	230	101300000	1000	0	0	-1	1000
15489875	80	611	0	-100	0	230	101300000	1000	0	0	-1	1000
15502435	75	619	0	-100	0	230	101300000	1000	0	0	-1	1000
15514995	80	619	0	-100	0	230	101300000	1000	0	0	-1	1000
15527555	75	614	0	-100	0	230	101300000	1000	0	0	-1	1000
15540115	72	617	0	-100	0	230	101300000	1000	0	0	-1	1000
15552675	82	613	0	-100	0	230	101300000	1000	0	0	-1	1000
15565235	75	619	0	-100	0	230	101300000	1000	0	0	-1	1000
15577795	77	611	0	-100	0	230	101300000	1000	0	0	-1	1000
15590355	77	618	0	-100	0	230	101300000	1000	0	0	-1	1000
15602915	75	620	0	-100	0	230	101300000	1000	0	0	-1	1000
15615475	80	610	0	-100	0	230	101300000	1000	0	0	-1	1000
15628035	77	620	0	-100	0	230	101300000	1000	0	0	-1	1000
15640595	75	616	0	-100	0	230	101300000	1000	0	0	-1	1000
15653155	77	612	0	-100	0	230	101300000	1000	0	0	-1	1000
15665715	77	619	0	-100	0	230	101300000	1000	0	0	-1	1000
15678275	77	611	0	-100	0	230	101300000	1000	0	0	-1	1000
15690835	80	611	0	-100	0	230	101300000	1000	0	0	-1	1000
15703395	75	619	0	-100	0	230	101300000	1000	0	0	-1	1000
15715955	82	614	0	-100	0	230	101300000	1000	0	0	-1	1000
15728515	77	617	0	-100	0	230	101300000	1000	0	0	-1	1000
15741075	75	620	0	-100	0	230	101300000	1000	0	0	-1	1000
15753635	77	609	0	-100	0	230	101300000	1000	0	0	-1	1000
15766195	80	611	0	-100	0	230	101300000	1000	0	0	-1	1000
15778755	75	623	0	-100	0	230	101300000	1000	0	0	-1	1000
15791315	72	618	0	-100	0	230	101300000	1000	0	0	-1	1000
15803875	82	616	0	-100	0	230	101300000	1000	0	0	-1	1000
15816435	82	613	0	-100	0	230	101300000	1000	0	0	-1	1000
15828995	75	612	0	-100	0	230	101300000	1000	0	0	-1	1000
15841555	77	619	0	-100	0	230	101300000	1000	0	0	-1	1000
15854115	80	613	0	-100	0	230	101300000	1000	0	0	-1	1000
15866675	80	612	0	-100	0	230	101300000	1000	0	0	-1	1000
15879235	72	620	0	-100	0	230	101300000	1000	0	0	-1	1000
15891795	77	612	0	-100	0	230	101300000	1000	0	0	-1	1000
15904355	80	612	0	-100	0	230	101300000	1000	0	0	-1	1000
15916915	75	613	0	-100	0	230	101300000	1000	0	0	-1	1000
15929475	77	619	0	-100	0	230	101300000	1000	0	0	-1	1000
15942035	75	620	0	-100	0	230	101300000	1000	0	0	-1	1000
15954595	75	616	0	-100	0	230	101300000	1000	0	0	-1	1000
15967155	79	610	0	-100	0	230	101300000	1000	0	0	-1	1000
15979715	79	611	0	-100	0	230	101300000	1000	0	0	-1	1000
15992275	72	617	0	-100	0	230	101300000	1000	0	0	-1	1000
16004835	70	620	0	-100	0	230	101300000	1000	0	0	-1	1000
16017395	80	613	0	-100	0	230	101300000	1000	0	0	-1	1000
16029955	80	612	0	-100	0	230	101300000	1000	0	0	-1	1000
16042515	75	616	0	-100	0	230	101300000	1000	0	0	-1	1000
16055075	72	618	0	-100	0	230	101300000	1000	0	0	-1	1000
16067635	79	612	0	-100	0	230	101300000	1000	0	0	-1	1000
16080195	79	611	0	-100	0	230	101300000	1000	0	0	-1	1000
16092755	75	616	0	-100	0	230	101300000	1000	0	0	-1	1000
16105315	72	619	0	-100	0	230	101300000	1000	0	0	-1	1000
16117875	82	615	0	-100	0	230	101300000	1000	0	0	-1	1000
16130435	82	614	0	-100	0	230	101300000	1000	0	0	-1	1000
16142995	79	614	0	-100	0	230	101300000	1000	0	0	-1	1000
16155555	77	616	0	-100	0	230	101300000	1000	0	0	-1	1000
16168115	75	615	0	-100	0	230	101300000	1000	0	0	-1	1000
16180675	75	621	0	-100	0	230	101300000	1000	0	0	-1	1000
16193235	72	619	0	-100	0	230	101300000	1000	0	0	-1	1000
16205795	75	616	0	-100	0	230	101300000	1000	0	0	-1	1000
16218355	82	611	0	-100	0	230	101300000	1000	0	0	-1	1000
16230915	82	613	0	-100	0	230	101300000	1000	0	0	-1	1000
16243475	77	621	0	-100	0	230	101300000	1000	0	0	-1	1000
16256035	75	618	0	-100	0	230	101300000	1000	0	0	-1	1000
16268595	75	621	0	-100	0	230	101300000	1000	0	0	-1	1000
16281155	72	619	0	-100	0	230	101300000	1000	0	0	-1	1000
16293715	75	618	0	-100	0	230	101300000	1000	0	0	-1	1000
16306275	75	617	0	-100	0	230	101300000	1000	0	0	-1	1000
16318835	82	614	0	-100	0	230	101300000	1000	0	0	-1	1000
16331395	80	613	0	-100	0	230	101300000	1000	0	0	-1	1000
16343955	72	615	0	-100	0	230	101300000	1000	0	0	-1	1000
16356515	72	617	0	-100	0	230	101300000	1000	0	0	-1	1000
16369075	82	610	0	-100	0	230	101300000	1000	0	0	-1	1000
16381635	75	613	0	-100	0	230	101300000	1000	0	0	-1	1000
16394195	75	621	0	-100	0	230	101300000	1000	0	0	-1	1000
16406755	75	615	0	-100	0	230	101300000	1000	0	0	-1	1000
16419315	82	610	0	-100	0	230	101300000	1000	0	0	-1	1000
16431875	75	613	0	-100	0	230	101300000	1000	0	0	-1	1000
16444435	75	620	0	-100	0	230	101300000	1000	0	0	-1	1000
16456995	77	619	0	-100	0	230	101300000	1000	0	0	-1	1000
16469555	82	615	0	-100	0	230	101300000	1000	0	0	-1	1000
16482115	72	616	0	-100	0	230	101300000	1000	0	0	-1	1000
16494675	75	619	0	-100	0	230	101300000	1000	0	0	-1	1000
16507235	82	614	0	-100	0	230	101300000	1000	0	0	-1	1000
16519795	80	610	0	-100	0	230	101300000	1000	0	0	-1	1000
16532355	75	620	0	-100	0	230	101300000	1000	0	0	-1	1000
16544915	77	613	0	-100	0	230	101300000	1000	0	0	-1	1000
16557475	82	614	0	-100	0	230	101300000	1000	0	0	-1	1000
16570035	77	621	0	-100	0	230	101300000	1000	0	0	-1	1000
16582595	72	620	0	-100	0	230	101300000	1000	0	0	-1	1000
16595155	77	611	0	-100	0	230	101300000	1000	0	0	-1	1000
16607715	77	619	0	-100	0	230	101300000	1000	0	0	-1	1000
16620275	77	611	0	-100	0	230	101300000	1000	0	0	-1	1000
16632835	82	613	0	-100	0	230	101300000	1000	0	0	-1	1000
16645395	75	619	0	-100	0	230	101300000	1000	0	0	-1	1000
16657955	80	612	0	-100	0	230	101300000	1000	0	0	-1	1000
16670515	82	613	0	-100	0	230	101300000	1000	0	0	-1	1000
16683075	72	619	0	-100	0	230	101300000	1000	0	0	-1	1000
16695635	80	610	0	-100	0	230	101300000	1000	0	0	-1	1000
16708195	75	621	0	-100	0	230	101300000	1000	0	0	-1	1000
16720755	80	612	0	-100	0	230	101300000	1000	0	0	-1	1000
16733315	75	613	0	-100	0	230	101300000	1000	0	0	-1	1000
16745875	72	617	0	-100	0	230	101300000	1000	0	0	-1	1000
16758435	82	616	0	-100	0	230	101300000	1000	0	0	-1	1000
16770995	75	614	0	-100	0	230	101300000	1000	0	0	-1	1000
16821235	72	617	0	-100	0	230	101300000	1000	0	0	-1	1000
16833795	82	612	0	-100	0	230	101300000	1000	0	0	-1	1000
16846355	75	613	0	-100	0	230	101300000	1000	0	0	-1	1000
16858915	75	617	0	-100	0	230	101300000	1000	0	0	-1	1000
16871475	72	617	0	-100	0	230	101300000	1000	0	0	-1	1000
16884035	79	610	0	-100	0	230	101300000	1000	0	0	-1	1000
16896595	75	615	0	-100	0	230	101300000	1000	0	0	-1	1000
16909155	70	620	0	-100	0	230	101300000	1000	0	0	-1	1000
16921715	77	612	0	-100	0	230	101300000	1000	0	0	-1	1000
16934275	82	613	0	-100	0	230	101300000	1000	0	0	-1	1000
16946835	75	616	0	-100	0	230	101300000	1000	0	0	-1	1000
16959395	75	619	0	-100	0	230	101300000	1000	0	0	-1	1000
16971955	84	612	0	-100	0	230	101300000	1000	0	0	-1	1000
16984515	80	612	0	-100	0	230	101300000	1000	0	0	-1	1000
16997075	72	617	0	-100	0	230	101300000	1000	0	0	-1	1000
17009635	72	619	0	-100	0	230	101300000	1000	0	0	-1	1000
17022195	77	612	0	-100	0	230	101300000	1000	0	0	-1	1000
17034755	75	614	0	-100	0	230	101300000	1000	0	0	-1	1000
17047315	72	618	0	-100	0	230	101300000	1000	0	0	-1	1000
17059875	77	613	0	-100	0	230	101300000	1000	0	0	-1	1000
17072435	80	613	0	-100	0	230	101300000	1000	0	0	-1	1000
17084995	75	611	0	-100	0	230	101300000	1000	0	0	-1	1000
17097555	75	620	0	-100	0	230	101300000	1000	0	0	-1	1000
17110115	82	614	0	-100	0	230	101300000	1000	0	0	-1	1000
17122675	79	640	0	-100	0	230	101300000	1000	0	0	-1	1000
17135235	72	615	0	-100	0	230	101300000	1000	0	0	-1	1000
17147795	75	619	0	-100	0	230	101300000	1000	0	0	-1	1000
17160355	77	611	0	-100	0	230	101300000	1000	0	0	-1	1000
17172915	80	615	0	-100	0	230	101300000	1000	0	0	-1	1000
17185475	75	614	0	-100	0	230	101300000	1000	0	0	-1	1000
17198035	75	619	0	-100	0	230	101300000	1000	0	0	-1	1000
17210595	75	621	0	-100	0	230	101300000	1000	0	0	-1	1000
17223155	72	619	0	-100	0	230	101300000	1000	0	0	-1	1000
17235715	77	607	0	-100	0	230	101300000	1000	0	0	-1	1000
17248275	80	613	0	-100	0	230	101300000	1000	0	0	-1	1000
17260835	80	614	0	-100	0	230	101300000	1000	0	0	-1	1000
17273395	80	610	0	-100	0	230	101300000	1000	0	0	-1	1000
17285955	80	611	0	-100	0	230	101300000	1000	0	0	-1	1000
17298515	80	612	0	-100	0	230	101300000	1000	0	0	-1	1000
17311075	75	614	0	-100	0	230	101300000	1000	0	0	-1	1000
17323635	75	618	0	-100	0	230	101300000	1000	0	0	-1	1000
17336195	75	620	0	-100	0	230	101300000	1000	0	0	-1	1000
17348755	72	617	0	-100	0	230	101300000	1000	0	0	-1	1000
17361315	80	606	0	-100	0	230	101300000	1000	0	0	-1	1000
17373875	80	612	0	-100	0	230	101300000	1000	0	0	-1	1000
17386435	80	612	0	-100	0	230	101300000	1000	0	0	-1	1000
17398995	75	615	0	-100	0	230	101300000	1000	0	0	-1	1000
17411555	77	623	0	-100	0	230	101300000	1000	0	0	-1	1000
17424115	72	617	0	-100	0	230	101300000	1000	0	0	-1	1000
17436675	82	611	0	-100	0	230	101300000	1000	0	0	-1	1000
17449235	82	611	0	-100	0	230	101300000	1000	0	0	-1	1000
17461795	75	618	0	-100	0	230	101300000	1000	0	0	-1	1000
17474355	75	624	0	-100	0	230	101300000	1000	0	0	-1	1000
17486915	75	616	0	-100	0	230	101300000	1000	0	0	-1	1000
17499475	82	613	0	-100	0	230	101300000	1000	0	0	-1	1000
17512035	80	610	0	-100	0	230	101300000	1000	0	0	-1	1000
17524595	79	612	0	-100	0	230	101300000	1000	0	0	-1	1000
17537155	72	616	0	-100	0	230	101300000	1000	0	0	-1	1000
17549715	72	615	0	-100	0	230	101300000	1000	0	0	-1	1000
17562275	75	618	0	-100	0	230	101300000	1000	0	0	-1	1000
17574835	75	619	0	-100	0	230	101300000	1000	0	0	-1	1000
17587395	72	619	0	-100	0	230	101300000	1000	0	0	-1	1000
17599955	75	615	0	-100	0	230	101300000	1000	0	0	-1	1000
17612515	80	609	0	-100	0	230	101300000	1000	0	0	-1	1000
17625075	82	608	0	-100	0	230	101300000	1000	0	0	-1	1000
17637635	80	613	0	-100	0	230	101300000	1000	0	0	-1	1000
17650195	75	615	0	-100	0	230	101300000	1000	0	0	-1	1000
17662755	75	620	0	-100	0	230	101300000	1000	0	0	-1	1000
17675315	72	619	0	-100	0	230	101300000	1000	0	0	-1	1000
17687875	72	616	0	-100	0	230	101300000	1000	0	0	-1	1000
17700435	82	614	0	-100	0	230	101300000	1000	0	0	-1	1000
17712995	79	619	0	-100	0	230	101300000	1000	0	0	-1	1000
17725555	75	614	0	-100	0	230	101300000	1000	0	0	-1	1000
17738115	75	616	0	-100	0	230	101300000	1000	0	0	-1	1000
17750675	75	624	0	-100	0	230	101300000	1000	0	0	-1	1000
17763235	75	621	0	-100	0	230	101300000	1000	0	0	-1	1000
17775795	80	612	0	-100	0	230	101300000	1000	0	0	-1	1000
17788355	82	610	0	-100	0	230	101300000	1000	0	0	-1	1000
17800915	77	617	0	-100	0	230	101300000	1000	0	0	-1	1000
17813475	75	613	0	-100	0	230	101300000	1000	0	0	-1	1000
17826035	77	618	0	-100	0	230	101300000	1000	0	0	-1	1000
17838595	72	619	0	-100	0	230	101300000	1000	0	0	-1	1000
17851155	72	616	0	-100	0	230	101300000	1000	0	0	-1	1000
17863715	82	610	0	-100	0	230	101300000	1000	0	0	-1	1000
17876275	79	612	0	-100	0	230	101300000	1000	0	0	-1	1000
17888835	82	612	0	-100	0	230	101300000	1000	0	0	-1	1000
17901395	77	614	0	-100	0	230	101300000	1000	0	0	-1	1000
17913955	75	615	0	-100	0	230	101300000	1000	0	0	-1	1000
17926515	75	619	0	-100	0	230	101300000	1000	0	0	-1	1000
17939075	77	618	0	-100	0	230	101300000	1000	0	0	-1	1000
17951635	72	680	0	-100	0	230	101300000	1000	0	0	-1	1000
17964195	82	611	0	-100	0	230	101300000	1000	0	0	-1	1000
17976755	75	615	0	-100	0	230	101300000	1000	0	0	-1	1000
17989315	75	620	0	-100	0	230	101300000	1000	0	0	-1	1000
18001875	79	610	0	-100	0	230	101300000	1000	0	0	-1	1000
18014435	75	614	0	-100	0	230	101300000	1000	0	0	-1	1000
18026995	75	611	0	-100	0	230	101300000	1000	0	0	-1	1000
18039555	80	579	0	-100	0	230	101300000	1000	0	0	-1	1000
18052115	80	615	0	-100	0	230	101300000	1000	0	0	-1	1000
18064675	75	621	0	-100	0	230	101300000	1000	0	0	-1	1000
18077235	77	614	0	-100	0	230	101300000	1000	0	0	-1	1000
18089795	79	610	0	-100	0	230	101300000	1000	0	0	-1	1000
18102355	77	617	0	-100	0	230	101300000	1000	0	0	-1	1000
18114915	77	610	0	-100	0	230	101300000	1000	0	0	-1	1000
18127475	80	597	0	-100	0	230	101300000	1000	0	0	-1	1000
18140035	72	616	0	-100	0	230	101300000	1000	0	0	-1	1000
18152595	75	617	0	-100	0	230	101300000	1000	0	0	-1	1000
18165155	72	617	0	-100	0	230	101300000	1000	0	0	-1	1000
18177715	75	616	0	-100	0	230	101300000	1000	0	0	-1	1000
18190275	82	615	0	-100	0	230	101300000	1000	0	0	-1	1000
18202835	82	615	0	-100	0	230	101300000	1000	0	0	-1	1000
18215395	75	606	0	-100	0	230	101300000	1000	0	0	-1	1000
18227955	75	616	0	-100	0	230	101300000	1000	0	0	-1	1000
18240515	80	611	0	-100	0	230	101300000	1000	0	0	-1	1000
18253075	77	618	0	-100	0	230	101300000	1000	0	0	-1	1000
18265635	77	613	0	-100	0	230	101300000	1000	0	0	-1	1000
18278195	80	612	0	-100	0	230	101300000	1000	0	0	-1	1000
18290755	75	620	0	-100	0	230	101300000	1000	0	0	-1	1000
18303315	75	613	0	-100	0	230	101300000	1000	0	0	-1	1000
18315875	77	615	0	-100	0	230	101300000	1000	0	0	-1	1000
18328435	75	620	0	-100	0	230	101300000	1000	0	0	-1	1000
18340995	79	618	0	-100	0	230	101300000	1000	0	0	-1	1000
18353555	72	618	0	-100	0	230	101300000	1000	0	0	-1	1000
18366115	72	616	0	-100	0	230	101300000	1000	0	0	-1	1000
18378675	79	611	0	-100	0	230	101300000	1000	0	0	-1	1000
18391235	72	622	0	-100	0	230	101300000	1000	0	0	-1	1000
18403795	82	610	0	-100	0	230	101300000	1000	0	0	-1	1000
18416355	75	610	0	-100	0	230	101300000	1000	0	0	-1	1000
18428915	75	619	0	-100	0	230	101300000	1000	0	0	-1	1000
18441475	79	612	0	-100	0	230	101300000	1000	0	0	-1	1000
18454035	75	611	0	-100	0	230	101300000	1000	0	0	-1	1000
18466595	77	613	0	-100	0	230	101300000	1000	0	0	-1	1000
18479155	77	613	0	-100	0	230	101300000	1000	0	0	-1	1000
18491715	77	617	0	-100	0	230	101300000	1000	0	0	-1	1000
18504275	82	614	0	-100	0	230	101300000	1000	0	0	-1	1000
18516835	77	617	0	-100	0	230	101300000	1000	0	0	-1	1000
18529395	75	618	0	-100	0	230	101300000	1000	0	0	-1	1000
18541955	82	613	0	-100	0	230	101300000	1000	0	0	-1	1000
18554515	72	619	0	-100	0	230	101300000	1000	0	0	-1	1000
18567075	82	610	0	-100	0	230	101300000	1000	0	0	-1	1000
18579635	72	616	0	-100	0	230	101300000	1000	0	0	-1	1000
18592195	75	616	0	-100	0	230	101300000	1000	0	0	-1	1000
18604755	79	611	0	-100	0	230	101300000	1000	0	0	-1	1000
18617315	75	620	0	-100	0	230	101300000	1000	0	0	-1	1000
18629875	79	609	0	-100	0	230	101300000	1000	0	0	-1	1000
18642435	79	616	0	-100	0	230	101300000	1000	0	0	-1	1000
18654995	80	621	0	-100	0	230	101300000	1000	0	0	-1	1000
18667555	75	612	0	-100	0	230	101300000	1000	0	0	-1	1000
18680115	72	619	0	-100	0	230	101300000	1000	0	0	-1	1000
18692675	80	611	0	-100	0	230	101300000	1000	0	0	-1	1000
18705235	72	618	0	-100	0	230	101300000	1000	0	0	-1	1000
18717795	77	616	0	-100	0	230	101300000	1000	0	0	-1	1000
18730355	75	615	0	-100	0	230	101300000	1000	0	0	-1	1000
18742915	77	619	0	-100	0	230	101300000	1000	0	0	-1	1000
18755475	72	616	0	-100	0	230	101300000	1000	0	0	-1	1000
18768035	80	612	0	-100	0	230	101300000	1000	0	0	-1	1000
18780595	75	618	0	-100	0	230	101300000	1000	0	0	-1	1000
18793155	75	611	0	-100	0	230	101300000	1000	0	0	-1	1000
18805715	77	620	0	-100	0	230	101300000	1000	0	0	-1	1000
18818275	80	613	0	-100	0	230	101300000	1000	0	0	-1	1000
18830835	75	614	0	-100	0	230	101300000	1000	0	0	-1	1000
18843395	75	617	0	-100	0	230	101300000	1000	0	0	-1	1000
18855955	79	611	0	-100	0	230	101300000	1000	0	0	-1	1000
18868515	72	621	0	-100	0	230	101300000	1000	0	0	-1	1000
18881075	80	611	0	-100	0	230	101300000	1000	0	0	-1	1000
18893635	75	613	0	-100	0	230	101300000	1000	0	0	-1	1000
18906195	72	621	0	-100	0	230	101300000	1000	0	0	-1	1000
18918755	77	611	0	-100	0	230	101300000	1000	0	0	-1	1000
18931315	77	619	0	-100	0	230	101300000	1000	0	0	-1	1000
18943875	75	620	0	-100	0	230	101300000	1000	0	0	-1	1000
18956435	82	615	0	-100	0	230	101300000	1000	0	0	-1	1000
18968995	77	614	0	-100	0	230	101300000	1000	0	0	-1	1000
18981555	75	619	0	-100	0	230	101300000	1000	0	0	-1	1000
18994115	79	611	0	-100	0	230	101300000	1000	0	0	-1	1000
19006675	72	616	0	-100	0	230	101300000	1000	0	0	-1	1000
19019235	80	612	0	-100	0	230	101300000	1000	0	0	-1	1000
19031795	75	613	0	-100	0	230	101300000	1000	0	0	-1	1000
19044355	72	620	0	-100	0	230	101300000	1000	0	0	-1	1000
19056915	82	610	0	-100	0	230	101300000	1000	0	0	-1	1000
19069475	77	618	0	-100	0	230	101300000	1000	0	0	-1	1000
19082035	77	610	0	-100	0	230	101300000	1000	0	0	-1	1000
19094595	80	610	0	-100	0	230	101300000	1000	0	0	-1	1000
19107155	75	618	0	-100	0	230	101300000	1000	0	0	-1	1000
19119715	79	613	0	-100	0	230	101300000	1000	0	0	-1	1000
19132275	77	618	0	-100	0	230	101300000	1000	0	0	-1	1000
19144835	72	622	0	-100	0	230	101300000	1000	0	0	-1	1000
19157395	80	613	0	-100	0	230	101300000	1000	0	0	-1	1000
19169955	80	611	0	-100	0	230	101300000	1000	0	0	-1	1000
19182515	72	620	0	-100	0	230	101300000	1000	0	0	-1	1000
19195075	82	613	0	-100	0	230	101300000	1000	0	0	-1	1000
19207635	77	616	0	-100	0	230	101300000	1000	0	0	-1	1000
19220195	72	620	0	-100	0	230	101300000	1000	0	0	-1	1000
19232755	82	615	0	-100	0	230	101300000	1000	0	0	-1	1000
19245315	77	616	0	-100	0	230	101300000	1000	0	0	-1	1000
19257875	75	620	0	-100	0	230	101300000	1000	0	0	-1	1000
19270435	82	614	0	-100	0	230	101300000	1000	0	0	-1	1000
19282995	77	613	0	-100	0	230	101300000	1000	0	0	-1	1000
19295555	72	619	0	-100	0	230	101300000	1000	0	0	-1	1000
19308115	80	610	0	-100	0	230	101300000	1000	0	0	-1	1000
19320675	77	617	0	-100	0	230	101300000	1000	0	0	-1	1000
19333235	77	613	0	-100	0	230	101300000	1000	0	0	-1	1000
19345795	79	611	0	-100	0	230	101300000	1000	0	0	-1	1000
19358355	75	621	0	-100	0	230	101300000	1000	0	0	-1	1000
19370915	75	614	0	-100	0	230	101300000	1000	0	0	-1	1000
19383475	82	613	0	-100	0	230	101300000	1000	0	0	-1	1000
19396035	75	617	0	-100	0	230	101300000	1000	0	0	-1	1000
19408595	75	617	0	-100	0	230	101300000	1000	0	0	-1	1000
19421155	77	612	0	-100	0	230	101300000	1000	0	0	-1	1000
19433715	72	615	0	-100	0	230	101300000	1000	0	0	-1	1000
19446275	72	617	0	-100	0	230	101300000	1000	0	0	-1	1000
19458835	82	610	0	-100	0	230	101300000	1000	0	0	-1	1000
19471395	75	614	0	-100	0	230	101300000	1000	0	0	-1	1000
19483955	72	619	0	-100	0	230	101300000	1000	0	0	-1	1000
19496515	79	612	0	-100	0	230	101300000	1000	0	0	-1	1000
19509075	79	615	0	-100	0	230	101300000	1000	0	0	-1	1000
19521635	72	617	0	-100	0	230	101300000	1000	0	0	-1	1000
19534195	75	617	0	-100	0	230	101300000	1000	0	0	-1	1000
19546755	80	610	0	-100	0	230	101300000	1000	0	0	-1	1000
19559315	75	621	0	-100	0	230	101300000	1000	0	0	-1	1000
19571875	80	612	0	-100	0	230	101300000	1000	0	0	-1	1000
19584435	80	612	0	-100	0	230	101300000	1000	0	0	-1	1000
19596995	75	614	0	-100	0	230	101300000	1000	0	0	-1	1000
19609555	77	611	0	-100	0	230	101300000	1000	0	0	-1	1000
19622115	80	610	0	-100	0	230	101300000	1000	0	0	-1	1000
19634675	75	618	0	-100	0	230	101300000	1000	0	0	-1	1000
19647235	77	610	0	-100	0	230	101300000	1000	0	0	-1	1000
19672355	75	616	0	-100	0	230	101300000	1000	0	0	-1	1000
19684915	77	616	0	-100	0	230	101300000	1000	0	0	-1	1000
19697475	72	618	0	-100	0	230	101300000	1000	0	0	-1	1000
19710035	79	612	0	-100	0	230	101300000	1000	0	0	-1	1000
19722595	77	620	0	-100	0	230	101300000	1000	0	0	-1	1000
19735155	72	616	0	-100	0	230	101300000	1000	0	0	-1	1000
19747715	79	610	0	-100	0	230	101300000	1000	0	0	-1	1000
19760275	75	622	0	-100	0	230	101300000	1000	0	0	-1	1000
19772835	80	611	0	-100	0	230	101300000	1000	0	0	-1	1000
19785395	75	615	0	-100	0	230	101300000	1000	0	0	-1	1000
19797955	75	618	0	-100	0	230	101300000	1000	0	0	-1	1000
19810515	82	612	0	-100	0	230	101300000	1000	0	0	-1	1000
19835635	84	612	0	-100	0	230	101300000	1000	0	0	-1	1000
19848195	75	618	0	-100	0	230	101300000	1000	0	0	-1	1000
19860755	75	617	0	-100	0	230	101300000	1000	0	0	-1	1000
19873315	79	611	0	-100	0	230	101300000	1000	0	0	-1	1000
19885875	75	619	0	-100	0	230	101300000	1000	0	0	-1	1000
19898435	82	613	0	-100	0	230	101300000	1000	0	0	-1	1000
19910995	72	612	0	-100	0	230	101300000	1000	0	0	-1	1000
19923555	75	617	0	-100	0	230	101300000	1000	0	0	-1	1000
19936115	79	611	0	-100	0	230	101300000	1000	0	0	-1	1000
19948675	75	620	0	-100	0	230	101300000	1000	0	0	-1	1000
19961235	75	613	0	-100	0	230	101300000	1000	0	0	-1	1000
19973795	79	614	0	-100	0	230	101300000	1000	0	0	-1	1000
19998915	75	621	0	-100	0	230	101300000	1000	0	0	-1	1000
20011475	75	620	0	-100	0	230	101300000	1000	0	0	-1	1000
20024035	82	614	0	-100	0	230	101300000	1000	0	0	-1	1000
20036595	77	615	0	-100	0	230	101300000	1000	0	0	-1	1000
20049155	70	618	0	-100	0	230	101300000	1000	0	0	-1	1000
20061715	80	611	0	-100	0	230	101300000	1000	0	0	-1	1000
20074275	79	611	0	-100	0	230	101300000	1000	0	0	-1	1000
20086835	77	621	0	-100	0	230	101300000	1000	0	0	-1	1000
20099395	70	617	0	-100	0	230	101300000	1000	0	0	-1	1000
20111955	79	612	0	-100	0	230	101300000	1000	0	0	-1	1000
20124515	77	617	0	-100	0	230	101300000	1000	0	0	-1	1000
20137075	77	618	0	-100	0	230	101300000	1000	0	0	-1	1000
20162195	80	610	0	-100	0	230	101300000	1000	0	0	-1	1000
20174755	75	615	0	-100	0	230	101300000	1000	0	0	-1	1000
20187315	72	619	0	-100	0	230	101300000	1000	0	0	-1	1000
20199875	82	615	0	-100	0	230	101300000	1000	0	0	-1	1000
20212435	77	619	0	-100	0	230	101300000	1000	0	0	-1	1000
20224995	72	617	0	-100	0	230	101300000	1000	0	0	-1	1000
20237555	80	613	0	-100	0	230	101300000	1000	0	0	-1	1000
20250115	77	619	0	-100	0	230	101300000	1000	0	0	-1	1000
20262675	77	610	0	-100	0	230	101300000	1000	0	0	-1	1000
20275235	77	616	0	-100	0	230	101300000	1000	0	0	-1	1000
20287795	72	620	0	-100	0	230	101300000	1000	0	0	-1	1000
20300355	82	610	0	-100	0	230	101300000	1000	0	0	-1	1000
20325475	75	616	0	-100	0	230	101300000	1000	0	0	-1	1000
20338035	82	612	0	-100	0	230	101300000	1000	0	0	-1	1000
20350595	75	612	0	-100	0	230	101300000	1000	0	0	-1	1000
20363155	72	620	0	-100	0	230	101300000	1000	0	0	-1	1000
20375715	80	612	0	-100	0	230	101300000	1000	0	0	-1	1000
20388275	79	610	0	-100	0	230	101300000	1000	0	0	-1	1000
20400835	77	618	0	-100	0	230	101300000	1000	0	0	-1	1000
20413395	77	611	0	-100	0	230	101300000	1000	0	0	-1	1000
20425955	77	616	0	-100	0	230	101300000	1000	0	0	-1	1000
20438515	75	620	0	-100	0	230	101300000	1000	0	0	-1	1000
20451075	82	611	0	-100	0	230	101300000	1000	0	0	-1	1000
20463635	75	617	0	-100	0	230	101300000	1000	0	0	-1	1000
20488755	82	612	0	-100	0	230	101300000	1000	0	0	-1	1000
20501315	75	618	0	-100	0	230	101300000	1000	0	0	-1	1000
20513875	72	617	0	-100	0	230	101300000	1000	0	0	-1	1000
20526435	80	612	0	-100	0	230	101300000	1000	0	0	-1	1000
20538995	75	612	0	-100	0	230	101300000	1000	0	0	-1	1000
20551555	79	610	0	-100	0	230	101300000	1000	0	0	-1	1000
20564115	75	617	0	-100	0	230	101300000	1000	0	0	-1	1000
20576675	77	609	0	-100	0	230	101300000	1000	0	0	-1	1000
20589235	82	614	0	-100	0	230	101300000	1000	0	0	-1	1000
20601795	77	619	0	-100	0	230	101300000	1000	0	0	-1	1000
20614355	75	614	0	-100	0	230	101300000	1000	0	0	-1	1000
20652035	72	616	0	-100	0	230	101300000	1000	0	0	-1	1000
20664595	80	609	0	-100	0	230	101300000	1000	0	0	-1	1000
20677155	70	613	0	-100	0	230	101300000	1000	0	0	-1	1000
20689715	75	618	0	-100	0	230	101300000	1000	0	0	-1	1000
20702275	80	610	0	-100	0	230	101300000	1000	0	0	-1	1000
20714835	77	617	0	-100	0	230	101300000	1000	0	0	-1	1000
20727395	80	612	0	-100	0	230	101300000	1000	0	0	-1	1000
20739955	75	611	0	-100	0	230	101300000	1000	0	0	-1	1000
20752515	72	621	0	-100	0	230	101300000	1000	0	0	-1	1000
20765075	80	613	0	-100	0	230	101300000	1000	0	0	-1	1000
20777635	79	610	0	-100	0	230	101300000	1000	0	0	-1	1000
20790195	75	616	0	-100	0	230	101300000	1000	0	0	-1	1000
20802755	75	617	0	-100	0	230	101300000	1000	0	0	-1	1000
20815315	80	611	0	-100	0	230	101300000	1000	0	0	-1	1000
20827875	75	619	0	-100	0	230	101300000	1000	0	0	-1	1000
20840435	80	612	0	-100	0	230	101300000	1000	0	0	-1	1000
20852995	75	612	0	-100	0	230	101300000	1000	0	0	-1	1000
20865555	82	612	0	-100	0	230	101300000	1000	0	0	-1	1000
20878115	80	612	0	-100	0	230	101300000	1000	0	0	-1	1000
20890675	72	619	0	-100	0	230	101300000	1000	0	0	-1	1000
20903235	80	613	0	-100	0	230	101300000	1000	0	0	-1	1000
20915795	75	614	0	-100	0	230	101300000	1000	0	0	-1	1000
20928355	72	618	0	-100	0	230	101300000	1000	0	0	-1	1000
20940915	82	614	0	-100	0	230	101300000	1000	0	0	-1	1000
20966035	72	617	0	-100	0	230	101300000	1000	0	0	-1	1000
20978595	82	611	0	-100	0	230	101300000	1000	0	0	-1	1000
20991155	70	612	0	-100	0	230	101300000	1000	0	0	-1	1000
21003715	75	620	0	-100	0	230	101300000	1000	0	0	-1	1000
21016275	80	612	0	-100	0	230	101300000	1000	0	0	-1	1000
21028835	79	612	0	-100	0	230	101300000	1000	0	0	-1	1000
21041395	75	621	0	-100	0	230	101300000	1000	0	0	-1	1000
21053955	77	612	0	-100	0	230	101300000	1000	0	0	-1	1000
21066515	80	612	0	-100	0	230	101300000	1000	0	0	-1	1000
21079075	72	620	0	-100	0	230	101300000	1000	0	0	-1	1000
21091635	75	615	0	-100	0	230	101300000	1000	0	0	-1	1000
21104195	82	613	0	-100	0	230	101300000	1000	0	0	-1	1000
21116755	77	615	0	-100	0	230	101300000	1000	0	0	-1	1000
21129315	75	615	0	-100	0	230	101300000	1000	0	0	-1	1000
21141875	72	618	0	-100	0	230	101300000	1000	0	0	-1	1000
21154435	80	612	0	-100	0	230	101300000	1000	0	0	-1	1000
21166995	82	618	0	-100	0	230	101300000	1000	0	0	-1	1000
21179555	75	613	0	-100	0	230	101300000	1000	0	0	-1	1000
21192115	72	620	0	-100	0	230	101300000	1000	0	0	-1	1000
21204675	75	616	0	-100	0	230	101300000	1000	0	0	-1	1000
21217235	80	612	0	-100	0	230	101300000	1000	0	0	-1	1000
21229795	77	616	0	-100	0	230	101300000	1000	0	0	-1	1000
21242355	77	620	0	-100	0	230	101300000	1000	0	0	-1	1000
21254915	72	616	0	-100	0	230	101300000	1000	0	0	-1	1000
21267475	79	613	0	-100	0	230	101300000	1000	0	0	-1	1000
21280035	80	612	0	-100	0	230	101300000	1000	0	0	-1	1000
21292595	75	619	0	-100	0	230	101300000	1000	0	0	-1	1000
21305155	70	615	0	-100	0	230	101300000	1000	0	0	-1	1000
21317715	80	610	0	-100	0	230	101300000	1000	0	0	-1	1000
21330275	77	617	0	-100	0	230	101300000	1000	0	0	-1	1000
21342835	75	619	0	-100	0	230	101300000	1000	0	0	-1	1000
21355395	75	617	0	-100	0	230	101300000	1000	0	0	-1	1000
21367955	80	612	0	-100	0	230	101300000	1000	0	0	-1	1000
21380515	77	618	0	-100	0	230	101300000	1000	0	0	-1	1000
21393075	75	615	0	-100	0	230	101300000	1000	0	0	-1	1000
21405635	72	617	0	-100	0	230	101300000	1000	0	0	-1	1000
21418195	82	614	0	-100	0	230	101300000	1000	0	0	-1	1000
21430755	72	619	0	-100	0	230	101300000	1000	0	0	-1	1000
21443315	75	617	0	-100	0	230	101300000	1000	0	0	-1	1000
21455875	80	611	0	-100	0	230	101300000	1000	0	0	-1	1000
21468435	75	620	0	-100	0	230	101300000	1000	0	0	-1	1000
21480995	75	620	0	-100	0	230	101300000	1000	0	0	-1	1000
21493555	79	610	0	-100	0	230	101300000	1000	0	0	-1	1000
21506115	75	617	0	-100	0	230	101300000	1000	0	0	-1	1000
21518675	72	619	0	-100	0	230	101300000	1000	0	0	-1	1000
21531235	82	612	0	-100	0	230	101300000	1000	0	0	-1	1000
21543795	75	618	0	-100	0	230	101300000	1000	0	0	-1	1000
21556355	70	620	0	-100	0	230	101300000	1000	0	0	-1	1000
21568915	79	612	0	-100	0	230	101300000	1000	0	0	-1	1000
21581475	75	617	0	-100	0	230	101300000	1000	0	0	-1	1000
21594035	72	617	0	-100	0	230	101300000	1000	0	0	-1	1000
21606595	80	612	0	-100	0	230	101300000	1000	0	0	-1	1000
21619155	70	620	0	-100	0	230	101300000	1000	0	0	-1	1000
21631715	80	611	0	-100	0	230	101300000	1000	0	0	-1	1000
21644275	79	610	0	-100	0	230	101300000	1000	0	0	-1	1000
21656835	75	615	0	-100	0	230	101300000	1000	0	0	-1	1000
21669395	72	615	0	-100	0	230	101300000	1000	0	0	-1	1000
21681955	79	611	0	-100	0	230	101300000	1000	0	0	-1	1000
21694515	75	614	0	-100	0	230	101300000	1000	0	0	-1	1000
21707075	75	621	0	-100	0	230	101300000	1000	0	0	-1	1000
21719635	72	616	0	-100	0	230	101300000	1000	0	0	-1	1000
21732195	82	611	0	-100	0	230	101300000	1000	0	0	-1	1000
21744755	77	617	0	-100	0	230	101300000	1000	0	0	-1	1000
21757315	75	620	0	-100	0	230	101300000	1000	0	0	-1	1000
21769875	82	615	0	-100	0	230	101300000	1000	0	0	-1	1000
21782435	75	612	0	-100	0	230	101300000	1000	0	0	-1	1000
21794995	72	613	0	-100	0	230	101300000	1000	0	0	-1	1000
21807555	75	613	0	-100	0	230	101300000	1000	0	0	-1	1000
21820115	79	613	0	-100	0	230	101300000	1000	0	0	-1	1000
21832675	72	618	0	-100	0	230	101300000	1000	0	0	-1	1000
21845235	72	620	0	-100	0	230	101300000	1000	0	0	-1	1000
21857795	75	615	0	-100	0	230	101300000	1000	0	0	-1	1000
21870355	82	612	0	-100	0	230	101300000	1000	0	0	-1	1000
21882915	77	617	0	-100	0	230	101300000	1000	0	0	-1	1000
21895475	75	620	0	-100	0	230	101300000	1000	0	0	-1	1000
21908035	72	617	0	-100	0	230	101300000	1000	0	0	-1	1000
21920595	82	613	0	-100	0	230	101300000	1000	0	0	-1	1000
21933155	75	610	0	-100	0	230	101300000	1000	0	0	-1	1000
21945715	75	617	0	-100	0	230	101300000	1000	0	0	-1	1000
21958275	72	617	0	-100	0	230	101300000	1000	0	0	-1	1000
21970835	82	613	0	-100	0	230	101300000	1000	0	0	-1	1000
21983395	75	612	0	-100	0	230	101300000	1000	0	0	-1	1000
21995955	77	617	0	-100	0	230	101300000	1000	0	0	-1	1000
22008515	79	613	0	-100	0	230	101300000	1000	0	0	-1	1000
22021075	72	616	0	-100	0	230	101300000	1000	0	0	-1	1000
22033635	75	618	0	-100	0	230	101300000	1000	0	0	-1	1000
22046195	80	611	0	-100	0	230	101300000	1000	0	0	-1	1000
22058755	75	622	0	-100	0	230	101300000	1000	0	0	-1	1000
22071315	79	613	0	-100	0	230	101300000	1000	0	0	-1	1000
22083875	75	612	0	-100	0	230	101300000	1000	0	0	-1	1000
22096435	75	619	0	-100	0	230	101300000	1000	0	0	-1	1000
22108995	80	618	0	-100	0	230	101300000	1000	0	0	-1	1000
22121555	75	617	0	-100	0	230	101300000	1000	0	0	-1	1000
22134115	77	611	0	-100	0	230	101300000	1000	0	0	-1	1000
22146675	75	614	0	-100	0	230	101300000	1000	0	0	-1	1000
22159235	75	617	0	-100	0	230	101300000	1000	0	0	-1	1000
22171795	79	612	0	-100	0	230	101300000	1000	0	0	-1	1000
22184355	75	619	0	-100	0	230	101300000	1000	0	0	-1	1000
22196915	79	611	0	-100	0	230	101300000	1000	0	0	-1	1000
22209475	75	618	0	-100	0	230	101300000	1000	0	0	-1	1000
22222035	82	615	0	-100	0	230	101300000	1000	0	0	-1	1000
22234595	75	616	0	-100	0	230	101300000	1000	0	0	-1	1000
22247155	72	613	0	-100	0	230	101300000	1000	0	0	-1	1000
22259715	80	610	0	-100	0	230	101300000	1000	0	0	-1	1000
22272275	75	620	0	-100	0	230	101300000	1000	0	0	-1	1000
22284835	77	612	0	-100	0	230	101300000	1000	0	0	-1	1000
22297395	80	612	0	-100	0	230	101300000	1000	0	0	-1	1000
22309955	75	621	0	-100	0	230	101300000	1000	0	0	-1	1000
22322515	75	613	0	-100	0	230	101300000	1000	0	0	-1	1000
22335075	77	616	0	-100	0	230	101300000	1000	0	0	-1	1000
22347635	75	620	0	-100	0	230	101300000	1000	0	0	-1	1000
22360195	82	614	0	-100	0	230	101300000	1000	0	0	-1	1000
22372755	75	611	0	-100	0	230	101300000	1000	0	0	-1	1000
22385315	75	619	0	-100	0	230	101300000	1000	0	0	-1	1000
22397875	82	615	0	-100	0	230	101300000	1000	0	0	-1	1000
22410435	79	611	0	-100	0	230	101300000	1000	0	0	-1	1000
22422995	75	614	0	-100	0	230	101300000	1000	0	0	-1	1000
22435555	75	615	0	-100	0	230	101300000	1000	0	0	-1	1000
22448115	77	617	0	-100	0	230	101300000	1000	0	0	-1	1000
22460675	75	620	0	-100	0	230	101300000	1000	0	0	-1	1000
22473235	75	617	0	-100	0	230	101300000	1000	0	0	-1	1000
22485795	79	612	0	-100	0	230	101300000	1000	0	0	-1	1000
22498355	72	617	0	-100	0	230	101300000	1000	0	0	-1	1000
22510915	72	616	0	-100	0	230	101300000	1000	0	0	-1	1000
22523475	80	612	0	-100	0	230	101300000	1000	0	0	-1	1000
22536035	75	621	0	-100	0	230	101300000	1000	0	0	-1	1000
22548595	80	612	0	-100	0	230	101300000	1000	0	0	-1	1000
22561155	72	615	0	-100	0	230	101300000	1000	0	0	-1	1000
22573715	75	617	0	-100	0	230	101300000	1000	0	0	-1	1000
22586275	80	611	0	-100	0	230	101300000	1000	0	0	-1	1000
22598835	72	620	0	-100	0	230	101300000	1000	0	0	-1	1000
22611395	80	608	0	-100	0	230	101300000	1000	0	0	-1	1000
22623955	75	617	0	-100	0	230	101300000	1000	0	0	-1	1000
22636515	72	619	0	-100	0	230	101300000	1000	0	0	-1	1000
22649075	82	614	0	-100	0	230	101300000	1000	0	0	-1	1000
22661635	77	618	0	-100	0	230	101300000	1000	0	0	-1	1000
22674195	82	613	0	-100	0	230	101300000	1000	0	0	-1	1000
22686755	75	616	0	-100	0	230	101300000	1000	0	0	-1	1000
22724435	72	618	0	-100	0	230	101300000	1000	0	0	-1	1000
22736995	80	617	0	-100	0	230	101300000	1000	0	0	-1	1000
22749555	75	620	0	-100	0	230	101300000	1000	0	0	-1	1000
22762115	80	611	0	-100	0	230	101300000	1000	0	0	-1	1000
22774675	79	612	0	-100	0	230	101300000	1000	0	0	-1	1000
22787235	72	619	0	-100	0	230	101300000	1000	0	0	-1	1000
22799795	82	612	0	-100	0	230	101300000	1000	0	0	-1	1000
22812355	75	623	0	-100	0	230	101300000	1000	0	0	-1	1000
22824915	80	611	0	-100	0	230	101300000	1000	0	0	-1	1000
22837475	75	618	0	-100	0	230	101300000	1000	0	0	-1	1000
22850035	75	614	0	-100	0	230	101300000	1000	0	0	-1	1000
22875155	70	613	0	-100	0	230	101300000	1000	0	0	-1	1000
22887715	80	611	0	-100	0	230	101300000	1000	0	0	-1	1000
22900275	75	620	0	-100	0	230	101300000	1000	0	0	-1	1000
22912835	82	611	0	-100	0	230	101300000	1000	0	0	-1	1000
22925395	75	616	0	-100	0	230	101300000	1000	0	0	-1	1000
22937955	75	613	0	-100	0	230	101300000	1000	0	0	-1	1000
22950515	75	618	0	-100	0	230	101300000	1000	0	0	-1	1000
22963075	79	608	0	-100	0	230	101300000	1000	0	0	-1	1000
22975635	72	621	0	-100	0	230	101300000	1000	0	0	-1	1000
22988195	79	612	0	-100	0	230	101300000	1000	0	0	-1	1000
23000755	72	617	0	-100	0	230	101300000	1000	0	0	-1	1000
23013315	77	616	0	-100	0	230	101300000	1000	0	0	-1	1000
23038435	79	612	0	-100	0	230	101300000	1000	0	0	-1	1000
23050995	75	615	0	-100	0	230	101300000	1000	0	0	-1	1000
23063555	80	613	0	-100	0	230	101300000	1000	0	0	-1	1000
23076115	75	621	0	-100	0	230	101300000	1000	0	0	-1	1000
23088675	80	612	0	-100	0	230	101300000	1000	0	0	-1	1000
23101235	75	614	0	-100	0	230	101300000	1000	0	0	-1	1000
23113795	72	617	0	-100	0	230	101300000	1000	0	0	-1	1000
23126355	82	611	0	-100	0	230	101300000	1000	0	0	-1	1000
23138915	75	617	0	-100	0	230	101300000	1000	0	0	-1	1000
23151475	72	617	0	-100	0	230	101300000	1000	0	0	-1	1000
23164035	80	611	0	-100	0	230	101300000	1000	0	0	-1	1000
23176595	77	618	0	-100	0	230	101300000	1000	0	0	-1	1000
23201715	77	617	0	-100	0	230	101300000	1000	0	0	-1	1000
23214275	79	611	0	-100	0	230	101300000	1000	0	0	-1	1000
23226835	75	621	0	-100	0	230	101300000	1000	0	0	-1	1000
23239395	80	609	0	-100	0	230	101300000	1000	0	0	-1	1000
23251955	75	615	0	-100	0	230	101300000	1000	0	0	-1	1000
23264515	82	615	0	-100	0	230	101300000	1000	0	0	-1	1000
23277075	72	618	0	-100	0	230	101300000	1000	0	0	-1	1000
23289635	75	613	0	-100	0	230	101300000	1000	0	0	-1	1000
23302195	72	614	0	-100	0	230	101300000	1000	0	0	-1	1000
23314755	75	616	0	-100	0	230	101300000	1000	0	0	-1	1000
23327315	80	610	0	-100	0	230	101300000	1000	0	0	-1	1000
23339875	75	620	0	-100	0	230	101300000	1000	0	0	-1	1000
23352435	82	613	0	-100	0	230	101300000	1000	0	0	-1	1000
23364995	75	613	0	-100	0	230	101300000	1000	0	0	-1	1000
23377555	80	611	0	-100	0	230	101300000	1000	0	0	-1	1000
23390115	75	612	0	-100	0	230	101300000	1000	0	0	-1	1000
23402675	72	617	0	-100	0	230	101300000	1000	0	0	-1	1000
23415235	80	612	0	-100	0	230	101300000	1000	0	0	-1	1000
23427795	75	619	0	-100	0	230	101300000	1000	0	0	-1	1000
23440355	80	609	0	-100	0	230	101300000	1000	0	0	-1	1000
23452915	75	620	0	-100	0	230	101300000	1000	0	0	-1	1000
23465475	79	614	0	-100	0	230	101300000	1000	0	0	-1	1000
23478035	70	617	0	-100	0	230	101300000	1000	0	0	-1	1000
23490595	75	614	0	-100	0	230	101300000	1000	0	0	-1	1000
23503155	77	610	0	-100	0	230	101300000	1000	0	0	-1	1000
23515715	72	619	0	-100	0	230	101300000	1000	0	0	-1	1000
23528275	77	616	0	-100	0	230	101300000	1000	0	0	-1	1000
23540835	77	614	0	-100	0	230	101300000	1000	0	0	-1	1000
23553395	80	619	0	-100	0	230	101300000	1000	0	0	-1	1000
23565955	77	615	0	-100	0	230	101300000	1000	0	0	-1	1000
23578515	79	613	0	-100	0	230	101300000	1000	0	0	-1	1000
23591075	82	611	0	-100	0	230	101300000	1000	0	0	-1	1000
23603635	79	611	0	-100	0	230	101300000	1000	0	0	-1	1000
23616195	80	611	0	-100	0	230	101300000	1000	0	0	-1	1000
23628755	75	616	0	-100	0	230	101300000	1000	0	0	-1	1000
23641315	72	620	0	-100	0	230	101300000	1000	0	0	-1	1000
23653875	75	617	0	-100	0	230	101300000	1000	0	0	-1	1000
23666435	77	614	0	-100	0	230	101300000	1000	0	0	-1	1000
23678995	82	617	0	-100	0	230	101300000	1000	0	0	-1	1000
23691555	82	615	0	-100	0	230	101300000	1000	0	0	-1	1000
23704115	72	617	0	-100	0	230	101300000	1000	0	0	-1	1000
23716675	77	620	0	-100	0	230	101300000	1000	0	0	-1	1000
23729235	75	614	0	-100	0	230	101300000	1000	0	0	-1	1000
23741795	75	616	0	-100	0	230	101300000	1000	0	0	-1	1000
23754355	80	610	0	-100	0	230	101300000	1000	0	0	-1	1000
23766915	75	620	0	-100	0	230	101300000	1000	0	0	-1	1000
23779475	79	612	0	-100	0	230	101300000	1000	0	0	-1	1000
23792035	75	615	0	-100	0	230	101300000	1000	0	0	-1	1000
23804595	75	619	0	-100	0	230	101300000	1000	0	0	-1	1000
23817155	77	610	0	-100	0	230	101300000	1000	0	0	-1	1000
23829715	75	618	0	-100	0	230	101300000	1000	0	0	-1	1000
23842275	77	617	0	-100	0	230	101300000	1000	0	0	-1	1000
23854835	75	616	0	-100	0	230	101300000	1000	0	0	-1	1000
23867395	72	617	0	-100	0	230	101300000	1000	0	0	-1	1000
23879955	80	613	0	-100	0	230	101300000	1000	0	0	-1	1000
23892515	70	616	0	-100	0	230	101300000	1000	0	0	-1	1000
23905075	75	611	0	-100	0	230	101300000	1000	0	0	-1	1000
23917635	80	611	0	-100	0	230	101300000	1000	0	0	-1	1000
23930195	75	616	0	-100	0	230	101300000	1000	0	0	-1	1000
23942755	77	614	0	-100	0	230	101300000	1000	0	0	-1	1000
23955315	75	621	0	-100	0	230	101300000	1000	0	0	-1	1000
23967875	80	611	0	-100	0	230	101300000	1000	0	0	-1	1000
23980435	77	612	0	-100	0	230	101300000	1000	0	0	-1	1000
23992995	75	614	0	-100	0	230	101300000	1000	0	0	-1	1000
24005555	82	613	0	-100	0	230	101300000	1000	0	0	-1	1000
24018115	77	619	0	-100	0	230	101300000	1000	0	0	-1	1000
24030675	82	610	0	-100	0	230	101300000	1000	0	0	-1	1000
24043235	77	618	0	-100	0	230	101300000	1000	0	0	-1	1000
24055795	82	613	0	-100	0	230	101300000	1000	0	0	-1	1000
24068355	72	616	0	-100	0	230	101300000	1000	0	0	-1	1000
24080915	82	616	0	-100	0	230	101300000	1000	0	0	-1	1000
24093475	77	620	0	-100	0	230	101300000	1000	0	0	-1	1000
24106035	80	613	0	-100	0	230	101300000	1000	0	0	-1	1000
24118595	75	617	0	-100	0	230	101300000	1000	0	0	-1	1000
24131155	79	615	0	-100	0	230	101300000	1000	0	0	-1	1000
24143715	75	618	0	-100	0	230	101300000	1000	0	0	-1	1000
24156275	82	615	0	-100	0	230	101300000	1000	0	0	-1	1000
24168835	72	618	0	-100	0	230	101300000	1000	0	0	-1	1000
24181395	77	617	0	-100	0	230	101300000	1000	0	0	-1	1000
24193955	75	618	0	-100	0	230	101300000	1000	0	0	-1	1000
24206515	72	616	0	-100	0	230	101300000	1000	0	0	-1	1000
24219075	80	610	0	-100	0	230	101300000	1000	0	0	-1	1000
24231635	75	620	0	-100	0	230	101300000	1000	0	0	-1	1000
24244195	79	610	0	-100	0	230	101300000	1000	0	0	-1	1000
24256755	72	616	0	-100	0	230	101300000	1000	0	0	-1	1000
24269315	77	617	0	-100	0	230	101300000	1000	0	0	-1	1000
24281875	75	612	0	-100	0	230	101300000	1000	0	0	-1	1000
24294435	77	620	0	-100	0	230	101300000	1000	0	0	-1	1000
24306995	79	612	0	-100	0	230	101300000	1000	0	0	-1	1000
24319555	80	611	0	-100	0	230	101300000	1000	0	0	-1	1000
24332115	70	618	0	-100	0	230	101300000	1000	0	0	-1	1000
24344675	75	616	0	-100	0	230	101300000	1000	0	0	-1	1000
24357235	82	611	0	-100	0	230	101300000	1000	0	0	-1	1000
24369795	75	619	0	-100	0	230	101300000	1000	0	0	-1	1000
24382355	77	615	0	-100	0	230	101300000	1000	0	0	-1	1000
24394915	77	612	0	-100	0	230	101300000	1000	0	0	-1	1000
24407475	72	616	0	-100	0	230	101300000	1000	0	0	-1	1000
24420035	82	614	0	-100	0	230	101300000	1000	0	0	-1	1000
24432595	75	619	0	-100	0	230	101300000	1000	0	0	-1	1000
24445155	77	610	0	-100	0	230	101300000	1000	0	0	-1	1000
24457715	75	619	0	-100	0	230	101300000	1000	0	0	-1	1000
24470275	80	609	0	-100	0	230	101300000	1000	0	0	-1	1000
24482835	77	620	0	-100	0	230	101300000	1000	0	0	-1	1000
24495395	84	614	0	-100	0	230	101300000	1000	0	0	-1	1000
24507955	75	616	0	-100	0	230	101300000	1000	0	0	-1	1000
24520515	82	613	0	-100	0	230	101300000	1000	0	0	-1	1000
24533075	75	619	0	-100	0	230	101300000	1000	0	0	-1	1000
24545635	80	610	0	-100	0	230	101300000	1000	0	0	-1	1000
24558195	77	611	0	-100	0	230	101300000	1000	0	0	-1	1000
24570755	75	617	0	-100	0	230	101300000	1000	0	0	-1	1000
24583315	82	612	0	-100	0	230	101300000	1000	0	0	-1	1000
24595875	72	616	0	-100	0	230	101300000	1000	0	0	-1	1000
24608435	72	616	0	-100	0	230	101300000	1000	0	0	-1	1000
24620995	82	620	0	-100	0	230	101300000	1000	0	0	-1	1000
24633555	75	619	0	-100	0	230	101300000	1000	0	0	-1	1000
24646115	82	615	0	-100	0	230	101300000	1000	0	0	-1	1000
24658675	77	618	0	-100	0	230	101300000	1000	0	0	-1	1000
24671235	82	612	0	-100	0	230	101300000	1000	0	0	-1	1000
24683795	72	619	0	-100	0	230	101300000	1000	0	0	-1	1000
24696355	82	615	0	-100	0	230	101300000	1000	0	0	-1	1000
24708915	80	611	0	-100	0	230	101300000	1000	0	0	-1	1000
24721475	72	618	0	-100	0	230	101300000	1000	0	0	-1	1000
24734035	80	612	0	-100	0	230	101300000	1000	0	0	-1	1000
24746595	72	620	0	-100	0	230	101300000	1000	0	0	-1	1000
24759155	79	612	0	-100	0	230	101300000	1000	0	0	-1	1000
24771715	75	617	0	-100	0	230	101300000	1000	0	0	-1	1000
24784275	75	613	0	-100	0	230	101300000	1000	0	0	-1	1000
24796835	75	612	0	-100	0	230	101300000	1000	0	0	-1	1000
24809395	72	618	0	-100	0	230	101300000	1000	0	0	-1	1000
24821955	77	616	0	-100	0	230	101300000	1000	0	0	-1	1000
24834515	72	619	0	-100	0	230	101300000	1000	0	0	-1	1000
24847075	82	613	0	-100	0	230	101300000	1000	0	0	-1	1000
24859635	75	617	0	-100	0	230	101300000	1000	0	0	-1	1000
24872195	77	611	0	-100	0	230	101300000	1000	0	0	-1	1000
24884755	79	612	0	-100	0	230	101300000	1000	0	0	-1	1000
24897315	72	619	0	-100	0	230	101300000	1000	0	0	-1	1000
24909875	80	611	0	-100	0	230	101300000	1000	0	0	-1	1000
24922435	75	620	0	-100	0	230	101300000	1000	0	0	-1	1000
24934995	82	619	0	-100	0	230	101300000	1000	0	0	-1	1000
24947555	75	615	0	-100	0	230	101300000	1000	0	0	-1	1000
24960115	80	613	0	-100	0	230	101300000	1000	0	0	-1	1000
24972675	75	612	0	-100	0	230	101300000	1000	0	0	-1	1000
24985235	72	619	0	-100	0	230	101300000	1000	0	0	-1	1000
24997795	80	611	0	-100	0	230	101300000	1000	0	0	-1	1000
25010355	75	621	0	-100	0	230	101300000	1000	0	0	-1	1000
25022915	82	614	0	-100	0	230	101300000	1000	0	0	-1	1000
25035475	75	617	0	-100	0	230	101300000	1000	0	0	-1	1000
25048035	75	617	0	-100	0	230	101300000	1000	0	0	-1	1000
25060595	77	618	0	-100	0	230	101300000	1000	0	0	-1	1000
25073155	72	619	0	-100	0	230	101300000	1000	0	0	-1	1000
25085715	80	609	0	-100	0	230	101300000	1000	0	0	-1	1000
25098275	75	621	0	-100	0	230	101300000	1000	0	0	-1	1000
25110835	82	610	0	-100	0	230	101300000	1000	0	0	-1	1000
25123395	77	619	0	-100	0	230	101300000	1000	0	0	-1	1000
25135955	77	613	0	-100	0	230	101300000	1000	0	0	-1	1000
25148515	77	618	0	-100	0	230	101300000	1000	0	0	-1	1000
25161075	75	618	0	-100	0	230	101300000	1000	0	0	-1	1000
25173635	77	614	0	-100	0	230	101300000	1000	0	0	-1	1000
25186195	77	618	0	-100	0	230	101300000	1000	0	0	-1	1000
25198755	72	616	0	-100	0	230	101300000	1000	0	0	-1	1000
25211315	84	610	0	-100	0	230	101300000	1000	0	0	-1	1000
25223875	75	614	0	-100	0	230	101300000	1000	0	0	-1	1000
25236435	72	619	0	-100	0	230	101300000	1000	0	0	-1	1000
25248995	79	618	0	-100	0	230	101300000	1000	0	0	-1	1000
25261555	79	611	0	-100	0	230	101300000	1000	0	0	-1	1000
25274115	77	618	0	-100	0	230	101300000	1000	0	0	-1	1000
25286675	77	611	0	-100	0	230	101300000	1000	0	0	-1	1000
25299235	82	613	0	-100	0	230	101300000	1000	0	0	-1	1000
25311795	72	620	0	-100	0	230	101300000	1000	0	0	-1	1000
25324355	80	613	0	-100	0	230	101300000	1000	0	0	-1	1000
25336915	77	617	0	-100	0	230	101300000	1000	0	0	-1	1000
25349475	75	620	0	-100	0	230	101300000	1000	0	0	-1	1000
25362035	82	610	0	-100	0	230	101300000	1000	0	0	-1	1000
25374595	75	616	0	-100	0	230	101300000	1000	0	0	-1	1000
25387155	70	617	0	-100	0	230	101300000	1000	0	0	-1	1000
25399715	77	614	0	-100	0	230	101300000	1000	0	0	-1	1000
25412275	75	620	0	-100	0	230	101300000	1000	0	0	-1	1000
25424835	82	612	0	-100	0	230	101300000	1000	0	0	-1	1000
25437395	75	618	0	-100	0	230	101300000	1000	0	0	-1	1000
25449955	75	617	0	-100	0	230	101300000	1000	0	0	-1	1000
25462515	82	613	0	-100	0	230	101300000	1000	0	0	-1	1000
25475075	75	621	0	-100	0	230	101300000	1000	0	0	-1	1000
25487635	80	612	0	-100	0	230	101300000	1000	0	0	-1	1000
25500195	75	613	0	-100	0	230	101300000	1000	0	0	-1	1000
25512755	72	619	0	-100	0	230	101300000	1000	0	0	-1	1000
25525315	82	613	0	-100	0	230	101300000	1000	0	0	-1	1000
25537875	77	618	0	-100	0	230	101300000	1000	0	0	-1	1000
25550435	72	620	0	-100	0	230	101300000	1000	0	0	-1	1000
25562995	82	619	0	-100	0	230	101300000	1000	0	0	-1	1000
25575555	75	612	0	-100	0	230	101300000	1000	0	0	-1	1000
25588115	72	619	0	-100	0	230	101300000	1000	0	0	-1	1000
25600675	80	611	0	-100	0	230	101300000	1000	0	0	-1	1000
25613235	80	610	0	-100	0	230	101300000	1000	0	0	-1	1000
25625795	75	621	0	-100	0	230	101300000	1000	0	0	-1	1000
25638355	80	611	0	-100	0	230	101300000	1000	0	0	-1	1000
25650915	77	618	0	-100	0	230	101300000	1000	0	0	-1	1000
25663475	77	616	0	-100	0	230	101300000	1000	0	0	-1	1000
25676035	77	610	0	-100	0	230	101300000	1000	0	0	-1	1000
25688595	80	612	0	-100	0	230	101300000	1000	0	0	-1	1000
25701155	70	613	0	-100	0	230	101300000	1000	0	0	-1	1000
25713715	75	622	0	-100	0	230	101300000	1000	0	0	-1	1000
25738835	80	609	0	-100	0	230	101300000	1000	0	0	-1	1000
25751395	77	618	0	-100	0	230	101300000	1000	0	0	-1	1000
25763955	75	617	0	-100	0	230	101300000	1000	0	0	-1	1000
25776515	72	619	0	-100	0	230	101300000	1000	0	0	-1	1000
25789075	79	611	0	-100	0	230	101300000	1000	0	0	-1	1000
25801635	79	613	0	-100	0	230	101300000	1000	0	0	-1	1000
25814195	75	616	0	-100	0	230	101300000	1000	0	0	-1	1000
25826755	72	620	0	-100	0	230	101300000	1000	0	0	-1	1000
25839315	82	614	0	-100	0	230	101300000	1000	0	0	-1	1000
25851875	77	618	0	-100	0	230	101300000	1000	0	0	-1	1000
25864435	72	620	0	-100	0	230	101300000	1000	0	0	-1	1000
25876995	82	620	0	-100	0	230	101300000	1000	0	0	-1	1000
25902115	72	619	0	-100	0	230	101300000	1000	0	0	-1	1000
25914675	79	609	0	-100	0	230	101300000	1000	0	0	-1	1000
25927235	77	616	0	-100	0	230	101300000	1000	0	0	-1	1000
25939795	75	619	0	-100	0	230	101300000	1000	0	0	-1	1000
25952355	77	611	0	-100	0	230	101300000	1000	0	0	-1	1000
25964915	80	612	0	-100	0	230	101300000	1000	0	0	-1	1000
25977475	72	618	0	-100	0	230	101300000	1000	0	0	-1	1000
25990035	75	619	0	-100	0	230	101300000	1000	0	0	-1	1000
26002595	79	610	0	-100	0	230	101300000	1000	0	0	-1	1000
26015155	70	616	0	-100	0	230	101300000	1000	0	0	-1	1000
26027715	75	616	0	-100	0	230	101300000	1000	0	0	-1	1000
26040275	77	617	0	-100	0	230	101300000	1000	0	0	-1	1000
26065395	82	613	0	-100	0	230	101300000	1000	0	0	-1	1000
26077955	75	622	0	-100	0	230	101300000	1000	0	0	-1	1000
26090515	80	610	0	-100	0	230	101300000	1000	0	0	-1	1000
26103075	70	620	0	-100	0	230	101300000	1000	0	0	-1	1000
26115635	77	615	0	-100	0	230	101300000	1000	0	0	-1	1000
26128195	72	620	0	-100	0	230	101300000	1000	0	0	-1	1000
26140755	82	614	0	-100	0	230	101300000	1000	0	0	-1	1000
26153315	75	620	0	-100	0	230	101300000	1000	0	0	-1	1000
26165875	79	611	0	-100	0	230	101300000	1000	0	0	-1	1000
26178435	72	616	0	-100	0	230	101300000	1000	0	0	-1	1000
26190995	80	620	0	-100	0	230	101300000	1000	0	0	-1	1000
26216115	80	611	0	-100	0	230	101300000	1000	0	0	-1	1000
26228675	75	617	0	-100	0	230	101300000	1000	0	0	-1	1000
26241235	75	614	0	-100	0	230	101300000	1000	0	0	-1	1000
26253795	80	611	0	-100	0	230	101300000	1000	0	0	-1	1000
26266355	75	618	0	-100	0	230	101300000	1000	0	0	-1	1000
26278915	77	612	0	-100	0	230	101300000	1000	0	0	-1	1000
26291475	75	613	0	-100	0	230	101300000	1000	0	0	-1	1000
26304035	72	620	0	-100	0	230	101300000	1000	0	0	-1	1000
26316595	80	612	0	-100	0	230	101300000	1000	0	0	-1	1000
26329155	77	615	0	-100	0	230	101300000	1000	0	0	-1	1000
26341715	72	620	0	-100	0	230	101300000	1000	0	0	-1	1000
26354275	82	615	0	-100	0	230	101300000	1000	0	0	-1	1000
26366835	75	615	0	-100	0	230	101300000	1000	0	0	-1	1000
26379395	75	616	0	-100	0	230	101300000	1000	0	0	-1	1000
26391955	77	617	0	-100	0	230	101300000	1000	0	0	-1	1000
26404515	75	620	0	-100	0	230	101300000	1000	0	0	-1	1000
26417075	79	610	0	-100	0	230	101300000	1000	0	0	-1	1000
26429635	75	621	0	-100	0	230	101300000	1000	0	0	-1	1000
26442195	82	613	0	-100	0	230	101300000	1000	0	0	-1	1000
26454755	75	614	0	-100	0	230	101300000	1000	0	0	-1	1000
26467315	75	618	0	-100	0	230	101300000	1000	0	0	-1	1000
26479875	80	611	0	-100	0	230	101300000	1000	0	0	-1	1000
26492435	77	619	0	-100	0	230	101300000	1000	0	0	-1	1000
26504995	75	618	0	-100	0	230	101300000	1000	0	0	-1	1000
26517555	77	617	0	-100	0	230	101300000	1000	0	0	-1	1000
26530115	72	619	0	-100	0	230	101300000	1000	0	0	-1	1000
26542675	80	610	0	-100	0	230	101300000	1000	0	0	-1	1000
26555235	77	618	0	-100	0	230	101300000	1000	0	0	-1	1000
26567795	80	611	0	-100	0	230	101300000	1000	0	0	-1	1000
26580355	72	620	0	-100	0	230	101300000	1000	0	0	-1	1000
26592915	79	611	0	-100	0	230	101300000	1000	0	0	-1	1000
26605475	72	617	0	-100	0	230	101300000	1000	0	0	-1	1000
26618035	72	615	0	-100	0	230	101300000	1000	0	0	-1	1000
26630595	79	610	0	-100	0	230	101300000	1000	0	0	-1	1000
26643155	70	616	0	-100	0	230	101300000	1000	0	0	-1	1000
26655715	75	620	0	-100	0	230	101300000	1000	0	0	-1	1000
26668275	77	610	0	-100	0	230	101300000	1000	0	0	-1	1000
26680835	79	611	0	-100	0	230	101300000	1000	0	0	-1	1000
26693395	72	617	0	-100	0	230	101300000	1000	0	0	-1	1000
26705955	75	619	0	-100	0	230	101300000	1000	0	0	-1	1000
26718515	82	612	0	-100	0	230	101300000	1000	0	0	-1	1000
26731075	75	616	0	-100	0	230	101300000	1000	0	0	-1	1000
26743635	75	620	0	-100	0	230	101300000	1000	0	0	-1	1000
26756195	82	615	0	-100	0	230	101300000	1000	0	0	-1	1000
26768755	77	617	0	-100	0	230	101300000	1000	0	0	-1	1000
26781315	75	619	0	-100	0	230	101300000	1000	0	0	-1	1000
26793875	75	614	0	-100	0	230	101300000	1000	0	0	-1	1000
26806435	79	610	0	-100	0	230	101300000	1000	0	0	-1	1000
26818995	75	613	0	-100	0	230	101300000	1000	0	0	-1	1000
26831555	82	615	0	-100	0	230	101300000	1000	0	0	-1	1000
26844115	75	613	0	-100	0	230	101300000	1000	0	0	-1	1000
26856675	72	620	0	-100	0	230	101300000	1000	0	0	-1	1000
26869235	79	609	0	-100	0	230	101300000	1000	0	0	-1	1000
26881795	72	617	0	-100	0	230	101300000	1000	0	0	-1	1000
26894355	72	618	0	-100	0	230	101300000	1000	0	0	-1	1000
26906915	79	610	0	-100	0	230	101300000	1000	0	0	-1	1000
26919475	75	614	0	-100	0	230	101300000	1000	0	0	-1	1000
26932035	72	619	0	-100	0	230	101300000	1000	0	0	-1	1000
26944595	79	613	0	-100	0	230	101300000	1000	0	0	-1	1000
26957155	75	610	0	-100	0	230	101300000	1000	0	0	-1	1000
26969715	77	618	0	-100	0	230	101300000	1000	0	0	-1	1000
26982275	77	612	0	-100	0	230	101300000	1000	0	0	-1	1000
26994835	79	610	0	-100	0	230	101300000	1000	0	0	-1	1000
27007395	75	614	0	-100	0	230	101300000	1000	0	0	-1	1000
27019955	72	621	0	-100	0	230	101300000	1000	0	0	-1	1000
27032515	82	613	0	-100	0	230	101300000	1000	0	0	-1	1000
27045075	80	611	0	-100	0	230	101300000	1000	0	0	-1	1000
