timestamp	voltage	current	windSpeed	pitchAngle	rpm	temperature	ambientPressure	humidity	accelerationX	accelerationY	accelerationZ	currentSink
7038070	2014	0	0	-100	0	230	101300000	1000	0	0	-1	0
7045523	2008	0	0	-100	0	230	101300000	1000	0	0	-1	0
7058083	2012	0	0	-100	0	230	101300000	1000	0	0	-1	0
7070643	2004	0	0	-100	0	230	101300000	1000	0	0	-1	0
7083203	2005	0	0	-100	0	230	101300000	1000	0	0	-1	0
7095763	2007	0	0	-100	0	230	101300000	1000	0	0	-1	0
7108323	2007	0	0	-100	0	230	101300000	1000	0	0	-1	0
7120883	2008	0	0	-100	0	230	101300000	1000	0	0	-1	0
7133443	2002	1	0	-100	0	230	101300000	1000	0	0	-1	0
7146004	2007	0	0	-100	0	230	101300000	1000	0	0	-1	0
7158563	2004	3	0	-100	0	230	101300000	1000	0	0	-1	0
7171123	2013	0	0	-100	0	230	101300000	1000	0	0	-1	0
7183683	2004	0	0	-100	0	230	101300000	1000	0	0	-1	0
7196243	2012	0	0	-100	0	230	101300000	1000	0	0	-1	0
7208803	2006	0	0	-100	0	230	101300000	1000	0	0	-1	0
7221363	2011	0	0	-100	0	230	101300000	1000	0	0	-1	0
7233923	2005	3	0	-100	0	230	101300000	1000	0	0	-1	0
7246483	2008	0	0	-100	0	230	101300000	1000	0	0	-1	0
7259043	2004	0	0	-100	0	230	101300000	1000	0	0	-1	0
7271603	2008	0	0	-100	0	230	101300000	1000	0	0	-1	0
7284163	2005	3	0	-100	0	230	101300000	1000	0	0	-1	0
7296723	2009	0	0	-100	0	230	101300000	1000	0	0	-1	0
7309283	2005	2	0	-100	0	230	101300000	1000	0	0	-1	0
7321843	2009	0	0	-100	0	230	101300000	1000	0	0	-1	0
7334403	2002	2	0	-100	0	230	101300000	1000	0	0	-1	0
7346963	2009	0	0	-100	0	230	101300000	1000	0	0	-1	0
7702675	96	715	0	-100	0	230	101300000	1000	0	0	-1	1000
7715235	89	720	0	-100	0	230	101300000	1000	0	0	-1	1000
7727795	94	714	0	-100	0	230	101300000	1000	0	0	-1	1000
7740355	87	721	0	-100	0	230	101300000	1000	0	0	-1	1000
7752915	94	714	0	-100	0	230	101300000	1000	0	0	-1	1000
7765475	89	717	0	-100	0	230	101300000	1000	0	0	-1	1000
7778035	92	715	0	-100	0	230	101300000	1000	0	0	-1	1000
7790595	92	716	0	-100	0	230	101300000	1000	0	0	-1	1000
7803155	87	720	0	-100	0	230	101300000	1000	0	0	-1	1000
7815715	96	717	0	-100	0	230	101300000	1000	0	0	-1	1000
7828275	89	718	0	-100	0	230	101300000	1000	0	0	-1	1000
7840835	96	716	0	-100	0	230	101300000	1000	0	0	-1	1000
7853395	89	720	0	-100	0	230	101300000	1000	0	0	-1	1000
7865955	96	716	0	-100	0	230	101300000	1000	0	0	-1	1000
7878515	89	718	0	-100	0	230	101300000	1000	0	0	-1	1000
7891075	89	717	0	-100	0	230	101300000	1000	0	0	-1	1000
7903635	92	715	0	-100	0	230	101300000	1000	0	0	-1	1000
7916195	92	719	0	-100	0	230	101300000	1000	0	0	-1	1000
7928755	94	715	0	-100	0	230	101300000	1000	0	0	-1	1000
7941315	89	721	0	-100	0	230	101300000	1000	0	0	-1	1000
7953875	96	716	0	-100	0	230	101300000	1000	0	0	-1	1000
7966435	92	723	0	-100	0	230	101300000	1000	0	0	-1	1000
7978995	97	723	0	-100	0	230	101300000	1000	0	0	-1	1000
7991555	92	716	0	-100	0	230	101300000	1000	0	0	-1	1000
8004115	89	719	0	-100	0	230	101300000	1000	0	0	-1	1000
8016675	96	715	0	-100	0	230	101300000	1000	0	0	-1	1000
8029235	89	720	0	-100	0	230	101300000	1000	0	0	-1	1000
8041795	96	715	0	-100	0	230	101300000	1000	0	0	-1	1000
8054355	89	723	0	-100	0	230	101300000	1000	0	0	-1	1000
8066915	96	715	0	-100	0	230	101300000	1000	0	0	-1	1000
8079475	92	723	0	-100	0	230	101300000	1000	0	0	-1	1000
8092035	96	718	0	-100	0	230	101300000	1000	0	0	-1	1000
8104595	89	722	0	-100	0	230	101300000	1000	0	0	-1	1000
8117155	94	713	0	-100	0	230	101300000	1000	0	0	-1	1000
8129715	89	716	0	-100	0	230	101300000	1000	0	0	-1	1000
8142275	89	719	0	-100	0	230	101300000	1000	0	0	-1	1000
8154835	96	717	0	-100	0	230	101300000	1000	0	0	-1	1000
8167395	92	716	0	-100	0	230	101300000	1000	0	0	-1	1000
8179955	89	722	0	-100	0	230	101300000	1000	0	0	-1	1000
8192515	99	716	0	-100	0	230	101300000	1000	0	0	-1	1000
8205075	92	715	0	-100	0	230	101300000	1000	0	0	-1	1000
8217635	89	721	0	-100	0	230	101300000	1000	0	0	-1	1000
8230195	96	715	0	-100	0	230	101300000	1000	0	0	-1	1000
8242755	89	720	0	-100	0	230	101300000	1000	0	0	-1	1000
8255315	89	718	0	-100	0	230	101300000	1000	0	0	-1	1000
8267875	96	716	0	-100	0	230	101300000	1000	0	0	-1	1000
8280435	92	726	0	-100	0	230	101300000	1000	0	0	-1	1000
8292995	97	724	0	-100	0	230	101300000	1000	0	0	-1	1000
8305555	92	715	0	-100	0	230	101300000	1000	0	0	-1	1000
8318115	92	723	0	-100	0	230	101300000	1000	0	0	-1	1000
8330675	96	713	0	-100	0	230	101300000	1000	0	0	-1	1000
8343235	89	717	0	-100	0	230	101300000	1000	0	0	-1	1000
8355795	92	723	0	-100	0	230	101300000	1000	0	0	-1	1000
8368355	96	714	0	-100	0	230	101300000	1000	0	0	-1	1000
8380915	89	720	0	-100	0	230	101300000	1000	0	0	-1	1000
8393475	92	720	0	-100	0	230	101300000	1000	0	0	-1	1000
8406035	96	716	0	-100	0	230	101300000	1000	0	0	-1	1000
8418595	92	724	0	-100	0	230	101300000	1000	0	0	-1	1000
8431155	89	716	0	-100	0	230	101300000	1000	0	0	-1	1000
8443715	94	713	0	-100	0	230	101300000	1000	0	0	-1	1000
8456275	92	723	0	-100	0	230	101300000	1000	0	0	-1	1000
8468835	94	715	0	-100	0	230	101300000	1000	0	0	-1	1000
8481395	92	724	0	-100	0	230	101300000	1000	0	0	-1	1000
8493955	94	712	0	-100	0	230	101300000	1000	0	0	-1	1000
8506515	89	721	0	-100	0	230	101300000	1000	0	0	-1	1000
8519075	94	713	0	-100	0	230	101300000	1000	0	0	-1	1000
8531635	89	721	0	-100	0	230	101300000	1000	0	0	-1	1000
8544195	96	717	0	-100	0	230	101300000	1000	0	0	-1	1000
8556755	89	720	0	-100	0	230	101300000	1000	0	0	-1	1000
8569315	96	715	0	-100	0	230	101300000	1000	0	0	-1	1000
8581875	89	721	0	-100	0	230	101300000	1000	0	0	-1	1000
8594435	94	714	0	-100	0	230	101300000	1000	0	0	-1	1000
8606995	89	714	0	-100	0	230	101300000	1000	0	0	-1	1000
8619555	96	715	0	-100	0	230	101300000	1000	0	0	-1	1000
8632115	89	722	0	-100	0	230	101300000	1000	0	0	-1	1000
8644675	96	716	0	-100	0	230	101300000	1000	0	0	-1	1000
8657235	89	721	0	-100	0	230	101300000	1000	0	0	-1	1000
8669795	94	715	0	-100	0	230	101300000	1000	0	0	-1	1000
8682355	92	715	0	-100	0	230	101300000	1000	0	0	-1	1000
8694915	89	723	0	-100	0	230	101300000	1000	0	0	-1	1000
8707475	96	715	0	-100	0	230	101300000	1000	0	0	-1	1000
8720035	89	719	0	-100	0	230	101300000	1000	0	0	-1	1000
8732595	92	717	0	-100	0	230	101300000	1000	0	0	-1	1000
8745155	92	717	0	-100	0	230	101300000	1000	0	0	-1	1000
8757715	92	720	0	-100	0	230	101300000	1000	0	0	-1	1000
8770275	96	716	0	-100	0	230	101300000	1000	0	0	-1	1000
8782835	89	719	0	-100	0	230	101300000	1000	0	0	-1	1000
8795395	89	719	0	-100	0	230	101300000	1000	0	0	-1	1000
8807955	99	716	0	-100	0	230	101300000	1000	0	0	-1	1000
8820515	92	720	0	-100	0	230	101300000	1000	0	0	-1	1000
8833075	96	715	0	-100	0	230	101300000	1000	0	0	-1	1000
8845635	89	718	0	-100	0	230	101300000	1000	0	0	-1	1000
8858195	89	719	0	-100	0	230	101300000	1000	0	0	-1	1000
8870755	96	715	0	-100	0	230	101300000	1000	0	0	-1	1000
8883315	92	724	0	-100	0	230	101300000	1000	0	0	-1	1000
8895875	94	714	0	-100	0	230	101300000	1000	0	0	-1	1000
8908435	89	718	0	-100	0	230	101300000	1000	0	0	-1	1000
8920995	92	715	0	-100	0	230	101300000	1000	0	0	-1	1000
8933555	96	713	0	-100	0	230	101300000	1000	0	0	-1	1000
8946115	89	723	0	-100	0	230	101300000	1000	0	0	-1	1000
8958675	96	716	0	-100	0	230	101300000	1000	0	0	-1	1000
8971235	89	719	0	-100	0	230	101300000	1000	0	0	-1	1000
8983795	92	718	0	-100	0	230	101300000	1000	0	0	-1	1000
8996355	94	714	0	-100	0	230	101300000	1000	0	0	-1	1000
9008915	92	719	0	-100	0	230	101300000	1000	0	0	-1	1000
9021475	96	714	0	-100	0	230	101300000	1000	0	0	-1	1000
9034035	89	721	0	-100	0	230	101300000	1000	0	0	-1	1000
9046595	92	716	0	-100	0	230	101300000	1000	0	0	-1	1000
9059155	89	717	0	-100	0	230	101300000	1000	0	0	-1	1000
9071715	89	718	0	-100	0	230	101300000	1000	0	0	-1	1000
9084275	94	715	0	-100	0	230	101300000	1000	0	0	-1	1000
9096835	89	723	0	-100	0	230	101300000	1000	0	0	-1	1000
9109395	96	716	0	-100	0	230	101300000	1000	0	0	-1	1000
9121955	87	716	0	-100	0	230	101300000	1000	0	0	-1	1000
9134515	94	714	0	-100	0	230	101300000	1000	0	0	-1	1000
9147075	92	720	0	-100	0	230	101300000	1000	0	0	-1	1000
9159635	92	721	0	-100	0	230	101300000	1000	0	0	-1	1000
9172195	99	716	0	-100	0	230	101300000	1000	0	0	-1	1000
9184755	89	722	0	-100	0	230	101300000	1000	0	0	-1	1000
9197315	94	714	0	-100	0	230	101300000	1000	0	0	-1	1000
9209875	89	717	0	-100	0	230	101300000	1000	0	0	-1	1000
9222435	89	719	0	-100	0	230	101300000	1000	0	0	-1	1000
9234995	96	723	0	-100	0	230	101300000	1000	0	0	-1	1000
9247555	89	721	0	-100	0	230	101300000	1000	0	0	-1	1000
9260115	96	716	0	-100	0	230	101300000	1000	0	0	-1	1000
9272675	87	721	0	-100	0	230	101300000	1000	0	0	-1	1000
9285235	92	716	0	-100	0	230	101300000	1000	0	0	-1	1000
9297795	96	716	0	-100	0	230	101300000	1000	0	0	-1	1000
9310355	92	719	0	-100	0	230	101300000	1000	0	0	-1	1000
9322915	96	718	0	-100	0	230	101300000	1000	0	0	-1	1000
9335475	92	720	0	-100	0	230	101300000	1000	0	0	-1	1000
9348035	92	722	0	-100	0	230	101300000	1000	0	0	-1	1000
9360595	92	716	0	-100	0	230	101300000	1000	0	0	-1	1000
9373155	89	717	0	-100	0	230	101300000	1000	0	0	-1	1000
9385715	92	720	0	-100	0	230	101300000	1000	0	0	-1	1000
9398275	99	713	0	-100	0	230	101300000	1000	0	0	-1	1000
9410835	89	722	0	-100	0	230	101300000	1000	0	0	-1	1000
9423395	92	715	0	-100	0	230	101300000	1000	0	0	-1	1000
9435955	92	718	0	-100	0	230	101300000	1000	0	0	-1	1000
9448515	92	718	0	-100	0	230	101300000	1000	0	0	-1	1000
9461075	89	717	0	-100	0	230	101300000	1000	0	0	-1	1000
9473635	94	715	0	-100	0	230	101300000	1000	0	0	-1	1000
9486195	89	717	0	-100	0	230	101300000	1000	0	0	-1	1000
9498755	92	715	0	-100	0	230	101300000	1000	0	0	-1	1000
9511315	89	718	0	-100	0	230	101300000	1000	0	0	-1	1000
9523875	89	716	0	-100	0	230	101300000	1000	0	0	-1	1000
9536435	94	714	0	-100	0	230	101300000	1000	0	0	-1	1000
9548995	89	711	0	-100	0	230	101300000	1000	0	0	-1	1000
9561555	97	717	0	-100	0	230	101300000	1000	0	0	-1	1000
9574115	89	718	0	-100	0	230	101300000	1000	0	0	-1	1000
9586675	96	715	0	-100	0	230	101300000	1000	0	0	-1	1000
9599235	89	716	0	-100	0	230	101300000	1000	0	0	-1	1000
9611795	92	721	0	-100	0	230	101300000	1000	0	0	-1	1000
9624355	94	712	0	-100	0	230	101300000	1000	0	0	-1	1000
9636915	89	723	0	-100	0	230	101300000	1000	0	0	-1	1000
9649475	94	713	0	-100	0	230	101300000	1000	0	0	-1	1000
9662035	89	719	0	-100	0	230	101300000	1000	0	0	-1	1000
9674595	94	714	0	-100	0	230	101300000	1000	0	0	-1	1000
9687155	92	721	0	-100	0	230	101300000	1000	0	0	-1	1000
9699715	89	719	0	-100	0	230	101300000	1000	0	0	-1	1000
9712275	94	716	0	-100	0	230	101300000	1000	0	0	-1	1000
9724835	92	723	0	-100	0	230	101300000	1000	0	0	-1	1000
9737395	94	714	0	-100	0	230	101300000	1000	0	0	-1	1000
9749955	89	719	0	-100	0	230	101300000	1000	0	0	-1	1000
9762515	89	718	0	-100	0	230	101300000	1000	0	0	-1	1000
9775075	96	715	0	-100	0	230	101300000	1000	0	0	-1	1000
9787635	89	719	0	-100	0	230	101300000	1000	0	0	-1	1000
9800195	92	720	0	-100	0	230	101300000	1000	0	0	-1	1000
9812755	96	716	0	-100	0	230	101300000	1000	0	0	-1	1000
9825315	92	717	0	-100	0	230	101300000	1000	0	0	-1	1000
9837875	92	724	0	-100	0	230	101300000	1000	0	0	-1	1000
9850435	94	714	0	-100	0	230	101300000	1000	0	0	-1	1000
9862995	97	724	0	-100	0	230	101300000	1000	0	0	-1	1000
9875555	89	721	0	-100	0	230	101300000	1000	0	0	-1	1000
9888115	89	718	0	-100	0	230	101300000	1000	0	0	-1	1000
9900675	94	712	0	-100	0	230	101300000	1000	0	0	-1	1000
9913235	96	716	0	-100	0	230	101300000	1000	0	0	-1	1000
9925795	89	721	0	-100	0	230	101300000	1000	0	0	-1	1000
9938355	92	715	0	-100	0	230	101300000	1000	0	0	-1	1000
9950915	96	716	0	-100	0	230	101300000	1000	0	0	-1	1000
9963475	89	720	0	-100	0	230	101300000	1000	0	0	-1	1000
9976035	89	719	0	-100	0	230	101300000	1000	0	0	-1	1000
9988595	96	717	0	-100	0	230	101300000	1000	0	0	-1	1000
10001155	87	717	0	-100	0	230	101300000	1000	0	0	-1	1000
10013715	89	720	0	-100	0	230	101300000	1000	0	0	-1	1000
10026275	89	722	0	-100	0	230	101300000	1000	0	0	-1	1000
10038835	89	720	0	-100	0	230	101300000	1000	0	0	-1	1000
10051395	94	714	0	-100	0	230	101300000	1000	0	0	-1	1000
10063955	96	716	0	-100	0	230	101300000	1000	0	0	-1	1000
10076515	89	721	0	-100	0	230	101300000	1000	0	0	-1	1000
10089075	89	718	0	-100	0	230	101300000	1000	0	0	-1	1000
10101635	94	715	0	-100	0	230	101300000	1000	0	0	-1	1000
10114195	89	718	0	-100	0	230	101300000	1000	0	0	-1	1000
10126755	92	720	0	-100	0	230	101300000	1000	0	0	-1	1000
10139315	94	715	0	-100	0	230	101300000	1000	0	0	-1	1000
10151875	94	715	0	-100	0	230	101300000	1000	0	0	-1	1000
10164435	89	722	0	-100	0	230	101300000	1000	0	0	-1	1000
10176995	94	715	0	-100	0	230	101300000	1000	0	0	-1	1000
10189555	96	717	0	-100	0	230	101300000	1000	0	0	-1	1000
10202115	92	726	0	-100	0	230	101300000	1000	0	0	-1	1000
10214675	94	715	0	-100	0	230	101300000	1000	0	0	-1	1000
10227235	89	718	0	-100	0	230	101300000	1000	0	0	-1	1000
10239795	92	720	0	-100	0	230	101300000	1000	0	0	-1	1000
10252355	99	713	0	-100	0	230	101300000	1000	0	0	-1	1000
10264915	89	723	0	-100	0	230	101300000	1000	0	0	-1	1000
10277475	94	715	0	-100	0	230	101300000	1000	0	0	-1	1000
10290035	97	717	0	-100	0	230	101300000	1000	0	0	-1	1000
10302595	89	720	0	-100	0	230	101300000	1000	0	0	-1	1000
10315155	92	714	0	-100	0	230	101300000	1000	0	0	-1	1000
10327715	96	715	0	-100	0	230	101300000	1000	0	0	-1	1000
10340275	87	721	0	-100	0	230	101300000	1000	0	0	-1	1000
10352835	92	719	0	-100	0	230	101300000	1000	0	0	-1	1000
10365395	99	714	0	-100	0	230	101300000	1000	0	0	-1	1000
10377955	89	721	0	-100	0	230	101300000	1000	0	0	-1	1000
10390515	94	715	0	-100	0	230	101300000	1000	0	0	-1	1000
10403075	89	721	0	-100	0	230	101300000	1000	0	0	-1	1000
10415635	89	715	0	-100	0	230	101300000	1000	0	0	-1	1000
10428195	96	713	0	-100	0	230	101300000	1000	0	0	-1	1000
10440755	92	723	0	-100	0	230	101300000	1000	0	0	-1	1000
10453315	92	716	0	-100	0	230	101300000	1000	0	0	-1	1000
10465875	92	716	0	-100	0	230	101300000	1000	0	0	-1	1000
10478435	89	719	0	-100	0	230	101300000	1000	0	0	-1	1000
10490995	99	719	0	-100	0	230	101300000	1000	0	0	-1	1000
10503555	89	721	0	-100	0	230	101300000	1000	0	0	-1	1000
10516115	92	716	0	-100	0	230	101300000	1000	0	0	-1	1000
10528675	94	715	0	-100	0	230	101300000	1000	0	0	-1	1000
10541235	87	719	0	-100	0	230	101300000	1000	0	0	-1	1000
10553795	96	714	0	-100	0	230	101300000	1000	0	0	-1	1000
10566355	89	722	0	-100	0	230	101300000	1000	0	0	-1	1000
10578915	92	717	0	-100	0	230	101300000	1000	0	0	-1	1000
10591475	89	720	0	-100	0	230	101300000	1000	0	0	-1	1000
10604035	94	714	0	-100	0	230	101300000	1000	0	0	-1	1000
10616595	89	720	0	-100	0	230	101300000	1000	0	0	-1	1000
10629155	94	714	0	-100	0	230	101300000	1000	0	0	-1	1000
10641715	89	720	0	-100	0	230	101300000	1000	0	0	-1	1000
10654275	94	713	0	-100	0	230	101300000	1000	0	0	-1	1000
10666835	89	719	0	-100	0	230	101300000	1000	0	0	-1	1000
10679395	89	718	0	-100	0	230	101300000	1000	0	0	-1	1000
10691955	96	716	0	-100	0	230	101300000	1000	0	0	-1	1000
10704515	94	721	0	-100	0	230	101300000	1000	0	0	-1	1000
10717075	96	714	0	-100	0	230	101300000	1000	0	0	-1	1000
10729635	89	722	0	-100	0	230	101300000	1000	0	0	-1	1000
10742195	99	714	0	-100	0	230	101300000	1000	0	0	-1	1000
10754755	92	724	0	-100	0	230	101300000	1000	0	0	-1	1000
10767315	96	715	0	-100	0	230	101300000	1000	0	0	-1	1000
10779875	89	718	0	-100	0	230	101300000	1000	0	0	-1	1000
10792435	96	716	0	-100	0	230	101300000	1000	0	0	-1	1000
10804995	89	711	0	-100	0	230	101300000	1000	0	0	-1	1000
10817555	92	718	0	-100	0	230	101300000	1000	0	0	-1	1000
10830115	89	715	0	-100	0	230	101300000	1000	0	0	-1	1000
10842675	96	716	0	-100	0	230	101300000	1000	0	0	-1	1000
10855235	89	718	0	-100	0	230	101300000	1000	0	0	-1	1000
10867795	96	713	0	-100	0	230	101300000	1000	0	0	-1	1000
10880355	89	721	0	-100	0	230	101300000	1000	0	0	-1	1000
10892915	96	715	0	-100	0	230	101300000	1000	0	0	-1	1000
10905475	87	722	0	-100	0	230	101300000	1000	0	0	-1	1000
10918035	92	716	0	-100	0	230	101300000	1000	0	0	-1	1000
10930595	92	716	0	-100	0	230	101300000	1000	0	0	-1	1000
10943155	89	717	0	-100	0	230	101300000	1000	0	0	-1	1000
10955715	96	714	0	-100	0	230	101300000	1000	0	0	-1	1000
10968275	89	723	0	-100	0	230	101300000	1000	0	0	-1	1000
10980835	96	716	0	-100	0	230	101300000	1000	0	0	-1	1000
10993395	92	724	0	-100	0	230	101300000	1000	0	0	-1	1000
11005955	96	714	0	-100	0	230	101300000	1000	0	0	-1	1000
11018515	87	720	0	-100	0	230	101300000	1000	0	0	-1	1000
11031075	89	717	0	-100	0	230	101300000	1000	0	0	-1	1000
11043635	99	715	0	-100	0	230	101300000	1000	0	0	-1	1000
11056195	89	723	0	-100	0	230	101300000	1000	0	0	-1	1000
11068755	99	714	0	-100	0	230	101300000	1000	0	0	-1	1000
11081315	89	720	0	-100	0	230	101300000	1000	0	0	-1	1000
11093875	89	717	0	-100	0	230	101300000	1000	0	0	-1	1000
11106435	94	713	0	-100	0	230	101300000	1000	0	0	-1	1000
11118995	89	714	0	-100	0	230	101300000	1000	0	0	-1	1000
11131555	97	717	0	-100	0	230	101300000	1000	0	0	-1	1000
11144115	92	717	0	-100	0	230	101300000	1000	0	0	-1	1000
11156675	89	721	0	-100	0	230	101300000	1000	0	0	-1	1000
11169235	96	715	0	-100	0	230	101300000	1000	0	0	-1	1000
11181795	92	720	0	-100	0	230	101300000	1000	0	0	-1	1000
11194355	94	714	0	-100	0	230	101300000	1000	0	0	-1	1000
11206915	89	717	0	-100	0	230	101300000	1000	0	0	-1	1000
11219475	92	719	0	-100	0	230	101300000	1000	0	0	-1	1000
11232035	94	713	0	-100	0	230	101300000	1000	0	0	-1	1000
11244595	89	723	0	-100	0	230	101300000	1000	0	0	-1	1000
11257155	94	712	0	-100	0	230	101300000	1000	0	0	-1	1000
11269715	92	723	0	-100	0	230	101300000	1000	0	0	-1	1000
11282275	96	715	0	-100	0	230	101300000	1000	0	0	-1	1000
11294835	89	718	0	-100	0	230	101300000	1000	0	0	-1	1000
11307395	92	716	0	-100	0	230	101300000	1000	0	0	-1	1000
11319955	87	720	0	-100	0	230	101300000	1000	0	0	-1	1000
11332515	94	715	0	-100	0	230	101300000	1000	0	0	-1	1000
11345075	89	717	0	-100	0	230	101300000	1000	0	0	-1	1000
11357635	97	716	0	-100	0	230	101300000	1000	0	0	-1	1000
11370195	92	720	0	-100	0	230	101300000	1000	0	0	-1	1000
11382755	92	716	0	-100	0	230	101300000	1000	0	0	-1	1000
11395315	92	715	0	-100	0	230	101300000	1000	0	0	-1	1000
11407875	92	719	0	-100	0	230	101300000	1000	0	0	-1	1000
11420435	89	714	0	-100	0	230	101300000	1000	0	0	-1	1000
11432995	89	715	0	-100	0	230	101300000	1000	0	0	-1	1000
11445555	99	713	0	-100	0	230	101300000	1000	0	0	-1	1000
11458115	89	718	0	-100	0	230	101300000	1000	0	0	-1	1000
11470675	89	718	0	-100	0	230	101300000	1000	0	0	-1	1000
11483235	94	713	0	-100	0	230	101300000	1000	0	0	-1	1000
11495795	89	720	0	-100	0	230	101300000	1000	0	0	-1	1000
11508355	96	715	0	-100	0	230	101300000	1000	0	0	-1	1000
11520915	89	721	0	-100	0	230	101300000	1000	0	0	-1	1000
11533475	94	714	0	-100	0	230	101300000	1000	0	0	-1	1000
11546035	89	720	0	-100	0	230	101300000	1000	0	0	-1	1000
11558595	96	716	0	-100	0	230	101300000	1000	0	0	-1	1000
11571155	89	722	0	-100	0	230	101300000	1000	0	0	-1	1000
11583715	99	713	0	-100	0	230	101300000	1000	0	0	-1	1000
11596275	92	720	0	-100	0	230	101300000	1000	0	0	-1	1000
11608835	97	716	0	-100	0	230	101300000	1000	0	0	-1	1000
11621395	87	719	0	-100	0	230	101300000	1000	0	0	-1	1000
11633955	92	718	0	-100	0	230	101300000	1000	0	0	-1	1000
11646515	92	715	0	-100	0	230	101300000	1000	0	0	-1	1000
11659075	89	717	0	-100	0	230	101300000	1000	0	0	-1	1000
11671635	96	715	0	-100	0	230	101300000	1000	0	0	-1	1000
11684195	89	721	0	-100	0	230	101300000	1000	0	0	-1	1000
11696755	96	712	0	-100	0	230	101300000	1000	0	0	-1	1000
11709315	89	719	0	-100	0	230	101300000	1000	0	0	-1	1000
11721875	94	714	0	-100	0	230	101300000	1000	0	0	-1	1000
11734435	92	719	0	-100	0	230	101300000	1000	0	0	-1	1000
11746995	89	720	0	-100	0	230	101300000	1000	0	0	-1	1000
11759555	96	715	0	-100	0	230	101300000	1000	0	0	-1	1000
11772115	89	721	0	-100	0	230	101300000	1000	0	0	-1	1000
11784675	94	713	0	-100	0	230	101300000	1000	0	0	-1	1000
11797235	94	720	0	-100	0	230	101300000	1000	0	0	-1	1000
11809795	96	716	0	-100	0	230	101300000	1000	0	0	-1	1000
11822355	92	720	0	-100	0	230	101300000	1000	0	0	-1	1000
11834915	92	720	0	-100	0	230	101300000	1000	0	0	-1	1000
11847475	92	716	0	-100	0	230	101300000	1000	0	0	-1	1000
11860035	89	719	0	-100	0	230	101300000	1000	0	0	-1	1000
11872595	94	713	0	-100	0	230	101300000	1000	0	0	-1	1000
11885155	87	722	0	-100	0	230	101300000	1000	0	0	-1	1000
11897715	96	716	0	-100	0	230	101300000	1000	0	0	-1	1000
11910275	92	724	0	-100	0	230	101300000	1000	0	0	-1	1000
11922835	96	714	0	-100	0	230	101300000	1000	0	0	-1	1000
11935395	89	721	0	-100	0	230	101300000	1000	0	0	-1	1000
11947955	99	715	0	-100	0	230	101300000	1000	0	0	-1	1000
11960515	89	722	0	-100	0	230	101300000	1000	0	0	-1	1000
11973075	96	717	0	-100	0	230	101300000	1000	0	0	-1	1000
11985635	92	724	0	-100	0	230	101300000	1000	0	0	-1	1000
11998195	96	716	0	-100	0	230	101300000	1000	0	0	-1	1000
12010755	89	720	0	-100	0	230	101300000	1000	0	0	-1	1000
12023315	92	715	0	-100	0	230	101300000	1000	0	0	-1	1000
12035875	92	716	0	-100	0	230	101300000	1000	0	0	-1	1000
12048435	92	723	0	-100	0	230	101300000	1000	0	0	-1	1000
12060995	94	719	0	-100	0	230	101300000	1000	0	0	-1	1000
12073555	89	721	0	-100	0	230	101300000	1000	0	0	-1	1000
12086115	96	716	0	-100	0	230	101300000	1000	0	0	-1	1000
12098675	89	721	0	-100	0	230	101300000	1000	0	0	-1	1000
12111235	96	717	0	-100	0	230	101300000	1000	0	0	-1	1000
12123795	89	722	0	-100	0	230	101300000	1000	0	0	-1	1000
12136355	96	716	0	-100	0	230	101300000	1000	0	0	-1	1000
12148915	89	720	0	-100	0	230	101300000	1000	0	0	-1	1000
12161475	96	716	0	-100	0	230	101300000	1000	0	0	-1	1000
12174035	89	720	0	-100	0	230	101300000	1000	0	0	-1	1000
12186595	92	716	0	-100	0	230	101300000	1000	0	0	-1	1000
12199155	92	721	0	-100	0	230	101300000	1000	0	0	-1	1000
12211715	89	715	0	-100	0	230	101300000	1000	0	0	-1	1000
12224275	89	717	0	-100	0	230	101300000	1000	0	0	-1	1000
12236835	89	717	0	-100	0	230	101300000	1000	0	0	-1	1000
12249395	94	715	0	-100	0	230	101300000	1000	0	0	-1	1000
12261955	92	716	0	-100	0	230	101300000	1000	0	0	-1	1000
12274515	89	721	0	-100	0	230	101300000	1000	0	0	-1	1000
12287075	96	715	0	-100	0	230	101300000	1000	0	0	-1	1000
12299635	89	722	0	-100	0	230	101300000	1000	0	0	-1	1000
12312195	96	714	0	-100	0	230	101300000	1000	0	0	-1	1000
12324755	87	720	0	-100	0	230	101300000	1000	0	0	-1	1000
12337315	99	714	0	-100	0	230	101300000	1000	0	0	-1	1000
12349875	92	724	0	-100	0	230	101300000	1000	0	0	-1	1000
12362435	96	716	0	-100	0	230	101300000	1000	0	0	-1	1000
12374995	89	715	0	-100	0	230	101300000	1000	0	0	-1	1000
12387555	94	715	0	-100	0	230	101300000	1000	0	0	-1	1000
12400115	87	721	0	-100	0	230	101300000	1000	0	0	-1	1000
12412675	89	714	0	-100	0	230	101300000	1000	0	0	-1	1000
12425235	89	718	0	-100	0	230	101300000	1000	0	0	-1	1000
12437795	89	716	0	-100	0	230	101300000	1000	0	0	-1	1000
12450355	97	717	0	-100	0	230	101300000	1000	0	0	-1	1000
12462915	92	719	0	-100	0	230	101300000	1000	0	0	-1	1000
12475475	96	717	0	-100	0	230	101300000	1000	0	0	-1	1000
12488035	89	719	0	-100	0	230	101300000	1000	0	0	-1	1000
12500595	94	711	0	-100	0	230	101300000	1000	0	0	-1	1000
12513155	89	721	0	-100	0	230	101300000	1000	0	0	-1	1000
12525715	96	717	0	-100	0	230	101300000	1000	0	0	-1	1000
12538275	89	721	0	-100	0	230	101300000	1000	0	0	-1	1000
12550835	94	715	0	-100	0	230	101300000	1000	0	0	-1	1000
12563395	89	720	0	-100	0	230	101300000	1000	0	0	-1	1000
12575955	96	715	0	-100	0	230	101300000	1000	0	0	-1	1000
12588515	92	717	0	-100	0	230	101300000	1000	0	0	-1	1000
12601075	89	721	0	-100	0	230	101300000	1000	0	0	-1	1000
12613635	94	714	0	-100	0	230	101300000	1000	0	0	-1	1000
12626195	92	720	0	-100	0	230	101300000	1000	0	0	-1	1000
12638755	94	715	0	-100	0	230	101300000	1000	0	0	-1	1000
12651315	92	716	0	-100	0	230	101300000	1000	0	0	-1	1000
12663875	92	720	0	-100	0	230	101300000	1000	0	0	-1	1000
12676435	92	715	0	-100	0	230	101300000	1000	0	0	-1	1000
12688995	89	716	0	-100	0	230	101300000	1000	0	0	-1	1000
12701555	94	716	0	-100	0	230	101300000	1000	0	0	-1	1000
12714115	92	721	0	-100	0	230	101300000	1000	0	0	-1	1000
12726675	94	715	0	-100	0	230	101300000	1000	0	0	-1	1000
12739235	92	716	0	-100	0	230	101300000	1000	0	0	-1	1000
12751795	89	719	0	-100	0	230	101300000	1000	0	0	-1	1000
12764355	92	716	0	-100	0	230	101300000	1000	0	0	-1	1000
12776915	89	720	0	-100	0	230	101300000	1000	0	0	-1	1000
12789475	96	716	0	-100	0	230	101300000	1000	0	0	-1	1000
12802035	89	722	0	-100	0	230	101300000	1000	0	0	-1	1000
12814595	96	712	0	-100	0	230	101300000	1000	0	0	-1	1000
12827155	92	724	0	-100	0	230	101300000	1000	0	0	-1	1000
12839715	96	717	0	-100	0	230	101300000	1000	0	0	-1	1000
12852275	87	721	0	-100	0	230	101300000	1000	0	0	-1	1000
12864835	96	715	0	-100	0	230	101300000	1000	0	0	-1	1000
12877395	92	722	0	-100	0	230	101300000	1000	0	0	-1	1000
12889955	96	715	0	-100	0	230	101300000	1000	0	0	-1	1000
12902515	89	724	0	-100	0	230	101300000	1000	0	0	-1	1000
12915075	96	715	0	-100	0	230	101300000	1000	0	0	-1	1000
12927635	89	719	0	-100	0	230	101300000	1000	0	0	-1	1000
12940195	96	715	0	-100	0	230	101300000	1000	0	0	-1	1000
12952755	92	718	0	-100	0	230	101300000	1000	0	0	-1	1000
12965315	96	716	0	-100	0	230	101300000	1000	0	0	-1	1000
12977875	89	718	0	-100	0	230	101300000	1000	0	0	-1	1000
12990435	99	718	0	-100	0	230	101300000	1000	0	0	-1	1000
13002995	89	712	0	-100	0	230	101300000	1000	0	0	-1	1000
13015555	89	717	0	-100	0	230	101300000	1000	0	0	-1	1000
13028115	92	716	0	-100	0	230	101300000	1000	0	0	-1	1000
13040675	87	720	0	-100	0	230	101300000	1000	0	0	-1	1000
13053235	94	713	0	-100	0	230	101300000	1000	0	0	-1	1000
13065795	89	722	0	-100	0	230	101300000	1000	0	0	-1	1000
13078355	96	715	0	-100	0	230	101300000	1000	0	0	-1	1000
13090915	87	723	0	-100	0	230	101300000	1000	0	0	-1	1000
13103475	94	714	0	-100	0	230	101300000	1000	0	0	-1	1000
13116035	87	721	0	-100	0	230	101300000	1000	0	0	-1	1000
13128595	89	716	0	-100	0	230	101300000	1000	0	0	-1	1000
13141155	87	719	0	-100	0	230	101300000	1000	0	0	-1	1000
13153715	92	715	0	-100	0	230	101300000	1000	0	0	-1	1000
13166275	92	719	0	-100	0	230	101300000	1000	0	0	-1	1000
13178835	92	715	0	-100	0	230	101300000	1000	0	0	-1	1000
13191395	89	719	0	-100	0	230	101300000	1000	0	0	-1	1000
13203955	94	714	0	-100	0	230	101300000	1000	0	0	-1	1000
13216515	87	720	0	-100	0	230	101300000	1000	0	0	-1	1000
13229075	96	715	0	-100	0	230	101300000	1000	0	0	-1	1000
13241635	89	721	0	-100	0	230	101300000	1000	0	0	-1	1000
13254195	96	712	0	-100	0	230	101300000	1000	0	0	-1	1000
13266755	89	718	0	-100	0	230	101300000	1000	0	0	-1	1000
13279315	92	717	0	-100	0	230	101300000	1000	0	0	-1	1000
13291875	96	715	0	-100	0	230	101300000	1000	0	0	-1	1000
13304435	89	719	0	-100	0	230	101300000	1000	0	0	-1	1000
13316995	94	715	0	-100	0	230	101300000	1000	0	0	-1	1000
13329555	92	716	0	-100	0	230	101300000	1000	0	0	-1	1000
13342115	89	721	0	-100	0	230	101300000	1000	0	0	-1	1000
13354675	94	714	0	-100	0	230	101300000	1000	0	0	-1	1000
13367235	89	718	0	-100	0	230	101300000	1000	0	0	-1	1000
13379795	89	718	0	-100	0	230	101300000	1000	0	0	-1	1000
13392355	94	716	0	-100	0	230	101300000	1000	0	0	-1	1000
13404915	89	719	0	-100	0	230	101300000	1000	0	0	-1	1000
13417475	89	718	0	-100	0	230	101300000	1000	0	0	-1	1000
13430035	96	713	0	-100	0	230	101300000	1000	0	0	-1	1000
13442595	92	725	0	-100	0	230	101300000	1000	0	0	-1	1000
13455155	97	715	0	-100	0	230	101300000	1000	0	0	-1	1000
13467715	92	724	0	-100	0	230	101300000	1000	0	0	-1	1000
13480275	94	714	0	-100	0	230	101300000	1000	0	0	-1	1000
13492835	92	723	0	-100	0	230	101300000	1000	0	0	-1	1000
13505395	96	713	0	-100	0	230	101300000	1000	0	0	-1	1000
13517955	92	720	0	-100	0	230	101300000	1000	0	0	-1	1000
13530515	94	716	0	-100	0	230	101300000	1000	0	0	-1	1000
13543075	89	719	0	-100	0	230	101300000	1000	0	0	-1	1000
13555635	94	714	0	-100	0	230	101300000	1000	0	0	-1	1000
13568195	92	720	0	-100	0	230	101300000	1000	0	0	-1	1000
13580755	96	714	0	-100	0	230	101300000	1000	0	0	-1	1000
13593315	92	725	0	-100	0	230	101300000	1000	0	0	-1	1000
13605875	96	713	0	-100	0	230	101300000	1000	0	0	-1	1000
13618435	92	723	0	-100	0	230	101300000	1000	0	0	-1	1000
13630995	94	718	0	-100	0	230	101300000	1000	0	0	-1	1000
13643555	92	723	0	-100	0	230	101300000	1000	0	0	-1	1000
13656115	96	714	0	-100	0	230	101300000	1000	0	0	-1	1000
13668675	92	720	0	-100	0	230	101300000	1000	0	0	-1	1000
13681235	96	718	0	-100	0	230	101300000	1000	0	0	-1	1000
13693795	89	716	0	-100	0	230	101300000	1000	0	0	-1	1000
13706355	89	718	0	-100	0	230	101300000	1000	0	0	-1	1000
13718915	94	715	0	-100	0	230	101300000	1000	0	0	-1	1000
13731475	92	725	0	-100	0	230	101300000	1000	0	0	-1	1000
13744035	97	718	0	-100	0	230	101300000	1000	0	0	-1	1000
13756595	89	718	0	-100	0	230	101300000	1000	0	0	-1	1000
13769155	94	713	0	-100	0	230	101300000	1000	0	0	-1	1000
13781715	87	720	0	-100	0	230	101300000	1000	0	0	-1	1000
13794275	96	715	0	-100	0	230	101300000	1000	0	0	-1	1000
13806835	92	722	0	-100	0	230	101300000	1000	0	0	-1	1000
13819395	96	714	0	-100	0	230	101300000	1000	0	0	-1	1000
13831955	89	721	0	-100	0	230	101300000	1000	0	0	-1	1000
13844515	94	712	0	-100	0	230	101300000	1000	0	0	-1	1000
13857075	92	724	0	-100	0	230	101300000	1000	0	0	-1	1000
13869635	99	714	0	-100	0	230	101300000	1000	0	0	-1	1000
13882195	92	721	0	-100	0	230	101300000	1000	0	0	-1	1000
13894755	99	716	0	-100	0	230	101300000	1000	0	0	-1	1000
13907315	92	722	0	-100	0	230	101300000	1000	0	0	-1	1000
13919875	94	714	0	-100	0	230	101300000	1000	0	0	-1	1000
13932435	92	719	0	-100	0	230	101300000	1000	0	0	-1	1000
13944995	96	721	0	-100	0	230	101300000	1000	0	0	-1	1000
13957555	89	725	0	-100	0	230	101300000	1000	0	0	-1	1000
13970115	96	715	0	-100	0	230	101300000	1000	0	0	-1	1000
13982675	87	720	0	-100	0	230	101300000	1000	0	0	-1	1000
13995235	92	714	0	-100	0	230	101300000	1000	0	0	-1	1000
14007795	94	716	0	-100	0	230	101300000	1000	0	0	-1	1000
14020355	89	720	0	-100	0	230	101300000	1000	0	0	-1	1000
14032915	99	717	0	-100	0	230	101300000	1000	0	0	-1	1000
14045475	92	721	0	-100	0	230	101300000	1000	0	0	-1	1000
14058035	96	715	0	-100	0	230	101300000	1000	0	0	-1	1000
14070595	92	720	0	-100	0	230	101300000	1000	0	0	-1	1000
14083155	89	714	0	-100	0	230	101300000	1000	0	0	-1	1000
14095715	96	716	0	-100	0	230	101300000	1000	0	0	-1	1000
14108275	89	725	0	-100	0	230	101300000	1000	0	0	-1	1000
14120835	96	717	0	-100	0	230	101300000	1000	0	0	-1	1000
14133395	89	721	0	-100	0	230	101300000	1000	0	0	-1	1000
14145955	96	715	0	-100	0	230	101300000	1000	0	0	-1	1000
14158515	89	721	0	-100	0	230	101300000	1000	0	0	-1	1000
14171075	96	714	0	-100	0	230	101300000	1000	0	0	-1	1000
14183635	92	724	0	-100	0	230	101300000	1000	0	0	-1	1000
14196195	96	714	0	-100	0	230	101300000	1000	0	0	-1	1000
14208755	89	719	0	-100	0	230	101300000	1000	0	0	-1	1000
14221315	89	718	0	-100	0	230	101300000	1000	0	0	-1	1000
14233875	94	713	0	-100	0	230	101300000	1000	0	0	-1	1000
14246435	92	723	0	-100	0	230	101300000	1000	0	0	-1	1000
14258995	96	722	0	-100	0	230	101300000	1000	0	0	-1	1000
14271555	89	719	0	-100	0	230	101300000	1000	0	0	-1	1000
14284115	96	716	0	-100	0	230	101300000	1000	0	0	-1	1000
14296675	89	721	0	-100	0	230	101300000	1000	0	0	-1	1000
14309235	96	713	0	-100	0	230	101300000	1000	0	0	-1	1000
14321795	92	721	0	-100	0	230	101300000	1000	0	0	-1	1000
14334355	96	713	0	-100	0	230	101300000	1000	0	0	-1	1000
14346915	89	723	0	-100	0	230	101300000	1000	0	0	-1	1000
14359475	96	714	0	-100	0	230	101300000	1000	0	0	-1	1000
14372035	89	724	0	-100	0	230	101300000	1000	0	0	-1	1000
14384595	99	713	0	-100	0	230	101300000	1000	0	0	-1	1000
14397155	92	720	0	-100	0	230	101300000	1000	0	0	-1	1000
14409715	96	716	0	-100	0	230	101300000	1000	0	0	-1	1000
14422275	89	720	0	-100	0	230	101300000	1000	0	0	-1	1000
14434835	94	715	0	-100	0	230	101300000	1000	0	0	-1	1000
14447395	92	717	0	-100	0	230	101300000	1000	0	0	-1	1000
14459955	94	719	0	-100	0	230	101300000	1000	0	0	-1	1000
14472515	96	715	0	-100	0	230	101300000	1000	0	0	-1	1000
14485075	89	721	0	-100	0	230	101300000	1000	0	0	-1	1000
14497635	96	714	0	-100	0	230	101300000	1000	0	0	-1	1000
14510195	89	719	0	-100	0	230	101300000	1000	0	0	-1	1000
14522755	92	716	0	-100	0	230	101300000	1000	0	0	-1	1000
14535315	96	713	0	-100	0	230	101300000	1000	0	0	-1	1000
14547875	92	723	0	-100	0	230	101300000	1000	0	0	-1	1000
14560435	96	716	0	-100	0	230	101300000	1000	0	0	-1	1000
14572995	89	713	0	-100	0	230	101300000	1000	0	0	-1	1000
14585555	99	713	0	-100	0	230	101300000	1000	0	0	-1	1000
14598115	87	723	0	-100	0	230	101300000	1000	0	0	-1	1000
14610675	94	716	0	-100	0	230	101300000	1000	0	0	-1	1000
14623235	89	722	0	-100	0	230	101300000	1000	0	0	-1	1000
14635795	96	717	0	-100	0	230	101300000	1000	0	0	-1	1000
14648355	87	720	0	-100	0	230	101300000	1000	0	0	-1	1000
14660915	92	717	0	-100	0	230	101300000	1000	0	0	-1	1000
14673475	99	716	0	-100	0	230	101300000	1000	0	0	-1	1000
14686035	89	721	0	-100	0	230	101300000	1000	0	0	-1	1000
14698595	92	717	0	-100	0	230	101300000	1000	0	0	-1	1000
14711155	89	716	0	-100	0	230	101300000	1000	0	0	-1	1000
14723715	92	720	0	-100	0	230	101300000	1000	0	0	-1	1000
14736275	94	715	0	-100	0	230	101300000	1000	0	0	-1	1000
14748835	87	721	0	-100	0	230	101300000	1000	0	0	-1	1000
14761395	92	715	0	-100	0	230	101300000	1000	0	0	-1	1000
14773955	94	715	0	-100	0	230	101300000	1000	0	0	-1	1000
14786515	89	718	0	-100	0	230	101300000	1000	0	0	-1	1000
14799075	96	714	0	-100	0	230	101300000	1000	0	0	-1	1000
14811635	89	723	0	-100	0	230	101300000	1000	0	0	-1	1000
14824195	94	715	0	-100	0	230	101300000	1000	0	0	-1	1000
14836755	87	722	0	-100	0	230	101300000	1000	0	0	-1	1000
14849315	96	716	0	-100	0	230	101300000	1000	0	0	-1	1000
14861875	89	718	0	-100	0	230	101300000	1000	0	0	-1	1000
14874435	89	714	0	-100	0	230	101300000	1000	0	0	-1	1000
14886995	94	723	0	-100	0	230	101300000	1000	0	0	-1	1000
14899555	92	723	0	-100	0	230	101300000	1000	0	0	-1	1000
14912115	94	715	0	-100	0	230	101300000	1000	0	0	-1	1000
14924675	89	717	0	-100	0	230	101300000	1000	0	0	-1	1000
14937235	92	719	0	-100	0	230	101300000	1000	0	0	-1	1000
14949795	96	717	0	-100	0	230	101300000	1000	0	0	-1	1000
14962355	89	720	0	-100	0	230	101300000	1000	0	0	-1	1000
14974915	92	716	0	-100	0	230	101300000	1000	0	0	-1	1000
14987475	94	715	0	-100	0	230	101300000	1000	0	0	-1	1000
15000035	87	720	0	-100	0	230	101300000	1000	0	0	-1	1000
15012595	92	724	0	-100	0	230	101300000	1000	0	0	-1	1000
15025155	89	717	0	-100	0	230	101300000	1000	0	0	-1	1000
15037715	96	715	0	-100	0	230	101300000	1000	0	0	-1	1000
15050275	92	718	0	-100	0	230	101300000	1000	0	0	-1	1000
15062835	89	723	0	-100	0	230	101300000	1000	0	0	-1	1000
15075395	92	716	0	-100	0	230	101300000	1000	0	0	-1	1000
15087955	96	716	0	-100	0	230	101300000	1000	0	0	-1	1000
15100515	94	714	0	-100	0	230	101300000	1000	0	0	-1	1000
15113075	89	720	0	-100	0	230	101300000	1000	0	0	-1	1000
15125635	92	724	0	-100	0	230	101300000	1000	0	0	-1	1000
15138195	92	714	0	-100	0	230	101300000	1000	0	0	-1	1000
15150755	94	715	0	-100	0	230	101300000	1000	0	0	-1	1000
15163315	94	715	0	-100	0	230	101300000	1000	0	0	-1	1000
15175875	89	720	0	-100	0	230	101300000	1000	0	0	-1	1000
15188435	92	721	0	-100	0	230	101300000	1000	0	0	-1	1000
15200995	94	714	0	-100	0	230	101300000	1000	0	0	-1	1000
15213555	94	712	0	-100	0	230	101300000	1000	0	0	-1	1000
15226115	94	716	0	-100	0	230	101300000	1000	0	0	-1	1000
15238675	89	721	0	-100	0	230	101300000	1000	0	0	-1	1000
15251235	89	715	0	-100	0	230	101300000	1000	0	0	-1	1000
15263795	94	711	0	-100	0	230	101300000	1000	0	0	-1	1000
15276355	92	723	0	-100	0	230	101300000	1000	0	0	-1	1000
15288915	96	716	0	-100	0	230	101300000	1000	0	0	-1	1000
15301475	89	719	0	-100	0	230	101300000	1000	0	0	-1	1000
15314035	89	715	0	-100	0	230	101300000	1000	0	0	-1	1000
15326595	92	716	0	-100	0	230	101300000	1000	0	0	-1	1000
15339155	87	743	0	-100	0	230	101300000	1000	0	0	-1	1000
15351715	96	715	0	-100	0	230	101300000	1000	0	0	-1	1000
15364275	89	719	0	-100	0	230	101300000	1000	0	0	-1	1000
15376835	89	722	0	-100	0	230	101300000	1000	0	0	-1	1000
15389395	92	716	0	-100	0	230	101300000	1000	0	0	-1	1000
15401955	96	717	0	-100	0	230	101300000	1000	0	0	-1	1000
15414515	89	722	0	-100	0	230	101300000	1000	0	0	-1	1000
15427075	94	708	0	-100	0	230	101300000	1000	0	0	-1	1000
15439635	87	722	0	-100	0	230	101300000	1000	0	0	-1	1000
15452195	94	717	0	-100	0	230	101300000	1000	0	0	-1	1000
15464755	87	727	0	-100	0	230	101300000	1000	0	0	-1	1000
15477315	94	712	0	-100	0	230	101300000	1000	0	0	-1	1000
15489875	89	720	0	-100	0	230	101300000	1000	0	0	-1	1000
15502435	94	714	0	-100	0	230	101300000	1000	0	0	-1	1000
15514995	89	721	0	-100	0	230	101300000	1000	0	0	-1	1000
15527555	96	718	0	-100	0	230	101300000	1000	0	0	-1	1000
15540115	92	716	0	-100	0	230	101300000	1000	0	0	-1	1000
15552675	89	719	0	-100	0	230	101300000	1000	0	0	-1	1000
15565235	92	714	0	-100	0	230	101300000	1000	0	0	-1	1000
15577795	96	717	0	-100	0	230	101300000	1000	0	0	-1	1000
15590355	89	720	0	-100	0	230	101300000	1000	0	0	-1	1000
15602915	96	716	0	-100	0	230	101300000	1000	0	0	-1	1000
15615475	87	721	0	-100	0	230	101300000	1000	0	0	-1	1000
15628035	96	715	0	-100	0	230	101300000	1000	0	0	-1	1000
15640595	92	725	0	-100	0	230	101300000	1000	0	0	-1	1000
15653155	96	718	0	-100	0	230	101300000	1000	0	0	-1	1000
15665715	92	723	0	-100	0	230	101300000	1000	0	0	-1	1000
15678275	96	716	0	-100	0	230	101300000	1000	0	0	-1	1000
15690835	89	717	0	-100	0	230	101300000	1000	0	0	-1	1000
15703395	96	712	0	-100	0	230	101300000	1000	0	0	-1	1000
15715955	89	722	0	-100	0	230	101300000	1000	0	0	-1	1000
15728515	89	719	0	-100	0	230	101300000	1000	0	0	-1	1000
15741075	96	716	0	-100	0	230	101300000	1000	0	0	-1	1000
15753635	89	717	0	-100	0	230	101300000	1000	0	0	-1	1000
15766195	99	710	0	-100	0	230	101300000	1000	0	0	-1	1000
15778755	89	726	0	-100	0	230	101300000	1000	0	0	-1	1000
15791315	96	711	0	-100	0	230	101300000	1000	0	0	-1	1000
15803875	89	723	0	-100	0	230	101300000	1000	0	0	-1	1000
15816435	94	714	0	-100	0	230	101300000	1000	0	0	-1	1000
15828995	92	714	0	-100	0	230	101300000	1000	0	0	-1	1000
15841555	94	714	0	-100	0	230	101300000	1000	0	0	-1	1000
15854115	89	721	0	-100	0	230	101300000	1000	0	0	-1	1000
15866675	96	703	0	-100	0	230	101300000	1000	0	0	-1	1000
15879235	89	720	0	-100	0	230	101300000	1000	0	0	-1	1000
15891795	96	714	0	-100	0	230	101300000	1000	0	0	-1	1000
15904355	89	723	0	-100	0	230	101300000	1000	0	0	-1	1000
15916915	94	713	0	-100	0	230	101300000	1000	0	0	-1	1000
15929475	89	724	0	-100	0	230	101300000	1000	0	0	-1	1000
15942035	94	715	0	-100	0	230	101300000	1000	0	0	-1	1000
15954595	92	722	0	-100	0	230	101300000	1000	0	0	-1	1000
15967155	92	715	0	-100	0	230	101300000	1000	0	0	-1	1000
15979715	92	716	0	-100	0	230	101300000	1000	0	0	-1	1000
15992275	89	715	0	-100	0	230	101300000	1000	0	0	-1	1000
16004835	92	716	0	-100	0	230	101300000	1000	0	0	-1	1000
16017395	92	717	0	-100	0	230	101300000	1000	0	0	-1	1000
16029955	87	717	0	-100	0	230	101300000	1000	0	0	-1	1000
16042515	94	710	0	-100	0	230	101300000	1000	0	0	-1	1000
16055075	92	723	0	-100	0	230	101300000	1000	0	0	-1	1000
16067635	94	712	0	-100	0	230	101300000	1000	0	0	-1	1000
16080195	89	711	0	-100	0	230	101300000	1000	0	0	-1	1000
16092755	89	719	0	-100	0	230	101300000	1000	0	0	-1	1000
16105315	92	714	0	-100	0	230	101300000	1000	0	0	-1	1000
16117875	89	718	0	-100	0	230	101300000	1000	0	0	-1	1000
16130435	94	729	0	-100	0	230	101300000	1000	0	0	-1	1000
16142995	89	714	0	-100	0	230	101300000	1000	0	0	-1	1000
16155555	94	715	0	-100	0	230	101300000	1000	0	0	-1	1000
16168115	89	722	0	-100	0	230	101300000	1000	0	0	-1	1000
16180675	94	715	0	-100	0	230	101300000	1000	0	0	-1	1000
16193235	89	719	0	-100	0	230	101300000	1000	0	0	-1	1000
16205795	96	715	0	-100	0	230	101300000	1000	0	0	-1	1000
16218355	89	700	0	-100	0	230	101300000	1000	0	0	-1	1000
16230915	94	716	0	-100	0	230	101300000	1000	0	0	-1	1000
16243475	94	715	0	-100	0	230	101300000	1000	0	0	-1	1000
16256035	87	719	0	-100	0	230	101300000	1000	0	0	-1	1000
16268595	96	718	0	-100	0	230	101300000	1000	0	0	-1	1000
16281155	92	721	0	-100	0	230	101300000	1000	0	0	-1	1000
16293715	89	717	0	-100	0	230	101300000	1000	0	0	-1	1000
16306275	94	712	0	-100	0	230	101300000	1000	0	0	-1	1000
16318835	89	723	0	-100	0	230	101300000	1000	0	0	-1	1000
16331395	96	713	0	-100	0	230	101300000	1000	0	0	-1	1000
16343955	89	717	0	-100	0	230	101300000	1000	0	0	-1	1000
16356515	97	714	0	-100	0	230	101300000	1000	0	0	-1	1000
16369075	89	720	0	-100	0	230	101300000	1000	0	0	-1	1000
16381635	94	716	0	-100	0	230	101300000	1000	0	0	-1	1000
16394195	89	719	0	-100	0	230	101300000	1000	0	0	-1	1000
16406755	94	713	0	-100	0	230	101300000	1000	0	0	-1	1000
16419315	89	715	0	-100	0	230	101300000	1000	0	0	-1	1000
16431875	92	718	0	-100	0	230	101300000	1000	0	0	-1	1000
16444435	89	720	0	-100	0	230	101300000	1000	0	0	-1	1000
16456995	96	724	0	-100	0	230	101300000	1000	0	0	-1	1000
16469555	89	716	0	-100	0	230	101300000	1000	0	0	-1	1000
16482115	96	715	0	-100	0	230	101300000	1000	0	0	-1	1000
16494675	92	722	0	-100	0	230	101300000	1000	0	0	-1	1000
16507235	94	740	0	-100	0	230	101300000	1000	0	0	-1	1000
16519795	92	721	0	-100	0	230	101300000	1000	0	0	-1	1000
16532355	89	720	0	-100	0	230	101300000	1000	0	0	-1	1000
16544915	92	716	0	-100	0	230	101300000	1000	0	0	-1	1000
16557475	92	724	0	-100	0	230	101300000	1000	0	0	-1	1000
16570035	94	714	0	-100	0	230	101300000	1000	0	0	-1	1000
16582595	87	719	0	-100	0	230	101300000	1000	0	0	-1	1000
16595155	94	712	0	-100	0	230	101300000	1000	0	0	-1	1000
16607715	89	718	0	-100	0	230	101300000	1000	0	0	-1	1000
16620275	92	718	0	-100	0	230	101300000	1000	0	0	-1	1000
16632835	89	716	0	-100	0	230	101300000	1000	0	0	-1	1000
16645395	94	715	0	-100	0	230	101300000	1000	0	0	-1	1000
16657955	87	719	0	-100	0	230	101300000	1000	0	0	-1	1000
16670515	96	714	0	-100	0	230	101300000	1000	0	0	-1	1000
16683075	89	720	0	-100	0	230	101300000	1000	0	0	-1	1000
16695635	96	717	0	-100	0	230	101300000	1000	0	0	-1	1000
16708195	89	721	0	-100	0	230	101300000	1000	0	0	-1	1000
16720755	89	716	0	-100	0	230	101300000	1000	0	0	-1	1000
16733315	96	720	0	-100	0	230	101300000	1000	0	0	-1	1000
16745875	92	721	0	-100	0	230	101300000	1000	0	0	-1	1000
16758435	94	713	0	-100	0	230	101300000	1000	0	0	-1	1000
16770995	87	716	0	-100	0	230	101300000	1000	0	0	-1	1000
16783555	94	714	0	-100	0	230	101300000	1000	0	0	-1	1000
16796115	92	718	0	-100	0	230	101300000	1000	0	0	-1	1000
16808675	89	718	0	-100	0	230	101300000	1000	0	0	-1	1000
16821235	96	714	0	-100	0	230	101300000	1000	0	0	-1	1000
16833795	89	721	0	-100	0	230	101300000	1000	0	0	-1	1000
16846355	92	717	0	-100	0	230	101300000	1000	0	0	-1	1000
16858915	99	715	0	-100	0	230	101300000	1000	0	0	-1	1000
16871475	89	724	0	-100	0	230	101300000	1000	0	0	-1	1000
16884035	94	714	0	-100	0	230	101300000	1000	0	0	-1	1000
16896595	89	720	0	-100	0	230	101300000	1000	0	0	-1	1000
16909155	94	711	0	-100	0	230	101300000	1000	0	0	-1	1000
16921715	89	720	0	-100	0	230	101300000	1000	0	0	-1	1000
16934275	94	714	0	-100	0	230	101300000	1000	0	0	-1	1000
16946835	89	716	0	-100	0	230	101300000	1000	0	0	-1	1000
16959395	92	719	0	-100	0	230	101300000	1000	0	0	-1	1000
16971955	94	714	0	-100	0	230	101300000	1000	0	0	-1	1000
16984515	96	717	0	-100	0	230	101300000	1000	0	0	-1	1000
16997075	89	723	0	-100	0	230	101300000	1000	0	0	-1	1000
17009635	92	719	0	-100	0	230	101300000	1000	0	0	-1	1000
17022195	96	715	0	-100	0	230	101300000	1000	0	0	-1	1000
17034755	89	720	0	-100	0	230	101300000	1000	0	0	-1	1000
17047315	87	719	0	-100	0	230	101300000	1000	0	0	-1	1000
17059875	96	715	0	-100	0	230	101300000	1000	0	0	-1	1000
17072435	96	716	0	-100	0	230	101300000	1000	0	0	-1	1000
17084995	89	717	0	-100	0	230	101300000	1000	0	0	-1	1000
17097555	92	720	0	-100	0	230	101300000	1000	0	0	-1	1000
17110115	94	713	0	-100	0	230	101300000	1000	0	0	-1	1000
17122675	94	714	0	-100	0	230	101300000	1000	0	0	-1	1000
17135235	92	719	0	-100	0	230	101300000	1000	0	0	-1	1000
17147795	89	721	0	-100	0	230	101300000	1000	0	0	-1	1000
17160355	89	717	0	-100	0	230	101300000	1000	0	0	-1	1000
17172915	94	714	0	-100	0	230	101300000	1000	0	0	-1	1000
17185475	94	715	0	-100	0	230	101300000	1000	0	0	-1	1000
17198035	89	722	0	-100	0	230	101300000	1000	0	0	-1	1000
17210595	89	716	0	-100	0	230	101300000	1000	0	0	-1	1000
17223155	94	714	0	-100	0	230	101300000	1000	0	0	-1	1000
17235715	89	716	0	-100	0	230	101300000	1000	0	0	-1	1000
17248275	89	722	0	-100	0	230	101300000	1000	0	0	-1	1000
17260835	92	716	0	-100	0	230	101300000	1000	0	0	-1	1000
17273395	96	714	0	-100	0	230	101300000	1000	0	0	-1	1000
17285955	87	720	0	-100	0	230	101300000	1000	0	0	-1	1000
17298515	87	720	0	-100	0	230	101300000	1000	0	0	-1	1000
17311075	96	717	0	-100	0	230	101300000	1000	0	0	-1	1000
17323635	94	716	0	-100	0	230	101300000	1000	0	0	-1	1000
17336195	92	724	0	-100	0	230	101300000	1000	0	0	-1	1000
17348755	92	715	0	-100	0	230	101300000	1000	0	0	-1	1000
17361315	92	716	0	-100	0	230	101300000	1000	0	0	-1	1000
17373875	89	723	0	-100	0	230	101300000	1000	0	0	-1	1000
17386435	94	713	0	-100	0	230	101300000	1000	0	0	-1	1000
17398995	94	721	0	-100	0	230	101300000	1000	0	0	-1	1000
17411555	89	719	0	-100	0	230	101300000	1000	0	0	-1	1000
17424115	92	721	0	-100	0	230	101300000	1000	0	0	-1	1000
17436675	96	715	0	-100	0	230	101300000	1000	0	0	-1	1000
17449235	89	718	0	-100	0	230	101300000	1000	0	0	-1	1000
17461795	92	719	0	-100	0	230	101300000	1000	0	0	-1	1000
17474355	96	717	0	-100	0	230	101300000	1000	0	0	-1	1000
17486915	89	721	0	-100	0	230	101300000	1000	0	0	-1	1000
17499475	96	716	0	-100	0	230	101300000	1000	0	0	-1	1000
17512035	89	717	0	-100	0	230	101300000	1000	0	0	-1	1000
17524595	92	721	0	-100	0	230	101300000	1000	0	0	-1	1000
17537155	94	714	0	-100	0	230	101300000	1000	0	0	-1	1000
17549715	89	721	0	-100	0	230	101300000	1000	0	0	-1	1000
17562275	96	715	0	-100	0	230	101300000	1000	0	0	-1	1000
17574835	92	722	0	-100	0	230	101300000	1000	0	0	-1	1000
17587395	96	716	0	-100	0	230	101300000	1000	0	0	-1	1000
17599955	89	720	0	-100	0	230	101300000	1000	0	0	-1	1000
17612515	96	717	0	-100	0	230	101300000	1000	0	0	-1	1000
17625075	89	720	0	-100	0	230	101300000	1000	0	0	-1	1000
17637635	94	713	0	-100	0	230	101300000	1000	0	0	-1	1000
17650195	89	717	0	-100	0	230	101300000	1000	0	0	-1	1000
17662755	92	716	0	-100	0	230	101300000	1000	0	0	-1	1000
17675315	92	716	0	-100	0	230	101300000	1000	0	0	-1	1000
17687875	87	720	0	-100	0	230	101300000	1000	0	0	-1	1000
17700435	96	715	0	-100	0	230	101300000	1000	0	0	-1	1000
17712995	92	715	0	-100	0	230	101300000	1000	0	0	-1	1000
17725555	94	711	0	-100	0	230	101300000	1000	0	0	-1	1000
17738115	89	723	0	-100	0	230	101300000	1000	0	0	-1	1000
17750675	99	712	0	-100	0	230	101300000	1000	0	0	-1	1000
17763235	89	723	0	-100	0	230	101300000	1000	0	0	-1	1000
17775795	94	714	0	-100	0	230	101300000	1000	0	0	-1	1000
17788355	89	719	0	-100	0	230	101300000	1000	0	0	-1	1000
17800915	89	718	0	-100	0	230	101300000	1000	0	0	-1	1000
17813475	96	716	0	-100	0	230	101300000	1000	0	0	-1	1000
17826035	92	720	0	-100	0	230	101300000	1000	0	0	-1	1000
17838595	96	716	0	-100	0	230	101300000	1000	0	0	-1	1000
17851155	92	723	0	-100	0	230	101300000	1000	0	0	-1	1000
17863715	96	712	0	-100	0	230	101300000	1000	0	0	-1	1000
17876275	89	722	0	-100	0	230	101300000	1000	0	0	-1	1000
17888835	94	713	0	-100	0	230	101300000	1000	0	0	-1	1000
17901395	87	722	0	-100	0	230	101300000	1000	0	0	-1	1000
17913955	94	713	0	-100	0	230	101300000	1000	0	0	-1	1000
17926515	89	718	0	-100	0	230	101300000	1000	0	0	-1	1000
17939075	92	719	0	-100	0	230	101300000	1000	0	0	-1	1000
17951635	96	716	0	-100	0	230	101300000	1000	0	0	-1	1000
17964195	92	724	0	-100	0	230	101300000	1000	0	0	-1	1000
17976755	96	715	0	-100	0	230	101300000	1000	0	0	-1	1000
17989315	92	719	0	-100	0	230	101300000	1000	0	0	-1	1000
18001875	89	716	0	-100	0	230	101300000	1000	0	0	-1	1000
18014435	97	716	0	-100	0	230	101300000	1000	0	0	-1	1000
18026995	92	717	0	-100	0	230	101300000	1000	0	0	-1	1000
18039555	96	712	0	-100	0	230	101300000	1000	0	0	-1	1000
18052115	92	723	0	-100	0	230	101300000	1000	0	0	-1	1000
18064675	99	715	0	-100	0	230	101300000	1000	0	0	-1	1000
18077235	89	720	0	-100	0	230	101300000	1000	0	0	-1	1000
18089795	92	717	0	-100	0	230	101300000	1000	0	0	-1	1000
18102355	96	716	0	-100	0	230	101300000	1000	0	0	-1	1000
18114915	89	715	0	-100	0	230	101300000	1000	0	0	-1	1000
18127475	94	716	0	-100	0	230	101300000	1000	0	0	-1	1000
18140035	89	717	0	-100	0	230	101300000	1000	0	0	-1	1000
18152595	94	711	0	-100	0	230	101300000	1000	0	0	-1	1000
18165155	87	723	0	-100	0	230	101300000	1000	0	0	-1	1000
18177715	94	714	0	-100	0	230	101300000	1000	0	0	-1	1000
18190275	92	720	0	-100	0	230	101300000	1000	0	0	-1	1000
18202835	92	715	0	-100	0	230	101300000	1000	0	0	-1	1000
18215395	89	718	0	-100	0	230	101300000	1000	0	0	-1	1000
18227955	94	722	0	-100	0	230	101300000	1000	0	0	-1	1000
18240515	94	715	0	-100	0	230	101300000	1000	0	0	-1	1000
18253075	94	716	0	-100	0	230	101300000	1000	0	0	-1	1000
18265635	92	724	0	-100	0	230	101300000	1000	0	0	-1	1000
18278195	92	716	0	-100	0	230	101300000	1000	0	0	-1	1000
18290755	94	713	0	-100	0	230	101300000	1000	0	0	-1	1000
18303315	87	720	0	-100	0	230	101300000	1000	0	0	-1	1000
18315875	96	717	0	-100	0	230	101300000	1000	0	0	-1	1000
18328435	89	720	0	-100	0	230	101300000	1000	0	0	-1	1000
18340995	92	716	0	-100	0	230	101300000	1000	0	0	-1	1000
18353555	92	716	0	-100	0	230	101300000	1000	0	0	-1	1000
18366115	89	719	0	-100	0	230	101300000	1000	0	0	-1	1000
18378675	96	715	0	-100	0	230	101300000	1000	0	0	-1	1000
18391235	87	722	0	-100	0	230	101300000	1000	0	0	-1	1000
18403795	94	714	0	-100	0	230	101300000	1000	0	0	-1	1000
18416355	89	718	0	-100	0	230	101300000	1000	0	0	-1	1000
18428915	89	716	0	-100	0	230	101300000	1000	0	0	-1	1000
18441475	92	716	0	-100	0	230	101300000	1000	0	0	-1	1000
18454035	89	716	0	-100	0	230	101300000	1000	0	0	-1	1000
18466595	89	718	0	-100	0	230	101300000	1000	0	0	-1	1000
18479155	89	713	0	-100	0	230	101300000	1000	0	0	-1	1000
18491715	97	718	0	-100	0	230	101300000	1000	0	0	-1	1000
18504275	92	723	0	-100	0	230	101300000	1000	0	0	-1	1000
18516835	97	717	0	-100	0	230	101300000	1000	0	0	-1	1000
18529395	89	722	0	-100	0	230	101300000	1000	0	0	-1	1000
18541955	94	715	0	-100	0	230	101300000	1000	0	0	-1	1000
18554515	89	718	0	-100	0	230	101300000	1000	0	0	-1	1000
18567075	89	717	0	-100	0	230	101300000	1000	0	0	-1	1000
18579635	96	714	0	-100	0	230	101300000	1000	0	0	-1	1000
18592195	92	724	0	-100	0	230	101300000	1000	0	0	-1	1000
18604755	96	714	0	-100	0	230	101300000	1000	0	0	-1	1000
18617315	89	722	0	-100	0	230	101300000	1000	0	0	-1	1000
18629875	94	714	0	-100	0	230	101300000	1000	0	0	-1	1000
18642435	89	722	0	-100	0	230	101300000	1000	0	0	-1	1000
18654995	96	720	0	-100	0	230	101300000	1000	0	0	-1	1000
18667555	92	719	0	-100	0	230	101300000	1000	0	0	-1	1000
18680115	89	714	0	-100	0	230	101300000	1000	0	0	-1	1000
18692675	94	715	0	-100	0	230	101300000	1000	0	0	-1	1000
18705235	89	718	0	-100	0	230	101300000	1000	0	0	-1	1000
18717795	96	714	0	-100	0	230	101300000	1000	0	0	-1	1000
18730355	89	722	0	-100	0	230	101300000	1000	0	0	-1	1000
18742915	94	714	0	-100	0	230	101300000	1000	0	0	-1	1000
18755475	94	715	0	-100	0	230	101300000	1000	0	0	-1	1000
18768035	89	717	0	-100	0	230	101300000	1000	0	0	-1	1000
18780595	92	717	0	-100	0	230	101300000	1000	0	0	-1	1000
18793155	89	720	0	-100	0	230	101300000	1000	0	0	-1	1000
18805715	97	717	0	-100	0	230	101300000	1000	0	0	-1	1000
18818275	92	718	0	-100	0	230	101300000	1000	0	0	-1	1000
18830835	92	718	0	-100	0	230	101300000	1000	0	0	-1	1000
18843395	94	714	0	-100	0	230	101300000	1000	0	0	-1	1000
18855955	89	722	0	-100	0	230	101300000	1000	0	0	-1	1000
18868515	94	714	0	-100	0	230	101300000	1000	0	0	-1	1000
18881075	94	714	0	-100	0	230	101300000	1000	0	0	-1	1000
18893635	89	721	0	-100	0	230	101300000	1000	0	0	-1	1000
18906195	94	712	0	-100	0	230	101300000	1000	0	0	-1	1000
18918755	89	719	0	-100	0	230	101300000	1000	0	0	-1	1000
18931315	96	717	0	-100	0	230	101300000	1000	0	0	-1	1000
18943875	87	720	0	-100	0	230	101300000	1000	0	0	-1	1000
18956435	96	715	0	-100	0	230	101300000	1000	0	0	-1	1000
18968995	89	715	0	-100	0	230	101300000	1000	0	0	-1	1000
18981555	94	715	0	-100	0	230	101300000	1000	0	0	-1	1000
18994115	92	718	0	-100	0	230	101300000	1000	0	0	-1	1000
19006675	87	720	0	-100	0	230	101300000	1000	0	0	-1	1000
19019235	96	716	0	-100	0	230	101300000	1000	0	0	-1	1000
19031795	89	720	0	-100	0	230	101300000	1000	0	0	-1	1000
19044355	89	715	0	-100	0	230	101300000	1000	0	0	-1	1000
19056915	96	715	0	-100	0	230	101300000	1000	0	0	-1	1000
19069475	87	721	0	-100	0	230	101300000	1000	0	0	-1	1000
19082035	89	715	0	-100	0	230	101300000	1000	0	0	-1	1000
19094595	96	713	0	-100	0	230	101300000	1000	0	0	-1	1000
19107155	89	719	0	-100	0	230	101300000	1000	0	0	-1	1000
19119715	92	720	0	-100	0	230	101300000	1000	0	0	-1	1000
19132275	94	715	0	-100	0	230	101300000	1000	0	0	-1	1000
19144835	96	717	0	-100	0	230	101300000	1000	0	0	-1	1000
19157395	89	719	0	-100	0	230	101300000	1000	0	0	-1	1000
19169955	89	722	0	-100	0	230	101300000	1000	0	0	-1	1000
19182515	89	713	0	-100	0	230	101300000	1000	0	0	-1	1000
19195075	96	717	0	-100	0	230	101300000	1000	0	0	-1	1000
19207635	94	714	0	-100	0	230	101300000	1000	0	0	-1	1000
19220195	87	722	0	-100	0	230	101300000	1000	0	0	-1	1000
19232755	92	720	0	-100	0	230	101300000	1000	0	0	-1	1000
19245315	94	714	0	-100	0	230	101300000	1000	0	0	-1	1000
19257875	97	715	0	-100	0	230	101300000	1000	0	0	-1	1000
19270435	89	718	0	-100	0	230	101300000	1000	0	0	-1	1000
19282995	94	721	0	-100	0	230	101300000	1000	0	0	-1	1000
19295555	89	721	0	-100	0	230	101300000	1000	0	0	-1	1000
19308115	94	715	0	-100	0	230	101300000	1000	0	0	-1	1000
19320675	89	717	0	-100	0	230	101300000	1000	0	0	-1	1000
19333235	92	720	0	-100	0	230	101300000	1000	0	0	-1	1000
19345795	96	715	0	-100	0	230	101300000	1000	0	0	-1	1000
19358355	89	717	0	-100	0	230	101300000	1000	0	0	-1	1000
19370915	92	717	0	-100	0	230	101300000	1000	0	0	-1	1000
19383475	94	714	0	-100	0	230	101300000	1000	0	0	-1	1000
19396035	89	721	0	-100	0	230	101300000	1000	0	0	-1	1000
19408595	96	712	0	-100	0	230	101300000	1000	0	0	-1	1000
19421155	92	722	0	-100	0	230	101300000	1000	0	0	-1	1000
19433715	94	712	0	-100	0	230	101300000	1000	0	0	-1	1000
19446275	89	723	0	-100	0	230	101300000	1000	0	0	-1	1000
19458835	96	714	0	-100	0	230	101300000	1000	0	0	-1	1000
19471395	92	724	0	-100	0	230	101300000	1000	0	0	-1	1000
19483955	96	715	0	-100	0	230	101300000	1000	0	0	-1	1000
19496515	87	721	0	-100	0	230	101300000	1000	0	0	-1	1000
19509075	94	714	0	-100	0	230	101300000	1000	0	0	-1	1000
19521635	96	718	0	-100	0	230	101300000	1000	0	0	-1	1000
19534195	89	717	0	-100	0	230	101300000	1000	0	0	-1	1000
19546755	94	719	0	-100	0	230	101300000	1000	0	0	-1	1000
19559315	94	715	0	-100	0	230	101300000	1000	0	0	-1	1000
19571875	89	718	0	-100	0	230	101300000	1000	0	0	-1	1000
19584435	92	721	0	-100	0	230	101300000	1000	0	0	-1	1000
19596995	94	714	0	-100	0	230	101300000	1000	0	0	-1	1000
19609555	96	712	0	-100	0	230	101300000	1000	0	0	-1	1000
19622115	92	722	0	-100	0	230	101300000	1000	0	0	-1	1000
19634675	92	719	0	-100	0	230	101300000	1000	0	0	-1	1000
19647235	99	715	0	-100	0	230	101300000	1000	0	0	-1	1000
19659795	92	720	0	-100	0	230	101300000	1000	0	0	-1	1000
19672355	92	723	0	-100	0	230	101300000	1000	0	0	-1	1000
19684915	94	714	0	-100	0	230	101300000	1000	0	0	-1	1000
19697475	96	715	0	-100	0	230	101300000	1000	0	0	-1	1000
19710035	87	723	0	-100	0	230	101300000	1000	0	0	-1	1000
19722595	94	713	0	-100	0	230	101300000	1000	0	0	-1	1000
19735155	89	717	0	-100	0	230	101300000	1000	0	0	-1	1000
19747715	89	719	0	-100	0	230	101300000	1000	0	0	-1	1000
19760275	96	715	0	-100	0	230	101300000	1000	0	0	-1	1000
19772835	87	720	0	-100	0	230	101300000	1000	0	0	-1	1000
19785395	94	719	0	-100	0	230	101300000	1000	0	0	-1	1000
19797955	94	714	0	-100	0	230	101300000	1000	0	0	-1	1000
19810515	99	716	0	-100	0	230	101300000	1000	0	0	-1	1000
19823075	89	722	0	-100	0	230	101300000	1000	0	0	-1	1000
19835635	94	714	0	-100	0	230	101300000	1000	0	0	-1	1000
19848195	92	716	0	-100	0	230	101300000	1000	0	0	-1	1000
19860755	94	720	0	-100	0	230	101300000	1000	0	0	-1	1000
19873315	94	714	0	-100	0	230	101300000	1000	0	0	-1	1000
19885875	89	717	0	-100	0	230	101300000	1000	0	0	-1	1000
19898435	92	725	0	-100	0	230	101300000	1000	0	0	-1	1000
19910995	94	720	0	-100	0	230	101300000	1000	0	0	-1	1000
19923555	87	720	0	-100	0	230	101300000	1000	0	0	-1	1000
19936115	89	716	0	-100	0	230	101300000	1000	0	0	-1	1000
19948675	94	714	0	-100	0	230	101300000	1000	0	0	-1	1000
19961235	89	718	0	-100	0	230	101300000	1000	0	0	-1	1000
19973795	89	715	0	-100	0	230	101300000	1000	0	0	-1	1000
19986355	92	719	0	-100	0	230	101300000	1000	0	0	-1	1000
19998915	92	715	0	-100	0	230	101300000	1000	0	0	-1	1000
20011475	89	720	0	-100	0	230	101300000	1000	0	0	-1	1000
20024035	94	713	0	-100	0	230	101300000	1000	0	0	-1	1000
20036595	89	720	0	-100	0	230	101300000	1000	0	0	-1	1000
20049155	92	715	0	-100	0	230	101300000	1000	0	0	-1	1000
20061715	87	721	0	-100	0	230	101300000	1000	0	0	-1	1000
20074275	94	715	0	-100	0	230	101300000	1000	0	0	-1	1000
20086835	92	721	0	-100	0	230	101300000	1000	0	0	-1	1000
20099395	97	716	0	-100	0	230	101300000	1000	0	0	-1	1000
20111955	92	715	0	-100	0	230	101300000	1000	0	0	-1	1000
20124515	87	720	0	-100	0	230	101300000	1000	0	0	-1	1000
20137075	96	715	0	-100	0	230	101300000	1000	0	0	-1	1000
20149635	94	722	0	-100	0	230	101300000	1000	0	0	-1	1000
20162195	94	714	0	-100	0	230	101300000	1000	0	0	-1	1000
20174755	94	715	0	-100	0	230	101300000	1000	0	0	-1	1000
20187315	87	720	0	-100	0	230	101300000	1000	0	0	-1	1000
20199875	96	713	0	-100	0	230	101300000	1000	0	0	-1	1000
20212435	89	722	0	-100	0	230	101300000	1000	0	0	-1	1000
20224995	94	722	0	-100	0	230	101300000	1000	0	0	-1	1000
20237555	89	716	0	-100	0	230	101300000	1000	0	0	-1	1000
20250115	94	715	0	-100	0	230	101300000	1000	0	0	-1	1000
20262675	92	722	0	-100	0	230	101300000	1000	0	0	-1	1000
20275235	94	713	0	-100	0	230	101300000	1000	0	0	-1	1000
20287795	97	717	0	-100	0	230	101300000	1000	0	0	-1	1000
20300355	87	722	0	-100	0	230	101300000	1000	0	0	-1	1000
20312915	89	719	0	-100	0	230	101300000	1000	0	0	-1	1000
20325475	96	716	0	-100	0	230	101300000	1000	0	0	-1	1000
20338035	96	716	0	-100	0	230	101300000	1000	0	0	-1	1000
20350595	89	721	0	-100	0	230	101300000	1000	0	0	-1	1000
20363155	92	721	0	-100	0	230	101300000	1000	0	0	-1	1000
20375715	94	712	0	-100	0	230	101300000	1000	0	0	-1	1000
20388275	96	716	0	-100	0	230	101300000	1000	0	0	-1	1000
20400835	87	721	0	-100	0	230	101300000	1000	0	0	-1	1000
20413395	94	719	0	-100	0	230	101300000	1000	0	0	-1	1000
20425955	94	714	0	-100	0	230	101300000	1000	0	0	-1	1000
20438515	87	719	0	-100	0	230	101300000	1000	0	0	-1	1000
20451075	89	715	0	-100	0	230	101300000	1000	0	0	-1	1000
20463635	94	713	0	-100	0	230	101300000	1000	0	0	-1	1000
20476195	89	722	0	-100	0	230	101300000	1000	0	0	-1	1000
20488755	94	715	0	-100	0	230	101300000	1000	0	0	-1	1000
20501315	94	716	0	-100	0	230	101300000	1000	0	0	-1	1000
20513875	89	719	0	-100	0	230	101300000	1000	0	0	-1	1000
20526435	94	713	0	-100	0	230	101300000	1000	0	0	-1	1000
20538995	96	724	0	-100	0	230	101300000	1000	0	0	-1	1000
20551555	89	717	0	-100	0	230	101300000	1000	0	0	-1	1000
20564115	87	721	0	-100	0	230	101300000	1000	0	0	-1	1000
20576675	94	715	0	-100	0	230	101300000	1000	0	0	-1	1000
20589235	89	721	0	-100	0	230	101300000	1000	0	0	-1	1000
20601795	94	715	0	-100	0	230	101300000	1000	0	0	-1	1000
20614355	89	716	0	-100	0	230	101300000	1000	0	0	-1	1000
20626915	92	722	0	-100	0	230	101300000	1000	0	0	-1	1000
20639475	94	713	0	-100	0	230	101300000	1000	0	0	-1	1000
20652035	92	717	0	-100	0	230	101300000	1000	0	0	-1	1000
20664595	92	722	0	-100	0	230	101300000	1000	0	0	-1	1000
20677155	96	714	0	-100	0	230	101300000	1000	0	0	-1	1000
20689715	94	716	0	-100	0	230	101300000	1000	0	0	-1	1000
20702275	89	722	0	-100	0	230	101300000	1000	0	0	-1	1000
20714835	87	720	0	-100	0	230	101300000	1000	0	0	-1	1000
20727395	96	718	0	-100	0	230	101300000	1000	0	0	-1	1000
20739955	92	718	0	-100	0	230	101300000	1000	0	0	-1	1000
20752515	92	725	0	-100	0	230	101300000	1000	0	0	-1	1000
20765075	94	714	0	-100	0	230	101300000	1000	0	0	-1	1000
20777635	94	712	0	-100	0	230	101300000	1000	0	0	-1	1000
20790195	92	719	0	-100	0	230	101300000	1000	0	0	-1	1000
20802755	87	722	0	-100	0	230	101300000	1000	0	0	-1	1000
20815315	92	720	0	-100	0	230	101300000	1000	0	0	-1	1000
20827875	92	715	0	-100	0	230	101300000	1000	0	0	-1	1000
20840435	96	716	0	-100	0	230	101300000	1000	0	0	-1	1000
20852995	96	723	0	-100	0	230	101300000	1000	0	0	-1	1000
20865555	94	716	0	-100	0	230	101300000	1000	0	0	-1	1000
20878115	89	718	0	-100	0	230	101300000	1000	0	0	-1	1000
20890675	89	722	0	-100	0	230	101300000	1000	0	0	-1	1000
20903235	89	722	0	-100	0	230	101300000	1000	0	0	-1	1000
20915795	89	718	0	-100	0	230	101300000	1000	0	0	-1	1000
20928355	94	715	0	-100	0	230	101300000	1000	0	0	-1	1000
20940915	96	713	0	-100	0	230	101300000	1000	0	0	-1	1000
20953475	89	719	0	-100	0	230	101300000	1000	0	0	-1	1000
20966035	89	721	0	-100	0	230	101300000	1000	0	0	-1	1000
20978595	89	723	0	-100	0	230	101300000	1000	0	0	-1	1000
20991155	89	715	0	-100	0	230	101300000	1000	0	0	-1	1000
21003715	94	713	0	-100	0	230	101300000	1000	0	0	-1	1000
21016275	96	714	0	-100	0	230	101300000	1000	0	0	-1	1000
21028835	89	716	0	-100	0	230	101300000	1000	0	0	-1	1000
21041395	89	721	0	-100	0	230	101300000	1000	0	0	-1	1000
21053955	94	719	0	-100	0	230	101300000	1000	0	0	-1	1000
21066515	89	715	0	-100	0	230	101300000	1000	0	0	-1	1000
21079075	96	716	0	-100	0	230	101300000	1000	0	0	-1	1000
21091635	96	713	0	-100	0	230	101300000	1000	0	0	-1	1000
21104195	89	718	0	-100	0	230	101300000	1000	0	0	-1	1000
21116755	89	721	0	-100	0	230	101300000	1000	0	0	-1	1000
21129315	89	717	0	-100	0	230	101300000	1000	0	0	-1	1000
21141875	96	715	0	-100	0	230	101300000	1000	0	0	-1	1000
21154435	89	718	0	-100	0	230	101300000	1000	0	0	-1	1000
21166995	92	715	0	-100	0	230	101300000	1000	0	0	-1	1000
21179555	94	715	0	-100	0	230	101300000	1000	0	0	-1	1000
21192115	89	719	0	-100	0	230	101300000	1000	0	0	-1	1000
21204675	89	719	0	-100	0	230	101300000	1000	0	0	-1	1000
21217235	94	714	0	-100	0	230	101300000	1000	0	0	-1	1000
21229795	92	717	0	-100	0	230	101300000	1000	0	0	-1	1000
21242355	92	719	0	-100	0	230	101300000	1000	0	0	-1	1000
21254915	96	717	0	-100	0	230	101300000	1000	0	0	-1	1000
21267475	89	718	0	-100	0	230	101300000	1000	0	0	-1	1000
21280035	92	720	0	-100	0	230	101300000	1000	0	0	-1	1000
21292595	96	717	0	-100	0	230	101300000	1000	0	0	-1	1000
21305155	89	720	0	-100	0	230	101300000	1000	0	0	-1	1000
21317715	92	715	0	-100	0	230	101300000	1000	0	0	-1	1000
21330275	94	716	0	-100	0	230	101300000	1000	0	0	-1	1000
21342835	92	723	0	-100	0	230	101300000	1000	0	0	-1	1000
21355395	96	715	0	-100	0	230	101300000	1000	0	0	-1	1000
21367955	89	719	0	-100	0	230	101300000	1000	0	0	-1	1000
21380515	92	719	0	-100	0	230	101300000	1000	0	0	-1	1000
21393075	96	713	0	-100	0	230	101300000	1000	0	0	-1	1000
21405635	92	725	0	-100	0	230	101300000	1000	0	0	-1	1000
21418195	96	715	0	-100	0	230	101300000	1000	0	0	-1	1000
21430755	89	721	0	-100	0	230	101300000	1000	0	0	-1	1000
21443315	92	716	0	-100	0	230	101300000	1000	0	0	-1	1000
21455875	89	719	0	-100	0	230	101300000	1000	0	0	-1	1000
21468435	89	718	0	-100	0	230	101300000	1000	0	0	-1	1000
21480995	94	724	0	-100	0	230	101300000	1000	0	0	-1	1000
21493555	92	719	0	-100	0	230	101300000	1000	0	0	-1	1000
21506115	94	712	0	-100	0	230	101300000	1000	0	0	-1	1000
21518675	89	721	0	-100	0	230	101300000	1000	0	0	-1	1000
21531235	94	714	0	-100	0	230	101300000	1000	0	0	-1	1000
21543795	92	720	0	-100	0	230	101300000	1000	0	0	-1	1000
21556355	89	714	0	-100	0	230	101300000	1000	0	0	-1	1000
21568915	89	718	0	-100	0	230	101300000	1000	0	0	-1	1000
21581475	92	716	0	-100	0	230	101300000	1000	0	0	-1	1000
21594035	87	719	0	-100	0	230	101300000	1000	0	0	-1	1000
21606595	94	714	0	-100	0	230	101300000	1000	0	0	-1	1000
21619155	89	717	0	-100	0	230	101300000	1000	0	0	-1	1000
21631715	92	716	0	-100	0	230	101300000	1000	0	0	-1	1000
21644275	92	718	0	-100	0	230	101300000	1000	0	0	-1	1000
21656835	89	718	0	-100	0	230	101300000	1000	0	0	-1	1000
21669395	94	715	0	-100	0	230	101300000	1000	0	0	-1	1000
21681955	92	725	0	-100	0	230	101300000	1000	0	0	-1	1000
21694515	96	715	0	-100	0	230	101300000	1000	0	0	-1	1000
21707075	89	721	0	-100	0	230	101300000	1000	0	0	-1	1000
21719635	94	714	0	-100	0	230	101300000	1000	0	0	-1	1000
21732195	87	721	0	-100	0	230	101300000	1000	0	0	-1	1000
21744755	94	714	0	-100	0	230	101300000	1000	0	0	-1	1000
21757315	89	722	0	-100	0	230	101300000	1000	0	0	-1	1000
21769875	96	713	0	-100	0	230	101300000	1000	0	0	-1	1000
21782435	87	719	0	-100	0	230	101300000	1000	0	0	-1	1000
21794995	89	721	0	-100	0	230	101300000	1000	0	0	-1	1000
21807555	94	715	0	-100	0	230	101300000	1000	0	0	-1	1000
21820115	89	719	0	-100	0	230	101300000	1000	0	0	-1	1000
21832675	94	714	0	-100	0	230	101300000	1000	0	0	-1	1000
21845235	89	723	0	-100	0	230	101300000	1000	0	0	-1	1000
21857795	96	716	0	-100	0	230	101300000	1000	0	0	-1	1000
21870355	89	719	0	-100	0	230	101300000	1000	0	0	-1	1000
21882915	97	717	0	-100	0	230	101300000	1000	0	0	-1	1000
21895475	89	719	0	-100	0	230	101300000	1000	0	0	-1	1000
21908035	92	719	0	-100	0	230	101300000	1000	0	0	-1	1000
21920595	92	715	0	-100	0	230	101300000	1000	0	0	-1	1000
21933155	89	719	0	-100	0	230	101300000	1000	0	0	-1	1000
21945715	92	718	0	-100	0	230	101300000	1000	0	0	-1	1000
21958275	92	718	0	-100	0	230	101300000	1000	0	0	-1	1000
21970835	89	714	0	-100	0	230	101300000	1000	0	0	-1	1000
21983395	89	719	0	-100	0	230	101300000	1000	0	0	-1	1000
21995955	92	715	0	-100	0	230	101300000	1000	0	0	-1	1000
22008515	92	719	0	-100	0	230	101300000	1000	0	0	-1	1000
22021075	92	716	0	-100	0	230	101300000	1000	0	0	-1	1000
22033635	94	716	0	-100	0	230	101300000	1000	0	0	-1	1000
22046195	89	719	0	-100	0	230	101300000	1000	0	0	-1	1000
22058755	96	713	0	-100	0	230	101300000	1000	0	0	-1	1000
22071315	92	720	0	-100	0	230	101300000	1000	0	0	-1	1000
22083875	96	717	0	-100	0	230	101300000	1000	0	0	-1	1000
22096435	89	718	0	-100	0	230	101300000	1000	0	0	-1	1000
22108995	96	722	0	-100	0	230	101300000	1000	0	0	-1	1000
22121555	92	720	0	-100	0	230	101300000	1000	0	0	-1	1000
22134115	96	714	0	-100	0	230	101300000	1000	0	0	-1	1000
22146675	89	721	0	-100	0	230	101300000	1000	0	0	-1	1000
22159235	96	717	0	-100	0	230	101300000	1000	0	0	-1	1000
22171795	87	722	0	-100	0	230	101300000	1000	0	0	-1	1000
22184355	92	715	0	-100	0	230	101300000	1000	0	0	-1	1000
22196915	97	717	0	-100	0	230	101300000	1000	0	0	-1	1000
22209475	89	722	0	-100	0	230	101300000	1000	0	0	-1	1000
22222035	96	712	0	-100	0	230	101300000	1000	0	0	-1	1000
22234595	87	722	0	-100	0	230	101300000	1000	0	0	-1	1000
22247155	92	715	0	-100	0	230	101300000	1000	0	0	-1	1000
22259715	92	719	0	-100	0	230	101300000	1000	0	0	-1	1000
22272275	89	717	0	-100	0	230	101300000	1000	0	0	-1	1000
22284835	99	717	0	-100	0	230	101300000	1000	0	0	-1	1000
22297395	92	722	0	-100	0	230	101300000	1000	0	0	-1	1000
22309955	94	714	0	-100	0	230	101300000	1000	0	0	-1	1000
22322515	89	720	0	-100	0	230	101300000	1000	0	0	-1	1000
22335075	92	716	0	-100	0	230	101300000	1000	0	0	-1	1000
22347635	94	714	0	-100	0	230	101300000	1000	0	0	-1	1000
22360195	89	716	0	-100	0	230	101300000	1000	0	0	-1	1000
22372755	89	717	0	-100	0	230	101300000	1000	0	0	-1	1000
22385315	89	716	0	-100	0	230	101300000	1000	0	0	-1	1000
22397875	96	717	0	-100	0	230	101300000	1000	0	0	-1	1000
22410435	89	721	0	-100	0	230	101300000	1000	0	0	-1	1000
22422995	92	718	0	-100	0	230	101300000	1000	0	0	-1	1000
22435555	96	714	0	-100	0	230	101300000	1000	0	0	-1	1000
22448115	89	721	0	-100	0	230	101300000	1000	0	0	-1	1000
22460675	89	724	0	-100	0	230	101300000	1000	0	0	-1	1000
22473235	94	714	0	-100	0	230	101300000	1000	0	0	-1	1000
22485795	96	716	0	-100	0	230	101300000	1000	0	0	-1	1000
22498355	92	719	0	-100	0	230	101300000	1000	0	0	-1	1000
22510915	89	720	0	-100	0	230	101300000	1000	0	0	-1	1000
22523475	89	716	0	-100	0	230	101300000	1000	0	0	-1	1000
22536035	96	715	0	-100	0	230	101300000	1000	0	0	-1	1000
22548595	89	719	0	-100	0	230	101300000	1000	0	0	-1	1000
22561155	89	717	0	-100	0	230	101300000	1000	0	0	-1	1000
22573715	89	715	0	-100	0	230	101300000	1000	0	0	-1	1000
22586275	96	716	0	-100	0	230	101300000	1000	0	0	-1	1000
22598835	96	715	0	-100	0	230	101300000	1000	0	0	-1	1000
22611395	92	717	0	-100	0	230	101300000	1000	0	0	-1	1000
22623955	89	724	0	-100	0	230	101300000	1000	0	0	-1	1000
22636515	89	716	0	-100	0	230	101300000	1000	0	0	-1	1000
22649075	96	718	0	-100	0	230	101300000	1000	0	0	-1	1000
22661635	96	715	0	-100	0	230	101300000	1000	0	0	-1	1000
22674195	89	719	0	-100	0	230	101300000	1000	0	0	-1	1000
22686755	92	721	0	-100	0	230	101300000	1000	0	0	-1	1000
22699315	89	722	0	-100	0	230	101300000	1000	0	0	-1	1000
22711875	89	722	0	-100	0	230	101300000	1000	0	0	-1	1000
22724435	89	717	0	-100	0	230	101300000	1000	0	0	-1	1000
22736995	96	718	0	-100	0	230	101300000	1000	0	0	-1	1000
22749555	92	716	0	-100	0	230	101300000	1000	0	0	-1	1000
22762115	89	720	0	-100	0	230	101300000	1000	0	0	-1	1000
22774675	89	717	0	-100	0	230	101300000	1000	0	0	-1	1000
22787235	96	715	0	-100	0	230	101300000	1000	0	0	-1	1000
22799795	96	716	0	-100	0	230	101300000	1000	0	0	-1	1000
22812355	89	719	0	-100	0	230	101300000	1000	0	0	-1	1000
22824915	89	720	0	-100	0	230	101300000	1000	0	0	-1	1000
22837475	89	718	0	-100	0	230	101300000	1000	0	0	-1	1000
22850035	96	717	0	-100	0	230	101300000	1000	0	0	-1	1000
22862595	92	717	0	-100	0	230	101300000	1000	0	0	-1	1000
22875155	89	720	0	-100	0	230	101300000	1000	0	0	-1	1000
22887715	92	717	0	-100	0	230	101300000	1000	0	0	-1	1000
22900275	96	716	0	-100	0	230	101300000	1000	0	0	-1	1000
22912835	89	723	0	-100	0	230	101300000	1000	0	0	-1	1000
22925395	92	715	0	-100	0	230	101300000	1000	0	0	-1	1000
22937955	97	716	0	-100	0	230	101300000	1000	0	0	-1	1000
22950515	92	723	0	-100	0	230	101300000	1000	0	0	-1	1000
22963075	92	715	0	-100	0	230	101300000	1000	0	0	-1	1000
22975635	94	711	0	-100	0	230	101300000	1000	0	0	-1	1000
22988195	89	718	0	-100	0	230	101300000	1000	0	0	-1	1000
23000755	92	723	0	-100	0	230	101300000	1000	0	0	-1	1000
23013315	94	715	0	-100	0	230	101300000	1000	0	0	-1	1000
23025875	96	717	0	-100	0	230	101300000	1000	0	0	-1	1000
23038435	92	719	0	-100	0	230	101300000	1000	0	0	-1	1000
23050995	89	713	0	-100	0	230	101300000	1000	0	0	-1	1000
23063555	92	718	0	-100	0	230	101300000	1000	0	0	-1	1000
23076115	92	718	0	-100	0	230	101300000	1000	0	0	-1	1000
23088675	94	713	0	-100	0	230	101300000	1000	0	0	-1	1000
23101235	94	714	0	-100	0	230	101300000	1000	0	0	-1	1000
23113795	96	716	0	-100	0	230	101300000	1000	0	0	-1	1000
23126355	92	715	0	-100	0	230	101300000	1000	0	0	-1	1000
23138915	87	720	0	-100	0	230	101300000	1000	0	0	-1	1000
23151475	89	720	0	-100	0	230	101300000	1000	0	0	-1	1000
23164035	89	723	0	-100	0	230	101300000	1000	0	0	-1	1000
23176595	92	719	0	-100	0	230	101300000	1000	0	0	-1	1000
23189155	89	713	0	-100	0	230	101300000	1000	0	0	-1	1000
23201715	94	714	0	-100	0	230	101300000	1000	0	0	-1	1000
23214275	96	716	0	-100	0	230	101300000	1000	0	0	-1	1000
23226835	96	714	0	-100	0	230	101300000	1000	0	0	-1	1000
23239395	94	716	0	-100	0	230	101300000	1000	0	0	-1	1000
23251955	89	717	0	-100	0	230	101300000	1000	0	0	-1	1000
23264515	89	718	0	-100	0	230	101300000	1000	0	0	-1	1000
23277075	89	722	0	-100	0	230	101300000	1000	0	0	-1	1000
23289635	92	720	0	-100	0	230	101300000	1000	0	0	-1	1000
23302195	92	714	0	-100	0	230	101300000	1000	0	0	-1	1000
23314755	94	714	0	-100	0	230	101300000	1000	0	0	-1	1000
23327315	96	717	0	-100	0	230	101300000	1000	0	0	-1	1000
23339875	96	715	0	-100	0	230	101300000	1000	0	0	-1	1000
23352435	92	716	0	-100	0	230	101300000	1000	0	0	-1	1000
23364995	92	721	0	-100	0	230	101300000	1000	0	0	-1	1000
23377555	89	718	0	-100	0	230	101300000	1000	0	0	-1	1000
23390115	89	721	0	-100	0	230	101300000	1000	0	0	-1	1000
23402675	89	722	0	-100	0	230	101300000	1000	0	0	-1	1000
23415235	89	721	0	-100	0	230	101300000	1000	0	0	-1	1000
23427795	87	719	0	-100	0	230	101300000	1000	0	0	-1	1000
23440355	92	715	0	-100	0	230	101300000	1000	0	0	-1	1000
23452915	94	715	0	-100	0	230	101300000	1000	0	0	-1	1000
23465475	96	715	0	-100	0	230	101300000	1000	0	0	-1	1000
23478035	89	718	0	-100	0	230	101300000	1000	0	0	-1	1000
23490595	87	721	0	-100	0	230	101300000	1000	0	0	-1	1000
23503155	89	722	0	-100	0	230	101300000	1000	0	0	-1	1000
23515715	89	717	0	-100	0	230	101300000	1000	0	0	-1	1000
23528275	87	721	0	-100	0	230	101300000	1000	0	0	-1	1000
23540835	87	719	0	-100	0	230	101300000	1000	0	0	-1	1000
23553395	92	717	0	-100	0	230	101300000	1000	0	0	-1	1000
23565955	92	715	0	-100	0	230	101300000	1000	0	0	-1	1000
23578515	96	715	0	-100	0	230	101300000	1000	0	0	-1	1000
23591075	96	714	0	-100	0	230	101300000	1000	0	0	-1	1000
23603635	96	717	0	-100	0	230	101300000	1000	0	0	-1	1000
23616195	97	717	0	-100	0	230	101300000	1000	0	0	-1	1000
23628755	94	715	0	-100	0	230	101300000	1000	0	0	-1	1000
23641315	92	715	0	-100	0	230	101300000	1000	0	0	-1	1000
23653875	92	717	0	-100	0	230	101300000	1000	0	0	-1	1000
23666435	89	717	0	-100	0	230	101300000	1000	0	0	-1	1000
23678995	89	719	0	-100	0	230	101300000	1000	0	0	-1	1000
23691555	89	721	0	-100	0	230	101300000	1000	0	0	-1	1000
23704115	89	721	0	-100	0	230	101300000	1000	0	0	-1	1000
23716675	87	721	0	-100	0	230	101300000	1000	0	0	-1	1000
23729235	89	720	0	-100	0	230	101300000	1000	0	0	-1	1000
23741795	89	722	0	-100	0	230	101300000	1000	0	0	-1	1000
23754355	89	722	0	-100	0	230	101300000	1000	0	0	-1	1000
23766915	92	725	0	-100	0	230	101300000	1000	0	0	-1	1000
23779475	89	718	0	-100	0	230	101300000	1000	0	0	-1	1000
23792035	89	720	0	-100	0	230	101300000	1000	0	0	-1	1000
23804595	89	718	0	-100	0	230	101300000	1000	0	0	-1	1000
23817155	89	715	0	-100	0	230	101300000	1000	0	0	-1	1000
23829715	89	715	0	-100	0	230	101300000	1000	0	0	-1	1000
23842275	92	715	0	-100	0	230	101300000	1000	0	0	-1	1000
23854835	96	714	0	-100	0	230	101300000	1000	0	0	-1	1000
23867395	96	716	0	-100	0	230	101300000	1000	0	0	-1	1000
23879955	96	713	0	-100	0	230	101300000	1000	0	0	-1	1000
23892515	92	716	0	-100	0	230	101300000	1000	0	0	-1	1000
23905075	92	716	0	-100	0	230	101300000	1000	0	0	-1	1000
23917635	89	719	0	-100	0	230	101300000	1000	0	0	-1	1000
23930195	87	719	0	-100	0	230	101300000	1000	0	0	-1	1000
23942755	92	719	0	-100	0	230	101300000	1000	0	0	-1	1000
23955315	92	719	0	-100	0	230	101300000	1000	0	0	-1	1000
23967875	94	715	0	-100	0	230	101300000	1000	0	0	-1	1000
23980435	96	716	0	-100	0	230	101300000	1000	0	0	-1	1000
23992995	99	723	0	-100	0	230	101300000	1000	0	0	-1	1000
24005555	94	715	0	-100	0	230	101300000	1000	0	0	-1	1000
24018115	92	717	0	-100	0	230	101300000	1000	0	0	-1	1000
24030675	92	719	0	-100	0	230	101300000	1000	0	0	-1	1000
24043235	89	719	0	-100	0	230	101300000	1000	0	0	-1	1000
24055795	89	719	0	-100	0	230	101300000	1000	0	0	-1	1000
24068355	89	718	0	-100	0	230	101300000	1000	0	0	-1	1000
24080915	87	721	0	-100	0	230	101300000	1000	0	0	-1	1000
24093475	89	721	0	-100	0	230	101300000	1000	0	0	-1	1000
24106035	89	722	0	-100	0	230	101300000	1000	0	0	-1	1000
24118595	92	721	0	-100	0	230	101300000	1000	0	0	-1	1000
24131155	89	719	0	-100	0	230	101300000	1000	0	0	-1	1000
24143715	89	719	0	-100	0	230	101300000	1000	0	0	-1	1000
24156275	89	714	0	-100	0	230	101300000	1000	0	0	-1	1000
24168835	92	715	0	-100	0	230	101300000	1000	0	0	-1	1000
24181395	92	716	0	-100	0	230	101300000	1000	0	0	-1	1000
24193955	92	716	0	-100	0	230	101300000	1000	0	0	-1	1000
24206515	89	713	0	-100	0	230	101300000	1000	0	0	-1	1000
24219075	92	715	0	-100	0	230	101300000	1000	0	0	-1	1000
24231635	94	714	0	-100	0	230	101300000	1000	0	0	-1	1000
24244195	94	713	0	-100	0	230	101300000	1000	0	0	-1	1000
24256755	92	716	0	-100	0	230	101300000	1000	0	0	-1	1000
24269315	94	715	0	-100	0	230	101300000	1000	0	0	-1	1000
24281875	96	715	0	-100	0	230	101300000	1000	0	0	-1	1000
24294435	94	715	0	-100	0	230	101300000	1000	0	0	-1	1000
24306995	97	721	0	-100	0	230	101300000	1000	0	0	-1	1000
24319555	94	713	0	-100	0	230	101300000	1000	0	0	-1	1000
24332115	97	716	0	-100	0	230	101300000	1000	0	0	-1	1000
24344675	92	716	0	-100	0	230	101300000	1000	0	0	-1	1000
24357235	89	719	0	-100	0	230	101300000	1000	0	0	-1	1000
24369795	89	722	0	-100	0	230	101300000	1000	0	0	-1	1000
24382355	87	720	0	-100	0	230	101300000	1000	0	0	-1	1000
24394915	96	716	0	-100	0	230	101300000	1000	0	0	-1	1000
24407475	96	716	0	-100	0	230	101300000	1000	0	0	-1	1000
24420035	89	718	0	-100	0	230	101300000	1000	0	0	-1	1000
24432595	89	722	0	-100	0	230	101300000	1000	0	0	-1	1000
24445155	87	720	0	-100	0	230	101300000	1000	0	0	-1	1000
24457715	96	716	0	-100	0	230	101300000	1000	0	0	-1	1000
24470275	99	713	0	-100	0	230	101300000	1000	0	0	-1	1000
24482835	99	714	0	-100	0	230	101300000	1000	0	0	-1	1000
24495395	89	718	0	-100	0	230	101300000	1000	0	0	-1	1000
24507955	87	722	0	-100	0	230	101300000	1000	0	0	-1	1000
24520515	92	724	0	-100	0	230	101300000	1000	0	0	-1	1000
24533075	92	721	0	-100	0	230	101300000	1000	0	0	-1	1000
24545635	89	720	0	-100	0	230	101300000	1000	0	0	-1	1000
24558195	89	716	0	-100	0	230	101300000	1000	0	0	-1	1000
24570755	92	716	0	-100	0	230	101300000	1000	0	0	-1	1000
24583315	92	715	0	-100	0	230	101300000	1000	0	0	-1	1000
24595875	96	717	0	-100	0	230	101300000	1000	0	0	-1	1000
24608435	94	715	0	-100	0	230	101300000	1000	0	0	-1	1000
24620995	89	719	0	-100	0	230	101300000	1000	0	0	-1	1000
24633555	89	721	0	-100	0	230	101300000	1000	0	0	-1	1000
24646115	92	723	0	-100	0	230	101300000	1000	0	0	-1	1000
24658675	89	716	0	-100	0	230	101300000	1000	0	0	-1	1000
24671235	92	716	0	-100	0	230	101300000	1000	0	0	-1	1000
24683795	96	715	0	-100	0	230	101300000	1000	0	0	-1	1000
24696355	89	719	0	-100	0	230	101300000	1000	0	0	-1	1000
24708915	89	721	0	-100	0	230	101300000	1000	0	0	-1	1000
24721475	92	721	0	-100	0	230	101300000	1000	0	0	-1	1000
24734035	92	715	0	-100	0	230	101300000	1000	0	0	-1	1000
24746595	94	712	0	-100	0	230	101300000	1000	0	0	-1	1000
24759155	87	721	0	-100	0	230	101300000	1000	0	0	-1	1000
24771715	89	715	0	-100	0	230	101300000	1000	0	0	-1	1000
24784275	96	714	0	-100	0	230	101300000	1000	0	0	-1	1000
24796835	89	718	0	-100	0	230	101300000	1000	0	0	-1	1000
24809395	89	721	0	-100	0	230	101300000	1000	0	0	-1	1000
24821955	92	719	0	-100	0	230	101300000	1000	0	0	-1	1000
24834515	92	719	0	-100	0	230	101300000	1000	0	0	-1	1000
24847075	94	713	0	-100	0	230	101300000	1000	0	0	-1	1000
24859635	94	713	0	-100	0	230	101300000	1000	0	0	-1	1000
24872195	92	720	0	-100	0	230	101300000	1000	0	0	-1	1000
24884755	89	721	0	-100	0	230	101300000	1000	0	0	-1	1000
24897315	89	719	0	-100	0	230	101300000	1000	0	0	-1	1000
24909875	94	714	0	-100	0	230	101300000	1000	0	0	-1	1000
24922435	96	716	0	-100	0	230	101300000	1000	0	0	-1	1000
24934995	96	724	0	-100	0	230	101300000	1000	0	0	-1	1000
24947555	89	720	0	-100	0	230	101300000	1000	0	0	-1	1000
24960115	92	721	0	-100	0	230	101300000	1000	0	0	-1	1000
24972675	96	714	0	-100	0	230	101300000	1000	0	0	-1	1000
24985235	92	716	0	-100	0	230	101300000	1000	0	0	-1	1000
24997795	89	716	0	-100	0	230	101300000	1000	0	0	-1	1000
25010355	89	720	0	-100	0	230	101300000	1000	0	0	-1	1000
25022915	96	713	0	-100	0	230	101300000	1000	0	0	-1	1000
25035475	89	719	0	-100	0	230	101300000	1000	0	0	-1	1000
25048035	89	716	0	-100	0	230	101300000	1000	0	0	-1	1000
25060595	94	715	0	-100	0	230	101300000	1000	0	0	-1	1000
25073155	87	722	0	-100	0	230	101300000	1000	0	0	-1	1000
25085715	96	712	0	-100	0	230	101300000	1000	0	0	-1	1000
25098275	92	720	0	-100	0	230	101300000	1000	0	0	-1	1000
25110835	96	716	0	-100	0	230	101300000	1000	0	0	-1	1000
25123395	89	715	0	-100	0	230	101300000	1000	0	0	-1	1000
25135955	87	720	0	-100	0	230	101300000	1000	0	0	-1	1000
25148515	96	715	0	-100	0	230	101300000	1000	0	0	-1	1000
25161075	92	725	0	-100	0	230	101300000	1000	0	0	-1	1000
25173635	99	715	0	-100	0	230	101300000	1000	0	0	-1	1000
25186195	89	716	0	-100	0	230	101300000	1000	0	0	-1	1000
25198755	89	720	0	-100	0	230	101300000	1000	0	0	-1	1000
25211315	94	713	0	-100	0	230	101300000	1000	0	0	-1	1000
25223875	89	720	0	-100	0	230	101300000	1000	0	0	-1	1000
25236435	96	716	0	-100	0	230	101300000	1000	0	0	-1	1000
25248995	89	714	0	-100	0	230	101300000	1000	0	0	-1	1000
25261555	96	716	0	-100	0	230	101300000	1000	0	0	-1	1000
25274115	89	723	0	-100	0	230	101300000	1000	0	0	-1	1000
25286675	96	717	0	-100	0	230	101300000	1000	0	0	-1	1000
25299235	87	722	0	-100	0	230	101300000	1000	0	0	-1	1000
25311795	92	716	0	-100	0	230	101300000	1000	0	0	-1	1000
25324355	89	717	0	-100	0	230	101300000	1000	0	0	-1	1000
25336915	89	718	0	-100	0	230	101300000	1000	0	0	-1	1000
25349475	92	717	0	-100	0	230	101300000	1000	0	0	-1	1000
25362035	87	720	0	-100	0	230	101300000	1000	0	0	-1	1000
25374595	99	716	0	-100	0	230	101300000	1000	0	0	-1	1000
25387155	89	722	0	-100	0	230	101300000	1000	0	0	-1	1000
25399715	94	714	0	-100	0	230	101300000	1000	0	0	-1	1000
25412275	87	720	0	-100	0	230	101300000	1000	0	0	-1	1000
25424835	89	718	0	-100	0	230	101300000	1000	0	0	-1	1000
25437395	96	715	0	-100	0	230	101300000	1000	0	0	-1	1000
25449955	89	719	0	-100	0	230	101300000	1000	0	0	-1	1000
25462515	89	723	0	-100	0	230	101300000	1000	0	0	-1	1000
25475075	92	716	0	-100	0	230	101300000	1000	0	0	-1	1000
25487635	94	712	0	-100	0	230	101300000	1000	0	0	-1	1000
25500195	89	721	0	-100	0	230	101300000	1000	0	0	-1	1000
25512755	92	715	0	-100	0	230	101300000	1000	0	0	-1	1000
25525315	92	716	0	-100	0	230	101300000	1000	0	0	-1	1000
25537875	89	718	0	-100	0	230	101300000	1000	0	0	-1	1000
25550435	94	714	0	-100	0	230	101300000	1000	0	0	-1	1000
25562995	92	715	0	-100	0	230	101300000	1000	0	0	-1	1000
25575555	97	716	0	-100	0	230	101300000	1000	0	0	-1	1000
25588115	89	715	0	-100	0	230	101300000	1000	0	0	-1	1000
25600675	94	716	0	-100	0	230	101300000	1000	0	0	-1	1000
25613235	89	717	0	-100	0	230	101300000	1000	0	0	-1	1000
25625795	94	714	0	-100	0	230	101300000	1000	0	0	-1	1000
25638355	89	718	0	-100	0	230	101300000	1000	0	0	-1	1000
25650915	92	722	0	-100	0	230	101300000	1000	0	0	-1	1000
25663475	94	714	0	-100	0	230	101300000	1000	0	0	-1	1000
25676035	89	721	0	-100	0	230	101300000	1000	0	0	-1	1000
25688595	87	720	0	-100	0	230	101300000	1000	0	0	-1	1000
25701155	96	716	0	-100	0	230	101300000	1000	0	0	-1	1000
25713715	89	722	0	-100	0	230	101300000	1000	0	0	-1	1000
25726275	96	717	0	-100	0	230	101300000	1000	0	0	-1	1000
25738835	87	720	0	-100	0	230	101300000	1000	0	0	-1	1000
25751395	89	716	0	-100	0	230	101300000	1000	0	0	-1	1000
25763955	96	716	0	-100	0	230	101300000	1000	0	0	-1	1000
25776515	89	721	0	-100	0	230	101300000	1000	0	0	-1	1000
25789075	96	716	0	-100	0	230	101300000	1000	0	0	-1	1000
25801635	92	717	0	-100	0	230	101300000	1000	0	0	-1	1000
25814195	89	718	0	-100	0	230	101300000	1000	0	0	-1	1000
25826755	96	715	0	-100	0	230	101300000	1000	0	0	-1	1000
25839315	89	721	0	-100	0	230	101300000	1000	0	0	-1	1000
25851875	94	715	0	-100	0	230	101300000	1000	0	0	-1	1000
25864435	89	720	0	-100	0	230	101300000	1000	0	0	-1	1000
25876995	92	718	0	-100	0	230	101300000	1000	0	0	-1	1000
25889555	87	721	0	-100	0	230	101300000	1000	0	0	-1	1000
25902115	97	716	0	-100	0	230	101300000	1000	0	0	-1	1000
25914675	92	722	0	-100	0	230	101300000	1000	0	0	-1	1000
25927235	94	715	0	-100	0	230	101300000	1000	0	0	-1	1000
25939795	89	721	0	-100	0	230	101300000	1000	0	0	-1	1000
25952355	96	714	0	-100	0	230	101300000	1000	0	0	-1	1000
25964915	92	719	0	-100	0	230	101300000	1000	0	0	-1	1000
25977475	96	717	0	-100	0	230	101300000	1000	0	0	-1	1000
25990035	89	718	0	-100	0	230	101300000	1000	0	0	-1	1000
26002595	92	716	0	-100	0	230	101300000	1000	0	0	-1	1000
26015155	89	714	0	-100	0	230	101300000	1000	0	0	-1	1000
26027715	87	720	0	-100	0	230	101300000	1000	0	0	-1	1000
26040275	94	712	0	-100	0	230	101300000	1000	0	0	-1	1000
26052835	89	721	0	-100	0	230	101300000	1000	0	0	-1	1000
26065395	94	714	0	-100	0	230	101300000	1000	0	0	-1	1000
26077955	89	720	0	-100	0	230	101300000	1000	0	0	-1	1000
26090515	96	714	0	-100	0	230	101300000	1000	0	0	-1	1000
26103075	89	722	0	-100	0	230	101300000	1000	0	0	-1	1000
26115635	94	715	0	-100	0	230	101300000	1000	0	0	-1	1000
26128195	87	720	0	-100	0	230	101300000	1000	0	0	-1	1000
26140755	96	716	0	-100	0	230	101300000	1000	0	0	-1	1000
26153315	89	721	0	-100	0	230	101300000	1000	0	0	-1	1000
26165875	94	715	0	-100	0	230	101300000	1000	0	0	-1	1000
26178435	89	720	0	-100	0	230	101300000	1000	0	0	-1	1000
26190995	92	716	0	-100	0	230	101300000	1000	0	0	-1	1000
26203555	89	718	0	-100	0	230	101300000	1000	0	0	-1	1000
26216115	92	715	0	-100	0	230	101300000	1000	0	0	-1	1000
26228675	94	716	0	-100	0	230	101300000	1000	0	0	-1	1000
26241235	92	722	0	-100	0	230	101300000	1000	0	0	-1	1000
26253795	94	711	0	-100	0	230	101300000	1000	0	0	-1	1000
26266355	92	724	0	-100	0	230	101300000	1000	0	0	-1	1000
26278915	94	714	0	-100	0	230	101300000	1000	0	0	-1	1000
26291475	89	718	0	-100	0	230	101300000	1000	0	0	-1	1000
26304035	96	714	0	-100	0	230	101300000	1000	0	0	-1	1000
26316595	89	721	0	-100	0	230	101300000	1000	0	0	-1	1000
26329155	96	716	0	-100	0	230	101300000	1000	0	0	-1	1000
26341715	89	722	0	-100	0	230	101300000	1000	0	0	-1	1000
26354275	92	715	0	-100	0	230	101300000	1000	0	0	-1	1000
26366835	89	720	0	-100	0	230	101300000	1000	0	0	-1	1000
26379395	92	715	0	-100	0	230	101300000	1000	0	0	-1	1000
26391955	92	719	0	-100	0	230	101300000	1000	0	0	-1	1000
26404515	92	717	0	-100	0	230	101300000	1000	0	0	-1	1000
26417075	96	718	0	-100	0	230	101300000	1000	0	0	-1	1000
26429635	89	724	0	-100	0	230	101300000	1000	0	0	-1	1000
26442195	94	715	0	-100	0	230	101300000	1000	0	0	-1	1000
26454755	89	721	0	-100	0	230	101300000	1000	0	0	-1	1000
26467315	96	715	0	-100	0	230	101300000	1000	0	0	-1	1000
26479875	87	722	0	-100	0	230	101300000	1000	0	0	-1	1000
26492435	96	716	0	-100	0	230	101300000	1000	0	0	-1	1000
26504995	89	713	0	-100	0	230	101300000	1000	0	0	-1	1000
26517555	96	717	0	-100	0	230	101300000	1000	0	0	-1	1000
26530115	92	724	0	-100	0	230	101300000	1000	0	0	-1	1000
26542675	96	713	0	-100	0	230	101300000	1000	0	0	-1	1000
26555235	89	718	0	-100	0	230	101300000	1000	0	0	-1	1000
26567795	96	715	0	-100	0	230	101300000	1000	0	0	-1	1000
26580355	89	724	0	-100	0	230	101300000	1000	0	0	-1	1000
26592915	94	715	0	-100	0	230	101300000	1000	0	0	-1	1000
26605475	89	720	0	-100	0	230	101300000	1000	0	0	-1	1000
26618035	92	716	0	-100	0	230	101300000	1000	0	0	-1	1000
26630595	89	716	0	-100	0	230	101300000	1000	0	0	-1	1000
26643155	89	718	0	-100	0	230	101300000	1000	0	0	-1	1000
26655715	96	716	0	-100	0	230	101300000	1000	0	0	-1	1000
26668275	99	715	0	-100	0	230	101300000	1000	0	0	-1	1000
26680835	89	721	0	-100	0	230	101300000	1000	0	0	-1	1000
26693395	89	714	0	-100	0	230	101300000	1000	0	0	-1	1000
26705955	99	715	0	-100	0	230	101300000	1000	0	0	-1	1000
26718515	87	722	0	-100	0	230	101300000	1000	0	0	-1	1000
26731075	94	713	0	-100	0	230	101300000	1000	0	0	-1	1000
26743635	89	717	0	-100	0	230	101300000	1000	0	0	-1	1000
26756195	89	718	0	-100	0	230	101300000	1000	0	0	-1	1000
26768755	94	712	0	-100	0	230	101300000	1000	0	0	-1	1000
26781315	89	721	0	-100	0	230	101300000	1000	0	0	-1	1000
26793875	92	715	0	-100	0	230	101300000	1000	0	0	-1	1000
26806435	92	720	0	-100	0	230	101300000	1000	0	0	-1	1000
26818995	89	713	0	-100	0	230	101300000	1000	0	0	-1	1000
26831555	94	711	0	-100	0	230	101300000	1000	0	0	-1	1000
26844115	89	722	0	-100	0	230	101300000	1000	0	0	-1	1000
26856675	89	714	0	-100	0	230	101300000	1000	0	0	-1	1000
26869235	96	715	0	-100	0	230	101300000	1000	0	0	-1	1000
26881795	89	718	0	-100	0	230	101300000	1000	0	0	-1	1000
26894355	89	718	0	-100	0	230	101300000	1000	0	0	-1	1000
26906915	96	712	0	-100	0	230	101300000	1000	0	0	-1	1000
26919475	89	721	0	-100	0	230	101300000	1000	0	0	-1	1000
26932035	89	714	0	-100	0	230	101300000	1000	0	0	-1	1000
26944595	99	716	0	-100	0	230	101300000	1000	0	0	-1	1000
26957155	89	724	0	-100	0	230	101300000	1000	0	0	-1	1000
26969715	94	715	0	-100	0	230	101300000	1000	0	0	-1	1000
26982275	92	717	0	-100	0	230	101300000	1000	0	0	-1	1000
26994835	92	720	0	-100	0	230	101300000	1000	0	0	-1	1000
27007395	94	711	0	-100	0	230	101300000	1000	0	0	-1	1000
27019955	87	721	0	-100	0	230	101300000	1000	0	0	-1	1000
27032515	89	716	0	-100	0	230	101300000	1000	0	0	-1	1000
27045075	94	711	0	-100	0	230	101300000	1000	0	0	-1	1000
