timestamp	voltage	current	windSpeed	pitchAngle	rpm	temperature	ambientPressure	humidity	accelerationX	accelerationY	accelerationZ	currentSink
7035070	2004	0	0	-100	0	230	101300000	1000	0	0	-1	0
7042523	2014	0	0	-100	0	230	101300000	1000	0	0	-1	0
7055083	2007	0	0	-100	0	230	101300000	1000	0	0	-1	0
7067643	2013	0	0	-100	0	230	101300000	1000	0	0	-1	0
7080203	2007	2	0	-100	0	230	101300000	1000	0	0	-1	0
7092763	2009	0	0	-100	0	230	101300000	1000	0	0	-1	0
7105323	2004	3	0	-100	0	230	101300000	1000	0	0	-1	0
7117883	2011	0	0	-100	0	230	101300000	1000	0	0	-1	0
7130443	2004	1	0	-100	0	230	101300000	1000	0	0	-1	0
7143004	2014	0	0	-100	0	230	101300000	1000	0	0	-1	0
7155563	2005	0	0	-100	0	230	101300000	1000	0	0	-1	0
7168123	2007	0	0	-100	0	230	101300000	1000	0	0	-1	0
7180683	2012	0	0	-100	0	230	101300000	1000	0	0	-1	0
7193243	2004	0	0	-100	0	230	101300000	1000	0	0	-1	0
7205803	2011	0	0	-100	0	230	101300000	1000	0	0	-1	0
7218363	2007	2	0	-100	0	230	101300000	1000	0	0	-1	0
7230923	2011	0	0	-100	0	230	101300000	1000	0	0	-1	0
7243483	2005	0	0	-100	0	230	101300000	1000	0	0	-1	0
7256043	2014	0	0	-100	0	230	101300000	1000	0	0	-1	0
7268603	2004	0	0	-100	0	230	101300000	1000	0	0	-1	0
7281163	2009	0	0	-100	0	230	101300000	1000	0	0	-1	0
7293723	2005	0	0	-100	0	230	101300000	1000	0	0	-1	0
7306283	2004	0	0	-100	0	230	101300000	1000	0	0	-1	0
7318843	2007	0	0	-100	0	230	101300000	1000	0	0	-1	0
7331403	2005	0	0	-100	0	230	101300000	1000	0	0	-1	0
7343963	2008	0	0	-100	0	230	101300000	1000	0	0	-1	0
7724795	106	826	0	-100	0	230	101300000	1000	0	0	-1	1000
7737355	109	815	0	-100	0	230	101300000	1000	0	0	-1	1000
7749915	106	823	0	-100	0	230	101300000	1000	0	0	-1	1000
7762475	111	819	0	-100	0	230	101300000	1000	0	0	-1	1000
7775035	104	822	0	-100	0	230	101300000	1000	0	0	-1	1000
7787595	111	817	0	-100	0	230	101300000	1000	0	0	-1	1000
7800155	101	825	0	-100	0	230	101300000	1000	0	0	-1	1000
7812715	111	818	0	-100	0	230	101300000	1000	0	0	-1	1000
7825275	101	826	0	-100	0	230	101300000	1000	0	0	-1	1000
7837835	111	819	0	-100	0	230	101300000	1000	0	0	-1	1000
7850395	104	826	0	-100	0	230	101300000	1000	0	0	-1	1000
7862955	111	816	0	-100	0	230	101300000	1000	0	0	-1	1000
7875515	106	822	0	-100	0	230	101300000	1000	0	0	-1	1000
7888075	111	818	0	-100	0	230	101300000	1000	0	0	-1	1000
7900635	101	823	0	-100	0	230	101300000	1000	0	0	-1	1000
7913195	109	817	0	-100	0	230	101300000	1000	0	0	-1	1000
7925755	104	821	0	-100	0	230	101300000	1000	0	0	-1	1000
7938315	111	820	0	-100	0	230	101300000	1000	0	0	-1	1000
7950875	106	825	0	-100	0	230	101300000	1000	0	0	-1	1000
7963435	111	820	0	-100	0	230	101300000	1000	0	0	-1	1000
7975995	104	813	0	-100	0	230	101300000	1000	0	0	-1	1000
7988555	109	818	0	-100	0	230	101300000	1000	0	0	-1	1000
8001115	109	817	0	-100	0	230	101300000	1000	0	0	-1	1000
8013675	104	824	0	-100	0	230	101300000	1000	0	0	-1	1000
8026235	109	817	0	-100	0	230	101300000	1000	0	0	-1	1000
8038795	104	823	0	-100	0	230	101300000	1000	0	0	-1	1000
8051355	109	815	0	-100	0	230	101300000	1000	0	0	-1	1000
8063915	104	823	0	-100	0	230	101300000	1000	0	0	-1	1000
8076475	111	817	0	-100	0	230	101300000	1000	0	0	-1	1000
8089035	104	825	0	-100	0	230	101300000	1000	0	0	-1	1000
8101595	111	818	0	-100	0	230	101300000	1000	0	0	-1	1000
8114155	104	827	0	-100	0	230	101300000	1000	0	0	-1	1000
8126715	111	819	0	-100	0	230	101300000	1000	0	0	-1	1000
8139275	104	825	0	-100	0	230	101300000	1000	0	0	-1	1000
8151835	104	817	0	-100	0	230	101300000	1000	0	0	-1	1000
8164395	111	819	0	-100	0	230	101300000	1000	0	0	-1	1000
8176955	104	825	0	-100	0	230	101300000	1000	0	0	-1	1000
8189515	111	819	0	-100	0	230	101300000	1000	0	0	-1	1000
8202075	104	823	0	-100	0	230	101300000	1000	0	0	-1	1000
8214635	104	816	0	-100	0	230	101300000	1000	0	0	-1	1000
8227195	109	817	0	-100	0	230	101300000	1000	0	0	-1	1000
8239755	104	821	0	-100	0	230	101300000	1000	0	0	-1	1000
8252315	111	821	0	-100	0	230	101300000	1000	0	0	-1	1000
8264875	104	820	0	-100	0	230	101300000	1000	0	0	-1	1000
8277435	111	820	0	-100	0	230	101300000	1000	0	0	-1	1000
8289995	106	819	0	-100	0	230	101300000	1000	0	0	-1	1000
8302555	111	817	0	-100	0	230	101300000	1000	0	0	-1	1000
8315115	106	823	0	-100	0	230	101300000	1000	0	0	-1	1000
8327675	111	817	0	-100	0	230	101300000	1000	0	0	-1	1000
8340235	104	825	0	-100	0	230	101300000	1000	0	0	-1	1000
8352795	106	819	0	-100	0	230	101300000	1000	0	0	-1	1000
8365355	113	818	0	-100	0	230	101300000	1000	0	0	-1	1000
8377915	104	816	0	-100	0	230	101300000	1000	0	0	-1	1000
8390475	104	821	0	-100	0	230	101300000	1000	0	0	-1	1000
8403035	111	817	0	-100	0	230	101300000	1000	0	0	-1	1000
8415595	104	824	0	-100	0	230	101300000	1000	0	0	-1	1000
8428155	101	821	0	-100	0	230	101300000	1000	0	0	-1	1000
8440715	111	817	0	-100	0	230	101300000	1000	0	0	-1	1000
8453275	106	819	0	-100	0	230	101300000	1000	0	0	-1	1000
8465835	104	825	0	-100	0	230	101300000	1000	0	0	-1	1000
8478395	109	816	0	-100	0	230	101300000	1000	0	0	-1	1000
8490955	104	822	0	-100	0	230	101300000	1000	0	0	-1	1000
8503515	106	823	0	-100	0	230	101300000	1000	0	0	-1	1000
8516075	109	817	0	-100	0	230	101300000	1000	0	0	-1	1000
8528635	101	825	0	-100	0	230	101300000	1000	0	0	-1	1000
8541195	106	819	0	-100	0	230	101300000	1000	0	0	-1	1000
8553755	109	817	0	-100	0	230	101300000	1000	0	0	-1	1000
8566315	106	826	0	-100	0	230	101300000	1000	0	0	-1	1000
8578875	111	819	0	-100	0	230	101300000	1000	0	0	-1	1000
8591435	104	821	0	-100	0	230	101300000	1000	0	0	-1	1000
8603995	109	817	0	-100	0	230	101300000	1000	0	0	-1	1000
8616555	111	819	0	-100	0	230	101300000	1000	0	0	-1	1000
8629115	106	827	0	-100	0	230	101300000	1000	0	0	-1	1000
8641675	106	817	0	-100	0	230	101300000	1000	0	0	-1	1000
8654235	111	819	0	-100	0	230	101300000	1000	0	0	-1	1000
8666795	106	826	0	-100	0	230	101300000	1000	0	0	-1	1000
8679355	111	821	0	-100	0	230	101300000	1000	0	0	-1	1000
8691915	101	823	0	-100	0	230	101300000	1000	0	0	-1	1000
8704475	104	818	0	-100	0	230	101300000	1000	0	0	-1	1000
8717035	111	820	0	-100	0	230	101300000	1000	0	0	-1	1000
8729595	106	827	0	-100	0	230	101300000	1000	0	0	-1	1000
8742155	109	818	0	-100	0	230	101300000	1000	0	0	-1	1000
8754715	104	824	0	-100	0	230	101300000	1000	0	0	-1	1000
8767275	106	819	0	-100	0	230	101300000	1000	0	0	-1	1000
8779835	113	817	0	-100	0	230	101300000	1000	0	0	-1	1000
8792395	104	824	0	-100	0	230	101300000	1000	0	0	-1	1000
8804955	104	818	0	-100	0	230	101300000	1000	0	0	-1	1000
8817515	109	818	0	-100	0	230	101300000	1000	0	0	-1	1000
8855195	111	818	0	-100	0	230	101300000	1000	0	0	-1	1000
8867755	111	820	0	-100	0	230	101300000	1000	0	0	-1	1000
8880315	104	823	0	-100	0	230	101300000	1000	0	0	-1	1000
8892875	104	821	0	-100	0	230	101300000	1000	0	0	-1	1000
8905435	111	820	0	-100	0	230	101300000	1000	0	0	-1	1000
8917995	104	819	0	-100	0	230	101300000	1000	0	0	-1	1000
8930555	104	821	0	-100	0	230	101300000	1000	0	0	-1	1000
8943115	111	819	0	-100	0	230	101300000	1000	0	0	-1	1000
8955675	111	819	0	-100	0	230	101300000	1000	0	0	-1	1000
8968235	104	820	0	-100	0	230	101300000	1000	0	0	-1	1000
8980795	106	827	0	-100	0	230	101300000	1000	0	0	-1	1000
8993355	106	818	0	-100	0	230	101300000	1000	0	0	-1	1000
9068715	106	826	0	-100	0	230	101300000	1000	0	0	-1	1000
9081275	111	818	0	-100	0	230	101300000	1000	0	0	-1	1000
9093835	101	823	0	-100	0	230	101300000	1000	0	0	-1	1000
9106395	106	819	0	-100	0	230	101300000	1000	0	0	-1	1000
9118955	111	818	0	-100	0	230	101300000	1000	0	0	-1	1000
9131515	106	821	0	-100	0	230	101300000	1000	0	0	-1	1000
9144075	111	817	0	-100	0	230	101300000	1000	0	0	-1	1000
9156635	104	825	0	-100	0	230	101300000	1000	0	0	-1	1000
9169195	106	819	0	-100	0	230	101300000	1000	0	0	-1	1000
9181755	106	819	0	-100	0	230	101300000	1000	0	0	-1	1000
9194315	104	817	0	-100	0	230	101300000	1000	0	0	-1	1000
9206875	106	817	0	-100	0	230	101300000	1000	0	0	-1	1000
9231995	111	825	0	-100	0	230	101300000	1000	0	0	-1	1000
9244555	109	822	0	-100	0	230	101300000	1000	0	0	-1	1000
9257115	111	818	0	-100	0	230	101300000	1000	0	0	-1	1000
9269675	109	823	0	-100	0	230	101300000	1000	0	0	-1	1000
9282235	111	817	0	-100	0	230	101300000	1000	0	0	-1	1000
9294795	106	826	0	-100	0	230	101300000	1000	0	0	-1	1000
9307355	111	819	0	-100	0	230	101300000	1000	0	0	-1	1000
9319915	104	823	0	-100	0	230	101300000	1000	0	0	-1	1000
9332475	106	818	0	-100	0	230	101300000	1000	0	0	-1	1000
9345035	106	822	0	-100	0	230	101300000	1000	0	0	-1	1000
9357595	101	822	0	-100	0	230	101300000	1000	0	0	-1	1000
9370155	111	816	0	-100	0	230	101300000	1000	0	0	-1	1000
9382715	104	823	0	-100	0	230	101300000	1000	0	0	-1	1000
9395275	109	817	0	-100	0	230	101300000	1000	0	0	-1	1000
9407835	101	821	0	-100	0	230	101300000	1000	0	0	-1	1000
9420395	104	817	0	-100	0	230	101300000	1000	0	0	-1	1000
9432955	111	817	0	-100	0	230	101300000	1000	0	0	-1	1000
9445515	101	825	0	-100	0	230	101300000	1000	0	0	-1	1000
9458075	111	818	0	-100	0	230	101300000	1000	0	0	-1	1000
9470635	101	823	0	-100	0	230	101300000	1000	0	0	-1	1000
9483195	109	816	0	-100	0	230	101300000	1000	0	0	-1	1000
9495755	104	821	0	-100	0	230	101300000	1000	0	0	-1	1000
9508315	106	818	0	-100	0	230	101300000	1000	0	0	-1	1000
9520875	104	821	0	-100	0	230	101300000	1000	0	0	-1	1000
9533435	104	819	0	-100	0	230	101300000	1000	0	0	-1	1000
9545995	109	821	0	-100	0	230	101300000	1000	0	0	-1	1000
9558555	104	822	0	-100	0	230	101300000	1000	0	0	-1	1000
9571115	111	816	0	-100	0	230	101300000	1000	0	0	-1	1000
9583675	104	825	0	-100	0	230	101300000	1000	0	0	-1	1000
9596235	109	817	0	-100	0	230	101300000	1000	0	0	-1	1000
9608795	101	822	0	-100	0	230	101300000	1000	0	0	-1	1000
9621355	106	820	0	-100	0	230	101300000	1000	0	0	-1	1000
9633915	104	821	0	-100	0	230	101300000	1000	0	0	-1	1000
9646475	104	821	0	-100	0	230	101300000	1000	0	0	-1	1000
9659035	106	819	0	-100	0	230	101300000	1000	0	0	-1	1000
9671595	106	818	0	-100	0	230	101300000	1000	0	0	-1	1000
9684155	101	822	0	-100	0	230	101300000	1000	0	0	-1	1000
9696715	104	818	0	-100	0	230	101300000	1000	0	0	-1	1000
9709275	109	820	0	-100	0	230	101300000	1000	0	0	-1	1000
9721835	106	820	0	-100	0	230	101300000	1000	0	0	-1	1000
9734395	104	821	0	-100	0	230	101300000	1000	0	0	-1	1000
9746955	106	819	0	-100	0	230	101300000	1000	0	0	-1	1000
9759515	104	824	0	-100	0	230	101300000	1000	0	0	-1	1000
9772075	111	818	0	-100	0	230	101300000	1000	0	0	-1	1000
9784635	104	821	0	-100	0	230	101300000	1000	0	0	-1	1000
9797195	111	821	0	-100	0	230	101300000	1000	0	0	-1	1000
9809755	106	820	0	-100	0	230	101300000	1000	0	0	-1	1000
9822315	104	821	0	-100	0	230	101300000	1000	0	0	-1	1000
9834875	113	819	0	-100	0	230	101300000	1000	0	0	-1	1000
9847435	104	826	0	-100	0	230	101300000	1000	0	0	-1	1000
9859995	111	826	0	-100	0	230	101300000	1000	0	0	-1	1000
9872555	106	817	0	-100	0	230	101300000	1000	0	0	-1	1000
9885115	106	826	0	-100	0	230	101300000	1000	0	0	-1	1000
9897675	111	815	0	-100	0	230	101300000	1000	0	0	-1	1000
9910235	106	823	0	-100	0	230	101300000	1000	0	0	-1	1000
9922795	106	819	0	-100	0	230	101300000	1000	0	0	-1	1000
9935355	111	818	0	-100	0	230	101300000	1000	0	0	-1	1000
9947915	104	824	0	-100	0	230	101300000	1000	0	0	-1	1000
9960475	109	817	0	-100	0	230	101300000	1000	0	0	-1	1000
9973035	104	824	0	-100	0	230	101300000	1000	0	0	-1	1000
9985595	111	816	0	-100	0	230	101300000	1000	0	0	-1	1000
9998155	101	821	0	-100	0	230	101300000	1000	0	0	-1	1000
10010715	104	821	0	-100	0	230	101300000	1000	0	0	-1	1000
10023275	106	818	0	-100	0	230	101300000	1000	0	0	-1	1000
10035835	104	820	0	-100	0	230	101300000	1000	0	0	-1	1000
10048395	106	819	0	-100	0	230	101300000	1000	0	0	-1	1000
10060955	104	824	0	-100	0	230	101300000	1000	0	0	-1	1000
10073515	111	819	0	-100	0	230	101300000	1000	0	0	-1	1000
10086075	106	826	0	-100	0	230	101300000	1000	0	0	-1	1000
10098635	111	818	0	-100	0	230	101300000	1000	0	0	-1	1000
10111195	104	824	0	-100	0	230	101300000	1000	0	0	-1	1000
10123755	111	820	0	-100	0	230	101300000	1000	0	0	-1	1000
10136315	106	827	0	-100	0	230	101300000	1000	0	0	-1	1000
10148875	111	816	0	-100	0	230	101300000	1000	0	0	-1	1000
10161435	106	825	0	-100	0	230	101300000	1000	0	0	-1	1000
10173995	111	826	0	-100	0	230	101300000	1000	0	0	-1	1000
10186555	106	821	0	-100	0	230	101300000	1000	0	0	-1	1000
10199115	106	822	0	-100	0	230	101300000	1000	0	0	-1	1000
10211675	104	817	0	-100	0	230	101300000	1000	0	0	-1	1000
10224235	106	820	0	-100	0	230	101300000	1000	0	0	-1	1000
10236795	104	821	0	-100	0	230	101300000	1000	0	0	-1	1000
10249355	113	819	0	-100	0	230	101300000	1000	0	0	-1	1000
10261915	106	824	0	-100	0	230	101300000	1000	0	0	-1	1000
10274475	109	817	0	-100	0	230	101300000	1000	0	0	-1	1000
10287035	104	818	0	-100	0	230	101300000	1000	0	0	-1	1000
10299595	104	822	0	-100	0	230	101300000	1000	0	0	-1	1000
10312155	109	819	0	-100	0	230	101300000	1000	0	0	-1	1000
10324715	101	826	0	-100	0	230	101300000	1000	0	0	-1	1000
10337275	109	817	0	-100	0	230	101300000	1000	0	0	-1	1000
10349835	104	824	0	-100	0	230	101300000	1000	0	0	-1	1000
10362395	104	817	0	-100	0	230	101300000	1000	0	0	-1	1000
10374955	106	823	0	-100	0	230	101300000	1000	0	0	-1	1000
10387515	104	817	0	-100	0	230	101300000	1000	0	0	-1	1000
10400075	104	820	0	-100	0	230	101300000	1000	0	0	-1	1000
10412635	109	817	0	-100	0	230	101300000	1000	0	0	-1	1000
10425195	104	823	0	-100	0	230	101300000	1000	0	0	-1	1000
10437755	106	818	0	-100	0	230	101300000	1000	0	0	-1	1000
10450315	104	820	0	-100	0	230	101300000	1000	0	0	-1	1000
10462875	104	820	0	-100	0	230	101300000	1000	0	0	-1	1000
10475435	111	819	0	-100	0	230	101300000	1000	0	0	-1	1000
10487995	104	818	0	-100	0	230	101300000	1000	0	0	-1	1000
10500555	111	819	0	-100	0	230	101300000	1000	0	0	-1	1000
10513115	104	821	0	-100	0	230	101300000	1000	0	0	-1	1000
10525675	104	821	0	-100	0	230	101300000	1000	0	0	-1	1000
10538235	109	817	0	-100	0	230	101300000	1000	0	0	-1	1000
10550795	104	822	0	-100	0	230	101300000	1000	0	0	-1	1000
10563355	106	823	0	-100	0	230	101300000	1000	0	0	-1	1000
10575915	109	818	0	-100	0	230	101300000	1000	0	0	-1	1000
10588475	111	818	0	-100	0	230	101300000	1000	0	0	-1	1000
10601035	104	822	0	-100	0	230	101300000	1000	0	0	-1	1000
10613595	106	825	0	-100	0	230	101300000	1000	0	0	-1	1000
10626155	109	817	0	-100	0	230	101300000	1000	0	0	-1	1000
10638715	109	819	0	-100	0	230	101300000	1000	0	0	-1	1000
10651275	106	828	0	-100	0	230	101300000	1000	0	0	-1	1000
10663835	111	819	0	-100	0	230	101300000	1000	0	0	-1	1000
10676395	106	819	0	-100	0	230	101300000	1000	0	0	-1	1000
10688955	104	827	0	-100	0	230	101300000	1000	0	0	-1	1000
10701515	106	819	0	-100	0	230	101300000	1000	0	0	-1	1000
10714075	111	816	0	-100	0	230	101300000	1000	0	0	-1	1000
10726635	101	823	0	-100	0	230	101300000	1000	0	0	-1	1000
10739195	104	824	0	-100	0	230	101300000	1000	0	0	-1	1000
10751755	104	817	0	-100	0	230	101300000	1000	0	0	-1	1000
10764315	113	815	0	-100	0	230	101300000	1000	0	0	-1	1000
10776875	104	821	0	-100	0	230	101300000	1000	0	0	-1	1000
10789435	104	820	0	-100	0	230	101300000	1000	0	0	-1	1000
10801995	111	822	0	-100	0	230	101300000	1000	0	0	-1	1000
10814555	104	821	0	-100	0	230	101300000	1000	0	0	-1	1000
10827115	104	820	0	-100	0	230	101300000	1000	0	0	-1	1000
10839675	111	818	0	-100	0	230	101300000	1000	0	0	-1	1000
10852235	104	821	0	-100	0	230	101300000	1000	0	0	-1	1000
10864795	109	821	0	-100	0	230	101300000	1000	0	0	-1	1000
10877355	106	817	0	-100	0	230	101300000	1000	0	0	-1	1000
10889915	111	818	0	-100	0	230	101300000	1000	0	0	-1	1000
10902475	101	824	0	-100	0	230	101300000	1000	0	0	-1	1000
10915035	104	826	0	-100	0	230	101300000	1000	0	0	-1	1000
10927595	104	821	0	-100	0	230	101300000	1000	0	0	-1	1000
10940155	104	817	0	-100	0	230	101300000	1000	0	0	-1	1000
10952715	111	816	0	-100	0	230	101300000	1000	0	0	-1	1000
10965275	104	821	0	-100	0	230	101300000	1000	0	0	-1	1000
10977835	104	826	0	-100	0	230	101300000	1000	0	0	-1	1000
10990395	106	822	0	-100	0	230	101300000	1000	0	0	-1	1000
11002955	104	820	0	-100	0	230	101300000	1000	0	0	-1	1000
11015515	104	820	0	-100	0	230	101300000	1000	0	0	-1	1000
11028075	104	817	0	-100	0	230	101300000	1000	0	0	-1	1000
11040635	109	816	0	-100	0	230	101300000	1000	0	0	-1	1000
11053195	111	818	0	-100	0	230	101300000	1000	0	0	-1	1000
11065755	109	818	0	-100	0	230	101300000	1000	0	0	-1	1000
11078315	113	818	0	-100	0	230	101300000	1000	0	0	-1	1000
11090875	111	818	0	-100	0	230	101300000	1000	0	0	-1	1000
11103435	113	814	0	-100	0	230	101300000	1000	0	0	-1	1000
11115995	111	825	0	-100	0	230	101300000	1000	0	0	-1	1000
11128555	106	822	0	-100	0	230	101300000	1000	0	0	-1	1000
11141115	104	823	0	-100	0	230	101300000	1000	0	0	-1	1000
11153675	106	827	0	-100	0	230	101300000	1000	0	0	-1	1000
11166235	104	820	0	-100	0	230	101300000	1000	0	0	-1	1000
11178795	104	818	0	-100	0	230	101300000	1000	0	0	-1	1000
11191355	104	821	0	-100	0	230	101300000	1000	0	0	-1	1000
11203915	104	822	0	-100	0	230	101300000	1000	0	0	-1	1000
11216475	106	820	0	-100	0	230	101300000	1000	0	0	-1	1000
11229035	109	819	0	-100	0	230	101300000	1000	0	0	-1	1000
11241595	111	821	0	-100	0	230	101300000	1000	0	0	-1	1000
11254155	104	820	0	-100	0	230	101300000	1000	0	0	-1	1000
11266715	104	823	0	-100	0	230	101300000	1000	0	0	-1	1000
11279275	106	823	0	-100	0	230	101300000	1000	0	0	-1	1000
11291835	111	819	0	-100	0	230	101300000	1000	0	0	-1	1000
11304395	109	819	0	-100	0	230	101300000	1000	0	0	-1	1000
11316955	104	823	0	-100	0	230	101300000	1000	0	0	-1	1000
11329515	104	821	0	-100	0	230	101300000	1000	0	0	-1	1000
11342075	111	818	0	-100	0	230	101300000	1000	0	0	-1	1000
11354635	111	817	0	-100	0	230	101300000	1000	0	0	-1	1000
11367195	106	822	0	-100	0	230	101300000	1000	0	0	-1	1000
11379755	104	825	0	-100	0	230	101300000	1000	0	0	-1	1000
11392315	101	823	0	-100	0	230	101300000	1000	0	0	-1	1000
11404875	109	817	0	-100	0	230	101300000	1000	0	0	-1	1000
11417435	111	817	0	-100	0	230	101300000	1000	0	0	-1	1000
11429995	106	827	0	-100	0	230	101300000	1000	0	0	-1	1000
11442555	104	823	0	-100	0	230	101300000	1000	0	0	-1	1000
11455115	104	825	0	-100	0	230	101300000	1000	0	0	-1	1000
11467675	101	823	0	-100	0	230	101300000	1000	0	0	-1	1000
11480235	109	817	0	-100	0	230	101300000	1000	0	0	-1	1000
11492795	111	818	0	-100	0	230	101300000	1000	0	0	-1	1000
11505355	111	819	0	-100	0	230	101300000	1000	0	0	-1	1000
11517915	104	822	0	-100	0	230	101300000	1000	0	0	-1	1000
11530475	104	826	0	-100	0	230	101300000	1000	0	0	-1	1000
11543035	104	818	0	-100	0	230	101300000	1000	0	0	-1	1000
11555595	109	817	0	-100	0	230	101300000	1000	0	0	-1	1000
11568155	111	818	0	-100	0	230	101300000	1000	0	0	-1	1000
11580715	111	821	0	-100	0	230	101300000	1000	0	0	-1	1000
11593275	104	822	0	-100	0	230	101300000	1000	0	0	-1	1000
11605835	101	824	0	-100	0	230	101300000	1000	0	0	-1	1000
11618395	104	826	0	-100	0	230	101300000	1000	0	0	-1	1000
11630955	104	825	0	-100	0	230	101300000	1000	0	0	-1	1000
11643515	106	824	0	-100	0	230	101300000	1000	0	0	-1	1000
11656075	106	823	0	-100	0	230	101300000	1000	0	0	-1	1000
11668635	106	820	0	-100	0	230	101300000	1000	0	0	-1	1000
11681195	109	819	0	-100	0	230	101300000	1000	0	0	-1	1000
11693755	109	814	0	-100	0	230	101300000	1000	0	0	-1	1000
11706315	106	821	0	-100	0	230	101300000	1000	0	0	-1	1000
11718875	104	823	0	-100	0	230	101300000	1000	0	0	-1	1000
11731435	104	825	0	-100	0	230	101300000	1000	0	0	-1	1000
11743995	106	819	0	-100	0	230	101300000	1000	0	0	-1	1000
11769115	111	818	0	-100	0	230	101300000	1000	0	0	-1	1000
11781675	111	818	0	-100	0	230	101300000	1000	0	0	-1	1000
11794235	111	819	0	-100	0	230	101300000	1000	0	0	-1	1000
11806795	104	822	0	-100	0	230	101300000	1000	0	0	-1	1000
11819355	104	822	0	-100	0	230	101300000	1000	0	0	-1	1000
11831915	104	821	0	-100	0	230	101300000	1000	0	0	-1	1000
11844475	104	823	0	-100	0	230	101300000	1000	0	0	-1	1000
11857035	104	825	0	-100	0	230	101300000	1000	0	0	-1	1000
11869595	104	821	0	-100	0	230	101300000	1000	0	0	-1	1000
11882155	106	820	0	-100	0	230	101300000	1000	0	0	-1	1000
11894715	109	817	0	-100	0	230	101300000	1000	0	0	-1	1000
11907275	109	816	0	-100	0	230	101300000	1000	0	0	-1	1000
11982635	101	823	0	-100	0	230	101300000	1000	0	0	-1	1000
11995195	104	817	0	-100	0	230	101300000	1000	0	0	-1	1000
12007755	109	816	0	-100	0	230	101300000	1000	0	0	-1	1000
12020315	109	816	0	-100	0	230	101300000	1000	0	0	-1	1000
12032875	106	822	0	-100	0	230	101300000	1000	0	0	-1	1000
12045435	104	825	0	-100	0	230	101300000	1000	0	0	-1	1000
12057995	104	814	0	-100	0	230	101300000	1000	0	0	-1	1000
12070555	106	818	0	-100	0	230	101300000	1000	0	0	-1	1000
12083115	109	816	0	-100	0	230	101300000	1000	0	0	-1	1000
12095675	111	819	0	-100	0	230	101300000	1000	0	0	-1	1000
12108235	111	816	0	-100	0	230	101300000	1000	0	0	-1	1000
12120795	104	821	0	-100	0	230	101300000	1000	0	0	-1	1000
12133355	104	823	0	-100	0	230	101300000	1000	0	0	-1	1000
12145915	106	828	0	-100	0	230	101300000	1000	0	0	-1	1000
12158475	104	821	0	-100	0	230	101300000	1000	0	0	-1	1000
12171035	104	817	0	-100	0	230	101300000	1000	0	0	-1	1000
12183595	111	819	0	-100	0	230	101300000	1000	0	0	-1	1000
12196155	109	817	0	-100	0	230	101300000	1000	0	0	-1	1000
12208715	109	818	0	-100	0	230	101300000	1000	0	0	-1	1000
12221275	109	817	0	-100	0	230	101300000	1000	0	0	-1	1000
12233835	109	815	0	-100	0	230	101300000	1000	0	0	-1	1000
12246395	111	820	0	-100	0	230	101300000	1000	0	0	-1	1000
12258955	111	818	0	-100	0	230	101300000	1000	0	0	-1	1000
12271515	106	818	0	-100	0	230	101300000	1000	0	0	-1	1000
12284075	109	819	0	-100	0	230	101300000	1000	0	0	-1	1000
12296635	109	819	0	-100	0	230	101300000	1000	0	0	-1	1000
12309195	109	818	0	-100	0	230	101300000	1000	0	0	-1	1000
12321755	106	821	0	-100	0	230	101300000	1000	0	0	-1	1000
12334315	104	820	0	-100	0	230	101300000	1000	0	0	-1	1000
12346875	104	823	0	-100	0	230	101300000	1000	0	0	-1	1000
12359435	104	825	0	-100	0	230	101300000	1000	0	0	-1	1000
12371995	106	818	0	-100	0	230	101300000	1000	0	0	-1	1000
12384555	104	819	0	-100	0	230	101300000	1000	0	0	-1	1000
12397115	109	817	0	-100	0	230	101300000	1000	0	0	-1	1000
12409675	111	820	0	-100	0	230	101300000	1000	0	0	-1	1000
12422235	113	819	0	-100	0	230	101300000	1000	0	0	-1	1000
12434795	111	819	0	-100	0	230	101300000	1000	0	0	-1	1000
12447355	109	817	0	-100	0	230	101300000	1000	0	0	-1	1000
12459915	111	819	0	-100	0	230	101300000	1000	0	0	-1	1000
12472475	109	817	0	-100	0	230	101300000	1000	0	0	-1	1000
12485035	111	818	0	-100	0	230	101300000	1000	0	0	-1	1000
12497595	109	816	0	-100	0	230	101300000	1000	0	0	-1	1000
12510155	104	818	0	-100	0	230	101300000	1000	0	0	-1	1000
12522715	104	820	0	-100	0	230	101300000	1000	0	0	-1	1000
12535275	101	823	0	-100	0	230	101300000	1000	0	0	-1	1000
12547835	101	824	0	-100	0	230	101300000	1000	0	0	-1	1000
12560395	104	823	0	-100	0	230	101300000	1000	0	0	-1	1000
12572955	104	825	0	-100	0	230	101300000	1000	0	0	-1	1000
12585515	104	823	0	-100	0	230	101300000	1000	0	0	-1	1000
12598075	104	824	0	-100	0	230	101300000	1000	0	0	-1	1000
12610635	104	822	0	-100	0	230	101300000	1000	0	0	-1	1000
12623195	104	821	0	-100	0	230	101300000	1000	0	0	-1	1000
12635755	104	822	0	-100	0	230	101300000	1000	0	0	-1	1000
12648315	111	820	0	-100	0	230	101300000	1000	0	0	-1	1000
12660875	111	815	0	-100	0	230	101300000	1000	0	0	-1	1000
12673435	111	818	0	-100	0	230	101300000	1000	0	0	-1	1000
12685995	109	823	0	-100	0	230	101300000	1000	0	0	-1	1000
12698555	109	816	0	-100	0	230	101300000	1000	0	0	-1	1000
12711115	111	821	0	-100	0	230	101300000	1000	0	0	-1	1000
12723675	109	818	0	-100	0	230	101300000	1000	0	0	-1	1000
12736235	106	820	0	-100	0	230	101300000	1000	0	0	-1	1000
12748795	104	821	0	-100	0	230	101300000	1000	0	0	-1	1000
12761355	104	821	0	-100	0	230	101300000	1000	0	0	-1	1000
12773915	104	822	0	-100	0	230	101300000	1000	0	0	-1	1000
12786475	109	817	0	-100	0	230	101300000	1000	0	0	-1	1000
12799035	109	817	0	-100	0	230	101300000	1000	0	0	-1	1000
12811595	109	816	0	-100	0	230	101300000	1000	0	0	-1	1000
12824155	104	817	0	-100	0	230	101300000	1000	0	0	-1	1000
12836715	104	825	0	-100	0	230	101300000	1000	0	0	-1	1000
12849275	104	820	0	-100	0	230	101300000	1000	0	0	-1	1000
12861835	111	818	0	-100	0	230	101300000	1000	0	0	-1	1000
12874395	106	821	0	-100	0	230	101300000	1000	0	0	-1	1000
12886955	104	822	0	-100	0	230	101300000	1000	0	0	-1	1000
12899515	104	816	0	-100	0	230	101300000	1000	0	0	-1	1000
12912075	106	822	0	-100	0	230	101300000	1000	0	0	-1	1000
12924635	106	823	0	-100	0	230	101300000	1000	0	0	-1	1000
12937195	106	820	0	-100	0	230	101300000	1000	0	0	-1	1000
12949755	104	820	0	-100	0	230	101300000	1000	0	0	-1	1000
12962315	111	820	0	-100	0	230	101300000	1000	0	0	-1	1000
12974875	101	823	0	-100	0	230	101300000	1000	0	0	-1	1000
12987435	111	819	0	-100	0	230	101300000	1000	0	0	-1	1000
12999995	104	815	0	-100	0	230	101300000	1000	0	0	-1	1000
13012555	106	821	0	-100	0	230	101300000	1000	0	0	-1	1000
13025115	109	818	0	-100	0	230	101300000	1000	0	0	-1	1000
13037675	104	822	0	-100	0	230	101300000	1000	0	0	-1	1000
13050235	109	817	0	-100	0	230	101300000	1000	0	0	-1	1000
13062795	106	827	0	-100	0	230	101300000	1000	0	0	-1	1000
13075355	109	818	0	-100	0	230	101300000	1000	0	0	-1	1000
13087915	104	824	0	-100	0	230	101300000	1000	0	0	-1	1000
13100475	109	816	0	-100	0	230	101300000	1000	0	0	-1	1000
13113035	101	822	0	-100	0	230	101300000	1000	0	0	-1	1000
13125595	109	818	0	-100	0	230	101300000	1000	0	0	-1	1000
13138155	104	818	0	-100	0	230	101300000	1000	0	0	-1	1000
13150715	104	820	0	-100	0	230	101300000	1000	0	0	-1	1000
13163275	104	817	0	-100	0	230	101300000	1000	0	0	-1	1000
13175835	109	817	0	-100	0	230	101300000	1000	0	0	-1	1000
13188395	106	823	0	-100	0	230	101300000	1000	0	0	-1	1000
13200955	111	817	0	-100	0	230	101300000	1000	0	0	-1	1000
13213515	106	826	0	-100	0	230	101300000	1000	0	0	-1	1000
13226075	111	820	0	-100	0	230	101300000	1000	0	0	-1	1000
13238635	104	825	0	-100	0	230	101300000	1000	0	0	-1	1000
13251195	111	818	0	-100	0	230	101300000	1000	0	0	-1	1000
13263755	104	823	0	-100	0	230	101300000	1000	0	0	-1	1000
13276315	104	818	0	-100	0	230	101300000	1000	0	0	-1	1000
13288875	101	823	0	-100	0	230	101300000	1000	0	0	-1	1000
13301435	109	816	0	-100	0	230	101300000	1000	0	0	-1	1000
13313995	106	818	0	-100	0	230	101300000	1000	0	0	-1	1000
13326555	106	818	0	-100	0	230	101300000	1000	0	0	-1	1000
13339115	111	816	0	-100	0	230	101300000	1000	0	0	-1	1000
13351675	109	817	0	-100	0	230	101300000	1000	0	0	-1	1000
13364235	104	822	0	-100	0	230	101300000	1000	0	0	-1	1000
13376795	101	824	0	-100	0	230	101300000	1000	0	0	-1	1000
13389355	111	822	0	-100	0	230	101300000	1000	0	0	-1	1000
13401915	109	816	0	-100	0	230	101300000	1000	0	0	-1	1000
13414475	106	824	0	-100	0	230	101300000	1000	0	0	-1	1000
13427035	104	822	0	-100	0	230	101300000	1000	0	0	-1	1000
13439595	109	816	0	-100	0	230	101300000	1000	0	0	-1	1000
13452155	101	821	0	-100	0	230	101300000	1000	0	0	-1	1000
13464715	104	821	0	-100	0	230	101300000	1000	0	0	-1	1000
13477275	111	818	0	-100	0	230	101300000	1000	0	0	-1	1000
13489835	109	817	0	-100	0	230	101300000	1000	0	0	-1	1000
13502395	104	822	0	-100	0	230	101300000	1000	0	0	-1	1000
13514955	104	824	0	-100	0	230	101300000	1000	0	0	-1	1000
13527515	104	824	0	-100	0	230	101300000	1000	0	0	-1	1000
13540075	104	821	0	-100	0	230	101300000	1000	0	0	-1	1000
13552635	111	819	0	-100	0	230	101300000	1000	0	0	-1	1000
13565195	109	818	0	-100	0	230	101300000	1000	0	0	-1	1000
13577755	106	817	0	-100	0	230	101300000	1000	0	0	-1	1000
13590315	106	824	0	-100	0	230	101300000	1000	0	0	-1	1000
13602875	104	822	0	-100	0	230	101300000	1000	0	0	-1	1000
13615435	111	815	0	-100	0	230	101300000	1000	0	0	-1	1000
13627995	109	818	0	-100	0	230	101300000	1000	0	0	-1	1000
13640555	104	825	0	-100	0	230	101300000	1000	0	0	-1	1000
13653115	104	822	0	-100	0	230	101300000	1000	0	0	-1	1000
13665675	111	818	0	-100	0	230	101300000	1000	0	0	-1	1000
13678235	106	818	0	-100	0	230	101300000	1000	0	0	-1	1000
13690795	106	825	0	-100	0	230	101300000	1000	0	0	-1	1000
13703355	104	822	0	-100	0	230	101300000	1000	0	0	-1	1000
13715915	113	819	0	-100	0	230	101300000	1000	0	0	-1	1000
13728475	111	818	0	-100	0	230	101300000	1000	0	0	-1	1000
13741035	104	821	0	-100	0	230	101300000	1000	0	0	-1	1000
13753595	104	825	0	-100	0	230	101300000	1000	0	0	-1	1000
13766155	109	817	0	-100	0	230	101300000	1000	0	0	-1	1000
13778715	109	817	0	-100	0	230	101300000	1000	0	0	-1	1000
13791275	104	820	0	-100	0	230	101300000	1000	0	0	-1	1000
13803835	106	823	0	-100	0	230	101300000	1000	0	0	-1	1000
13816395	109	815	0	-100	0	230	101300000	1000	0	0	-1	1000
13828955	106	817	0	-100	0	230	101300000	1000	0	0	-1	1000
13841515	104	823	0	-100	0	230	101300000	1000	0	0	-1	1000
13854075	104	821	0	-100	0	230	101300000	1000	0	0	-1	1000
13866635	111	815	0	-100	0	230	101300000	1000	0	0	-1	1000
13879195	109	816	0	-100	0	230	101300000	1000	0	0	-1	1000
13891755	104	820	0	-100	0	230	101300000	1000	0	0	-1	1000
13904315	106	826	0	-100	0	230	101300000	1000	0	0	-1	1000
13916875	109	819	0	-100	0	230	101300000	1000	0	0	-1	1000
13929435	111	818	0	-100	0	230	101300000	1000	0	0	-1	1000
13941995	104	815	0	-100	0	230	101300000	1000	0	0	-1	1000
13954555	104	824	0	-100	0	230	101300000	1000	0	0	-1	1000
13967115	104	819	0	-100	0	230	101300000	1000	0	0	-1	1000
13979675	111	817	0	-100	0	230	101300000	1000	0	0	-1	1000
13992235	109	817	0	-100	0	230	101300000	1000	0	0	-1	1000
14004795	109	817	0	-100	0	230	101300000	1000	0	0	-1	1000
14017355	106	818	0	-100	0	230	101300000	1000	0	0	-1	1000
14029915	106	820	0	-100	0	230	101300000	1000	0	0	-1	1000
14042475	104	821	0	-100	0	230	101300000	1000	0	0	-1	1000
14055035	106	826	0	-100	0	230	101300000	1000	0	0	-1	1000
14067595	104	823	0	-100	0	230	101300000	1000	0	0	-1	1000
14080155	104	822	0	-100	0	230	101300000	1000	0	0	-1	1000
14092715	106	824	0	-100	0	230	101300000	1000	0	0	-1	1000
14105275	109	817	0	-100	0	230	101300000	1000	0	0	-1	1000
14117835	111	815	0	-100	0	230	101300000	1000	0	0	-1	1000
14130395	109	815	0	-100	0	230	101300000	1000	0	0	-1	1000
14142955	109	816	0	-100	0	230	101300000	1000	0	0	-1	1000
14155515	109	816	0	-100	0	230	101300000	1000	0	0	-1	1000
14168075	109	817	0	-100	0	230	101300000	1000	0	0	-1	1000
14180635	104	818	0	-100	0	230	101300000	1000	0	0	-1	1000
14193195	104	820	0	-100	0	230	101300000	1000	0	0	-1	1000
14205755	104	821	0	-100	0	230	101300000	1000	0	0	-1	1000
14218315	104	818	0	-100	0	230	101300000	1000	0	0	-1	1000
14230875	106	819	0	-100	0	230	101300000	1000	0	0	-1	1000
14243435	109	817	0	-100	0	230	101300000	1000	0	0	-1	1000
14255995	106	819	0	-100	0	230	101300000	1000	0	0	-1	1000
14268555	109	818	0	-100	0	230	101300000	1000	0	0	-1	1000
14281115	106	820	0	-100	0	230	101300000	1000	0	0	-1	1000
14293675	104	817	0	-100	0	230	101300000	1000	0	0	-1	1000
14306235	104	816	0	-100	0	230	101300000	1000	0	0	-1	1000
14318795	104	819	0	-100	0	230	101300000	1000	0	0	-1	1000
14331355	106	823	0	-100	0	230	101300000	1000	0	0	-1	1000
14343915	104	820	0	-100	0	230	101300000	1000	0	0	-1	1000
14356475	104	817	0	-100	0	230	101300000	1000	0	0	-1	1000
14369035	106	821	0	-100	0	230	101300000	1000	0	0	-1	1000
14381595	104	817	0	-100	0	230	101300000	1000	0	0	-1	1000
14394155	104	820	0	-100	0	230	101300000	1000	0	0	-1	1000
14406715	104	822	0	-100	0	230	101300000	1000	0	0	-1	1000
14419275	104	820	0	-100	0	230	101300000	1000	0	0	-1	1000
14431835	104	825	0	-100	0	230	101300000	1000	0	0	-1	1000
14444395	104	826	0	-100	0	230	101300000	1000	0	0	-1	1000
14456955	104	825	0	-100	0	230	101300000	1000	0	0	-1	1000
14469515	104	827	0	-100	0	230	101300000	1000	0	0	-1	1000
14482075	104	823	0	-100	0	230	101300000	1000	0	0	-1	1000
14494635	104	823	0	-100	0	230	101300000	1000	0	0	-1	1000
14507195	104	821	0	-100	0	230	101300000	1000	0	0	-1	1000
14519755	111	820	0	-100	0	230	101300000	1000	0	0	-1	1000
14532315	111	818	0	-100	0	230	101300000	1000	0	0	-1	1000
14544875	109	816	0	-100	0	230	101300000	1000	0	0	-1	1000
14557435	106	819	0	-100	0	230	101300000	1000	0	0	-1	1000
14569995	106	819	0	-100	0	230	101300000	1000	0	0	-1	1000
14582555	106	822	0	-100	0	230	101300000	1000	0	0	-1	1000
14595115	104	825	0	-100	0	230	101300000	1000	0	0	-1	1000
14607675	101	824	0	-100	0	230	101300000	1000	0	0	-1	1000
14620235	99	822	0	-100	0	230	101300000	1000	0	0	-1	1000
14632795	106	819	0	-100	0	230	101300000	1000	0	0	-1	1000
14645355	109	815	0	-100	0	230	101300000	1000	0	0	-1	1000
14670475	106	818	0	-100	0	230	101300000	1000	0	0	-1	1000
14683035	106	818	0	-100	0	230	101300000	1000	0	0	-1	1000
14695595	109	816	0	-100	0	230	101300000	1000	0	0	-1	1000
14708155	106	818	0	-100	0	230	101300000	1000	0	0	-1	1000
14720715	104	817	0	-100	0	230	101300000	1000	0	0	-1	1000
14733275	104	821	0	-100	0	230	101300000	1000	0	0	-1	1000
14745835	106	820	0	-100	0	230	101300000	1000	0	0	-1	1000
14758395	106	819	0	-100	0	230	101300000	1000	0	0	-1	1000
14770955	104	816	0	-100	0	230	101300000	1000	0	0	-1	1000
14783515	104	820	0	-100	0	230	101300000	1000	0	0	-1	1000
14796075	106	827	0	-100	0	230	101300000	1000	0	0	-1	1000
14808635	101	824	0	-100	0	230	101300000	1000	0	0	-1	1000
14896555	111	818	0	-100	0	230	101300000	1000	0	0	-1	1000
14909115	111	820	0	-100	0	230	101300000	1000	0	0	-1	1000
14921675	109	818	0	-100	0	230	101300000	1000	0	0	-1	1000
14934235	111	821	0	-100	0	230	101300000	1000	0	0	-1	1000
14946795	111	820	0	-100	0	230	101300000	1000	0	0	-1	1000
14959355	111	817	0	-100	0	230	101300000	1000	0	0	-1	1000
14971915	111	816	0	-100	0	230	101300000	1000	0	0	-1	1000
14984475	109	816	0	-100	0	230	101300000	1000	0	0	-1	1000
14997035	109	816	0	-100	0	230	101300000	1000	0	0	-1	1000
15009595	111	819	0	-100	0	230	101300000	1000	0	0	-1	1000
15022155	109	817	0	-100	0	230	101300000	1000	0	0	-1	1000
15072395	106	825	0	-100	0	230	101300000	1000	0	0	-1	1000
15084955	101	828	0	-100	0	230	101300000	1000	0	0	-1	1000
15097515	104	823	0	-100	0	230	101300000	1000	0	0	-1	1000
15110075	104	826	0	-100	0	230	101300000	1000	0	0	-1	1000
15122635	104	827	0	-100	0	230	101300000	1000	0	0	-1	1000
15135195	104	825	0	-100	0	230	101300000	1000	0	0	-1	1000
15147755	106	820	0	-100	0	230	101300000	1000	0	0	-1	1000
15160315	109	818	0	-100	0	230	101300000	1000	0	0	-1	1000
15172875	113	820	0	-100	0	230	101300000	1000	0	0	-1	1000
15185435	111	819	0	-100	0	230	101300000	1000	0	0	-1	1000
15197995	106	819	0	-100	0	230	101300000	1000	0	0	-1	1000
15210555	106	820	0	-100	0	230	101300000	1000	0	0	-1	1000
15223115	101	822	0	-100	0	230	101300000	1000	0	0	-1	1000
15235675	104	821	0	-100	0	230	101300000	1000	0	0	-1	1000
15248235	106	827	0	-100	0	230	101300000	1000	0	0	-1	1000
15260795	106	829	0	-100	0	230	101300000	1000	0	0	-1	1000
15273355	101	826	0	-100	0	230	101300000	1000	0	0	-1	1000
15285915	104	815	0	-100	0	230	101300000	1000	0	0	-1	1000
15298475	106	825	0	-100	0	230	101300000	1000	0	0	-1	1000
15311035	106	825	0	-100	0	230	101300000	1000	0	0	-1	1000
15323595	106	825	0	-100	0	230	101300000	1000	0	0	-1	1000
15336155	106	828	0	-100	0	230	101300000	1000	0	0	-1	1000
15348715	106	824	0	-100	0	230	101300000	1000	0	0	-1	1000
15361275	101	821	0	-100	0	230	101300000	1000	0	0	-1	1000
15373835	106	819	0	-100	0	230	101300000	1000	0	0	-1	1000
15386395	111	816	0	-100	0	230	101300000	1000	0	0	-1	1000
15398955	111	817	0	-100	0	230	101300000	1000	0	0	-1	1000
15411515	106	819	0	-100	0	230	101300000	1000	0	0	-1	1000
15424075	104	816	0	-100	0	230	101300000	1000	0	0	-1	1000
15436635	104	818	0	-100	0	230	101300000	1000	0	0	-1	1000
15449195	104	825	0	-100	0	230	101300000	1000	0	0	-1	1000
15461755	101	825	0	-100	0	230	101300000	1000	0	0	-1	1000
15474315	101	823	0	-100	0	230	101300000	1000	0	0	-1	1000
15486875	106	825	0	-100	0	230	101300000	1000	0	0	-1	1000
15499435	104	839	0	-100	0	230	101300000	1000	0	0	-1	1000
15511995	104	820	0	-100	0	230	101300000	1000	0	0	-1	1000
15524555	104	827	0	-100	0	230	101300000	1000	0	0	-1	1000
15537115	104	827	0	-100	0	230	101300000	1000	0	0	-1	1000
15549675	104	827	0	-100	0	230	101300000	1000	0	0	-1	1000
15562235	104	824	0	-100	0	230	101300000	1000	0	0	-1	1000
15574795	104	824	0	-100	0	230	101300000	1000	0	0	-1	1000
15587355	101	826	0	-100	0	230	101300000	1000	0	0	-1	1000
15599915	104	826	0	-100	0	230	101300000	1000	0	0	-1	1000
15612475	104	827	0	-100	0	230	101300000	1000	0	0	-1	1000
15625035	104	824	0	-100	0	230	101300000	1000	0	0	-1	1000
15637595	106	824	0	-100	0	230	101300000	1000	0	0	-1	1000
15650155	101	832	0	-100	0	230	101300000	1000	0	0	-1	1000
15662715	104	825	0	-100	0	230	101300000	1000	0	0	-1	1000
15675275	104	827	0	-100	0	230	101300000	1000	0	0	-1	1000
15687835	106	825	0	-100	0	230	101300000	1000	0	0	-1	1000
15700395	104	824	0	-100	0	230	101300000	1000	0	0	-1	1000
15712955	104	824	0	-100	0	230	101300000	1000	0	0	-1	1000
15725515	101	820	0	-100	0	230	101300000	1000	0	0	-1	1000
15738075	104	808	0	-100	0	230	101300000	1000	0	0	-1	1000
15750635	101	820	0	-100	0	230	101300000	1000	0	0	-1	1000
15763195	104	822	0	-100	0	230	101300000	1000	0	0	-1	1000
15775755	106	819	0	-100	0	230	101300000	1000	0	0	-1	1000
15788315	109	817	0	-100	0	230	101300000	1000	0	0	-1	1000
15800875	109	816	0	-100	0	230	101300000	1000	0	0	-1	1000
15813435	111	818	0	-100	0	230	101300000	1000	0	0	-1	1000
15825995	106	777	0	-100	0	230	101300000	1000	0	0	-1	1000
15838555	104	823	0	-100	0	230	101300000	1000	0	0	-1	1000
15851115	106	831	0	-100	0	230	101300000	1000	0	0	-1	1000
15863675	104	822	0	-100	0	230	101300000	1000	0	0	-1	1000
15876235	101	823	0	-100	0	230	101300000	1000	0	0	-1	1000
15888795	104	825	0	-100	0	230	101300000	1000	0	0	-1	1000
15901355	106	822	0	-100	0	230	101300000	1000	0	0	-1	1000
15913915	104	820	0	-100	0	230	101300000	1000	0	0	-1	1000
15926475	104	822	0	-100	0	230	101300000	1000	0	0	-1	1000
15939035	104	821	0	-100	0	230	101300000	1000	0	0	-1	1000
15951595	104	823	0	-100	0	230	101300000	1000	0	0	-1	1000
15964155	101	824	0	-100	0	230	101300000	1000	0	0	-1	1000
15976715	106	831	0	-100	0	230	101300000	1000	0	0	-1	1000
15989275	104	820	0	-100	0	230	101300000	1000	0	0	-1	1000
16001835	106	817	0	-100	0	230	101300000	1000	0	0	-1	1000
16014395	109	816	0	-100	0	230	101300000	1000	0	0	-1	1000
16026955	106	818	0	-100	0	230	101300000	1000	0	0	-1	1000
16039515	106	820	0	-100	0	230	101300000	1000	0	0	-1	1000
16052075	109	819	0	-100	0	230	101300000	1000	0	0	-1	1000
16064635	111	817	0	-100	0	230	101300000	1000	0	0	-1	1000
16077195	109	817	0	-100	0	230	101300000	1000	0	0	-1	1000
16089755	111	815	0	-100	0	230	101300000	1000	0	0	-1	1000
16102315	109	821	0	-100	0	230	101300000	1000	0	0	-1	1000
16114875	109	820	0	-100	0	230	101300000	1000	0	0	-1	1000
16127435	106	821	0	-100	0	230	101300000	1000	0	0	-1	1000
16139995	104	819	0	-100	0	230	101300000	1000	0	0	-1	1000
16152555	104	823	0	-100	0	230	101300000	1000	0	0	-1	1000
16165115	106	828	0	-100	0	230	101300000	1000	0	0	-1	1000
16177675	104	819	0	-100	0	230	101300000	1000	0	0	-1	1000
16190235	106	823	0	-100	0	230	101300000	1000	0	0	-1	1000
16202795	109	816	0	-100	0	230	101300000	1000	0	0	-1	1000
16215355	109	820	0	-100	0	230	101300000	1000	0	0	-1	1000
16227915	111	817	0	-100	0	230	101300000	1000	0	0	-1	1000
16240475	111	822	0	-100	0	230	101300000	1000	0	0	-1	1000
16253035	111	813	0	-100	0	230	101300000	1000	0	0	-1	1000
16265595	111	817	0	-100	0	230	101300000	1000	0	0	-1	1000
16278155	109	789	0	-100	0	230	101300000	1000	0	0	-1	1000
16290715	109	817	0	-100	0	230	101300000	1000	0	0	-1	1000
16303275	109	819	0	-100	0	230	101300000	1000	0	0	-1	1000
16315835	101	821	0	-100	0	230	101300000	1000	0	0	-1	1000
16328395	101	819	0	-100	0	230	101300000	1000	0	0	-1	1000
16340955	101	820	0	-100	0	230	101300000	1000	0	0	-1	1000
16353515	104	822	0	-100	0	230	101300000	1000	0	0	-1	1000
16366075	106	820	0	-100	0	230	101300000	1000	0	0	-1	1000
16378635	104	820	0	-100	0	230	101300000	1000	0	0	-1	1000
16391195	101	818	0	-100	0	230	101300000	1000	0	0	-1	1000
16403755	104	820	0	-100	0	230	101300000	1000	0	0	-1	1000
16416315	104	818	0	-100	0	230	101300000	1000	0	0	-1	1000
16428875	106	815	0	-100	0	230	101300000	1000	0	0	-1	1000
16441435	111	818	0	-100	0	230	101300000	1000	0	0	-1	1000
16453995	109	821	0	-100	0	230	101300000	1000	0	0	-1	1000
16466555	106	827	0	-100	0	230	101300000	1000	0	0	-1	1000
16479115	104	824	0	-100	0	230	101300000	1000	0	0	-1	1000
16491675	109	816	0	-100	0	230	101300000	1000	0	0	-1	1000
16504235	109	819	0	-100	0	230	101300000	1000	0	0	-1	1000
16516795	109	816	0	-100	0	230	101300000	1000	0	0	-1	1000
16529355	101	824	0	-100	0	230	101300000	1000	0	0	-1	1000
16541915	104	822	0	-100	0	230	101300000	1000	0	0	-1	1000
16554475	104	820	0	-100	0	230	101300000	1000	0	0	-1	1000
16567035	104	817	0	-100	0	230	101300000	1000	0	0	-1	1000
16579595	109	837	0	-100	0	230	101300000	1000	0	0	-1	1000
16592155	111	817	0	-100	0	230	101300000	1000	0	0	-1	1000
16604715	111	819	0	-100	0	230	101300000	1000	0	0	-1	1000
16617275	104	821	0	-100	0	230	101300000	1000	0	0	-1	1000
16629835	104	824	0	-100	0	230	101300000	1000	0	0	-1	1000
16642395	106	823	0	-100	0	230	101300000	1000	0	0	-1	1000
16654955	106	818	0	-100	0	230	101300000	1000	0	0	-1	1000
16667515	109	816	0	-100	0	230	101300000	1000	0	0	-1	1000
16680075	111	817	0	-100	0	230	101300000	1000	0	0	-1	1000
16692635	104	821	0	-100	0	230	101300000	1000	0	0	-1	1000
16705195	104	825	0	-100	0	230	101300000	1000	0	0	-1	1000
16717755	104	821	0	-100	0	230	101300000	1000	0	0	-1	1000
16730315	109	816	0	-100	0	230	101300000	1000	0	0	-1	1000
16742875	111	819	0	-100	0	230	101300000	1000	0	0	-1	1000
16755435	104	821	0	-100	0	230	101300000	1000	0	0	-1	1000
16767995	104	817	0	-100	0	230	101300000	1000	0	0	-1	1000
16780555	109	822	0	-100	0	230	101300000	1000	0	0	-1	1000
16793115	106	819	0	-100	0	230	101300000	1000	0	0	-1	1000
16805675	111	819	0	-100	0	230	101300000	1000	0	0	-1	1000
16818235	111	818	0	-100	0	230	101300000	1000	0	0	-1	1000
16830795	106	820	0	-100	0	230	101300000	1000	0	0	-1	1000
16843355	101	824	0	-100	0	230	101300000	1000	0	0	-1	1000
16855915	104	824	0	-100	0	230	101300000	1000	0	0	-1	1000
16868475	106	824	0	-100	0	230	101300000	1000	0	0	-1	1000
16881035	104	821	0	-100	0	230	101300000	1000	0	0	-1	1000
16893595	106	819	0	-100	0	230	101300000	1000	0	0	-1	1000
16906155	111	818	0	-100	0	230	101300000	1000	0	0	-1	1000
16918715	106	822	0	-100	0	230	101300000	1000	0	0	-1	1000
16931275	104	823	0	-100	0	230	101300000	1000	0	0	-1	1000
16943835	104	820	0	-100	0	230	101300000	1000	0	0	-1	1000
16956395	106	817	0	-100	0	230	101300000	1000	0	0	-1	1000
16968955	109	818	0	-100	0	230	101300000	1000	0	0	-1	1000
16981515	111	817	0	-100	0	230	101300000	1000	0	0	-1	1000
16994075	104	821	0	-100	0	230	101300000	1000	0	0	-1	1000
17006635	106	826	0	-100	0	230	101300000	1000	0	0	-1	1000
17019195	106	819	0	-100	0	230	101300000	1000	0	0	-1	1000
17031755	111	820	0	-100	0	230	101300000	1000	0	0	-1	1000
17044315	101	824	0	-100	0	230	101300000	1000	0	0	-1	1000
17056875	109	822	0	-100	0	230	101300000	1000	0	0	-1	1000
17069435	109	817	0	-100	0	230	101300000	1000	0	0	-1	1000
17081995	111	826	0	-100	0	230	101300000	1000	0	0	-1	1000
17094555	104	820	0	-100	0	230	101300000	1000	0	0	-1	1000
17107115	99	823	0	-100	0	230	101300000	1000	0	0	-1	1000
17119675	104	825	0	-100	0	230	101300000	1000	0	0	-1	1000
17132235	106	826	0	-100	0	230	101300000	1000	0	0	-1	1000
17144795	106	828	0	-100	0	230	101300000	1000	0	0	-1	1000
17157355	106	822	0	-100	0	230	101300000	1000	0	0	-1	1000
17169915	104	820	0	-100	0	230	101300000	1000	0	0	-1	1000
17182475	104	822	0	-100	0	230	101300000	1000	0	0	-1	1000
17195035	104	818	0	-100	0	230	101300000	1000	0	0	-1	1000
17207595	106	819	0	-100	0	230	101300000	1000	0	0	-1	1000
17220155	111	819	0	-100	0	230	101300000	1000	0	0	-1	1000
17232715	111	815	0	-100	0	230	101300000	1000	0	0	-1	1000
17245275	113	820	0	-100	0	230	101300000	1000	0	0	-1	1000
17257835	111	819	0	-100	0	230	101300000	1000	0	0	-1	1000
17270395	109	818	0	-100	0	230	101300000	1000	0	0	-1	1000
17282955	104	819	0	-100	0	230	101300000	1000	0	0	-1	1000
17295515	106	822	0	-100	0	230	101300000	1000	0	0	-1	1000
17308075	101	824	0	-100	0	230	101300000	1000	0	0	-1	1000
17320635	104	824	0	-100	0	230	101300000	1000	0	0	-1	1000
17333195	104	822	0	-100	0	230	101300000	1000	0	0	-1	1000
17345755	104	821	0	-100	0	230	101300000	1000	0	0	-1	1000
17358315	104	822	0	-100	0	230	101300000	1000	0	0	-1	1000
17370875	104	821	0	-100	0	230	101300000	1000	0	0	-1	1000
17383435	104	822	0	-100	0	230	101300000	1000	0	0	-1	1000
17395995	104	816	0	-100	0	230	101300000	1000	0	0	-1	1000
17408555	106	828	0	-100	0	230	101300000	1000	0	0	-1	1000
17421115	104	819	0	-100	0	230	101300000	1000	0	0	-1	1000
17433675	111	818	0	-100	0	230	101300000	1000	0	0	-1	1000
17446235	109	816	0	-100	0	230	101300000	1000	0	0	-1	1000
17458795	106	818	0	-100	0	230	101300000	1000	0	0	-1	1000
17471355	104	821	0	-100	0	230	101300000	1000	0	0	-1	1000
17483915	104	824	0	-100	0	230	101300000	1000	0	0	-1	1000
17496475	106	823	0	-100	0	230	101300000	1000	0	0	-1	1000
17509035	109	818	0	-100	0	230	101300000	1000	0	0	-1	1000
17521595	111	818	0	-100	0	230	101300000	1000	0	0	-1	1000
17534155	104	820	0	-100	0	230	101300000	1000	0	0	-1	1000
17546715	104	824	0	-100	0	230	101300000	1000	0	0	-1	1000
17559275	104	822	0	-100	0	230	101300000	1000	0	0	-1	1000
17571835	111	819	0	-100	0	230	101300000	1000	0	0	-1	1000
17584395	104	821	0	-100	0	230	101300000	1000	0	0	-1	1000
17596955	104	826	0	-100	0	230	101300000	1000	0	0	-1	1000
17609515	106	819	0	-100	0	230	101300000	1000	0	0	-1	1000
17622075	111	818	0	-100	0	230	101300000	1000	0	0	-1	1000
17634635	106	819	0	-100	0	230	101300000	1000	0	0	-1	1000
17647195	104	824	0	-100	0	230	101300000	1000	0	0	-1	1000
17659755	104	824	0	-100	0	230	101300000	1000	0	0	-1	1000
17672315	104	817	0	-100	0	230	101300000	1000	0	0	-1	1000
17684875	109	816	0	-100	0	230	101300000	1000	0	0	-1	1000
17697435	106	818	0	-100	0	230	101300000	1000	0	0	-1	1000
17709995	104	818	0	-100	0	230	101300000	1000	0	0	-1	1000
17722555	104	825	0	-100	0	230	101300000	1000	0	0	-1	1000
17735115	106	822	0	-100	0	230	101300000	1000	0	0	-1	1000
17747675	111	818	0	-100	0	230	101300000	1000	0	0	-1	1000
17785355	104	824	0	-100	0	230	101300000	1000	0	0	-1	1000
17797915	101	823	0	-100	0	230	101300000	1000	0	0	-1	1000
17810475	109	818	0	-100	0	230	101300000	1000	0	0	-1	1000
17823035	111	820	0	-100	0	230	101300000	1000	0	0	-1	1000
17835595	111	820	0	-100	0	230	101300000	1000	0	0	-1	1000
17848155	104	824	0	-100	0	230	101300000	1000	0	0	-1	1000
17860715	106	823	0	-100	0	230	101300000	1000	0	0	-1	1000
17873275	109	817	0	-100	0	230	101300000	1000	0	0	-1	1000
17885835	111	818	0	-100	0	230	101300000	1000	0	0	-1	1000
17898395	104	820	0	-100	0	230	101300000	1000	0	0	-1	1000
17910955	104	827	0	-100	0	230	101300000	1000	0	0	-1	1000
17923515	106	818	0	-100	0	230	101300000	1000	0	0	-1	1000
17998875	109	818	0	-100	0	230	101300000	1000	0	0	-1	1000
18011435	109	817	0	-100	0	230	101300000	1000	0	0	-1	1000
18023995	111	825	0	-100	0	230	101300000	1000	0	0	-1	1000
18036555	106	821	0	-100	0	230	101300000	1000	0	0	-1	1000
18049115	101	826	0	-100	0	230	101300000	1000	0	0	-1	1000
18061675	106	825	0	-100	0	230	101300000	1000	0	0	-1	1000
18074235	106	820	0	-100	0	230	101300000	1000	0	0	-1	1000
18086795	111	818	0	-100	0	230	101300000	1000	0	0	-1	1000
18099355	111	820	0	-100	0	230	101300000	1000	0	0	-1	1000
18111915	104	823	0	-100	0	230	101300000	1000	0	0	-1	1000
18124475	106	824	0	-100	0	230	101300000	1000	0	0	-1	1000
18137035	111	819	0	-100	0	230	101300000	1000	0	0	-1	1000
18149595	101	823	0	-100	0	230	101300000	1000	0	0	-1	1000
18162155	104	822	0	-100	0	230	101300000	1000	0	0	-1	1000
18174715	104	817	0	-100	0	230	101300000	1000	0	0	-1	1000
18187275	109	817	0	-100	0	230	101300000	1000	0	0	-1	1000
18199835	106	822	0	-100	0	230	101300000	1000	0	0	-1	1000
18212395	104	824	0	-100	0	230	101300000	1000	0	0	-1	1000
18224955	104	822	0	-100	0	230	101300000	1000	0	0	-1	1000
18237515	109	816	0	-100	0	230	101300000	1000	0	0	-1	1000
18250075	111	817	0	-100	0	230	101300000	1000	0	0	-1	1000
18262635	104	821	0	-100	0	230	101300000	1000	0	0	-1	1000
18275195	106	827	0	-100	0	230	101300000	1000	0	0	-1	1000
18287755	104	819	0	-100	0	230	101300000	1000	0	0	-1	1000
18300315	111	820	0	-100	0	230	101300000	1000	0	0	-1	1000
18312875	106	820	0	-100	0	230	101300000	1000	0	0	-1	1000
18325435	104	825	0	-100	0	230	101300000	1000	0	0	-1	1000
18337995	106	818	0	-100	0	230	101300000	1000	0	0	-1	1000
18350555	111	821	0	-100	0	230	101300000	1000	0	0	-1	1000
18363115	106	818	0	-100	0	230	101300000	1000	0	0	-1	1000
18375675	104	825	0	-100	0	230	101300000	1000	0	0	-1	1000
18388235	104	821	0	-100	0	230	101300000	1000	0	0	-1	1000
18400795	109	817	0	-100	0	230	101300000	1000	0	0	-1	1000
18413355	111	820	0	-100	0	230	101300000	1000	0	0	-1	1000
18425915	104	825	0	-100	0	230	101300000	1000	0	0	-1	1000
18438475	104	822	0	-100	0	230	101300000	1000	0	0	-1	1000
18451035	113	820	0	-100	0	230	101300000	1000	0	0	-1	1000
18463595	109	819	0	-100	0	230	101300000	1000	0	0	-1	1000
18476155	104	823	0	-100	0	230	101300000	1000	0	0	-1	1000
18488715	104	816	0	-100	0	230	101300000	1000	0	0	-1	1000
18501275	111	819	0	-100	0	230	101300000	1000	0	0	-1	1000
18513835	106	821	0	-100	0	230	101300000	1000	0	0	-1	1000
18526395	104	824	0	-100	0	230	101300000	1000	0	0	-1	1000
18538955	104	819	0	-100	0	230	101300000	1000	0	0	-1	1000
18551515	109	815	0	-100	0	230	101300000	1000	0	0	-1	1000
18564075	111	818	0	-100	0	230	101300000	1000	0	0	-1	1000
18576635	104	825	0	-100	0	230	101300000	1000	0	0	-1	1000
18589195	106	819	0	-100	0	230	101300000	1000	0	0	-1	1000
18601755	111	817	0	-100	0	230	101300000	1000	0	0	-1	1000
18614315	104	820	0	-100	0	230	101300000	1000	0	0	-1	1000
18626875	104	825	0	-100	0	230	101300000	1000	0	0	-1	1000
18639435	104	819	0	-100	0	230	101300000	1000	0	0	-1	1000
18651995	109	821	0	-100	0	230	101300000	1000	0	0	-1	1000
18664555	111	819	0	-100	0	230	101300000	1000	0	0	-1	1000
18677115	104	823	0	-100	0	230	101300000	1000	0	0	-1	1000
18689675	104	825	0	-100	0	230	101300000	1000	0	0	-1	1000
18702235	104	819	0	-100	0	230	101300000	1000	0	0	-1	1000
18714795	111	818	0	-100	0	230	101300000	1000	0	0	-1	1000
18727355	106	820	0	-100	0	230	101300000	1000	0	0	-1	1000
18739915	104	824	0	-100	0	230	101300000	1000	0	0	-1	1000
18752475	104	820	0	-100	0	230	101300000	1000	0	0	-1	1000
18765035	111	818	0	-100	0	230	101300000	1000	0	0	-1	1000
18777595	109	816	0	-100	0	230	101300000	1000	0	0	-1	1000
18790155	109	816	0	-100	0	230	101300000	1000	0	0	-1	1000
18802715	111	820	0	-100	0	230	101300000	1000	0	0	-1	1000
18815275	106	821	0	-100	0	230	101300000	1000	0	0	-1	1000
18827835	101	824	0	-100	0	230	101300000	1000	0	0	-1	1000
18840395	104	827	0	-100	0	230	101300000	1000	0	0	-1	1000
18852955	104	819	0	-100	0	230	101300000	1000	0	0	-1	1000
18865515	111	817	0	-100	0	230	101300000	1000	0	0	-1	1000
18878075	111	820	0	-100	0	230	101300000	1000	0	0	-1	1000
18890635	109	817	0	-100	0	230	101300000	1000	0	0	-1	1000
18903195	106	822	0	-100	0	230	101300000	1000	0	0	-1	1000
18915755	104	824	0	-100	0	230	101300000	1000	0	0	-1	1000
18928315	104	825	0	-100	0	230	101300000	1000	0	0	-1	1000
18940875	101	825	0	-100	0	230	101300000	1000	0	0	-1	1000
18953435	101	825	0	-100	0	230	101300000	1000	0	0	-1	1000
18965995	109	819	0	-100	0	230	101300000	1000	0	0	-1	1000
18978555	106	828	0	-100	0	230	101300000	1000	0	0	-1	1000
18991115	106	827	0	-100	0	230	101300000	1000	0	0	-1	1000
19003675	106	827	0	-100	0	230	101300000	1000	0	0	-1	1000
19016235	106	824	0	-100	0	230	101300000	1000	0	0	-1	1000
19028795	104	820	0	-100	0	230	101300000	1000	0	0	-1	1000
19041355	104	820	0	-100	0	230	101300000	1000	0	0	-1	1000
19053915	104	821	0	-100	0	230	101300000	1000	0	0	-1	1000
19066475	106	817	0	-100	0	230	101300000	1000	0	0	-1	1000
19079035	109	816	0	-100	0	230	101300000	1000	0	0	-1	1000
19091595	109	817	0	-100	0	230	101300000	1000	0	0	-1	1000
19104155	109	817	0	-100	0	230	101300000	1000	0	0	-1	1000
19116715	109	817	0	-100	0	230	101300000	1000	0	0	-1	1000
19129275	109	819	0	-100	0	230	101300000	1000	0	0	-1	1000
19141835	109	817	0	-100	0	230	101300000	1000	0	0	-1	1000
19154395	111	818	0	-100	0	230	101300000	1000	0	0	-1	1000
19166955	111	816	0	-100	0	230	101300000	1000	0	0	-1	1000
19179515	111	818	0	-100	0	230	101300000	1000	0	0	-1	1000
19192075	109	818	0	-100	0	230	101300000	1000	0	0	-1	1000
19204635	113	819	0	-100	0	230	101300000	1000	0	0	-1	1000
19217195	109	817	0	-100	0	230	101300000	1000	0	0	-1	1000
19229755	104	821	0	-100	0	230	101300000	1000	0	0	-1	1000
19242315	101	822	0	-100	0	230	101300000	1000	0	0	-1	1000
19254875	101	822	0	-100	0	230	101300000	1000	0	0	-1	1000
19267435	104	823	0	-100	0	230	101300000	1000	0	0	-1	1000
19279995	104	817	0	-100	0	230	101300000	1000	0	0	-1	1000
19292555	104	825	0	-100	0	230	101300000	1000	0	0	-1	1000
19305115	106	822	0	-100	0	230	101300000	1000	0	0	-1	1000
19317675	104	818	0	-100	0	230	101300000	1000	0	0	-1	1000
19330235	109	816	0	-100	0	230	101300000	1000	0	0	-1	1000
19342795	111	815	0	-100	0	230	101300000	1000	0	0	-1	1000
19355355	109	817	0	-100	0	230	101300000	1000	0	0	-1	1000
19367915	104	820	0	-100	0	230	101300000	1000	0	0	-1	1000
19380475	104	819	0	-100	0	230	101300000	1000	0	0	-1	1000
19393035	106	821	0	-100	0	230	101300000	1000	0	0	-1	1000
19405595	104	822	0	-100	0	230	101300000	1000	0	0	-1	1000
19418155	104	822	0	-100	0	230	101300000	1000	0	0	-1	1000
19430715	104	826	0	-100	0	230	101300000	1000	0	0	-1	1000
19443275	106	826	0	-100	0	230	101300000	1000	0	0	-1	1000
19455835	101	824	0	-100	0	230	101300000	1000	0	0	-1	1000
19468395	104	817	0	-100	0	230	101300000	1000	0	0	-1	1000
19480955	106	819	0	-100	0	230	101300000	1000	0	0	-1	1000
19493515	109	818	0	-100	0	230	101300000	1000	0	0	-1	1000
19506075	111	817	0	-100	0	230	101300000	1000	0	0	-1	1000
19518635	106	821	0	-100	0	230	101300000	1000	0	0	-1	1000
19531195	104	824	0	-100	0	230	101300000	1000	0	0	-1	1000
19543755	106	826	0	-100	0	230	101300000	1000	0	0	-1	1000
19556315	101	822	0	-100	0	230	101300000	1000	0	0	-1	1000
19568875	104	816	0	-100	0	230	101300000	1000	0	0	-1	1000
19581435	111	819	0	-100	0	230	101300000	1000	0	0	-1	1000
19593995	109	821	0	-100	0	230	101300000	1000	0	0	-1	1000
19606555	109	818	0	-100	0	230	101300000	1000	0	0	-1	1000
19619115	109	818	0	-100	0	230	101300000	1000	0	0	-1	1000
19631675	111	820	0	-100	0	230	101300000	1000	0	0	-1	1000
19644235	109	818	0	-100	0	230	101300000	1000	0	0	-1	1000
19656795	104	822	0	-100	0	230	101300000	1000	0	0	-1	1000
19669355	104	824	0	-100	0	230	101300000	1000	0	0	-1	1000
19681915	106	825	0	-100	0	230	101300000	1000	0	0	-1	1000
19694475	104	819	0	-100	0	230	101300000	1000	0	0	-1	1000
19707035	109	817	0	-100	0	230	101300000	1000	0	0	-1	1000
19719595	109	816	0	-100	0	230	101300000	1000	0	0	-1	1000
19732155	111	820	0	-100	0	230	101300000	1000	0	0	-1	1000
19744715	106	821	0	-100	0	230	101300000	1000	0	0	-1	1000
19757275	101	825	0	-100	0	230	101300000	1000	0	0	-1	1000
19769835	101	825	0	-100	0	230	101300000	1000	0	0	-1	1000
19782395	106	824	0	-100	0	230	101300000	1000	0	0	-1	1000
19794955	106	820	0	-100	0	230	101300000	1000	0	0	-1	1000
19807515	111	820	0	-100	0	230	101300000	1000	0	0	-1	1000
19820075	111	819	0	-100	0	230	101300000	1000	0	0	-1	1000
19832635	111	817	0	-100	0	230	101300000	1000	0	0	-1	1000
19845195	104	822	0	-100	0	230	101300000	1000	0	0	-1	1000
19857755	101	826	0	-100	0	230	101300000	1000	0	0	-1	1000
19870315	104	820	0	-100	0	230	101300000	1000	0	0	-1	1000
19882875	111	818	0	-100	0	230	101300000	1000	0	0	-1	1000
19895435	111	820	0	-100	0	230	101300000	1000	0	0	-1	1000
19907995	104	816	0	-100	0	230	101300000	1000	0	0	-1	1000
19920555	106	828	0	-100	0	230	101300000	1000	0	0	-1	1000
19933115	104	821	0	-100	0	230	101300000	1000	0	0	-1	1000
19945675	106	818	0	-100	0	230	101300000	1000	0	0	-1	1000
19958235	111	821	0	-100	0	230	101300000	1000	0	0	-1	1000
19970795	113	818	0	-100	0	230	101300000	1000	0	0	-1	1000
19983355	109	821	0	-100	0	230	101300000	1000	0	0	-1	1000
19995915	101	822	0	-100	0	230	101300000	1000	0	0	-1	1000
20008475	104	825	0	-100	0	230	101300000	1000	0	0	-1	1000
20021035	104	825	0	-100	0	230	101300000	1000	0	0	-1	1000
20033595	101	822	0	-100	0	230	101300000	1000	0	0	-1	1000
20046155	104	817	0	-100	0	230	101300000	1000	0	0	-1	1000
20058715	106	818	0	-100	0	230	101300000	1000	0	0	-1	1000
20071275	106	817	0	-100	0	230	101300000	1000	0	0	-1	1000
20083835	109	818	0	-100	0	230	101300000	1000	0	0	-1	1000
20096395	109	816	0	-100	0	230	101300000	1000	0	0	-1	1000
20108955	109	816	0	-100	0	230	101300000	1000	0	0	-1	1000
20121515	111	817	0	-100	0	230	101300000	1000	0	0	-1	1000
20134075	106	818	0	-100	0	230	101300000	1000	0	0	-1	1000
20146635	101	823	0	-100	0	230	101300000	1000	0	0	-1	1000
20159195	106	823	0	-100	0	230	101300000	1000	0	0	-1	1000
20171755	106	817	0	-100	0	230	101300000	1000	0	0	-1	1000
20184315	111	817	0	-100	0	230	101300000	1000	0	0	-1	1000
20196875	111	820	0	-100	0	230	101300000	1000	0	0	-1	1000
20209435	104	821	0	-100	0	230	101300000	1000	0	0	-1	1000
20221995	106	818	0	-100	0	230	101300000	1000	0	0	-1	1000
20234555	104	819	0	-100	0	230	101300000	1000	0	0	-1	1000
20247115	109	819	0	-100	0	230	101300000	1000	0	0	-1	1000
20259675	106	819	0	-100	0	230	101300000	1000	0	0	-1	1000
20272235	104	822	0	-100	0	230	101300000	1000	0	0	-1	1000
20284795	106	827	0	-100	0	230	101300000	1000	0	0	-1	1000
20297355	104	820	0	-100	0	230	101300000	1000	0	0	-1	1000
20309915	106	819	0	-100	0	230	101300000	1000	0	0	-1	1000
20322475	109	817	0	-100	0	230	101300000	1000	0	0	-1	1000
20335035	111	818	0	-100	0	230	101300000	1000	0	0	-1	1000
20347595	111	819	0	-100	0	230	101300000	1000	0	0	-1	1000
20360155	106	820	0	-100	0	230	101300000	1000	0	0	-1	1000
20372715	106	823	0	-100	0	230	101300000	1000	0	0	-1	1000
20385275	104	824	0	-100	0	230	101300000	1000	0	0	-1	1000
20397835	106	823	0	-100	0	230	101300000	1000	0	0	-1	1000
20410395	106	819	0	-100	0	230	101300000	1000	0	0	-1	1000
20422955	109	814	0	-100	0	230	101300000	1000	0	0	-1	1000
20435515	106	820	0	-100	0	230	101300000	1000	0	0	-1	1000
20448075	101	825	0	-100	0	230	101300000	1000	0	0	-1	1000
20460635	106	822	0	-100	0	230	101300000	1000	0	0	-1	1000
20473195	109	816	0	-100	0	230	101300000	1000	0	0	-1	1000
20485755	111	820	0	-100	0	230	101300000	1000	0	0	-1	1000
20498315	104	824	0	-100	0	230	101300000	1000	0	0	-1	1000
20510875	104	820	0	-100	0	230	101300000	1000	0	0	-1	1000
20523435	111	817	0	-100	0	230	101300000	1000	0	0	-1	1000
20535995	109	825	0	-100	0	230	101300000	1000	0	0	-1	1000
20548555	106	828	0	-100	0	230	101300000	1000	0	0	-1	1000
20561115	111	818	0	-100	0	230	101300000	1000	0	0	-1	1000
20573675	101	825	0	-100	0	230	101300000	1000	0	0	-1	1000
20586235	101	822	0	-100	0	230	101300000	1000	0	0	-1	1000
20598795	111	820	0	-100	0	230	101300000	1000	0	0	-1	1000
20611355	104	821	0	-100	0	230	101300000	1000	0	0	-1	1000
20623915	101	823	0	-100	0	230	101300000	1000	0	0	-1	1000
20636475	111	819	0	-100	0	230	101300000	1000	0	0	-1	1000
20649035	104	825	0	-100	0	230	101300000	1000	0	0	-1	1000
20661595	106	819	0	-100	0	230	101300000	1000	0	0	-1	1000
20674155	106	818	0	-100	0	230	101300000	1000	0	0	-1	1000
20686715	104	821	0	-100	0	230	101300000	1000	0	0	-1	1000
20699275	111	819	0	-100	0	230	101300000	1000	0	0	-1	1000
20711835	101	825	0	-100	0	230	101300000	1000	0	0	-1	1000
20724395	106	824	0	-100	0	230	101300000	1000	0	0	-1	1000
20736955	109	817	0	-100	0	230	101300000	1000	0	0	-1	1000
20749515	104	826	0	-100	0	230	101300000	1000	0	0	-1	1000
20762075	109	817	0	-100	0	230	101300000	1000	0	0	-1	1000
20774635	101	823	0	-100	0	230	101300000	1000	0	0	-1	1000
20787195	106	819	0	-100	0	230	101300000	1000	0	0	-1	1000
20799755	113	819	0	-100	0	230	101300000	1000	0	0	-1	1000
20812315	106	827	0	-100	0	230	101300000	1000	0	0	-1	1000
20824875	111	819	0	-100	0	230	101300000	1000	0	0	-1	1000
20900235	101	825	0	-100	0	230	101300000	1000	0	0	-1	1000
20912795	109	816	0	-100	0	230	101300000	1000	0	0	-1	1000
20925355	106	822	0	-100	0	230	101300000	1000	0	0	-1	1000
20937915	104	817	0	-100	0	230	101300000	1000	0	0	-1	1000
20950475	111	817	0	-100	0	230	101300000	1000	0	0	-1	1000
20963035	104	823	0	-100	0	230	101300000	1000	0	0	-1	1000
20975595	109	817	0	-100	0	230	101300000	1000	0	0	-1	1000
20988155	104	820	0	-100	0	230	101300000	1000	0	0	-1	1000
21000715	106	817	0	-100	0	230	101300000	1000	0	0	-1	1000
21013275	101	822	0	-100	0	230	101300000	1000	0	0	-1	1000
21025835	101	822	0	-100	0	230	101300000	1000	0	0	-1	1000
21038395	109	817	0	-100	0	230	101300000	1000	0	0	-1	1000
21076075	104	824	0	-100	0	230	101300000	1000	0	0	-1	1000
21088635	106	818	0	-100	0	230	101300000	1000	0	0	-1	1000
21101195	106	822	0	-100	0	230	101300000	1000	0	0	-1	1000
21113755	104	818	0	-100	0	230	101300000	1000	0	0	-1	1000
21126315	109	818	0	-100	0	230	101300000	1000	0	0	-1	1000
21138875	104	826	0	-100	0	230	101300000	1000	0	0	-1	1000
21151435	111	819	0	-100	0	230	101300000	1000	0	0	-1	1000
21163995	104	816	0	-100	0	230	101300000	1000	0	0	-1	1000
21176555	109	818	0	-100	0	230	101300000	1000	0	0	-1	1000
21189115	106	821	0	-100	0	230	101300000	1000	0	0	-1	1000
21201675	104	816	0	-100	0	230	101300000	1000	0	0	-1	1000
21214235	104	821	0	-100	0	230	101300000	1000	0	0	-1	1000
21226795	106	821	0	-100	0	230	101300000	1000	0	0	-1	1000
21239355	106	820	0	-100	0	230	101300000	1000	0	0	-1	1000
21251915	104	818	0	-100	0	230	101300000	1000	0	0	-1	1000
21264475	106	820	0	-100	0	230	101300000	1000	0	0	-1	1000
21277035	106	825	0	-100	0	230	101300000	1000	0	0	-1	1000
21289595	111	820	0	-100	0	230	101300000	1000	0	0	-1	1000
21302155	104	821	0	-100	0	230	101300000	1000	0	0	-1	1000
21314715	111	817	0	-100	0	230	101300000	1000	0	0	-1	1000
21327275	101	825	0	-100	0	230	101300000	1000	0	0	-1	1000
21339835	111	818	0	-100	0	230	101300000	1000	0	0	-1	1000
21352395	104	825	0	-100	0	230	101300000	1000	0	0	-1	1000
21364955	109	816	0	-100	0	230	101300000	1000	0	0	-1	1000
21377515	104	821	0	-100	0	230	101300000	1000	0	0	-1	1000
21390075	104	821	0	-100	0	230	101300000	1000	0	0	-1	1000
21402635	109	817	0	-100	0	230	101300000	1000	0	0	-1	1000
21415195	106	825	0	-100	0	230	101300000	1000	0	0	-1	1000
21427755	111	818	0	-100	0	230	101300000	1000	0	0	-1	1000
21440315	101	823	0	-100	0	230	101300000	1000	0	0	-1	1000
21452875	104	817	0	-100	0	230	101300000	1000	0	0	-1	1000
21465435	113	819	0	-100	0	230	101300000	1000	0	0	-1	1000
21477995	106	818	0	-100	0	230	101300000	1000	0	0	-1	1000
21490555	111	815	0	-100	0	230	101300000	1000	0	0	-1	1000
21503115	104	824	0	-100	0	230	101300000	1000	0	0	-1	1000
21515675	106	817	0	-100	0	230	101300000	1000	0	0	-1	1000
21528235	111	816	0	-100	0	230	101300000	1000	0	0	-1	1000
21540795	101	824	0	-100	0	230	101300000	1000	0	0	-1	1000
21553355	104	817	0	-100	0	230	101300000	1000	0	0	-1	1000
21565915	111	816	0	-100	0	230	101300000	1000	0	0	-1	1000
21578475	101	823	0	-100	0	230	101300000	1000	0	0	-1	1000
21591035	104	820	0	-100	0	230	101300000	1000	0	0	-1	1000
21603595	113	819	0	-100	0	230	101300000	1000	0	0	-1	1000
21616155	101	822	0	-100	0	230	101300000	1000	0	0	-1	1000
21628715	104	821	0	-100	0	230	101300000	1000	0	0	-1	1000
21641275	113	819	0	-100	0	230	101300000	1000	0	0	-1	1000
21653835	106	824	0	-100	0	230	101300000	1000	0	0	-1	1000
21666395	111	815	0	-100	0	230	101300000	1000	0	0	-1	1000
21678955	104	825	0	-100	0	230	101300000	1000	0	0	-1	1000
21691515	109	816	0	-100	0	230	101300000	1000	0	0	-1	1000
21704075	106	822	0	-100	0	230	101300000	1000	0	0	-1	1000
21716635	104	820	0	-100	0	230	101300000	1000	0	0	-1	1000
21729195	109	818	0	-100	0	230	101300000	1000	0	0	-1	1000
21741755	104	822	0	-100	0	230	101300000	1000	0	0	-1	1000
21754315	104	825	0	-100	0	230	101300000	1000	0	0	-1	1000
21766875	106	817	0	-100	0	230	101300000	1000	0	0	-1	1000
21779435	109	817	0	-100	0	230	101300000	1000	0	0	-1	1000
21791995	104	823	0	-100	0	230	101300000	1000	0	0	-1	1000
21804555	106	823	0	-100	0	230	101300000	1000	0	0	-1	1000
21817115	109	815	0	-100	0	230	101300000	1000	0	0	-1	1000
21829675	111	820	0	-100	0	230	101300000	1000	0	0	-1	1000
21842235	104	823	0	-100	0	230	101300000	1000	0	0	-1	1000
21854795	104	821	0	-100	0	230	101300000	1000	0	0	-1	1000
21867355	109	816	0	-100	0	230	101300000	1000	0	0	-1	1000
21879915	109	819	0	-100	0	230	101300000	1000	0	0	-1	1000
21892475	106	827	0	-100	0	230	101300000	1000	0	0	-1	1000
21905035	104	818	0	-100	0	230	101300000	1000	0	0	-1	1000
21917595	109	815	0	-100	0	230	101300000	1000	0	0	-1	1000
21930155	101	824	0	-100	0	230	101300000	1000	0	0	-1	1000
21942715	104	820	0	-100	0	230	101300000	1000	0	0	-1	1000
21955275	111	820	0	-100	0	230	101300000	1000	0	0	-1	1000
21967835	104	820	0	-100	0	230	101300000	1000	0	0	-1	1000
21980395	106	828	0	-100	0	230	101300000	1000	0	0	-1	1000
21992955	109	817	0	-100	0	230	101300000	1000	0	0	-1	1000
22005515	111	818	0	-100	0	230	101300000	1000	0	0	-1	1000
22018075	104	825	0	-100	0	230	101300000	1000	0	0	-1	1000
22030635	104	822	0	-100	0	230	101300000	1000	0	0	-1	1000
22043195	111	818	0	-100	0	230	101300000	1000	0	0	-1	1000
22055755	109	817	0	-100	0	230	101300000	1000	0	0	-1	1000
22068315	106	819	0	-100	0	230	101300000	1000	0	0	-1	1000
22080875	104	825	0	-100	0	230	101300000	1000	0	0	-1	1000
22093435	106	824	0	-100	0	230	101300000	1000	0	0	-1	1000
22105995	104	817	0	-100	0	230	101300000	1000	0	0	-1	1000
22118555	111	816	0	-100	0	230	101300000	1000	0	0	-1	1000
22131115	104	821	0	-100	0	230	101300000	1000	0	0	-1	1000
22143675	106	828	0	-100	0	230	101300000	1000	0	0	-1	1000
22156235	106	818	0	-100	0	230	101300000	1000	0	0	-1	1000
22168795	111	819	0	-100	0	230	101300000	1000	0	0	-1	1000
22181355	106	818	0	-100	0	230	101300000	1000	0	0	-1	1000
22193915	101	822	0	-100	0	230	101300000	1000	0	0	-1	1000
22206475	104	825	0	-100	0	230	101300000	1000	0	0	-1	1000
22219035	106	827	0	-100	0	230	101300000	1000	0	0	-1	1000
22231595	104	816	0	-100	0	230	101300000	1000	0	0	-1	1000
22244155	109	817	0	-100	0	230	101300000	1000	0	0	-1	1000
22256715	113	820	0	-100	0	230	101300000	1000	0	0	-1	1000
22269275	104	821	0	-100	0	230	101300000	1000	0	0	-1	1000
22281835	104	824	0	-100	0	230	101300000	1000	0	0	-1	1000
22294395	104	822	0	-100	0	230	101300000	1000	0	0	-1	1000
22306955	109	817	0	-100	0	230	101300000	1000	0	0	-1	1000
22319515	109	817	0	-100	0	230	101300000	1000	0	0	-1	1000
22332075	104	824	0	-100	0	230	101300000	1000	0	0	-1	1000
22344635	104	821	0	-100	0	230	101300000	1000	0	0	-1	1000
22357195	109	817	0	-100	0	230	101300000	1000	0	0	-1	1000
22369755	111	817	0	-100	0	230	101300000	1000	0	0	-1	1000
22382315	106	819	0	-100	0	230	101300000	1000	0	0	-1	1000
22394875	104	823	0	-100	0	230	101300000	1000	0	0	-1	1000
22407435	104	825	0	-100	0	230	101300000	1000	0	0	-1	1000
22419995	104	816	0	-100	0	230	101300000	1000	0	0	-1	1000
22432555	109	816	0	-100	0	230	101300000	1000	0	0	-1	1000
22445115	111	819	0	-100	0	230	101300000	1000	0	0	-1	1000
22457675	104	824	0	-100	0	230	101300000	1000	0	0	-1	1000
22470235	104	821	0	-100	0	230	101300000	1000	0	0	-1	1000
22482795	109	818	0	-100	0	230	101300000	1000	0	0	-1	1000
22495355	109	818	0	-100	0	230	101300000	1000	0	0	-1	1000
22507915	104	824	0	-100	0	230	101300000	1000	0	0	-1	1000
22520475	104	820	0	-100	0	230	101300000	1000	0	0	-1	1000
22533035	109	817	0	-100	0	230	101300000	1000	0	0	-1	1000
22545595	113	819	0	-100	0	230	101300000	1000	0	0	-1	1000
22558155	101	823	0	-100	0	230	101300000	1000	0	0	-1	1000
22570715	106	824	0	-100	0	230	101300000	1000	0	0	-1	1000
22583275	109	818	0	-100	0	230	101300000	1000	0	0	-1	1000
22595835	109	814	0	-100	0	230	101300000	1000	0	0	-1	1000
22608395	113	818	0	-100	0	230	101300000	1000	0	0	-1	1000
22620955	109	817	0	-100	0	230	101300000	1000	0	0	-1	1000
22633515	104	824	0	-100	0	230	101300000	1000	0	0	-1	1000
22646075	104	820	0	-100	0	230	101300000	1000	0	0	-1	1000
22658635	111	818	0	-100	0	230	101300000	1000	0	0	-1	1000
22671195	111	818	0	-100	0	230	101300000	1000	0	0	-1	1000
22683755	101	821	0	-100	0	230	101300000	1000	0	0	-1	1000
22696315	106	824	0	-100	0	230	101300000	1000	0	0	-1	1000
22708875	109	817	0	-100	0	230	101300000	1000	0	0	-1	1000
22721435	111	820	0	-100	0	230	101300000	1000	0	0	-1	1000
22733995	101	822	0	-100	0	230	101300000	1000	0	0	-1	1000
22746555	106	824	0	-100	0	230	101300000	1000	0	0	-1	1000
22759115	109	816	0	-100	0	230	101300000	1000	0	0	-1	1000
22771675	111	819	0	-100	0	230	101300000	1000	0	0	-1	1000
22784235	101	823	0	-100	0	230	101300000	1000	0	0	-1	1000
22796795	106	824	0	-100	0	230	101300000	1000	0	0	-1	1000
22809355	106	820	0	-100	0	230	101300000	1000	0	0	-1	1000
22821915	113	816	0	-100	0	230	101300000	1000	0	0	-1	1000
22834475	101	824	0	-100	0	230	101300000	1000	0	0	-1	1000
22847035	104	819	0	-100	0	230	101300000	1000	0	0	-1	1000
22859595	111	815	0	-100	0	230	101300000	1000	0	0	-1	1000
22872155	104	824	0	-100	0	230	101300000	1000	0	0	-1	1000
22884715	104	817	0	-100	0	230	101300000	1000	0	0	-1	1000
22897275	111	819	0	-100	0	230	101300000	1000	0	0	-1	1000
22909835	104	823	0	-100	0	230	101300000	1000	0	0	-1	1000
22922395	104	817	0	-100	0	230	101300000	1000	0	0	-1	1000
22934955	111	816	0	-100	0	230	101300000	1000	0	0	-1	1000
22947515	104	822	0	-100	0	230	101300000	1000	0	0	-1	1000
22960075	106	825	0	-100	0	230	101300000	1000	0	0	-1	1000
22972635	111	818	0	-100	0	230	101300000	1000	0	0	-1	1000
22985195	113	819	0	-100	0	230	101300000	1000	0	0	-1	1000
22997755	101	825	0	-100	0	230	101300000	1000	0	0	-1	1000
23010315	106	822	0	-100	0	230	101300000	1000	0	0	-1	1000
23022875	109	818	0	-100	0	230	101300000	1000	0	0	-1	1000
23035435	111	816	0	-100	0	230	101300000	1000	0	0	-1	1000
23047995	104	819	0	-100	0	230	101300000	1000	0	0	-1	1000
23060555	101	821	0	-100	0	230	101300000	1000	0	0	-1	1000
23073115	109	817	0	-100	0	230	101300000	1000	0	0	-1	1000
23085675	104	820	0	-100	0	230	101300000	1000	0	0	-1	1000
23098235	106	825	0	-100	0	230	101300000	1000	0	0	-1	1000
23110795	109	816	0	-100	0	230	101300000	1000	0	0	-1	1000
23123355	109	818	0	-100	0	230	101300000	1000	0	0	-1	1000
23135915	104	825	0	-100	0	230	101300000	1000	0	0	-1	1000
23148475	106	824	0	-100	0	230	101300000	1000	0	0	-1	1000
23161035	111	819	0	-100	0	230	101300000	1000	0	0	-1	1000
23173595	111	820	0	-100	0	230	101300000	1000	0	0	-1	1000
23186155	104	825	0	-100	0	230	101300000	1000	0	0	-1	1000
23198715	104	819	0	-100	0	230	101300000	1000	0	0	-1	1000
23211275	111	817	0	-100	0	230	101300000	1000	0	0	-1	1000
23223835	101	824	0	-100	0	230	101300000	1000	0	0	-1	1000
23236395	104	820	0	-100	0	230	101300000	1000	0	0	-1	1000
23248955	111	819	0	-100	0	230	101300000	1000	0	0	-1	1000
23261515	109	818	0	-100	0	230	101300000	1000	0	0	-1	1000
23274075	104	824	0	-100	0	230	101300000	1000	0	0	-1	1000
23286635	104	825	0	-100	0	230	101300000	1000	0	0	-1	1000
23299195	104	821	0	-100	0	230	101300000	1000	0	0	-1	1000
23311755	109	817	0	-100	0	230	101300000	1000	0	0	-1	1000
23324315	106	820	0	-100	0	230	101300000	1000	0	0	-1	1000
23336875	104	826	0	-100	0	230	101300000	1000	0	0	-1	1000
23349435	106	818	0	-100	0	230	101300000	1000	0	0	-1	1000
23361995	111	825	0	-100	0	230	101300000	1000	0	0	-1	1000
23374555	101	823	0	-100	0	230	101300000	1000	0	0	-1	1000
23387115	101	823	0	-100	0	230	101300000	1000	0	0	-1	1000
23399675	109	816	0	-100	0	230	101300000	1000	0	0	-1	1000
23412235	106	818	0	-100	0	230	101300000	1000	0	0	-1	1000
23424795	104	824	0	-100	0	230	101300000	1000	0	0	-1	1000
23437355	104	821	0	-100	0	230	101300000	1000	0	0	-1	1000
23449915	109	816	0	-100	0	230	101300000	1000	0	0	-1	1000
23462475	106	818	0	-100	0	230	101300000	1000	0	0	-1	1000
23475035	106	824	0	-100	0	230	101300000	1000	0	0	-1	1000
23487595	111	821	0	-100	0	230	101300000	1000	0	0	-1	1000
23500155	104	822	0	-100	0	230	101300000	1000	0	0	-1	1000
23512715	104	824	0	-100	0	230	101300000	1000	0	0	-1	1000
23525275	109	816	0	-100	0	230	101300000	1000	0	0	-1	1000
23537835	106	820	0	-100	0	230	101300000	1000	0	0	-1	1000
23550395	106	825	0	-100	0	230	101300000	1000	0	0	-1	1000
23562955	109	816	0	-100	0	230	101300000	1000	0	0	-1	1000
23575515	104	821	0	-100	0	230	101300000	1000	0	0	-1	1000
23588075	104	818	0	-100	0	230	101300000	1000	0	0	-1	1000
23600635	111	819	0	-100	0	230	101300000	1000	0	0	-1	1000
23613195	104	822	0	-100	0	230	101300000	1000	0	0	-1	1000
23625755	104	821	0	-100	0	230	101300000	1000	0	0	-1	1000
23638315	111	819	0	-100	0	230	101300000	1000	0	0	-1	1000
23650875	106	822	0	-100	0	230	101300000	1000	0	0	-1	1000
23663435	104	825	0	-100	0	230	101300000	1000	0	0	-1	1000
23675995	109	817	0	-100	0	230	101300000	1000	0	0	-1	1000
23688555	109	818	0	-100	0	230	101300000	1000	0	0	-1	1000
23701115	104	823	0	-100	0	230	101300000	1000	0	0	-1	1000
23713675	104	822	0	-100	0	230	101300000	1000	0	0	-1	1000
23726235	111	819	0	-100	0	230	101300000	1000	0	0	-1	1000
23738795	104	819	0	-100	0	230	101300000	1000	0	0	-1	1000
23751355	106	825	0	-100	0	230	101300000	1000	0	0	-1	1000
23789035	109	818	0	-100	0	230	101300000	1000	0	0	-1	1000
23801595	109	815	0	-100	0	230	101300000	1000	0	0	-1	1000
23814155	101	826	0	-100	0	230	101300000	1000	0	0	-1	1000
23826715	104	817	0	-100	0	230	101300000	1000	0	0	-1	1000
23839275	111	819	0	-100	0	230	101300000	1000	0	0	-1	1000
23851835	104	824	0	-100	0	230	101300000	1000	0	0	-1	1000
23864395	109	818	0	-100	0	230	101300000	1000	0	0	-1	1000
23876955	111	819	0	-100	0	230	101300000	1000	0	0	-1	1000
23889515	101	826	0	-100	0	230	101300000	1000	0	0	-1	1000
23902075	109	817	0	-100	0	230	101300000	1000	0	0	-1	1000
23914635	104	824	0	-100	0	230	101300000	1000	0	0	-1	1000
23927195	106	817	0	-100	0	230	101300000	1000	0	0	-1	1000
24002555	104	819	0	-100	0	230	101300000	1000	0	0	-1	1000
24015115	104	820	0	-100	0	230	101300000	1000	0	0	-1	1000
24027675	106	822	0	-100	0	230	101300000	1000	0	0	-1	1000
24040235	104	822	0	-100	0	230	101300000	1000	0	0	-1	1000
24052795	106	818	0	-100	0	230	101300000	1000	0	0	-1	1000
24065355	99	823	0	-100	0	230	101300000	1000	0	0	-1	1000
24077915	106	817	0	-100	0	230	101300000	1000	0	0	-1	1000
24090475	104	819	0	-100	0	230	101300000	1000	0	0	-1	1000
24103035	104	817	0	-100	0	230	101300000	1000	0	0	-1	1000
24115595	106	822	0	-100	0	230	101300000	1000	0	0	-1	1000
24128155	106	819	0	-100	0	230	101300000	1000	0	0	-1	1000
24140715	106	822	0	-100	0	230	101300000	1000	0	0	-1	1000
24153275	101	824	0	-100	0	230	101300000	1000	0	0	-1	1000
24165835	111	819	0	-100	0	230	101300000	1000	0	0	-1	1000
24178395	104	823	0	-100	0	230	101300000	1000	0	0	-1	1000
24190955	111	818	0	-100	0	230	101300000	1000	0	0	-1	1000
24203515	104	825	0	-100	0	230	101300000	1000	0	0	-1	1000
24216075	111	821	0	-100	0	230	101300000	1000	0	0	-1	1000
24228635	101	826	0	-100	0	230	101300000	1000	0	0	-1	1000
24241195	109	817	0	-100	0	230	101300000	1000	0	0	-1	1000
24253755	101	824	0	-100	0	230	101300000	1000	0	0	-1	1000
24266315	106	819	0	-100	0	230	101300000	1000	0	0	-1	1000
24278875	106	818	0	-100	0	230	101300000	1000	0	0	-1	1000
24291435	109	823	0	-100	0	230	101300000	1000	0	0	-1	1000
24303995	111	821	0	-100	0	230	101300000	1000	0	0	-1	1000
24316555	104	822	0	-100	0	230	101300000	1000	0	0	-1	1000
24329115	101	822	0	-100	0	230	101300000	1000	0	0	-1	1000
24341675	111	816	0	-100	0	230	101300000	1000	0	0	-1	1000
24354235	104	822	0	-100	0	230	101300000	1000	0	0	-1	1000
24366795	104	821	0	-100	0	230	101300000	1000	0	0	-1	1000
24379355	109	817	0	-100	0	230	101300000	1000	0	0	-1	1000
24391915	104	824	0	-100	0	230	101300000	1000	0	0	-1	1000
24404475	104	817	0	-100	0	230	101300000	1000	0	0	-1	1000
24417035	111	821	0	-100	0	230	101300000	1000	0	0	-1	1000
24429595	106	827	0	-100	0	230	101300000	1000	0	0	-1	1000
24442155	109	816	0	-100	0	230	101300000	1000	0	0	-1	1000
24454715	101	824	0	-100	0	230	101300000	1000	0	0	-1	1000
24467275	104	817	0	-100	0	230	101300000	1000	0	0	-1	1000
24479835	109	817	0	-100	0	230	101300000	1000	0	0	-1	1000
24492395	106	823	0	-100	0	230	101300000	1000	0	0	-1	1000
24504955	111	820	0	-100	0	230	101300000	1000	0	0	-1	1000
24517515	104	821	0	-100	0	230	101300000	1000	0	0	-1	1000
24530075	111	821	0	-100	0	230	101300000	1000	0	0	-1	1000
24542635	104	821	0	-100	0	230	101300000	1000	0	0	-1	1000
24555195	109	816	0	-100	0	230	101300000	1000	0	0	-1	1000
24567755	109	822	0	-100	0	230	101300000	1000	0	0	-1	1000
24580315	109	815	0	-100	0	230	101300000	1000	0	0	-1	1000
24592875	101	824	0	-100	0	230	101300000	1000	0	0	-1	1000
24605435	104	819	0	-100	0	230	101300000	1000	0	0	-1	1000
24617995	111	827	0	-100	0	230	101300000	1000	0	0	-1	1000
24630555	101	826	0	-100	0	230	101300000	1000	0	0	-1	1000
24643115	106	818	0	-100	0	230	101300000	1000	0	0	-1	1000
24655675	109	820	0	-100	0	230	101300000	1000	0	0	-1	1000
24668235	106	822	0	-100	0	230	101300000	1000	0	0	-1	1000
24680795	109	816	0	-100	0	230	101300000	1000	0	0	-1	1000
24693355	106	819	0	-100	0	230	101300000	1000	0	0	-1	1000
24705915	104	826	0	-100	0	230	101300000	1000	0	0	-1	1000
24718475	106	817	0	-100	0	230	101300000	1000	0	0	-1	1000
24731035	109	817	0	-100	0	230	101300000	1000	0	0	-1	1000
24743595	104	820	0	-100	0	230	101300000	1000	0	0	-1	1000
24756155	109	815	0	-100	0	230	101300000	1000	0	0	-1	1000
24768715	101	823	0	-100	0	230	101300000	1000	0	0	-1	1000
24781275	104	816	0	-100	0	230	101300000	1000	0	0	-1	1000
24793835	109	819	0	-100	0	230	101300000	1000	0	0	-1	1000
24806395	101	822	0	-100	0	230	101300000	1000	0	0	-1	1000
24818955	111	820	0	-100	0	230	101300000	1000	0	0	-1	1000
24831515	104	822	0	-100	0	230	101300000	1000	0	0	-1	1000
24844075	109	817	0	-100	0	230	101300000	1000	0	0	-1	1000
24856635	104	825	0	-100	0	230	101300000	1000	0	0	-1	1000
24869195	106	818	0	-100	0	230	101300000	1000	0	0	-1	1000
24881755	111	818	0	-100	0	230	101300000	1000	0	0	-1	1000
24894315	101	825	0	-100	0	230	101300000	1000	0	0	-1	1000
24906875	104	819	0	-100	0	230	101300000	1000	0	0	-1	1000
24919435	111	819	0	-100	0	230	101300000	1000	0	0	-1	1000
24931995	106	823	0	-100	0	230	101300000	1000	0	0	-1	1000
24944555	106	818	0	-100	0	230	101300000	1000	0	0	-1	1000
24957115	104	824	0	-100	0	230	101300000	1000	0	0	-1	1000
24969675	109	818	0	-100	0	230	101300000	1000	0	0	-1	1000
24982235	101	825	0	-100	0	230	101300000	1000	0	0	-1	1000
24994795	109	817	0	-100	0	230	101300000	1000	0	0	-1	1000
25007355	104	823	0	-100	0	230	101300000	1000	0	0	-1	1000
25019915	111	820	0	-100	0	230	101300000	1000	0	0	-1	1000
25032475	104	824	0	-100	0	230	101300000	1000	0	0	-1	1000
25045035	111	820	0	-100	0	230	101300000	1000	0	0	-1	1000
25057595	104	824	0	-100	0	230	101300000	1000	0	0	-1	1000
25070155	106	818	0	-100	0	230	101300000	1000	0	0	-1	1000
25082715	104	820	0	-100	0	230	101300000	1000	0	0	-1	1000
25095275	104	817	0	-100	0	230	101300000	1000	0	0	-1	1000
25107835	101	822	0	-100	0	230	101300000	1000	0	0	-1	1000
25120395	109	816	0	-100	0	230	101300000	1000	0	0	-1	1000
25132955	104	821	0	-100	0	230	101300000	1000	0	0	-1	1000
25145515	109	818	0	-100	0	230	101300000	1000	0	0	-1	1000
25158075	101	822	0	-100	0	230	101300000	1000	0	0	-1	1000
25170635	109	818	0	-100	0	230	101300000	1000	0	0	-1	1000
25183195	101	824	0	-100	0	230	101300000	1000	0	0	-1	1000
25195755	109	817	0	-100	0	230	101300000	1000	0	0	-1	1000
25208315	101	826	0	-100	0	230	101300000	1000	0	0	-1	1000
25220875	111	817	0	-100	0	230	101300000	1000	0	0	-1	1000
25233435	106	825	0	-100	0	230	101300000	1000	0	0	-1	1000
25245995	113	824	0	-100	0	230	101300000	1000	0	0	-1	1000
25258555	106	822	0	-100	0	230	101300000	1000	0	0	-1	1000
25271115	111	819	0	-100	0	230	101300000	1000	0	0	-1	1000
25283675	106	824	0	-100	0	230	101300000	1000	0	0	-1	1000
25296235	111	815	0	-100	0	230	101300000	1000	0	0	-1	1000
25308795	104	825	0	-100	0	230	101300000	1000	0	0	-1	1000
25321355	104	817	0	-100	0	230	101300000	1000	0	0	-1	1000
25333915	111	821	0	-100	0	230	101300000	1000	0	0	-1	1000
25346475	104	825	0	-100	0	230	101300000	1000	0	0	-1	1000
25359035	111	818	0	-100	0	230	101300000	1000	0	0	-1	1000
25371595	101	822	0	-100	0	230	101300000	1000	0	0	-1	1000
25384155	104	820	0	-100	0	230	101300000	1000	0	0	-1	1000
25396715	111	819	0	-100	0	230	101300000	1000	0	0	-1	1000
25409275	104	820	0	-100	0	230	101300000	1000	0	0	-1	1000
25421835	106	826	0	-100	0	230	101300000	1000	0	0	-1	1000
25434395	109	817	0	-100	0	230	101300000	1000	0	0	-1	1000
25446955	111	815	0	-100	0	230	101300000	1000	0	0	-1	1000
25459515	104	823	0	-100	0	230	101300000	1000	0	0	-1	1000
25472075	101	822	0	-100	0	230	101300000	1000	0	0	-1	1000
25484635	111	820	0	-100	0	230	101300000	1000	0	0	-1	1000
25497195	104	821	0	-100	0	230	101300000	1000	0	0	-1	1000
25509755	104	821	0	-100	0	230	101300000	1000	0	0	-1	1000
25522315	111	820	0	-100	0	230	101300000	1000	0	0	-1	1000
25534875	104	821	0	-100	0	230	101300000	1000	0	0	-1	1000
25547435	106	824	0	-100	0	230	101300000	1000	0	0	-1	1000
25559995	106	821	0	-100	0	230	101300000	1000	0	0	-1	1000
25572555	111	819	0	-100	0	230	101300000	1000	0	0	-1	1000
25585115	109	817	0	-100	0	230	101300000	1000	0	0	-1	1000
25597675	106	826	0	-100	0	230	101300000	1000	0	0	-1	1000
25610235	104	821	0	-100	0	230	101300000	1000	0	0	-1	1000
25622795	109	816	0	-100	0	230	101300000	1000	0	0	-1	1000
25635355	106	821	0	-100	0	230	101300000	1000	0	0	-1	1000
25647915	106	825	0	-100	0	230	101300000	1000	0	0	-1	1000
25660475	109	817	0	-100	0	230	101300000	1000	0	0	-1	1000
25673035	111	820	0	-100	0	230	101300000	1000	0	0	-1	1000
25685595	101	823	0	-100	0	230	101300000	1000	0	0	-1	1000
25698155	104	824	0	-100	0	230	101300000	1000	0	0	-1	1000
25710715	109	817	0	-100	0	230	101300000	1000	0	0	-1	1000
25723275	111	819	0	-100	0	230	101300000	1000	0	0	-1	1000
25735835	104	824	0	-100	0	230	101300000	1000	0	0	-1	1000
25748395	104	820	0	-100	0	230	101300000	1000	0	0	-1	1000
25760955	109	817	0	-100	0	230	101300000	1000	0	0	-1	1000
25773515	106	820	0	-100	0	230	101300000	1000	0	0	-1	1000
25786075	104	824	0	-100	0	230	101300000	1000	0	0	-1	1000
25798635	111	819	0	-100	0	230	101300000	1000	0	0	-1	1000
25811195	104	820	0	-100	0	230	101300000	1000	0	0	-1	1000
25823755	106	825	0	-100	0	230	101300000	1000	0	0	-1	1000
25836315	109	818	0	-100	0	230	101300000	1000	0	0	-1	1000
25848875	106	822	0	-100	0	230	101300000	1000	0	0	-1	1000
25861435	104	824	0	-100	0	230	101300000	1000	0	0	-1	1000
25873995	109	820	0	-100	0	230	101300000	1000	0	0	-1	1000
25886555	111	820	0	-100	0	230	101300000	1000	0	0	-1	1000
25899115	111	818	0	-100	0	230	101300000	1000	0	0	-1	1000
25911675	113	816	0	-100	0	230	101300000	1000	0	0	-1	1000
25924235	106	819	0	-100	0	230	101300000	1000	0	0	-1	1000
25936795	104	821	0	-100	0	230	101300000	1000	0	0	-1	1000
25949355	104	822	0	-100	0	230	101300000	1000	0	0	-1	1000
25961915	104	822	0	-100	0	230	101300000	1000	0	0	-1	1000
25974475	104	823	0	-100	0	230	101300000	1000	0	0	-1	1000
25987035	104	825	0	-100	0	230	101300000	1000	0	0	-1	1000
25999595	106	823	0	-100	0	230	101300000	1000	0	0	-1	1000
26012155	104	821	0	-100	0	230	101300000	1000	0	0	-1	1000
26024715	104	819	0	-100	0	230	101300000	1000	0	0	-1	1000
26037275	104	819	0	-100	0	230	101300000	1000	0	0	-1	1000
26049835	106	820	0	-100	0	230	101300000	1000	0	0	-1	1000
26062395	106	819	0	-100	0	230	101300000	1000	0	0	-1	1000
26074955	109	816	0	-100	0	230	101300000	1000	0	0	-1	1000
26087515	109	817	0	-100	0	230	101300000	1000	0	0	-1	1000
26100075	104	823	0	-100	0	230	101300000	1000	0	0	-1	1000
26112635	101	824	0	-100	0	230	101300000	1000	0	0	-1	1000
26125195	111	819	0	-100	0	230	101300000	1000	0	0	-1	1000
26137755	109	818	0	-100	0	230	101300000	1000	0	0	-1	1000
26150315	104	823	0	-100	0	230	101300000	1000	0	0	-1	1000
26162875	104	822	0	-100	0	230	101300000	1000	0	0	-1	1000
26175435	109	817	0	-100	0	230	101300000	1000	0	0	-1	1000
26187995	104	821	0	-100	0	230	101300000	1000	0	0	-1	1000
26200555	106	825	0	-100	0	230	101300000	1000	0	0	-1	1000
26213115	109	817	0	-100	0	230	101300000	1000	0	0	-1	1000
26225675	113	820	0	-100	0	230	101300000	1000	0	0	-1	1000
26238235	104	825	0	-100	0	230	101300000	1000	0	0	-1	1000
26250795	104	821	0	-100	0	230	101300000	1000	0	0	-1	1000
26263355	111	819	0	-100	0	230	101300000	1000	0	0	-1	1000
26275915	104	820	0	-100	0	230	101300000	1000	0	0	-1	1000
26288475	106	826	0	-100	0	230	101300000	1000	0	0	-1	1000
26301035	111	817	0	-100	0	230	101300000	1000	0	0	-1	1000
26313595	106	821	0	-100	0	230	101300000	1000	0	0	-1	1000
26326155	104	822	0	-100	0	230	101300000	1000	0	0	-1	1000
26338715	111	819	0	-100	0	230	101300000	1000	0	0	-1	1000
26351275	104	821	0	-100	0	230	101300000	1000	0	0	-1	1000
26363835	104	821	0	-100	0	230	101300000	1000	0	0	-1	1000
26376395	109	815	0	-100	0	230	101300000	1000	0	0	-1	1000
26388955	104	824	0	-100	0	230	101300000	1000	0	0	-1	1000
26401515	104	819	0	-100	0	230	101300000	1000	0	0	-1	1000
26414075	109	814	0	-100	0	230	101300000	1000	0	0	-1	1000
26426635	104	825	0	-100	0	230	101300000	1000	0	0	-1	1000
26439195	104	816	0	-100	0	230	101300000	1000	0	0	-1	1000
26451755	111	816	0	-100	0	230	101300000	1000	0	0	-1	1000
26464315	101	825	0	-100	0	230	101300000	1000	0	0	-1	1000
26476875	104	821	0	-100	0	230	101300000	1000	0	0	-1	1000
26489435	109	819	0	-100	0	230	101300000	1000	0	0	-1	1000
26501995	106	827	0	-100	0	230	101300000	1000	0	0	-1	1000
26514555	106	826	0	-100	0	230	101300000	1000	0	0	-1	1000
26527115	106	819	0	-100	0	230	101300000	1000	0	0	-1	1000
26539675	111	817	0	-100	0	230	101300000	1000	0	0	-1	1000
26552235	104	821	0	-100	0	230	101300000	1000	0	0	-1	1000
26564795	106	824	0	-100	0	230	101300000	1000	0	0	-1	1000
26577355	106	818	0	-100	0	230	101300000	1000	0	0	-1	1000
26589915	109	817	0	-100	0	230	101300000	1000	0	0	-1	1000
26602475	111	817	0	-100	0	230	101300000	1000	0	0	-1	1000
26615035	109	817	0	-100	0	230	101300000	1000	0	0	-1	1000
26627595	104	820	0	-100	0	230	101300000	1000	0	0	-1	1000
26640155	101	825	0	-100	0	230	101300000	1000	0	0	-1	1000
26652715	104	819	0	-100	0	230	101300000	1000	0	0	-1	1000
26665275	111	818	0	-100	0	230	101300000	1000	0	0	-1	1000
26677835	111	820	0	-100	0	230	101300000	1000	0	0	-1	1000
26715515	106	819	0	-100	0	230	101300000	1000	0	0	-1	1000
26728075	111	818	0	-100	0	230	101300000	1000	0	0	-1	1000
26740635	106	819	0	-100	0	230	101300000	1000	0	0	-1	1000
26753195	101	824	0	-100	0	230	101300000	1000	0	0	-1	1000
26765755	104	822	0	-100	0	230	101300000	1000	0	0	-1	1000
26778315	106	817	0	-100	0	230	101300000	1000	0	0	-1	1000
26790875	109	817	0	-100	0	230	101300000	1000	0	0	-1	1000
26803435	111	819	0	-100	0	230	101300000	1000	0	0	-1	1000
26815995	109	819	0	-100	0	230	101300000	1000	0	0	-1	1000
26828555	109	817	0	-100	0	230	101300000	1000	0	0	-1	1000
26841115	109	815	0	-100	0	230	101300000	1000	0	0	-1	1000
26853675	111	819	0	-100	0	230	101300000	1000	0	0	-1	1000
26929035	104	822	0	-100	0	230	101300000	1000	0	0	-1	1000
26941595	104	822	0	-100	0	230	101300000	1000	0	0	-1	1000
26954155	101	821	0	-100	0	230	101300000	1000	0	0	-1	1000
26966715	104	821	0	-100	0	230	101300000	1000	0	0	-1	1000
26979275	104	822	0	-100	0	230	101300000	1000	0	0	-1	1000
26991835	101	821	0	-100	0	230	101300000	1000	0	0	-1	1000
27004395	104	823	0	-100	0	230	101300000	1000	0	0	-1	1000
27016955	106	822	0	-100	0	230	101300000	1000	0	0	-1	1000
27029515	104	820	0	-100	0	230	101300000	1000	0	0	-1	1000
27042075	104	820	0	-100	0	230	101300000	1000	0	0	-1	1000
