timestamp	voltage	current	windSpeed	pitchAngle	rpm	temperature	ambientPressure	humidity	accelerationX	accelerationY	accelerationZ	currentSink
7038070	2013	0	0	-100	0	230	101300000	1000	0	0	-1	0
7045523	2007	0	0	-100	0	230	101300000	1000	0	0	-1	0
7058083	1998	0	0	-100	0	230	101300000	1000	0	0	-1	0
7070643	2002	2	0	-100	0	230	101300000	1000	0	0	-1	0
7083203	2005	0	0	-100	0	230	101300000	1000	0	0	-1	0
7095763	1998	0	0	-100	0	230	101300000	1000	0	0	-1	0
7108323	1997	3	0	-100	0	230	101300000	1000	0	0	-1	0
7120883	2007	0	0	-100	0	230	101300000	1000	0	0	-1	0
7133443	1997	0	0	-100	0	230	101300000	1000	0	0	-1	0
7146004	2011	0	0	-100	0	230	101300000	1000	0	0	-1	0
7158563	2002	0	0	-100	0	230	101300000	1000	0	0	-1	0
7171123	2004	0	0	-100	0	230	101300000	1000	0	0	-1	0
7183683	2002	3	0	-100	0	230	101300000	1000	0	0	-1	0
7196243	2002	0	0	-100	0	230	101300000	1000	0	0	-1	0
7208803	2001	0	0	-100	0	230	101300000	1000	0	0	-1	0
7221363	2002	5	0	-100	0	230	101300000	1000	0	0	-1	0
7233923	2001	1	0	-100	0	230	101300000	1000	0	0	-1	0
7246483	2007	0	0	-100	0	230	101300000	1000	0	0	-1	0
7259043	1998	0	0	-100	0	230	101300000	1000	0	0	-1	0
7271603	1997	3	0	-100	0	230	101300000	1000	0	0	-1	0
7284163	2011	0	0	-100	0	230	101300000	1000	0	0	-1	0
7296723	1999	0	0	-100	0	230	101300000	1000	0	0	-1	0
7309283	1999	3	0	-100	0	230	101300000	1000	0	0	-1	0
7321843	2007	0	0	-100	0	230	101300000	1000	0	0	-1	0
7334403	2004	0	0	-100	0	230	101300000	1000	0	0	-1	0
7346963	1998	5	0	-100	0	230	101300000	1000	0	0	-1	0
7702675	121	917	0	-100	0	230	101300000	1000	0	0	-1	1000
7715235	116	923	0	-100	0	230	101300000	1000	0	0	-1	1000
7727795	116	921	0	-100	0	230	101300000	1000	0	0	-1	1000
7740355	121	920	0	-100	0	230	101300000	1000	0	0	-1	1000
7752915	116	924	0	-100	0	230	101300000	1000	0	0	-1	1000
7765475	123	922	0	-100	0	230	101300000	1000	0	0	-1	1000
7778035	113	922	0	-100	0	230	101300000	1000	0	0	-1	1000
7790595	113	927	0	-100	0	230	101300000	1000	0	0	-1	1000
7803155	126	920	0	-100	0	230	101300000	1000	0	0	-1	1000
7815715	113	920	0	-100	0	230	101300000	1000	0	0	-1	1000
7828275	111	926	0	-100	0	230	101300000	1000	0	0	-1	1000
7840835	123	922	0	-100	0	230	101300000	1000	0	0	-1	1000
7853395	113	923	0	-100	0	230	101300000	1000	0	0	-1	1000
7865955	113	924	0	-100	0	230	101300000	1000	0	0	-1	1000
7878515	118	921	0	-100	0	230	101300000	1000	0	0	-1	1000
7891075	111	925	0	-100	0	230	101300000	1000	0	0	-1	1000
7903635	121	915	0	-100	0	230	101300000	1000	0	0	-1	1000
7916195	116	925	0	-100	0	230	101300000	1000	0	0	-1	1000
7928755	123	922	0	-100	0	230	101300000	1000	0	0	-1	1000
7941315	113	925	0	-100	0	230	101300000	1000	0	0	-1	1000
7953875	121	920	0	-100	0	230	101300000	1000	0	0	-1	1000
7966435	113	926	0	-100	0	230	101300000	1000	0	0	-1	1000
7978995	116	926	0	-100	0	230	101300000	1000	0	0	-1	1000
7991555	118	920	0	-100	0	230	101300000	1000	0	0	-1	1000
8041795	113	924	0	-100	0	230	101300000	1000	0	0	-1	1000
8054355	111	924	0	-100	0	230	101300000	1000	0	0	-1	1000
8066915	121	917	0	-100	0	230	101300000	1000	0	0	-1	1000
8079475	113	926	0	-100	0	230	101300000	1000	0	0	-1	1000
8092035	111	924	0	-100	0	230	101300000	1000	0	0	-1	1000
8104595	118	921	0	-100	0	230	101300000	1000	0	0	-1	1000
8117155	121	922	0	-100	0	230	101300000	1000	0	0	-1	1000
8129715	116	927	0	-100	0	230	101300000	1000	0	0	-1	1000
8142275	121	920	0	-100	0	230	101300000	1000	0	0	-1	1000
8154835	113	920	0	-100	0	230	101300000	1000	0	0	-1	1000
8167395	111	926	0	-100	0	230	101300000	1000	0	0	-1	1000
8179955	121	922	0	-100	0	230	101300000	1000	0	0	-1	1000
8255315	113	927	0	-100	0	230	101300000	1000	0	0	-1	1000
8267875	118	921	0	-100	0	230	101300000	1000	0	0	-1	1000
8280435	113	920	0	-100	0	230	101300000	1000	0	0	-1	1000
8292995	113	922	0	-100	0	230	101300000	1000	0	0	-1	1000
8305555	121	921	0	-100	0	230	101300000	1000	0	0	-1	1000
8318115	116	918	0	-100	0	230	101300000	1000	0	0	-1	1000
8330675	111	926	0	-100	0	230	101300000	1000	0	0	-1	1000
8343235	121	920	0	-100	0	230	101300000	1000	0	0	-1	1000
8355795	111	922	0	-100	0	230	101300000	1000	0	0	-1	1000
8368355	111	924	0	-100	0	230	101300000	1000	0	0	-1	1000
8380915	118	920	0	-100	0	230	101300000	1000	0	0	-1	1000
8406035	121	915	0	-100	0	230	101300000	1000	0	0	-1	1000
8418595	113	923	0	-100	0	230	101300000	1000	0	0	-1	1000
8431155	123	921	0	-100	0	230	101300000	1000	0	0	-1	1000
8443715	113	921	0	-100	0	230	101300000	1000	0	0	-1	1000
8456275	116	921	0	-100	0	230	101300000	1000	0	0	-1	1000
8468835	116	924	0	-100	0	230	101300000	1000	0	0	-1	1000
8481395	118	917	0	-100	0	230	101300000	1000	0	0	-1	1000
8493955	116	927	0	-100	0	230	101300000	1000	0	0	-1	1000
8506515	118	920	0	-100	0	230	101300000	1000	0	0	-1	1000
8519075	111	925	0	-100	0	230	101300000	1000	0	0	-1	1000
8531635	121	919	0	-100	0	230	101300000	1000	0	0	-1	1000
8544195	113	927	0	-100	0	230	101300000	1000	0	0	-1	1000
8556755	121	918	0	-100	0	230	101300000	1000	0	0	-1	1000
8569315	113	929	0	-100	0	230	101300000	1000	0	0	-1	1000
8581875	121	918	0	-100	0	230	101300000	1000	0	0	-1	1000
8594435	113	927	0	-100	0	230	101300000	1000	0	0	-1	1000
8606995	118	926	0	-100	0	230	101300000	1000	0	0	-1	1000
8619555	113	929	0	-100	0	230	101300000	1000	0	0	-1	1000
8632115	121	919	0	-100	0	230	101300000	1000	0	0	-1	1000
8644675	113	925	0	-100	0	230	101300000	1000	0	0	-1	1000
8657235	116	919	0	-100	0	230	101300000	1000	0	0	-1	1000
8669795	113	924	0	-100	0	230	101300000	1000	0	0	-1	1000
8682355	113	921	0	-100	0	230	101300000	1000	0	0	-1	1000
8694915	113	927	0	-100	0	230	101300000	1000	0	0	-1	1000
8707475	118	921	0	-100	0	230	101300000	1000	0	0	-1	1000
8720035	118	921	0	-100	0	230	101300000	1000	0	0	-1	1000
8732595	113	925	0	-100	0	230	101300000	1000	0	0	-1	1000
8745155	118	924	0	-100	0	230	101300000	1000	0	0	-1	1000
8757715	118	920	0	-100	0	230	101300000	1000	0	0	-1	1000
8770275	118	922	0	-100	0	230	101300000	1000	0	0	-1	1000
8782835	116	924	0	-100	0	230	101300000	1000	0	0	-1	1000
8795395	116	927	0	-100	0	230	101300000	1000	0	0	-1	1000
8807955	121	920	0	-100	0	230	101300000	1000	0	0	-1	1000
8820515	118	921	0	-100	0	230	101300000	1000	0	0	-1	1000
8833075	113	925	0	-100	0	230	101300000	1000	0	0	-1	1000
8845635	111	925	0	-100	0	230	101300000	1000	0	0	-1	1000
8858195	121	919	0	-100	0	230	101300000	1000	0	0	-1	1000
8870755	118	920	0	-100	0	230	101300000	1000	0	0	-1	1000
8883315	113	923	0	-100	0	230	101300000	1000	0	0	-1	1000
8895875	113	927	0	-100	0	230	101300000	1000	0	0	-1	1000
8908435	113	923	0	-100	0	230	101300000	1000	0	0	-1	1000
8920995	118	927	0	-100	0	230	101300000	1000	0	0	-1	1000
8933555	118	921	0	-100	0	230	101300000	1000	0	0	-1	1000
8946115	113	921	0	-100	0	230	101300000	1000	0	0	-1	1000
8958675	113	930	0	-100	0	230	101300000	1000	0	0	-1	1000
8971235	116	921	0	-100	0	230	101300000	1000	0	0	-1	1000
8983795	118	920	0	-100	0	230	101300000	1000	0	0	-1	1000
8996355	118	924	0	-100	0	230	101300000	1000	0	0	-1	1000
9008915	111	924	0	-100	0	230	101300000	1000	0	0	-1	1000
9021475	121	921	0	-100	0	230	101300000	1000	0	0	-1	1000
9034035	118	920	0	-100	0	230	101300000	1000	0	0	-1	1000
9046595	116	928	0	-100	0	230	101300000	1000	0	0	-1	1000
9059155	121	922	0	-100	0	230	101300000	1000	0	0	-1	1000
9071715	118	921	0	-100	0	230	101300000	1000	0	0	-1	1000
9084275	116	927	0	-100	0	230	101300000	1000	0	0	-1	1000
9096835	121	919	0	-100	0	230	101300000	1000	0	0	-1	1000
9109395	113	925	0	-100	0	230	101300000	1000	0	0	-1	1000
9121955	113	923	0	-100	0	230	101300000	1000	0	0	-1	1000
9134515	118	920	0	-100	0	230	101300000	1000	0	0	-1	1000
9147075	116	926	0	-100	0	230	101300000	1000	0	0	-1	1000
9159635	113	921	0	-100	0	230	101300000	1000	0	0	-1	1000
9172195	118	921	0	-100	0	230	101300000	1000	0	0	-1	1000
9184755	113	927	0	-100	0	230	101300000	1000	0	0	-1	1000
9197315	121	921	0	-100	0	230	101300000	1000	0	0	-1	1000
9209875	113	926	0	-100	0	230	101300000	1000	0	0	-1	1000
9222435	116	922	0	-100	0	230	101300000	1000	0	0	-1	1000
9234995	121	920	0	-100	0	230	101300000	1000	0	0	-1	1000
9247555	116	928	0	-100	0	230	101300000	1000	0	0	-1	1000
9260115	113	922	0	-100	0	230	101300000	1000	0	0	-1	1000
9272675	118	920	0	-100	0	230	101300000	1000	0	0	-1	1000
9285235	111	927	0	-100	0	230	101300000	1000	0	0	-1	1000
9297795	121	917	0	-100	0	230	101300000	1000	0	0	-1	1000
9310355	116	919	0	-100	0	230	101300000	1000	0	0	-1	1000
9322915	113	926	0	-100	0	230	101300000	1000	0	0	-1	1000
9335475	118	922	0	-100	0	230	101300000	1000	0	0	-1	1000
9348035	118	921	0	-100	0	230	101300000	1000	0	0	-1	1000
9360595	113	929	0	-100	0	230	101300000	1000	0	0	-1	1000
9373155	126	922	0	-100	0	230	101300000	1000	0	0	-1	1000
9385715	111	920	0	-100	0	230	101300000	1000	0	0	-1	1000
9398275	111	925	0	-100	0	230	101300000	1000	0	0	-1	1000
9410835	121	920	0	-100	0	230	101300000	1000	0	0	-1	1000
9423395	116	928	0	-100	0	230	101300000	1000	0	0	-1	1000
9435955	123	920	0	-100	0	230	101300000	1000	0	0	-1	1000
9448515	113	925	0	-100	0	230	101300000	1000	0	0	-1	1000
9461075	113	925	0	-100	0	230	101300000	1000	0	0	-1	1000
9473635	116	920	0	-100	0	230	101300000	1000	0	0	-1	1000
9486195	113	929	0	-100	0	230	101300000	1000	0	0	-1	1000
9498755	121	920	0	-100	0	230	101300000	1000	0	0	-1	1000
9511315	118	920	0	-100	0	230	101300000	1000	0	0	-1	1000
9523875	116	929	0	-100	0	230	101300000	1000	0	0	-1	1000
9536435	121	919	0	-100	0	230	101300000	1000	0	0	-1	1000
9548995	113	919	0	-100	0	230	101300000	1000	0	0	-1	1000
9561555	116	922	0	-100	0	230	101300000	1000	0	0	-1	1000
9574115	118	920	0	-100	0	230	101300000	1000	0	0	-1	1000
9586675	113	924	0	-100	0	230	101300000	1000	0	0	-1	1000
9599235	118	921	0	-100	0	230	101300000	1000	0	0	-1	1000
9611795	111	925	0	-100	0	230	101300000	1000	0	0	-1	1000
9624355	118	920	0	-100	0	230	101300000	1000	0	0	-1	1000
9636915	111	926	0	-100	0	230	101300000	1000	0	0	-1	1000
9649475	118	921	0	-100	0	230	101300000	1000	0	0	-1	1000
9662035	113	928	0	-100	0	230	101300000	1000	0	0	-1	1000
9674595	121	918	0	-100	0	230	101300000	1000	0	0	-1	1000
9687155	121	928	0	-100	0	230	101300000	1000	0	0	-1	1000
9699715	123	921	0	-100	0	230	101300000	1000	0	0	-1	1000
9712275	113	923	0	-100	0	230	101300000	1000	0	0	-1	1000
9724835	121	921	0	-100	0	230	101300000	1000	0	0	-1	1000
9737395	113	920	0	-100	0	230	101300000	1000	0	0	-1	1000
9749955	113	926	0	-100	0	230	101300000	1000	0	0	-1	1000
9762515	116	920	0	-100	0	230	101300000	1000	0	0	-1	1000
9775075	113	925	0	-100	0	230	101300000	1000	0	0	-1	1000
9787635	113	923	0	-100	0	230	101300000	1000	0	0	-1	1000
9800195	116	920	0	-100	0	230	101300000	1000	0	0	-1	1000
9812755	113	921	0	-100	0	230	101300000	1000	0	0	-1	1000
9825315	113	922	0	-100	0	230	101300000	1000	0	0	-1	1000
9837875	113	920	0	-100	0	230	101300000	1000	0	0	-1	1000
9850435	113	923	0	-100	0	230	101300000	1000	0	0	-1	1000
9862995	118	920	0	-100	0	230	101300000	1000	0	0	-1	1000
9875555	113	924	0	-100	0	230	101300000	1000	0	0	-1	1000
9888115	118	921	0	-100	0	230	101300000	1000	0	0	-1	1000
9900675	113	926	0	-100	0	230	101300000	1000	0	0	-1	1000
9913235	121	919	0	-100	0	230	101300000	1000	0	0	-1	1000
9925795	113	925	0	-100	0	230	101300000	1000	0	0	-1	1000
9938355	116	918	0	-100	0	230	101300000	1000	0	0	-1	1000
9950915	113	925	0	-100	0	230	101300000	1000	0	0	-1	1000
9963475	118	921	0	-100	0	230	101300000	1000	0	0	-1	1000
9976035	111	924	0	-100	0	230	101300000	1000	0	0	-1	1000
9988595	121	919	0	-100	0	230	101300000	1000	0	0	-1	1000
10001155	116	926	0	-100	0	230	101300000	1000	0	0	-1	1000
10013715	118	921	0	-100	0	230	101300000	1000	0	0	-1	1000
10026275	113	926	0	-100	0	230	101300000	1000	0	0	-1	1000
10038835	121	919	0	-100	0	230	101300000	1000	0	0	-1	1000
10051395	111	925	0	-100	0	230	101300000	1000	0	0	-1	1000
10063955	121	920	0	-100	0	230	101300000	1000	0	0	-1	1000
10076515	111	925	0	-100	0	230	101300000	1000	0	0	-1	1000
10089075	121	920	0	-100	0	230	101300000	1000	0	0	-1	1000
10101635	113	926	0	-100	0	230	101300000	1000	0	0	-1	1000
10114195	118	920	0	-100	0	230	101300000	1000	0	0	-1	1000
10126755	113	925	0	-100	0	230	101300000	1000	0	0	-1	1000
10139315	113	925	0	-100	0	230	101300000	1000	0	0	-1	1000
10151875	121	917	0	-100	0	230	101300000	1000	0	0	-1	1000
10164435	113	928	0	-100	0	230	101300000	1000	0	0	-1	1000
10176995	118	920	0	-100	0	230	101300000	1000	0	0	-1	1000
10189555	116	919	0	-100	0	230	101300000	1000	0	0	-1	1000
10202115	113	924	0	-100	0	230	101300000	1000	0	0	-1	1000
10214675	116	920	0	-100	0	230	101300000	1000	0	0	-1	1000
10227235	118	921	0	-100	0	230	101300000	1000	0	0	-1	1000
10239795	113	929	0	-100	0	230	101300000	1000	0	0	-1	1000
10252355	121	918	0	-100	0	230	101300000	1000	0	0	-1	1000
10264915	113	925	0	-100	0	230	101300000	1000	0	0	-1	1000
10277475	116	920	0	-100	0	230	101300000	1000	0	0	-1	1000
10290035	116	918	0	-100	0	230	101300000	1000	0	0	-1	1000
10302595	113	928	0	-100	0	230	101300000	1000	0	0	-1	1000
10315155	126	920	0	-100	0	230	101300000	1000	0	0	-1	1000
10327715	116	926	0	-100	0	230	101300000	1000	0	0	-1	1000
10340275	118	921	0	-100	0	230	101300000	1000	0	0	-1	1000
10352835	116	921	0	-100	0	230	101300000	1000	0	0	-1	1000
10365395	116	923	0	-100	0	230	101300000	1000	0	0	-1	1000
10377955	118	918	0	-100	0	230	101300000	1000	0	0	-1	1000
10390515	111	925	0	-100	0	230	101300000	1000	0	0	-1	1000
10403075	118	921	0	-100	0	230	101300000	1000	0	0	-1	1000
10415635	111	926	0	-100	0	230	101300000	1000	0	0	-1	1000
10428195	121	919	0	-100	0	230	101300000	1000	0	0	-1	1000
10440755	113	929	0	-100	0	230	101300000	1000	0	0	-1	1000
10453315	121	921	0	-100	0	230	101300000	1000	0	0	-1	1000
10465875	113	928	0	-100	0	230	101300000	1000	0	0	-1	1000
10478435	118	920	0	-100	0	230	101300000	1000	0	0	-1	1000
10490995	111	918	0	-100	0	230	101300000	1000	0	0	-1	1000
10503555	116	922	0	-100	0	230	101300000	1000	0	0	-1	1000
10516115	116	920	0	-100	0	230	101300000	1000	0	0	-1	1000
10528675	111	926	0	-100	0	230	101300000	1000	0	0	-1	1000
10541235	118	921	0	-100	0	230	101300000	1000	0	0	-1	1000
10553795	113	930	0	-100	0	230	101300000	1000	0	0	-1	1000
10566355	118	921	0	-100	0	230	101300000	1000	0	0	-1	1000
10578915	116	923	0	-100	0	230	101300000	1000	0	0	-1	1000
10591475	113	924	0	-100	0	230	101300000	1000	0	0	-1	1000
10604035	118	921	0	-100	0	230	101300000	1000	0	0	-1	1000
10616595	111	926	0	-100	0	230	101300000	1000	0	0	-1	1000
10629155	125	920	0	-100	0	230	101300000	1000	0	0	-1	1000
10641715	113	925	0	-100	0	230	101300000	1000	0	0	-1	1000
10654275	118	922	0	-100	0	230	101300000	1000	0	0	-1	1000
10666835	113	924	0	-100	0	230	101300000	1000	0	0	-1	1000
10679395	111	924	0	-100	0	230	101300000	1000	0	0	-1	1000
10691955	118	920	0	-100	0	230	101300000	1000	0	0	-1	1000
10704515	111	923	0	-100	0	230	101300000	1000	0	0	-1	1000
10717075	118	920	0	-100	0	230	101300000	1000	0	0	-1	1000
10729635	113	926	0	-100	0	230	101300000	1000	0	0	-1	1000
10742195	113	928	0	-100	0	230	101300000	1000	0	0	-1	1000
10754755	113	925	0	-100	0	230	101300000	1000	0	0	-1	1000
10767315	118	918	0	-100	0	230	101300000	1000	0	0	-1	1000
10779875	116	919	0	-100	0	230	101300000	1000	0	0	-1	1000
10792435	116	924	0	-100	0	230	101300000	1000	0	0	-1	1000
10804995	113	921	0	-100	0	230	101300000	1000	0	0	-1	1000
10817555	121	921	0	-100	0	230	101300000	1000	0	0	-1	1000
10830115	121	918	0	-100	0	230	101300000	1000	0	0	-1	1000
10842675	116	922	0	-100	0	230	101300000	1000	0	0	-1	1000
10855235	113	925	0	-100	0	230	101300000	1000	0	0	-1	1000
10867795	118	918	0	-100	0	230	101300000	1000	0	0	-1	1000
10880355	111	924	0	-100	0	230	101300000	1000	0	0	-1	1000
10892915	116	923	0	-100	0	230	101300000	1000	0	0	-1	1000
10905475	121	919	0	-100	0	230	101300000	1000	0	0	-1	1000
10918035	116	923	0	-100	0	230	101300000	1000	0	0	-1	1000
10955715	116	919	0	-100	0	230	101300000	1000	0	0	-1	1000
10968275	116	927	0	-100	0	230	101300000	1000	0	0	-1	1000
10980835	118	921	0	-100	0	230	101300000	1000	0	0	-1	1000
10993395	118	920	0	-100	0	230	101300000	1000	0	0	-1	1000
11005955	116	925	0	-100	0	230	101300000	1000	0	0	-1	1000
11018515	113	924	0	-100	0	230	101300000	1000	0	0	-1	1000
11031075	118	922	0	-100	0	230	101300000	1000	0	0	-1	1000
11043635	113	926	0	-100	0	230	101300000	1000	0	0	-1	1000
11056195	113	926	0	-100	0	230	101300000	1000	0	0	-1	1000
11068755	116	920	0	-100	0	230	101300000	1000	0	0	-1	1000
11081315	121	920	0	-100	0	230	101300000	1000	0	0	-1	1000
11144115	116	928	0	-100	0	230	101300000	1000	0	0	-1	1000
11156675	111	925	0	-100	0	230	101300000	1000	0	0	-1	1000
11169235	116	920	0	-100	0	230	101300000	1000	0	0	-1	1000
11181795	118	920	0	-100	0	230	101300000	1000	0	0	-1	1000
11194355	118	921	0	-100	0	230	101300000	1000	0	0	-1	1000
11206915	113	925	0	-100	0	230	101300000	1000	0	0	-1	1000
11219475	116	927	0	-100	0	230	101300000	1000	0	0	-1	1000
11232035	113	926	0	-100	0	230	101300000	1000	0	0	-1	1000
11244595	118	921	0	-100	0	230	101300000	1000	0	0	-1	1000
11257155	126	920	0	-100	0	230	101300000	1000	0	0	-1	1000
11269715	118	922	0	-100	0	230	101300000	1000	0	0	-1	1000
11332515	113	927	0	-100	0	230	101300000	1000	0	0	-1	1000
11345075	113	924	0	-100	0	230	101300000	1000	0	0	-1	1000
11357635	113	922	0	-100	0	230	101300000	1000	0	0	-1	1000
11370195	118	919	0	-100	0	230	101300000	1000	0	0	-1	1000
11382755	121	919	0	-100	0	230	101300000	1000	0	0	-1	1000
11395315	118	920	0	-100	0	230	101300000	1000	0	0	-1	1000
11407875	116	921	0	-100	0	230	101300000	1000	0	0	-1	1000
11420435	111	924	0	-100	0	230	101300000	1000	0	0	-1	1000
11432995	113	920	0	-100	0	230	101300000	1000	0	0	-1	1000
11445555	113	923	0	-100	0	230	101300000	1000	0	0	-1	1000
11458115	118	923	0	-100	0	230	101300000	1000	0	0	-1	1000
11470675	121	918	0	-100	0	230	101300000	1000	0	0	-1	1000
11483235	118	920	0	-100	0	230	101300000	1000	0	0	-1	1000
11495795	116	921	0	-100	0	230	101300000	1000	0	0	-1	1000
11508355	116	925	0	-100	0	230	101300000	1000	0	0	-1	1000
11520915	113	926	0	-100	0	230	101300000	1000	0	0	-1	1000
11533475	111	926	0	-100	0	230	101300000	1000	0	0	-1	1000
11546035	113	930	0	-100	0	230	101300000	1000	0	0	-1	1000
11558595	116	925	0	-100	0	230	101300000	1000	0	0	-1	1000
11571155	118	922	0	-100	0	230	101300000	1000	0	0	-1	1000
11583715	118	921	0	-100	0	230	101300000	1000	0	0	-1	1000
11596275	118	920	0	-100	0	230	101300000	1000	0	0	-1	1000
11608835	118	920	0	-100	0	230	101300000	1000	0	0	-1	1000
11621395	118	920	0	-100	0	230	101300000	1000	0	0	-1	1000
11633955	121	917	0	-100	0	230	101300000	1000	0	0	-1	1000
11646515	116	920	0	-100	0	230	101300000	1000	0	0	-1	1000
11659075	116	922	0	-100	0	230	101300000	1000	0	0	-1	1000
11671635	116	921	0	-100	0	230	101300000	1000	0	0	-1	1000
11684195	113	924	0	-100	0	230	101300000	1000	0	0	-1	1000
11696755	113	924	0	-100	0	230	101300000	1000	0	0	-1	1000
11709315	113	925	0	-100	0	230	101300000	1000	0	0	-1	1000
11721875	113	923	0	-100	0	230	101300000	1000	0	0	-1	1000
11734435	113	921	0	-100	0	230	101300000	1000	0	0	-1	1000
11746995	116	923	0	-100	0	230	101300000	1000	0	0	-1	1000
11759555	113	925	0	-100	0	230	101300000	1000	0	0	-1	1000
11772115	113	926	0	-100	0	230	101300000	1000	0	0	-1	1000
11784675	116	922	0	-100	0	230	101300000	1000	0	0	-1	1000
11797235	121	921	0	-100	0	230	101300000	1000	0	0	-1	1000
11809795	121	919	0	-100	0	230	101300000	1000	0	0	-1	1000
11822355	121	917	0	-100	0	230	101300000	1000	0	0	-1	1000
11834915	121	917	0	-100	0	230	101300000	1000	0	0	-1	1000
11847475	118	919	0	-100	0	230	101300000	1000	0	0	-1	1000
11860035	118	922	0	-100	0	230	101300000	1000	0	0	-1	1000
11872595	118	921	0	-100	0	230	101300000	1000	0	0	-1	1000
11885155	123	921	0	-100	0	230	101300000	1000	0	0	-1	1000
11897715	121	919	0	-100	0	230	101300000	1000	0	0	-1	1000
11910275	116	919	0	-100	0	230	101300000	1000	0	0	-1	1000
11922835	116	920	0	-100	0	230	101300000	1000	0	0	-1	1000
11935395	116	920	0	-100	0	230	101300000	1000	0	0	-1	1000
11947955	111	920	0	-100	0	230	101300000	1000	0	0	-1	1000
11960515	113	925	0	-100	0	230	101300000	1000	0	0	-1	1000
11973075	116	925	0	-100	0	230	101300000	1000	0	0	-1	1000
11985635	111	927	0	-100	0	230	101300000	1000	0	0	-1	1000
11998195	111	925	0	-100	0	230	101300000	1000	0	0	-1	1000
12010755	113	927	0	-100	0	230	101300000	1000	0	0	-1	1000
12023315	111	925	0	-100	0	230	101300000	1000	0	0	-1	1000
12035875	113	924	0	-100	0	230	101300000	1000	0	0	-1	1000
12048435	109	926	0	-100	0	230	101300000	1000	0	0	-1	1000
12060995	111	921	0	-100	0	230	101300000	1000	0	0	-1	1000
12073555	113	928	0	-100	0	230	101300000	1000	0	0	-1	1000
12086115	111	926	0	-100	0	230	101300000	1000	0	0	-1	1000
12098675	113	929	0	-100	0	230	101300000	1000	0	0	-1	1000
12111235	111	926	0	-100	0	230	101300000	1000	0	0	-1	1000
12123795	111	926	0	-100	0	230	101300000	1000	0	0	-1	1000
12136355	116	922	0	-100	0	230	101300000	1000	0	0	-1	1000
12148915	121	919	0	-100	0	230	101300000	1000	0	0	-1	1000
12161475	118	921	0	-100	0	230	101300000	1000	0	0	-1	1000
12174035	113	924	0	-100	0	230	101300000	1000	0	0	-1	1000
12186595	113	928	0	-100	0	230	101300000	1000	0	0	-1	1000
12199155	118	925	0	-100	0	230	101300000	1000	0	0	-1	1000
12211715	121	920	0	-100	0	230	101300000	1000	0	0	-1	1000
12224275	121	918	0	-100	0	230	101300000	1000	0	0	-1	1000
12236835	118	921	0	-100	0	230	101300000	1000	0	0	-1	1000
12249395	113	924	0	-100	0	230	101300000	1000	0	0	-1	1000
12261955	111	927	0	-100	0	230	101300000	1000	0	0	-1	1000
12274515	111	927	0	-100	0	230	101300000	1000	0	0	-1	1000
12287075	113	921	0	-100	0	230	101300000	1000	0	0	-1	1000
12299635	121	920	0	-100	0	230	101300000	1000	0	0	-1	1000
12312195	118	920	0	-100	0	230	101300000	1000	0	0	-1	1000
12324755	113	920	0	-100	0	230	101300000	1000	0	0	-1	1000
12337315	111	923	0	-100	0	230	101300000	1000	0	0	-1	1000
12349875	113	927	0	-100	0	230	101300000	1000	0	0	-1	1000
12362435	118	921	0	-100	0	230	101300000	1000	0	0	-1	1000
12374995	116	918	0	-100	0	230	101300000	1000	0	0	-1	1000
12387555	118	927	0	-100	0	230	101300000	1000	0	0	-1	1000
12400115	111	924	0	-100	0	230	101300000	1000	0	0	-1	1000
12412675	121	920	0	-100	0	230	101300000	1000	0	0	-1	1000
12425235	118	920	0	-100	0	230	101300000	1000	0	0	-1	1000
12437795	113	925	0	-100	0	230	101300000	1000	0	0	-1	1000
12450355	113	928	0	-100	0	230	101300000	1000	0	0	-1	1000
12462915	113	923	0	-100	0	230	101300000	1000	0	0	-1	1000
12475475	121	920	0	-100	0	230	101300000	1000	0	0	-1	1000
12488035	113	921	0	-100	0	230	101300000	1000	0	0	-1	1000
12500595	113	927	0	-100	0	230	101300000	1000	0	0	-1	1000
12513155	121	924	0	-100	0	230	101300000	1000	0	0	-1	1000
12525715	118	921	0	-100	0	230	101300000	1000	0	0	-1	1000
12538275	113	927	0	-100	0	230	101300000	1000	0	0	-1	1000
12550835	121	918	0	-100	0	230	101300000	1000	0	0	-1	1000
12563395	116	919	0	-100	0	230	101300000	1000	0	0	-1	1000
12575955	111	926	0	-100	0	230	101300000	1000	0	0	-1	1000
12588515	118	921	0	-100	0	230	101300000	1000	0	0	-1	1000
12601075	118	920	0	-100	0	230	101300000	1000	0	0	-1	1000
12613635	116	925	0	-100	0	230	101300000	1000	0	0	-1	1000
12626195	111	923	0	-100	0	230	101300000	1000	0	0	-1	1000
12638755	121	916	0	-100	0	230	101300000	1000	0	0	-1	1000
12651315	118	919	0	-100	0	230	101300000	1000	0	0	-1	1000
12663875	116	920	0	-100	0	230	101300000	1000	0	0	-1	1000
12676435	116	922	0	-100	0	230	101300000	1000	0	0	-1	1000
12688995	113	922	0	-100	0	230	101300000	1000	0	0	-1	1000
12701555	111	924	0	-100	0	230	101300000	1000	0	0	-1	1000
12714115	113	923	0	-100	0	230	101300000	1000	0	0	-1	1000
12726675	121	916	0	-100	0	230	101300000	1000	0	0	-1	1000
12739235	116	919	0	-100	0	230	101300000	1000	0	0	-1	1000
12751795	113	930	0	-100	0	230	101300000	1000	0	0	-1	1000
12764355	113	926	0	-100	0	230	101300000	1000	0	0	-1	1000
12776915	121	920	0	-100	0	230	101300000	1000	0	0	-1	1000
12789475	118	920	0	-100	0	230	101300000	1000	0	0	-1	1000
12802035	113	924	0	-100	0	230	101300000	1000	0	0	-1	1000
12814595	113	927	0	-100	0	230	101300000	1000	0	0	-1	1000
12827155	123	921	0	-100	0	230	101300000	1000	0	0	-1	1000
12839715	118	921	0	-100	0	230	101300000	1000	0	0	-1	1000
12852275	113	926	0	-100	0	230	101300000	1000	0	0	-1	1000
12864835	116	926	0	-100	0	230	101300000	1000	0	0	-1	1000
12877395	116	921	0	-100	0	230	101300000	1000	0	0	-1	1000
12889955	121	917	0	-100	0	230	101300000	1000	0	0	-1	1000
12902515	116	921	0	-100	0	230	101300000	1000	0	0	-1	1000
12915075	113	925	0	-100	0	230	101300000	1000	0	0	-1	1000
12927635	116	927	0	-100	0	230	101300000	1000	0	0	-1	1000
12940195	113	928	0	-100	0	230	101300000	1000	0	0	-1	1000
12952755	113	926	0	-100	0	230	101300000	1000	0	0	-1	1000
12965315	111	923	0	-100	0	230	101300000	1000	0	0	-1	1000
12977875	116	920	0	-100	0	230	101300000	1000	0	0	-1	1000
12990435	121	916	0	-100	0	230	101300000	1000	0	0	-1	1000
13002995	118	921	0	-100	0	230	101300000	1000	0	0	-1	1000
13015555	111	923	0	-100	0	230	101300000	1000	0	0	-1	1000
13028115	111	926	0	-100	0	230	101300000	1000	0	0	-1	1000
13040675	121	920	0	-100	0	230	101300000	1000	0	0	-1	1000
13053235	118	919	0	-100	0	230	101300000	1000	0	0	-1	1000
13065795	113	929	0	-100	0	230	101300000	1000	0	0	-1	1000
13078355	113	921	0	-100	0	230	101300000	1000	0	0	-1	1000
13090915	121	920	0	-100	0	230	101300000	1000	0	0	-1	1000
13103475	113	925	0	-100	0	230	101300000	1000	0	0	-1	1000
13116035	111	926	0	-100	0	230	101300000	1000	0	0	-1	1000
13128595	121	921	0	-100	0	230	101300000	1000	0	0	-1	1000
13141155	123	921	0	-100	0	230	101300000	1000	0	0	-1	1000
13153715	113	924	0	-100	0	230	101300000	1000	0	0	-1	1000
13166275	111	927	0	-100	0	230	101300000	1000	0	0	-1	1000
13178835	113	921	0	-100	0	230	101300000	1000	0	0	-1	1000
13191395	121	922	0	-100	0	230	101300000	1000	0	0	-1	1000
13203955	121	919	0	-100	0	230	101300000	1000	0	0	-1	1000
13216515	121	918	0	-100	0	230	101300000	1000	0	0	-1	1000
13229075	118	920	0	-100	0	230	101300000	1000	0	0	-1	1000
13241635	118	918	0	-100	0	230	101300000	1000	0	0	-1	1000
13254195	118	921	0	-100	0	230	101300000	1000	0	0	-1	1000
13266755	116	920	0	-100	0	230	101300000	1000	0	0	-1	1000
13279315	116	920	0	-100	0	230	101300000	1000	0	0	-1	1000
13291875	113	920	0	-100	0	230	101300000	1000	0	0	-1	1000
13304435	113	924	0	-100	0	230	101300000	1000	0	0	-1	1000
13316995	116	919	0	-100	0	230	101300000	1000	0	0	-1	1000
13329555	113	929	0	-100	0	230	101300000	1000	0	0	-1	1000
13342115	109	925	0	-100	0	230	101300000	1000	0	0	-1	1000
13354675	113	924	0	-100	0	230	101300000	1000	0	0	-1	1000
13367235	118	921	0	-100	0	230	101300000	1000	0	0	-1	1000
13379795	121	920	0	-100	0	230	101300000	1000	0	0	-1	1000
13392355	121	917	0	-100	0	230	101300000	1000	0	0	-1	1000
13404915	116	919	0	-100	0	230	101300000	1000	0	0	-1	1000
13417475	116	920	0	-100	0	230	101300000	1000	0	0	-1	1000
13430035	113	924	0	-100	0	230	101300000	1000	0	0	-1	1000
13442595	113	928	0	-100	0	230	101300000	1000	0	0	-1	1000
13455155	118	927	0	-100	0	230	101300000	1000	0	0	-1	1000
13467715	116	920	0	-100	0	230	101300000	1000	0	0	-1	1000
13480275	121	916	0	-100	0	230	101300000	1000	0	0	-1	1000
13492835	118	921	0	-100	0	230	101300000	1000	0	0	-1	1000
13505395	113	922	0	-100	0	230	101300000	1000	0	0	-1	1000
13517955	116	926	0	-100	0	230	101300000	1000	0	0	-1	1000
13530515	113	925	0	-100	0	230	101300000	1000	0	0	-1	1000
13543075	111	923	0	-100	0	230	101300000	1000	0	0	-1	1000
13555635	116	920	0	-100	0	230	101300000	1000	0	0	-1	1000
13568195	121	920	0	-100	0	230	101300000	1000	0	0	-1	1000
13580755	121	918	0	-100	0	230	101300000	1000	0	0	-1	1000
13593315	118	920	0	-100	0	230	101300000	1000	0	0	-1	1000
13605875	116	921	0	-100	0	230	101300000	1000	0	0	-1	1000
13618435	113	923	0	-100	0	230	101300000	1000	0	0	-1	1000
13630995	116	919	0	-100	0	230	101300000	1000	0	0	-1	1000
13643555	113	928	0	-100	0	230	101300000	1000	0	0	-1	1000
13656115	111	922	0	-100	0	230	101300000	1000	0	0	-1	1000
13668675	121	917	0	-100	0	230	101300000	1000	0	0	-1	1000
13681235	113	921	0	-100	0	230	101300000	1000	0	0	-1	1000
13693795	111	926	0	-100	0	230	101300000	1000	0	0	-1	1000
13706355	121	920	0	-100	0	230	101300000	1000	0	0	-1	1000
13718915	118	919	0	-100	0	230	101300000	1000	0	0	-1	1000
13731475	113	925	0	-100	0	230	101300000	1000	0	0	-1	1000
13744035	111	926	0	-100	0	230	101300000	1000	0	0	-1	1000
13756595	121	918	0	-100	0	230	101300000	1000	0	0	-1	1000
13769155	118	923	0	-100	0	230	101300000	1000	0	0	-1	1000
13781715	118	920	0	-100	0	230	101300000	1000	0	0	-1	1000
13794275	111	924	0	-100	0	230	101300000	1000	0	0	-1	1000
13806835	116	920	0	-100	0	230	101300000	1000	0	0	-1	1000
13819395	121	918	0	-100	0	230	101300000	1000	0	0	-1	1000
13831955	113	927	0	-100	0	230	101300000	1000	0	0	-1	1000
13844515	121	918	0	-100	0	230	101300000	1000	0	0	-1	1000
13857075	116	928	0	-100	0	230	101300000	1000	0	0	-1	1000
13869635	121	920	0	-100	0	230	101300000	1000	0	0	-1	1000
13882195	111	925	0	-100	0	230	101300000	1000	0	0	-1	1000
13894755	118	921	0	-100	0	230	101300000	1000	0	0	-1	1000
13907315	113	926	0	-100	0	230	101300000	1000	0	0	-1	1000
13919875	113	922	0	-100	0	230	101300000	1000	0	0	-1	1000
13932435	121	920	0	-100	0	230	101300000	1000	0	0	-1	1000
13944995	113	921	0	-100	0	230	101300000	1000	0	0	-1	1000
13957555	118	922	0	-100	0	230	101300000	1000	0	0	-1	1000
13970115	113	928	0	-100	0	230	101300000	1000	0	0	-1	1000
13982675	118	921	0	-100	0	230	101300000	1000	0	0	-1	1000
13995235	113	931	0	-100	0	230	101300000	1000	0	0	-1	1000
14007795	118	921	0	-100	0	230	101300000	1000	0	0	-1	1000
14045475	121	920	0	-100	0	230	101300000	1000	0	0	-1	1000
14058035	111	925	0	-100	0	230	101300000	1000	0	0	-1	1000
14070595	113	922	0	-100	0	230	101300000	1000	0	0	-1	1000
14083155	118	923	0	-100	0	230	101300000	1000	0	0	-1	1000
14095715	121	920	0	-100	0	230	101300000	1000	0	0	-1	1000
14108275	113	929	0	-100	0	230	101300000	1000	0	0	-1	1000
14120835	118	921	0	-100	0	230	101300000	1000	0	0	-1	1000
14133395	121	920	0	-100	0	230	101300000	1000	0	0	-1	1000
14145955	116	926	0	-100	0	230	101300000	1000	0	0	-1	1000
14158515	113	922	0	-100	0	230	101300000	1000	0	0	-1	1000
14171075	118	920	0	-100	0	230	101300000	1000	0	0	-1	1000
14183635	116	925	0	-100	0	230	101300000	1000	0	0	-1	1000
14246435	118	921	0	-100	0	230	101300000	1000	0	0	-1	1000
14258995	113	920	0	-100	0	230	101300000	1000	0	0	-1	1000
14271555	116	922	0	-100	0	230	101300000	1000	0	0	-1	1000
14284115	118	921	0	-100	0	230	101300000	1000	0	0	-1	1000
14296675	113	925	0	-100	0	230	101300000	1000	0	0	-1	1000
14309235	111	925	0	-100	0	230	101300000	1000	0	0	-1	1000
14321795	118	917	0	-100	0	230	101300000	1000	0	0	-1	1000
14334355	111	923	0	-100	0	230	101300000	1000	0	0	-1	1000
14346915	113	927	0	-100	0	230	101300000	1000	0	0	-1	1000
14359475	116	922	0	-100	0	230	101300000	1000	0	0	-1	1000
14372035	118	922	0	-100	0	230	101300000	1000	0	0	-1	1000
14384595	111	923	0	-100	0	230	101300000	1000	0	0	-1	1000
14397155	118	923	0	-100	0	230	101300000	1000	0	0	-1	1000
14409715	118	920	0	-100	0	230	101300000	1000	0	0	-1	1000
14422275	116	929	0	-100	0	230	101300000	1000	0	0	-1	1000
14434835	116	921	0	-100	0	230	101300000	1000	0	0	-1	1000
14447395	118	919	0	-100	0	230	101300000	1000	0	0	-1	1000
14459955	113	928	0	-100	0	230	101300000	1000	0	0	-1	1000
14472515	121	921	0	-100	0	230	101300000	1000	0	0	-1	1000
14485075	113	921	0	-100	0	230	101300000	1000	0	0	-1	1000
14497635	113	927	0	-100	0	230	101300000	1000	0	0	-1	1000
14510195	118	918	0	-100	0	230	101300000	1000	0	0	-1	1000
14522755	116	922	0	-100	0	230	101300000	1000	0	0	-1	1000
14535315	111	926	0	-100	0	230	101300000	1000	0	0	-1	1000
14547875	121	918	0	-100	0	230	101300000	1000	0	0	-1	1000
14560435	113	924	0	-100	0	230	101300000	1000	0	0	-1	1000
14572995	116	922	0	-100	0	230	101300000	1000	0	0	-1	1000
14585555	118	920	0	-100	0	230	101300000	1000	0	0	-1	1000
14598115	116	924	0	-100	0	230	101300000	1000	0	0	-1	1000
14610675	113	924	0	-100	0	230	101300000	1000	0	0	-1	1000
14623235	118	920	0	-100	0	230	101300000	1000	0	0	-1	1000
14635795	111	923	0	-100	0	230	101300000	1000	0	0	-1	1000
14648355	111	924	0	-100	0	230	101300000	1000	0	0	-1	1000
14660915	121	915	0	-100	0	230	101300000	1000	0	0	-1	1000
14673475	116	919	0	-100	0	230	101300000	1000	0	0	-1	1000
14686035	113	928	0	-100	0	230	101300000	1000	0	0	-1	1000
14698595	111	924	0	-100	0	230	101300000	1000	0	0	-1	1000
14711155	121	925	0	-100	0	230	101300000	1000	0	0	-1	1000
14723715	121	917	0	-100	0	230	101300000	1000	0	0	-1	1000
14736275	118	920	0	-100	0	230	101300000	1000	0	0	-1	1000
14748835	111	924	0	-100	0	230	101300000	1000	0	0	-1	1000
14761395	111	926	0	-100	0	230	101300000	1000	0	0	-1	1000
14773955	113	924	0	-100	0	230	101300000	1000	0	0	-1	1000
14786515	121	916	0	-100	0	230	101300000	1000	0	0	-1	1000
14799075	118	918	0	-100	0	230	101300000	1000	0	0	-1	1000
14811635	113	927	0	-100	0	230	101300000	1000	0	0	-1	1000
14824195	116	927	0	-100	0	230	101300000	1000	0	0	-1	1000
14836755	116	920	0	-100	0	230	101300000	1000	0	0	-1	1000
14849315	121	917	0	-100	0	230	101300000	1000	0	0	-1	1000
14861875	116	920	0	-100	0	230	101300000	1000	0	0	-1	1000
14874435	116	926	0	-100	0	230	101300000	1000	0	0	-1	1000
14886995	113	924	0	-100	0	230	101300000	1000	0	0	-1	1000
14899555	121	914	0	-100	0	230	101300000	1000	0	0	-1	1000
14912115	113	922	0	-100	0	230	101300000	1000	0	0	-1	1000
14924675	113	928	0	-100	0	230	101300000	1000	0	0	-1	1000
14937235	116	921	0	-100	0	230	101300000	1000	0	0	-1	1000
14949795	118	921	0	-100	0	230	101300000	1000	0	0	-1	1000
14962355	111	924	0	-100	0	230	101300000	1000	0	0	-1	1000
14974915	113	928	0	-100	0	230	101300000	1000	0	0	-1	1000
14987475	118	923	0	-100	0	230	101300000	1000	0	0	-1	1000
15000035	118	919	0	-100	0	230	101300000	1000	0	0	-1	1000
15012595	111	923	0	-100	0	230	101300000	1000	0	0	-1	1000
15025155	118	928	0	-100	0	230	101300000	1000	0	0	-1	1000
15037715	113	927	0	-100	0	230	101300000	1000	0	0	-1	1000
15050275	116	927	0	-100	0	230	101300000	1000	0	0	-1	1000
15062835	121	920	0	-100	0	230	101300000	1000	0	0	-1	1000
15075395	118	921	0	-100	0	230	101300000	1000	0	0	-1	1000
15087955	113	920	0	-100	0	230	101300000	1000	0	0	-1	1000
15100515	116	924	0	-100	0	230	101300000	1000	0	0	-1	1000
15113075	113	927	0	-100	0	230	101300000	1000	0	0	-1	1000
15125635	118	916	0	-100	0	230	101300000	1000	0	0	-1	1000
15138195	118	919	0	-100	0	230	101300000	1000	0	0	-1	1000
15150755	113	923	0	-100	0	230	101300000	1000	0	0	-1	1000
15163315	111	922	0	-100	0	230	101300000	1000	0	0	-1	1000
15175875	116	929	0	-100	0	230	101300000	1000	0	0	-1	1000
15188435	113	928	0	-100	0	230	101300000	1000	0	0	-1	1000
15200995	111	910	0	-100	0	230	101300000	1000	0	0	-1	1000
15213555	111	925	0	-100	0	230	101300000	1000	0	0	-1	1000
15226115	111	924	0	-100	0	230	101300000	1000	0	0	-1	1000
15238675	118	920	0	-100	0	230	101300000	1000	0	0	-1	1000
15251235	121	918	0	-100	0	230	101300000	1000	0	0	-1	1000
15263795	118	934	0	-100	0	230	101300000	1000	0	0	-1	1000
15276355	116	920	0	-100	0	230	101300000	1000	0	0	-1	1000
15288915	113	923	0	-100	0	230	101300000	1000	0	0	-1	1000
15301475	116	931	0	-100	0	230	101300000	1000	0	0	-1	1000
15314035	111	927	0	-100	0	230	101300000	1000	0	0	-1	1000
15326595	113	926	0	-100	0	230	101300000	1000	0	0	-1	1000
15339155	121	922	0	-100	0	230	101300000	1000	0	0	-1	1000
15351715	121	918	0	-100	0	230	101300000	1000	0	0	-1	1000
15364275	121	916	0	-100	0	230	101300000	1000	0	0	-1	1000
15376835	118	921	0	-100	0	230	101300000	1000	0	0	-1	1000
15389395	116	918	0	-100	0	230	101300000	1000	0	0	-1	1000
15401955	111	921	0	-100	0	230	101300000	1000	0	0	-1	1000
15414515	113	927	0	-100	0	230	101300000	1000	0	0	-1	1000
15427075	111	927	0	-100	0	230	101300000	1000	0	0	-1	1000
15439635	109	925	0	-100	0	230	101300000	1000	0	0	-1	1000
15452195	113	921	0	-100	0	230	101300000	1000	0	0	-1	1000
15464755	121	917	0	-100	0	230	101300000	1000	0	0	-1	1000
15477315	118	920	0	-100	0	230	101300000	1000	0	0	-1	1000
15489875	116	926	0	-100	0	230	101300000	1000	0	0	-1	1000
15502435	113	922	0	-100	0	230	101300000	1000	0	0	-1	1000
15514995	118	923	0	-100	0	230	101300000	1000	0	0	-1	1000
15527555	113	929	0	-100	0	230	101300000	1000	0	0	-1	1000
15540115	113	931	0	-100	0	230	101300000	1000	0	0	-1	1000
15552675	116	921	0	-100	0	230	101300000	1000	0	0	-1	1000
15565235	118	915	0	-100	0	230	101300000	1000	0	0	-1	1000
15577795	118	921	0	-100	0	230	101300000	1000	0	0	-1	1000
15590355	113	921	0	-100	0	230	101300000	1000	0	0	-1	1000
15602915	116	924	0	-100	0	230	101300000	1000	0	0	-1	1000
15615475	113	928	0	-100	0	230	101300000	1000	0	0	-1	1000
15628035	113	924	0	-100	0	230	101300000	1000	0	0	-1	1000
15640595	121	916	0	-100	0	230	101300000	1000	0	0	-1	1000
15653155	123	918	0	-100	0	230	101300000	1000	0	0	-1	1000
15665715	111	922	0	-100	0	230	101300000	1000	0	0	-1	1000
15678275	113	928	0	-100	0	230	101300000	1000	0	0	-1	1000
15690835	113	925	0	-100	0	230	101300000	1000	0	0	-1	1000
15703395	118	917	0	-100	0	230	101300000	1000	0	0	-1	1000
15715955	116	917	0	-100	0	230	101300000	1000	0	0	-1	1000
15728515	111	921	0	-100	0	230	101300000	1000	0	0	-1	1000
15741075	113	920	0	-100	0	230	101300000	1000	0	0	-1	1000
15753635	111	923	0	-100	0	230	101300000	1000	0	0	-1	1000
15766195	111	937	0	-100	0	230	101300000	1000	0	0	-1	1000
15778755	111	925	0	-100	0	230	101300000	1000	0	0	-1	1000
15791315	118	922	0	-100	0	230	101300000	1000	0	0	-1	1000
15803875	118	921	0	-100	0	230	101300000	1000	0	0	-1	1000
15816435	116	920	0	-100	0	230	101300000	1000	0	0	-1	1000
15828995	113	922	0	-100	0	230	101300000	1000	0	0	-1	1000
15841555	111	925	0	-100	0	230	101300000	1000	0	0	-1	1000
15854115	118	921	0	-100	0	230	101300000	1000	0	0	-1	1000
15866675	121	918	0	-100	0	230	101300000	1000	0	0	-1	1000
15879235	118	923	0	-100	0	230	101300000	1000	0	0	-1	1000
15891795	113	921	0	-100	0	230	101300000	1000	0	0	-1	1000
15904355	113	924	0	-100	0	230	101300000	1000	0	0	-1	1000
15916915	111	925	0	-100	0	230	101300000	1000	0	0	-1	1000
15929475	113	922	0	-100	0	230	101300000	1000	0	0	-1	1000
15942035	121	915	0	-100	0	230	101300000	1000	0	0	-1	1000
15954595	118	920	0	-100	0	230	101300000	1000	0	0	-1	1000
15967155	118	925	0	-100	0	230	101300000	1000	0	0	-1	1000
15979715	111	922	0	-100	0	230	101300000	1000	0	0	-1	1000
15992275	116	921	0	-100	0	230	101300000	1000	0	0	-1	1000
16004835	118	922	0	-100	0	230	101300000	1000	0	0	-1	1000
16017395	118	922	0	-100	0	230	101300000	1000	0	0	-1	1000
16029955	116	923	0	-100	0	230	101300000	1000	0	0	-1	1000
16042515	113	923	0	-100	0	230	101300000	1000	0	0	-1	1000
16055075	118	922	0	-100	0	230	101300000	1000	0	0	-1	1000
16067635	113	927	0	-100	0	230	101300000	1000	0	0	-1	1000
16080195	113	928	0	-100	0	230	101300000	1000	0	0	-1	1000
16092755	116	924	0	-100	0	230	101300000	1000	0	0	-1	1000
16105315	118	919	0	-100	0	230	101300000	1000	0	0	-1	1000
16117875	118	921	0	-100	0	230	101300000	1000	0	0	-1	1000
16130435	113	925	0	-100	0	230	101300000	1000	0	0	-1	1000
16142995	113	920	0	-100	0	230	101300000	1000	0	0	-1	1000
16155555	113	926	0	-100	0	230	101300000	1000	0	0	-1	1000
16168115	113	926	0	-100	0	230	101300000	1000	0	0	-1	1000
16180675	116	921	0	-100	0	230	101300000	1000	0	0	-1	1000
16193235	118	918	0	-100	0	230	101300000	1000	0	0	-1	1000
16205795	118	920	0	-100	0	230	101300000	1000	0	0	-1	1000
16218355	113	922	0	-100	0	230	101300000	1000	0	0	-1	1000
16230915	113	930	0	-100	0	230	101300000	1000	0	0	-1	1000
16243475	113	925	0	-100	0	230	101300000	1000	0	0	-1	1000
16256035	121	917	0	-100	0	230	101300000	1000	0	0	-1	1000
16268595	118	919	0	-100	0	230	101300000	1000	0	0	-1	1000
16281155	121	923	0	-100	0	230	101300000	1000	0	0	-1	1000
16293715	116	924	0	-100	0	230	101300000	1000	0	0	-1	1000
16306275	113	929	0	-100	0	230	101300000	1000	0	0	-1	1000
16318835	111	925	0	-100	0	230	101300000	1000	0	0	-1	1000
16331395	116	920	0	-100	0	230	101300000	1000	0	0	-1	1000
16343955	121	921	0	-100	0	230	101300000	1000	0	0	-1	1000
16356515	118	921	0	-100	0	230	101300000	1000	0	0	-1	1000
16369075	121	919	0	-100	0	230	101300000	1000	0	0	-1	1000
16381635	111	924	0	-100	0	230	101300000	1000	0	0	-1	1000
16394195	113	928	0	-100	0	230	101300000	1000	0	0	-1	1000
16406755	111	924	0	-100	0	230	101300000	1000	0	0	-1	1000
16419315	118	922	0	-100	0	230	101300000	1000	0	0	-1	1000
16431875	118	921	0	-100	0	230	101300000	1000	0	0	-1	1000
16444435	113	924	0	-100	0	230	101300000	1000	0	0	-1	1000
16456995	111	920	0	-100	0	230	101300000	1000	0	0	-1	1000
16469555	118	921	0	-100	0	230	101300000	1000	0	0	-1	1000
16482115	118	920	0	-100	0	230	101300000	1000	0	0	-1	1000
16494675	113	926	0	-100	0	230	101300000	1000	0	0	-1	1000
16507235	111	926	0	-100	0	230	101300000	1000	0	0	-1	1000
16519795	121	919	0	-100	0	230	101300000	1000	0	0	-1	1000
16532355	116	919	0	-100	0	230	101300000	1000	0	0	-1	1000
16544915	116	924	0	-100	0	230	101300000	1000	0	0	-1	1000
16557475	111	926	0	-100	0	230	101300000	1000	0	0	-1	1000
16570035	118	921	0	-100	0	230	101300000	1000	0	0	-1	1000
16582595	116	920	0	-100	0	230	101300000	1000	0	0	-1	1000
16595155	121	925	0	-100	0	230	101300000	1000	0	0	-1	1000
16607715	113	926	0	-100	0	230	101300000	1000	0	0	-1	1000
16620275	113	921	0	-100	0	230	101300000	1000	0	0	-1	1000
16632835	118	921	0	-100	0	230	101300000	1000	0	0	-1	1000
16645395	113	922	0	-100	0	230	101300000	1000	0	0	-1	1000
16657955	111	928	0	-100	0	230	101300000	1000	0	0	-1	1000
16670515	113	925	0	-100	0	230	101300000	1000	0	0	-1	1000
16683075	121	920	0	-100	0	230	101300000	1000	0	0	-1	1000
16695635	113	924	0	-100	0	230	101300000	1000	0	0	-1	1000
16708195	111	925	0	-100	0	230	101300000	1000	0	0	-1	1000
16720755	121	920	0	-100	0	230	101300000	1000	0	0	-1	1000
16733315	118	920	0	-100	0	230	101300000	1000	0	0	-1	1000
16745875	113	922	0	-100	0	230	101300000	1000	0	0	-1	1000
16758435	116	924	0	-100	0	230	101300000	1000	0	0	-1	1000
16770995	113	920	0	-100	0	230	101300000	1000	0	0	-1	1000
16783555	116	921	0	-100	0	230	101300000	1000	0	0	-1	1000
16796115	118	920	0	-100	0	230	101300000	1000	0	0	-1	1000
16808675	116	921	0	-100	0	230	101300000	1000	0	0	-1	1000
16821235	116	929	0	-100	0	230	101300000	1000	0	0	-1	1000
16833795	111	923	0	-100	0	230	101300000	1000	0	0	-1	1000
16846355	121	920	0	-100	0	230	101300000	1000	0	0	-1	1000
16858915	118	920	0	-100	0	230	101300000	1000	0	0	-1	1000
16871475	113	925	0	-100	0	230	101300000	1000	0	0	-1	1000
16884035	113	928	0	-100	0	230	101300000	1000	0	0	-1	1000
16896595	111	923	0	-100	0	230	101300000	1000	0	0	-1	1000
16909155	128	920	0	-100	0	230	101300000	1000	0	0	-1	1000
16921715	118	921	0	-100	0	230	101300000	1000	0	0	-1	1000
16946835	111	927	0	-100	0	230	101300000	1000	0	0	-1	1000
16959395	111	925	0	-100	0	230	101300000	1000	0	0	-1	1000
16971955	116	920	0	-100	0	230	101300000	1000	0	0	-1	1000
16984515	118	918	0	-100	0	230	101300000	1000	0	0	-1	1000
16997075	118	920	0	-100	0	230	101300000	1000	0	0	-1	1000
17009635	111	922	0	-100	0	230	101300000	1000	0	0	-1	1000
17022195	111	927	0	-100	0	230	101300000	1000	0	0	-1	1000
17034755	121	921	0	-100	0	230	101300000	1000	0	0	-1	1000
17047315	118	920	0	-100	0	230	101300000	1000	0	0	-1	1000
17059875	116	924	0	-100	0	230	101300000	1000	0	0	-1	1000
17072435	113	926	0	-100	0	230	101300000	1000	0	0	-1	1000
17084995	121	925	0	-100	0	230	101300000	1000	0	0	-1	1000
17147795	113	921	0	-100	0	30	101300000	1000	0	0	-1	1000
17160355	123	923	0	-100	0	230	101300000	1000	0	0	-1	1000
17172915	118	920	0	-100	0	230	101300000	1000	0	0	-1	1000
17185475	116	924	0	-100	0	230	101300000	1000	0	0	-1	1000
17198035	111	927	0	-100	0	230	101300000	1000	0	0	-1	1000
17210595	111	923	0	-100	0	230	101300000	1000	0	0	-1	1000
17223155	123	922	0	-100	0	230	101300000	1000	0	0	-1	1000
17235715	118	920	0	-100	0	230	101300000	1000	0	0	-1	1000
17248275	116	919	0	-100	0	230	101300000	1000	0	0	-1	1000
17260835	116	920	0	-100	0	230	101300000	1000	0	0	-1	1000
17273395	113	926	0	-100	0	230	101300000	1000	0	0	-1	1000
17285955	113	926	0	-100	0	230	101300000	1000	0	0	-1	1000
17298515	118	921	0	-100	0	230	101300000	1000	0	0	-1	1000
17336195	113	927	0	-100	0	230	101300000	1000	0	0	-1	1000
17348755	113	924	0	-100	0	230	101300000	1000	0	0	-1	1000
17361315	118	921	0	-100	0	230	101300000	1000	0	0	-1	1000
17373875	116	918	0	-100	0	230	101300000	1000	0	0	-1	1000
17386435	113	924	0	-100	0	230	101300000	1000	0	0	-1	1000
17398995	111	923	0	-100	0	230	101300000	1000	0	0	-1	1000
17411555	121	918	0	-100	0	230	101300000	1000	0	0	-1	1000
17424115	113	921	0	-100	0	230	101300000	1000	0	0	-1	1000
17436675	116	929	0	-100	0	230	101300000	1000	0	0	-1	1000
17449235	113	922	0	-100	0	230	101300000	1000	0	0	-1	1000
17461795	118	919	0	-100	0	230	101300000	1000	0	0	-1	1000
17474355	116	924	0	-100	0	230	101300000	1000	0	0	-1	1000
17486915	113	924	0	-100	0	230	101300000	1000	0	0	-1	1000
17499475	121	920	0	-100	0	230	101300000	1000	0	0	-1	1000
17512035	113	921	0	-100	0	230	101300000	1000	0	0	-1	1000
17524595	113	925	0	-100	0	230	101300000	1000	0	0	-1	1000
17537155	121	928	0	-100	0	230	101300000	1000	0	0	-1	1000
17549715	111	922	0	-100	0	230	101300000	1000	0	0	-1	1000
17562275	121	919	0	-100	0	230	101300000	1000	0	0	-1	1000
17574835	116	919	0	-100	0	230	101300000	1000	0	0	-1	1000
17587395	113	928	0	-100	0	230	101300000	1000	0	0	-1	1000
17599955	116	923	0	-100	0	230	101300000	1000	0	0	-1	1000
17612515	118	918	0	-100	0	230	101300000	1000	0	0	-1	1000
17625075	118	921	0	-100	0	230	101300000	1000	0	0	-1	1000
17637635	111	926	0	-100	0	230	101300000	1000	0	0	-1	1000
17650195	111	923	0	-100	0	230	101300000	1000	0	0	-1	1000
17662755	118	921	0	-100	0	230	101300000	1000	0	0	-1	1000
17675315	118	920	0	-100	0	230	101300000	1000	0	0	-1	1000
17687875	111	922	0	-100	0	230	101300000	1000	0	0	-1	1000
17700435	111	924	0	-100	0	230	101300000	1000	0	0	-1	1000
17712995	111	920	0	-100	0	230	101300000	1000	0	0	-1	1000
17725555	113	928	0	-100	0	230	101300000	1000	0	0	-1	1000
17738115	113	928	0	-100	0	230	101300000	1000	0	0	-1	1000
17750675	116	927	0	-100	0	230	101300000	1000	0	0	-1	1000
17763235	111	926	0	-100	0	230	101300000	1000	0	0	-1	1000
17775795	113	929	0	-100	0	230	101300000	1000	0	0	-1	1000
17788355	116	929	0	-100	0	230	101300000	1000	0	0	-1	1000
17800915	113	925	0	-100	0	230	101300000	1000	0	0	-1	1000
17813475	113	925	0	-100	0	230	101300000	1000	0	0	-1	1000
17826035	111	923	0	-100	0	230	101300000	1000	0	0	-1	1000
17838595	116	920	0	-100	0	230	101300000	1000	0	0	-1	1000
17851155	121	920	0	-100	0	230	101300000	1000	0	0	-1	1000
17863715	121	921	0	-100	0	230	101300000	1000	0	0	-1	1000
17876275	121	920	0	-100	0	230	101300000	1000	0	0	-1	1000
17888835	113	922	0	-100	0	230	101300000	1000	0	0	-1	1000
17901395	111	925	0	-100	0	230	101300000	1000	0	0	-1	1000
17913955	113	925	0	-100	0	230	101300000	1000	0	0	-1	1000
17926515	111	923	0	-100	0	230	101300000	1000	0	0	-1	1000
17939075	118	921	0	-100	0	230	101300000	1000	0	0	-1	1000
17951635	121	920	0	-100	0	230	101300000	1000	0	0	-1	1000
17964195	118	919	0	-100	0	230	101300000	1000	0	0	-1	1000
17976755	118	922	0	-100	0	230	101300000	1000	0	0	-1	1000
17989315	113	921	0	-100	0	230	101300000	1000	0	0	-1	1000
18001875	113	921	0	-100	0	230	101300000	1000	0	0	-1	1000
18014435	118	920	0	-100	0	230	101300000	1000	0	0	-1	1000
18026995	113	929	0	-100	0	230	101300000	1000	0	0	-1	1000
18039555	113	926	0	-100	0	230	101300000	1000	0	0	-1	1000
18052115	111	925	0	-100	0	230	101300000	1000	0	0	-1	1000
18064675	111	926	0	-100	0	230	101300000	1000	0	0	-1	1000
18077235	113	929	0	-100	0	230	101300000	1000	0	0	-1	1000
18089795	113	928	0	-100	0	230	101300000	1000	0	0	-1	1000
18102355	113	928	0	-100	0	230	101300000	1000	0	0	-1	1000
18114915	113	929	0	-100	0	230	101300000	1000	0	0	-1	1000
18127475	113	924	0	-100	0	230	101300000	1000	0	0	-1	1000
18140035	113	925	0	-100	0	230	101300000	1000	0	0	-1	1000
18152595	111	923	0	-100	0	230	101300000	1000	0	0	-1	1000
18165155	116	925	0	-100	0	230	101300000	1000	0	0	-1	1000
18177715	111	923	0	-100	0	230	101300000	1000	0	0	-1	1000
18190275	111	924	0	-100	0	230	101300000	1000	0	0	-1	1000
18202835	111	924	0	-100	0	230	101300000	1000	0	0	-1	1000
18215395	113	924	0	-100	0	230	101300000	1000	0	0	-1	1000
18227955	121	920	0	-100	0	230	101300000	1000	0	0	-1	1000
18240515	118	920	0	-100	0	230	101300000	1000	0	0	-1	1000
18253075	113	924	0	-100	0	230	101300000	1000	0	0	-1	1000
18265635	111	923	0	-100	0	230	101300000	1000	0	0	-1	1000
18278195	111	924	0	-100	0	230	101300000	1000	0	0	-1	1000
18290755	113	927	0	-100	0	230	101300000	1000	0	0	-1	1000
18303315	113	928	0	-100	0	230	101300000	1000	0	0	-1	1000
18315875	111	924	0	-100	0	230	101300000	1000	0	0	-1	1000
18328435	113	923	0	-100	0	230	101300000	1000	0	0	-1	1000
18340995	116	921	0	-100	0	230	101300000	1000	0	0	-1	1000
18353555	116	918	0	-100	0	230	101300000	1000	0	0	-1	1000
18366115	118	920	0	-100	0	230	101300000	1000	0	0	-1	1000
18378675	118	922	0	-100	0	230	101300000	1000	0	0	-1	1000
18391235	113	920	0	-100	0	230	101300000	1000	0	0	-1	1000
18403795	116	920	0	-100	0	230	101300000	1000	0	0	-1	1000
18416355	116	919	0	-100	0	230	101300000	1000	0	0	-1	1000
18428915	118	921	0	-100	0	230	101300000	1000	0	0	-1	1000
18441475	121	920	0	-100	0	230	101300000	1000	0	0	-1	1000
18454035	118	918	0	-100	0	230	101300000	1000	0	0	-1	1000
18466595	121	921	0	-100	0	230	101300000	1000	0	0	-1	1000
18479155	121	923	0	-100	0	230	101300000	1000	0	0	-1	1000
18491715	111	925	0	-100	0	230	101300000	1000	0	0	-1	1000
18504275	111	926	0	-100	0	230	101300000	1000	0	0	-1	1000
18516835	111	926	0	-100	0	230	101300000	1000	0	0	-1	1000
18529395	116	929	0	-100	0	230	101300000	1000	0	0	-1	1000
18541955	113	924	0	-100	0	230	101300000	1000	0	0	-1	1000
18554515	113	925	0	-100	0	230	101300000	1000	0	0	-1	1000
18567075	113	924	0	-100	0	230	101300000	1000	0	0	-1	1000
18579635	111	923	0	-100	0	230	101300000	1000	0	0	-1	1000
18592195	113	924	0	-100	0	230	101300000	1000	0	0	-1	1000
18604755	113	924	0	-100	0	230	101300000	1000	0	0	-1	1000
18617315	113	923	0	-100	0	230	101300000	1000	0	0	-1	1000
18629875	118	929	0	-100	0	230	101300000	1000	0	0	-1	1000
18642435	113	925	0	-100	0	230	101300000	1000	0	0	-1	1000
18654995	113	928	0	-100	0	230	101300000	1000	0	0	-1	1000
18667555	116	921	0	-100	0	230	101300000	1000	0	0	-1	1000
18680115	116	922	0	-100	0	230	101300000	1000	0	0	-1	1000
18692675	121	920	0	-100	0	230	101300000	1000	0	0	-1	1000
18705235	118	920	0	-100	0	230	101300000	1000	0	0	-1	1000
18717795	118	920	0	-100	0	230	101300000	1000	0	0	-1	1000
18730355	118	921	0	-100	0	230	101300000	1000	0	0	-1	1000
18742915	118	922	0	-100	0	230	101300000	1000	0	0	-1	1000
18755475	121	920	0	-100	0	230	101300000	1000	0	0	-1	1000
18768035	116	919	0	-100	0	230	101300000	1000	0	0	-1	1000
18780595	116	920	0	-100	0	230	101300000	1000	0	0	-1	1000
18793155	121	922	0	-100	0	230	101300000	1000	0	0	-1	1000
18805715	118	922	0	-100	0	230	101300000	1000	0	0	-1	1000
18818275	121	917	0	-100	0	230	101300000	1000	0	0	-1	1000
18830835	118	920	0	-100	0	230	101300000	1000	0	0	-1	1000
18843395	116	920	0	-100	0	230	101300000	1000	0	0	-1	1000
18855955	111	923	0	-100	0	230	101300000	1000	0	0	-1	1000
18868515	113	929	0	-100	0	230	101300000	1000	0	0	-1	1000
18881075	111	928	0	-100	0	230	101300000	1000	0	0	-1	1000
18893635	111	926	0	-100	0	230	101300000	1000	0	0	-1	1000
18906195	111	926	0	-100	0	230	101300000	1000	0	0	-1	1000
18918755	111	925	0	-100	0	230	101300000	1000	0	0	-1	1000
18931315	113	928	0	-100	0	230	101300000	1000	0	0	-1	1000
18943875	111	925	0	-100	0	230	101300000	1000	0	0	-1	1000
18956435	113	929	0	-100	0	230	101300000	1000	0	0	-1	1000
18968995	113	921	0	-100	0	230	101300000	1000	0	0	-1	1000
18981555	113	927	0	-100	0	230	101300000	1000	0	0	-1	1000
18994115	113	926	0	-100	0	230	101300000	1000	0	0	-1	1000
19006675	116	927	0	-100	0	230	101300000	1000	0	0	-1	1000
19019235	113	930	0	-100	0	230	101300000	1000	0	0	-1	1000
19031795	113	928	0	-100	0	230	101300000	1000	0	0	-1	1000
19044355	111	925	0	-100	0	230	101300000	1000	0	0	-1	1000
19056915	111	923	0	-100	0	230	101300000	1000	0	0	-1	1000
19069475	113	925	0	-100	0	230	101300000	1000	0	0	-1	1000
19082035	111	925	0	-100	0	230	101300000	1000	0	0	-1	1000
19094595	111	925	0	-100	0	230	101300000	1000	0	0	-1	1000
19107155	116	928	0	-100	0	230	101300000	1000	0	0	-1	1000
19119715	116	927	0	-100	0	230	101300000	1000	0	0	-1	1000
19132275	111	928	0	-100	0	230	101300000	1000	0	0	-1	1000
19144835	113	928	0	-100	0	230	101300000	1000	0	0	-1	1000
19157395	113	927	0	-100	0	230	101300000	1000	0	0	-1	1000
19169955	111	925	0	-100	0	230	101300000	1000	0	0	-1	1000
19182515	111	925	0	-100	0	230	101300000	1000	0	0	-1	1000
19195075	113	929	0	-100	0	230	101300000	1000	0	0	-1	1000
19207635	113	928	0	-100	0	230	101300000	1000	0	0	-1	1000
19220195	113	929	0	-100	0	230	101300000	1000	0	0	-1	1000
19232755	111	926	0	-100	0	230	101300000	1000	0	0	-1	1000
19245315	111	924	0	-100	0	230	101300000	1000	0	0	-1	1000
19257875	113	921	0	-100	0	230	101300000	1000	0	0	-1	1000
19270435	121	919	0	-100	0	230	101300000	1000	0	0	-1	1000
19282995	118	925	0	-100	0	230	101300000	1000	0	0	-1	1000
19295555	113	920	0	-100	0	230	101300000	1000	0	0	-1	1000
19308115	113	922	0	-100	0	230	101300000	1000	0	0	-1	1000
19320675	113	924	0	-100	0	230	101300000	1000	0	0	-1	1000
19333235	113	924	0	-100	0	230	101300000	1000	0	0	-1	1000
19345795	113	923	0	-100	0	230	101300000	1000	0	0	-1	1000
19358355	113	925	0	-100	0	230	101300000	1000	0	0	-1	1000
19370915	113	924	0	-100	0	230	101300000	1000	0	0	-1	1000
19383475	113	929	0	-100	0	230	101300000	1000	0	0	-1	1000
19396035	111	925	0	-100	0	230	101300000	1000	0	0	-1	1000
19408595	111	924	0	-100	0	230	101300000	1000	0	0	-1	1000
19421155	118	923	0	-100	0	230	101300000	1000	0	0	-1	1000
19433715	121	921	0	-100	0	230	101300000	1000	0	0	-1	1000
19446275	118	921	0	-100	0	230	101300000	1000	0	0	-1	1000
19458835	118	920	0	-100	0	230	101300000	1000	0	0	-1	1000
19471395	118	920	0	-100	0	230	101300000	1000	0	0	-1	1000
19483955	118	921	0	-100	0	230	101300000	1000	0	0	-1	1000
19496515	113	922	0	-100	0	230	101300000	1000	0	0	-1	1000
19509075	111	920	0	-100	0	230	101300000	1000	0	0	-1	1000
19521635	113	922	0	-100	0	230	101300000	1000	0	0	-1	1000
19534195	118	919	0	-100	0	230	101300000	1000	0	0	-1	1000
19546755	118	922	0	-100	0	230	101300000	1000	0	0	-1	1000
19559315	118	921	0	-100	0	230	101300000	1000	0	0	-1	1000
19571875	118	921	0	-100	0	230	101300000	1000	0	0	-1	1000
19584435	118	920	0	-100	0	230	101300000	1000	0	0	-1	1000
19596995	118	924	0	-100	0	230	101300000	1000	0	0	-1	1000
19609555	118	921	0	-100	0	230	101300000	1000	0	0	-1	1000
19622115	118	920	0	-100	0	230	101300000	1000	0	0	-1	1000
19634675	118	920	0	-100	0	230	101300000	1000	0	0	-1	1000
19647235	121	919	0	-100	0	230	101300000	1000	0	0	-1	1000
19659795	118	918	0	-100	0	230	101300000	1000	0	0	-1	1000
19672355	118	920	0	-100	0	230	101300000	1000	0	0	-1	1000
19684915	116	920	0	-100	0	230	101300000	1000	0	0	-1	1000
19697475	111	923	0	-100	0	230	101300000	1000	0	0	-1	1000
19710035	111	925	0	-100	0	230	101300000	1000	0	0	-1	1000
19722595	113	926	0	-100	0	230	101300000	1000	0	0	-1	1000
19735155	118	929	0	-100	0	230	101300000	1000	0	0	-1	1000
19747715	116	926	0	-100	0	230	101300000	1000	0	0	-1	1000
19760275	116	923	0	-100	0	230	101300000	1000	0	0	-1	1000
19772835	113	924	0	-100	0	230	101300000	1000	0	0	-1	1000
19785395	113	920	0	-100	0	230	101300000	1000	0	0	-1	1000
19797955	118	921	0	-100	0	230	101300000	1000	0	0	-1	1000
19810515	121	920	0	-100	0	230	101300000	1000	0	0	-1	1000
19823075	121	917	0	-100	0	230	101300000	1000	0	0	-1	1000
19835635	121	917	0	-100	0	230	101300000	1000	0	0	-1	1000
19848195	118	921	0	-100	0	230	101300000	1000	0	0	-1	1000
19860755	116	919	0	-100	0	230	101300000	1000	0	0	-1	1000
19873315	116	921	0	-100	0	230	101300000	1000	0	0	-1	1000
19885875	116	922	0	-100	0	230	101300000	1000	0	0	-1	1000
19898435	111	922	0	-100	0	230	101300000	1000	0	0	-1	1000
19910995	111	923	0	-100	0	230	101300000	1000	0	0	-1	1000
19923555	113	927	0	-100	0	230	101300000	1000	0	0	-1	1000
19936115	116	924	0	-100	0	230	101300000	1000	0	0	-1	1000
19948675	113	925	0	-100	0	230	101300000	1000	0	0	-1	1000
19961235	111	924	0	-100	0	230	101300000	1000	0	0	-1	1000
19973795	111	924	0	-100	0	230	101300000	1000	0	0	-1	1000
19986355	113	921	0	-100	0	230	101300000	1000	0	0	-1	1000
19998915	118	921	0	-100	0	230	101300000	1000	0	0	-1	1000
20011475	118	920	0	-100	0	230	101300000	1000	0	0	-1	1000
20049155	121	921	0	-100	0	230	101300000	1000	0	0	-1	1000
20061715	116	920	0	-100	0	230	101300000	1000	0	0	-1	1000
20074275	116	922	0	-100	0	230	101300000	1000	0	0	-1	1000
20086835	118	919	0	-100	0	230	101300000	1000	0	0	-1	1000
20099395	118	920	0	-100	0	230	101300000	1000	0	0	-1	1000
20111955	118	921	0	-100	0	230	101300000	1000	0	0	-1	1000
20124515	118	919	0	-100	0	230	101300000	1000	0	0	-1	1000
20137075	121	921	0	-100	0	230	101300000	1000	0	0	-1	1000
20149635	116	922	0	-100	0	230	101300000	1000	0	0	-1	1000
20162195	113	924	0	-100	0	230	101300000	1000	0	0	-1	1000
20174755	116	922	0	-100	0	230	101300000	1000	0	0	-1	1000
20187315	113	922	0	-100	0	230	101300000	1000	0	0	-1	1000
20250115	113	924	0	-100	0	230	101300000	1000	0	0	-1	1000
20262675	113	920	0	-100	0	230	101300000	1000	0	0	-1	1000
20275235	118	920	0	-100	0	230	101300000	1000	0	0	-1	1000
20287795	121	920	0	-100	0	230	101300000	1000	0	0	-1	1000
20300355	121	917	0	-100	0	230	101300000	1000	0	0	-1	1000
20312915	113	922	0	-100	0	230	101300000	1000	0	0	-1	1000
20325475	111	925	0	-100	0	230	101300000	1000	0	0	-1	1000
20338035	113	929	0	-100	0	230	101300000	1000	0	0	-1	1000
20350595	111	926	0	-100	0	230	101300000	1000	0	0	-1	1000
20363155	118	926	0	-100	0	230	101300000	1000	0	0	-1	1000
20375715	116	927	0	-100	0	230	101300000	1000	0	0	-1	1000
20388275	113	924	0	-100	0	230	101300000	1000	0	0	-1	1000
20400835	118	920	0	-100	0	230	101300000	1000	0	0	-1	1000
20413395	121	919	0	-100	0	230	101300000	1000	0	0	-1	1000
20425955	116	922	0	-100	0	230	101300000	1000	0	0	-1	1000
20438515	113	927	0	-100	0	230	101300000	1000	0	0	-1	1000
20451075	111	926	0	-100	0	230	101300000	1000	0	0	-1	1000
20463635	113	928	0	-100	0	230	101300000	1000	0	0	-1	1000
20476195	113	928	0	-100	0	230	101300000	1000	0	0	-1	1000
20488755	113	929	0	-100	0	230	101300000	1000	0	0	-1	1000
20501315	113	928	0	-100	0	230	101300000	1000	0	0	-1	1000
20513875	113	928	0	-100	0	230	101300000	1000	0	0	-1	1000
20526435	111	926	0	-100	0	230	101300000	1000	0	0	-1	1000
20538995	113	919	0	-100	0	230	101300000	1000	0	0	-1	1000
20551555	116	926	0	-100	0	230	101300000	1000	0	0	-1	1000
20564115	113	924	0	-100	0	230	101300000	1000	0	0	-1	1000
20576675	111	924	0	-100	0	230	101300000	1000	0	0	-1	1000
20589235	113	920	0	-100	0	230	101300000	1000	0	0	-1	1000
20601795	116	919	0	-100	0	230	101300000	1000	0	0	-1	1000
20614355	118	922	0	-100	0	230	101300000	1000	0	0	-1	1000
20626915	121	915	0	-100	0	230	101300000	1000	0	0	-1	1000
20639475	118	920	0	-100	0	230	101300000	1000	0	0	-1	1000
20652035	121	920	0	-100	0	230	101300000	1000	0	0	-1	1000
20664595	113	922	0	-100	0	230	101300000	1000	0	0	-1	1000
20677155	116	925	0	-100	0	230	101300000	1000	0	0	-1	1000
20689715	111	925	0	-100	0	230	101300000	1000	0	0	-1	1000
20702275	111	926	0	-100	0	230	101300000	1000	0	0	-1	1000
20714835	113	926	0	-100	0	230	101300000	1000	0	0	-1	1000
20727395	113	927	0	-100	0	230	101300000	1000	0	0	-1	1000
20739955	116	925	0	-100	0	230	101300000	1000	0	0	-1	1000
20752515	111	924	0	-100	0	230	101300000	1000	0	0	-1	1000
20765075	113	924	0	-100	0	230	101300000	1000	0	0	-1	1000
20777635	118	920	0	-100	0	230	101300000	1000	0	0	-1	1000
20790195	118	919	0	-100	0	230	101300000	1000	0	0	-1	1000
20802755	111	922	0	-100	0	230	101300000	1000	0	0	-1	1000
20815315	113	929	0	-100	0	230	101300000	1000	0	0	-1	1000
20827875	111	924	0	-100	0	230	101300000	1000	0	0	-1	1000
20840435	113	921	0	-100	0	230	101300000	1000	0	0	-1	1000
20852995	118	925	0	-100	0	230	101300000	1000	0	0	-1	1000
20865555	121	919	0	-100	0	230	101300000	1000	0	0	-1	1000
20878115	113	924	0	-100	0	230	101300000	1000	0	0	-1	1000
20890675	113	925	0	-100	0	230	101300000	1000	0	0	-1	1000
20903235	111	926	0	-100	0	230	101300000	1000	0	0	-1	1000
20915795	113	925	0	-100	0	230	101300000	1000	0	0	-1	1000
20928355	113	921	0	-100	0	230	101300000	1000	0	0	-1	1000
20940915	118	921	0	-100	0	230	101300000	1000	0	0	-1	1000
20953475	118	919	0	-100	0	230	101300000	1000	0	0	-1	1000
20966035	116	920	0	-100	0	230	101300000	1000	0	0	-1	1000
20978595	111	925	0	-100	0	230	101300000	1000	0	0	-1	1000
20991155	118	927	0	-100	0	230	101300000	1000	0	0	-1	1000
21003715	113	928	0	-100	0	230	101300000	1000	0	0	-1	1000
21016275	113	924	0	-100	0	230	101300000	1000	0	0	-1	1000
21028835	113	924	0	-100	0	230	101300000	1000	0	0	-1	1000
21041395	113	926	0	-100	0	230	101300000	1000	0	0	-1	1000
21053955	113	922	0	-100	0	230	101300000	1000	0	0	-1	1000
21066515	116	921	0	-100	0	230	101300000	1000	0	0	-1	1000
21079075	118	921	0	-100	0	230	101300000	1000	0	0	-1	1000
21091635	118	918	0	-100	0	230	101300000	1000	0	0	-1	1000
21104195	121	921	0	-100	0	230	101300000	1000	0	0	-1	1000
21116755	116	920	0	-100	0	230	101300000	1000	0	0	-1	1000
21129315	113	924	0	-100	0	230	101300000	1000	0	0	-1	1000
21141875	113	922	0	-100	0	230	101300000	1000	0	0	-1	1000
21154435	116	921	0	-100	0	230	101300000	1000	0	0	-1	1000
21166995	113	926	0	-100	0	230	101300000	1000	0	0	-1	1000
21179555	116	921	0	-100	0	230	101300000	1000	0	0	-1	1000
21192115	113	924	0	-100	0	230	101300000	1000	0	0	-1	1000
21204675	113	924	0	-100	0	230	101300000	1000	0	0	-1	1000
21217235	111	926	0	-100	0	230	101300000	1000	0	0	-1	1000
21229795	113	927	0	-100	0	230	101300000	1000	0	0	-1	1000
21242355	113	929	0	-100	0	230	101300000	1000	0	0	-1	1000
21254915	113	925	0	-100	0	230	101300000	1000	0	0	-1	1000
21267475	111	924	0	-100	0	230	101300000	1000	0	0	-1	1000
21280035	116	920	0	-100	0	230	101300000	1000	0	0	-1	1000
21292595	118	921	0	-100	0	230	101300000	1000	0	0	-1	1000
21305155	126	921	0	-100	0	230	101300000	1000	0	0	-1	1000
21317715	121	920	0	-100	0	230	101300000	1000	0	0	-1	1000
21330275	118	920	0	-100	0	230	101300000	1000	0	0	-1	1000
21342835	118	919	0	-100	0	230	101300000	1000	0	0	-1	1000
21355395	118	920	0	-100	0	230	101300000	1000	0	0	-1	1000
21367955	118	917	0	-100	0	230	101300000	1000	0	0	-1	1000
21380515	121	921	0	-100	0	230	101300000	1000	0	0	-1	1000
21393075	118	923	0	-100	0	230	101300000	1000	0	0	-1	1000
21405635	118	922	0	-100	0	230	101300000	1000	0	0	-1	1000
21418195	113	923	0	-100	0	230	101300000	1000	0	0	-1	1000
21430755	111	925	0	-100	0	230	101300000	1000	0	0	-1	1000
21443315	113	929	0	-100	0	230	101300000	1000	0	0	-1	1000
21455875	116	924	0	-100	0	230	101300000	1000	0	0	-1	1000
21468435	113	924	0	-100	0	230	101300000	1000	0	0	-1	1000
21480995	118	922	0	-100	0	230	101300000	1000	0	0	-1	1000
21493555	118	920	0	-100	0	230	101300000	1000	0	0	-1	1000
21506115	118	920	0	-100	0	230	101300000	1000	0	0	-1	1000
21518675	121	920	0	-100	0	230	101300000	1000	0	0	-1	1000
21531235	121	919	0	-100	0	230	101300000	1000	0	0	-1	1000
21543795	118	921	0	-100	0	230	101300000	1000	0	0	-1	1000
21556355	116	918	0	-100	0	230	101300000	1000	0	0	-1	1000
21568915	113	922	0	-100	0	230	101300000	1000	0	0	-1	1000
21581475	116	925	0	-100	0	230	101300000	1000	0	0	-1	1000
21594035	111	924	0	-100	0	230	101300000	1000	0	0	-1	1000
21606595	113	928	0	-100	0	230	101300000	1000	0	0	-1	1000
21619155	116	926	0	-100	0	230	101300000	1000	0	0	-1	1000
21631715	116	926	0	-100	0	230	101300000	1000	0	0	-1	1000
21644275	113	925	0	-100	0	230	101300000	1000	0	0	-1	1000
21656835	113	928	0	-100	0	230	101300000	1000	0	0	-1	1000
21669395	113	927	0	-100	0	230	101300000	1000	0	0	-1	1000
21681955	116	925	0	-100	0	230	101300000	1000	0	0	-1	1000
21694515	111	923	0	-100	0	230	101300000	1000	0	0	-1	1000
21707075	113	924	0	-100	0	230	101300000	1000	0	0	-1	1000
21719635	113	929	0	-100	0	230	101300000	1000	0	0	-1	1000
21732195	111	926	0	-100	0	230	101300000	1000	0	0	-1	1000
21744755	111	926	0	-100	0	230	101300000	1000	0	0	-1	1000
21757315	111	926	0	-100	0	230	101300000	1000	0	0	-1	1000
21769875	113	929	0	-100	0	230	101300000	1000	0	0	-1	1000
21782435	111	927	0	-100	0	230	101300000	1000	0	0	-1	1000
21794995	113	920	0	-100	0	230	101300000	1000	0	0	-1	1000
21807555	111	924	0	-100	0	230	101300000	1000	0	0	-1	1000
21820115	116	921	0	-100	0	230	101300000	1000	0	0	-1	1000
21832675	118	921	0	-100	0	230	101300000	1000	0	0	-1	1000
21845235	121	920	0	-100	0	230	101300000	1000	0	0	-1	1000
21857795	121	917	0	-100	0	230	101300000	1000	0	0	-1	1000
21870355	118	921	0	-100	0	230	101300000	1000	0	0	-1	1000
21882915	118	920	0	-100	0	230	101300000	1000	0	0	-1	1000
21895475	118	920	0	-100	0	230	101300000	1000	0	0	-1	1000
21908035	116	918	0	-100	0	230	101300000	1000	0	0	-1	1000
21920595	113	928	0	-100	0	230	101300000	1000	0	0	-1	1000
21933155	118	925	0	-100	0	230	101300000	1000	0	0	-1	1000
21945715	121	920	0	-100	0	230	101300000	1000	0	0	-1	1000
21958275	121	919	0	-100	0	230	101300000	1000	0	0	-1	1000
21970835	118	922	0	-100	0	230	101300000	1000	0	0	-1	1000
21983395	113	925	0	-100	0	230	101300000	1000	0	0	-1	1000
21995955	113	929	0	-100	0	230	101300000	1000	0	0	-1	1000
22008515	111	923	0	-100	0	230	101300000	1000	0	0	-1	1000
22021075	118	920	0	-100	0	230	101300000	1000	0	0	-1	1000
22033635	118	921	0	-100	0	230	101300000	1000	0	0	-1	1000
22046195	113	924	0	-100	0	230	101300000	1000	0	0	-1	1000
22058755	111	926	0	-100	0	230	101300000	1000	0	0	-1	1000
22071315	111	924	0	-100	0	230	101300000	1000	0	0	-1	1000
22083875	121	920	0	-100	0	230	101300000	1000	0	0	-1	1000
22096435	118	919	0	-100	0	230	101300000	1000	0	0	-1	1000
22108995	113	920	0	-100	0	230	101300000	1000	0	0	-1	1000
22121555	111	926	0	-100	0	230	101300000	1000	0	0	-1	1000
22134115	113	925	0	-100	0	230	101300000	1000	0	0	-1	1000
22146675	121	918	0	-100	0	230	101300000	1000	0	0	-1	1000
22159235	116	920	0	-100	0	230	101300000	1000	0	0	-1	1000
22171795	111	923	0	-100	0	230	101300000	1000	0	0	-1	1000
22184355	111	926	0	-100	0	230	101300000	1000	0	0	-1	1000
22196915	116	922	0	-100	0	230	101300000	1000	0	0	-1	1000
22209475	121	920	0	-100	0	230	101300000	1000	0	0	-1	1000
22222035	113	925	0	-100	0	230	101300000	1000	0	0	-1	1000
22234595	113	927	0	-100	0	230	101300000	1000	0	0	-1	1000
22247155	118	925	0	-100	0	230	101300000	1000	0	0	-1	1000
22259715	118	922	0	-100	0	230	101300000	1000	0	0	-1	1000
22272275	121	917	0	-100	0	230	101300000	1000	0	0	-1	1000
22284835	121	917	0	-100	0	230	101300000	1000	0	0	-1	1000
22297395	121	921	0	-100	0	230	101300000	1000	0	0	-1	1000
22309955	118	920	0	-100	0	230	101300000	1000	0	0	-1	1000
22322515	121	921	0	-100	0	230	101300000	1000	0	0	-1	1000
22335075	116	921	0	-100	0	230	101300000	1000	0	0	-1	1000
22347635	121	921	0	-100	0	230	101300000	1000	0	0	-1	1000
22360195	121	920	0	-100	0	230	101300000	1000	0	0	-1	1000
22372755	121	921	0	-100	0	230	101300000	1000	0	0	-1	1000
22385315	121	920	0	-100	0	230	101300000	1000	0	0	-1	1000
22397875	121	920	0	-100	0	230	101300000	1000	0	0	-1	1000
22410435	121	917	0	-100	0	230	101300000	1000	0	0	-1	1000
22422995	118	927	0	-100	0	230	101300000	1000	0	0	-1	1000
22435555	123	919	0	-100	0	230	101300000	1000	0	0	-1	1000
22448115	121	920	0	-100	0	230	101300000	1000	0	0	-1	1000
22460675	118	916	0	-100	0	230	101300000	1000	0	0	-1	1000
22473235	121	916	0	-100	0	230	101300000	1000	0	0	-1	1000
22485795	118	918	0	-100	0	230	101300000	1000	0	0	-1	1000
22498355	118	917	0	-100	0	230	101300000	1000	0	0	-1	1000
22510915	121	917	0	-100	0	230	101300000	1000	0	0	-1	1000
22523475	118	920	0	-100	0	230	101300000	1000	0	0	-1	1000
22536035	121	918	0	-100	0	230	101300000	1000	0	0	-1	1000
22548595	118	921	0	-100	0	230	101300000	1000	0	0	-1	1000
22561155	126	922	0	-100	0	230	101300000	1000	0	0	-1	1000
22573715	118	920	0	-100	0	230	101300000	1000	0	0	-1	1000
22586275	116	920	0	-100	0	230	101300000	1000	0	0	-1	1000
22598835	113	923	0	-100	0	230	101300000	1000	0	0	-1	1000
22611395	111	921	0	-100	0	230	101300000	1000	0	0	-1	1000
22623955	113	925	0	-100	0	230	101300000	1000	0	0	-1	1000
22636515	113	925	0	-100	0	230	101300000	1000	0	0	-1	1000
22649075	113	924	0	-100	0	230	101300000	1000	0	0	-1	1000
22661635	116	924	0	-100	0	230	101300000	1000	0	0	-1	1000
22674195	111	924	0	-100	0	230	101300000	1000	0	0	-1	1000
22686755	111	922	0	-100	0	230	101300000	1000	0	0	-1	1000
22699315	113	924	0	-100	0	230	101300000	1000	0	0	-1	1000
22711875	113	921	0	-100	0	230	101300000	1000	0	0	-1	1000
22724435	113	921	0	-100	0	230	101300000	1000	0	0	-1	1000
22736995	121	922	0	-100	0	230	101300000	1000	0	0	-1	1000
22749555	116	918	0	-100	0	230	101300000	1000	0	0	-1	1000
22762115	121	920	0	-100	0	230	101300000	1000	0	0	-1	1000
22774675	118	920	0	-100	0	230	101300000	1000	0	0	-1	1000
22787235	121	916	0	-100	0	230	101300000	1000	0	0	-1	1000
22799795	118	918	0	-100	0	230	101300000	1000	0	0	-1	1000
22812355	121	920	0	-100	0	230	101300000	1000	0	0	-1	1000
22824915	121	920	0	-100	0	230	101300000	1000	0	0	-1	1000
22837475	113	922	0	-100	0	230	101300000	1000	0	0	-1	1000
22850035	111	925	0	-100	0	230	101300000	1000	0	0	-1	1000
22862595	113	929	0	-100	0	230	101300000	1000	0	0	-1	1000
22875155	118	924	0	-100	0	230	101300000	1000	0	0	-1	1000
22887715	113	924	0	-100	0	230	101300000	1000	0	0	-1	1000
22900275	111	924	0	-100	0	230	101300000	1000	0	0	-1	1000
22912835	111	922	0	-100	0	230	101300000	1000	0	0	-1	1000
22925395	116	918	0	-100	0	230	101300000	1000	0	0	-1	1000
22963075	121	917	0	-100	0	230	101300000	1000	0	0	-1	1000
22975635	121	921	0	-100	0	230	101300000	1000	0	0	-1	1000
22988195	118	921	0	-100	0	230	101300000	1000	0	0	-1	1000
23000755	111	922	0	-100	0	230	101300000	1000	0	0	-1	1000
23013315	111	925	0	-100	0	230	101300000	1000	0	0	-1	1000
23025875	113	926	0	-100	0	230	101300000	1000	0	0	-1	1000
23038435	116	927	0	-100	0	230	101300000	1000	0	0	-1	1000
23050995	113	920	0	-100	0	230	101300000	1000	0	0	-1	1000
23063555	111	925	0	-100	0	230	101300000	1000	0	0	-1	1000
23076115	113	921	0	-100	0	230	101300000	1000	0	0	-1	1000
23088675	118	922	0	-100	0	230	101300000	1000	0	0	-1	1000
23164035	113	928	0	-100	0	230	101300000	1000	0	0	-1	1000
23176595	118	925	0	-100	0	230	101300000	1000	0	0	-1	1000
23189155	121	925	0	-100	0	230	101300000	1000	0	0	-1	1000
23201715	116	918	0	-100	0	230	101300000	1000	0	0	-1	1000
23214275	116	919	0	-100	0	230	101300000	1000	0	0	-1	1000
23226835	118	920	0	-100	0	230	101300000	1000	0	0	-1	1000
23239395	121	917	0	-100	0	230	101300000	1000	0	0	-1	1000
23251955	116	920	0	-100	0	230	101300000	1000	0	0	-1	1000
23264515	111	925	0	-100	0	230	101300000	1000	0	0	-1	1000
23277075	113	927	0	-100	0	230	101300000	1000	0	0	-1	1000
23289635	113	925	0	-100	0	230	101300000	1000	0	0	-1	1000
23302195	113	922	0	-100	0	230	101300000	1000	0	0	-1	1000
23339875	111	924	0	-100	0	230	101300000	1000	0	0	-1	1000
23352435	113	926	0	-100	0	230	101300000	1000	0	0	-1	1000
23364995	111	917	0	-100	0	230	101300000	1000	0	0	-1	1000
23377555	113	921	0	-100	0	230	101300000	1000	0	0	-1	1000
23390115	118	921	0	-100	0	230	101300000	1000	0	0	-1	1000
23402675	116	919	0	-100	0	230	101300000	1000	0	0	-1	1000
23415235	118	920	0	-100	0	230	101300000	1000	0	0	-1	1000
23427795	118	922	0	-100	0	230	101300000	1000	0	0	-1	1000
23440355	113	925	0	-100	0	230	101300000	1000	0	0	-1	1000
23452915	116	924	0	-100	0	230	101300000	1000	0	0	-1	1000
23465475	113	921	0	-100	0	230	101300000	1000	0	0	-1	1000
23478035	118	921	0	-100	0	230	101300000	1000	0	0	-1	1000
23490595	118	921	0	-100	0	230	101300000	1000	0	0	-1	1000
23503155	116	927	0	-100	0	230	101300000	1000	0	0	-1	1000
23515715	113	928	0	-100	0	230	101300000	1000	0	0	-1	1000
23528275	113	924	0	-100	0	230	101300000	1000	0	0	-1	1000
23540835	116	920	0	-100	0	230	101300000	1000	0	0	-1	1000
23553395	118	920	0	-100	0	230	101300000	1000	0	0	-1	1000
23565955	118	918	0	-100	0	230	101300000	1000	0	0	-1	1000
23578515	113	923	0	-100	0	230	101300000	1000	0	0	-1	1000
23591075	113	923	0	-100	0	230	101300000	1000	0	0	-1	1000
23603635	111	925	0	-100	0	230	101300000	1000	0	0	-1	1000
23616195	116	928	0	-100	0	230	101300000	1000	0	0	-1	1000
23628755	116	923	0	-100	0	230	101300000	1000	0	0	-1	1000
23641315	118	921	0	-100	0	230	101300000	1000	0	0	-1	1000
23653875	118	917	0	-100	0	230	101300000	1000	0	0	-1	1000
23666435	113	925	0	-100	0	230	101300000	1000	0	0	-1	1000
23678995	113	923	0	-100	0	230	101300000	1000	0	0	-1	1000
23691555	111	926	0	-100	0	230	101300000	1000	0	0	-1	1000
23704115	113	929	0	-100	0	230	101300000	1000	0	0	-1	1000
23716675	113	925	0	-100	0	230	101300000	1000	0	0	-1	1000
23729235	116	923	0	-100	0	230	101300000	1000	0	0	-1	1000
23741795	116	919	0	-100	0	230	101300000	1000	0	0	-1	1000
23754355	118	920	0	-100	0	230	101300000	1000	0	0	-1	1000
23766915	118	921	0	-100	0	230	101300000	1000	0	0	-1	1000
23779475	118	919	0	-100	0	230	101300000	1000	0	0	-1	1000
23792035	118	922	0	-100	0	230	101300000	1000	0	0	-1	1000
23804595	121	920	0	-100	0	230	101300000	1000	0	0	-1	1000
23817155	123	917	0	-100	0	230	101300000	1000	0	0	-1	1000
23829715	118	918	0	-100	0	230	101300000	1000	0	0	-1	1000
23842275	118	921	0	-100	0	230	101300000	1000	0	0	-1	1000
23854835	118	920	0	-100	0	230	101300000	1000	0	0	-1	1000
23867395	121	920	0	-100	0	230	101300000	1000	0	0	-1	1000
23879955	121	921	0	-100	0	230	101300000	1000	0	0	-1	1000
23892515	121	920	0	-100	0	230	101300000	1000	0	0	-1	1000
23905075	118	920	0	-100	0	230	101300000	1000	0	0	-1	1000
23917635	116	919	0	-100	0	230	101300000	1000	0	0	-1	1000
23930195	118	920	0	-100	0	230	101300000	1000	0	0	-1	1000
23942755	118	921	0	-100	0	230	101300000	1000	0	0	-1	1000
23955315	118	921	0	-100	0	230	101300000	1000	0	0	-1	1000
23967875	121	919	0	-100	0	230	101300000	1000	0	0	-1	1000
23980435	121	920	0	-100	0	230	101300000	1000	0	0	-1	1000
23992995	113	925	0	-100	0	230	101300000	1000	0	0	-1	1000
24005555	116	927	0	-100	0	230	101300000	1000	0	0	-1	1000
24018115	113	925	0	-100	0	230	101300000	1000	0	0	-1	1000
24030675	116	919	0	-100	0	230	101300000	1000	0	0	-1	1000
24043235	121	919	0	-100	0	230	101300000	1000	0	0	-1	1000
24055795	121	920	0	-100	0	230	101300000	1000	0	0	-1	1000
24068355	113	920	0	-100	0	230	101300000	1000	0	0	-1	1000
24080915	113	925	0	-100	0	230	101300000	1000	0	0	-1	1000
24093475	113	928	0	-100	0	230	101300000	1000	0	0	-1	1000
24106035	113	930	0	-100	0	230	101300000	1000	0	0	-1	1000
24118595	116	923	0	-100	0	230	101300000	1000	0	0	-1	1000
24131155	118	924	0	-100	0	230	101300000	1000	0	0	-1	1000
24143715	116	922	0	-100	0	230	101300000	1000	0	0	-1	1000
24156275	113	923	0	-100	0	230	101300000	1000	0	0	-1	1000
24168835	113	924	0	-100	0	230	101300000	1000	0	0	-1	1000
24181395	111	924	0	-100	0	230	101300000	1000	0	0	-1	1000
24193955	113	926	0	-100	0	230	101300000	1000	0	0	-1	1000
24206515	113	927	0	-100	0	230	101300000	1000	0	0	-1	1000
24219075	113	928	0	-100	0	230	101300000	1000	0	0	-1	1000
24231635	113	925	0	-100	0	230	101300000	1000	0	0	-1	1000
24244195	118	921	0	-100	0	230	101300000	1000	0	0	-1	1000
24256755	118	920	0	-100	0	230	101300000	1000	0	0	-1	1000
24269315	118	920	0	-100	0	230	101300000	1000	0	0	-1	1000
24281875	118	921	0	-100	0	230	101300000	1000	0	0	-1	1000
24294435	113	924	0	-100	0	230	101300000	1000	0	0	-1	1000
24306995	118	922	0	-100	0	230	101300000	1000	0	0	-1	1000
24319555	111	926	0	-100	0	230	101300000	1000	0	0	-1	1000
24332115	116	919	0	-100	0	230	101300000	1000	0	0	-1	1000
24344675	121	919	0	-100	0	230	101300000	1000	0	0	-1	1000
24357235	118	921	0	-100	0	230	101300000	1000	0	0	-1	1000
24369795	118	919	0	-100	0	230	101300000	1000	0	0	-1	1000
24382355	113	919	0	-100	0	230	101300000	1000	0	0	-1	1000
24394915	113	924	0	-100	0	230	101300000	1000	0	0	-1	1000
24407475	111	923	0	-100	0	230	101300000	1000	0	0	-1	1000
24420035	113	923	0	-100	0	230	101300000	1000	0	0	-1	1000
24432595	113	921	0	-100	0	230	101300000	1000	0	0	-1	1000
24445155	121	921	0	-100	0	230	101300000	1000	0	0	-1	1000
24457715	116	921	0	-100	0	230	101300000	1000	0	0	-1	1000
24470275	113	922	0	-100	0	230	101300000	1000	0	0	-1	1000
24482835	113	921	0	-100	0	230	101300000	1000	0	0	-1	1000
24495395	113	924	0	-100	0	230	101300000	1000	0	0	-1	1000
24507955	113	925	0	-100	0	230	101300000	1000	0	0	-1	1000
24520515	113	926	0	-100	0	230	101300000	1000	0	0	-1	1000
24533075	111	923	0	-100	0	230	101300000	1000	0	0	-1	1000
24545635	116	927	0	-100	0	230	101300000	1000	0	0	-1	1000
24558195	113	928	0	-100	0	230	101300000	1000	0	0	-1	1000
24570755	111	924	0	-100	0	230	101300000	1000	0	0	-1	1000
24583315	113	921	0	-100	0	230	101300000	1000	0	0	-1	1000
24595875	121	920	0	-100	0	230	101300000	1000	0	0	-1	1000
24608435	118	921	0	-100	0	230	101300000	1000	0	0	-1	1000
24620995	118	921	0	-100	0	230	101300000	1000	0	0	-1	1000
24633555	113	921	0	-100	0	230	101300000	1000	0	0	-1	1000
24646115	116	923	0	-100	0	230	101300000	1000	0	0	-1	1000
24658675	113	928	0	-100	0	230	101300000	1000	0	0	-1	1000
24671235	116	927	0	-100	0	230	101300000	1000	0	0	-1	1000
24683795	116	925	0	-100	0	230	101300000	1000	0	0	-1	1000
24696355	113	925	0	-100	0	230	101300000	1000	0	0	-1	1000
24708915	116	928	0	-100	0	230	101300000	1000	0	0	-1	1000
24721475	113	929	0	-100	0	230	101300000	1000	0	0	-1	1000
24734035	111	926	0	-100	0	230	101300000	1000	0	0	-1	1000
24746595	113	926	0	-100	0	230	101300000	1000	0	0	-1	1000
24759155	118	924	0	-100	0	230	101300000	1000	0	0	-1	1000
24771715	113	922	0	-100	0	230	101300000	1000	0	0	-1	1000
24784275	118	918	0	-100	0	230	101300000	1000	0	0	-1	1000
24796835	121	921	0	-100	0	230	101300000	1000	0	0	-1	1000
24809395	118	921	0	-100	0	230	101300000	1000	0	0	-1	1000
24821955	116	920	0	-100	0	230	101300000	1000	0	0	-1	1000
24834515	113	925	0	-100	0	230	101300000	1000	0	0	-1	1000
24847075	116	927	0	-100	0	230	101300000	1000	0	0	-1	1000
24859635	113	929	0	-100	0	230	101300000	1000	0	0	-1	1000
24872195	111	921	0	-100	0	230	101300000	1000	0	0	-1	1000
24884755	123	922	0	-100	0	230	101300000	1000	0	0	-1	1000
24897315	121	920	0	-100	0	230	101300000	1000	0	0	-1	1000
24909875	121	917	0	-100	0	230	101300000	1000	0	0	-1	1000
24922435	118	921	0	-100	0	230	101300000	1000	0	0	-1	1000
24934995	118	924	0	-100	0	230	101300000	1000	0	0	-1	1000
24947555	118	920	0	-100	0	230	101300000	1000	0	0	-1	1000
24960115	118	920	0	-100	0	230	101300000	1000	0	0	-1	1000
24972675	113	921	0	-100	0	230	101300000	1000	0	0	-1	1000
24985235	113	924	0	-100	0	230	101300000	1000	0	0	-1	1000
24997795	116	929	0	-100	0	230	101300000	1000	0	0	-1	1000
25010355	113	926	0	-100	0	230	101300000	1000	0	0	-1	1000
25022915	121	920	0	-100	0	230	101300000	1000	0	0	-1	1000
25035475	121	919	0	-100	0	230	101300000	1000	0	0	-1	1000
25048035	116	920	0	-100	0	230	101300000	1000	0	0	-1	1000
25060595	113	924	0	-100	0	230	101300000	1000	0	0	-1	1000
25073155	118	927	0	-100	0	230	101300000	1000	0	0	-1	1000
25085715	113	925	0	-100	0	230	101300000	1000	0	0	-1	1000
25098275	116	921	0	-100	0	230	101300000	1000	0	0	-1	1000
25110835	121	921	0	-100	0	230	101300000	1000	0	0	-1	1000
25123395	121	918	0	-100	0	230	101300000	1000	0	0	-1	1000
25135955	118	921	0	-100	0	230	101300000	1000	0	0	-1	1000
25148515	113	923	0	-100	0	230	101300000	1000	0	0	-1	1000
25161075	113	924	0	-100	0	230	101300000	1000	0	0	-1	1000
25173635	113	926	0	-100	0	230	101300000	1000	0	0	-1	1000
25186195	113	926	0	-100	0	230	101300000	1000	0	0	-1	1000
25198755	116	926	0	-100	0	230	101300000	1000	0	0	-1	1000
25211315	111	926	0	-100	0	230	101300000	1000	0	0	-1	1000
25223875	116	928	0	-100	0	230	101300000	1000	0	0	-1	1000
25236435	113	924	0	-100	0	230	101300000	1000	0	0	-1	1000
25248995	113	918	0	-100	0	230	101300000	1000	0	0	-1	1000
25261555	113	920	0	-100	0	230	101300000	1000	0	0	-1	1000
25274115	118	919	0	-100	0	230	101300000	1000	0	0	-1	1000
25286675	118	921	0	-100	0	230	101300000	1000	0	0	-1	1000
25299235	118	917	0	-100	0	230	101300000	1000	0	0	-1	1000
25311795	116	919	0	-100	0	230	101300000	1000	0	0	-1	1000
25324355	113	923	0	-100	0	230	101300000	1000	0	0	-1	1000
25336915	113	925	0	-100	0	230	101300000	1000	0	0	-1	1000
25349475	111	926	0	-100	0	230	101300000	1000	0	0	-1	1000
25362035	113	926	0	-100	0	230	101300000	1000	0	0	-1	1000
25374595	113	925	0	-100	0	230	101300000	1000	0	0	-1	1000
25387155	123	920	0	-100	0	230	101300000	1000	0	0	-1	1000
25399715	118	919	0	-100	0	230	101300000	1000	0	0	-1	1000
25412275	116	920	0	-100	0	230	101300000	1000	0	0	-1	1000
25424835	111	924	0	-100	0	230	101300000	1000	0	0	-1	1000
25437395	113	928	0	-100	0	230	101300000	1000	0	0	-1	1000
25449955	113	924	0	-100	0	230	101300000	1000	0	0	-1	1000
25462515	113	921	0	-100	0	230	101300000	1000	0	0	-1	1000
25475075	118	920	0	-100	0	230	101300000	1000	0	0	-1	1000
25487635	118	919	0	-100	0	230	101300000	1000	0	0	-1	1000
25500195	118	922	0	-100	0	230	101300000	1000	0	0	-1	1000
25512755	113	924	0	-100	0	230	101300000	1000	0	0	-1	1000
25525315	113	925	0	-100	0	230	101300000	1000	0	0	-1	1000
25537875	111	926	0	-100	0	230	101300000	1000	0	0	-1	1000
25550435	113	928	0	-100	0	230	101300000	1000	0	0	-1	1000
25562995	116	918	0	-100	0	230	101300000	1000	0	0	-1	1000
25575555	113	925	0	-100	0	230	101300000	1000	0	0	-1	1000
25588115	116	919	0	-100	0	230	101300000	1000	0	0	-1	1000
25600675	118	922	0	-100	0	230	101300000	1000	0	0	-1	1000
25613235	121	920	0	-100	0	230	101300000	1000	0	0	-1	1000
25625795	118	918	0	-100	0	230	101300000	1000	0	0	-1	1000
25638355	121	921	0	-100	0	230	101300000	1000	0	0	-1	1000
25650915	113	921	0	-100	0	230	101300000	1000	0	0	-1	1000
25663475	109	926	0	-100	0	230	101300000	1000	0	0	-1	1000
25676035	111	926	0	-100	0	230	101300000	1000	0	0	-1	1000
25688595	113	928	0	-100	0	230	101300000	1000	0	0	-1	1000
25701155	118	923	0	-100	0	230	101300000	1000	0	0	-1	1000
25713715	113	921	0	-100	0	230	101300000	1000	0	0	-1	1000
25726275	118	920	0	-100	0	230	101300000	1000	0	0	-1	1000
25738835	123	918	0	-100	0	230	101300000	1000	0	0	-1	1000
25751395	121	919	0	-100	0	230	101300000	1000	0	0	-1	1000
25763955	118	921	0	-100	0	230	101300000	1000	0	0	-1	1000
25776515	116	919	0	-100	0	230	101300000	1000	0	0	-1	1000
25789075	113	926	0	-100	0	230	101300000	1000	0	0	-1	1000
25801635	111	923	0	-100	0	230	101300000	1000	0	0	-1	1000
25814195	111	925	0	-100	0	230	101300000	1000	0	0	-1	1000
25826755	113	928	0	-100	0	230	101300000	1000	0	0	-1	1000
25839315	113	928	0	-100	0	230	101300000	1000	0	0	-1	1000
25851875	113	927	0	-100	0	230	101300000	1000	0	0	-1	1000
25864435	113	922	0	-100	0	230	101300000	1000	0	0	-1	1000
25876995	116	920	0	-100	0	230	101300000	1000	0	0	-1	1000
25889555	118	921	0	-100	0	230	101300000	1000	0	0	-1	1000
25902115	118	919	0	-100	0	230	101300000	1000	0	0	-1	1000
25914675	121	920	0	-100	0	230	101300000	1000	0	0	-1	1000
25927235	116	919	0	-100	0	230	101300000	1000	0	0	-1	1000
25939795	111	923	0	-100	0	230	101300000	1000	0	0	-1	1000
25952355	111	927	0	-100	0	230	101300000	1000	0	0	-1	1000
25964915	116	923	0	-100	0	230	101300000	1000	0	0	-1	1000
25977475	113	924	0	-100	0	230	101300000	1000	0	0	-1	1000
25990035	118	919	0	-100	0	230	101300000	1000	0	0	-1	1000
26002595	118	921	0	-100	0	230	101300000	1000	0	0	-1	1000
26015155	118	925	0	-100	0	230	101300000	1000	0	0	-1	1000
26065395	121	920	0	-100	0	230	101300000	1000	0	0	-1	1000
26077955	121	917	0	-100	0	230	101300000	1000	0	0	-1	1000
26090515	118	919	0	-100	0	230	101300000	1000	0	0	-1	1000
26103075	118	921	0	-100	0	230	101300000	1000	0	0	-1	1000
26115635	113	926	0	-100	0	230	101300000	1000	0	0	-1	1000
26128195	116	926	0	-100	0	230	101300000	1000	0	0	-1	1000
26140755	113	927	0	-100	0	230	101300000	1000	0	0	-1	1000
26153315	116	923	0	-100	0	230	101300000	1000	0	0	-1	1000
26165875	118	922	0	-100	0	230	101300000	1000	0	0	-1	1000
26178435	121	917	0	-100	0	230	101300000	1000	0	0	-1	1000
26190995	118	924	0	-100	0	230	101300000	1000	0	0	-1	1000
26203555	118	921	0	-100	0	230	101300000	1000	0	0	-1	1000
26266355	111	923	0	-100	0	230	101300000	1000	0	0	-1	1000
26278915	118	921	0	-100	0	230	101300000	1000	0	0	-1	1000
26291475	121	917	0	-100	0	230	101300000	1000	0	0	-1	1000
26304035	123	923	0	-100	0	230	101300000	1000	0	0	-1	1000
26316595	118	922	0	-100	0	230	101300000	1000	0	0	-1	1000
26329155	121	922	0	-100	0	230	101300000	1000	0	0	-1	1000
26341715	113	926	0	-100	0	230	101300000	1000	0	0	-1	1000
26354275	113	927	0	-100	0	230	101300000	1000	0	0	-1	1000
26366835	116	928	0	-100	0	230	101300000	1000	0	0	-1	1000
26379395	113	923	0	-100	0	230	101300000	1000	0	0	-1	1000
26391955	113	921	0	-100	0	230	101300000	1000	0	0	-1	1000
26404515	116	919	0	-100	0	230	101300000	1000	0	0	-1	1000
26417075	116	917	0	-100	0	230	101300000	1000	0	0	-1	1000
26429635	121	921	0	-100	0	230	101300000	1000	0	0	-1	1000
26442195	118	920	0	-100	0	230	101300000	1000	0	0	-1	1000
26454755	118	921	0	-100	0	230	101300000	1000	0	0	-1	1000
26467315	116	921	0	-100	0	230	101300000	1000	0	0	-1	1000
26479875	116	919	0	-100	0	230	101300000	1000	0	0	-1	1000
26492435	118	922	0	-100	0	230	101300000	1000	0	0	-1	1000
26504995	113	929	0	-100	0	230	101300000	1000	0	0	-1	1000
26517555	113	924	0	-100	0	230	101300000	1000	0	0	-1	1000
26530115	111	926	0	-100	0	230	101300000	1000	0	0	-1	1000
26542675	111	926	0	-100	0	230	101300000	1000	0	0	-1	1000
26555235	116	926	0	-100	0	230	101300000	1000	0	0	-1	1000
26567795	111	926	0	-100	0	230	101300000	1000	0	0	-1	1000
26580355	113	927	0	-100	0	230	101300000	1000	0	0	-1	1000
26592915	111	925	0	-100	0	230	101300000	1000	0	0	-1	1000
26605475	113	926	0	-100	0	230	101300000	1000	0	0	-1	1000
26618035	113	928	0	-100	0	230	101300000	1000	0	0	-1	1000
26630595	111	924	0	-100	0	230	101300000	1000	0	0	-1	1000
26643155	118	922	0	-100	0	230	101300000	1000	0	0	-1	1000
26655715	118	920	0	-100	0	230	101300000	1000	0	0	-1	1000
26668275	116	920	0	-100	0	230	101300000	1000	0	0	-1	1000
26680835	111	924	0	-100	0	230	101300000	1000	0	0	-1	1000
26693395	111	928	0	-100	0	230	101300000	1000	0	0	-1	1000
26705955	113	928	0	-100	0	230	101300000	1000	0	0	-1	1000
26718515	113	929	0	-100	0	230	101300000	1000	0	0	-1	1000
26731075	113	928	0	-100	0	230	101300000	1000	0	0	-1	1000
26743635	113	929	0	-100	0	230	101300000	1000	0	0	-1	1000
26756195	113	927	0	-100	0	230	101300000	1000	0	0	-1	1000
26768755	113	928	0	-100	0	230	101300000	1000	0	0	-1	1000
26781315	111	925	0	-100	0	230	101300000	1000	0	0	-1	1000
26793875	111	923	0	-100	0	230	101300000	1000	0	0	-1	1000
26806435	113	924	0	-100	0	230	101300000	1000	0	0	-1	1000
26818995	118	927	0	-100	0	230	101300000	1000	0	0	-1	1000
26831555	118	919	0	-100	0	230	101300000	1000	0	0	-1	1000
26844115	118	919	0	-100	0	230	101300000	1000	0	0	-1	1000
26856675	118	920	0	-100	0	230	101300000	1000	0	0	-1	1000
26869235	118	921	0	-100	0	230	101300000	1000	0	0	-1	1000
26881795	118	921	0	-100	0	230	101300000	1000	0	0	-1	1000
26894355	116	918	0	-100	0	230	101300000	1000	0	0	-1	1000
26906915	118	921	0	-100	0	230	101300000	1000	0	0	-1	1000
26919475	113	921	0	-100	0	230	101300000	1000	0	0	-1	1000
26932035	113	924	0	-100	0	230	101300000	1000	0	0	-1	1000
26944595	113	924	0	-100	0	230	101300000	1000	0	0	-1	1000
26957155	121	930	0	-100	0	230	101300000	1000	0	0	-1	1000
26969715	113	927	0	-100	0	230	101300000	1000	0	0	-1	1000
26982275	111	927	0	-100	0	230	101300000	1000	0	0	-1	1000
26994835	111	927	0	-100	0	230	101300000	1000	0	0	-1	1000
27007395	111	927	0	-100	0	230	101300000	1000	0	0	-1	1000
27019955	111	926	0	-100	0	230	101300000	1000	0	0	-1	1000
27032515	111	926	0	-100	0	230	101300000	1000	0	0	-1	1000
27045075	111	925	0	-100	0	230	101300000	1000	0	0	-1	1000
