timestamp	voltage	current	windSpeed	pitchAngle	rpm	temperature	ambientPressure	humidity	accelerationX	accelerationY	accelerationZ	currentSink
7040070	8515	4	0	-100	0	230	101300000	1000	0	0	-1	0
7047523	8524	0	0	-100	0	230	101300000	1000	0	0	-1	0
7060083	8526	4	0	-100	0	230	101300000	1000	0	0	-1	0
7072643	8526	0	0	-100	0	230	101300000	1000	0	0	-1	0
7085203	8527	0	0	-100	0	230	101300000	1000	0	0	-1	0
7097763	8534	0	0	-100	0	230	101300000	1000	0	0	-1	0
7110323	8529	0	0	-100	0	230	101300000	1000	0	0	-1	0
7122883	8524	0	0	-100	0	230	101300000	1000	0	0	-1	0
7135443	8529	2	0	-100	0	230	101300000	1000	0	0	-1	0
7148004	8524	3	0	-100	0	230	101300000	1000	0	0	-1	0
7160563	8529	0	0	-100	0	230	101300000	1000	0	0	-1	0
7173123	8527	4	0	-100	0	230	101300000	1000	0	0	-1	0
7185683	8529	1	0	-100	0	230	101300000	1000	0	0	-1	0
7198243	8532	0	0	-100	0	230	101300000	1000	0	0	-1	0
7210803	8529	0	0	-100	0	230	101300000	1000	0	0	-1	0
7223363	8527	0	0	-100	0	230	101300000	1000	0	0	-1	0
7235923	8524	0	0	-100	0	230	101300000	1000	0	0	-1	0
7248483	8529	4	0	-100	0	230	101300000	1000	0	0	-1	0
7261043	8536	0	0	-100	0	230	101300000	1000	0	0	-1	0
7273603	8534	0	0	-100	0	230	101300000	1000	0	0	-1	0
7286163	8526	0	0	-100	0	230	101300000	1000	0	0	-1	0
7298723	8524	2	0	-100	0	230	101300000	1000	0	0	-1	0
7311283	8534	0	0	-100	0	230	101300000	1000	0	0	-1	0
7323843	8522	0	0	-100	0	230	101300000	1000	0	0	-1	0
7336403	8531	0	0	-100	0	230	101300000	1000	0	0	-1	0
7348963	8532	0	0	-100	0	230	101300000	1000	0	0	-1	0
7712351	8531	0	0	-100	0	230	101300000	1000	0	0	-1	0
7724911	8524	0	0	-100	0	230	101300000	1000	0	0	-1	0
7737471	8526	0	0	-100	0	230	101300000	1000	0	0	-1	0
7750031	8534	0	0	-100	0	230	101300000	1000	0	0	-1	0
7762591	8531	0	0	-100	0	230	101300000	1000	0	0	-1	0
7775151	8522	0	0	-100	0	230	101300000	1000	0	0	-1	0
7787711	8527	2	0	-100	0	230	101300000	1000	0	0	-1	0
7800271	8534	0	0	-100	0	230	101300000	1000	0	0	-1	0
7812831	8529	0	0	-100	0	230	101300000	1000	0	0	-1	0
7825391	8529	0	0	-100	0	230	101300000	1000	0	0	-1	0
7837951	8526	4	0	-100	0	230	101300000	1000	0	0	-1	0
7913311	8526	0	0	-100	0	230	101300000	1000	0	0	-1	0
7925871	8529	0	0	-100	0	230	101300000	1000	0	0	-1	0
7938431	8534	0	0	-100	0	230	101300000	1000	0	0	-1	0
7950991	8524	0	0	-100	0	230	101300000	1000	0	0	-1	0
7963551	8529	2	0	-100	0	230	101300000	1000	0	0	-1	0
7976111	8538	0	0	-100	0	230	101300000	1000	0	0	-1	0
7988671	8527	0	0	-100	0	230	101300000	1000	0	0	-1	0
8001231	8526	2	0	-100	0	230	101300000	1000	0	0	-1	0
8013791	8527	2	0	-100	0	230	101300000	1000	0	0	-1	0
8026351	8538	0	0	-100	0	230	101300000	1000	0	0	-1	0
8038911	8534	0	0	-100	0	230	101300000	1000	0	0	-1	0
8051471	8529	0	0	-100	0	230	101300000	1000	0	0	-1	0
8064031	8529	0	0	-100	0	230	101300000	1000	0	0	-1	0
8076591	8524	0	0	-100	0	230	101300000	1000	0	0	-1	0
8089151	8524	4	0	-100	0	230	101300000	1000	0	0	-1	0
8101711	8522	1	0	-100	0	230	101300000	1000	0	0	-1	0
8114271	8534	0	0	-100	0	230	101300000	1000	0	0	-1	0
8126831	8534	0	0	-100	0	230	101300000	1000	0	0	-1	0
8139391	8532	0	0	-100	0	230	101300000	1000	0	0	-1	0
8151951	8524	0	0	-100	0	230	101300000	1000	0	0	-1	0
8164511	8527	4	0	-100	0	230	101300000	1000	0	0	-1	0
8177071	8526	0	0	-100	0	230	101300000	1000	0	0	-1	0
8189631	8534	0	0	-100	0	230	101300000	1000	0	0	-1	0
8202191	8524	0	0	-100	0	230	101300000	1000	0	0	-1	0
8214751	8522	0	0	-100	0	230	101300000	1000	0	0	-1	0
8227311	8531	2	0	-100	0	230	101300000	1000	0	0	-1	0
8239871	8531	0	0	-100	0	230	101300000	1000	0	0	-1	0
8252431	8541	0	0	-100	0	230	101300000	1000	0	0	-1	0
8264991	8529	0	0	-100	0	230	101300000	1000	0	0	-1	0
8277551	8529	0	0	-100	0	230	101300000	1000	0	0	-1	0
8290111	8531	0	0	-100	0	230	101300000	1000	0	0	-1	0
8302671	8531	0	0	-100	0	230	101300000	1000	0	0	-1	0
8315231	8524	0	0	-100	0	230	101300000	1000	0	0	-1	0
8327791	8527	0	0	-100	0	230	101300000	1000	0	0	-1	0
8340351	8522	0	0	-100	0	230	101300000	1000	0	0	-1	0
8352911	8527	3	0	-100	0	230	101300000	1000	0	0	-1	0
8365471	8527	3	0	-100	0	230	101300000	1000	0	0	-1	0
8378031	8531	0	0	-100	0	230	101300000	1000	0	0	-1	0
8390591	8529	0	0	-100	0	230	101300000	1000	0	0	-1	0
8403151	8532	0	0	-100	0	230	101300000	1000	0	0	-1	0
8415711	8527	0	0	-100	0	230	101300000	1000	0	0	-1	0
8428271	8524	0	0	-100	0	230	101300000	1000	0	0	-1	0
8440831	8527	0	0	-100	0	230	101300000	1000	0	0	-1	0
8453391	8526	3	0	-100	0	230	101300000	1000	0	0	-1	0
8465951	8527	0	0	-100	0	230	101300000	1000	0	0	-1	0
8478511	8529	0	0	-100	0	230	101300000	1000	0	0	-1	0
8491071	8527	0	0	-100	0	230	101300000	1000	0	0	-1	0
8503631	8529	4	0	-100	0	230	101300000	1000	0	0	-1	0
8516191	8531	1	0	-100	0	230	101300000	1000	0	0	-1	0
8528751	8529	0	0	-100	0	230	101300000	1000	0	0	-1	0
8541311	8531	0	0	-100	0	230	101300000	1000	0	0	-1	0
8553871	8524	0	0	-100	0	230	101300000	1000	0	0	-1	0
8566431	8531	0	0	-100	0	230	101300000	1000	0	0	-1	0
8578991	8531	1	0	-100	0	230	101300000	1000	0	0	-1	0
8591551	8529	0	0	-100	0	230	101300000	1000	0	0	-1	0
8604111	8529	2	0	-100	0	230	101300000	1000	0	0	-1	0
8616671	8532	0	0	-100	0	230	101300000	1000	0	0	-1	0
8629231	8531	0	0	-100	0	230	101300000	1000	0	0	-1	0
8641791	8524	6	0	-100	0	230	101300000	1000	0	0	-1	0
8654351	8529	0	0	-100	0	230	101300000	1000	0	0	-1	0
8666911	8525	0	0	-100	0	230	101300000	1000	0	0	-1	0
8679471	8527	0	0	-100	0	230	101300000	1000	0	0	-1	0
8692031	8529	0	0	-100	0	230	101300000	1000	0	0	-1	0
8704591	8526	0	0	-100	0	230	101300000	1000	0	0	-1	0
8717151	8531	0	0	-100	0	230	101300000	1000	0	0	-1	0
8729711	8527	0	0	-100	0	230	101300000	1000	0	0	-1	0
8742271	8526	4	0	-100	0	230	101300000	1000	0	0	-1	0
8754831	8529	0	0	-100	0	230	101300000	1000	0	0	-1	0
8767391	8531	0	0	-100	0	230	101300000	1000	0	0	-1	0
8779951	8529	0	0	-100	0	230	101300000	1000	0	0	-1	0
8792511	8522	5	0	-100	0	230	101300000	1000	0	0	-1	0
8805071	8529	1	0	-100	0	230	101300000	1000	0	0	-1	0
8817631	8527	0	0	-100	0	230	101300000	1000	0	0	-1	0
8830191	8527	0	0	-100	0	230	101300000	1000	0	0	-1	0
8842751	8527	4	0	-100	0	230	101300000	1000	0	0	-1	0
8855311	8526	1	0	-100	0	230	101300000	1000	0	0	-1	0
8867871	8534	0	0	-100	0	230	101300000	1000	0	0	-1	0
8880431	8529	0	0	-100	0	230	101300000	1000	0	0	-1	0
8892991	8527	0	0	-100	0	230	101300000	1000	0	0	-1	0
8905551	8522	3	0	-100	0	230	101300000	1000	0	0	-1	0
8918111	8536	0	0	-100	0	230	101300000	1000	0	0	-1	0
8930671	8527	0	0	-100	0	230	101300000	1000	0	0	-1	0
8943231	8529	0	0	-100	0	230	101300000	1000	0	0	-1	0
8955791	8531	1	0	-100	0	230	101300000	1000	0	0	-1	0
8968351	8534	0	0	-100	0	230	101300000	1000	0	0	-1	0
8980911	8529	0	0	-100	0	230	101300000	1000	0	0	-1	0
8993471	8527	0	0	-100	0	230	101300000	1000	0	0	-1	0
9006031	8524	0	0	-100	0	230	101300000	1000	0	0	-1	0
9018591	8529	3	0	-100	0	230	101300000	1000	0	0	-1	0
9031151	8524	2	0	-100	0	230	101300000	1000	0	0	-1	0
9043711	8527	0	0	-100	0	230	101300000	1000	0	0	-1	0
9056271	8536	0	0	-100	0	230	101300000	1000	0	0	-1	0
9068831	8534	0	0	-100	0	230	101300000	1000	0	0	-1	0
9081391	8527	0	0	-100	0	230	101300000	1000	0	0	-1	0
9093951	8524	0	0	-100	0	230	101300000	1000	0	0	-1	0
9106511	8527	0	0	-100	0	230	101300000	1000	0	0	-1	0
9119071	8524	0	0	-100	0	230	101300000	1000	0	0	-1	0
9131631	8529	3	0	-100	0	230	101300000	1000	0	0	-1	0
9144191	8524	4	0	-100	0	230	101300000	1000	0	0	-1	0
9156751	8529	3	0	-100	0	230	101300000	1000	0	0	-1	0
9169311	8529	3	0	-100	0	230	101300000	1000	0	0	-1	0
9181871	8531	0	0	-100	0	230	101300000	1000	0	0	-1	0
9194431	8536	0	0	-100	0	230	101300000	1000	0	0	-1	0
9206991	8527	0	0	-100	0	230	101300000	1000	0	0	-1	0
9219551	8527	0	0	-100	0	230	101300000	1000	0	0	-1	0
9232111	8529	2	0	-100	0	230	101300000	1000	0	0	-1	0
9244671	8529	0	0	-100	0	230	101300000	1000	0	0	-1	0
9257231	8524	1	0	-100	0	230	101300000	1000	0	0	-1	0
9269791	8529	0	0	-100	0	230	101300000	1000	0	0	-1	0
9282351	8534	0	0	-100	0	230	101300000	1000	0	0	-1	0
9294911	8534	0	0	-100	0	230	101300000	1000	0	0	-1	0
9307471	8529	0	0	-100	0	230	101300000	1000	0	0	-1	0
9320031	8529	0	0	-100	0	230	101300000	1000	0	0	-1	0
9332591	8527	0	0	-100	0	230	101300000	1000	0	0	-1	0
9345151	8527	0	0	-100	0	230	101300000	1000	0	0	-1	0
9357711	8524	0	0	-100	0	230	101300000	1000	0	0	-1	0
9370271	8522	1	0	-100	0	230	101300000	1000	0	0	-1	0
9382831	8524	5	0	-100	0	230	101300000	1000	0	0	-1	0
9395391	8527	3	0	-100	0	230	101300000	1000	0	0	-1	0
9407951	8531	0	0	-100	0	230	101300000	1000	0	0	-1	0
9420511	8536	0	0	-100	0	230	101300000	1000	0	0	-1	0
9433071	8532	0	0	-100	0	230	101300000	1000	0	0	-1	0
9445631	8531	0	0	-100	0	230	101300000	1000	0	0	-1	0
9458191	8529	0	0	-100	0	230	101300000	1000	0	0	-1	0
9470751	8527	0	0	-100	0	230	101300000	1000	0	0	-1	0
9483311	8529	3	0	-100	0	230	101300000	1000	0	0	-1	0
9495871	8527	1	0	-100	0	230	101300000	1000	0	0	-1	0
9508431	8531	0	0	-100	0	230	101300000	1000	0	0	-1	0
9520991	8529	3	0	-100	0	230	101300000	1000	0	0	-1	0
9533551	8527	0	0	-100	0	230	101300000	1000	0	0	-1	0
9546111	8524	0	0	-100	0	230	101300000	1000	0	0	-1	0
9558671	8529	4	0	-100	0	230	101300000	1000	0	0	-1	0
9571231	8529	0	0	-100	0	230	101300000	1000	0	0	-1	0
9583791	8536	0	0	-100	0	230	101300000	1000	0	0	-1	0
9596351	8532	0	0	-100	0	230	101300000	1000	0	0	-1	0
9608911	8534	0	0	-100	0	230	101300000	1000	0	0	-1	0
9621471	8527	0	0	-100	0	230	101300000	1000	0	0	-1	0
9634031	8529	4	0	-100	0	230	101300000	1000	0	0	-1	0
9646591	8529	0	0	-100	0	230	101300000	1000	0	0	-1	0
9659151	8531	0	0	-100	0	230	101300000	1000	0	0	-1	0
9671711	8529	0	0	-100	0	230	101300000	1000	0	0	-1	0
9684271	8522	0	0	-100	0	230	101300000	1000	0	0	-1	0
9696831	8524	3	0	-100	0	230	101300000	1000	0	0	-1	0
9709391	8534	0	0	-100	0	230	101300000	1000	0	0	-1	0
9721951	8532	0	0	-100	0	230	101300000	1000	0	0	-1	0
9734511	8531	0	0	-100	0	230	101300000	1000	0	0	-1	0
9747071	8527	0	0	-100	0	230	101300000	1000	0	0	-1	0
9759631	8527	1	0	-100	0	230	101300000	1000	0	0	-1	0
9772191	8534	0	0	-100	0	230	101300000	1000	0	0	-1	0
9784751	8532	0	0	-100	0	230	101300000	1000	0	0	-1	0
9797311	8531	0	0	-100	0	230	101300000	1000	0	0	-1	0
9809871	8531	0	0	-100	0	230	101300000	1000	0	0	-1	0
9822431	8524	0	0	-100	0	230	101300000	1000	0	0	-1	0
9834991	8527	0	0	-100	0	230	101300000	1000	0	0	-1	0
9847551	8524	3	0	-100	0	230	101300000	1000	0	0	-1	0
9860111	8534	0	0	-100	0	230	101300000	1000	0	0	-1	0
9872671	8529	0	0	-100	0	230	101300000	1000	0	0	-1	0
9885231	8531	0	0	-100	0	230	101300000	1000	0	0	-1	0
9897791	8529	4	0	-100	0	230	101300000	1000	0	0	-1	0
9910351	8534	0	0	-100	0	230	101300000	1000	0	0	-1	0
9922911	8529	0	0	-100	0	230	101300000	1000	0	0	-1	0
9935471	8531	0	0	-100	0	230	101300000	1000	0	0	-1	0
9948031	8522	0	0	-100	0	230	101300000	1000	0	0	-1	0
9960591	8538	0	0	-100	0	230	101300000	1000	0	0	-1	0
9973151	8524	0	0	-100	0	230	101300000	1000	0	0	-1	0
9985711	8527	0	0	-100	0	230	101300000	1000	0	0	-1	0
9998271	8527	0	0	-100	0	230	101300000	1000	0	0	-1	0
10010831	8524	0	0	-100	0	230	101300000	1000	0	0	-1	0
10023391	8529	0	0	-100	0	230	101300000	1000	0	0	-1	0
10035951	8529	0	0	-100	0	230	101300000	1000	0	0	-1	0
10048511	8527	0	0	-100	0	230	101300000	1000	0	0	-1	0
10061071	8529	3	0	-100	0	230	101300000	1000	0	0	-1	0
10073631	8532	0	0	-100	0	230	101300000	1000	0	0	-1	0
10086191	8527	0	0	-100	0	230	101300000	1000	0	0	-1	0
10098751	8524	3	0	-100	0	230	101300000	1000	0	0	-1	0
10111311	8531	0	0	-100	0	230	101300000	1000	0	0	-1	0
10123871	8526	2	0	-100	0	230	101300000	1000	0	0	-1	0
10136431	8529	0	0	-100	0	230	101300000	1000	0	0	-1	0
10148991	8529	0	0	-100	0	230	101300000	1000	0	0	-1	0
10161551	8531	0	0	-100	0	230	101300000	1000	0	0	-1	0
10174111	8524	1	0	-100	0	230	101300000	1000	0	0	-1	0
10186671	8534	0	0	-100	0	230	101300000	1000	0	0	-1	0
10199231	8527	0	0	-100	0	230	101300000	1000	0	0	-1	0
10211791	8529	0	0	-100	0	230	101300000	1000	0	0	-1	0
10224351	8527	0	0	-100	0	230	101300000	1000	0	0	-1	0
10236911	8529	3	0	-100	0	230	101300000	1000	0	0	-1	0
10249471	8534	0	0	-100	0	230	101300000	1000	0	0	-1	0
10262031	8520	0	0	-100	0	230	101300000	1000	0	0	-1	0
10274591	8529	0	0	-100	0	230	101300000	1000	0	0	-1	0
10287151	8529	0	0	-100	0	230	101300000	1000	0	0	-1	0
10299711	8524	3	0	-100	0	230	101300000	1000	0	0	-1	0
10312271	8534	0	0	-100	0	230	101300000	1000	0	0	-1	0
10324831	8527	0	0	-100	0	230	101300000	1000	0	0	-1	0
10337391	8526	2	0	-100	0	230	101300000	1000	0	0	-1	0
10349951	8536	0	0	-100	0	230	101300000	1000	0	0	-1	0
10362511	8529	2	0	-100	0	230	101300000	1000	0	0	-1	0
10375071	8534	0	0	-100	0	230	101300000	1000	0	0	-1	0
10387631	8524	0	0	-100	0	230	101300000	1000	0	0	-1	0
10400191	8526	2	0	-100	0	230	101300000	1000	0	0	-1	0
10412751	8536	0	0	-100	0	230	101300000	1000	0	0	-1	0
10425311	8529	0	0	-100	0	230	101300000	1000	0	0	-1	0
10437871	8524	4	0	-100	0	230	101300000	1000	0	0	-1	0
10450431	8541	0	0	-100	0	230	101300000	1000	0	0	-1	0
10462991	8524	0	0	-100	0	230	101300000	1000	0	0	-1	0
10475551	8522	4	0	-100	0	230	101300000	1000	0	0	-1	0
10488111	8527	0	0	-100	0	230	101300000	1000	0	0	-1	0
10500671	8527	0	0	-100	0	230	101300000	1000	0	0	-1	0
10513231	8524	5	0	-100	0	230	101300000	1000	0	0	-1	0
10525791	8536	0	0	-100	0	230	101300000	1000	0	0	-1	0
10538351	8527	0	0	-100	0	230	101300000	1000	0	0	-1	0
10550911	8526	4	0	-100	0	230	101300000	1000	0	0	-1	0
10563471	8536	0	0	-100	0	230	101300000	1000	0	0	-1	0
10576031	8527	0	0	-100	0	230	101300000	1000	0	0	-1	0
10588591	8527	3	0	-100	0	230	101300000	1000	0	0	-1	0
10601151	8531	0	0	-100	0	230	101300000	1000	0	0	-1	0
10613711	8531	0	0	-100	0	230	101300000	1000	0	0	-1	0
10626271	8524	4	0	-100	0	230	101300000	1000	0	0	-1	0
10638831	8536	0	0	-100	0	230	101300000	1000	0	0	-1	0
10651391	8527	0	0	-100	0	230	101300000	1000	0	0	-1	0
10663951	8524	0	0	-100	0	230	101300000	1000	0	0	-1	0
10676511	8526	2	0	-100	0	230	101300000	1000	0	0	-1	0
10689071	8532	0	0	-100	0	230	101300000	1000	0	0	-1	0
10701631	8531	0	0	-100	0	230	101300000	1000	0	0	-1	0
10714191	8529	4	0	-100	0	230	101300000	1000	0	0	-1	0
10726751	8531	0	0	-100	0	230	101300000	1000	0	0	-1	0
10739311	8534	0	0	-100	0	230	101300000	1000	0	0	-1	0
10751871	8524	0	0	-100	0	230	101300000	1000	0	0	-1	0
10764431	8529	4	0	-100	0	230	101300000	1000	0	0	-1	0
10776991	8524	0	0	-100	0	230	101300000	1000	0	0	-1	0
10789551	8531	0	0	-100	0	230	101300000	1000	0	0	-1	0
10802111	8534	0	0	-100	0	230	101300000	1000	0	0	-1	0
10814671	8524	0	0	-100	0	230	101300000	1000	0	0	-1	0
10827231	8529	4	0	-100	0	230	101300000	1000	0	0	-1	0
10839791	8531	0	0	-100	0	230	101300000	1000	0	0	-1	0
10852351	8536	0	0	-100	0	230	101300000	1000	0	0	-1	0
10864911	8529	0	0	-100	0	230	101300000	1000	0	0	-1	0
10877471	8529	0	0	-100	0	230	101300000	1000	0	0	-1	0
10890031	8529	0	0	-100	0	230	101300000	1000	0	0	-1	0
10902591	8531	4	0	-100	0	230	101300000	1000	0	0	-1	0
10915151	8529	0	0	-100	0	230	101300000	1000	0	0	-1	0
10927711	8529	0	0	-100	0	230	101300000	1000	0	0	-1	0
10940271	8520	0	0	-100	0	230	101300000	1000	0	0	-1	0
10952831	8529	0	0	-100	0	230	101300000	1000	0	0	-1	0
10965391	8527	0	0	-100	0	230	101300000	1000	0	0	-1	0
10977951	8529	3	0	-100	0	230	101300000	1000	0	0	-1	0
10990511	8531	0	0	-100	0	230	101300000	1000	0	0	-1	0
11003071	8529	2	0	-100	0	230	101300000	1000	0	0	-1	0
11015631	8529	0	0	-100	0	230	101300000	1000	0	0	-1	0
11028191	8524	1	0	-100	0	230	101300000	1000	0	0	-1	0
11040751	8536	0	0	-100	0	230	101300000	1000	0	0	-1	0
11053311	8527	0	0	-100	0	230	101300000	1000	0	0	-1	0
11065871	8531	0	0	-100	0	230	101300000	1000	0	0	-1	0
11078431	8529	0	0	-100	0	230	101300000	1000	0	0	-1	0
11090991	8524	0	0	-100	0	230	101300000	1000	0	0	-1	0
11103551	8522	4	0	-100	0	230	101300000	1000	0	0	-1	0
11116111	8529	0	0	-100	0	230	101300000	1000	0	0	-1	0
11128671	8529	0	0	-100	0	230	101300000	1000	0	0	-1	0
11141231	8531	1	0	-100	0	230	101300000	1000	0	0	-1	0
11153791	8532	0	0	-100	0	230	101300000	1000	0	0	-1	0
11166351	8529	0	0	-100	0	230	101300000	1000	0	0	-1	0
11178911	8529	0	0	-100	0	230	101300000	1000	0	0	-1	0
11191471	8524	0	0	-100	0	230	101300000	1000	0	0	-1	0
11204031	8529	2	0	-100	0	230	101300000	1000	0	0	-1	0
11216591	8534	0	0	-100	0	230	101300000	1000	0	0	-1	0
11229151	8529	0	0	-100	0	230	101300000	1000	0	0	-1	0
11241711	8529	0	0	-100	0	230	101300000	1000	0	0	-1	0
11254271	8527	0	0	-100	0	230	101300000	1000	0	0	-1	0
11266831	8522	0	0	-100	0	230	101300000	1000	0	0	-1	0
11279391	8529	3	0	-100	0	230	101300000	1000	0	0	-1	0
11291951	8527	3	0	-100	0	230	101300000	1000	0	0	-1	0
11304511	8527	0	0	-100	0	230	101300000	1000	0	0	-1	0
11317071	8534	0	0	-100	0	230	101300000	1000	0	0	-1	0
11329631	8527	0	0	-100	0	230	101300000	1000	0	0	-1	0
11342191	8524	3	0	-100	0	230	101300000	1000	0	0	-1	0
11354751	8527	0	0	-100	0	230	101300000	1000	0	0	-1	0
11367311	8527	0	0	-100	0	230	101300000	1000	0	0	-1	0
11379871	8526	0	0	-100	0	230	101300000	1000	0	0	-1	0
11392431	8531	2	0	-100	0	230	101300000	1000	0	0	-1	0
11404991	8529	3	0	-100	0	230	101300000	1000	0	0	-1	0
11417551	8529	0	0	-100	0	230	101300000	1000	0	0	-1	0
11430111	8524	0	0	-100	0	230	101300000	1000	0	0	-1	0
11442671	8524	3	0	-100	0	230	101300000	1000	0	0	-1	0
11455231	8529	0	0	-100	0	230	101300000	1000	0	0	-1	0
11467791	8524	0	0	-100	0	230	101300000	1000	0	0	-1	0
11480351	8527	2	0	-100	0	230	101300000	1000	0	0	-1	0
11492911	8534	0	0	-100	0	230	101300000	1000	0	0	-1	0
11505471	8531	0	0	-100	0	230	101300000	1000	0	0	-1	0
11518031	8529	0	0	-100	0	230	101300000	1000	0	0	-1	0
11530591	8527	3	0	-100	0	230	101300000	1000	0	0	-1	0
11543151	8536	0	0	-100	0	230	101300000	1000	0	0	-1	0
11555711	8534	0	0	-100	0	230	101300000	1000	0	0	-1	0
11568271	8520	0	0	-100	0	230	101300000	1000	0	0	-1	0
11580831	8534	0	0	-100	0	230	101300000	1000	0	0	-1	0
11593391	8529	0	0	-100	0	230	101300000	1000	0	0	-1	0
11605951	8524	0	0	-100	0	230	101300000	1000	0	0	-1	0
11618511	8529	0	0	-100	0	230	101300000	1000	0	0	-1	0
11631071	8529	2	0	-100	0	230	101300000	1000	0	0	-1	0
11643631	8531	0	0	-100	0	230	101300000	1000	0	0	-1	0
11656191	8532	0	0	-100	0	230	101300000	1000	0	0	-1	0
11668751	8529	0	0	-100	0	230	101300000	1000	0	0	-1	0
11681311	8529	0	0	-100	0	230	101300000	1000	0	0	-1	0
11693871	8534	3	0	-100	0	230	101300000	1000	0	0	-1	0
11706431	8529	2	0	-100	0	230	101300000	1000	0	0	-1	0
11718991	8531	3	0	-100	0	230	101300000	1000	0	0	-1	0
11731551	8529	0	0	-100	0	230	101300000	1000	0	0	-1	0
11744111	8536	0	0	-100	0	230	101300000	1000	0	0	-1	0
11756671	8527	0	0	-100	0	230	101300000	1000	0	0	-1	0
11769231	8524	0	0	-100	0	230	101300000	1000	0	0	-1	0
11781791	8524	0	0	-100	0	230	101300000	1000	0	0	-1	0
11794351	8524	4	0	-100	0	230	101300000	1000	0	0	-1	0
11806911	8526	0	0	-100	0	230	101300000	1000	0	0	-1	0
11819471	8536	0	0	-100	0	230	101300000	1000	0	0	-1	0
11832031	8536	0	0	-100	0	230	101300000	1000	0	0	-1	0
11844591	8524	0	0	-100	0	230	101300000	1000	0	0	-1	0
11857151	8534	3	0	-100	0	230	101300000	1000	0	0	-1	0
11869711	8526	1	0	-100	0	230	101300000	1000	0	0	-1	0
11882271	8536	0	0	-100	0	230	101300000	1000	0	0	-1	0
11894831	8529	0	0	-100	0	230	101300000	1000	0	0	-1	0
11907391	8527	0	0	-100	0	230	101300000	1000	0	0	-1	0
11919951	8527	2	0	-100	0	230	101300000	1000	0	0	-1	0
11932511	8524	0	0	-100	0	230	101300000	1000	0	0	-1	0
11945071	8531	0	0	-100	0	230	101300000	1000	0	0	-1	0
11957631	8531	0	0	-100	0	230	101300000	1000	0	0	-1	0
11970191	8522	0	0	-100	0	230	101300000	1000	0	0	-1	0
11982751	8527	0	0	-100	0	230	101300000	1000	0	0	-1	0
11995311	8526	3	0	-100	0	230	101300000	1000	0	0	-1	0
12007871	8541	0	0	-100	0	230	101300000	1000	0	0	-1	0
12020431	8527	0	0	-100	0	230	101300000	1000	0	0	-1	0
12032991	8529	0	0	-100	0	230	101300000	1000	0	0	-1	0
12045551	8522	0	0	-100	0	230	101300000	1000	0	0	-1	0
12058111	8526	0	0	-100	0	230	101300000	1000	0	0	-1	0
12070671	8522	0	0	-100	0	230	101300000	1000	0	0	-1	0
12083231	8522	0	0	-100	0	230	101300000	1000	0	0	-1	0
12095791	8527	4	0	-100	0	230	101300000	1000	0	0	-1	0
12108351	8531	2	0	-100	0	230	101300000	1000	0	0	-1	0
12120911	8529	0	0	-100	0	230	101300000	1000	0	0	-1	0
12133471	8524	0	0	-100	0	230	101300000	1000	0	0	-1	0
12146031	8529	1	0	-100	0	230	101300000	1000	0	0	-1	0
12158591	8529	0	0	-100	0	230	101300000	1000	0	0	-1	0
12171151	8527	0	0	-100	0	230	101300000	1000	0	0	-1	0
12183711	8531	0	0	-100	0	230	101300000	1000	0	0	-1	0
12196271	8538	0	0	-100	0	230	101300000	1000	0	0	-1	0
12208831	8529	0	0	-100	0	230	101300000	1000	0	0	-1	0
12221391	8534	0	0	-100	0	230	101300000	1000	0	0	-1	0
12233951	8534	0	0	-100	0	230	101300000	1000	0	0	-1	0
12246511	8531	0	0	-100	0	230	101300000	1000	0	0	-1	0
12259071	8527	0	0	-100	0	230	101300000	1000	0	0	-1	0
12271631	8522	0	0	-100	0	230	101300000	1000	0	0	-1	0
12284191	8522	0	0	-100	0	230	101300000	1000	0	0	-1	0
12296751	8524	0	0	-100	0	230	101300000	1000	0	0	-1	0
12309311	8524	0	0	-100	0	230	101300000	1000	0	0	-1	0
12321871	8531	1	0	-100	0	230	101300000	1000	0	0	-1	0
12334431	8524	4	0	-100	0	230	101300000	1000	0	0	-1	0
12346991	8529	0	0	-100	0	230	101300000	1000	0	0	-1	0
12359551	8527	4	0	-100	0	230	101300000	1000	0	0	-1	0
12372111	8529	3	0	-100	0	230	101300000	1000	0	0	-1	0
12384671	8526	0	0	-100	0	230	101300000	1000	0	0	-1	0
12397231	8536	0	0	-100	0	230	101300000	1000	0	0	-1	0
12409791	8527	0	0	-100	0	230	101300000	1000	0	0	-1	0
12422351	8524	0	0	-100	0	230	101300000	1000	0	0	-1	0
12434911	8524	0	0	-100	0	230	101300000	1000	0	0	-1	0
12447471	8524	4	0	-100	0	230	101300000	1000	0	0	-1	0
12460031	8529	0	0	-100	0	230	101300000	1000	0	0	-1	0
12472591	8529	0	0	-100	0	230	101300000	1000	0	0	-1	0
12485151	8524	0	0	-100	0	230	101300000	1000	0	0	-1	0
12497711	8531	1	0	-100	0	230	101300000	1000	0	0	-1	0
12510271	8532	0	0	-100	0	230	101300000	1000	0	0	-1	0
12522831	8531	0	0	-100	0	230	101300000	1000	0	0	-1	0
12535391	8524	0	0	-100	0	230	101300000	1000	0	0	-1	0
12547951	8532	0	0	-100	0	230	101300000	1000	0	0	-1	0
12560511	8522	0	0	-100	0	230	101300000	1000	0	0	-1	0
12573071	8522	1	0	-100	0	230	101300000	1000	0	0	-1	0
12585631	8532	0	0	-100	0	230	101300000	1000	0	0	-1	0
12598191	8529	0	0	-100	0	230	101300000	1000	0	0	-1	0
12610751	8524	4	0	-100	0	230	101300000	1000	0	0	-1	0
12623311	8526	0	0	-100	0	230	101300000	1000	0	0	-1	0
12635871	8534	0	0	-100	0	230	101300000	1000	0	0	-1	0
12648431	8524	0	0	-100	0	230	101300000	1000	0	0	-1	0
12660991	8522	0	0	-100	0	230	101300000	1000	0	0	-1	0
12673551	8529	0	0	-100	0	230	101300000	1000	0	0	-1	0
12686111	8527	0	0	-100	0	230	101300000	1000	0	0	-1	0
12698671	8529	0	0	-100	0	230	101300000	1000	0	0	-1	0
12711231	8529	0	0	-100	0	230	101300000	1000	0	0	-1	0
12723791	8527	2	0	-100	0	230	101300000	1000	0	0	-1	0
12736351	8534	0	0	-100	0	230	101300000	1000	0	0	-1	0
12748911	8529	0	0	-100	0	230	101300000	1000	0	0	-1	0
12761471	8529	4	0	-100	0	230	101300000	1000	0	0	-1	0
12774031	8529	1	0	-100	0	230	101300000	1000	0	0	-1	0
12786591	8538	0	0	-100	0	230	101300000	1000	0	0	-1	0
12799151	8529	0	0	-100	0	230	101300000	1000	0	0	-1	0
12811711	8527	0	0	-100	0	230	101300000	1000	0	0	-1	0
12824271	8529	2	0	-100	0	230	101300000	1000	0	0	-1	0
12836831	8531	0	0	-100	0	230	101300000	1000	0	0	-1	0
12849391	8531	0	0	-100	0	230	101300000	1000	0	0	-1	0
12861951	8529	0	0	-100	0	230	101300000	1000	0	0	-1	0
12874511	8531	0	0	-100	0	230	101300000	1000	0	0	-1	0
12887071	8529	1	0	-100	0	230	101300000	1000	0	0	-1	0
12899631	8531	3	0	-100	0	230	101300000	1000	0	0	-1	0
12912191	8534	2	0	-100	0	230	101300000	1000	0	0	-1	0
12924751	8522	0	0	-100	0	230	101300000	1000	0	0	-1	0
12937311	8522	0	0	-100	0	230	101300000	1000	0	0	-1	0
12949871	8527	0	0	-100	0	230	101300000	1000	0	0	-1	0
12962431	8531	0	0	-100	0	230	101300000	1000	0	0	-1	0
12974991	8529	2	0	-100	0	230	101300000	1000	0	0	-1	0
12987551	8534	0	0	-100	0	230	101300000	1000	0	0	-1	0
13000111	8526	4	0	-100	0	230	101300000	1000	0	0	-1	0
13012671	8527	1	0	-100	0	230	101300000	1000	0	0	-1	0
13025231	8517	0	0	-100	0	230	101300000	1000	0	0	-1	0
13037791	8524	0	0	-100	0	230	101300000	1000	0	0	-1	0
13050351	8527	0	0	-100	0	230	101300000	1000	0	0	-1	0
13062911	8527	4	0	-100	0	230	101300000	1000	0	0	-1	0
13075471	8529	4	0	-100	0	230	101300000	1000	0	0	-1	0
13088031	8529	2	0	-100	0	230	101300000	1000	0	0	-1	0
13100591	8524	1	0	-100	0	230	101300000	1000	0	0	-1	0
13113151	8529	1	0	-100	0	230	101300000	1000	0	0	-1	0
13125711	8529	0	0	-100	0	230	101300000	1000	0	0	-1	0
13138271	8527	0	0	-100	0	230	101300000	1000	0	0	-1	0
13150831	8526	1	0	-100	0	230	101300000	1000	0	0	-1	0
13163391	8524	3	0	-100	0	230	101300000	1000	0	0	-1	0
13175951	8527	4	0	-100	0	230	101300000	1000	0	0	-1	0
13188511	8527	4	0	-100	0	230	101300000	1000	0	0	-1	0
13201071	8526	0	0	-100	0	230	101300000	1000	0	0	-1	0
13213631	8524	0	0	-100	0	230	101300000	1000	0	0	-1	0
13226191	8536	0	0	-100	0	230	101300000	1000	0	0	-1	0
13238751	8534	0	0	-100	0	230	101300000	1000	0	0	-1	0
13251311	8529	0	0	-100	0	230	101300000	1000	0	0	-1	0
13263871	8529	0	0	-100	0	230	101300000	1000	0	0	-1	0
13276431	8532	0	0	-100	0	230	101300000	1000	0	0	-1	0
13288991	8531	4	0	-100	0	230	101300000	1000	0	0	-1	0
13301551	8524	0	0	-100	0	230	101300000	1000	0	0	-1	0
13314111	8522	4	0	-100	0	230	101300000	1000	0	0	-1	0
13326671	8524	0	0	-100	0	230	101300000	1000	0	0	-1	0
13339231	8527	0	0	-100	0	230	101300000	1000	0	0	-1	0
13351791	8529	0	0	-100	0	230	101300000	1000	0	0	-1	0
13364351	8529	0	0	-100	0	230	101300000	1000	0	0	-1	0
13376911	8529	0	0	-100	0	230	101300000	1000	0	0	-1	0
13389471	8531	0	0	-100	0	230	101300000	1000	0	0	-1	0
13402031	8529	3	0	-100	0	230	101300000	1000	0	0	-1	0
13414591	8522	0	0	-100	0	230	101300000	1000	0	0	-1	0
13427151	8524	0	0	-100	0	230	101300000	1000	0	0	-1	0
13439711	8534	0	0	-100	0	230	101300000	1000	0	0	-1	0
13452271	8531	0	0	-100	0	230	101300000	1000	0	0	-1	0
13464831	8534	0	0	-100	0	230	101300000	1000	0	0	-1	0
13477391	8529	0	0	-100	0	230	101300000	1000	0	0	-1	0
13489951	8527	0	0	-100	0	230	101300000	1000	0	0	-1	0
13502511	8529	0	0	-100	0	230	101300000	1000	0	0	-1	0
13515071	8536	0	0	-100	0	230	101300000	1000	0	0	-1	0
13527631	8536	0	0	-100	0	230	101300000	1000	0	0	-1	0
13540191	8534	0	0	-100	0	230	101300000	1000	0	0	-1	0
13552751	8534	0	0	-100	0	230	101300000	1000	0	0	-1	0
13565311	8532	0	0	-100	0	230	101300000	1000	0	0	-1	0
13577871	8534	0	0	-100	0	230	101300000	1000	0	0	-1	0
13590431	8531	0	0	-100	0	230	101300000	1000	0	0	-1	0
13602991	8524	0	0	-100	0	230	101300000	1000	0	0	-1	0
13615551	8527	0	0	-100	0	230	101300000	1000	0	0	-1	0
13628111	8524	4	0	-100	0	230	101300000	1000	0	0	-1	0
13640671	8531	0	0	-100	0	230	101300000	1000	0	0	-1	0
13653231	8534	0	0	-100	0	230	101300000	1000	0	0	-1	0
13665791	8531	0	0	-100	0	230	101300000	1000	0	0	-1	0
13678351	8524	0	0	-100	0	230	101300000	1000	0	0	-1	0
13690911	8531	4	0	-100	0	230	101300000	1000	0	0	-1	0
13703471	8529	2	0	-100	0	230	101300000	1000	0	0	-1	0
13716031	8529	1	0	-100	0	230	101300000	1000	0	0	-1	0
13728591	8536	0	0	-100	0	230	101300000	1000	0	0	-1	0
13741151	8534	0	0	-100	0	230	101300000	1000	0	0	-1	0
13753711	8534	0	0	-100	0	230	101300000	1000	0	0	-1	0
13766271	8529	0	0	-100	0	230	101300000	1000	0	0	-1	0
13778831	8527	0	0	-100	0	230	101300000	1000	0	0	-1	0
13791391	8527	0	0	-100	0	230	101300000	1000	0	0	-1	0
13803951	8529	3	0	-100	0	230	101300000	1000	0	0	-1	0
13816511	8529	2	0	-100	0	230	101300000	1000	0	0	-1	0
13829071	8526	1	0	-100	0	230	101300000	1000	0	0	-1	0
13841631	8527	0	0	-100	0	230	101300000	1000	0	0	-1	0
13854191	8529	0	0	-100	0	230	101300000	1000	0	0	-1	0
13866751	8531	0	0	-100	0	230	101300000	1000	0	0	-1	0
13879311	8527	4	0	-100	0	230	101300000	1000	0	0	-1	0
13891871	8529	1	0	-100	0	230	101300000	1000	0	0	-1	0
13904431	8529	0	0	-100	0	230	101300000	1000	0	0	-1	0
13916991	8527	0	0	-100	0	230	101300000	1000	0	0	-1	0
13929551	8531	3	0	-100	0	230	101300000	1000	0	0	-1	0
13942111	8529	0	0	-100	0	230	101300000	1000	0	0	-1	0
13954671	8531	0	0	-100	0	230	101300000	1000	0	0	-1	0
13967231	8522	0	0	-100	0	230	101300000	1000	0	0	-1	0
13979791	8529	4	0	-100	0	230	101300000	1000	0	0	-1	0
13992351	8529	0	0	-100	0	230	101300000	1000	0	0	-1	0
14004911	8538	0	0	-100	0	230	101300000	1000	0	0	-1	0
14017471	8534	0	0	-100	0	230	101300000	1000	0	0	-1	0
14030031	8527	0	0	-100	0	230	101300000	1000	0	0	-1	0
14042591	8527	0	0	-100	0	230	101300000	1000	0	0	-1	0
14055151	8524	0	0	-100	0	230	101300000	1000	0	0	-1	0
14067711	8531	3	0	-100	0	230	101300000	1000	0	0	-1	0
14080271	8531	0	0	-100	0	230	101300000	1000	0	0	-1	0
14092831	8532	0	0	-100	0	230	101300000	1000	0	0	-1	0
14105391	8529	0	0	-100	0	230	101300000	1000	0	0	-1	0
14117951	8529	3	0	-100	0	230	101300000	1000	0	0	-1	0
14130511	8536	0	0	-100	0	230	101300000	1000	0	0	-1	0
14143071	8527	0	0	-100	0	230	101300000	1000	0	0	-1	0
14155631	8524	1	0	-100	0	230	101300000	1000	0	0	-1	0
14168191	8531	0	0	-100	0	230	101300000	1000	0	0	-1	0
14180751	8536	0	0	-100	0	230	101300000	1000	0	0	-1	0
14193311	8524	0	0	-100	0	230	101300000	1000	0	0	-1	0
14205871	8524	0	0	-100	0	230	101300000	1000	0	0	-1	0
14218431	8531	3	0	-100	0	230	101300000	1000	0	0	-1	0
14230991	8534	1	0	-100	0	230	101300000	1000	0	0	-1	0
14243551	8534	0	0	-100	0	230	101300000	1000	0	0	-1	0
14256111	8531	0	0	-100	0	230	101300000	1000	0	0	-1	0
14268671	8529	0	0	-100	0	230	101300000	1000	0	0	-1	0
14281231	8527	0	0	-100	0	230	101300000	1000	0	0	-1	0
14293791	8529	0	0	-100	0	230	101300000	1000	0	0	-1	0
14306351	8527	0	0	-100	0	230	101300000	1000	0	0	-1	0
14318911	8527	0	0	-100	0	230	101300000	1000	0	0	-1	0
14331471	8524	0	0	-100	0	230	101300000	1000	0	0	-1	0
14344031	8524	0	0	-100	0	230	101300000	1000	0	0	-1	0
14356591	8527	5	0	-100	0	230	101300000	1000	0	0	-1	0
14369151	8529	3	0	-100	0	230	101300000	1000	0	0	-1	0
14381711	8529	0	0	-100	0	230	101300000	1000	0	0	-1	0
14394271	8529	0	0	-100	0	230	101300000	1000	0	0	-1	0
14406831	8531	0	0	-100	0	230	101300000	1000	0	0	-1	0
14419391	8534	0	0	-100	0	230	101300000	1000	0	0	-1	0
14431951	8539	0	0	-100	0	230	101300000	1000	0	0	-1	0
14444511	8534	0	0	-100	0	230	101300000	1000	0	0	-1	0
14457071	8531	0	0	-100	0	230	101300000	1000	0	0	-1	0
14469631	8529	0	0	-100	0	230	101300000	1000	0	0	-1	0
14482191	8524	0	0	-100	0	230	101300000	1000	0	0	-1	0
14494751	8529	3	0	-100	0	230	101300000	1000	0	0	-1	0
14507311	8522	1	0	-100	0	230	101300000	1000	0	0	-1	0
14519871	8536	0	0	-100	0	230	101300000	1000	0	0	-1	0
14532431	8531	0	0	-100	0	230	101300000	1000	0	0	-1	0
14544991	8527	0	0	-100	0	230	101300000	1000	0	0	-1	0
14557551	8531	2	0	-100	0	230	101300000	1000	0	0	-1	0
14570111	8536	0	0	-100	0	230	101300000	1000	0	0	-1	0
14582671	8527	0	0	-100	0	230	101300000	1000	0	0	-1	0
14595231	8524	0	0	-100	0	230	101300000	1000	0	0	-1	0
14607791	8531	4	0	-100	0	230	101300000	1000	0	0	-1	0
14620351	8529	1	0	-100	0	230	101300000	1000	0	0	-1	0
14632911	8522	0	0	-100	0	230	101300000	1000	0	0	-1	0
14645471	8536	0	0	-100	0	230	101300000	1000	0	0	-1	0
14658031	8532	0	0	-100	0	230	101300000	1000	0	0	-1	0
14670591	8531	0	0	-100	0	230	101300000	1000	0	0	-1	0
14683151	8520	0	0	-100	0	230	101300000	1000	0	0	-1	0
14695711	8529	3	0	-100	0	230	101300000	1000	0	0	-1	0
14708271	8531	0	0	-100	0	230	101300000	1000	0	0	-1	0
14720831	8534	0	0	-100	0	230	101300000	1000	0	0	-1	0
14733391	8522	0	0	-100	0	230	101300000	1000	0	0	-1	0
14745951	8524	2	0	-100	0	230	101300000	1000	0	0	-1	0
14758511	8532	0	0	-100	0	230	101300000	1000	0	0	-1	0
14771071	8529	0	0	-100	0	230	101300000	1000	0	0	-1	0
14783631	8526	3	0	-100	0	230	101300000	1000	0	0	-1	0
14796191	8529	0	0	-100	0	230	101300000	1000	0	0	-1	0
14808751	8524	0	0	-100	0	230	101300000	1000	0	0	-1	0
14821311	8522	0	0	-100	0	230	101300000	1000	0	0	-1	0
14833871	8524	3	0	-100	0	230	101300000	1000	0	0	-1	0
14846431	8536	0	0	-100	0	230	101300000	1000	0	0	-1	0
14858991	8529	0	0	-100	0	230	101300000	1000	0	0	-1	0
14871551	8527	0	0	-100	0	230	101300000	1000	0	0	-1	0
14884111	8529	2	0	-100	0	230	101300000	1000	0	0	-1	0
14896671	8534	0	0	-100	0	230	101300000	1000	0	0	-1	0
14909231	8532	0	0	-100	0	230	101300000	1000	0	0	-1	0
14921791	8529	0	0	-100	0	230	101300000	1000	0	0	-1	0
14934351	8522	0	0	-100	0	230	101300000	1000	0	0	-1	0
14946911	8526	0	0	-100	0	230	101300000	1000	0	0	-1	0
14959471	8529	0	0	-100	0	230	101300000	1000	0	0	-1	0
14972031	8524	0	0	-100	0	230	101300000	1000	0	0	-1	0
14984591	8526	3	0	-100	0	230	101300000	1000	0	0	-1	0
14997151	8529	0	0	-100	0	230	101300000	1000	0	0	-1	0
15009711	8527	0	0	-100	0	230	101300000	1000	0	0	-1	0
15022271	8527	0	0	-100	0	230	101300000	1000	0	0	-1	0
15034831	8524	2	0	-100	0	230	101300000	1000	0	0	-1	0
15047391	8534	0	0	-100	0	230	101300000	1000	0	0	-1	0
15059951	8526	0	0	-100	0	230	101300000	1000	0	0	-1	0
15072511	8526	1	0	-100	0	230	101300000	1000	0	0	-1	0
15085071	8534	0	0	-100	0	230	101300000	1000	0	0	-1	0
15097631	8531	0	0	-100	0	230	101300000	1000	0	0	-1	0
15110191	8529	3	0	-100	0	230	101300000	1000	0	0	-1	0
15122751	8536	0	0	-100	0	230	101300000	1000	0	0	-1	0
15135311	8520	0	0	-100	0	230	101300000	1000	0	0	-1	0
15147871	8529	0	0	-100	0	230	101300000	1000	0	0	-1	0
15160431	8529	0	0	-100	0	230	101300000	1000	0	0	-1	0
15172991	8531	0	0	-100	0	230	101300000	1000	0	0	-1	0
15185551	8526	0	0	-100	0	230	101300000	1000	0	0	-1	0
15198111	8527	2	0	-100	0	230	101300000	1000	0	0	-1	0
15210671	8526	2	0	-100	0	230	101300000	1000	0	0	-1	0
15223231	8532	0	0	-100	0	230	101300000	1000	0	0	-1	0
15235791	8526	0	0	-100	0	230	101300000	1000	0	0	-1	0
15248351	8526	1	0	-100	0	230	101300000	1000	0	0	-1	0
15260911	8534	0	0	-100	0	230	101300000	1000	0	0	-1	0
15273471	8524	0	0	-100	0	230	101300000	1000	0	0	-1	0
15286031	8529	4	0	-100	0	230	101300000	1000	0	0	-1	0
15298591	8539	0	0	-100	0	230	101300000	1000	0	0	-1	0
15311151	8527	0	0	-100	0	230	101300000	1000	0	0	-1	0
15323711	8529	3	0	-100	0	230	101300000	1000	0	0	-1	0
15336271	8534	0	0	-100	0	230	101300000	1000	0	0	-1	0
15348831	8529	0	0	-100	0	230	101300000	1000	0	0	-1	0
15361391	8526	2	0	-100	0	230	101300000	1000	0	0	-1	0
15373951	8534	0	0	-100	0	230	101300000	1000	0	0	-1	0
15386511	8522	0	0	-100	0	230	101300000	1000	0	0	-1	0
15399071	8526	3	0	-100	0	230	101300000	1000	0	0	-1	0
15411631	8534	0	0	-100	0	230	101300000	1000	0	0	-1	0
15424191	8522	0	0	-100	0	230	101300000	1000	0	0	-1	0
15436751	8522	1	0	-100	0	230	101300000	1000	0	0	-1	0
15449311	8529	0	0	-100	0	230	101300000	1000	0	0	-1	0
15461871	8524	0	0	-100	0	230	101300000	1000	0	0	-1	0
15474431	8531	3	0	-100	0	230	101300000	1000	0	0	-1	0
15486991	8527	0	0	-100	0	230	101300000	1000	0	0	-1	0
15499551	8532	0	0	-100	0	230	101300000	1000	0	0	-1	0
15512111	8524	0	0	-100	0	230	101300000	1000	0	0	-1	0
15524671	8527	0	0	-100	0	230	101300000	1000	0	0	-1	0
15537231	8522	1	0	-100	0	230	101300000	1000	0	0	-1	0
15549791	8529	0	0	-100	0	230	101300000	1000	0	0	-1	0
15562351	8534	0	0	-100	0	230	101300000	1000	0	0	-1	0
15574911	8527	0	0	-100	0	230	101300000	1000	0	0	-1	0
15587471	8527	0	0	-100	0	230	101300000	1000	0	0	-1	0
15600031	8529	4	0	-100	0	230	101300000	1000	0	0	-1	0
15612591	8529	0	0	-100	0	230	101300000	1000	0	0	-1	0
15625151	8538	0	0	-100	0	230	101300000	1000	0	0	-1	0
15637711	8531	0	0	-100	0	230	101300000	1000	0	0	-1	0
15650271	8529	0	0	-100	0	230	101300000	1000	0	0	-1	0
15662831	8529	3	0	-100	0	230	101300000	1000	0	0	-1	0
15675391	8524	0	0	-100	0	230	101300000	1000	0	0	-1	0
15687951	8531	0	0	-100	0	230	101300000	1000	0	0	-1	0
15700511	8532	0	0	-100	0	230	101300000	1000	0	0	-1	0
15713071	8527	0	0	-100	0	230	101300000	1000	0	0	-1	0
15725631	8529	2	0	-100	0	230	101300000	1000	0	0	-1	0
15738191	8534	0	0	-100	0	230	101300000	1000	0	0	-1	0
15750751	8531	0	0	-100	0	230	101300000	1000	0	0	-1	0
15763311	8529	0	0	-100	0	230	101300000	1000	0	0	-1	0
15775871	8529	0	0	-100	0	230	101300000	1000	0	0	-1	0
15788431	8527	3	0	-100	0	230	101300000	1000	0	0	-1	0
15800991	8522	0	0	-100	0	230	101300000	1000	0	0	-1	0
15813551	8536	0	0	-100	0	230	101300000	1000	0	0	-1	0
15826111	8531	0	0	-100	0	230	101300000	1000	0	0	-1	0
15838671	8527	0	0	-100	0	230	101300000	1000	0	0	-1	0
15851231	8524	4	0	-100	0	230	101300000	1000	0	0	-1	0
15863791	8534	0	0	-100	0	230	101300000	1000	0	0	-1	0
15876351	8529	0	0	-100	0	230	101300000	1000	0	0	-1	0
15888911	8527	0	0	-100	0	230	101300000	1000	0	0	-1	0
15901471	8529	0	0	-100	0	230	101300000	1000	0	0	-1	0
15914031	8531	3	0	-100	0	230	101300000	1000	0	0	-1	0
15926591	8529	0	0	-100	0	230	101300000	1000	0	0	-1	0
15939151	8534	0	0	-100	0	230	101300000	1000	0	0	-1	0
15951711	8532	0	0	-100	0	230	101300000	1000	0	0	-1	0
15964271	8531	0	0	-100	0	230	101300000	1000	0	0	-1	0
15976831	8529	0	0	-100	0	230	101300000	1000	0	0	-1	0
15989391	8529	4	0	-100	0	230	101300000	1000	0	0	-1	0
16001951	8534	0	0	-100	0	230	101300000	1000	0	0	-1	0
16014511	8532	0	0	-100	0	230	101300000	1000	0	0	-1	0
16027071	8531	0	0	-100	0	230	101300000	1000	0	0	-1	0
16039631	8520	0	0	-100	0	230	101300000	1000	0	0	-1	0
16052191	8527	2	0	-100	0	230	101300000	1000	0	0	-1	0
16064751	8534	0	0	-100	0	230	101300000	1000	0	0	-1	0
16077311	8531	0	0	-100	0	230	101300000	1000	0	0	-1	0
16089871	8527	0	0	-100	0	230	101300000	1000	0	0	-1	0
16102431	8531	0	0	-100	0	230	101300000	1000	0	0	-1	0
16114991	8524	0	0	-100	0	230	101300000	1000	0	0	-1	0
16127551	8529	0	0	-100	0	230	101300000	1000	0	0	-1	0
16140111	8524	0	0	-100	0	230	101300000	1000	0	0	-1	0
16152671	8524	3	0	-100	0	230	101300000	1000	0	0	-1	0
16165231	8529	0	0	-100	0	230	101300000	1000	0	0	-1	0
16177791	8531	0	0	-100	0	230	101300000	1000	0	0	-1	0
16190351	8529	0	0	-100	0	230	101300000	1000	0	0	-1	0
16202911	8529	0	0	-100	0	230	101300000	1000	0	0	-1	0
16215471	8526	4	0	-100	0	230	101300000	1000	0	0	-1	0
16228031	8529	0	0	-100	0	230	101300000	1000	0	0	-1	0
16240591	8532	0	0	-100	0	230	101300000	1000	0	0	-1	0
16253151	8531	0	0	-100	0	230	101300000	1000	0	0	-1	0
16265711	8527	0	0	-100	0	230	101300000	1000	0	0	-1	0
16278271	8524	4	0	-100	0	230	101300000	1000	0	0	-1	0
16290831	8531	0	0	-100	0	230	101300000	1000	0	0	-1	0
16303391	8534	0	0	-100	0	230	101300000	1000	0	0	-1	0
16315951	8529	0	0	-100	0	230	101300000	1000	0	0	-1	0
16328511	8527	0	0	-100	0	230	101300000	1000	0	0	-1	0
16341071	8529	0	0	-100	0	230	101300000	1000	0	0	-1	0
16353631	8522	1	0	-100	0	230	101300000	1000	0	0	-1	0
16366191	8529	0	0	-100	0	230	101300000	1000	0	0	-1	0
16378751	8529	0	0	-100	0	230	101300000	1000	0	0	-1	0
16391311	8522	0	0	-100	0	230	101300000	1000	0	0	-1	0
16403871	8531	3	0	-100	0	230	101300000	1000	0	0	-1	0
16416431	8524	2	0	-100	0	230	101300000	1000	0	0	-1	0
16428991	8532	3	0	-100	0	230	101300000	1000	0	0	-1	0
16441551	8529	0	0	-100	0	230	101300000	1000	0	0	-1	0
16454111	8524	2	0	-100	0	230	101300000	1000	0	0	-1	0
16466671	8522	1	0	-100	0	230	101300000	1000	0	0	-1	0
16479231	8529	0	0	-100	0	230	101300000	1000	0	0	-1	0
16491791	8529	0	0	-100	0	230	101300000	1000	0	0	-1	0
16504351	8524	0	0	-100	0	230	101300000	1000	0	0	-1	0
16516911	8527	4	0	-100	0	230	101300000	1000	0	0	-1	0
16529471	8524	4	0	-100	0	230	101300000	1000	0	0	-1	0
16542031	8531	2	0	-100	0	230	101300000	1000	0	0	-1	0
16554591	8524	0	0	-100	0	230	101300000	1000	0	0	-1	0
16567151	8529	0	0	-100	0	230	101300000	1000	0	0	-1	0
16579711	8527	0	0	-100	0	230	101300000	1000	0	0	-1	0
16592271	8529	0	0	-100	0	230	101300000	1000	0	0	-1	0
16604831	8527	0	0	-100	0	230	101300000	1000	0	0	-1	0
16617391	8529	4	0	-100	0	230	101300000	1000	0	0	-1	0
16629951	8529	1	0	-100	0	230	101300000	1000	0	0	-1	0
16642511	8527	0	0	-100	0	230	101300000	1000	0	0	-1	0
16655071	8532	0	0	-100	0	230	101300000	1000	0	0	-1	0
16667631	8524	0	0	-100	0	230	101300000	1000	0	0	-1	0
16680191	8526	4	0	-100	0	230	101300000	1000	0	0	-1	0
16692751	8527	2	0	-100	0	230	101300000	1000	0	0	-1	0
16705311	8534	0	0	-100	0	230	101300000	1000	0	0	-1	0
16717871	8532	0	0	-100	0	230	101300000	1000	0	0	-1	0
16730431	8531	0	0	-100	0	230	101300000	1000	0	0	-1	0
16742991	8529	0	0	-100	0	230	101300000	1000	0	0	-1	0
16755551	8527	0	0	-100	0	230	101300000	1000	0	0	-1	0
16768111	8531	4	0	-100	0	230	101300000	1000	0	0	-1	0
16780671	8531	0	0	-100	0	230	101300000	1000	0	0	-1	0
16793231	8532	0	0	-100	0	230	101300000	1000	0	0	-1	0
16805791	8527	0	0	-100	0	230	101300000	1000	0	0	-1	0
16818351	8527	0	0	-100	0	230	101300000	1000	0	0	-1	0
16830911	8524	0	0	-100	0	230	101300000	1000	0	0	-1	0
16843471	8529	3	0	-100	0	230	101300000	1000	0	0	-1	0
16856031	8529	1	0	-100	0	230	101300000	1000	0	0	-1	0
16868591	8531	0	0	-100	0	230	101300000	1000	0	0	-1	0
16881151	8536	0	0	-100	0	230	101300000	1000	0	0	-1	0
16893711	8531	0	0	-100	0	230	101300000	1000	0	0	-1	0
16906271	8529	0	0	-100	0	230	101300000	1000	0	0	-1	0
16918831	8524	0	0	-100	0	230	101300000	1000	0	0	-1	0
16931391	8524	0	0	-100	0	230	101300000	1000	0	0	-1	0
16943951	8522	0	0	-100	0	230	101300000	1000	0	0	-1	0
16956511	8527	3	0	-100	0	230	101300000	1000	0	0	-1	0
16969071	8527	4	0	-100	0	230	101300000	1000	0	0	-1	0
16981631	8536	0	0	-100	0	230	101300000	1000	0	0	-1	0
16994191	8532	0	0	-100	0	230	101300000	1000	0	0	-1	0
17006751	8529	0	0	-100	0	230	101300000	1000	0	0	-1	0
17019311	8527	3	0	-100	0	230	101300000	1000	0	0	-1	0
17031871	8522	2	0	-100	0	230	101300000	1000	0	0	-1	0
17044431	8534	0	0	-100	0	230	101300000	1000	0	0	-1	0
17056991	8534	2	0	-100	0	230	101300000	1000	0	0	-1	0
17069551	8534	0	0	-100	0	230	101300000	1000	0	0	-1	0
17082111	8524	0	0	-100	0	230	101300000	1000	0	0	-1	0
17094671	8529	1	0	-100	0	230	101300000	1000	0	0	-1	0
17107231	8529	2	0	-100	0	230	101300000	1000	0	0	-1	0
17119791	8529	1	0	-100	0	230	101300000	1000	0	0	-1	0
17132351	8541	0	0	-100	0	230	101300000	1000	0	0	-1	0
17144911	8534	0	0	-100	0	230	101300000	1000	0	0	-1	0
17157471	8531	0	0	-100	0	230	101300000	1000	0	0	-1	0
17170031	8527	0	0	-100	0	230	101300000	1000	0	0	-1	0
17182591	8524	4	0	-100	0	230	101300000	1000	0	0	-1	0
17195151	8524	0	0	-100	0	230	101300000	1000	0	0	-1	0
17207711	8534	0	0	-100	0	230	101300000	1000	0	0	-1	0
17220271	8529	0	0	-100	0	230	101300000	1000	0	0	-1	0
17232831	8524	0	0	-100	0	230	101300000	1000	0	0	-1	0
17245391	8529	0	0	-100	0	230	101300000	1000	0	0	-1	0
17257951	8522	0	0	-100	0	230	101300000	1000	0	0	-1	0
17270511	8531	2	0	-100	0	230	101300000	1000	0	0	-1	0
17283071	8524	1	0	-100	0	230	101300000	1000	0	0	-1	0
17295631	8524	0	0	-100	0	230	101300000	1000	0	0	-1	0
17308191	8531	0	0	-100	0	230	101300000	1000	0	0	-1	0
17320751	8529	0	0	-100	0	230	101300000	1000	0	0	-1	0
17333311	8531	0	0	-100	0	230	101300000	1000	0	0	-1	0
17345871	8527	0	0	-100	0	230	101300000	1000	0	0	-1	0
17358431	8529	2	0	-100	0	230	101300000	1000	0	0	-1	0
17370991	8526	0	0	-100	0	230	101300000	1000	0	0	-1	0
17383551	8531	0	0	-100	0	230	101300000	1000	0	0	-1	0
17396111	8531	0	0	-100	0	230	101300000	1000	0	0	-1	0
17408671	8522	0	0	-100	0	230	101300000	1000	0	0	-1	0
17421231	8524	4	0	-100	0	230	101300000	1000	0	0	-1	0
17433791	8529	0	0	-100	0	230	101300000	1000	0	0	-1	0
17446351	8532	0	0	-100	0	230	101300000	1000	0	0	-1	0
17458911	8529	0	0	-100	0	230	101300000	1000	0	0	-1	0
17471471	8524	0	0	-100	0	230	101300000	1000	0	0	-1	0
17484031	8522	0	0	-100	0	230	101300000	1000	0	0	-1	0
17496591	8527	5	0	-100	0	230	101300000	1000	0	0	-1	0
17509151	8524	2	0	-100	0	230	101300000	1000	0	0	-1	0
17521711	8526	0	0	-100	0	230	101300000	1000	0	0	-1	0
17534271	8529	0	0	-100	0	230	101300000	1000	0	0	-1	0
17546831	8534	0	0	-100	0	230	101300000	1000	0	0	-1	0
17559391	8529	0	0	-100	0	230	101300000	1000	0	0	-1	0
17571951	8531	0	0	-100	0	230	101300000	1000	0	0	-1	0
17584511	8522	0	0	-100	0	230	101300000	1000	0	0	-1	0
17597071	8529	3	0	-100	0	230	101300000	1000	0	0	-1	0
17609631	8524	2	0	-100	0	230	101300000	1000	0	0	-1	0
17622191	8534	0	0	-100	0	230	101300000	1000	0	0	-1	0
17634751	8536	0	0	-100	0	230	101300000	1000	0	0	-1	0
17647311	8534	0	0	-100	0	230	101300000	1000	0	0	-1	0
17659871	8527	0	0	-100	0	230	101300000	1000	0	0	-1	0
17672431	8527	0	0	-100	0	230	101300000	1000	0	0	-1	0
17684991	8522	0	0	-100	0	230	101300000	1000	0	0	-1	0
17697551	8524	3	0	-100	0	230	101300000	1000	0	0	-1	0
17710111	8526	1	0	-100	0	230	101300000	1000	0	0	-1	0
17722671	8536	0	0	-100	0	230	101300000	1000	0	0	-1	0
17735231	8529	0	0	-100	0	230	101300000	1000	0	0	-1	0
17747791	8534	0	0	-100	0	230	101300000	1000	0	0	-1	0
17760351	8529	0	0	-100	0	230	101300000	1000	0	0	-1	0
17772911	8531	0	0	-100	0	230	101300000	1000	0	0	-1	0
17785471	8529	0	0	-100	0	230	101300000	1000	0	0	-1	0
17798031	8532	0	0	-100	0	230	101300000	1000	0	0	-1	0
17810591	8534	0	0	-100	0	230	101300000	1000	0	0	-1	0
17823151	8529	0	0	-100	0	230	101300000	1000	0	0	-1	0
17835711	8529	0	0	-100	0	230	101300000	1000	0	0	-1	0
17848271	8531	0	0	-100	0	230	101300000	1000	0	0	-1	0
17860831	8529	0	0	-100	0	230	101300000	1000	0	0	-1	0
17873391	8524	0	0	-100	0	230	101300000	1000	0	0	-1	0
17885951	8534	2	0	-100	0	230	101300000	1000	0	0	-1	0
17898511	8526	3	0	-100	0	230	101300000	1000	0	0	-1	0
17911071	8526	2	0	-100	0	230	101300000	1000	0	0	-1	0
17923631	8522	2	0	-100	0	230	101300000	1000	0	0	-1	0
17936191	8529	2	0	-100	0	230	101300000	1000	0	0	-1	0
17948751	8526	4	0	-100	0	230	101300000	1000	0	0	-1	0
17961311	8524	2	0	-100	0	230	101300000	1000	0	0	-1	0
17973871	8526	1	0	-100	0	230	101300000	1000	0	0	-1	0
17986431	8529	2	0	-100	0	230	101300000	1000	0	0	-1	0
17998991	8524	0	0	-100	0	230	101300000	1000	0	0	-1	0
18011551	8531	3	0	-100	0	230	101300000	1000	0	0	-1	0
18024111	8529	1	0	-100	0	230	101300000	1000	0	0	-1	0
18036671	8529	0	0	-100	0	230	101300000	1000	0	0	-1	0
18049231	8534	0	0	-100	0	230	101300000	1000	0	0	-1	0
18061791	8536	0	0	-100	0	230	101300000	1000	0	0	-1	0
18074351	8536	0	0	-100	0	230	101300000	1000	0	0	-1	0
18086911	8534	0	0	-100	0	230	101300000	1000	0	0	-1	0
18099471	8529	0	0	-100	0	230	101300000	1000	0	0	-1	0
18112031	8529	0	0	-100	0	230	101300000	1000	0	0	-1	0
18124591	8534	0	0	-100	0	230	101300000	1000	0	0	-1	0
18137151	8529	0	0	-100	0	230	101300000	1000	0	0	-1	0
18149711	8524	0	0	-100	0	230	101300000	1000	0	0	-1	0
18162271	8529	0	0	-100	0	230	101300000	1000	0	0	-1	0
18174831	8524	0	0	-100	0	230	101300000	1000	0	0	-1	0
18187391	8529	4	0	-100	0	230	101300000	1000	0	0	-1	0
18199951	8527	3	0	-100	0	230	101300000	1000	0	0	-1	0
18212511	8531	1	0	-100	0	230	101300000	1000	0	0	-1	0
18225071	8529	1	0	-100	0	230	101300000	1000	0	0	-1	0
18237631	8534	0	0	-100	0	230	101300000	1000	0	0	-1	0
18250191	8534	0	0	-100	0	230	101300000	1000	0	0	-1	0
18262751	8527	0	0	-100	0	230	101300000	1000	0	0	-1	0
18275311	8524	0	0	-100	0	230	101300000	1000	0	0	-1	0
18287871	8524	4	0	-100	0	230	101300000	1000	0	0	-1	0
18300431	8531	0	0	-100	0	230	101300000	1000	0	0	-1	0
18312991	8534	1	0	-100	0	230	101300000	1000	0	0	-1	0
18325551	8534	0	0	-100	0	230	101300000	1000	0	0	-1	0
18338111	8527	0	0	-100	0	230	101300000	1000	0	0	-1	0
18350671	8524	0	0	-100	0	230	101300000	1000	0	0	-1	0
18363231	8527	0	0	-100	0	230	101300000	1000	0	0	-1	0
18375791	8529	3	0	-100	0	230	101300000	1000	0	0	-1	0
18388351	8524	0	0	-100	0	230	101300000	1000	0	0	-1	0
18400911	8531	0	0	-100	0	230	101300000	1000	0	0	-1	0
18413471	8536	0	0	-100	0	230	101300000	1000	0	0	-1	0
18426031	8532	0	0	-100	0	230	101300000	1000	0	0	-1	0
18438591	8532	0	0	-100	0	230	101300000	1000	0	0	-1	0
18451151	8534	0	0	-100	0	230	101300000	1000	0	0	-1	0
18463711	8531	0	0	-100	0	230	101300000	1000	0	0	-1	0
18476271	8524	0	0	-100	0	230	101300000	1000	0	0	-1	0
18488831	8520	0	0	-100	0	230	101300000	1000	0	0	-1	0
18501391	8531	4	0	-100	0	230	101300000	1000	0	0	-1	0
18513951	8526	1	0	-100	0	230	101300000	1000	0	0	-1	0
18526511	8531	0	0	-100	0	230	101300000	1000	0	0	-1	0
18539071	8534	0	0	-100	0	230	101300000	1000	0	0	-1	0
18551631	8529	0	0	-100	0	230	101300000	1000	0	0	-1	0
18564191	8529	0	0	-100	0	230	101300000	1000	0	0	-1	0
18576751	8529	0	0	-100	0	230	101300000	1000	0	0	-1	0
18589311	8529	0	0	-100	0	230	101300000	1000	0	0	-1	0
18601871	8527	0	0	-100	0	230	101300000	1000	0	0	-1	0
18614431	8529	0	0	-100	0	230	101300000	1000	0	0	-1	0
18626991	8529	0	0	-100	0	230	101300000	1000	0	0	-1	0
18639551	8524	0	0	-100	0	230	101300000	1000	0	0	-1	0
18652111	8526	4	0	-100	0	230	101300000	1000	0	0	-1	0
18664671	8526	1	0	-100	0	230	101300000	1000	0	0	-1	0
18677231	8529	0	0	-100	0	230	101300000	1000	0	0	-1	0
18689791	8536	0	0	-100	0	230	101300000	1000	0	0	-1	0
18702351	8536	0	0	-100	0	230	101300000	1000	0	0	-1	0
18714911	8534	0	0	-100	0	230	101300000	1000	0	0	-1	0
18727471	8536	0	0	-100	0	230	101300000	1000	0	0	-1	0
18740031	8531	0	0	-100	0	230	101300000	1000	0	0	-1	0
18752591	8531	0	0	-100	0	230	101300000	1000	0	0	-1	0
18765151	8527	0	0	-100	0	230	101300000	1000	0	0	-1	0
18777711	8524	0	0	-100	0	230	101300000	1000	0	0	-1	0
18790271	8524	1	0	-100	0	230	101300000	1000	0	0	-1	0
18802831	8526	0	0	-100	0	230	101300000	1000	0	0	-1	0
18815391	8536	0	0	-100	0	230	101300000	1000	0	0	-1	0
18827951	8534	0	0	-100	0	230	101300000	1000	0	0	-1	0
18840511	8534	0	0	-100	0	230	101300000	1000	0	0	-1	0
18853071	8529	0	0	-100	0	230	101300000	1000	0	0	-1	0
18865631	8529	0	0	-100	0	230	101300000	1000	0	0	-1	0
18878191	8522	0	0	-100	0	230	101300000	1000	0	0	-1	0
18890751	8529	3	0	-100	0	230	101300000	1000	0	0	-1	0
18903311	8529	0	0	-100	0	230	101300000	1000	0	0	-1	0
18915871	8529	0	0	-100	0	230	101300000	1000	0	0	-1	0
18928431	8524	0	0	-100	0	230	101300000	1000	0	0	-1	0
18940991	8531	0	0	-100	0	230	101300000	1000	0	0	-1	0
18953551	8524	0	0	-100	0	230	101300000	1000	0	0	-1	0
18966111	8534	0	0	-100	0	230	101300000	1000	0	0	-1	0
18978671	8529	0	0	-100	0	230	101300000	1000	0	0	-1	0
18991231	8520	1	0	-100	0	230	101300000	1000	0	0	-1	0
19003791	8529	0	0	-100	0	230	101300000	1000	0	0	-1	0
19016351	8534	0	0	-100	0	230	101300000	1000	0	0	-1	0
19028911	8529	0	0	-100	0	230	101300000	1000	0	0	-1	0
19041471	8522	0	0	-100	0	230	101300000	1000	0	0	-1	0
19054031	8524	1	0	-100	0	230	101300000	1000	0	0	-1	0
19066591	8526	2	0	-100	0	230	101300000	1000	0	0	-1	0
19079151	8524	0	0	-100	0	230	101300000	1000	0	0	-1	0
19091711	8532	0	0	-100	0	230	101300000	1000	0	0	-1	0
19104271	8531	0	0	-100	0	230	101300000	1000	0	0	-1	0
19116831	8529	0	0	-100	0	230	101300000	1000	0	0	-1	0
19129391	8522	0	0	-100	0	230	101300000	1000	0	0	-1	0
19141951	8527	4	0	-100	0	230	101300000	1000	0	0	-1	0
19154511	8529	0	0	-100	0	230	101300000	1000	0	0	-1	0
19167071	8529	0	0	-100	0	230	101300000	1000	0	0	-1	0
19179631	8534	0	0	-100	0	230	101300000	1000	0	0	-1	0
19192191	8534	0	0	-100	0	230	101300000	1000	0	0	-1	0
19204751	8522	0	0	-100	0	230	101300000	1000	0	0	-1	0
19217311	8524	0	0	-100	0	230	101300000	1000	0	0	-1	0
19229871	8529	0	0	-100	0	230	101300000	1000	0	0	-1	0
19242431	8524	0	0	-100	0	230	101300000	1000	0	0	-1	0
19254991	8527	0	0	-100	0	230	101300000	1000	0	0	-1	0
19267551	8527	3	0	-100	0	230	101300000	1000	0	0	-1	0
19280111	8527	0	0	-100	0	230	101300000	1000	0	0	-1	0
19292671	8532	0	0	-100	0	230	101300000	1000	0	0	-1	0
19305231	8524	0	0	-100	0	230	101300000	1000	0	0	-1	0
19317791	8524	4	0	-100	0	230	101300000	1000	0	0	-1	0
19330351	8536	0	0	-100	0	230	101300000	1000	0	0	-1	0
19342911	8531	0	0	-100	0	230	101300000	1000	0	0	-1	0
19355471	8527	1	0	-100	0	230	101300000	1000	0	0	-1	0
19368031	8531	0	0	-100	0	230	101300000	1000	0	0	-1	0
19380591	8529	0	0	-100	0	230	101300000	1000	0	0	-1	0
19393151	8527	0	0	-100	0	230	101300000	1000	0	0	-1	0
19405711	8522	0	0	-100	0	230	101300000	1000	0	0	-1	0
19418271	8527	0	0	-100	0	230	101300000	1000	0	0	-1	0
19430831	8527	4	0	-100	0	230	101300000	1000	0	0	-1	0
19443391	8522	2	0	-100	0	230	101300000	1000	0	0	-1	0
19455951	8526	1	0	-100	0	230	101300000	1000	0	0	-1	0
19468511	8529	0	0	-100	0	230	101300000	1000	0	0	-1	0
19481071	8536	0	0	-100	0	230	101300000	1000	0	0	-1	0
19493631	8534	0	0	-100	0	230	101300000	1000	0	0	-1	0
19506191	8531	0	0	-100	0	230	101300000	1000	0	0	-1	0
19518751	8522	0	0	-100	0	230	101300000	1000	0	0	-1	0
19531311	8526	4	0	-100	0	230	101300000	1000	0	0	-1	0
19543871	8529	0	0	-100	0	230	101300000	1000	0	0	-1	0
19556431	8539	0	0	-100	0	230	101300000	1000	0	0	-1	0
19568991	8527	0	0	-100	0	230	101300000	1000	0	0	-1	0
19581551	8527	0	0	-100	0	230	101300000	1000	0	0	-1	0
19594111	8526	2	0	-100	0	230	101300000	1000	0	0	-1	0
19606671	8526	2	0	-100	0	230	101300000	1000	0	0	-1	0
19619231	8524	2	0	-100	0	230	101300000	1000	0	0	-1	0
19631791	8531	0	0	-100	0	230	101300000	1000	0	0	-1	0
19644351	8526	1	0	-100	0	230	101300000	1000	0	0	-1	0
19656911	8527	5	0	-100	0	230	101300000	1000	0	0	-1	0
19669471	8524	4	0	-100	0	230	101300000	1000	0	0	-1	0
19682031	8524	3	0	-100	0	230	101300000	1000	0	0	-1	0
19694591	8527	0	0	-100	0	230	101300000	1000	0	0	-1	0
19707151	8527	0	0	-100	0	230	101300000	1000	0	0	-1	0
19719711	8532	0	0	-100	0	230	101300000	1000	0	0	-1	0
19732271	8534	0	0	-100	0	230	101300000	1000	0	0	-1	0
19744831	8524	0	0	-100	0	230	101300000	1000	0	0	-1	0
19757391	8534	0	0	-100	0	230	101300000	1000	0	0	-1	0
19769951	8531	0	0	-100	0	230	101300000	1000	0	0	-1	0
19782511	8541	0	0	-100	0	230	101300000	1000	0	0	-1	0
19820191	8529	0	0	-100	0	230	101300000	1000	0	0	-1	0
19832751	8531	2	0	-100	0	230	101300000	1000	0	0	-1	0
19845311	8524	1	0	-100	0	230	101300000	1000	0	0	-1	0
19857871	8531	1	0	-100	0	230	101300000	1000	0	0	-1	0
19870431	8526	2	0	-100	0	230	101300000	1000	0	0	-1	0
19882991	8527	0	0	-100	0	230	101300000	1000	0	0	-1	0
19895551	8529	4	0	-100	0	230	101300000	1000	0	0	-1	0
19908111	8526	4	0	-100	0	230	101300000	1000	0	0	-1	0
19920671	8526	3	0	-100	0	230	101300000	1000	0	0	-1	0
19933231	8531	2	0	-100	0	230	101300000	1000	0	0	-1	0
19945791	8527	0	0	-100	0	230	101300000	1000	0	0	-1	0
19958351	8531	0	0	-100	0	230	101300000	1000	0	0	-1	0
19970911	8536	0	0	-100	0	230	101300000	1000	0	0	-1	0
19983471	8534	0	0	-100	0	230	101300000	1000	0	0	-1	0
19996031	8536	0	0	-100	0	230	101300000	1000	0	0	-1	0
20008591	8534	0	0	-100	0	230	101300000	1000	0	0	-1	0
20021151	8529	0	0	-100	0	230	101300000	1000	0	0	-1	0
20033711	8531	0	0	-100	0	230	101300000	1000	0	0	-1	0
20046271	8529	0	0	-100	0	230	101300000	1000	0	0	-1	0
20058831	8529	0	0	-100	0	230	101300000	1000	0	0	-1	0
20071391	8529	0	0	-100	0	230	101300000	1000	0	0	-1	0
20083951	8529	0	0	-100	0	230	101300000	1000	0	0	-1	0
20096511	8527	0	0	-100	0	230	101300000	1000	0	0	-1	0
20109071	8529	5	0	-100	0	230	101300000	1000	0	0	-1	0
20121631	8526	1	0	-100	0	230	101300000	1000	0	0	-1	0
20134191	8524	3	0	-100	0	230	101300000	1000	0	0	-1	0
20146751	8529	3	0	-100	0	230	101300000	1000	0	0	-1	0
20159311	8526	0	0	-100	0	230	101300000	1000	0	0	-1	0
20171871	8529	1	0	-100	0	230	101300000	1000	0	0	-1	0
20184431	8536	0	0	-100	0	230	101300000	1000	0	0	-1	0
20196991	8532	0	0	-100	0	230	101300000	1000	0	0	-1	0
20209551	8527	0	0	-100	0	230	101300000	1000	0	0	-1	0
20222111	8527	0	0	-100	0	230	101300000	1000	0	0	-1	0
20234671	8529	0	0	-100	0	230	101300000	1000	0	0	-1	0
20247231	8531	0	0	-100	0	230	101300000	1000	0	0	-1	0
20259791	8529	0	0	-100	0	230	101300000	1000	0	0	-1	0
20272351	8529	0	0	-100	0	230	101300000	1000	0	0	-1	0
20284911	8527	0	0	-100	0	230	101300000	1000	0	0	-1	0
20297471	8529	0	0	-100	0	230	101300000	1000	0	0	-1	0
20310031	8527	0	0	-100	0	230	101300000	1000	0	0	-1	0
20322591	8529	0	0	-100	0	230	101300000	1000	0	0	-1	0
20335151	8527	0	0	-100	0	230	101300000	1000	0	0	-1	0
20347711	8527	0	0	-100	0	230	101300000	1000	0	0	-1	0
20360271	8534	0	0	-100	0	230	101300000	1000	0	0	-1	0
20372831	8531	0	0	-100	0	230	101300000	1000	0	0	-1	0
20385391	8529	0	0	-100	0	230	101300000	1000	0	0	-1	0
20397951	8529	0	0	-100	0	230	101300000	1000	0	0	-1	0
20410511	8527	0	0	-100	0	230	101300000	1000	0	0	-1	0
20423071	8529	2	0	-100	0	230	101300000	1000	0	0	-1	0
20435631	8531	3	0	-100	0	230	101300000	1000	0	0	-1	0
20448191	8522	0	0	-100	0	230	101300000	1000	0	0	-1	0
20460751	8531	0	0	-100	0	230	101300000	1000	0	0	-1	0
20473311	8531	0	0	-100	0	230	101300000	1000	0	0	-1	0
20485871	8529	0	0	-100	0	230	101300000	1000	0	0	-1	0
20498431	8532	0	0	-100	0	230	101300000	1000	0	0	-1	0
20510991	8534	1	0	-100	0	230	101300000	1000	0	0	-1	0
20523551	8529	0	0	-100	0	230	101300000	1000	0	0	-1	0
20536111	8531	0	0	-100	0	230	101300000	1000	0	0	-1	0
20548671	8529	0	0	-100	0	230	101300000	1000	0	0	-1	0
20561231	8531	0	0	-100	0	230	101300000	1000	0	0	-1	0
20573791	8524	0	0	-100	0	230	101300000	1000	0	0	-1	0
20586351	8524	0	0	-100	0	230	101300000	1000	0	0	-1	0
20598911	8524	0	0	-100	0	230	101300000	1000	0	0	-1	0
20611471	8524	0	0	-100	0	230	101300000	1000	0	0	-1	0
20624031	8527	0	0	-100	0	230	101300000	1000	0	0	-1	0
20636591	8529	0	0	-100	0	230	101300000	1000	0	0	-1	0
20649151	8522	0	0	-100	0	230	101300000	1000	0	0	-1	0
20661711	8527	0	0	-100	0	230	101300000	1000	0	0	-1	0
20674271	8527	0	0	-100	0	230	101300000	1000	0	0	-1	0
20686831	8527	0	0	-100	0	230	101300000	1000	0	0	-1	0
20699391	8529	0	0	-100	0	230	101300000	1000	0	0	-1	0
20711951	8529	0	0	-100	0	230	101300000	1000	0	0	-1	0
20724511	8524	0	0	-100	0	230	101300000	1000	0	0	-1	0
20737071	8534	0	0	-100	0	230	101300000	1000	0	0	-1	0
20749631	8536	0	0	-100	0	230	101300000	1000	0	0	-1	0
20762191	8534	0	0	-100	0	230	101300000	1000	0	0	-1	0
20774751	8529	0	0	-100	0	230	101300000	1000	0	0	-1	0
20787311	8529	0	0	-100	0	230	101300000	1000	0	0	-1	0
20799871	8529	0	0	-100	0	230	101300000	1000	0	0	-1	0
20812431	8527	0	0	-100	0	230	101300000	1000	0	0	-1	0
20824991	8524	0	0	-100	0	230	101300000	1000	0	0	-1	0
20837551	8529	0	0	-100	0	230	101300000	1000	0	0	-1	0
20850111	8529	0	0	-100	0	230	101300000	1000	0	0	-1	0
20862671	8527	0	0	-100	0	230	101300000	1000	0	0	-1	0
20875231	8531	0	0	-100	0	230	101300000	1000	0	0	-1	0
20887791	8524	0	0	-100	0	230	101300000	1000	0	0	-1	0
20900351	8524	0	0	-100	0	230	101300000	1000	0	0	-1	0
20912911	8534	0	0	-100	0	230	101300000	1000	0	0	-1	0
20925471	8527	0	0	-100	0	230	101300000	1000	0	0	-1	0
20938031	8524	0	0	-100	0	230	101300000	1000	0	0	-1	0
20950591	8524	0	0	-100	0	230	101300000	1000	0	0	-1	0
20963151	8526	0	0	-100	0	230	101300000	1000	0	0	-1	0
20975711	8526	0	0	-100	0	230	101300000	1000	0	0	-1	0
20988271	8524	0	0	-100	0	230	101300000	1000	0	0	-1	0
21000831	8524	0	0	-100	0	230	101300000	1000	0	0	-1	0
21013391	8524	0	0	-100	0	230	101300000	1000	0	0	-1	0
21025951	8531	1	0	-100	0	230	101300000	1000	0	0	-1	0
21038511	8520	0	0	-100	0	230	101300000	1000	0	0	-1	0
21051071	8522	0	0	-100	0	230	101300000	1000	0	0	-1	0
21063631	8524	0	0	-100	0	230	101300000	1000	0	0	-1	0
21076191	8522	0	0	-100	0	230	101300000	1000	0	0	-1	0
21088751	8520	0	0	-100	0	230	101300000	1000	0	0	-1	0
21101311	8524	4	0	-100	0	230	101300000	1000	0	0	-1	0
21113871	8524	3	0	-100	0	230	101300000	1000	0	0	-1	0
21126431	8524	2	0	-100	0	230	101300000	1000	0	0	-1	0
21138991	8526	0	0	-100	0	230	101300000	1000	0	0	-1	0
21151551	8526	2	0	-100	0	230	101300000	1000	0	0	-1	0
21164111	8534	0	0	-100	0	230	101300000	1000	0	0	-1	0
21176671	8534	0	0	-100	0	230	101300000	1000	0	0	-1	0
21189231	8529	0	0	-100	0	230	101300000	1000	0	0	-1	0
21201791	8527	0	0	-100	0	230	101300000	1000	0	0	-1	0
21214351	8527	0	0	-100	0	230	101300000	1000	0	0	-1	0
21226911	8524	3	0	-100	0	230	101300000	1000	0	0	-1	0
21239471	8531	0	0	-100	0	230	101300000	1000	0	0	-1	0
21252031	8536	0	0	-100	0	230	101300000	1000	0	0	-1	0
21264591	8531	0	0	-100	0	230	101300000	1000	0	0	-1	0
21277151	8527	0	0	-100	0	230	101300000	1000	0	0	-1	0
21289711	8529	1	0	-100	0	230	101300000	1000	0	0	-1	0
21302271	8527	0	0	-100	0	230	101300000	1000	0	0	-1	0
21314831	8524	0	0	-100	0	230	101300000	1000	0	0	-1	0
21327391	8524	4	0	-100	0	230	101300000	1000	0	0	-1	0
21339951	8524	2	0	-100	0	230	101300000	1000	0	0	-1	0
21352511	8534	0	0	-100	0	230	101300000	1000	0	0	-1	0
21365071	8529	0	0	-100	0	230	101300000	1000	0	0	-1	0
21377631	8524	0	0	-100	0	230	101300000	1000	0	0	-1	0
21390191	8524	4	0	-100	0	230	101300000	1000	0	0	-1	0
21402751	8529	2	0	-100	0	230	101300000	1000	0	0	-1	0
21415311	8524	2	0	-100	0	230	101300000	1000	0	0	-1	0
21427871	8531	0	0	-100	0	230	101300000	1000	0	0	-1	0
21440431	8536	0	0	-100	0	230	101300000	1000	0	0	-1	0
21452991	8527	0	0	-100	0	230	101300000	1000	0	0	-1	0
21465551	8524	0	0	-100	0	230	101300000	1000	0	0	-1	0
21478111	8526	4	0	-100	0	230	101300000	1000	0	0	-1	0
21490671	8529	0	0	-100	0	230	101300000	1000	0	0	-1	0
21503231	8536	0	0	-100	0	230	101300000	1000	0	0	-1	0
21515791	8524	0	0	-100	0	230	101300000	1000	0	0	-1	0
21528351	8524	5	0	-100	0	230	101300000	1000	0	0	-1	0
21540911	8524	0	0	-100	0	230	101300000	1000	0	0	-1	0
21553471	8531	0	0	-100	0	230	101300000	1000	0	0	-1	0
21566031	8524	0	0	-100	0	230	101300000	1000	0	0	-1	0
21578591	8529	1	0	-100	0	230	101300000	1000	0	0	-1	0
21591151	8534	0	0	-100	0	230	101300000	1000	0	0	-1	0
21603711	8527	0	0	-100	0	230	101300000	1000	0	0	-1	0
21616271	8522	4	0	-100	0	230	101300000	1000	0	0	-1	0
21628831	8532	0	0	-100	0	230	101300000	1000	0	0	-1	0
21641391	8529	0	0	-100	0	230	101300000	1000	0	0	-1	0
21653951	8526	4	0	-100	0	230	101300000	1000	0	0	-1	0
21666511	8534	0	0	-100	0	230	101300000	1000	0	0	-1	0
21679071	8529	0	0	-100	0	230	101300000	1000	0	0	-1	0
21691631	8527	0	0	-100	0	230	101300000	1000	0	0	-1	0
21704191	8531	0	0	-100	0	230	101300000	1000	0	0	-1	0
21716751	8525	0	0	-100	0	230	101300000	1000	0	0	-1	0
21729311	8524	6	0	-100	0	230	101300000	1000	0	0	-1	0
21741871	8536	0	0	-100	0	230	101300000	1000	0	0	-1	0
21754431	8527	0	0	-100	0	230	101300000	1000	0	0	-1	0
21766991	8529	0	0	-100	0	230	101300000	1000	0	0	-1	0
21779551	8524	0	0	-100	0	230	101300000	1000	0	0	-1	0
21792111	8531	0	0	-100	0	230	101300000	1000	0	0	-1	0
21804671	8520	0	0	-100	0	230	101300000	1000	0	0	-1	0
21817231	8529	3	0	-100	0	230	101300000	1000	0	0	-1	0
21829791	8529	0	0	-100	0	230	101300000	1000	0	0	-1	0
21842351	8534	0	0	-100	0	230	101300000	1000	0	0	-1	0
21854911	8524	0	0	-100	0	230	101300000	1000	0	0	-1	0
21867471	8524	2	0	-100	0	230	101300000	1000	0	0	-1	0
21880031	8529	0	0	-100	0	230	101300000	1000	0	0	-1	0
21892591	8529	0	0	-100	0	230	101300000	1000	0	0	-1	0
21905151	8524	0	0	-100	0	230	101300000	1000	0	0	-1	0
21917711	8524	4	0	-100	0	230	101300000	1000	0	0	-1	0
21930271	8529	0	0	-100	0	230	101300000	1000	0	0	-1	0
21942831	8529	0	0	-100	0	230	101300000	1000	0	0	-1	0
21955391	8531	0	0	-100	0	230	101300000	1000	0	0	-1	0
21967951	8522	0	0	-100	0	230	101300000	1000	0	0	-1	0
21980511	8524	0	0	-100	0	230	101300000	1000	0	0	-1	0
21993071	8527	2	0	-100	0	230	101300000	1000	0	0	-1	0
22005631	8524	1	0	-100	0	230	101300000	1000	0	0	-1	0
22018191	8534	0	0	-100	0	230	101300000	1000	0	0	-1	0
22030751	8531	0	0	-100	0	230	101300000	1000	0	0	-1	0
22043311	8524	0	0	-100	0	230	101300000	1000	0	0	-1	0
22055871	8527	1	0	-100	0	230	101300000	1000	0	0	-1	0
22068431	8529	4	0	-100	0	230	101300000	1000	0	0	-1	0
22080991	8526	0	0	-100	0	230	101300000	1000	0	0	-1	0
22093551	8534	0	0	-100	0	230	101300000	1000	0	0	-1	0
22106111	8534	0	0	-100	0	230	101300000	1000	0	0	-1	0
22118671	8522	0	0	-100	0	230	101300000	1000	0	0	-1	0
22131231	8526	3	0	-100	0	230	101300000	1000	0	0	-1	0
22143791	8529	0	0	-100	0	230	101300000	1000	0	0	-1	0
22156351	8529	0	0	-100	0	230	101300000	1000	0	0	-1	0
22168911	8529	0	0	-100	0	230	101300000	1000	0	0	-1	0
22181471	8527	0	0	-100	0	230	101300000	1000	0	0	-1	0
22194031	8526	2	0	-100	0	230	101300000	1000	0	0	-1	0
22206591	8529	0	0	-100	0	230	101300000	1000	0	0	-1	0
22219151	8529	0	0	-100	0	230	101300000	1000	0	0	-1	0
22231711	8534	0	0	-100	0	230	101300000	1000	0	0	-1	0
22244271	8531	0	0	-100	0	230	101300000	1000	0	0	-1	0
22256831	8527	0	0	-100	0	230	101300000	1000	0	0	-1	0
22269391	8526	2	0	-100	0	230	101300000	1000	0	0	-1	0
22281951	8531	0	0	-100	0	230	101300000	1000	0	0	-1	0
22294511	8532	0	0	-100	0	230	101300000	1000	0	0	-1	0
22307071	8527	0	0	-100	0	230	101300000	1000	0	0	-1	0
22319631	8524	1	0	-100	0	230	101300000	1000	0	0	-1	0
22332191	8527	3	0	-100	0	230	101300000	1000	0	0	-1	0
22344751	8531	0	0	-100	0	230	101300000	1000	0	0	-1	0
22357311	8538	0	0	-100	0	230	101300000	1000	0	0	-1	0
22369871	8529	0	0	-100	0	230	101300000	1000	0	0	-1	0
22382431	8524	0	0	-100	0	230	101300000	1000	0	0	-1	0
22394991	8527	0	0	-100	0	230	101300000	1000	0	0	-1	0
22407551	8531	0	0	-100	0	230	101300000	1000	0	0	-1	0
22420111	8532	0	0	-100	0	230	101300000	1000	0	0	-1	0
22432671	8531	0	0	-100	0	230	101300000	1000	0	0	-1	0
22445231	8522	0	0	-100	0	230	101300000	1000	0	0	-1	0
22457791	8524	3	0	-100	0	230	101300000	1000	0	0	-1	0
22470351	8529	0	0	-100	0	230	101300000	1000	0	0	-1	0
22482911	8532	0	0	-100	0	230	101300000	1000	0	0	-1	0
22495471	8531	0	0	-100	0	230	101300000	1000	0	0	-1	0
22508031	8529	0	0	-100	0	230	101300000	1000	0	0	-1	0
22520591	8529	0	0	-100	0	230	101300000	1000	0	0	-1	0
22533151	8527	0	0	-100	0	230	101300000	1000	0	0	-1	0
22545711	8529	4	0	-100	0	230	101300000	1000	0	0	-1	0
22558271	8526	0	0	-100	0	230	101300000	1000	0	0	-1	0
22570831	8534	0	0	-100	0	230	101300000	1000	0	0	-1	0
22583391	8534	0	0	-100	0	230	101300000	1000	0	0	-1	0
22595951	8531	0	0	-100	0	230	101300000	1000	0	0	-1	0
22608511	8529	0	0	-100	0	230	101300000	1000	0	0	-1	0
22621071	8527	0	0	-100	0	230	101300000	1000	0	0	-1	0
22633631	8529	2	0	-100	0	230	101300000	1000	0	0	-1	0
22646191	8526	1	0	-100	0	230	101300000	1000	0	0	-1	0
22658751	8536	0	0	-100	0	230	101300000	1000	0	0	-1	0
22671311	8531	0	0	-100	0	230	101300000	1000	0	0	-1	0
22683871	8527	0	0	-100	0	230	101300000	1000	0	0	-1	0
22696431	8522	0	0	-100	0	230	101300000	1000	0	0	-1	0
22708991	8529	0	0	-100	0	230	101300000	1000	0	0	-1	0
22721551	8524	0	0	-100	0	230	101300000	1000	0	0	-1	0
22734111	8531	2	0	-100	0	230	101300000	1000	0	0	-1	0
22746671	8529	3	0	-100	0	230	101300000	1000	0	0	-1	0
22759231	8524	1	0	-100	0	230	101300000	1000	0	0	-1	0
22771791	8529	0	0	-100	0	230	101300000	1000	0	0	-1	0
22784351	8534	0	0	-100	0	230	101300000	1000	0	0	-1	0
22796911	8531	0	0	-100	0	230	101300000	1000	0	0	-1	0
22809471	8529	0	0	-100	0	230	101300000	1000	0	0	-1	0
22822031	8527	0	0	-100	0	230	101300000	1000	0	0	-1	0
22834591	8531	4	0	-100	0	230	101300000	1000	0	0	-1	0
22847151	8524	4	0	-100	0	230	101300000	1000	0	0	-1	0
22859711	8531	3	0	-100	0	230	101300000	1000	0	0	-1	0
22872271	8526	0	0	-100	0	230	101300000	1000	0	0	-1	0
22884831	8527	0	0	-100	0	230	101300000	1000	0	0	-1	0
22897391	8539	0	0	-100	0	230	101300000	1000	0	0	-1	0
22909951	8532	0	0	-100	0	230	101300000	1000	0	0	-1	0
22922511	8529	0	0	-100	0	230	101300000	1000	0	0	-1	0
22935071	8524	0	0	-100	0	230	101300000	1000	0	0	-1	0
22947631	8520	0	0	-100	0	230	101300000	1000	0	0	-1	0
22960191	8524	0	0	-100	0	230	101300000	1000	0	0	-1	0
22972751	8527	4	0	-100	0	230	101300000	1000	0	0	-1	0
22985311	8531	3	0	-100	0	230	101300000	1000	0	0	-1	0
22997871	8524	1	0	-100	0	230	101300000	1000	0	0	-1	0
23010431	8529	0	0	-100	0	230	101300000	1000	0	0	-1	0
23022991	8534	4	0	-100	0	230	101300000	1000	0	0	-1	0
23035551	8534	0	0	-100	0	230	101300000	1000	0	0	-1	0
23048111	8527	0	0	-100	0	230	101300000	1000	0	0	-1	0
23060671	8524	0	0	-100	0	230	101300000	1000	0	0	-1	0
23073231	8524	0	0	-100	0	230	101300000	1000	0	0	-1	0
23085791	8529	2	0	-100	0	230	101300000	1000	0	0	-1	0
23098351	8524	1	0	-100	0	230	101300000	1000	0	0	-1	0
23110911	8531	0	0	-100	0	230	101300000	1000	0	0	-1	0
23123471	8534	0	0	-100	0	230	101300000	1000	0	0	-1	0
23136031	8532	0	0	-100	0	230	101300000	1000	0	0	-1	0
23148591	8527	0	0	-100	0	230	101300000	1000	0	0	-1	0
23161151	8526	0	0	-100	0	230	101300000	1000	0	0	-1	0
23173711	8529	3	0	-100	0	230	101300000	1000	0	0	-1	0
23186271	8529	3	0	-100	0	230	101300000	1000	0	0	-1	0
23198831	8526	1	0	-100	0	230	101300000	1000	0	0	-1	0
23211391	8536	0	0	-100	0	230	101300000	1000	0	0	-1	0
23223951	8534	0	0	-100	0	230	101300000	1000	0	0	-1	0
23236511	8527	0	0	-100	0	230	101300000	1000	0	0	-1	0
23249071	8527	0	0	-100	0	230	101300000	1000	0	0	-1	0
23261631	8524	5	0	-100	0	230	101300000	1000	0	0	-1	0
23274191	8534	0	0	-100	0	230	101300000	1000	0	0	-1	0
23286751	8536	0	0	-100	0	230	101300000	1000	0	0	-1	0
23299311	8536	0	0	-100	0	230	101300000	1000	0	0	-1	0
23311871	8527	0	0	-100	0	230	101300000	1000	0	0	-1	0
23324431	8529	4	0	-100	0	230	101300000	1000	0	0	-1	0
23336991	8522	0	0	-100	0	230	101300000	1000	0	0	-1	0
23349551	8531	0	0	-100	0	230	101300000	1000	0	0	-1	0
23362111	8536	0	0	-100	0	230	101300000	1000	0	0	-1	0
23374671	8527	0	0	-100	0	230	101300000	1000	0	0	-1	0
23387231	8524	0	0	-100	0	230	101300000	1000	0	0	-1	0
23399791	8529	1	0	-100	0	230	101300000	1000	0	0	-1	0
23412351	8529	3	0	-100	0	230	101300000	1000	0	0	-1	0
23424911	8524	2	0	-100	0	230	101300000	1000	0	0	-1	0
23437471	8531	3	0	-100	0	230	101300000	1000	0	0	-1	0
23450031	8529	4	0	-100	0	230	101300000	1000	0	0	-1	0
23462591	8529	3	0	-100	0	230	101300000	1000	0	0	-1	0
23475151	8527	2	0	-100	0	230	101300000	1000	0	0	-1	0
23487711	8524	3	0	-100	0	230	101300000	1000	0	0	-1	0
23500271	8531	1	0	-100	0	230	101300000	1000	0	0	-1	0
23512831	8531	0	0	-100	0	230	101300000	1000	0	0	-1	0
23525391	8529	0	0	-100	0	230	101300000	1000	0	0	-1	0
23537951	8527	0	0	-100	0	230	101300000	1000	0	0	-1	0
23550511	8524	0	0	-100	0	230	101300000	1000	0	0	-1	0
23563071	8524	0	0	-100	0	230	101300000	1000	0	0	-1	0
23575631	8531	0	0	-100	0	230	101300000	1000	0	0	-1	0
23588191	8524	4	0	-100	0	230	101300000	1000	0	0	-1	0
23600751	8527	4	0	-100	0	230	101300000	1000	0	0	-1	0
23613311	8529	2	0	-100	0	230	101300000	1000	0	0	-1	0
23625871	8524	0	0	-100	0	230	101300000	1000	0	0	-1	0
23638431	8532	0	0	-100	0	230	101300000	1000	0	0	-1	0
23650991	8527	0	0	-100	0	230	101300000	1000	0	0	-1	0
23663551	8522	0	0	-100	0	230	101300000	1000	0	0	-1	0
23676111	8526	0	0	-100	0	230	101300000	1000	0	0	-1	0
23688671	8527	3	0	-100	0	230	101300000	1000	0	0	-1	0
23701231	8522	2	0	-100	0	230	101300000	1000	0	0	-1	0
23713791	8529	0	0	-100	0	230	101300000	1000	0	0	-1	0
23726351	8536	0	0	-100	0	230	101300000	1000	0	0	-1	0
23738911	8527	0	0	-100	0	230	101300000	1000	0	0	-1	0
23751471	8529	0	0	-100	0	230	101300000	1000	0	0	-1	0
23764031	8531	0	0	-100	0	230	101300000	1000	0	0	-1	0
23776591	8529	0	0	-100	0	230	101300000	1000	0	0	-1	0
23789151	8527	0	0	-100	0	230	101300000	1000	0	0	-1	0
23801711	8527	0	0	-100	0	230	101300000	1000	0	0	-1	0
23814271	8524	0	0	-100	0	230	101300000	1000	0	0	-1	0
23826831	8527	4	0	-100	0	230	101300000	1000	0	0	-1	0
23839391	8524	3	0	-100	0	230	101300000	1000	0	0	-1	0
23851951	8527	3	0	-100	0	230	101300000	1000	0	0	-1	0
23864511	8527	3	0	-100	0	230	101300000	1000	0	0	-1	0
23877071	8524	2	0	-100	0	230	101300000	1000	0	0	-1	0
23889631	8524	2	0	-100	0	230	101300000	1000	0	0	-1	0
23902191	8522	2	0	-100	0	230	101300000	1000	0	0	-1	0
23914751	8527	0	0	-100	0	230	101300000	1000	0	0	-1	0
23927311	8529	0	0	-100	0	230	101300000	1000	0	0	-1	0
23939871	8536	0	0	-100	0	230	101300000	1000	0	0	-1	0
23952431	8534	0	0	-100	0	230	101300000	1000	0	0	-1	0
23964991	8536	1	0	-100	0	230	101300000	1000	0	0	-1	0
23977551	8529	0	0	-100	0	230	101300000	1000	0	0	-1	0
23990111	8531	0	0	-100	0	230	101300000	1000	0	0	-1	0
24002671	8527	0	0	-100	0	230	101300000	1000	0	0	-1	0
24015231	8531	0	0	-100	0	230	101300000	1000	0	0	-1	0
24027791	8531	0	0	-100	0	230	101300000	1000	0	0	-1	0
24040351	8529	0	0	-100	0	230	101300000	1000	0	0	-1	0
24052911	8522	0	0	-100	0	230	101300000	1000	0	0	-1	0
24065471	8529	4	0	-100	0	230	101300000	1000	0	0	-1	0
24078031	8531	0	0	-100	0	230	101300000	1000	0	0	-1	0
24090591	8529	0	0	-100	0	230	101300000	1000	0	0	-1	0
24103151	8531	0	0	-100	0	230	101300000	1000	0	0	-1	0
24115711	8529	0	0	-100	0	230	101300000	1000	0	0	-1	0
24128271	8526	0	0	-100	0	230	101300000	1000	0	0	-1	0
24140831	8527	0	0	-100	0	230	101300000	1000	0	0	-1	0
24153391	8524	0	0	-100	0	230	101300000	1000	0	0	-1	0
24165951	8529	0	0	-100	0	230	101300000	1000	0	0	-1	0
24178511	8524	0	0	-100	0	230	101300000	1000	0	0	-1	0
24191071	8527	4	0	-100	0	230	101300000	1000	0	0	-1	0
24203631	8527	4	0	-100	0	230	101300000	1000	0	0	-1	0
24216191	8529	4	0	-100	0	230	101300000	1000	0	0	-1	0
24228751	8527	4	0	-100	0	230	101300000	1000	0	0	-1	0
24241311	8529	4	0	-100	0	230	101300000	1000	0	0	-1	0
24253871	8526	3	0	-100	0	230	101300000	1000	0	0	-1	0
24266431	8529	0	0	-100	0	230	101300000	1000	0	0	-1	0
24278991	8536	3	0	-100	0	230	101300000	1000	0	0	-1	0
24291551	8527	0	0	-100	0	230	101300000	1000	0	0	-1	0
24304111	8531	0	0	-100	0	230	101300000	1000	0	0	-1	0
24316671	8527	0	0	-100	0	230	101300000	1000	0	0	-1	0
24329231	8526	0	0	-100	0	230	101300000	1000	0	0	-1	0
24341791	8524	0	0	-100	0	230	101300000	1000	0	0	-1	0
24354351	8524	0	0	-100	0	230	101300000	1000	0	0	-1	0
24366911	8527	0	0	-100	0	230	101300000	1000	0	0	-1	0
24379471	8527	0	0	-100	0	230	101300000	1000	0	0	-1	0
24392031	8522	0	0	-100	0	230	101300000	1000	0	0	-1	0
24404591	8524	4	0	-100	0	230	101300000	1000	0	0	-1	0
24417151	8527	4	0	-100	0	230	101300000	1000	0	0	-1	0
24429711	8529	3	0	-100	0	230	101300000	1000	0	0	-1	0
24442271	8526	1	0	-100	0	230	101300000	1000	0	0	-1	0
24454831	8524	1	0	-100	0	230	101300000	1000	0	0	-1	0
24467391	8531	0	0	-100	0	230	101300000	1000	0	0	-1	0
24479951	8531	0	0	-100	0	230	101300000	1000	0	0	-1	0
24492511	8534	0	0	-100	0	230	101300000	1000	0	0	-1	0
24505071	8536	0	0	-100	0	230	101300000	1000	0	0	-1	0
24517631	8529	0	0	-100	0	230	101300000	1000	0	0	-1	0
24530191	8534	0	0	-100	0	230	101300000	1000	0	0	-1	0
24542751	8527	0	0	-100	0	230	101300000	1000	0	0	-1	0
24555311	8527	0	0	-100	0	230	101300000	1000	0	0	-1	0
24567871	8529	0	0	-100	0	230	101300000	1000	0	0	-1	0
24580431	8531	0	0	-100	0	230	101300000	1000	0	0	-1	0
24592991	8529	0	0	-100	0	230	101300000	1000	0	0	-1	0
24605551	8527	0	0	-100	0	230	101300000	1000	0	0	-1	0
24618111	8529	0	0	-100	0	230	101300000	1000	0	0	-1	0
24630671	8526	0	0	-100	0	230	101300000	1000	0	0	-1	0
24643231	8527	0	0	-100	0	230	101300000	1000	0	0	-1	0
24655791	8529	0	0	-100	0	230	101300000	1000	0	0	-1	0
24668351	8529	0	0	-100	0	230	101300000	1000	0	0	-1	0
24680911	8527	0	0	-100	0	230	101300000	1000	0	0	-1	0
24693471	8531	0	0	-100	0	230	101300000	1000	0	0	-1	0
24706031	8522	0	0	-100	0	230	101300000	1000	0	0	-1	0
24718591	8527	0	0	-100	0	230	101300000	1000	0	0	-1	0
24731151	8527	0	0	-100	0	230	101300000	1000	0	0	-1	0
24743711	8524	0	0	-100	0	230	101300000	1000	0	0	-1	0
24756271	8527	0	0	-100	0	230	101300000	1000	0	0	-1	0
24768831	8527	0	0	-100	0	230	101300000	1000	0	0	-1	0
24781391	8529	4	0	-100	0	230	101300000	1000	0	0	-1	0
24793951	8524	3	0	-100	0	230	101300000	1000	0	0	-1	0
24806511	8527	0	0	-100	0	230	101300000	1000	0	0	-1	0
24819071	8531	0	0	-100	0	230	101300000	1000	0	0	-1	0
24831631	8534	0	0	-100	0	230	101300000	1000	0	0	-1	0
24844191	8529	0	0	-100	0	230	101300000	1000	0	0	-1	0
24856751	8534	0	0	-100	0	230	101300000	1000	0	0	-1	0
24869311	8536	0	0	-100	0	230	101300000	1000	0	0	-1	0
24881871	8529	0	0	-100	0	230	101300000	1000	0	0	-1	0
24894431	8532	0	0	-100	0	230	101300000	1000	0	0	-1	0
24906991	8534	2	0	-100	0	230	101300000	1000	0	0	-1	0
24919551	8532	0	0	-100	0	230	101300000	1000	0	0	-1	0
24932111	8531	0	0	-100	0	230	101300000	1000	0	0	-1	0
24944671	8531	0	0	-100	0	230	101300000	1000	0	0	-1	0
24957231	8525	0	0	-100	0	230	101300000	1000	0	0	-1	0
24969791	8529	0	0	-100	0	230	101300000	1000	0	0	-1	0
24982351	8532	0	0	-100	0	230	101300000	1000	0	0	-1	0
24994911	8539	0	0	-100	0	230	101300000	1000	0	0	-1	0
25007471	8536	0	0	-100	0	230	101300000	1000	0	0	-1	0
25020031	8534	0	0	-100	0	230	101300000	1000	0	0	-1	0
25032591	8527	0	0	-100	0	230	101300000	1000	0	0	-1	0
25045151	8527	2	0	-100	0	230	101300000	1000	0	0	-1	0
25057711	8529	3	0	-100	0	230	101300000	1000	0	0	-1	0
25070271	8527	3	0	-100	0	230	101300000	1000	0	0	-1	0
25082831	8531	2	0	-100	0	230	101300000	1000	0	0	-1	0
25095391	8529	4	0	-100	0	230	101300000	1000	0	0	-1	0
25107951	8524	3	0	-100	0	230	101300000	1000	0	0	-1	0
25120511	8527	0	0	-100	0	230	101300000	1000	0	0	-1	0
25133071	8529	0	0	-100	0	230	101300000	1000	0	0	-1	0
25145631	8527	4	0	-100	0	230	101300000	1000	0	0	-1	0
25158191	8524	4	0	-100	0	230	101300000	1000	0	0	-1	0
25170751	8529	2	0	-100	0	230	101300000	1000	0	0	-1	0
25183311	8529	0	0	-100	0	230	101300000	1000	0	0	-1	0
25195871	8531	0	0	-100	0	230	101300000	1000	0	0	-1	0
25208431	8529	0	0	-100	0	230	101300000	1000	0	0	-1	0
25220991	8534	4	0	-100	0	230	101300000	1000	0	0	-1	0
25233551	8534	0	0	-100	0	230	101300000	1000	0	0	-1	0
25246111	8538	0	0	-100	0	230	101300000	1000	0	0	-1	0
25258671	8536	0	0	-100	0	230	101300000	1000	0	0	-1	0
25271231	8527	1	0	-100	0	230	101300000	1000	0	0	-1	0
25283791	8527	1	0	-100	0	230	101300000	1000	0	0	-1	0
25296351	8522	3	0	-100	0	230	101300000	1000	0	0	-1	0
25308911	8524	3	0	-100	0	230	101300000	1000	0	0	-1	0
25321471	8526	2	0	-100	0	230	101300000	1000	0	0	-1	0
25334031	8527	4	0	-100	0	230	101300000	1000	0	0	-1	0
25346591	8526	2	0	-100	0	230	101300000	1000	0	0	-1	0
25359151	8522	0	0	-100	0	230	101300000	1000	0	0	-1	0
25371711	8527	0	0	-100	0	230	101300000	1000	0	0	-1	0
25384271	8539	0	0	-100	0	230	101300000	1000	0	0	-1	0
25396831	8527	0	0	-100	0	230	101300000	1000	0	0	-1	0
25409391	8534	0	0	-100	0	230	101300000	1000	0	0	-1	0
25421951	8529	0	0	-100	0	230	101300000	1000	0	0	-1	0
25434511	8529	0	0	-100	0	230	101300000	1000	0	0	-1	0
25447071	8522	0	0	-100	0	230	101300000	1000	0	0	-1	0
25459631	8526	3	0	-100	0	230	101300000	1000	0	0	-1	0
25472191	8531	0	0	-100	0	230	101300000	1000	0	0	-1	0
25484751	8532	0	0	-100	0	230	101300000	1000	0	0	-1	0
25497311	8534	0	0	-100	0	230	101300000	1000	0	0	-1	0
25509871	8527	0	0	-100	0	230	101300000	1000	0	0	-1	0
25522431	8527	1	0	-100	0	230	101300000	1000	0	0	-1	0
25534991	8526	0	0	-100	0	230	101300000	1000	0	0	-1	0
25547551	8534	0	0	-100	0	230	101300000	1000	0	0	-1	0
25560111	8527	0	0	-100	0	230	101300000	1000	0	0	-1	0
25572671	8532	0	0	-100	0	230	101300000	1000	0	0	-1	0
25585231	8527	0	0	-100	0	230	101300000	1000	0	0	-1	0
25597791	8524	0	0	-100	0	230	101300000	1000	0	0	-1	0
25610351	8522	0	0	-100	0	230	101300000	1000	0	0	-1	0
25622911	8522	0	0	-100	0	230	101300000	1000	0	0	-1	0
25635471	8524	0	0	-100	0	230	101300000	1000	0	0	-1	0
25648031	8531	3	0	-100	0	230	101300000	1000	0	0	-1	0
25660591	8531	3	0	-100	0	230	101300000	1000	0	0	-1	0
25673151	8524	4	0	-100	0	230	101300000	1000	0	0	-1	0
25685711	8524	0	0	-100	0	230	101300000	1000	0	0	-1	0
25698271	8524	0	0	-100	0	230	101300000	1000	0	0	-1	0
25710831	8534	0	0	-100	0	230	101300000	1000	0	0	-1	0
25723391	8538	0	0	-100	0	230	101300000	1000	0	0	-1	0
25735951	8534	0	0	-100	0	230	101300000	1000	0	0	-1	0
25748511	8536	0	0	-100	0	230	101300000	1000	0	0	-1	0
25761071	8536	0	0	-100	0	230	101300000	1000	0	0	-1	0
25773631	8534	0	0	-100	0	230	101300000	1000	0	0	-1	0
25786191	8527	0	0	-100	0	230	101300000	1000	0	0	-1	0
25798751	8527	0	0	-100	0	230	101300000	1000	0	0	-1	0
25811311	8529	4	0	-100	0	230	101300000	1000	0	0	-1	0
25823871	8522	2	0	-100	0	230	101300000	1000	0	0	-1	0
25836431	8534	0	0	-100	0	230	101300000	1000	0	0	-1	0
25848991	8534	1	0	-100	0	230	101300000	1000	0	0	-1	0
25861551	8522	0	0	-100	0	230	101300000	1000	0	0	-1	0
25874111	8524	0	0	-100	0	230	101300000	1000	0	0	-1	0
25886671	8534	4	0	-100	0	230	101300000	1000	0	0	-1	0
25899231	8529	1	0	-100	0	230	101300000	1000	0	0	-1	0
25911791	8522	0	0	-100	0	230	101300000	1000	0	0	-1	0
25924351	8539	0	0	-100	0	230	101300000	1000	0	0	-1	0
25936911	8534	0	0	-100	0	230	101300000	1000	0	0	-1	0
25949471	8532	0	0	-100	0	230	101300000	1000	0	0	-1	0
25962031	8527	0	0	-100	0	230	101300000	1000	0	0	-1	0
25974591	8529	0	0	-100	0	230	101300000	1000	0	0	-1	0
25987151	8524	5	0	-100	0	230	101300000	1000	0	0	-1	0
25999711	8526	1	0	-100	0	230	101300000	1000	0	0	-1	0
26012271	8531	0	0	-100	0	230	101300000	1000	0	0	-1	0
26024831	8534	0	0	-100	0	230	101300000	1000	0	0	-1	0
26037391	8532	0	0	-100	0	230	101300000	1000	0	0	-1	0
26049951	8536	0	0	-100	0	230	101300000	1000	0	0	-1	0
26062511	8525	0	0	-100	0	230	101300000	1000	0	0	-1	0
26075071	8527	0	0	-100	0	230	101300000	1000	0	0	-1	0
26087631	8522	0	0	-100	0	230	101300000	1000	0	0	-1	0
26100191	8529	3	0	-100	0	230	101300000	1000	0	0	-1	0
26112751	8526	1	0	-100	0	230	101300000	1000	0	0	-1	0
26125311	8532	0	0	-100	0	230	101300000	1000	0	0	-1	0
26137871	8529	4	0	-100	0	230	101300000	1000	0	0	-1	0
26150431	8534	0	0	-100	0	230	101300000	1000	0	0	-1	0
26162991	8524	0	0	-100	0	230	101300000	1000	0	0	-1	0
26175551	8524	0	0	-100	0	230	101300000	1000	0	0	-1	0
26188111	8534	0	0	-100	0	230	101300000	1000	0	0	-1	0
26200671	8529	4	0	-100	0	230	101300000	1000	0	0	-1	0
26213231	8536	0	0	-100	0	230	101300000	1000	0	0	-1	0
26225791	8526	0	0	-100	0	230	101300000	1000	0	0	-1	0
26238351	8531	0	0	-100	0	230	101300000	1000	0	0	-1	0
26250911	8529	0	0	-100	0	230	101300000	1000	0	0	-1	0
26263471	8524	4	0	-100	0	230	101300000	1000	0	0	-1	0
26276031	8532	0	0	-100	0	230	101300000	1000	0	0	-1	0
26288591	8529	3	0	-100	0	230	101300000	1000	0	0	-1	0
26301151	8534	0	0	-100	0	230	101300000	1000	0	0	-1	0
26313711	8531	0	0	-100	0	230	101300000	1000	0	0	-1	0
26326271	8531	4	0	-100	0	230	101300000	1000	0	0	-1	0
26338831	8529	0	0	-100	0	230	101300000	1000	0	0	-1	0
26351391	8524	0	0	-100	0	230	101300000	1000	0	0	-1	0
26363951	8527	3	0	-100	0	230	101300000	1000	0	0	-1	0
26376511	8529	0	0	-100	0	230	101300000	1000	0	0	-1	0
26389071	8524	0	0	-100	0	230	101300000	1000	0	0	-1	0
26401631	8529	4	0	-100	0	230	101300000	1000	0	0	-1	0
26414191	8534	0	0	-100	0	230	101300000	1000	0	0	-1	0
26426751	8524	0	0	-100	0	230	101300000	1000	0	0	-1	0
26439311	8522	1	0	-100	0	230	101300000	1000	0	0	-1	0
26451871	8532	0	0	-100	0	230	101300000	1000	0	0	-1	0
26464431	8527	0	0	-100	0	230	101300000	1000	0	0	-1	0
26476991	8531	0	0	-100	0	230	101300000	1000	0	0	-1	0
26489551	8534	0	0	-100	0	230	101300000	1000	0	0	-1	0
26502111	8524	0	0	-100	0	230	101300000	1000	0	0	-1	0
26514671	8529	4	0	-100	0	230	101300000	1000	0	0	-1	0
26527231	8524	2	0	-100	0	230	101300000	1000	0	0	-1	0
26539791	8529	1	0	-100	0	230	101300000	1000	0	0	-1	0
26552351	8527	0	0	-100	0	230	101300000	1000	0	0	-1	0
26564911	8534	0	0	-100	0	230	101300000	1000	0	0	-1	0
26577471	8531	0	0	-100	0	230	101300000	1000	0	0	-1	0
26590031	8539	0	0	-100	0	230	101300000	1000	0	0	-1	0
26602591	8534	0	0	-100	0	230	101300000	1000	0	0	-1	0
26615151	8536	0	0	-100	0	230	101300000	1000	0	0	-1	0
26627711	8536	0	0	-100	0	230	101300000	1000	0	0	-1	0
26640271	8536	0	0	-100	0	230	101300000	1000	0	0	-1	0
26652831	8531	0	0	-100	0	230	101300000	1000	0	0	-1	0
26665391	8536	0	0	-100	0	230	101300000	1000	0	0	-1	0
26677951	8529	0	0	-100	0	230	101300000	1000	0	0	-1	0
26690511	8527	0	0	-100	0	230	101300000	1000	0	0	-1	0
26703071	8531	0	0	-100	0	230	101300000	1000	0	0	-1	0
26715631	8529	0	0	-100	0	230	101300000	1000	0	0	-1	0
26728191	8522	0	0	-100	0	230	101300000	1000	0	0	-1	0
26740751	8529	3	0	-100	0	230	101300000	1000	0	0	-1	0
26753311	8522	4	0	-100	0	230	101300000	1000	0	0	-1	0
26765871	8529	4	0	-100	0	230	101300000	1000	0	0	-1	0
26778431	8526	2	0	-100	0	230	101300000	1000	0	0	-1	0
26790991	8529	0	0	-100	0	230	101300000	1000	0	0	-1	0
26803551	8529	0	0	-100	0	230	101300000	1000	0	0	-1	0
26816111	8526	0	0	-100	0	230	101300000	1000	0	0	-1	0
26828671	8539	0	0	-100	0	230	101300000	1000	0	0	-1	0
26841231	8531	0	0	-100	0	230	101300000	1000	0	0	-1	0
26853791	8529	0	0	-100	0	230	101300000	1000	0	0	-1	0
26866351	8527	4	0	-100	0	230	101300000	1000	0	0	-1	0
26878911	8526	1	0	-100	0	230	101300000	1000	0	0	-1	0
26891471	8527	0	0	-100	0	230	101300000	1000	0	0	-1	0
26904031	8531	0	0	-100	0	230	101300000	1000	0	0	-1	0
26916591	8531	0	0	-100	0	230	101300000	1000	0	0	-1	0
26929151	8527	0	0	-100	0	230	101300000	1000	0	0	-1	0
26941711	8524	4	0	-100	0	230	101300000	1000	0	0	-1	0
26954271	8532	0	0	-100	0	230	101300000	1000	0	0	-1	0
26966831	8529	0	0	-100	0	230	101300000	1000	0	0	-1	0
26979391	8527	0	0	-100	0	230	101300000	1000	0	0	-1	0
26991951	8524	0	0	-100	0	230	101300000	1000	0	0	-1	0
27004511	8529	4	0	-100	0	230	101300000	1000	0	0	-1	0
27017071	8526	3	0	-100	0	230	101300000	1000	0	0	-1	0
27029631	8531	0	0	-100	0	230	101300000	1000	0	0	-1	0
27042191	8534	0	0	-100	0	230	101300000	1000	0	0	-1	0
