timestamp	voltage	current	windSpeed	pitchAngle	rpm	temperature	ambientPressure	humidity	accelerationX	accelerationY	accelerationZ	currentSink
7040070	8524	0	0	-100	0	230	101300000	1000	0	0	-1	0
7047523	8529	0	0	-100	0	230	101300000	1000	0	0	-1	0
7060083	8517	4	0	-100	0	230	101300000	1000	0	0	-1	0
7072643	8517	0	0	-100	0	230	101300000	1000	0	0	-1	0
7085203	8519	0	0	-100	0	230	101300000	1000	0	0	-1	0
7097763	8515	0	0	-100	0	230	101300000	1000	0	0	-1	0
7110323	8534	0	0	-100	0	230	101300000	1000	0	0	-1	0
7122883	8529	3	0	-100	0	230	101300000	1000	0	0	-1	0
7135443	8522	0	0	-100	0	230	101300000	1000	0	0	-1	0
7148004	8515	4	0	-100	0	230	101300000	1000	0	0	-1	0
7160563	8526	0	0	-100	0	230	101300000	1000	0	0	-1	0
7173123	8529	2	0	-100	0	230	101300000	1000	0	0	-1	0
7185683	8517	0	0	-100	0	230	101300000	1000	0	0	-1	0
7198243	8522	0	0	-100	0	230	101300000	1000	0	0	-1	0
7210803	8517	2	0	-100	0	230	101300000	1000	0	0	-1	0
7223363	8522	0	0	-100	0	230	101300000	1000	0	0	-1	0
7235923	8524	0	0	-100	0	230	101300000	1000	0	0	-1	0
7248483	8519	1	0	-100	0	230	101300000	1000	0	0	-1	0
7261043	8522	0	0	-100	0	230	101300000	1000	0	0	-1	0
7273603	8524	0	0	-100	0	230	101300000	1000	0	0	-1	0
7286163	8519	4	0	-100	0	230	101300000	1000	0	0	-1	0
7298723	8527	0	0	-100	0	230	101300000	1000	0	0	-1	0
7311283	8519	0	0	-100	0	230	101300000	1000	0	0	-1	0
7323843	8517	4	0	-100	0	230	101300000	1000	0	0	-1	0
7336403	8522	0	0	-100	0	230	101300000	1000	0	0	-1	0
7348963	8520	0	0	-100	0	230	101300000	1000	0	0	-1	0
7692115	7886	948	0	-100	0	230	101300000	1000	0	0	-1	1000
7704675	7872	938	0	-100	0	230	101300000	1000	0	0	-1	1000
7717235	7874	944	0	-100	0	230	101300000	1000	0	0	-1	1000
7729795	7872	946	0	-100	0	230	101300000	1000	0	0	-1	1000
7742355	7879	945	0	-100	0	230	101300000	1000	0	0	-1	1000
7754915	7881	943	0	-100	0	230	101300000	1000	0	0	-1	1000
7767475	7874	945	0	-100	0	230	101300000	1000	0	0	-1	1000
7780035	7884	938	0	-100	0	230	101300000	1000	0	0	-1	1000
7792595	7884	949	0	-100	0	230	101300000	1000	0	0	-1	1000
7805155	7882	943	0	-100	0	230	101300000	1000	0	0	-1	1000
7817715	7860	947	0	-100	0	230	101300000	1000	0	0	-1	1000
7830275	7875	943	0	-100	0	230	101300000	1000	0	0	-1	1000
7842835	7872	950	0	-100	0	230	101300000	1000	0	0	-1	1000
7855395	7862	946	0	-100	0	230	101300000	1000	0	0	-1	1000
7867955	7863	944	0	-100	0	230	101300000	1000	0	0	-1	1000
7880515	7872	949	0	-100	0	230	101300000	1000	0	0	-1	1000
7893075	7875	942	0	-100	0	230	101300000	1000	0	0	-1	1000
7905635	7877	949	0	-100	0	230	101300000	1000	0	0	-1	1000
7918195	7897	942	0	-100	0	230	101300000	1000	0	0	-1	1000
7930755	7890	950	0	-100	0	230	101300000	1000	0	0	-1	1000
7943315	7915	952	0	-100	0	230	101300000	1000	0	0	-1	1000
7955875	7882	944	0	-100	0	230	101300000	1000	0	0	-1	1000
7968435	7869	951	0	-100	0	230	101300000	1000	0	0	-1	1000
7980995	7870	945	0	-100	0	230	101300000	1000	0	0	-1	1000
7993555	7874	944	0	-100	0	230	101300000	1000	0	0	-1	1000
8006115	7882	943	0	-100	0	230	101300000	1000	0	0	-1	1000
8018675	7879	951	0	-100	0	230	101300000	1000	0	0	-1	1000
8031235	7877	945	0	-100	0	230	101300000	1000	0	0	-1	1000
8043795	7875	941	0	-100	0	230	101300000	1000	0	0	-1	1000
8056355	7865	954	0	-100	0	230	101300000	1000	0	0	-1	1000
8068915	7869	949	0	-100	0	230	101300000	1000	0	0	-1	1000
8081475	7881	946	0	-100	0	230	101300000	1000	0	0	-1	1000
8094035	7874	951	0	-100	0	230	101300000	1000	0	0	-1	1000
8106595	7889	948	0	-100	0	230	101300000	1000	0	0	-1	1000
8119155	7877	953	0	-100	0	230	101300000	1000	0	0	-1	1000
8131715	7886	946	0	-100	0	230	101300000	1000	0	0	-1	1000
8144275	7872	947	0	-100	0	230	101300000	1000	0	0	-1	1000
8156835	7858	952	0	-100	0	230	101300000	1000	0	0	-1	1000
8169395	7880	956	0	-100	0	230	101300000	1000	0	0	-1	1000
8181955	7878	954	0	-100	0	230	101300000	1000	0	0	-1	1000
8194515	7875	946	0	-100	0	230	101300000	1000	0	0	-1	1000
8207075	7868	950	0	-100	0	230	101300000	1000	0	0	-1	1000
8219635	7889	946	0	-100	0	230	101300000	1000	0	0	-1	1000
8232195	7891	950	0	-100	0	230	101300000	1000	0	0	-1	1000
8244755	7860	948	0	-100	0	230	101300000	1000	0	0	-1	1000
8257315	7872	950	0	-100	0	230	101300000	1000	0	0	-1	1000
8269875	7884	950	0	-100	0	230	101300000	1000	0	0	-1	1000
8282435	7882	949	0	-100	0	230	101300000	1000	0	0	-1	1000
8294995	7873	946	0	-100	0	230	101300000	1000	0	0	-1	1000
8307555	7889	948	0	-100	0	230	101300000	1000	0	0	-1	1000
8320115	7886	946	0	-100	0	230	101300000	1000	0	0	-1	1000
8332675	7891	949	0	-100	0	230	101300000	1000	0	0	-1	1000
8345235	7881	950	0	-100	0	230	101300000	1000	0	0	-1	1000
8357795	7877	943	0	-100	0	230	101300000	1000	0	0	-1	1000
8370355	7872	950	0	-100	0	230	101300000	1000	0	0	-1	1000
8382915	7872	949	0	-100	0	230	101300000	1000	0	0	-1	1000
8395475	7879	945	0	-100	0	230	101300000	1000	0	0	-1	1000
8408035	7874	955	0	-100	0	230	101300000	1000	0	0	-1	1000
8420595	7868	945	0	-100	0	230	101300000	1000	0	0	-1	1000
8433155	7865	947	0	-100	0	230	101300000	1000	0	0	-1	1000
8445715	7867	944	0	-100	0	230	101300000	1000	0	0	-1	1000
8458275	7858	955	0	-100	0	230	101300000	1000	0	0	-1	1000
8470835	7867	949	0	-100	0	230	101300000	1000	0	0	-1	1000
8483395	7869	951	0	-100	0	230	101300000	1000	0	0	-1	1000
8495955	7882	949	0	-100	0	230	101300000	1000	0	0	-1	1000
8508515	7882	950	0	-100	0	230	101300000	1000	0	0	-1	1000
8521075	7865	948	0	-100	0	230	101300000	1000	0	0	-1	1000
8533635	7884	952	0	-100	0	230	101300000	1000	0	0	-1	1000
8546195	7872	923	0	-100	0	230	101300000	1000	0	0	-1	1000
8558755	7877	944	0	-100	0	230	101300000	1000	0	0	-1	1000
8571315	7869	952	0	-100	0	230	101300000	1000	0	0	-1	1000
8583875	7870	949	0	-100	0	230	101300000	1000	0	0	-1	1000
8596435	7872	949	0	-100	0	230	101300000	1000	0	0	-1	1000
8608995	7879	952	0	-100	0	230	101300000	1000	0	0	-1	1000
8621555	7862	953	0	-100	0	230	101300000	1000	0	0	-1	1000
8659235	7858	951	0	-100	0	230	101300000	1000	0	0	-1	1000
8671795	7877	949	0	-100	0	230	101300000	1000	0	0	-1	1000
8684355	7868	948	0	-100	0	230	101300000	1000	0	0	-1	1000
8696915	7878	952	0	-100	0	230	101300000	1000	0	0	-1	1000
8709475	7877	948	0	-100	0	230	101300000	1000	0	0	-1	1000
8722035	7883	952	0	-100	0	230	101300000	1000	0	0	-1	1000
8734595	7877	949	0	-100	0	230	101300000	1000	0	0	-1	1000
8747155	7875	953	0	-100	0	230	101300000	1000	0	0	-1	1000
8759715	7856	949	0	-100	0	230	101300000	1000	0	0	-1	1000
8772275	7884	935	0	-100	0	230	101300000	1000	0	0	-1	1000
8784835	7879	956	0	-100	0	230	101300000	1000	0	0	-1	1000
8797395	7881	950	0	-100	0	230	101300000	1000	0	0	-1	1000
8809955	7875	948	0	-100	0	230	101300000	1000	0	0	-1	1000
8822515	7872	951	0	-100	0	230	101300000	1000	0	0	-1	1000
8835075	7877	952	0	-100	0	230	101300000	1000	0	0	-1	1000
8847635	7867	949	0	-100	0	230	101300000	1000	0	0	-1	1000
8860195	7887	953	0	-100	0	230	101300000	1000	0	0	-1	1000
8872755	7887	950	0	-100	0	230	101300000	1000	0	0	-1	1000
8885315	7881	931	0	-100	0	230	101300000	1000	0	0	-1	1000
8897875	7872	953	0	-100	0	230	101300000	1000	0	0	-1	1000
8910435	7870	945	0	-100	0	230	101300000	1000	0	0	-1	1000
8922995	7880	949	0	-100	0	230	101300000	1000	0	0	-1	1000
8935555	7877	955	0	-100	0	230	101300000	1000	0	0	-1	1000
8948115	7879	951	0	-100	0	230	101300000	1000	0	0	-1	1000
8960675	7877	956	0	-100	0	230	101300000	1000	0	0	-1	1000
8973235	7875	952	0	-100	0	230	101300000	1000	0	0	-1	1000
8985795	7870	951	0	-100	0	230	101300000	1000	0	0	-1	1000
8998355	7864	953	0	-100	0	230	101300000	1000	0	0	-1	1000
9010915	7886	951	0	-100	0	230	101300000	1000	0	0	-1	1000
9023475	7865	947	0	-100	0	230	101300000	1000	0	0	-1	1000
9036035	7884	949	0	-100	0	230	101300000	1000	0	0	-1	1000
9048595	7889	927	0	-100	0	230	101300000	1000	0	0	-1	1000
9061155	7880	948	0	-100	0	230	101300000	1000	0	0	-1	1000
9073715	7877	953	0	-100	0	230	101300000	1000	0	0	-1	1000
9086275	7881	952	0	-100	0	230	101300000	1000	0	0	-1	1000
9098835	7880	949	0	-100	0	230	101300000	1000	0	0	-1	1000
9111395	7862	952	0	-100	0	230	101300000	1000	0	0	-1	1000
9123955	7887	952	0	-100	0	230	101300000	1000	0	0	-1	1000
9136515	7875	951	0	-100	0	230	101300000	1000	0	0	-1	1000
9149075	7879	952	0	-100	0	230	101300000	1000	0	0	-1	1000
9161635	7879	952	0	-100	0	230	101300000	1000	0	0	-1	1000
9174195	7865	949	0	-100	0	230	101300000	1000	0	0	-1	1000
9186755	7886	947	0	-100	0	230	101300000	1000	0	0	-1	1000
9199315	7903	952	0	-100	0	230	101300000	1000	0	0	-1	1000
9211875	7876	956	0	-100	0	230	101300000	1000	0	0	-1	1000
9224435	7874	950	0	-100	0	230	101300000	1000	0	0	-1	1000
9236995	7872	950	0	-100	0	230	101300000	1000	0	0	-1	1000
9249555	7868	953	0	-100	0	230	101300000	1000	0	0	-1	1000
9262115	7891	949	0	-100	0	230	101300000	1000	0	0	-1	1000
9274675	7882	949	0	-100	0	230	101300000	1000	0	0	-1	1000
9287235	7878	946	0	-100	0	230	101300000	1000	0	0	-1	1000
9299795	7884	949	0	-100	0	230	101300000	1000	0	0	-1	1000
9312355	7886	955	0	-100	0	230	101300000	1000	0	0	-1	1000
9324915	7870	956	0	-100	0	230	101300000	1000	0	0	-1	1000
9337475	7872	952	0	-100	0	230	101300000	1000	0	0	-1	1000
9350035	7887	948	0	-100	0	230	101300000	1000	0	0	-1	1000
9362595	7885	953	0	-100	0	230	101300000	1000	0	0	-1	1000
9375155	7886	954	0	-100	0	230	101300000	1000	0	0	-1	1000
9387715	7889	953	0	-100	0	230	101300000	1000	0	0	-1	1000
9400275	7863	959	0	-100	0	230	101300000	1000	0	0	-1	1000
9412835	7869	948	0	-100	0	230	101300000	1000	0	0	-1	1000
9425395	7865	952	0	-100	0	230	101300000	1000	0	0	-1	1000
9437955	7882	953	0	-100	0	230	101300000	1000	0	0	-1	1000
9450515	7886	953	0	-100	0	230	101300000	1000	0	0	-1	1000
9463075	7880	955	0	-100	0	230	101300000	1000	0	0	-1	1000
9475635	7875	959	0	-100	0	230	101300000	1000	0	0	-1	1000
9488195	7869	956	0	-100	0	230	101300000	1000	0	0	-1	1000
9500755	7884	955	0	-100	0	230	101300000	1000	0	0	-1	1000
9513315	7879	949	0	-100	0	230	101300000	1000	0	0	-1	1000
9525875	7877	954	0	-100	0	230	101300000	1000	0	0	-1	1000
9538435	7879	951	0	-100	0	230	101300000	1000	0	0	-1	1000
9550995	7881	949	0	-100	0	230	101300000	1000	0	0	-1	1000
9563555	7877	956	0	-100	0	230	101300000	1000	0	0	-1	1000
9576115	7889	950	0	-100	0	230	101300000	1000	0	0	-1	1000
9588675	7889	953	0	-100	0	230	101300000	1000	0	0	-1	1000
9601235	7887	950	0	-100	0	230	101300000	1000	0	0	-1	1000
9613795	7880	958	0	-100	0	230	101300000	1000	0	0	-1	1000
9626355	7878	952	0	-100	0	230	101300000	1000	0	0	-1	1000
9638915	7884	949	0	-100	0	230	101300000	1000	0	0	-1	1000
9651475	7875	950	0	-100	0	230	101300000	1000	0	0	-1	1000
9664035	7884	949	0	-100	0	230	101300000	1000	0	0	-1	1000
9676595	7865	952	0	-100	0	230	101300000	1000	0	0	-1	1000
9689155	7878	955	0	-100	0	230	101300000	1000	0	0	-1	1000
9701715	7875	936	0	-100	0	230	101300000	1000	0	0	-1	1000
9714275	7877	957	0	-100	0	230	101300000	1000	0	0	-1	1000
9726835	7862	958	0	-100	0	230	101300000	1000	0	0	-1	1000
9739395	7860	958	0	-100	0	230	101300000	1000	0	0	-1	1000
9751955	7867	955	0	-100	0	230	101300000	1000	0	0	-1	1000
9764515	7872	955	0	-100	0	230	101300000	1000	0	0	-1	1000
9777075	7881	952	0	-100	0	230	101300000	1000	0	0	-1	1000
9789635	7884	952	0	-100	0	230	101300000	1000	0	0	-1	1000
9802195	7858	956	0	-100	0	230	101300000	1000	0	0	-1	1000
9814755	7884	953	0	-100	0	230	101300000	1000	0	0	-1	1000
9827315	7887	953	0	-100	0	230	101300000	1000	0	0	-1	1000
9839875	7889	956	0	-100	0	230	101300000	1000	0	0	-1	1000
9852435	7881	953	0	-100	0	230	101300000	1000	0	0	-1	1000
9864995	7875	957	0	-100	0	230	101300000	1000	0	0	-1	1000
9877555	7878	946	0	-100	0	230	101300000	1000	0	0	-1	1000
9890115	7867	953	0	-100	0	230	101300000	1000	0	0	-1	1000
9902675	7872	952	0	-100	0	230	101300000	1000	0	0	-1	1000
9915235	7863	948	0	-100	0	230	101300000	1000	0	0	-1	1000
9927795	7877	954	0	-100	0	230	101300000	1000	0	0	-1	1000
9940355	7870	957	0	-100	0	230	101300000	1000	0	0	-1	1000
9952915	7888	953	0	-100	0	230	101300000	1000	0	0	-1	1000
9965475	7868	949	0	-100	0	230	101300000	1000	0	0	-1	1000
9978035	7881	956	0	-100	0	230	101300000	1000	0	0	-1	1000
9990595	7872	950	0	-100	0	230	101300000	1000	0	0	-1	1000
10003155	7875	953	0	-100	0	230	101300000	1000	0	0	-1	1000
10015715	7894	956	0	-100	0	230	101300000	1000	0	0	-1	1000
10028275	7879	956	0	-100	0	230	101300000	1000	0	0	-1	1000
10040835	7879	953	0	-100	0	230	101300000	1000	0	0	-1	1000
10053395	7891	952	0	-100	0	230	101300000	1000	0	0	-1	1000
10065955	7875	954	0	-100	0	230	101300000	1000	0	0	-1	1000
10078515	7881	956	0	-100	0	230	101300000	1000	0	0	-1	1000
10091075	7871	952	0	-100	0	230	101300000	1000	0	0	-1	1000
10103635	7851	956	0	-100	0	230	101300000	1000	0	0	-1	1000
10116195	7872	956	0	-100	0	230	101300000	1000	0	0	-1	1000
10128755	7880	950	0	-100	0	230	101300000	1000	0	0	-1	1000
10141315	7887	952	0	-100	0	230	101300000	1000	0	0	-1	1000
10153875	7874	953	0	-100	0	230	101300000	1000	0	0	-1	1000
10166435	7898	954	0	-100	0	230	101300000	1000	0	0	-1	1000
10178995	7877	954	0	-100	0	230	101300000	1000	0	0	-1	1000
10191555	7871	954	0	-100	0	230	101300000	1000	0	0	-1	1000
10204115	7891	956	0	-100	0	230	101300000	1000	0	0	-1	1000
10216675	7872	952	0	-100	0	230	101300000	1000	0	0	-1	1000
10229235	7862	956	0	-100	0	230	101300000	1000	0	0	-1	1000
10241795	7880	946	0	-100	0	230	101300000	1000	0	0	-1	1000
10254355	7860	956	0	-100	0	230	101300000	1000	0	0	-1	1000
10266915	7889	945	0	-100	0	230	101300000	1000	0	0	-1	1000
10279475	7881	952	0	-100	0	230	101300000	1000	0	0	-1	1000
10292035	7881	953	0	-100	0	230	101300000	1000	0	0	-1	1000
10304595	7872	954	0	-100	0	230	101300000	1000	0	0	-1	1000
10317155	7857	954	0	-100	0	230	101300000	1000	0	0	-1	1000
10329715	7872	952	0	-100	0	230	101300000	1000	0	0	-1	1000
10342275	7879	956	0	-100	0	230	101300000	1000	0	0	-1	1000
10354835	7884	951	0	-100	0	230	101300000	1000	0	0	-1	1000
10367395	7865	954	0	-100	0	230	101300000	1000	0	0	-1	1000
10379955	7884	953	0	-100	0	230	101300000	1000	0	0	-1	1000
10392515	7889	956	0	-100	0	230	101300000	1000	0	0	-1	1000
10405075	7883	956	0	-100	0	230	101300000	1000	0	0	-1	1000
10417635	7870	958	0	-100	0	230	101300000	1000	0	0	-1	1000
10430195	7867	953	0	-100	0	230	101300000	1000	0	0	-1	1000
10442755	7874	948	0	-100	0	230	101300000	1000	0	0	-1	1000
10455315	7888	955	0	-100	0	230	101300000	1000	0	0	-1	1000
10467875	7879	956	0	-100	0	230	101300000	1000	0	0	-1	1000
10480435	7888	951	0	-100	0	230	101300000	1000	0	0	-1	1000
10492995	7865	934	0	-100	0	230	101300000	1000	0	0	-1	1000
10505555	7886	950	0	-100	0	230	101300000	1000	0	0	-1	1000
10518115	7877	952	0	-100	0	230	101300000	1000	0	0	-1	1000
10530675	7872	953	0	-100	0	230	101300000	1000	0	0	-1	1000
10543235	7872	955	0	-100	0	230	101300000	1000	0	0	-1	1000
10555795	7877	952	0	-100	0	230	101300000	1000	0	0	-1	1000
10568355	7881	953	0	-100	0	230	101300000	1000	0	0	-1	1000
10580915	7867	957	0	-100	0	230	101300000	1000	0	0	-1	1000
10593475	7884	952	0	-100	0	230	101300000	1000	0	0	-1	1000
10606035	7868	956	0	-100	0	230	101300000	1000	0	0	-1	1000
10618595	7886	953	0	-100	0	230	101300000	1000	0	0	-1	1000
10631155	7867	953	0	-100	0	230	101300000	1000	0	0	-1	1000
10643715	7874	952	0	-100	0	230	101300000	1000	0	0	-1	1000
10656275	7870	954	0	-100	0	230	101300000	1000	0	0	-1	1000
10668835	7884	953	0	-100	0	230	101300000	1000	0	0	-1	1000
10681395	7880	955	0	-100	0	230	101300000	1000	0	0	-1	1000
10693955	7881	953	0	-100	0	230	101300000	1000	0	0	-1	1000
10706515	7879	953	0	-100	0	230	101300000	1000	0	0	-1	1000
10719075	7877	952	0	-100	0	230	101300000	1000	0	0	-1	1000
10731635	7871	954	0	-100	0	230	101300000	1000	0	0	-1	1000
10744195	7868	959	0	-100	0	230	101300000	1000	0	0	-1	1000
10756755	7884	954	0	-100	0	230	101300000	1000	0	0	-1	1000
10769315	7886	952	0	-100	0	230	101300000	1000	0	0	-1	1000
10781875	7887	956	0	-100	0	230	101300000	1000	0	0	-1	1000
10794435	7872	959	0	-100	0	230	101300000	1000	0	0	-1	1000
10806995	7863	953	0	-100	0	230	101300000	1000	0	0	-1	1000
10819555	7879	956	0	-100	0	230	101300000	1000	0	0	-1	1000
10832115	7894	956	0	-100	0	230	101300000	1000	0	0	-1	1000
10844675	7881	953	0	-100	0	230	101300000	1000	0	0	-1	1000
10857235	7884	954	0	-100	0	230	101300000	1000	0	0	-1	1000
10869795	7888	950	0	-100	0	230	101300000	1000	0	0	-1	1000
10882355	7867	960	0	-100	0	230	101300000	1000	0	0	-1	1000
10894915	7877	953	0	-100	0	230	101300000	1000	0	0	-1	1000
10907475	7881	964	0	-100	0	230	101300000	1000	0	0	-1	1000
10920035	7882	950	0	-100	0	230	101300000	1000	0	0	-1	1000
10932595	7875	948	0	-100	0	230	101300000	1000	0	0	-1	1000
10945155	7867	959	0	-100	0	230	101300000	1000	0	0	-1	1000
10957715	7886	950	0	-100	0	230	101300000	1000	0	0	-1	1000
10970275	7881	956	0	-100	0	230	101300000	1000	0	0	-1	1000
10982835	7875	956	0	-100	0	230	101300000	1000	0	0	-1	1000
10995395	7884	957	0	-100	0	230	101300000	1000	0	0	-1	1000
11007955	7884	958	0	-100	0	230	101300000	1000	0	0	-1	1000
11020515	7901	952	0	-100	0	230	101300000	1000	0	0	-1	1000
11033075	7872	956	0	-100	0	230	101300000	1000	0	0	-1	1000
11045635	7889	955	0	-100	0	230	101300000	1000	0	0	-1	1000
11058195	7869	957	0	-100	0	230	101300000	1000	0	0	-1	1000
11070755	7882	957	0	-100	0	230	101300000	1000	0	0	-1	1000
11083315	7879	958	0	-100	0	230	101300000	1000	0	0	-1	1000
11095875	7879	952	0	-100	0	230	101300000	1000	0	0	-1	1000
11108435	7878	953	0	-100	0	230	101300000	1000	0	0	-1	1000
11120995	7870	963	0	-100	0	230	101300000	1000	0	0	-1	1000
11133555	7875	954	0	-100	0	230	101300000	1000	0	0	-1	1000
11146115	7877	952	0	-100	0	230	101300000	1000	0	0	-1	1000
11158675	7868	958	0	-100	0	230	101300000	1000	0	0	-1	1000
11171235	7879	955	0	-100	0	230	101300000	1000	0	0	-1	1000
11183795	7876	951	0	-100	0	230	101300000	1000	0	0	-1	1000
11196355	7870	938	0	-100	0	230	101300000	1000	0	0	-1	1000
11208915	7875	955	0	-100	0	230	101300000	1000	0	0	-1	1000
11221475	7876	944	0	-100	0	230	101300000	1000	0	0	-1	1000
11234035	7879	953	0	-100	0	230	101300000	1000	0	0	-1	1000
11246595	7874	955	0	-100	0	230	101300000	1000	0	0	-1	1000
11259155	7877	957	0	-100	0	230	101300000	1000	0	0	-1	1000
11271715	7891	952	0	-100	0	230	101300000	1000	0	0	-1	1000
11284275	7884	954	0	-100	0	230	101300000	1000	0	0	-1	1000
11296835	7879	952	0	-100	0	230	101300000	1000	0	0	-1	1000
11309395	7864	956	0	-100	0	230	101300000	1000	0	0	-1	1000
11321955	7878	949	0	-100	0	230	101300000	1000	0	0	-1	1000
11334515	7871	955	0	-100	0	230	101300000	1000	0	0	-1	1000
11347075	7867	959	0	-100	0	230	101300000	1000	0	0	-1	1000
11359635	7887	958	0	-100	0	230	101300000	1000	0	0	-1	1000
11372195	7869	958	0	-100	0	230	101300000	1000	0	0	-1	1000
11384755	7885	955	0	-100	0	230	101300000	1000	0	0	-1	1000
11397315	7888	956	0	-100	0	230	101300000	1000	0	0	-1	1000
11409875	7870	957	0	-100	0	230	101300000	1000	0	0	-1	1000
11422435	7880	957	0	-100	0	230	101300000	1000	0	0	-1	1000
11434995	7864	957	0	-100	0	230	101300000	1000	0	0	-1	1000
11447555	7882	953	0	-100	0	230	101300000	1000	0	0	-1	1000
11460115	7884	956	0	-100	0	230	101300000	1000	0	0	-1	1000
11472675	7873	962	0	-100	0	230	101300000	1000	0	0	-1	1000
11485235	7882	952	0	-100	0	230	101300000	1000	0	0	-1	1000
11497795	7884	953	0	-100	0	230	101300000	1000	0	0	-1	1000
11510355	7891	956	0	-100	0	230	101300000	1000	0	0	-1	1000
11522915	7877	953	0	-100	0	230	101300000	1000	0	0	-1	1000
11535475	7865	956	0	-100	0	230	101300000	1000	0	0	-1	1000
11548035	7882	949	0	-100	0	230	101300000	1000	0	0	-1	1000
11560595	7877	954	0	-100	0	230	101300000	1000	0	0	-1	1000
11573155	7858	938	0	-100	0	230	101300000	1000	0	0	-1	1000
11585715	7889	943	0	-100	0	230	101300000	1000	0	0	-1	1000
11598275	7887	958	0	-100	0	230	101300000	1000	0	0	-1	1000
11610835	7870	941	0	-100	0	230	101300000	1000	0	0	-1	1000
11623395	7882	946	0	-100	0	230	101300000	1000	0	0	-1	1000
11635955	7889	952	0	-100	0	230	101300000	1000	0	0	-1	1000
11648515	7865	959	0	-100	0	230	101300000	1000	0	0	-1	1000
11661075	7872	956	0	-100	0	230	101300000	1000	0	0	-1	1000
11673635	7889	952	0	-100	0	230	101300000	1000	0	0	-1	1000
11686195	7875	959	0	-100	0	230	101300000	1000	0	0	-1	1000
11698755	7882	956	0	-100	0	230	101300000	1000	0	0	-1	1000
11711315	7898	956	0	-100	0	230	101300000	1000	0	0	-1	1000
11723875	7869	945	0	-100	0	230	101300000	1000	0	0	-1	1000
11736435	7886	958	0	-100	0	230	101300000	1000	0	0	-1	1000
11748995	7880	956	0	-100	0	230	101300000	1000	0	0	-1	1000
11761555	7872	957	0	-100	0	230	101300000	1000	0	0	-1	1000
11774115	7879	961	0	-100	0	230	101300000	1000	0	0	-1	1000
11786675	7875	950	0	-100	0	230	101300000	1000	0	0	-1	1000
11799235	7865	960	0	-100	0	230	101300000	1000	0	0	-1	1000
11811795	7899	957	0	-100	0	230	101300000	1000	0	0	-1	1000
11824355	7886	953	0	-100	0	230	101300000	1000	0	0	-1	1000
11836915	7884	956	0	-100	0	230	101300000	1000	0	0	-1	1000
11849475	7879	953	0	-100	0	230	101300000	1000	0	0	-1	1000
11862035	7879	958	0	-100	0	230	101300000	1000	0	0	-1	1000
11874595	7888	964	0	-100	0	230	101300000	1000	0	0	-1	1000
11887155	7860	961	0	-100	0	230	101300000	1000	0	0	-1	1000
11899715	7870	954	0	-100	0	230	101300000	1000	0	0	-1	1000
11912275	7877	952	0	-100	0	230	101300000	1000	0	0	-1	1000
11924835	7877	952	0	-100	0	230	101300000	1000	0	0	-1	1000
11937395	7877	950	0	-100	0	230	101300000	1000	0	0	-1	1000
11949955	7872	955	0	-100	0	230	101300000	1000	0	0	-1	1000
11962515	7858	955	0	-100	0	230	101300000	1000	0	0	-1	1000
11975075	7882	955	0	-100	0	230	101300000	1000	0	0	-1	1000
11987635	7872	965	0	-100	0	230	101300000	1000	0	0	-1	1000
12000195	7880	939	0	-100	0	230	101300000	1000	0	0	-1	1000
12012755	7894	955	0	-100	0	230	101300000	1000	0	0	-1	1000
12025315	7886	954	0	-100	0	230	101300000	1000	0	0	-1	1000
12037875	7887	954	0	-100	0	230	101300000	1000	0	0	-1	1000
12050435	7872	958	0	-100	0	230	101300000	1000	0	0	-1	1000
12062995	7889	958	0	-100	0	230	101300000	1000	0	0	-1	1000
12075555	7882	952	0	-100	0	230	101300000	1000	0	0	-1	1000
12088115	7896	955	0	-100	0	230	101300000	1000	0	0	-1	1000
12100675	7889	953	0	-100	0	230	101300000	1000	0	0	-1	1000
12113235	7879	956	0	-100	0	230	101300000	1000	0	0	-1	1000
12125795	7886	955	0	-100	0	230	101300000	1000	0	0	-1	1000
12138355	7870	955	0	-100	0	230	101300000	1000	0	0	-1	1000
12150915	7872	961	0	-100	0	230	101300000	1000	0	0	-1	1000
12163475	7884	954	0	-100	0	230	101300000	1000	0	0	-1	1000
12176035	7872	956	0	-100	0	230	101300000	1000	0	0	-1	1000
12188595	7877	956	0	-100	0	230	101300000	1000	0	0	-1	1000
12201155	7889	954	0	-100	0	230	101300000	1000	0	0	-1	1000
12213715	7877	961	0	-100	0	230	101300000	1000	0	0	-1	1000
12226275	7877	961	0	-100	0	230	101300000	1000	0	0	-1	1000
12238835	7889	956	0	-100	0	230	101300000	1000	0	0	-1	1000
12251395	7882	959	0	-100	0	230	101300000	1000	0	0	-1	1000
12263955	7884	956	0	-100	0	230	101300000	1000	0	0	-1	1000
12276515	7877	956	0	-100	0	230	101300000	1000	0	0	-1	1000
12289075	7875	950	0	-100	0	230	101300000	1000	0	0	-1	1000
12301635	7877	959	0	-100	0	230	101300000	1000	0	0	-1	1000
12314195	7875	959	0	-100	0	230	101300000	1000	0	0	-1	1000
12326755	7893	946	0	-100	0	230	101300000	1000	0	0	-1	1000
12339315	7876	961	0	-100	0	230	101300000	1000	0	0	-1	1000
12351875	7881	954	0	-100	0	230	101300000	1000	0	0	-1	1000
12364435	7872	957	0	-100	0	230	101300000	1000	0	0	-1	1000
12376995	7860	950	0	-100	0	230	101300000	1000	0	0	-1	1000
12389555	7875	956	0	-100	0	230	101300000	1000	0	0	-1	1000
12402115	7881	951	0	-100	0	230	101300000	1000	0	0	-1	1000
12414675	7874	956	0	-100	0	230	101300000	1000	0	0	-1	1000
12427235	7883	952	0	-100	0	230	101300000	1000	0	0	-1	1000
12439795	7882	956	0	-100	0	230	101300000	1000	0	0	-1	1000
12452355	7889	952	0	-100	0	230	101300000	1000	0	0	-1	1000
12464915	7862	953	0	-100	0	230	101300000	1000	0	0	-1	1000
12477475	7870	954	0	-100	0	230	101300000	1000	0	0	-1	1000
12490035	7884	953	0	-100	0	230	101300000	1000	0	0	-1	1000
12502595	7877	957	0	-100	0	230	101300000	1000	0	0	-1	1000
12515155	7877	956	0	-100	0	230	101300000	1000	0	0	-1	1000
12527715	7870	953	0	-100	0	230	101300000	1000	0	0	-1	1000
12540275	7891	953	0	-100	0	230	101300000	1000	0	0	-1	1000
12552835	7879	953	0	-100	0	230	101300000	1000	0	0	-1	1000
12565395	7891	958	0	-100	0	230	101300000	1000	0	0	-1	1000
12577955	7865	959	0	-100	0	230	101300000	1000	0	0	-1	1000
12590515	7887	959	0	-100	0	230	101300000	1000	0	0	-1	1000
12603075	7879	960	0	-100	0	230	101300000	1000	0	0	-1	1000
12615635	7872	952	0	-100	0	230	101300000	1000	0	0	-1	1000
12628195	7875	956	0	-100	0	230	101300000	1000	0	0	-1	1000
12640755	7872	957	0	-100	0	230	101300000	1000	0	0	-1	1000
12653315	7889	953	0	-100	0	230	101300000	1000	0	0	-1	1000
12665875	7877	957	0	-100	0	230	101300000	1000	0	0	-1	1000
12678435	7860	956	0	-100	0	230	101300000	1000	0	0	-1	1000
12690995	7879	957	0	-100	0	230	101300000	1000	0	0	-1	1000
12703555	7879	954	0	-100	0	230	101300000	1000	0	0	-1	1000
12716115	7906	952	0	-100	0	230	101300000	1000	0	0	-1	1000
12728675	7877	956	0	-100	0	230	101300000	1000	0	0	-1	1000
12741235	7867	959	0	-100	0	230	101300000	1000	0	0	-1	1000
12753795	7882	960	0	-100	0	230	101300000	1000	0	0	-1	1000
12766355	7889	957	0	-100	0	230	101300000	1000	0	0	-1	1000
12778915	7872	953	0	-100	0	230	101300000	1000	0	0	-1	1000
12791475	7877	958	0	-100	0	230	101300000	1000	0	0	-1	1000
12804035	7874	955	0	-100	0	230	101300000	1000	0	0	-1	1000
12816595	7878	956	0	-100	0	230	101300000	1000	0	0	-1	1000
12829155	7891	955	0	-100	0	230	101300000	1000	0	0	-1	1000
12841715	7886	956	0	-100	0	230	101300000	1000	0	0	-1	1000
12854275	7884	954	0	-100	0	230	101300000	1000	0	0	-1	1000
12866835	7874	953	0	-100	0	230	101300000	1000	0	0	-1	1000
12879395	7879	955	0	-100	0	230	101300000	1000	0	0	-1	1000
12891955	7876	963	0	-100	0	230	101300000	1000	0	0	-1	1000
12904515	7853	960	0	-100	0	230	101300000	1000	0	0	-1	1000
12917075	7883	952	0	-100	0	230	101300000	1000	0	0	-1	1000
12929635	7887	958	0	-100	0	230	101300000	1000	0	0	-1	1000
12942195	7872	959	0	-100	0	230	101300000	1000	0	0	-1	1000
12954755	7878	965	0	-100	0	230	101300000	1000	0	0	-1	1000
12967315	7888	961	0	-100	0	230	101300000	1000	0	0	-1	1000
12979875	7873	955	0	-100	0	230	101300000	1000	0	0	-1	1000
12992435	7870	951	0	-100	0	230	101300000	1000	0	0	-1	1000
13004995	7883	959	0	-100	0	230	101300000	1000	0	0	-1	1000
13017555	7886	951	0	-100	0	230	101300000	1000	0	0	-1	1000
13030115	7882	964	0	-100	0	230	101300000	1000	0	0	-1	1000
13042675	7869	957	0	-100	0	230	101300000	1000	0	0	-1	1000
13055235	7872	954	0	-100	0	230	101300000	1000	0	0	-1	1000
13067795	7865	950	0	-100	0	230	101300000	1000	0	0	-1	1000
13080355	7870	950	0	-100	0	230	101300000	1000	0	0	-1	1000
13092915	7867	958	0	-100	0	230	101300000	1000	0	0	-1	1000
13105475	7858	943	0	-100	0	230	101300000	1000	0	0	-1	1000
13118035	7877	953	0	-100	0	230	101300000	1000	0	0	-1	1000
13130595	7891	956	0	-100	0	230	101300000	1000	0	0	-1	1000
13143155	7873	960	0	-100	0	230	101300000	1000	0	0	-1	1000
13155715	7877	959	0	-100	0	230	101300000	1000	0	0	-1	1000
13168275	7862	957	0	-100	0	230	101300000	1000	0	0	-1	1000
13180835	7882	954	0	-100	0	230	101300000	1000	0	0	-1	1000
13193395	7872	954	0	-100	0	230	101300000	1000	0	0	-1	1000
13205955	7875	953	0	-100	0	230	101300000	1000	0	0	-1	1000
13218515	7889	951	0	-100	0	230	101300000	1000	0	0	-1	1000
13231075	7896	953	0	-100	0	230	101300000	1000	0	0	-1	1000
13243635	7867	958	0	-100	0	230	101300000	1000	0	0	-1	1000
13256195	7867	956	0	-100	0	230	101300000	1000	0	0	-1	1000
13268755	7875	955	0	-100	0	230	101300000	1000	0	0	-1	1000
13281315	7886	956	0	-100	0	230	101300000	1000	0	0	-1	1000
13293875	7884	955	0	-100	0	230	101300000	1000	0	0	-1	1000
13306435	7863	957	0	-100	0	230	101300000	1000	0	0	-1	1000
13318995	7862	961	0	-100	0	230	101300000	1000	0	0	-1	1000
13331555	7872	956	0	-100	0	230	101300000	1000	0	0	-1	1000
13344115	7898	961	0	-100	0	230	101300000	1000	0	0	-1	1000
13356675	7872	960	0	-100	0	230	101300000	1000	0	0	-1	1000
13369235	7884	957	0	-100	0	230	101300000	1000	0	0	-1	1000
13381795	7875	958	0	-100	0	230	101300000	1000	0	0	-1	1000
13394355	7881	960	0	-100	0	230	101300000	1000	0	0	-1	1000
13406915	7874	958	0	-100	0	230	101300000	1000	0	0	-1	1000
13419475	7875	949	0	-100	0	230	101300000	1000	0	0	-1	1000
13432035	7875	954	0	-100	0	230	101300000	1000	0	0	-1	1000
13444595	7870	956	0	-100	0	230	101300000	1000	0	0	-1	1000
13457155	7881	959	0	-100	0	230	101300000	1000	0	0	-1	1000
13469715	7877	957	0	-100	0	230	101300000	1000	0	0	-1	1000
13482275	7870	953	0	-100	0	230	101300000	1000	0	0	-1	1000
13494835	7875	954	0	-100	0	230	101300000	1000	0	0	-1	1000
13507395	7865	957	0	-100	0	230	101300000	1000	0	0	-1	1000
13519955	7887	956	0	-100	0	230	101300000	1000	0	0	-1	1000
13532515	7872	957	0	-100	0	230	101300000	1000	0	0	-1	1000
13545075	7868	956	0	-100	0	230	101300000	1000	0	0	-1	1000
13557635	7868	964	0	-100	0	230	101300000	1000	0	0	-1	1000
13570195	7874	954	0	-100	0	230	101300000	1000	0	0	-1	1000
13582755	7881	952	0	-100	0	230	101300000	1000	0	0	-1	1000
13595315	7886	957	0	-100	0	230	101300000	1000	0	0	-1	1000
13607875	7883	960	0	-100	0	230	101300000	1000	0	0	-1	1000
13620435	7884	960	0	-100	0	230	101300000	1000	0	0	-1	1000
13632995	7891	958	0	-100	0	230	101300000	1000	0	0	-1	1000
13645555	7873	955	0	-100	0	230	101300000	1000	0	0	-1	1000
13658115	7893	961	0	-100	0	230	101300000	1000	0	0	-1	1000
13670675	7870	952	0	-100	0	230	101300000	1000	0	0	-1	1000
13683235	7877	956	0	-100	0	230	101300000	1000	0	0	-1	1000
13695795	7872	958	0	-100	0	230	101300000	1000	0	0	-1	1000
13708355	7884	955	0	-100	0	230	101300000	1000	0	0	-1	1000
13720915	7882	956	0	-100	0	230	101300000	1000	0	0	-1	1000
13733475	7872	955	0	-100	0	230	101300000	1000	0	0	-1	1000
13746035	7879	961	0	-100	0	230	101300000	1000	0	0	-1	1000
13758595	7882	958	0	-100	0	230	101300000	1000	0	0	-1	1000
13771155	7873	956	0	-100	0	230	101300000	1000	0	0	-1	1000
13783715	7875	957	0	-100	0	230	101300000	1000	0	0	-1	1000
13796275	7872	961	0	-100	0	230	101300000	1000	0	0	-1	1000
13808835	7898	961	0	-100	0	230	101300000	1000	0	0	-1	1000
13821395	7881	961	0	-100	0	230	101300000	1000	0	0	-1	1000
13833955	7874	955	0	-100	0	230	101300000	1000	0	0	-1	1000
13846515	7870	959	0	-100	0	230	101300000	1000	0	0	-1	1000
13859075	7876	957	0	-100	0	230	101300000	1000	0	0	-1	1000
13871635	7877	957	0	-100	0	230	101300000	1000	0	0	-1	1000
13884195	7889	960	0	-100	0	230	101300000	1000	0	0	-1	1000
13896755	7884	955	0	-100	0	230	101300000	1000	0	0	-1	1000
13909315	7885	945	0	-100	0	230	101300000	1000	0	0	-1	1000
13921875	7887	954	0	-100	0	230	101300000	1000	0	0	-1	1000
13934435	7874	964	0	-100	0	230	101300000	1000	0	0	-1	1000
13946995	7886	961	0	-100	0	230	101300000	1000	0	0	-1	1000
13959555	7882	957	0	-100	0	230	101300000	1000	0	0	-1	1000
13972115	7879	960	0	-100	0	230	101300000	1000	0	0	-1	1000
13984675	7880	959	0	-100	0	230	101300000	1000	0	0	-1	1000
13997235	7865	955	0	-100	0	230	101300000	1000	0	0	-1	1000
14009795	7887	953	0	-100	0	230	101300000	1000	0	0	-1	1000
14022355	7882	958	0	-100	0	230	101300000	1000	0	0	-1	1000
14034915	7869	957	0	-100	0	230	101300000	1000	0	0	-1	1000
14047475	7876	957	0	-100	0	230	101300000	1000	0	0	-1	1000
14060035	7870	949	0	-100	0	230	101300000	1000	0	0	-1	1000
14072595	7872	957	0	-100	0	230	101300000	1000	0	0	-1	1000
14085155	7868	957	0	-100	0	230	101300000	1000	0	0	-1	1000
14097715	7877	958	0	-100	0	230	101300000	1000	0	0	-1	1000
14110275	7860	960	0	-100	0	230	101300000	1000	0	0	-1	1000
14122835	7896	953	0	-100	0	230	101300000	1000	0	0	-1	1000
14135395	7887	961	0	-100	0	230	101300000	1000	0	0	-1	1000
14147955	7872	962	0	-100	0	230	101300000	1000	0	0	-1	1000
14160515	7869	959	0	-100	0	230	101300000	1000	0	0	-1	1000
14173075	7865	964	0	-100	0	230	101300000	1000	0	0	-1	1000
14185635	7886	960	0	-100	0	230	101300000	1000	0	0	-1	1000
14198195	7891	956	0	-100	0	230	101300000	1000	0	0	-1	1000
14210755	7886	957	0	-100	0	230	101300000	1000	0	0	-1	1000
14223315	7891	964	0	-100	0	230	101300000	1000	0	0	-1	1000
14235875	7880	959	0	-100	0	230	101300000	1000	0	0	-1	1000
14248435	7867	953	0	-100	0	230	101300000	1000	0	0	-1	1000
14260995	7877	957	0	-100	0	230	101300000	1000	0	0	-1	1000
14273555	7884	957	0	-100	0	230	101300000	1000	0	0	-1	1000
14286115	7888	958	0	-100	0	230	101300000	1000	0	0	-1	1000
14298675	7879	960	0	-100	0	230	101300000	1000	0	0	-1	1000
14311235	7880	953	0	-100	0	230	101300000	1000	0	0	-1	1000
14323795	7870	955	0	-100	0	230	101300000	1000	0	0	-1	1000
14336355	7863	953	0	-100	0	230	101300000	1000	0	0	-1	1000
14348915	7869	956	0	-100	0	230	101300000	1000	0	0	-1	1000
14361475	7879	955	0	-100	0	230	101300000	1000	0	0	-1	1000
14374035	7875	955	0	-100	0	230	101300000	1000	0	0	-1	1000
14386595	7889	954	0	-100	0	230	101300000	1000	0	0	-1	1000
14399155	7878	959	0	-100	0	230	101300000	1000	0	0	-1	1000
14411715	7872	958	0	-100	0	230	101300000	1000	0	0	-1	1000
14424275	7879	958	0	-100	0	230	101300000	1000	0	0	-1	1000
14436835	7889	944	0	-100	0	230	101300000	1000	0	0	-1	1000
14449395	7873	952	0	-100	0	230	101300000	1000	0	0	-1	1000
14461955	7893	959	0	-100	0	230	101300000	1000	0	0	-1	1000
14474515	7887	950	0	-100	0	230	101300000	1000	0	0	-1	1000
14487075	7870	955	0	-100	0	230	101300000	1000	0	0	-1	1000
14499635	7870	954	0	-100	0	230	101300000	1000	0	0	-1	1000
14512195	7868	953	0	-100	0	230	101300000	1000	0	0	-1	1000
14524755	7874	955	0	-100	0	230	101300000	1000	0	0	-1	1000
14537315	7894	955	0	-100	0	230	101300000	1000	0	0	-1	1000
14549875	7872	956	0	-100	0	230	101300000	1000	0	0	-1	1000
14562435	7871	950	0	-100	0	230	101300000	1000	0	0	-1	1000
14574995	7884	955	0	-100	0	230	101300000	1000	0	0	-1	1000
14587555	7874	957	0	-100	0	230	101300000	1000	0	0	-1	1000
14600115	7875	961	0	-100	0	230	101300000	1000	0	0	-1	1000
14612675	7875	957	0	-100	0	230	101300000	1000	0	0	-1	1000
14625235	7865	959	0	-100	0	230	101300000	1000	0	0	-1	1000
14637795	7898	963	0	-100	0	230	101300000	1000	0	0	-1	1000
14650355	7872	959	0	-100	0	230	101300000	1000	0	0	-1	1000
14662915	7882	958	0	-100	0	230	101300000	1000	0	0	-1	1000
14675475	7884	957	0	-100	0	230	101300000	1000	0	0	-1	1000
14688035	7862	958	0	-100	0	230	101300000	1000	0	0	-1	1000
14700595	7875	960	0	-100	0	230	101300000	1000	0	0	-1	1000
14713155	7881	950	0	-100	0	230	101300000	1000	0	0	-1	1000
14725715	7866	959	0	-100	0	230	101300000	1000	0	0	-1	1000
14738275	7876	957	0	-100	0	230	101300000	1000	0	0	-1	1000
14750835	7886	961	0	-100	0	230	101300000	1000	0	0	-1	1000
14763395	7870	960	0	-100	0	230	101300000	1000	0	0	-1	1000
14775955	7888	958	0	-100	0	230	101300000	1000	0	0	-1	1000
14788515	7891	958	0	-100	0	230	101300000	1000	0	0	-1	1000
14801075	7872	955	0	-100	0	230	101300000	1000	0	0	-1	1000
14813635	7867	955	0	-100	0	230	101300000	1000	0	0	-1	1000
14826195	7881	960	0	-100	0	230	101300000	1000	0	0	-1	1000
14838755	7875	954	0	-100	0	230	101300000	1000	0	0	-1	1000
14851315	7887	961	0	-100	0	230	101300000	1000	0	0	-1	1000
14863875	7884	957	0	-100	0	230	101300000	1000	0	0	-1	1000
14876435	7868	959	0	-100	0	230	101300000	1000	0	0	-1	1000
14888995	7880	957	0	-100	0	230	101300000	1000	0	0	-1	1000
14901555	7894	951	0	-100	0	230	101300000	1000	0	0	-1	1000
14914115	7879	956	0	-100	0	230	101300000	1000	0	0	-1	1000
14926675	7877	958	0	-100	0	230	101300000	1000	0	0	-1	1000
14939235	7875	956	0	-100	0	230	101300000	1000	0	0	-1	1000
14951795	7882	959	0	-100	0	230	101300000	1000	0	0	-1	1000
14964355	7871	937	0	-100	0	230	101300000	1000	0	0	-1	1000
14976915	7870	956	0	-100	0	230	101300000	1000	0	0	-1	1000
14989475	7874	959	0	-100	0	230	101300000	1000	0	0	-1	1000
15002035	7870	960	0	-100	0	230	101300000	1000	0	0	-1	1000
15014595	7873	962	0	-100	0	230	101300000	1000	0	0	-1	1000
15027155	7879	960	0	-100	0	230	101300000	1000	0	0	-1	1000
15039715	7877	962	0	-100	0	230	101300000	1000	0	0	-1	1000
15052275	7875	957	0	-100	0	230	101300000	1000	0	0	-1	1000
15064835	7865	955	0	-100	0	230	101300000	1000	0	0	-1	1000
15077395	7893	961	0	-100	0	230	101300000	1000	0	0	-1	1000
15089955	7874	954	0	-100	0	230	101300000	1000	0	0	-1	1000
15102515	7877	959	0	-100	0	230	101300000	1000	0	0	-1	1000
15115075	7884	956	0	-100	0	230	101300000	1000	0	0	-1	1000
15127635	7891	957	0	-100	0	230	101300000	1000	0	0	-1	1000
15140195	7894	954	0	-100	0	230	101300000	1000	0	0	-1	1000
15152755	7881	959	0	-100	0	230	101300000	1000	0	0	-1	1000
15165315	7872	954	0	-100	0	230	101300000	1000	0	0	-1	1000
15177875	7872	957	0	-100	0	230	101300000	1000	0	0	-1	1000
15190435	7875	956	0	-100	0	230	101300000	1000	0	0	-1	1000
15202995	7874	957	0	-100	0	230	101300000	1000	0	0	-1	1000
15215555	7864	957	0	-100	0	230	101300000	1000	0	0	-1	1000
15228115	7886	959	0	-100	0	230	101300000	1000	0	0	-1	1000
15240675	7884	959	0	-100	0	230	101300000	1000	0	0	-1	1000
15253235	7867	956	0	-100	0	230	101300000	1000	0	0	-1	1000
15265795	7877	959	0	-100	0	230	101300000	1000	0	0	-1	1000
15278355	7877	958	0	-100	0	230	101300000	1000	0	0	-1	1000
15290915	7875	960	0	-100	0	230	101300000	1000	0	0	-1	1000
15303475	7884	957	0	-100	0	230	101300000	1000	0	0	-1	1000
15316035	7860	957	0	-100	0	230	101300000	1000	0	0	-1	1000
15328595	7879	957	0	-100	0	230	101300000	1000	0	0	-1	1000
15341155	7886	962	0	-100	0	230	101300000	1000	0	0	-1	1000
15353715	7877	957	0	-100	0	230	101300000	1000	0	0	-1	1000
15366275	7865	962	0	-100	0	230	101300000	1000	0	0	-1	1000
15378835	7886	961	0	-100	0	230	101300000	1000	0	0	-1	1000
15391395	7865	954	0	-100	0	230	101300000	1000	0	0	-1	1000
15403955	7874	960	0	-100	0	230	101300000	1000	0	0	-1	1000
15416515	7877	958	0	-100	0	230	101300000	1000	0	0	-1	1000
15429075	7875	957	0	-100	0	230	101300000	1000	0	0	-1	1000
15441635	7877	952	0	-100	0	230	101300000	1000	0	0	-1	1000
15454195	7872	960	0	-100	0	230	101300000	1000	0	0	-1	1000
15466755	7881	957	0	-100	0	230	101300000	1000	0	0	-1	1000
15479315	7898	957	0	-100	0	230	101300000	1000	0	0	-1	1000
15491875	7894	963	0	-100	0	230	101300000	1000	0	0	-1	1000
15504435	7875	960	0	-100	0	230	101300000	1000	0	0	-1	1000
15516995	7879	959	0	-100	0	230	101300000	1000	0	0	-1	1000
15529555	7885	952	0	-100	0	230	101300000	1000	0	0	-1	1000
15542115	7886	959	0	-100	0	230	101300000	1000	0	0	-1	1000
15554675	7884	959	0	-100	0	230	101300000	1000	0	0	-1	1000
15567235	7889	963	0	-100	0	230	101300000	1000	0	0	-1	1000
15579795	7892	957	0	-100	0	230	101300000	1000	0	0	-1	1000
15592355	7882	953	0	-100	0	230	101300000	1000	0	0	-1	1000
15604915	7886	961	0	-100	0	230	101300000	1000	0	0	-1	1000
15617475	7875	941	0	-100	0	230	101300000	1000	0	0	-1	1000
15630035	7880	955	0	-100	0	230	101300000	1000	0	0	-1	1000
15642595	7870	958	0	-100	0	230	101300000	1000	0	0	-1	1000
15655155	7871	961	0	-100	0	230	101300000	1000	0	0	-1	1000
15667715	7872	955	0	-100	0	230	101300000	1000	0	0	-1	1000
15680275	7872	957	0	-100	0	230	101300000	1000	0	0	-1	1000
15692835	7879	957	0	-100	0	230	101300000	1000	0	0	-1	1000
15705395	7872	958	0	-100	0	230	101300000	1000	0	0	-1	1000
15717955	7884	957	0	-100	0	230	101300000	1000	0	0	-1	1000
15730515	7884	960	0	-100	0	230	101300000	1000	0	0	-1	1000
15743075	7870	956	0	-100	0	230	101300000	1000	0	0	-1	1000
15755635	7882	961	0	-100	0	230	101300000	1000	0	0	-1	1000
15768195	7879	961	0	-100	0	230	101300000	1000	0	0	-1	1000
15780755	7894	956	0	-100	0	230	101300000	1000	0	0	-1	1000
15793315	7887	952	0	-100	0	230	101300000	1000	0	0	-1	1000
15805875	7884	958	0	-100	0	230	101300000	1000	0	0	-1	1000
15818435	7863	959	0	-100	0	230	101300000	1000	0	0	-1	1000
15830995	7884	959	0	-100	0	230	101300000	1000	0	0	-1	1000
15843555	7884	959	0	-100	0	230	101300000	1000	0	0	-1	1000
15856115	7903	960	0	-100	0	230	101300000	1000	0	0	-1	1000
15868675	7882	954	0	-100	0	230	101300000	1000	0	0	-1	1000
15881235	7877	966	0	-100	0	230	101300000	1000	0	0	-1	1000
15893795	7877	955	0	-100	0	230	101300000	1000	0	0	-1	1000
15906355	7874	961	0	-100	0	230	101300000	1000	0	0	-1	1000
15918915	7887	953	0	-100	0	230	101300000	1000	0	0	-1	1000
15931475	7872	960	0	-100	0	230	101300000	1000	0	0	-1	1000
15944035	7879	955	0	-100	0	230	101300000	1000	0	0	-1	1000
15956595	7867	957	0	-100	0	230	101300000	1000	0	0	-1	1000
15969155	7894	948	0	-100	0	230	101300000	1000	0	0	-1	1000
15981715	7867	954	0	-100	0	230	101300000	1000	0	0	-1	1000
15994275	7893	966	0	-100	0	230	101300000	1000	0	0	-1	1000
16006835	7879	960	0	-100	0	230	101300000	1000	0	0	-1	1000
16019395	7891	962	0	-100	0	230	101300000	1000	0	0	-1	1000
16031955	7887	963	0	-100	0	230	101300000	1000	0	0	-1	1000
16044515	7870	960	0	-100	0	230	101300000	1000	0	0	-1	1000
16057075	7879	956	0	-100	0	230	101300000	1000	0	0	-1	1000
16069635	7891	952	0	-100	0	230	101300000	1000	0	0	-1	1000
16082195	7884	962	0	-100	0	230	101300000	1000	0	0	-1	1000
16094755	7882	957	0	-100	0	230	101300000	1000	0	0	-1	1000
16107315	7884	960	0	-100	0	230	101300000	1000	0	0	-1	1000
16119875	7870	959	0	-100	0	230	101300000	1000	0	0	-1	1000
16132435	7880	949	0	-100	0	230	101300000	1000	0	0	-1	1000
16144995	7869	959	0	-100	0	230	101300000	1000	0	0	-1	1000
16157555	7889	956	0	-100	0	230	101300000	1000	0	0	-1	1000
16170115	7894	957	0	-100	0	230	101300000	1000	0	0	-1	1000
16182675	7898	953	0	-100	0	230	101300000	1000	0	0	-1	1000
16195235	7879	952	0	-100	0	230	101300000	1000	0	0	-1	1000
16207795	7881	962	0	-100	0	230	101300000	1000	0	0	-1	1000
16220355	7877	959	0	-100	0	230	101300000	1000	0	0	-1	1000
16232915	7870	960	0	-100	0	230	101300000	1000	0	0	-1	1000
16245475	7875	957	0	-100	0	230	101300000	1000	0	0	-1	1000
16258035	7898	953	0	-100	0	230	101300000	1000	0	0	-1	1000
16270595	7870	957	0	-100	0	230	101300000	1000	0	0	-1	1000
16283155	7866	952	0	-100	0	230	101300000	1000	0	0	-1	1000
16295715	7884	959	0	-100	0	230	101300000	1000	0	0	-1	1000
16308275	7865	958	0	-100	0	230	101300000	1000	0	0	-1	1000
16320835	7874	962	0	-100	0	230	101300000	1000	0	0	-1	1000
16333395	7877	960	0	-100	0	230	101300000	1000	0	0	-1	1000
16345955	7876	963	0	-100	0	230	101300000	1000	0	0	-1	1000
16358515	7877	952	0	-100	0	230	101300000	1000	0	0	-1	1000
16371075	7884	961	0	-100	0	230	101300000	1000	0	0	-1	1000
16383635	7884	961	0	-100	0	230	101300000	1000	0	0	-1	1000
16396195	7889	959	0	-100	0	230	101300000	1000	0	0	-1	1000
16408755	7888	962	0	-100	0	230	101300000	1000	0	0	-1	1000
16421315	7869	957	0	-100	0	230	101300000	1000	0	0	-1	1000
16433875	7880	953	0	-100	0	230	101300000	1000	0	0	-1	1000
16446435	7886	955	0	-100	0	230	101300000	1000	0	0	-1	1000
16458995	7893	958	0	-100	0	230	101300000	1000	0	0	-1	1000
16471555	7874	960	0	-100	0	230	101300000	1000	0	0	-1	1000
16484115	7893	953	0	-100	0	230	101300000	1000	0	0	-1	1000
16496675	7867	964	0	-100	0	230	101300000	1000	0	0	-1	1000
16509235	7889	957	0	-100	0	230	101300000	1000	0	0	-1	1000
16521795	7879	958	0	-100	0	230	101300000	1000	0	0	-1	1000
16534355	7879	956	0	-100	0	230	101300000	1000	0	0	-1	1000
16546915	7884	966	0	-100	0	230	101300000	1000	0	0	-1	1000
16559475	7894	956	0	-100	0	230	101300000	1000	0	0	-1	1000
16572035	7868	955	0	-100	0	230	101300000	1000	0	0	-1	1000
16584595	7887	960	0	-100	0	230	101300000	1000	0	0	-1	1000
16597155	7870	954	0	-100	0	230	101300000	1000	0	0	-1	1000
16609715	7878	962	0	-100	0	230	101300000	1000	0	0	-1	1000
16622275	7870	962	0	-100	0	230	101300000	1000	0	0	-1	1000
16634835	7890	956	0	-100	0	230	101300000	1000	0	0	-1	1000
16647395	7863	966	0	-100	0	230	101300000	1000	0	0	-1	1000
16659955	7886	962	0	-100	0	230	101300000	1000	0	0	-1	1000
16672515	7891	961	0	-100	0	230	101300000	1000	0	0	-1	1000
16685075	7881	964	0	-100	0	230	101300000	1000	0	0	-1	1000
16697635	7879	954	0	-100	0	230	101300000	1000	0	0	-1	1000
16710195	7884	961	0	-100	0	230	101300000	1000	0	0	-1	1000
16722755	7901	961	0	-100	0	230	101300000	1000	0	0	-1	1000
16735315	7877	958	0	-100	0	230	101300000	1000	0	0	-1	1000
16747875	7894	955	0	-100	0	230	101300000	1000	0	0	-1	1000
16760435	7888	963	0	-100	0	230	101300000	1000	0	0	-1	1000
16772995	7872	957	0	-100	0	230	101300000	1000	0	0	-1	1000
16785555	7877	958	0	-100	0	230	101300000	1000	0	0	-1	1000
16798115	7884	956	0	-100	0	230	101300000	1000	0	0	-1	1000
16810675	7881	962	0	-100	0	230	101300000	1000	0	0	-1	1000
16823235	7867	957	0	-100	0	230	101300000	1000	0	0	-1	1000
16835795	7881	957	0	-100	0	230	101300000	1000	0	0	-1	1000
16848355	7882	955	0	-100	0	230	101300000	1000	0	0	-1	1000
16860915	7875	960	0	-100	0	230	101300000	1000	0	0	-1	1000
16873475	7879	957	0	-100	0	230	101300000	1000	0	0	-1	1000
16886035	7865	960	0	-100	0	230	101300000	1000	0	0	-1	1000
16898595	7879	951	0	-100	0	230	101300000	1000	0	0	-1	1000
16911155	7855	962	0	-100	0	230	101300000	1000	0	0	-1	1000
16923715	7870	959	0	-100	0	230	101300000	1000	0	0	-1	1000
16936275	7891	955	0	-100	0	230	101300000	1000	0	0	-1	1000
16948835	7865	959	0	-100	0	230	101300000	1000	0	0	-1	1000
16961395	7880	953	0	-100	0	230	101300000	1000	0	0	-1	1000
16973955	7882	950	0	-100	0	230	101300000	1000	0	0	-1	1000
16986515	7875	959	0	-100	0	230	101300000	1000	0	0	-1	1000
16999075	7865	960	0	-100	0	230	101300000	1000	0	0	-1	1000
17011635	7889	959	0	-100	0	230	101300000	1000	0	0	-1	1000
17024195	7886	954	0	-100	0	230	101300000	1000	0	0	-1	1000
17036755	7896	956	0	-100	0	230	101300000	1000	0	0	-1	1000
17049315	7898	954	0	-100	0	230	101300000	1000	0	0	-1	1000
17061875	7867	962	0	-100	0	230	101300000	1000	0	0	-1	1000
17074435	7874	960	0	-100	0	230	101300000	1000	0	0	-1	1000
17086995	7875	958	0	-100	0	230	101300000	1000	0	0	-1	1000
17099555	7879	956	0	-100	0	230	101300000	1000	0	0	-1	1000
17112115	7868	955	0	-100	0	230	101300000	1000	0	0	-1	1000
17124675	7884	956	0	-100	0	230	101300000	1000	0	0	-1	1000
17137235	7889	954	0	-100	0	230	101300000	1000	0	0	-1	1000
17149795	7879	956	0	-100	0	230	101300000	1000	0	0	-1	1000
17162355	7889	954	0	-100	0	230	101300000	1000	0	0	-1	1000
17174915	7872	959	0	-100	0	230	101300000	1000	0	0	-1	1000
17187475	7877	958	0	-100	0	230	101300000	1000	0	0	-1	1000
17200035	7889	957	0	-100	0	230	101300000	1000	0	0	-1	1000
17212595	7860	955	0	-100	0	230	101300000	1000	0	0	-1	1000
17225155	7877	957	0	-100	0	230	101300000	1000	0	0	-1	1000
17237715	7877	959	0	-100	0	230	101300000	1000	0	0	-1	1000
17250275	7882	962	0	-100	0	230	101300000	1000	0	0	-1	1000
17262835	7887	953	0	-100	0	230	101300000	1000	0	0	-1	1000
17275395	7882	956	0	-100	0	230	101300000	1000	0	0	-1	1000
17287955	7868	962	0	-100	0	230	101300000	1000	0	0	-1	1000
17300515	7886	956	0	-100	0	230	101300000	1000	0	0	-1	1000
17313075	7889	943	0	-100	0	230	101300000	1000	0	0	-1	1000
17325635	7874	959	0	-100	0	230	101300000	1000	0	0	-1	1000
17338195	7887	958	0	-100	0	230	101300000	1000	0	0	-1	1000
17350755	7886	957	0	-100	0	230	101300000	1000	0	0	-1	1000
17363315	7880	959	0	-100	0	230	101300000	1000	0	0	-1	1000
17375875	7884	963	0	-100	0	230	101300000	1000	0	0	-1	1000
17388435	7889	957	0	-100	0	230	101300000	1000	0	0	-1	1000
17400995	7879	964	0	-100	0	230	101300000	1000	0	0	-1	1000
17413555	7879	956	0	-100	0	230	101300000	1000	0	0	-1	1000
17426115	7894	953	0	-100	0	230	101300000	1000	0	0	-1	1000
17438675	7888	959	0	-100	0	230	101300000	1000	0	0	-1	1000
17451235	7873	960	0	-100	0	230	101300000	1000	0	0	-1	1000
17463795	7869	959	0	-100	0	230	101300000	1000	0	0	-1	1000
17476355	7889	952	0	-100	0	230	101300000	1000	0	0	-1	1000
17488915	7888	959	0	-100	0	230	101300000	1000	0	0	-1	1000
17501475	7872	956	0	-100	0	230	101300000	1000	0	0	-1	1000
17514035	7870	958	0	-100	0	230	101300000	1000	0	0	-1	1000
17526595	7891	956	0	-100	0	230	101300000	1000	0	0	-1	1000
17539155	7875	958	0	-100	0	230	101300000	1000	0	0	-1	1000
17551715	7869	955	0	-100	0	230	101300000	1000	0	0	-1	1000
17564275	7879	958	0	-100	0	230	101300000	1000	0	0	-1	1000
17576835	7860	960	0	-100	0	230	101300000	1000	0	0	-1	1000
17589395	7891	961	0	-100	0	230	101300000	1000	0	0	-1	1000
17601955	7882	957	0	-100	0	230	101300000	1000	0	0	-1	1000
17614515	7881	962	0	-100	0	230	101300000	1000	0	0	-1	1000
17627075	7879	958	0	-100	0	230	101300000	1000	0	0	-1	1000
17639635	7886	955	0	-100	0	230	101300000	1000	0	0	-1	1000
17652195	7893	960	0	-100	0	230	101300000	1000	0	0	-1	1000
17664755	7877	958	0	-100	0	230	101300000	1000	0	0	-1	1000
17677315	7886	956	0	-100	0	230	101300000	1000	0	0	-1	1000
17740115	7887	959	0	-100	0	230	101300000	1000	0	0	-1	1000
17752675	7879	961	0	-100	0	230	101300000	1000	0	0	-1	1000
17765235	7887	950	0	-100	0	230	101300000	1000	0	0	-1	1000
17777795	7882	954	0	-100	0	230	101300000	1000	0	0	-1	1000
17790355	7884	960	0	-100	0	230	101300000	1000	0	0	-1	1000
17802915	7882	953	0	-100	0	230	101300000	1000	0	0	-1	1000
17815475	7884	956	0	-100	0	230	101300000	1000	0	0	-1	1000
17828035	7873	956	0	-100	0	230	101300000	1000	0	0	-1	1000
17840595	7863	958	0	-100	0	230	101300000	1000	0	0	-1	1000
17853155	7876	958	0	-100	0	230	101300000	1000	0	0	-1	1000
17865715	7867	959	0	-100	0	230	101300000	1000	0	0	-1	1000
17878275	7881	959	0	-100	0	230	101300000	1000	0	0	-1	1000
17890835	7881	957	0	-100	0	230	101300000	1000	0	0	-1	1000
17903395	7887	958	0	-100	0	230	101300000	1000	0	0	-1	1000
17915955	7865	958	0	-100	0	230	101300000	1000	0	0	-1	1000
17928515	7869	955	0	-100	0	230	101300000	1000	0	0	-1	1000
17941075	7875	957	0	-100	0	230	101300000	1000	0	0	-1	1000
17953635	7882	956	0	-100	0	230	101300000	1000	0	0	-1	1000
17966195	7877	957	0	-100	0	230	101300000	1000	0	0	-1	1000
17978755	7888	963	0	-100	0	230	101300000	1000	0	0	-1	1000
17991315	7889	937	0	-100	0	230	101300000	1000	0	0	-1	1000
18003875	7875	956	0	-100	0	230	101300000	1000	0	0	-1	1000
18016435	7875	957	0	-100	0	230	101300000	1000	0	0	-1	1000
18028995	7884	957	0	-100	0	230	101300000	1000	0	0	-1	1000
18041555	7892	958	0	-100	0	230	101300000	1000	0	0	-1	1000
18054115	7888	957	0	-100	0	230	101300000	1000	0	0	-1	1000
18066675	7874	951	0	-100	0	230	101300000	1000	0	0	-1	1000
18079235	7884	952	0	-100	0	230	101300000	1000	0	0	-1	1000
18091795	7881	958	0	-100	0	230	101300000	1000	0	0	-1	1000
18104355	7874	958	0	-100	0	230	101300000	1000	0	0	-1	1000
18116915	7874	958	0	-100	0	230	101300000	1000	0	0	-1	1000
18129475	7872	962	0	-100	0	230	101300000	1000	0	0	-1	1000
18142035	7879	954	0	-100	0	230	101300000	1000	0	0	-1	1000
18154595	7853	965	0	-100	0	230	101300000	1000	0	0	-1	1000
18167155	7858	959	0	-100	0	230	101300000	1000	0	0	-1	1000
18179715	7879	963	0	-100	0	230	101300000	1000	0	0	-1	1000
18192275	7874	961	0	-100	0	230	101300000	1000	0	0	-1	1000
18204835	7869	958	0	-100	0	230	101300000	1000	0	0	-1	1000
18217395	7867	964	0	-100	0	230	101300000	1000	0	0	-1	1000
18229955	7883	959	0	-100	0	230	101300000	1000	0	0	-1	1000
18242515	7867	960	0	-100	0	230	101300000	1000	0	0	-1	1000
18255075	7881	959	0	-100	0	230	101300000	1000	0	0	-1	1000
18267635	7889	957	0	-100	0	230	101300000	1000	0	0	-1	1000
18280195	7874	958	0	-100	0	230	101300000	1000	0	0	-1	1000
18292755	7875	956	0	-100	0	230	101300000	1000	0	0	-1	1000
18305315	7881	955	0	-100	0	230	101300000	1000	0	0	-1	1000
18317875	7875	955	0	-100	0	230	101300000	1000	0	0	-1	1000
18330435	7877	957	0	-100	0	230	101300000	1000	0	0	-1	1000
18342995	7887	960	0	-100	0	230	101300000	1000	0	0	-1	1000
18355555	7872	956	0	-100	0	230	101300000	1000	0	0	-1	1000
18368115	7894	953	0	-100	0	230	101300000	1000	0	0	-1	1000
18380675	7860	957	0	-100	0	230	101300000	1000	0	0	-1	1000
18393235	7865	937	0	-100	0	230	101300000	1000	0	0	-1	1000
18405795	7868	959	0	-100	0	230	101300000	1000	0	0	-1	1000
18418355	7877	957	0	-100	0	230	101300000	1000	0	0	-1	1000
18430915	7894	960	0	-100	0	230	101300000	1000	0	0	-1	1000
18443475	7884	959	0	-100	0	230	101300000	1000	0	0	-1	1000
18456035	7886	961	0	-100	0	230	101300000	1000	0	0	-1	1000
18468595	7875	961	0	-100	0	230	101300000	1000	0	0	-1	1000
18481155	7881	958	0	-100	0	230	101300000	1000	0	0	-1	1000
18493715	7868	961	0	-100	0	230	101300000	1000	0	0	-1	1000
18506275	7865	965	0	-100	0	230	101300000	1000	0	0	-1	1000
18518835	7884	960	0	-100	0	230	101300000	1000	0	0	-1	1000
18531395	7874	962	0	-100	0	230	101300000	1000	0	0	-1	1000
18543955	7884	957	0	-100	0	230	101300000	1000	0	0	-1	1000
18556515	7867	956	0	-100	0	230	101300000	1000	0	0	-1	1000
18569075	7884	957	0	-100	0	230	101300000	1000	0	0	-1	1000
18581635	7872	956	0	-100	0	230	101300000	1000	0	0	-1	1000
18594195	7877	960	0	-100	0	230	101300000	1000	0	0	-1	1000
18606755	7894	955	0	-100	0	230	101300000	1000	0	0	-1	1000
18619315	7889	955	0	-100	0	230	101300000	1000	0	0	-1	1000
18631875	7878	957	0	-100	0	230	101300000	1000	0	0	-1	1000
18644435	7879	961	0	-100	0	230	101300000	1000	0	0	-1	1000
18656995	7872	958	0	-100	0	230	101300000	1000	0	0	-1	1000
18669555	7884	960	0	-100	0	230	101300000	1000	0	0	-1	1000
18682115	7895	959	0	-100	0	230	101300000	1000	0	0	-1	1000
18694675	7868	961	0	-100	0	230	101300000	1000	0	0	-1	1000
18707235	7875	961	0	-100	0	230	101300000	1000	0	0	-1	1000
18719795	7884	959	0	-100	0	230	101300000	1000	0	0	-1	1000
18732355	7886	960	0	-100	0	230	101300000	1000	0	0	-1	1000
18744915	7881	961	0	-100	0	230	101300000	1000	0	0	-1	1000
18757475	7889	956	0	-100	0	230	101300000	1000	0	0	-1	1000
18770035	7867	957	0	-100	0	230	101300000	1000	0	0	-1	1000
18782595	7886	942	0	-100	0	230	101300000	1000	0	0	-1	1000
18795155	7898	959	0	-100	0	230	101300000	1000	0	0	-1	1000
18807715	7891	958	0	-100	0	230	101300000	1000	0	0	-1	1000
18820275	7884	959	0	-100	0	230	101300000	1000	0	0	-1	1000
18832835	7891	959	0	-100	0	230	101300000	1000	0	0	-1	1000
18845395	7873	959	0	-100	0	230	101300000	1000	0	0	-1	1000
18857955	7870	958	0	-100	0	230	101300000	1000	0	0	-1	1000
18870515	7862	959	0	-100	0	230	101300000	1000	0	0	-1	1000
18883075	7879	959	0	-100	0	230	101300000	1000	0	0	-1	1000
18895635	7870	959	0	-100	0	230	101300000	1000	0	0	-1	1000
18908195	7869	962	0	-100	0	230	101300000	1000	0	0	-1	1000
18920755	7872	956	0	-100	0	230	101300000	1000	0	0	-1	1000
18933315	7896	958	0	-100	0	230	101300000	1000	0	0	-1	1000
18945875	7865	961	0	-100	0	230	101300000	1000	0	0	-1	1000
18958435	7869	962	0	-100	0	230	101300000	1000	0	0	-1	1000
18970995	7884	963	0	-100	0	230	101300000	1000	0	0	-1	1000
18983555	7870	964	0	-100	0	230	101300000	1000	0	0	-1	1000
18996115	7886	959	0	-100	0	230	101300000	1000	0	0	-1	1000
19008675	7870	956	0	-100	0	230	101300000	1000	0	0	-1	1000
19021235	7874	957	0	-100	0	230	101300000	1000	0	0	-1	1000
19033795	7867	960	0	-100	0	230	101300000	1000	0	0	-1	1000
19046355	7875	959	0	-100	0	230	101300000	1000	0	0	-1	1000
19058915	7870	959	0	-100	0	230	101300000	1000	0	0	-1	1000
19071475	7872	961	0	-100	0	230	101300000	1000	0	0	-1	1000
19084035	7891	960	0	-100	0	230	101300000	1000	0	0	-1	1000
19096595	7887	958	0	-100	0	230	101300000	1000	0	0	-1	1000
19109155	7870	943	0	-100	0	230	101300000	1000	0	0	-1	1000
19121715	7858	962	0	-100	0	230	101300000	1000	0	0	-1	1000
19134275	7877	961	0	-100	0	230	101300000	1000	0	0	-1	1000
19146835	7887	955	0	-100	0	230	101300000	1000	0	0	-1	1000
19159395	7889	955	0	-100	0	230	101300000	1000	0	0	-1	1000
19171955	7865	964	0	-100	0	230	101300000	1000	0	0	-1	1000
19184515	7884	959	0	-100	0	230	101300000	1000	0	0	-1	1000
19197075	7879	969	0	-100	0	230	101300000	1000	0	0	-1	1000
19209635	7893	959	0	-100	0	230	101300000	1000	0	0	-1	1000
19222195	7877	961	0	-100	0	230	101300000	1000	0	0	-1	1000
19234755	7864	963	0	-100	0	230	101300000	1000	0	0	-1	1000
19247315	7884	959	0	-100	0	230	101300000	1000	0	0	-1	1000
19259875	7875	953	0	-100	0	230	101300000	1000	0	0	-1	1000
19272435	7870	957	0	-100	0	230	101300000	1000	0	0	-1	1000
19284995	7874	942	0	-100	0	230	101300000	1000	0	0	-1	1000
19297555	7886	959	0	-100	0	230	101300000	1000	0	0	-1	1000
19310115	7901	956	0	-100	0	230	101300000	1000	0	0	-1	1000
19322675	7869	960	0	-100	0	230	101300000	1000	0	0	-1	1000
19335235	7865	959	0	-100	0	230	101300000	1000	0	0	-1	1000
19347795	7877	953	0	-100	0	230	101300000	1000	0	0	-1	1000
19360355	7871	955	0	-100	0	230	101300000	1000	0	0	-1	1000
19372915	7884	937	0	-100	0	230	101300000	1000	0	0	-1	1000
19385475	7887	959	0	-100	0	230	101300000	1000	0	0	-1	1000
19398035	7879	960	0	-100	0	230	101300000	1000	0	0	-1	1000
19410595	7867	960	0	-100	0	230	101300000	1000	0	0	-1	1000
19423155	7884	954	0	-100	0	230	101300000	1000	0	0	-1	1000
19435715	7855	959	0	-100	0	230	101300000	1000	0	0	-1	1000
19448275	7894	967	0	-100	0	230	101300000	1000	0	0	-1	1000
19460835	7872	957	0	-100	0	230	101300000	1000	0	0	-1	1000
19473395	7881	959	0	-100	0	230	101300000	1000	0	0	-1	1000
19485955	7887	956	0	-100	0	230	101300000	1000	0	0	-1	1000
19498515	7888	961	0	-100	0	230	101300000	1000	0	0	-1	1000
19511075	7884	960	0	-100	0	230	101300000	1000	0	0	-1	1000
19523635	7882	957	0	-100	0	230	101300000	1000	0	0	-1	1000
19536195	7881	958	0	-100	0	230	101300000	1000	0	0	-1	1000
19548755	7886	956	0	-100	0	230	101300000	1000	0	0	-1	1000
19561315	7893	957	0	-100	0	230	101300000	1000	0	0	-1	1000
19573875	7880	954	0	-100	0	230	101300000	1000	0	0	-1	1000
19586435	7867	959	0	-100	0	230	101300000	1000	0	0	-1	1000
19598995	7876	963	0	-100	0	230	101300000	1000	0	0	-1	1000
19611555	7891	956	0	-100	0	230	101300000	1000	0	0	-1	1000
19624115	7895	964	0	-100	0	230	101300000	1000	0	0	-1	1000
19636675	7877	956	0	-100	0	230	101300000	1000	0	0	-1	1000
19649235	7881	954	0	-100	0	230	101300000	1000	0	0	-1	1000
19661795	7871	963	0	-100	0	230	101300000	1000	0	0	-1	1000
19674355	7877	961	0	-100	0	230	101300000	1000	0	0	-1	1000
19686915	7870	958	0	-100	0	230	101300000	1000	0	0	-1	1000
19699475	7870	955	0	-100	0	230	101300000	1000	0	0	-1	1000
19712035	7882	956	0	-100	0	230	101300000	1000	0	0	-1	1000
19724595	7868	957	0	-100	0	230	101300000	1000	0	0	-1	1000
19737155	7877	958	0	-100	0	230	101300000	1000	0	0	-1	1000
19749715	7882	959	0	-100	0	230	101300000	1000	0	0	-1	1000
19762275	7884	960	0	-100	0	230	101300000	1000	0	0	-1	1000
19774835	7887	959	0	-100	0	230	101300000	1000	0	0	-1	1000
19787395	7884	956	0	-100	0	230	101300000	1000	0	0	-1	1000
19799955	7862	957	0	-100	0	230	101300000	1000	0	0	-1	1000
19812515	7873	955	0	-100	0	230	101300000	1000	0	0	-1	1000
19825075	7881	958	0	-100	0	230	101300000	1000	0	0	-1	1000
19837635	7877	959	0	-100	0	230	101300000	1000	0	0	-1	1000
19850195	7875	959	0	-100	0	230	101300000	1000	0	0	-1	1000
19862755	7868	958	0	-100	0	230	101300000	1000	0	0	-1	1000
19875315	7884	956	0	-100	0	230	101300000	1000	0	0	-1	1000
19887875	7863	954	0	-100	0	230	101300000	1000	0	0	-1	1000
19900435	7879	956	0	-100	0	230	101300000	1000	0	0	-1	1000
19912995	7893	960	0	-100	0	230	101300000	1000	0	0	-1	1000
19925555	7879	961	0	-100	0	230	101300000	1000	0	0	-1	1000
19938115	7893	959	0	-100	0	230	101300000	1000	0	0	-1	1000
19950675	7867	956	0	-100	0	230	101300000	1000	0	0	-1	1000
19963235	7884	959	0	-100	0	230	101300000	1000	0	0	-1	1000
19975795	7879	958	0	-100	0	230	101300000	1000	0	0	-1	1000
19988355	7860	956	0	-100	0	230	101300000	1000	0	0	-1	1000
20000915	7881	962	0	-100	0	230	101300000	1000	0	0	-1	1000
20013475	7865	958	0	-100	0	230	101300000	1000	0	0	-1	1000
20026035	7884	963	0	-100	0	230	101300000	1000	0	0	-1	1000
20038595	7886	959	0	-100	0	230	101300000	1000	0	0	-1	1000
20051155	7875	959	0	-100	0	230	101300000	1000	0	0	-1	1000
20063715	7891	957	0	-100	0	230	101300000	1000	0	0	-1	1000
20076275	7877	952	0	-100	0	230	101300000	1000	0	0	-1	1000
20088835	7884	958	0	-100	0	230	101300000	1000	0	0	-1	1000
20101395	7877	956	0	-100	0	230	101300000	1000	0	0	-1	1000
20113955	7877	956	0	-100	0	230	101300000	1000	0	0	-1	1000
20126515	7882	962	0	-100	0	230	101300000	1000	0	0	-1	1000
20139075	7877	958	0	-100	0	230	101300000	1000	0	0	-1	1000
20151635	7882	960	0	-100	0	230	101300000	1000	0	0	-1	1000
20164195	7884	959	0	-100	0	230	101300000	1000	0	0	-1	1000
20176755	7877	959	0	-100	0	230	101300000	1000	0	0	-1	1000
20189315	7889	956	0	-100	0	230	101300000	1000	0	0	-1	1000
20201875	7887	956	0	-100	0	230	101300000	1000	0	0	-1	1000
20214435	7894	959	0	-100	0	230	101300000	1000	0	0	-1	1000
20226995	7870	957	0	-100	0	230	101300000	1000	0	0	-1	1000
20239555	7884	960	0	-100	0	230	101300000	1000	0	0	-1	1000
20252115	7888	961	0	-100	0	230	101300000	1000	0	0	-1	1000
20264675	7879	957	0	-100	0	230	101300000	1000	0	0	-1	1000
20277235	7881	958	0	-100	0	230	101300000	1000	0	0	-1	1000
20289795	7871	964	0	-100	0	230	101300000	1000	0	0	-1	1000
20302355	7877	962	0	-100	0	230	101300000	1000	0	0	-1	1000
20314915	7867	961	0	-100	0	230	101300000	1000	0	0	-1	1000
20327475	7874	957	0	-100	0	230	101300000	1000	0	0	-1	1000
20340035	7879	959	0	-100	0	230	101300000	1000	0	0	-1	1000
20352595	7881	959	0	-100	0	230	101300000	1000	0	0	-1	1000
20365155	7875	956	0	-100	0	230	101300000	1000	0	0	-1	1000
20377715	7898	961	0	-100	0	230	101300000	1000	0	0	-1	1000
20390275	7901	960	0	-100	0	230	101300000	1000	0	0	-1	1000
20402835	7877	961	0	-100	0	230	101300000	1000	0	0	-1	1000
20415395	7894	959	0	-100	0	230	101300000	1000	0	0	-1	1000
20427955	7877	959	0	-100	0	230	101300000	1000	0	0	-1	1000
20440515	7896	957	0	-100	0	230	101300000	1000	0	0	-1	1000
20453075	7882	960	0	-100	0	230	101300000	1000	0	0	-1	1000
20465635	7898	958	0	-100	0	230	101300000	1000	0	0	-1	1000
20478195	7876	961	0	-100	0	230	101300000	1000	0	0	-1	1000
20490755	7879	956	0	-100	0	230	101300000	1000	0	0	-1	1000
20503315	7889	962	0	-100	0	230	101300000	1000	0	0	-1	1000
20515875	7898	958	0	-100	0	230	101300000	1000	0	0	-1	1000
20528435	7867	948	0	-100	0	230	101300000	1000	0	0	-1	1000
20540995	7882	964	0	-100	0	230	101300000	1000	0	0	-1	1000
20553555	7861	955	0	-100	0	230	101300000	1000	0	0	-1	1000
20566115	7901	959	0	-100	0	230	101300000	1000	0	0	-1	1000
20578675	7868	955	0	-100	0	230	101300000	1000	0	0	-1	1000
20591235	7877	955	0	-100	0	230	101300000	1000	0	0	-1	1000
20603795	7870	955	0	-100	0	230	101300000	1000	0	0	-1	1000
20616355	7875	956	0	-100	0	230	101300000	1000	0	0	-1	1000
20628915	7860	957	0	-100	0	230	101300000	1000	0	0	-1	1000
20641475	7882	956	0	-100	0	230	101300000	1000	0	0	-1	1000
20654035	7872	961	0	-100	0	230	101300000	1000	0	0	-1	1000
20666595	7887	955	0	-100	0	230	101300000	1000	0	0	-1	1000
20679155	7879	957	0	-100	0	230	101300000	1000	0	0	-1	1000
20691715	7870	960	0	-100	0	230	101300000	1000	0	0	-1	1000
20704275	7875	962	0	-100	0	230	101300000	1000	0	0	-1	1000
20716835	7888	959	0	-100	0	230	101300000	1000	0	0	-1	1000
20729395	7901	959	0	-100	0	230	101300000	1000	0	0	-1	1000
20741955	7864	962	0	-100	0	230	101300000	1000	0	0	-1	1000
20754515	7886	956	0	-100	0	230	101300000	1000	0	0	-1	1000
20767075	7884	959	0	-100	0	230	101300000	1000	0	0	-1	1000
20779635	7889	961	0	-100	0	230	101300000	1000	0	0	-1	1000
20792195	7884	957	0	-100	0	230	101300000	1000	0	0	-1	1000
20804755	7888	955	0	-100	0	230	101300000	1000	0	0	-1	1000
20817315	7880	953	0	-100	0	230	101300000	1000	0	0	-1	1000
20829875	7885	955	0	-100	0	230	101300000	1000	0	0	-1	1000
20842435	7877	960	0	-100	0	230	101300000	1000	0	0	-1	1000
20854995	7891	961	0	-100	0	230	101300000	1000	0	0	-1	1000
20867555	7875	959	0	-100	0	230	101300000	1000	0	0	-1	1000
20880115	7905	960	0	-100	0	230	101300000	1000	0	0	-1	1000
20892675	7875	960	0	-100	0	230	101300000	1000	0	0	-1	1000
20905235	7877	956	0	-100	0	230	101300000	1000	0	0	-1	1000
20917795	7876	958	0	-100	0	230	101300000	1000	0	0	-1	1000
20930355	7877	959	0	-100	0	230	101300000	1000	0	0	-1	1000
20942915	7873	962	0	-100	0	230	101300000	1000	0	0	-1	1000
20955475	7868	962	0	-100	0	230	101300000	1000	0	0	-1	1000
20968035	7887	960	0	-100	0	230	101300000	1000	0	0	-1	1000
20980595	7858	956	0	-100	0	230	101300000	1000	0	0	-1	1000
20993155	7880	956	0	-100	0	230	101300000	1000	0	0	-1	1000
21005715	7889	960	0	-100	0	230	101300000	1000	0	0	-1	1000
21018275	7879	957	0	-100	0	230	101300000	1000	0	0	-1	1000
21030835	7883	960	0	-100	0	230	101300000	1000	0	0	-1	1000
21043395	7882	962	0	-100	0	230	101300000	1000	0	0	-1	1000
21055955	7878	960	0	-100	0	230	101300000	1000	0	0	-1	1000
21068515	7884	957	0	-100	0	230	101300000	1000	0	0	-1	1000
21081075	7892	961	0	-100	0	230	101300000	1000	0	0	-1	1000
21093635	7865	957	0	-100	0	230	101300000	1000	0	0	-1	1000
21106195	7868	961	0	-100	0	230	101300000	1000	0	0	-1	1000
21118755	7865	959	0	-100	0	230	101300000	1000	0	0	-1	1000
21131315	7870	959	0	-100	0	230	101300000	1000	0	0	-1	1000
21143875	7859	956	0	-100	0	230	101300000	1000	0	0	-1	1000
21156435	7875	955	0	-100	0	230	101300000	1000	0	0	-1	1000
21168995	7862	961	0	-100	0	230	101300000	1000	0	0	-1	1000
21181555	7881	957	0	-100	0	230	101300000	1000	0	0	-1	1000
21194115	7891	959	0	-100	0	230	101300000	1000	0	0	-1	1000
21206675	7881	958	0	-100	0	230	101300000	1000	0	0	-1	1000
21219235	7883	960	0	-100	0	230	101300000	1000	0	0	-1	1000
21231795	7877	965	0	-100	0	230	101300000	1000	0	0	-1	1000
21244355	7891	958	0	-100	0	230	101300000	1000	0	0	-1	1000
21256915	7870	965	0	-100	0	230	101300000	1000	0	0	-1	1000
21269475	7891	959	0	-100	0	230	101300000	1000	0	0	-1	1000
21282035	7881	966	0	-100	0	230	101300000	1000	0	0	-1	1000
21294595	7879	962	0	-100	0	230	101300000	1000	0	0	-1	1000
21307155	7879	966	0	-100	0	230	101300000	1000	0	0	-1	1000
21319715	7862	957	0	-100	0	230	101300000	1000	0	0	-1	1000
21332275	7884	961	0	-100	0	230	101300000	1000	0	0	-1	1000
21344835	7867	964	0	-100	0	230	101300000	1000	0	0	-1	1000
21357395	7882	959	0	-100	0	230	101300000	1000	0	0	-1	1000
21369955	7879	963	0	-100	0	230	101300000	1000	0	0	-1	1000
21382515	7864	962	0	-100	0	230	101300000	1000	0	0	-1	1000
21395075	7881	950	0	-100	0	230	101300000	1000	0	0	-1	1000
21407635	7870	956	0	-100	0	230	101300000	1000	0	0	-1	1000
21420195	7884	962	0	-100	0	230	101300000	1000	0	0	-1	1000
21432755	7896	958	0	-100	0	230	101300000	1000	0	0	-1	1000
21445315	7893	958	0	-100	0	230	101300000	1000	0	0	-1	1000
21457875	7881	957	0	-100	0	230	101300000	1000	0	0	-1	1000
21470435	7884	957	0	-100	0	230	101300000	1000	0	0	-1	1000
21482995	7875	958	0	-100	0	230	101300000	1000	0	0	-1	1000
21495555	7858	958	0	-100	0	230	101300000	1000	0	0	-1	1000
21508115	7877	962	0	-100	0	230	101300000	1000	0	0	-1	1000
21520675	7879	955	0	-100	0	230	101300000	1000	0	0	-1	1000
21533235	7872	963	0	-100	0	230	101300000	1000	0	0	-1	1000
21545795	7884	961	0	-100	0	230	101300000	1000	0	0	-1	1000
21558355	7865	956	0	-100	0	230	101300000	1000	0	0	-1	1000
21570915	7879	955	0	-100	0	230	101300000	1000	0	0	-1	1000
21583475	7870	963	0	-100	0	230	101300000	1000	0	0	-1	1000
21596035	7882	959	0	-100	0	230	101300000	1000	0	0	-1	1000
21608595	7880	961	0	-100	0	230	101300000	1000	0	0	-1	1000
21621155	7884	956	0	-100	0	230	101300000	1000	0	0	-1	1000
21633715	7869	955	0	-100	0	230	101300000	1000	0	0	-1	1000
21646275	7869	963	0	-100	0	230	101300000	1000	0	0	-1	1000
21658835	7879	962	0	-100	0	230	101300000	1000	0	0	-1	1000
21671395	7876	959	0	-100	0	230	101300000	1000	0	0	-1	1000
21683955	7870	960	0	-100	0	230	101300000	1000	0	0	-1	1000
21696515	7881	955	0	-100	0	230	101300000	1000	0	0	-1	1000
21709075	7870	962	0	-100	0	230	101300000	1000	0	0	-1	1000
21721635	7875	959	0	-100	0	230	101300000	1000	0	0	-1	1000
21734195	7872	959	0	-100	0	230	101300000	1000	0	0	-1	1000
21746755	7872	955	0	-100	0	230	101300000	1000	0	0	-1	1000
21759315	7882	961	0	-100	0	230	101300000	1000	0	0	-1	1000
21771875	7872	959	0	-100	0	230	101300000	1000	0	0	-1	1000
21784435	7874	959	0	-100	0	230	101300000	1000	0	0	-1	1000
21796995	7886	959	0	-100	0	230	101300000	1000	0	0	-1	1000
21809555	7875	958	0	-100	0	230	101300000	1000	0	0	-1	1000
21822115	7884	960	0	-100	0	230	101300000	1000	0	0	-1	1000
21834675	7882	959	0	-100	0	230	101300000	1000	0	0	-1	1000
21847235	7875	956	0	-100	0	230	101300000	1000	0	0	-1	1000
21859795	7875	960	0	-100	0	230	101300000	1000	0	0	-1	1000
21872355	7872	958	0	-100	0	230	101300000	1000	0	0	-1	1000
21884915	7884	963	0	-100	0	230	101300000	1000	0	0	-1	1000
21897475	7874	960	0	-100	0	230	101300000	1000	0	0	-1	1000
21910035	7881	963	0	-100	0	230	101300000	1000	0	0	-1	1000
21922595	7875	956	0	-100	0	230	101300000	1000	0	0	-1	1000
21935155	7884	959	0	-100	0	230	101300000	1000	0	0	-1	1000
21947715	7898	958	0	-100	0	230	101300000	1000	0	0	-1	1000
21960275	7875	959	0	-100	0	230	101300000	1000	0	0	-1	1000
21972835	7868	955	0	-100	0	230	101300000	1000	0	0	-1	1000
21985395	7877	962	0	-100	0	230	101300000	1000	0	0	-1	1000
21997955	7859	956	0	-100	0	230	101300000	1000	0	0	-1	1000
22010515	7868	959	0	-100	0	230	101300000	1000	0	0	-1	1000
22023075	7886	959	0	-100	0	230	101300000	1000	0	0	-1	1000
22035635	7870	961	0	-100	0	230	101300000	1000	0	0	-1	1000
22048195	7869	962	0	-100	0	230	101300000	1000	0	0	-1	1000
22060755	7879	959	0	-100	0	230	101300000	1000	0	0	-1	1000
22073315	7889	956	0	-100	0	230	101300000	1000	0	0	-1	1000
22085875	7893	963	0	-100	0	230	101300000	1000	0	0	-1	1000
22098435	7882	955	0	-100	0	230	101300000	1000	0	0	-1	1000
22110995	7877	960	0	-100	0	230	101300000	1000	0	0	-1	1000
22123555	7858	962	0	-100	0	230	101300000	1000	0	0	-1	1000
22136115	7879	957	0	-100	0	230	101300000	1000	0	0	-1	1000
22148675	7873	960	0	-100	0	230	101300000	1000	0	0	-1	1000
22161235	7880	960	0	-100	0	230	101300000	1000	0	0	-1	1000
22173795	7872	957	0	-100	0	230	101300000	1000	0	0	-1	1000
22186355	7869	957	0	-100	0	230	101300000	1000	0	0	-1	1000
22198915	7875	964	0	-100	0	230	101300000	1000	0	0	-1	1000
22211475	7891	960	0	-100	0	230	101300000	1000	0	0	-1	1000
22224035	7880	961	0	-100	0	230	101300000	1000	0	0	-1	1000
22236595	7885	958	0	-100	0	230	101300000	1000	0	0	-1	1000
22249155	7879	959	0	-100	0	230	101300000	1000	0	0	-1	1000
22261715	7877	957	0	-100	0	230	101300000	1000	0	0	-1	1000
22274275	7879	961	0	-100	0	230	101300000	1000	0	0	-1	1000
22286835	7879	960	0	-100	0	230	101300000	1000	0	0	-1	1000
22299395	7872	958	0	-100	0	230	101300000	1000	0	0	-1	1000
22311955	7872	960	0	-100	0	230	101300000	1000	0	0	-1	1000
22324515	7877	956	0	-100	0	230	101300000	1000	0	0	-1	1000
22337075	7884	943	0	-100	0	230	101300000	1000	0	0	-1	1000
22349635	7886	962	0	-100	0	230	101300000	1000	0	0	-1	1000
22362195	7869	962	0	-100	0	230	101300000	1000	0	0	-1	1000
22374755	7877	954	0	-100	0	230	101300000	1000	0	0	-1	1000
22387315	7883	961	0	-100	0	230	101300000	1000	0	0	-1	1000
22399875	7882	961	0	-100	0	230	101300000	1000	0	0	-1	1000
22412435	7877	963	0	-100	0	230	101300000	1000	0	0	-1	1000
22424995	7881	961	0	-100	0	230	101300000	1000	0	0	-1	1000
22437555	7878	963	0	-100	0	230	101300000	1000	0	0	-1	1000
22450115	7874	970	0	-100	0	230	101300000	1000	0	0	-1	1000
22462675	7884	969	0	-100	0	230	101300000	1000	0	0	-1	1000
22475235	7877	961	0	-100	0	230	101300000	1000	0	0	-1	1000
22487795	7879	960	0	-100	0	230	101300000	1000	0	0	-1	1000
22500355	7865	963	0	-100	0	230	101300000	1000	0	0	-1	1000
22512915	7887	958	0	-100	0	230	101300000	1000	0	0	-1	1000
22525475	7884	955	0	-100	0	230	101300000	1000	0	0	-1	1000
22538035	7876	958	0	-100	0	230	101300000	1000	0	0	-1	1000
22550595	7878	956	0	-100	0	230	101300000	1000	0	0	-1	1000
22563155	7879	956	0	-100	0	230	101300000	1000	0	0	-1	1000
22575715	7865	961	0	-100	0	230	101300000	1000	0	0	-1	1000
22588275	7871	963	0	-100	0	230	101300000	1000	0	0	-1	1000
22600835	7882	961	0	-100	0	230	101300000	1000	0	0	-1	1000
22613395	7885	957	0	-100	0	230	101300000	1000	0	0	-1	1000
22625955	7876	964	0	-100	0	230	101300000	1000	0	0	-1	1000
22638515	7887	957	0	-100	0	230	101300000	1000	0	0	-1	1000
22651075	7879	957	0	-100	0	230	101300000	1000	0	0	-1	1000
22663635	7888	960	0	-100	0	230	101300000	1000	0	0	-1	1000
22676195	7884	951	0	-100	0	230	101300000	1000	0	0	-1	1000
22688755	7877	954	0	-100	0	230	101300000	1000	0	0	-1	1000
22701315	7871	956	0	-100	0	230	101300000	1000	0	0	-1	1000
22713875	7884	956	0	-100	0	230	101300000	1000	0	0	-1	1000
22726435	7879	960	0	-100	0	230	101300000	1000	0	0	-1	1000
22738995	7876	956	0	-100	0	230	101300000	1000	0	0	-1	1000
22751555	7872	957	0	-100	0	230	101300000	1000	0	0	-1	1000
22764115	7877	956	0	-100	0	230	101300000	1000	0	0	-1	1000
22776675	7889	957	0	-100	0	230	101300000	1000	0	0	-1	1000
22789235	7868	959	0	-100	0	230	101300000	1000	0	0	-1	1000
22801795	7867	959	0	-100	0	230	101300000	1000	0	0	-1	1000
22814355	7872	959	0	-100	0	230	101300000	1000	0	0	-1	1000
22826915	7877	960	0	-100	0	230	101300000	1000	0	0	-1	1000
22839475	7869	964	0	-100	0	230	101300000	1000	0	0	-1	1000
22852035	7872	959	0	-100	0	230	101300000	1000	0	0	-1	1000
22864595	7877	959	0	-100	0	230	101300000	1000	0	0	-1	1000
22877155	7879	959	0	-100	0	230	101300000	1000	0	0	-1	1000
22889715	7879	957	0	-100	0	230	101300000	1000	0	0	-1	1000
22902275	7876	957	0	-100	0	230	101300000	1000	0	0	-1	1000
22914835	7871	959	0	-100	0	230	101300000	1000	0	0	-1	1000
22927395	7870	957	0	-100	0	230	101300000	1000	0	0	-1	1000
22939955	7865	962	0	-100	0	230	101300000	1000	0	0	-1	1000
22952515	7858	960	0	-100	0	230	101300000	1000	0	0	-1	1000
22965075	7870	967	0	-100	0	230	101300000	1000	0	0	-1	1000
22977635	7884	956	0	-100	0	230	101300000	1000	0	0	-1	1000
22990195	7872	957	0	-100	0	230	101300000	1000	0	0	-1	1000
23002755	7871	956	0	-100	0	230	101300000	1000	0	0	-1	1000
23015315	7879	958	0	-100	0	230	101300000	1000	0	0	-1	1000
23027875	7891	960	0	-100	0	230	101300000	1000	0	0	-1	1000
23040435	7882	963	0	-100	0	230	101300000	1000	0	0	-1	1000
23052995	7884	957	0	-100	0	230	101300000	1000	0	0	-1	1000
23065555	7882	959	0	-100	0	230	101300000	1000	0	0	-1	1000
23078115	7882	957	0	-100	0	230	101300000	1000	0	0	-1	1000
23090675	7870	960	0	-100	0	230	101300000	1000	0	0	-1	1000
23103235	7884	964	0	-100	0	230	101300000	1000	0	0	-1	1000
23115795	7879	960	0	-100	0	230	101300000	1000	0	0	-1	1000
23128355	7875	960	0	-100	0	230	101300000	1000	0	0	-1	1000
23140915	7888	964	0	-100	0	230	101300000	1000	0	0	-1	1000
23153475	7889	959	0	-100	0	230	101300000	1000	0	0	-1	1000
23166035	7887	960	0	-100	0	230	101300000	1000	0	0	-1	1000
23178595	7872	961	0	-100	0	230	101300000	1000	0	0	-1	1000
23191155	7864	961	0	-100	0	230	101300000	1000	0	0	-1	1000
23203715	7875	958	0	-100	0	230	101300000	1000	0	0	-1	1000
23216275	7870	963	0	-100	0	230	101300000	1000	0	0	-1	1000
23228835	7876	961	0	-100	0	230	101300000	1000	0	0	-1	1000
23241395	7894	967	0	-100	0	230	101300000	1000	0	0	-1	1000
23253955	7872	964	0	-100	0	230	101300000	1000	0	0	-1	1000
23266515	7872	960	0	-100	0	230	101300000	1000	0	0	-1	1000
23279075	7877	958	0	-100	0	230	101300000	1000	0	0	-1	1000
23291635	7862	961	0	-100	0	230	101300000	1000	0	0	-1	1000
23304195	7887	958	0	-100	0	230	101300000	1000	0	0	-1	1000
23316755	7900	966	0	-100	0	230	101300000	1000	0	0	-1	1000
23329315	7902	966	0	-100	0	230	101300000	1000	0	0	-1	1000
23341875	7884	959	0	-100	0	230	101300000	1000	0	0	-1	1000
23354435	7870	958	0	-100	0	230	101300000	1000	0	0	-1	1000
23366995	7865	956	0	-100	0	230	101300000	1000	0	0	-1	1000
23379555	7870	963	0	-100	0	230	101300000	1000	0	0	-1	1000
23392115	7898	958	0	-100	0	230	101300000	1000	0	0	-1	1000
23404675	7870	962	0	-100	0	230	101300000	1000	0	0	-1	1000
23417235	7877	957	0	-100	0	230	101300000	1000	0	0	-1	1000
23429795	7870	956	0	-100	0	230	101300000	1000	0	0	-1	1000
23442355	7864	961	0	-100	0	230	101300000	1000	0	0	-1	1000
23454915	7878	936	0	-100	0	230	101300000	1000	0	0	-1	1000
23467475	7889	954	0	-100	0	230	101300000	1000	0	0	-1	1000
23480035	7884	962	0	-100	0	230	101300000	1000	0	0	-1	1000
23492595	7877	956	0	-100	0	230	101300000	1000	0	0	-1	1000
23505155	7877	956	0	-100	0	230	101300000	1000	0	0	-1	1000
23517715	7869	957	0	-100	0	230	101300000	1000	0	0	-1	1000
23530275	7878	957	0	-100	0	230	101300000	1000	0	0	-1	1000
23542835	7868	962	0	-100	0	230	101300000	1000	0	0	-1	1000
23555395	7870	960	0	-100	0	230	101300000	1000	0	0	-1	1000
23567955	7887	958	0	-100	0	230	101300000	1000	0	0	-1	1000
23580515	7874	966	0	-100	0	230	101300000	1000	0	0	-1	1000
23593075	7874	963	0	-100	0	230	101300000	1000	0	0	-1	1000
23605635	7880	961	0	-100	0	230	101300000	1000	0	0	-1	1000
23618195	7877	959	0	-100	0	230	101300000	1000	0	0	-1	1000
23630755	7893	961	0	-100	0	230	101300000	1000	0	0	-1	1000
23643315	7891	963	0	-100	0	230	101300000	1000	0	0	-1	1000
23655875	7886	960	0	-100	0	230	101300000	1000	0	0	-1	1000
23668435	7881	962	0	-100	0	230	101300000	1000	0	0	-1	1000
23680995	7884	962	0	-100	0	230	101300000	1000	0	0	-1	1000
23693555	7879	961	0	-100	0	230	101300000	1000	0	0	-1	1000
23706115	7894	956	0	-100	0	230	101300000	1000	0	0	-1	1000
23718675	7862	945	0	-100	0	230	101300000	1000	0	0	-1	1000
23731235	7875	956	0	-100	0	230	101300000	1000	0	0	-1	1000
23743795	7868	960	0	-100	0	230	101300000	1000	0	0	-1	1000
23756355	7877	957	0	-100	0	230	101300000	1000	0	0	-1	1000
23768915	7875	961	0	-100	0	230	101300000	1000	0	0	-1	1000
23781475	7872	962	0	-100	0	230	101300000	1000	0	0	-1	1000
23794035	7887	947	0	-100	0	230	101300000	1000	0	0	-1	1000
23806595	7865	963	0	-100	0	230	101300000	1000	0	0	-1	1000
23819155	7861	966	0	-100	0	230	101300000	1000	0	0	-1	1000
23831715	7862	961	0	-100	0	230	101300000	1000	0	0	-1	1000
23844275	7888	962	0	-100	0	230	101300000	1000	0	0	-1	1000
23856835	7877	962	0	-100	0	230	101300000	1000	0	0	-1	1000
23869395	7872	961	0	-100	0	230	101300000	1000	0	0	-1	1000
23881955	7877	960	0	-100	0	230	101300000	1000	0	0	-1	1000
23894515	7867	957	0	-100	0	230	101300000	1000	0	0	-1	1000
23907075	7884	959	0	-100	0	230	101300000	1000	0	0	-1	1000
23919635	7872	963	0	-100	0	230	101300000	1000	0	0	-1	1000
23932195	7875	959	0	-100	0	230	101300000	1000	0	0	-1	1000
23944755	7879	970	0	-100	0	230	101300000	1000	0	0	-1	1000
23957315	7881	963	0	-100	0	230	101300000	1000	0	0	-1	1000
23969875	7898	958	0	-100	0	230	101300000	1000	0	0	-1	1000
23982435	7875	965	0	-100	0	230	101300000	1000	0	0	-1	1000
23994995	7875	958	0	-100	0	230	101300000	1000	0	0	-1	1000
24007555	7868	957	0	-100	0	230	101300000	1000	0	0	-1	1000
24020115	7898	957	0	-100	0	230	101300000	1000	0	0	-1	1000
24032675	7893	957	0	-100	0	230	101300000	1000	0	0	-1	1000
24045235	7863	959	0	-100	0	230	101300000	1000	0	0	-1	1000
24057795	7879	960	0	-100	0	230	101300000	1000	0	0	-1	1000
24070355	7872	962	0	-100	0	230	101300000	1000	0	0	-1	1000
24082915	7884	959	0	-100	0	230	101300000	1000	0	0	-1	1000
24095475	7877	956	0	-100	0	230	101300000	1000	0	0	-1	1000
24108035	7884	957	0	-100	0	230	101300000	1000	0	0	-1	1000
24120595	7879	961	0	-100	0	230	101300000	1000	0	0	-1	1000
24133155	7884	957	0	-100	0	230	101300000	1000	0	0	-1	1000
24145715	7882	962	0	-100	0	230	101300000	1000	0	0	-1	1000
24158275	7884	960	0	-100	0	230	101300000	1000	0	0	-1	1000
24170835	7865	958	0	-100	0	230	101300000	1000	0	0	-1	1000
24183395	7872	956	0	-100	0	230	101300000	1000	0	0	-1	1000
24195955	7884	956	0	-100	0	230	101300000	1000	0	0	-1	1000
24208515	7879	962	0	-100	0	230	101300000	1000	0	0	-1	1000
24221075	7891	960	0	-100	0	230	101300000	1000	0	0	-1	1000
24233635	7882	965	0	-100	0	230	101300000	1000	0	0	-1	1000
24246195	7879	963	0	-100	0	230	101300000	1000	0	0	-1	1000
24258755	7872	964	0	-100	0	230	101300000	1000	0	0	-1	1000
24271315	7884	961	0	-100	0	230	101300000	1000	0	0	-1	1000
24283875	7869	959	0	-100	0	230	101300000	1000	0	0	-1	1000
24296435	7881	962	0	-100	0	230	101300000	1000	0	0	-1	1000
24308995	7877	959	0	-100	0	230	101300000	1000	0	0	-1	1000
24321555	7863	964	0	-100	0	230	101300000	1000	0	0	-1	1000
24334115	7899	954	0	-100	0	230	101300000	1000	0	0	-1	1000
24346675	7882	959	0	-100	0	230	101300000	1000	0	0	-1	1000
24359235	7889	956	0	-100	0	230	101300000	1000	0	0	-1	1000
24371795	7881	962	0	-100	0	230	101300000	1000	0	0	-1	1000
24384355	7870	958	0	-100	0	230	101300000	1000	0	0	-1	1000
24396915	7889	963	0	-100	0	230	101300000	1000	0	0	-1	1000
24409475	7874	964	0	-100	0	230	101300000	1000	0	0	-1	1000
24422035	7879	962	0	-100	0	230	101300000	1000	0	0	-1	1000
24434595	7870	955	0	-100	0	230	101300000	1000	0	0	-1	1000
24447155	7884	965	0	-100	0	230	101300000	1000	0	0	-1	1000
24459715	7889	959	0	-100	0	230	101300000	1000	0	0	-1	1000
24472275	7889	960	0	-100	0	230	101300000	1000	0	0	-1	1000
24484835	7882	965	0	-100	0	230	101300000	1000	0	0	-1	1000
24497395	7875	964	0	-100	0	230	101300000	1000	0	0	-1	1000
24509955	7879	959	0	-100	0	230	101300000	1000	0	0	-1	1000
24522515	7877	963	0	-100	0	230	101300000	1000	0	0	-1	1000
24535075	7891	960	0	-100	0	230	101300000	1000	0	0	-1	1000
24547635	7885	957	0	-100	0	230	101300000	1000	0	0	-1	1000
24560195	7875	961	0	-100	0	230	101300000	1000	0	0	-1	1000
24572755	7887	959	0	-100	0	230	101300000	1000	0	0	-1	1000
24585315	7886	962	0	-100	0	230	101300000	1000	0	0	-1	1000
24597875	7882	956	0	-100	0	230	101300000	1000	0	0	-1	1000
24610435	7874	957	0	-100	0	230	101300000	1000	0	0	-1	1000
24622995	7887	964	0	-100	0	230	101300000	1000	0	0	-1	1000
24635555	7868	961	0	-100	0	230	101300000	1000	0	0	-1	1000
24648115	7886	960	0	-100	0	230	101300000	1000	0	0	-1	1000
24660675	7872	957	0	-100	0	230	101300000	1000	0	0	-1	1000
24673235	7868	959	0	-100	0	230	101300000	1000	0	0	-1	1000
24685795	7877	960	0	-100	0	230	101300000	1000	0	0	-1	1000
24698355	7886	961	0	-100	0	230	101300000	1000	0	0	-1	1000
24710915	7882	959	0	-100	0	230	101300000	1000	0	0	-1	1000
24723475	7869	961	0	-100	0	230	101300000	1000	0	0	-1	1000
24736035	7882	960	0	-100	0	230	101300000	1000	0	0	-1	1000
24748595	7887	959	0	-100	0	230	101300000	1000	0	0	-1	1000
24761155	7886	961	0	-100	0	230	101300000	1000	0	0	-1	1000
24773715	7880	960	0	-100	0	230	101300000	1000	0	0	-1	1000
24786275	7882	961	0	-100	0	230	101300000	1000	0	0	-1	1000
24798835	7891	957	0	-100	0	230	101300000	1000	0	0	-1	1000
24811395	7878	962	0	-100	0	230	101300000	1000	0	0	-1	1000
24823955	7872	959	0	-100	0	230	101300000	1000	0	0	-1	1000
24836515	7886	964	0	-100	0	230	101300000	1000	0	0	-1	1000
24849075	7875	956	0	-100	0	230	101300000	1000	0	0	-1	1000
24861635	7869	963	0	-100	0	230	101300000	1000	0	0	-1	1000
24874195	7884	962	0	-100	0	230	101300000	1000	0	0	-1	1000
24886755	7875	962	0	-100	0	230	101300000	1000	0	0	-1	1000
24899315	7879	963	0	-100	0	230	101300000	1000	0	0	-1	1000
24911875	7887	962	0	-100	0	230	101300000	1000	0	0	-1	1000
24924435	7881	962	0	-100	0	230	101300000	1000	0	0	-1	1000
24936995	7884	963	0	-100	0	230	101300000	1000	0	0	-1	1000
24949555	7872	959	0	-100	0	230	101300000	1000	0	0	-1	1000
24962115	7882	954	0	-100	0	230	101300000	1000	0	0	-1	1000
24974675	7892	955	0	-100	0	230	101300000	1000	0	0	-1	1000
24987235	7870	958	0	-100	0	230	101300000	1000	0	0	-1	1000
24999795	7873	961	0	-100	0	230	101300000	1000	0	0	-1	1000
25012355	7886	962	0	-100	0	230	101300000	1000	0	0	-1	1000
25024915	7894	960	0	-100	0	230	101300000	1000	0	0	-1	1000
25037475	7879	956	0	-100	0	230	101300000	1000	0	0	-1	1000
25050035	7872	963	0	-100	0	230	101300000	1000	0	0	-1	1000
25062595	7870	961	0	-100	0	230	101300000	1000	0	0	-1	1000
25075155	7867	959	0	-100	0	230	101300000	1000	0	0	-1	1000
25087715	7889	959	0	-100	0	230	101300000	1000	0	0	-1	1000
25100275	7886	962	0	-100	0	230	101300000	1000	0	0	-1	1000
25112835	7882	956	0	-100	0	230	101300000	1000	0	0	-1	1000
25125395	7881	962	0	-100	0	230	101300000	1000	0	0	-1	1000
25137955	7880	955	0	-100	0	230	101300000	1000	0	0	-1	1000
25150515	7872	965	0	-100	0	230	101300000	1000	0	0	-1	1000
25163075	7875	957	0	-100	0	230	101300000	1000	0	0	-1	1000
25175635	7865	958	0	-100	0	230	101300000	1000	0	0	-1	1000
25188195	7884	957	0	-100	0	230	101300000	1000	0	0	-1	1000
25200755	7874	960	0	-100	0	230	101300000	1000	0	0	-1	1000
25213315	7896	959	0	-100	0	230	101300000	1000	0	0	-1	1000
25225875	7886	963	0	-100	0	230	101300000	1000	0	0	-1	1000
25238435	7884	956	0	-100	0	230	101300000	1000	0	0	-1	1000
25250995	7870	958	0	-100	0	230	101300000	1000	0	0	-1	1000
25263555	7882	959	0	-100	0	230	101300000	1000	0	0	-1	1000
25276115	7893	959	0	-100	0	230	101300000	1000	0	0	-1	1000
25288675	7883	953	0	-100	0	230	101300000	1000	0	0	-1	1000
25301235	7879	955	0	-100	0	230	101300000	1000	0	0	-1	1000
25313795	7862	955	0	-100	0	230	101300000	1000	0	0	-1	1000
25326355	7867	961	0	-100	0	230	101300000	1000	0	0	-1	1000
25338915	7882	962	0	-100	0	230	101300000	1000	0	0	-1	1000
25351475	7889	962	0	-100	0	230	101300000	1000	0	0	-1	1000
25364035	7879	960	0	-100	0	230	101300000	1000	0	0	-1	1000
25376595	7884	956	0	-100	0	230	101300000	1000	0	0	-1	1000
25389155	7889	954	0	-100	0	230	101300000	1000	0	0	-1	1000
25401715	7877	959	0	-100	0	230	101300000	1000	0	0	-1	1000
25414275	7875	962	0	-100	0	230	101300000	1000	0	0	-1	1000
25426835	7877	964	0	-100	0	230	101300000	1000	0	0	-1	1000
25439395	7868	963	0	-100	0	230	101300000	1000	0	0	-1	1000
25451955	7872	963	0	-100	0	230	101300000	1000	0	0	-1	1000
25464515	7874	962	0	-100	0	230	101300000	1000	0	0	-1	1000
25477075	7860	963	0	-100	0	230	101300000	1000	0	0	-1	1000
25489635	7870	962	0	-100	0	230	101300000	1000	0	0	-1	1000
25502195	7865	959	0	-100	0	230	101300000	1000	0	0	-1	1000
25514755	7880	957	0	-100	0	230	101300000	1000	0	0	-1	1000
25527315	7888	959	0	-100	0	230	101300000	1000	0	0	-1	1000
25539875	7884	959	0	-100	0	230	101300000	1000	0	0	-1	1000
25552435	7872	959	0	-100	0	230	101300000	1000	0	0	-1	1000
25564995	7879	957	0	-100	0	230	101300000	1000	0	0	-1	1000
25577555	7875	960	0	-100	0	230	101300000	1000	0	0	-1	1000
25590115	7884	959	0	-100	0	230	101300000	1000	0	0	-1	1000
25602675	7878	960	0	-100	0	230	101300000	1000	0	0	-1	1000
25615235	7863	963	0	-100	0	230	101300000	1000	0	0	-1	1000
25627795	7877	965	0	-100	0	230	101300000	1000	0	0	-1	1000
25640355	7891	962	0	-100	0	230	101300000	1000	0	0	-1	1000
25652915	7881	959	0	-100	0	230	101300000	1000	0	0	-1	1000
25665475	7870	958	0	-100	0	230	101300000	1000	0	0	-1	1000
25678035	7874	961	0	-100	0	230	101300000	1000	0	0	-1	1000
25690595	7871	956	0	-100	0	230	101300000	1000	0	0	-1	1000
25703155	7880	955	0	-100	0	230	101300000	1000	0	0	-1	1000
25715715	7869	960	0	-100	0	230	101300000	1000	0	0	-1	1000
25728275	7875	959	0	-100	0	230	101300000	1000	0	0	-1	1000
25740835	7882	959	0	-100	0	230	101300000	1000	0	0	-1	1000
25753395	7870	958	0	-100	0	230	101300000	1000	0	0	-1	1000
25765955	7863	958	0	-100	0	230	101300000	1000	0	0	-1	1000
25778515	7884	960	0	-100	0	230	101300000	1000	0	0	-1	1000
25791075	7875	961	0	-100	0	230	101300000	1000	0	0	-1	1000
25803635	7880	961	0	-100	0	230	101300000	1000	0	0	-1	1000
25816195	7880	960	0	-100	0	230	101300000	1000	0	0	-1	1000
25828755	7874	960	0	-100	0	230	101300000	1000	0	0	-1	1000
25841315	7878	960	0	-100	0	230	101300000	1000	0	0	-1	1000
25853875	7884	960	0	-100	0	230	101300000	1000	0	0	-1	1000
25866435	7877	958	0	-100	0	230	101300000	1000	0	0	-1	1000
25878995	7879	956	0	-100	0	230	101300000	1000	0	0	-1	1000
25891555	7858	963	0	-100	0	230	101300000	1000	0	0	-1	1000
25904115	7901	956	0	-100	0	230	101300000	1000	0	0	-1	1000
25916675	7877	962	0	-100	0	230	101300000	1000	0	0	-1	1000
25929235	7873	956	0	-100	0	230	101300000	1000	0	0	-1	1000
25941795	7891	957	0	-100	0	230	101300000	1000	0	0	-1	1000
25954355	7867	960	0	-100	0	230	101300000	1000	0	0	-1	1000
25966915	7879	964	0	-100	0	230	101300000	1000	0	0	-1	1000
25979475	7868	963	0	-100	0	230	101300000	1000	0	0	-1	1000
25992035	7879	961	0	-100	0	230	101300000	1000	0	0	-1	1000
26004595	7867	962	0	-100	0	230	101300000	1000	0	0	-1	1000
26017155	7863	959	0	-100	0	230	101300000	1000	0	0	-1	1000
26029715	7882	958	0	-100	0	230	101300000	1000	0	0	-1	1000
26042275	7877	962	0	-100	0	230	101300000	1000	0	0	-1	1000
26054835	7893	963	0	-100	0	230	101300000	1000	0	0	-1	1000
26067395	7892	959	0	-100	0	230	101300000	1000	0	0	-1	1000
26079955	7887	963	0	-100	0	230	101300000	1000	0	0	-1	1000
26092515	7876	960	0	-100	0	230	101300000	1000	0	0	-1	1000
26105075	7881	968	0	-100	0	230	101300000	1000	0	0	-1	1000
26117635	7879	959	0	-100	0	230	101300000	1000	0	0	-1	1000
26130195	7886	963	0	-100	0	230	101300000	1000	0	0	-1	1000
26142755	7873	962	0	-100	0	230	101300000	1000	0	0	-1	1000
26155315	7875	957	0	-100	0	230	101300000	1000	0	0	-1	1000
26167875	7886	954	0	-100	0	230	101300000	1000	0	0	-1	1000
26180435	7877	961	0	-100	0	230	101300000	1000	0	0	-1	1000
26192995	7872	951	0	-100	0	230	101300000	1000	0	0	-1	1000
26205555	7868	956	0	-100	0	230	101300000	1000	0	0	-1	1000
26218115	7888	958	0	-100	0	230	101300000	1000	0	0	-1	1000
26230675	7882	956	0	-100	0	230	101300000	1000	0	0	-1	1000
26243235	7872	960	0	-100	0	230	101300000	1000	0	0	-1	1000
26255795	7872	958	0	-100	0	230	101300000	1000	0	0	-1	1000
26268355	7877	958	0	-100	0	230	101300000	1000	0	0	-1	1000
26280915	7871	960	0	-100	0	230	101300000	1000	0	0	-1	1000
26293475	7867	960	0	-100	0	230	101300000	1000	0	0	-1	1000
26306035	7894	957	0	-100	0	230	101300000	1000	0	0	-1	1000
26318595	7883	958	0	-100	0	230	101300000	1000	0	0	-1	1000
26331155	7882	961	0	-100	0	230	101300000	1000	0	0	-1	1000
26343715	7887	959	0	-100	0	230	101300000	1000	0	0	-1	1000
26356275	7875	960	0	-100	0	230	101300000	1000	0	0	-1	1000
26368835	7877	960	0	-100	0	230	101300000	1000	0	0	-1	1000
26381395	7879	962	0	-100	0	230	101300000	1000	0	0	-1	1000
26393955	7882	960	0	-100	0	230	101300000	1000	0	0	-1	1000
26406515	7872	959	0	-100	0	230	101300000	1000	0	0	-1	1000
26419075	7877	957	0	-100	0	230	101300000	1000	0	0	-1	1000
26431635	7865	966	0	-100	0	230	101300000	1000	0	0	-1	1000
26444195	7884	959	0	-100	0	230	101300000	1000	0	0	-1	1000
26456755	7879	960	0	-100	0	230	101300000	1000	0	0	-1	1000
26469315	7894	956	0	-100	0	230	101300000	1000	0	0	-1	1000
26481875	7891	960	0	-100	0	230	101300000	1000	0	0	-1	1000
26494435	7867	956	0	-100	0	230	101300000	1000	0	0	-1	1000
26506995	7877	959	0	-100	0	230	101300000	1000	0	0	-1	1000
26519555	7882	960	0	-100	0	230	101300000	1000	0	0	-1	1000
26532115	7891	954	0	-100	0	230	101300000	1000	0	0	-1	1000
26544675	7881	962	0	-100	0	230	101300000	1000	0	0	-1	1000
26557235	7891	963	0	-100	0	230	101300000	1000	0	0	-1	1000
26569795	7872	958	0	-100	0	230	101300000	1000	0	0	-1	1000
26582355	7865	960	0	-100	0	230	101300000	1000	0	0	-1	1000
26594915	7881	959	0	-100	0	230	101300000	1000	0	0	-1	1000
26607475	7877	960	0	-100	0	230	101300000	1000	0	0	-1	1000
26620035	7878	956	0	-100	0	230	101300000	1000	0	0	-1	1000
26632595	7889	962	0	-100	0	230	101300000	1000	0	0	-1	1000
26645155	7879	955	0	-100	0	230	101300000	1000	0	0	-1	1000
26657715	7867	960	0	-100	0	230	101300000	1000	0	0	-1	1000
26670275	7866	960	0	-100	0	230	101300000	1000	0	0	-1	1000
26682835	7882	965	0	-100	0	230	101300000	1000	0	0	-1	1000
26695395	7879	961	0	-100	0	230	101300000	1000	0	0	-1	1000
26707955	7878	958	0	-100	0	230	101300000	1000	0	0	-1	1000
26720515	7884	958	0	-100	0	230	101300000	1000	0	0	-1	1000
26733075	7879	960	0	-100	0	230	101300000	1000	0	0	-1	1000
26745635	7858	953	0	-100	0	230	101300000	1000	0	0	-1	1000
26758195	7876	959	0	-100	0	230	101300000	1000	0	0	-1	1000
26770755	7879	961	0	-100	0	230	101300000	1000	0	0	-1	1000
26783315	7887	960	0	-100	0	230	101300000	1000	0	0	-1	1000
26795875	7881	961	0	-100	0	230	101300000	1000	0	0	-1	1000
26808435	7875	957	0	-100	0	230	101300000	1000	0	0	-1	1000
26820995	7883	962	0	-100	0	230	101300000	1000	0	0	-1	1000
26833555	7875	958	0	-100	0	230	101300000	1000	0	0	-1	1000
26846115	7884	961	0	-100	0	230	101300000	1000	0	0	-1	1000
26858675	7872	960	0	-100	0	230	101300000	1000	0	0	-1	1000
26871235	7861	957	0	-100	0	230	101300000	1000	0	0	-1	1000
26883795	7884	954	0	-100	0	230	101300000	1000	0	0	-1	1000
26896355	7884	963	0	-100	0	230	101300000	1000	0	0	-1	1000
26908915	7884	954	0	-100	0	230	101300000	1000	0	0	-1	1000
26921475	7872	963	0	-100	0	230	101300000	1000	0	0	-1	1000
26934035	7884	960	0	-100	0	230	101300000	1000	0	0	-1	1000
26946595	7886	959	0	-100	0	230	101300000	1000	0	0	-1	1000
26959155	7872	969	0	-100	0	230	101300000	1000	0	0	-1	1000
26971715	7887	960	0	-100	0	230	101300000	1000	0	0	-1	1000
26984275	7874	954	0	-100	0	230	101300000	1000	0	0	-1	1000
26996835	7886	964	0	-100	0	230	101300000	1000	0	0	-1	1000
27009395	7894	958	0	-100	0	230	101300000	1000	0	0	-1	1000
27021955	7868	960	0	-100	0	230	101300000	1000	0	0	-1	1000
27034515	7884	964	0	-100	0	230	101300000	1000	0	0	-1	1000
27047075	7870	955	0	-100	0	230	101300000	1000	0	0	-1	1000
