timestamp	voltage	current	windSpeed	pitchAngle	rpm	temperature	ambientPressure	humidity	accelerationX	accelerationY	accelerationZ	currentSink
7040070	8531	0	0	-100	0	230	101300000	1000	0	0	-1	0
7047523	8519	0	0	-100	0	230	101300000	1000	0	0	-1	0
7060083	8522	0	0	-100	0	230	101300000	1000	0	0	-1	0
7072643	8517	1	0	-100	0	230	101300000	1000	0	0	-1	0
7085203	8515	3	0	-100	0	230	101300000	1000	0	0	-1	0
7097763	8517	4	0	-100	0	230	101300000	1000	0	0	-1	0
7110323	8519	4	0	-100	0	230	101300000	1000	0	0	-1	0
7122883	8522	4	0	-100	0	230	101300000	1000	0	0	-1	0
7135443	8524	2	0	-100	0	230	101300000	1000	0	0	-1	0
7148004	8522	0	0	-100	0	230	101300000	1000	0	0	-1	0
7160563	8522	0	0	-100	0	230	101300000	1000	0	0	-1	0
7173123	8527	0	0	-100	0	230	101300000	1000	0	0	-1	0
7185683	8527	0	0	-100	0	230	101300000	1000	0	0	-1	0
7198243	8524	0	0	-100	0	230	101300000	1000	0	0	-1	0
7210803	8531	0	0	-100	0	230	101300000	1000	0	0	-1	0
7223363	8529	0	0	-100	0	230	101300000	1000	0	0	-1	0
7235923	8524	0	0	-100	0	230	101300000	1000	0	0	-1	0
7248483	8527	0	0	-100	0	230	101300000	1000	0	0	-1	0
7261043	8529	0	0	-100	0	230	101300000	1000	0	0	-1	0
7273603	8522	0	0	-100	0	230	101300000	1000	0	0	-1	0
7286163	8527	0	0	-100	0	230	101300000	1000	0	0	-1	0
7298723	8522	5	0	-100	0	230	101300000	1000	0	0	-1	0
7311283	8519	4	0	-100	0	230	101300000	1000	0	0	-1	0
7323843	8517	0	0	-100	0	230	101300000	1000	0	0	-1	0
7336403	8524	0	0	-100	0	230	101300000	1000	0	0	-1	0
7348963	8524	0	0	-100	0	230	101300000	1000	0	0	-1	0
7719795	8454	147	0	-100	0	230	101300000	1000	0	0	-1	100
7732355	8461	151	0	-100	0	230	101300000	1000	0	0	-1	100
7744915	8469	143	0	-100	0	230	101300000	1000	0	0	-1	100
7757475	8459	147	0	-100	0	230	101300000	1000	0	0	-1	100
7770035	8456	148	0	-100	0	230	101300000	1000	0	0	-1	100
7782595	8466	144	0	-100	0	230	101300000	1000	0	0	-1	100
7795155	8471	143	0	-100	0	230	101300000	1000	0	0	-1	100
7807715	8461	145	0	-100	0	230	101300000	1000	0	0	-1	100
7820275	8461	147	0	-100	0	230	101300000	1000	0	0	-1	100
7832835	8464	146	0	-100	0	230	101300000	1000	0	0	-1	100
7845395	8457	149	0	-100	0	230	101300000	1000	0	0	-1	100
7857955	8459	148	0	-100	0	230	101300000	1000	0	0	-1	100
7870515	8466	145	0	-100	0	230	101300000	1000	0	0	-1	100
7883075	8462	144	0	-100	0	230	101300000	1000	0	0	-1	100
7895635	8459	147	0	-100	0	230	101300000	1000	0	0	-1	100
7908195	8457	151	0	-100	0	230	101300000	1000	0	0	-1	100
7920755	8468	148	0	-100	0	230	101300000	1000	0	0	-1	100
7933315	8462	145	0	-100	0	230	101300000	1000	0	0	-1	100
7945875	8461	149	0	-100	0	230	101300000	1000	0	0	-1	100
7958435	8461	145	0	-100	0	230	101300000	1000	0	0	-1	100
7970995	8459	147	0	-100	0	230	101300000	1000	0	0	-1	100
7983555	8461	146	0	-100	0	230	101300000	1000	0	0	-1	100
7996115	8457	144	0	-100	0	230	101300000	1000	0	0	-1	100
8008675	8461	147	0	-100	0	230	101300000	1000	0	0	-1	100
8021235	8461	146	0	-100	0	230	101300000	1000	0	0	-1	100
8033795	8462	143	0	-100	0	230	101300000	1000	0	0	-1	100
8046355	8461	145	0	-100	0	230	101300000	1000	0	0	-1	100
8058915	8457	143	0	-100	0	230	101300000	1000	0	0	-1	100
8071475	8456	149	0	-100	0	230	101300000	1000	0	0	-1	100
8084035	8463	146	0	-100	0	230	101300000	1000	0	0	-1	100
8096595	8466	145	0	-100	0	230	101300000	1000	0	0	-1	100
8109155	8469	142	0	-100	0	230	101300000	1000	0	0	-1	100
8121715	8461	146	0	-100	0	230	101300000	1000	0	0	-1	100
8134275	8454	145	0	-100	0	230	101300000	1000	0	0	-1	100
8146835	8459	151	0	-100	0	230	101300000	1000	0	0	-1	100
8159395	8461	148	0	-100	0	230	101300000	1000	0	0	-1	100
8171955	8459	143	0	-100	0	230	101300000	1000	0	0	-1	100
8184515	8468	145	0	-100	0	230	101300000	1000	0	0	-1	100
8197075	8466	147	0	-100	0	230	101300000	1000	0	0	-1	100
8209635	8461	143	0	-100	0	230	101300000	1000	0	0	-1	100
8222195	8459	143	0	-100	0	230	101300000	1000	0	0	-1	100
8234755	8457	147	0	-100	0	230	101300000	1000	0	0	-1	100
8247315	8454	145	0	-100	0	230	101300000	1000	0	0	-1	100
8259875	8461	149	0	-100	0	230	101300000	1000	0	0	-1	100
8272435	8461	143	0	-100	0	230	101300000	1000	0	0	-1	100
8284995	8459	146	0	-100	0	230	101300000	1000	0	0	-1	100
8297555	8457	144	0	-100	0	230	101300000	1000	0	0	-1	100
8310115	8456	149	0	-100	0	230	101300000	1000	0	0	-1	100
8322675	8471	144	0	-100	0	230	101300000	1000	0	0	-1	100
8335235	8462	146	0	-100	0	230	101300000	1000	0	0	-1	100
8347795	8457	147	0	-100	0	230	101300000	1000	0	0	-1	100
8360355	8459	147	0	-100	0	230	101300000	1000	0	0	-1	100
8372915	8468	148	0	-100	0	230	101300000	1000	0	0	-1	100
8385475	8459	143	0	-100	0	230	101300000	1000	0	0	-1	100
8398035	8457	147	0	-100	0	230	101300000	1000	0	0	-1	100
8410595	8457	148	0	-100	0	230	101300000	1000	0	0	-1	100
8423155	8473	150	0	-100	0	230	101300000	1000	0	0	-1	100
8435715	8459	143	0	-100	0	230	101300000	1000	0	0	-1	100
8448275	8459	146	0	-100	0	230	101300000	1000	0	0	-1	100
8460835	8459	143	0	-100	0	230	101300000	1000	0	0	-1	100
8473395	8462	144	0	-100	0	230	101300000	1000	0	0	-1	100
8485955	8452	145	0	-100	0	230	101300000	1000	0	0	-1	100
8498515	8457	151	0	-100	0	230	101300000	1000	0	0	-1	100
8511075	8461	149	0	-100	0	230	101300000	1000	0	0	-1	100
8523635	8464	145	0	-100	0	230	101300000	1000	0	0	-1	100
8536195	8464	146	0	-100	0	230	101300000	1000	0	0	-1	100
8548755	8457	143	0	-100	0	230	101300000	1000	0	0	-1	100
8561315	8461	147	0	-100	0	230	101300000	1000	0	0	-1	100
8573875	8461	146	0	-100	0	230	101300000	1000	0	0	-1	100
8586435	8462	147	0	-100	0	230	101300000	1000	0	0	-1	100
8598995	8459	147	0	-100	0	230	101300000	1000	0	0	-1	100
8611555	8457	148	0	-100	0	230	101300000	1000	0	0	-1	100
8624115	8459	146	0	-100	0	230	101300000	1000	0	0	-1	100
8636675	8471	147	0	-100	0	230	101300000	1000	0	0	-1	100
8724595	8464	143	0	-100	0	230	101300000	1000	0	0	-1	100
8737155	8464	143	0	-100	0	230	101300000	1000	0	0	-1	100
8749715	8461	149	0	-100	0	230	101300000	1000	0	0	-1	100
8762275	8456	144	0	-100	0	230	101300000	1000	0	0	-1	100
8774835	8464	145	0	-100	0	230	101300000	1000	0	0	-1	100
8787395	8464	146	0	-100	0	230	101300000	1000	0	0	-1	100
8799955	8459	144	0	-100	0	230	101300000	1000	0	0	-1	100
8812515	8454	145	0	-100	0	230	101300000	1000	0	0	-1	100
8825075	8461	148	0	-100	0	230	101300000	1000	0	0	-1	100
8837635	8457	146	0	-100	0	230	101300000	1000	0	0	-1	100
8850195	8461	146	0	-100	0	230	101300000	1000	0	0	-1	100
8862755	8464	142	0	-100	0	230	101300000	1000	0	0	-1	100
8912995	8464	147	0	-100	0	230	101300000	1000	0	0	-1	100
8925555	8464	144	0	-100	0	230	101300000	1000	0	0	-1	100
8938115	8457	145	0	-100	0	230	101300000	1000	0	0	-1	100
8950675	8454	147	0	-100	0	230	101300000	1000	0	0	-1	100
8963235	8459	147	0	-100	0	230	101300000	1000	0	0	-1	100
8975795	8471	145	0	-100	0	230	101300000	1000	0	0	-1	100
8988355	8457	143	0	-100	0	230	101300000	1000	0	0	-1	100
9000915	8459	147	0	-100	0	230	101300000	1000	0	0	-1	100
9013475	8463	148	0	-100	0	230	101300000	1000	0	0	-1	100
9026035	8459	146	0	-100	0	230	101300000	1000	0	0	-1	100
9038595	8466	145	0	-100	0	230	101300000	1000	0	0	-1	100
9051155	8478	143	0	-100	0	230	101300000	1000	0	0	-1	100
9063715	8461	146	0	-100	0	230	101300000	1000	0	0	-1	100
9076275	8459	145	0	-100	0	230	101300000	1000	0	0	-1	100
9088835	8456	148	0	-100	0	230	101300000	1000	0	0	-1	100
9101395	8468	146	0	-100	0	230	101300000	1000	0	0	-1	100
9113955	8468	143	0	-100	0	230	101300000	1000	0	0	-1	100
9126515	8459	146	0	-100	0	230	101300000	1000	0	0	-1	100
9139075	8461	147	0	-100	0	230	101300000	1000	0	0	-1	100
9151635	8464	143	0	-100	0	230	101300000	1000	0	0	-1	100
9164195	8462	147	0	-100	0	230	101300000	1000	0	0	-1	100
9176755	8457	146	0	-100	0	230	101300000	1000	0	0	-1	100
9189315	8459	147	0	-100	0	230	101300000	1000	0	0	-1	100
9201875	8464	146	0	-100	0	230	101300000	1000	0	0	-1	100
9214435	8459	148	0	-100	0	230	101300000	1000	0	0	-1	100
9226995	8461	144	0	-100	0	230	101300000	1000	0	0	-1	100
9239555	8468	147	0	-100	0	230	101300000	1000	0	0	-1	100
9252115	8466	147	0	-100	0	230	101300000	1000	0	0	-1	100
9264675	8459	145	0	-100	0	230	101300000	1000	0	0	-1	100
9277235	8454	145	0	-100	0	230	101300000	1000	0	0	-1	100
9289795	8457	146	0	-100	0	230	101300000	1000	0	0	-1	100
9302355	8456	148	0	-100	0	230	101300000	1000	0	0	-1	100
9314915	8459	148	0	-100	0	230	101300000	1000	0	0	-1	100
9327475	8461	147	0	-100	0	230	101300000	1000	0	0	-1	100
9340035	8466	147	0	-100	0	230	101300000	1000	0	0	-1	100
9352595	8461	144	0	-100	0	230	101300000	1000	0	0	-1	100
9365155	8471	146	0	-100	0	230	101300000	1000	0	0	-1	100
9377715	8459	147	0	-100	0	230	101300000	1000	0	0	-1	100
9390275	8461	149	0	-100	0	230	101300000	1000	0	0	-1	100
9402835	8464	144	0	-100	0	230	101300000	1000	0	0	-1	100
9415395	8462	144	0	-100	0	230	101300000	1000	0	0	-1	100
9427955	8461	145	0	-100	0	230	101300000	1000	0	0	-1	100
9440515	8459	147	0	-100	0	230	101300000	1000	0	0	-1	100
9453075	8461	149	0	-100	0	230	101300000	1000	0	0	-1	100
9465635	8459	144	0	-100	0	230	101300000	1000	0	0	-1	100
9478195	8459	146	0	-100	0	230	101300000	1000	0	0	-1	100
9490755	8457	144	0	-100	0	230	101300000	1000	0	0	-1	100
9503315	8461	144	0	-100	0	230	101300000	1000	0	0	-1	100
9515875	8459	149	0	-100	0	230	101300000	1000	0	0	-1	100
9528435	8461	146	0	-100	0	230	101300000	1000	0	0	-1	100
9540995	8464	148	0	-100	0	230	101300000	1000	0	0	-1	100
9553555	8464	143	0	-100	0	230	101300000	1000	0	0	-1	100
9566115	8461	146	0	-100	0	230	101300000	1000	0	0	-1	100
9578675	8456	147	0	-100	0	230	101300000	1000	0	0	-1	100
9591235	8464	145	0	-100	0	230	101300000	1000	0	0	-1	100
9603795	8456	144	0	-100	0	230	101300000	1000	0	0	-1	100
9616355	8459	146	0	-100	0	230	101300000	1000	0	0	-1	100
9628915	8464	144	0	-100	0	230	101300000	1000	0	0	-1	100
9641475	8461	148	0	-100	0	230	101300000	1000	0	0	-1	100
9654035	8464	147	0	-100	0	230	101300000	1000	0	0	-1	100
9666595	8457	145	0	-100	0	230	101300000	1000	0	0	-1	100
9679155	8466	148	0	-100	0	230	101300000	1000	0	0	-1	100
9691715	8466	142	0	-100	0	230	101300000	1000	0	0	-1	100
9704275	8457	147	0	-100	0	230	101300000	1000	0	0	-1	100
9716835	8459	143	0	-100	0	230	101300000	1000	0	0	-1	100
9729395	8466	143	0	-100	0	230	101300000	1000	0	0	-1	100
9741955	8459	150	0	-100	0	230	101300000	1000	0	0	-1	100
9754515	8462	147	0	-100	0	230	101300000	1000	0	0	-1	100
9767075	8454	144	0	-100	0	230	101300000	1000	0	0	-1	100
9779635	8463	147	0	-100	0	230	101300000	1000	0	0	-1	100
9792195	8462	146	0	-100	0	230	101300000	1000	0	0	-1	100
9804755	8457	150	0	-100	0	230	101300000	1000	0	0	-1	100
9817315	8464	145	0	-100	0	230	101300000	1000	0	0	-1	100
9829875	8464	143	0	-100	0	230	101300000	1000	0	0	-1	100
9842435	8464	148	0	-100	0	230	101300000	1000	0	0	-1	100
9854995	8459	146	0	-100	0	230	101300000	1000	0	0	-1	100
9867555	8464	146	0	-100	0	230	101300000	1000	0	0	-1	100
9880115	8461	149	0	-100	0	230	101300000	1000	0	0	-1	100
9892675	8468	146	0	-100	0	230	101300000	1000	0	0	-1	100
9905235	8464	144	0	-100	0	230	101300000	1000	0	0	-1	100
9917795	8459	147	0	-100	0	230	101300000	1000	0	0	-1	100
9930355	8461	147	0	-100	0	230	101300000	1000	0	0	-1	100
9942915	8468	144	0	-100	0	230	101300000	1000	0	0	-1	100
9955475	8457	147	0	-100	0	230	101300000	1000	0	0	-1	100
9968035	8461	147	0	-100	0	230	101300000	1000	0	0	-1	100
9980595	8459	145	0	-100	0	230	101300000	1000	0	0	-1	100
9993155	8471	147	0	-100	0	230	101300000	1000	0	0	-1	100
10005715	8461	147	0	-100	0	230	101300000	1000	0	0	-1	100
10018275	8466	142	0	-100	0	230	101300000	1000	0	0	-1	100
10030835	8459	143	0	-100	0	230	101300000	1000	0	0	-1	100
10043395	8459	149	0	-100	0	230	101300000	1000	0	0	-1	100
10055955	8461	147	0	-100	0	230	101300000	1000	0	0	-1	100
10068515	8469	145	0	-100	0	230	101300000	1000	0	0	-1	100
10081075	8468	143	0	-100	0	230	101300000	1000	0	0	-1	100
10093635	8457	148	0	-100	0	230	101300000	1000	0	0	-1	100
10106195	8459	149	0	-100	0	230	101300000	1000	0	0	-1	100
10118755	8461	146	0	-100	0	230	101300000	1000	0	0	-1	100
10131315	8469	143	0	-100	0	230	101300000	1000	0	0	-1	100
10143875	8464	146	0	-100	0	230	101300000	1000	0	0	-1	100
10156435	8461	145	0	-100	0	230	101300000	1000	0	0	-1	100
10168995	8464	145	0	-100	0	230	101300000	1000	0	0	-1	100
10181555	8459	148	0	-100	0	230	101300000	1000	0	0	-1	100
10194115	8468	145	0	-100	0	230	101300000	1000	0	0	-1	100
10206675	8459	143	0	-100	0	230	101300000	1000	0	0	-1	100
10219235	8452	144	0	-100	0	230	101300000	1000	0	0	-1	100
10231795	8457	148	0	-100	0	230	101300000	1000	0	0	-1	100
10244355	8464	146	0	-100	0	230	101300000	1000	0	0	-1	100
10256915	8462	146	0	-100	0	230	101300000	1000	0	0	-1	100
10269475	8457	147	0	-100	0	230	101300000	1000	0	0	-1	100
10282035	8463	148	0	-100	0	230	101300000	1000	0	0	-1	100
10294595	8456	147	0	-100	0	230	101300000	1000	0	0	-1	100
10307155	8478	146	0	-100	0	230	101300000	1000	0	0	-1	100
10319715	8461	145	0	-100	0	230	101300000	1000	0	0	-1	100
10332275	8461	148	0	-100	0	230	101300000	1000	0	0	-1	100
10344835	8463	149	0	-100	0	230	101300000	1000	0	0	-1	100
10357395	8452	150	0	-100	0	230	101300000	1000	0	0	-1	100
10369955	8464	147	0	-100	0	230	101300000	1000	0	0	-1	100
10382515	8464	147	0	-100	0	230	101300000	1000	0	0	-1	100
10395075	8466	143	0	-100	0	230	101300000	1000	0	0	-1	100
10407635	8461	145	0	-100	0	230	101300000	1000	0	0	-1	100
10420195	8461	147	0	-100	0	230	101300000	1000	0	0	-1	100
10432755	8459	149	0	-100	0	230	101300000	1000	0	0	-1	100
10445315	8466	147	0	-100	0	230	101300000	1000	0	0	-1	100
10457875	8466	145	0	-100	0	230	101300000	1000	0	0	-1	100
10470435	8461	145	0	-100	0	230	101300000	1000	0	0	-1	100
10482995	8461	143	0	-100	0	230	101300000	1000	0	0	-1	100
10495555	8464	147	0	-100	0	230	101300000	1000	0	0	-1	100
10508115	8459	147	0	-100	0	230	101300000	1000	0	0	-1	100
10520675	8459	151	0	-100	0	230	101300000	1000	0	0	-1	100
10533235	8464	147	0	-100	0	230	101300000	1000	0	0	-1	100
10545795	8469	145	0	-100	0	230	101300000	1000	0	0	-1	100
10558355	8464	144	0	-100	0	230	101300000	1000	0	0	-1	100
10570915	8459	144	0	-100	0	230	101300000	1000	0	0	-1	100
10583475	8459	146	0	-100	0	230	101300000	1000	0	0	-1	100
10596035	8459	151	0	-100	0	230	101300000	1000	0	0	-1	100
10608595	8464	147	0	-100	0	230	101300000	1000	0	0	-1	100
10621155	8473	145	0	-100	0	230	101300000	1000	0	0	-1	100
10633715	8461	148	0	-100	0	230	101300000	1000	0	0	-1	100
10646275	8459	144	0	-100	0	230	101300000	1000	0	0	-1	100
10658835	8459	147	0	-100	0	230	101300000	1000	0	0	-1	100
10671395	8456	147	0	-100	0	230	101300000	1000	0	0	-1	100
10683955	8468	145	0	-100	0	230	101300000	1000	0	0	-1	100
10696515	8459	146	0	-100	0	230	101300000	1000	0	0	-1	100
10709075	8459	147	0	-100	0	230	101300000	1000	0	0	-1	100
10721635	8464	141	0	-100	0	230	101300000	1000	0	0	-1	100
10734195	8454	143	0	-100	0	230	101300000	1000	0	0	-1	100
10746755	8454	150	0	-100	0	230	101300000	1000	0	0	-1	100
10759315	8464	144	0	-100	0	230	101300000	1000	0	0	-1	100
10771875	8464	143	0	-100	0	230	101300000	1000	0	0	-1	100
10784435	8457	147	0	-100	0	230	101300000	1000	0	0	-1	100
10796995	8459	141	0	-100	0	230	101300000	1000	0	0	-1	100
10809555	8464	143	0	-100	0	230	101300000	1000	0	0	-1	100
10822115	8461	143	0	-100	0	230	101300000	1000	0	0	-1	100
10834675	8461	144	0	-100	0	230	101300000	1000	0	0	-1	100
10847235	8461	149	0	-100	0	230	101300000	1000	0	0	-1	100
10859795	8461	150	0	-100	0	230	101300000	1000	0	0	-1	100
10872355	8468	147	0	-100	0	230	101300000	1000	0	0	-1	100
10884915	8466	142	0	-100	0	230	101300000	1000	0	0	-1	100
10897475	8466	146	0	-100	0	230	101300000	1000	0	0	-1	100
10910035	8464	145	0	-100	0	230	101300000	1000	0	0	-1	100
10922595	8459	143	0	-100	0	230	101300000	1000	0	0	-1	100
10935155	8466	147	0	-100	0	230	101300000	1000	0	0	-1	100
10947715	8461	147	0	-100	0	230	101300000	1000	0	0	-1	100
10960275	8454	149	0	-100	0	230	101300000	1000	0	0	-1	100
10972835	8471	149	0	-100	0	230	101300000	1000	0	0	-1	100
10985395	8464	144	0	-100	0	230	101300000	1000	0	0	-1	100
10997955	8464	143	0	-100	0	230	101300000	1000	0	0	-1	100
11010515	8464	147	0	-100	0	230	101300000	1000	0	0	-1	100
11023075	8457	147	0	-100	0	230	101300000	1000	0	0	-1	100
11035635	8468	144	0	-100	0	230	101300000	1000	0	0	-1	100
11048195	8466	143	0	-100	0	230	101300000	1000	0	0	-1	100
11060755	8461	142	0	-100	0	230	101300000	1000	0	0	-1	100
11073315	8459	145	0	-100	0	230	101300000	1000	0	0	-1	100
11085875	8456	151	0	-100	0	230	101300000	1000	0	0	-1	100
11098435	8464	147	0	-100	0	230	101300000	1000	0	0	-1	100
11110995	8462	143	0	-100	0	230	101300000	1000	0	0	-1	100
11123555	8459	145	0	-100	0	230	101300000	1000	0	0	-1	100
11136115	8459	147	0	-100	0	230	101300000	1000	0	0	-1	100
11148675	8461	144	0	-100	0	230	101300000	1000	0	0	-1	100
11161235	8461	142	0	-100	0	230	101300000	1000	0	0	-1	100
11173795	8461	142	0	-100	0	230	101300000	1000	0	0	-1	100
11186355	8459	144	0	-100	0	230	101300000	1000	0	0	-1	100
11198915	8461	145	0	-100	0	230	101300000	1000	0	0	-1	100
11211475	8471	147	0	-100	0	230	101300000	1000	0	0	-1	100
11224035	8464	144	0	-100	0	230	101300000	1000	0	0	-1	100
11236595	8457	147	0	-100	0	230	101300000	1000	0	0	-1	100
11249155	8464	148	0	-100	0	230	101300000	1000	0	0	-1	100
11261715	8464	146	0	-100	0	230	101300000	1000	0	0	-1	100
11274275	8459	145	0	-100	0	230	101300000	1000	0	0	-1	100
11286835	8457	146	0	-100	0	230	101300000	1000	0	0	-1	100
11299395	8457	149	0	-100	0	230	101300000	1000	0	0	-1	100
11311955	8459	148	0	-100	0	230	101300000	1000	0	0	-1	100
11324515	8464	145	0	-100	0	230	101300000	1000	0	0	-1	100
11337075	8464	143	0	-100	0	230	101300000	1000	0	0	-1	100
11349635	8464	146	0	-100	0	230	101300000	1000	0	0	-1	100
11362195	8461	149	0	-100	0	230	101300000	1000	0	0	-1	100
11374755	8457	149	0	-100	0	230	101300000	1000	0	0	-1	100
11387315	8459	148	0	-100	0	230	101300000	1000	0	0	-1	100
11399875	8464	143	0	-100	0	230	101300000	1000	0	0	-1	100
11412435	8459	143	0	-100	0	230	101300000	1000	0	0	-1	100
11424995	8457	143	0	-100	0	230	101300000	1000	0	0	-1	100
11437555	8459	146	0	-100	0	230	101300000	1000	0	0	-1	100
11450115	8461	146	0	-100	0	230	101300000	1000	0	0	-1	100
11462675	8466	149	0	-100	0	230	101300000	1000	0	0	-1	100
11475235	8464	146	0	-100	0	230	101300000	1000	0	0	-1	100
11487795	8459	143	0	-100	0	230	101300000	1000	0	0	-1	100
11500355	8461	148	0	-100	0	230	101300000	1000	0	0	-1	100
11512915	8469	144	0	-100	0	230	101300000	1000	0	0	-1	100
11525475	8461	143	0	-100	0	230	101300000	1000	0	0	-1	100
11538035	8454	150	0	-100	0	230	101300000	1000	0	0	-1	100
11550595	8464	146	0	-100	0	230	101300000	1000	0	0	-1	100
11563155	8473	143	0	-100	0	230	101300000	1000	0	0	-1	100
11575715	8459	149	0	-100	0	230	101300000	1000	0	0	-1	100
11588275	8461	148	0	-100	0	230	101300000	1000	0	0	-1	100
11600835	8464	143	0	-100	0	230	101300000	1000	0	0	-1	100
11613395	8464	145	0	-100	0	230	101300000	1000	0	0	-1	100
11625955	8454	146	0	-100	0	230	101300000	1000	0	0	-1	100
11638515	8461	149	0	-100	0	230	101300000	1000	0	0	-1	100
11651075	8466	144	0	-100	0	230	101300000	1000	0	0	-1	100
11663635	8454	147	0	-100	0	230	101300000	1000	0	0	-1	100
11676195	8466	143	0	-100	0	230	101300000	1000	0	0	-1	100
11688755	8461	149	0	-100	0	230	101300000	1000	0	0	-1	100
11701315	8457	144	0	-100	0	230	101300000	1000	0	0	-1	100
11713875	8461	148	0	-100	0	230	101300000	1000	0	0	-1	100
11726435	8464	143	0	-100	0	230	101300000	1000	0	0	-1	100
11738995	8454	146	0	-100	0	230	101300000	1000	0	0	-1	100
11751555	8466	146	0	-100	0	230	101300000	1000	0	0	-1	100
11764115	8459	149	0	-100	0	230	101300000	1000	0	0	-1	100
11776675	8457	148	0	-100	0	230	101300000	1000	0	0	-1	100
11789235	8464	147	0	-100	0	230	101300000	1000	0	0	-1	100
11801795	8459	147	0	-100	0	230	101300000	1000	0	0	-1	100
11814355	8466	146	0	-100	0	230	101300000	1000	0	0	-1	100
11826915	8457	147	0	-100	0	230	101300000	1000	0	0	-1	100
11839475	8464	147	0	-100	0	230	101300000	1000	0	0	-1	100
11852035	8457	144	0	-100	0	230	101300000	1000	0	0	-1	100
11864595	8459	148	0	-100	0	230	101300000	1000	0	0	-1	100
11877155	8471	144	0	-100	0	230	101300000	1000	0	0	-1	100
11889715	8454	146	0	-100	0	230	101300000	1000	0	0	-1	100
11902275	8459	147	0	-100	0	230	101300000	1000	0	0	-1	100
11927395	8463	149	0	-100	0	230	101300000	1000	0	0	-1	100
11939955	8466	146	0	-100	0	230	101300000	1000	0	0	-1	100
11952515	8461	134	0	-100	0	230	101300000	1000	0	0	-1	100
11965075	8461	147	0	-100	0	230	101300000	1000	0	0	-1	100
11977635	8464	145	0	-100	0	230	101300000	1000	0	0	-1	100
11990195	8454	148	0	-100	0	230	101300000	1000	0	0	-1	100
12002755	8464	143	0	-100	0	230	101300000	1000	0	0	-1	100
12015315	8454	147	0	-100	0	230	101300000	1000	0	0	-1	100
12027875	8461	147	0	-100	0	230	101300000	1000	0	0	-1	100
12040435	8461	143	0	-100	0	230	101300000	1000	0	0	-1	100
12052995	8461	148	0	-100	0	230	101300000	1000	0	0	-1	100
12065555	8466	146	0	-100	0	230	101300000	1000	0	0	-1	100
12078115	8454	150	0	-100	0	230	101300000	1000	0	0	-1	100
12090675	8466	143	0	-100	0	230	101300000	1000	0	0	-1	100
12103235	8454	146	0	-100	0	230	101300000	1000	0	0	-1	100
12115795	8461	146	0	-100	0	230	101300000	1000	0	0	-1	100
12128355	8456	146	0	-100	0	230	101300000	1000	0	0	-1	100
12140915	8466	147	0	-100	0	230	101300000	1000	0	0	-1	100
12153475	8461	147	0	-100	0	230	101300000	1000	0	0	-1	100
12166035	8461	143	0	-100	0	230	101300000	1000	0	0	-1	100
12178595	8459	147	0	-100	0	230	101300000	1000	0	0	-1	100
12191155	8466	147	0	-100	0	230	101300000	1000	0	0	-1	100
12203715	8456	143	0	-100	0	230	101300000	1000	0	0	-1	100
12216275	8456	149	0	-100	0	230	101300000	1000	0	0	-1	100
12228835	8464	141	0	-100	0	230	101300000	1000	0	0	-1	100
12241395	8464	144	0	-100	0	230	101300000	1000	0	0	-1	100
12253955	8461	151	0	-100	0	230	101300000	1000	0	0	-1	100
12266515	8461	145	0	-100	0	230	101300000	1000	0	0	-1	100
12279075	8464	145	0	-100	0	230	101300000	1000	0	0	-1	100
12291635	8461	146	0	-100	0	230	101300000	1000	0	0	-1	100
12304195	8456	148	0	-100	0	230	101300000	1000	0	0	-1	100
12316755	8464	143	0	-100	0	230	101300000	1000	0	0	-1	100
12329315	8459	143	0	-100	0	230	101300000	1000	0	0	-1	100
12341875	8461	151	0	-100	0	230	101300000	1000	0	0	-1	100
12354435	8464	145	0	-100	0	230	101300000	1000	0	0	-1	100
12366995	8464	149	0	-100	0	230	101300000	1000	0	0	-1	100
12379555	8461	143	0	-100	0	230	101300000	1000	0	0	-1	100
12392115	8457	147	0	-100	0	230	101300000	1000	0	0	-1	100
12404675	8461	148	0	-100	0	230	101300000	1000	0	0	-1	100
12417235	8461	147	0	-100	0	230	101300000	1000	0	0	-1	100
12429795	8466	142	0	-100	0	230	101300000	1000	0	0	-1	100
12442355	8459	144	0	-100	0	230	101300000	1000	0	0	-1	100
12454915	8459	149	0	-100	0	230	101300000	1000	0	0	-1	100
12467475	8464	145	0	-100	0	230	101300000	1000	0	0	-1	100
12480035	8464	147	0	-100	0	230	101300000	1000	0	0	-1	100
12492595	8459	143	0	-100	0	230	101300000	1000	0	0	-1	100
12505155	8466	151	0	-100	0	230	101300000	1000	0	0	-1	100
12517715	8459	150	0	-100	0	230	101300000	1000	0	0	-1	100
12530275	8461	147	0	-100	0	230	101300000	1000	0	0	-1	100
12542835	8464	148	0	-100	0	230	101300000	1000	0	0	-1	100
12555395	8459	148	0	-100	0	230	101300000	1000	0	0	-1	100
12567955	8459	146	0	-100	0	230	101300000	1000	0	0	-1	100
12580515	8463	146	0	-100	0	230	101300000	1000	0	0	-1	100
12593075	8459	144	0	-100	0	230	101300000	1000	0	0	-1	100
12605635	8469	146	0	-100	0	230	101300000	1000	0	0	-1	100
12618195	8459	145	0	-100	0	230	101300000	1000	0	0	-1	100
12630755	8464	146	0	-100	0	230	101300000	1000	0	0	-1	100
12643315	8459	149	0	-100	0	230	101300000	1000	0	0	-1	100
12655875	8464	146	0	-100	0	230	101300000	1000	0	0	-1	100
12668435	8469	146	0	-100	0	230	101300000	1000	0	0	-1	100
12680995	8459	148	0	-100	0	230	101300000	1000	0	0	-1	100
12693555	8464	147	0	-100	0	230	101300000	1000	0	0	-1	100
12706115	8461	144	0	-100	0	230	101300000	1000	0	0	-1	100
12718675	8459	143	0	-100	0	230	101300000	1000	0	0	-1	100
12731235	8461	145	0	-100	0	230	101300000	1000	0	0	-1	100
12743795	8454	147	0	-100	0	230	101300000	1000	0	0	-1	100
12756355	8454	147	0	-100	0	230	101300000	1000	0	0	-1	100
12768915	8463	147	0	-100	0	230	101300000	1000	0	0	-1	100
12781475	8461	147	0	-100	0	230	101300000	1000	0	0	-1	100
12794035	8454	147	0	-100	0	230	101300000	1000	0	0	-1	100
12806595	8466	146	0	-100	0	230	101300000	1000	0	0	-1	100
12819155	8473	143	0	-100	0	230	101300000	1000	0	0	-1	100
12831715	8466	145	0	-100	0	230	101300000	1000	0	0	-1	100
12844275	8461	145	0	-100	0	230	101300000	1000	0	0	-1	100
12856835	8461	143	0	-100	0	230	101300000	1000	0	0	-1	100
12869395	8459	138	0	-100	0	230	101300000	1000	0	0	-1	100
12881955	8459	143	0	-100	0	230	101300000	1000	0	0	-1	100
12894515	8457	142	0	-100	0	230	101300000	1000	0	0	-1	100
12907075	8457	145	0	-100	0	230	101300000	1000	0	0	-1	100
12919635	8459	147	0	-100	0	230	101300000	1000	0	0	-1	100
12932195	8461	149	0	-100	0	230	101300000	1000	0	0	-1	100
12944755	8461	147	0	-100	0	230	101300000	1000	0	0	-1	100
12957315	8466	146	0	-100	0	230	101300000	1000	0	0	-1	100
12969875	8466	147	0	-100	0	230	101300000	1000	0	0	-1	100
12982435	8471	145	0	-100	0	230	101300000	1000	0	0	-1	100
12994995	8464	147	0	-100	0	230	101300000	1000	0	0	-1	100
13007555	8464	147	0	-100	0	230	101300000	1000	0	0	-1	100
13020115	8464	146	0	-100	0	230	101300000	1000	0	0	-1	100
13032675	8466	143	0	-100	0	230	101300000	1000	0	0	-1	100
13045235	8454	145	0	-100	0	230	101300000	1000	0	0	-1	100
13057795	8457	143	0	-100	0	230	101300000	1000	0	0	-1	100
13070355	8461	143	0	-100	0	230	101300000	1000	0	0	-1	100
13082915	8457	144	0	-100	0	230	101300000	1000	0	0	-1	100
13095475	8454	147	0	-100	0	230	101300000	1000	0	0	-1	100
13108035	8461	148	0	-100	0	230	101300000	1000	0	0	-1	100
13120595	8456	147	0	-100	0	230	101300000	1000	0	0	-1	100
13133155	8476	144	0	-100	0	230	101300000	1000	0	0	-1	100
13145715	8462	146	0	-100	0	230	101300000	1000	0	0	-1	100
13158275	8464	142	0	-100	0	230	101300000	1000	0	0	-1	100
13170835	8466	143	0	-100	0	230	101300000	1000	0	0	-1	100
13183395	8457	142	0	-100	0	230	101300000	1000	0	0	-1	100
13195955	8466	148	0	-100	0	230	101300000	1000	0	0	-1	100
13208515	8456	148	0	-100	0	230	101300000	1000	0	0	-1	100
13221075	8459	147	0	-100	0	230	101300000	1000	0	0	-1	100
13233635	8459	148	0	-100	0	230	101300000	1000	0	0	-1	100
13246195	8456	147	0	-100	0	230	101300000	1000	0	0	-1	100
13258755	8461	131	0	-100	0	230	101300000	1000	0	0	-1	100
13271315	8466	148	0	-100	0	230	101300000	1000	0	0	-1	100
13283875	8466	145	0	-100	0	230	101300000	1000	0	0	-1	100
13296435	8461	145	0	-100	0	230	101300000	1000	0	0	-1	100
13308995	8459	145	0	-100	0	230	101300000	1000	0	0	-1	100
13321555	8452	144	0	-100	0	230	101300000	1000	0	0	-1	100
13334115	8461	149	0	-100	0	230	101300000	1000	0	0	-1	100
13346675	8461	147	0	-100	0	230	101300000	1000	0	0	-1	100
13359235	8456	146	0	-100	0	230	101300000	1000	0	0	-1	100
13371795	8466	143	0	-100	0	230	101300000	1000	0	0	-1	100
13384355	8459	143	0	-100	0	230	101300000	1000	0	0	-1	100
13396915	8461	146	0	-100	0	230	101300000	1000	0	0	-1	100
13409475	8464	147	0	-100	0	230	101300000	1000	0	0	-1	100
13422035	8461	143	0	-100	0	230	101300000	1000	0	0	-1	100
13434595	8454	144	0	-100	0	230	101300000	1000	0	0	-1	100
13447155	8468	146	0	-100	0	230	101300000	1000	0	0	-1	100
13459715	8459	148	0	-100	0	230	101300000	1000	0	0	-1	100
13472275	8459	146	0	-100	0	230	101300000	1000	0	0	-1	100
13484835	8466	143	0	-100	0	230	101300000	1000	0	0	-1	100
13497395	8466	144	0	-100	0	230	101300000	1000	0	0	-1	100
13509955	8461	144	0	-100	0	230	101300000	1000	0	0	-1	100
13522515	8464	145	0	-100	0	230	101300000	1000	0	0	-1	100
13535075	8461	148	0	-100	0	230	101300000	1000	0	0	-1	100
13547635	8459	148	0	-100	0	230	101300000	1000	0	0	-1	100
13560195	8459	150	0	-100	0	230	101300000	1000	0	0	-1	100
13572755	8464	143	0	-100	0	230	101300000	1000	0	0	-1	100
13585315	8469	144	0	-100	0	230	101300000	1000	0	0	-1	100
13597875	8466	147	0	-100	0	230	101300000	1000	0	0	-1	100
13610435	8459	142	0	-100	0	230	101300000	1000	0	0	-1	100
13622995	8452	141	0	-100	0	230	101300000	1000	0	0	-1	100
13635555	8463	147	0	-100	0	230	101300000	1000	0	0	-1	100
13648115	8457	149	0	-100	0	230	101300000	1000	0	0	-1	100
13660675	8461	148	0	-100	0	230	101300000	1000	0	0	-1	100
13673235	8459	144	0	-100	0	230	101300000	1000	0	0	-1	100
13685795	8468	144	0	-100	0	230	101300000	1000	0	0	-1	100
13698355	8459	142	0	-100	0	230	101300000	1000	0	0	-1	100
13710915	8459	145	0	-100	0	230	101300000	1000	0	0	-1	100
13723475	8466	149	0	-100	0	230	101300000	1000	0	0	-1	100
13736035	8454	151	0	-100	0	230	101300000	1000	0	0	-1	100
13748595	8463	146	0	-100	0	230	101300000	1000	0	0	-1	100
13761155	8476	147	0	-100	0	230	101300000	1000	0	0	-1	100
13773715	8466	147	0	-100	0	230	101300000	1000	0	0	-1	100
13786275	8459	143	0	-100	0	230	101300000	1000	0	0	-1	100
13798835	8459	147	0	-100	0	230	101300000	1000	0	0	-1	100
13811395	8459	147	0	-100	0	230	101300000	1000	0	0	-1	100
13823955	8459	148	0	-100	0	230	101300000	1000	0	0	-1	100
13836515	8466	137	0	-100	0	230	101300000	1000	0	0	-1	100
13849075	8469	137	0	-100	0	230	101300000	1000	0	0	-1	100
13861635	8466	145	0	-100	0	230	101300000	1000	0	0	-1	100
13874195	8459	145	0	-100	0	230	101300000	1000	0	0	-1	100
13886755	8454	145	0	-100	0	230	101300000	1000	0	0	-1	100
13899315	8463	149	0	-100	0	230	101300000	1000	0	0	-1	100
13911875	8459	147	0	-100	0	230	101300000	1000	0	0	-1	100
13924435	8464	143	0	-100	0	230	101300000	1000	0	0	-1	100
13936995	8466	147	0	-100	0	230	101300000	1000	0	0	-1	100
13949555	8454	143	0	-100	0	230	101300000	1000	0	0	-1	100
13962115	8459	149	0	-100	0	230	101300000	1000	0	0	-1	100
13974675	8461	147	0	-100	0	230	101300000	1000	0	0	-1	100
13987235	8466	145	0	-100	0	230	101300000	1000	0	0	-1	100
13999795	8461	143	0	-100	0	230	101300000	1000	0	0	-1	100
14012355	8464	147	0	-100	0	230	101300000	1000	0	0	-1	100
14024915	8464	143	0	-100	0	230	101300000	1000	0	0	-1	100
14037475	8461	143	0	-100	0	230	101300000	1000	0	0	-1	100
14050035	8459	147	0	-100	0	230	101300000	1000	0	0	-1	100
14062595	8468	146	0	-100	0	230	101300000	1000	0	0	-1	100
14075155	8466	146	0	-100	0	230	101300000	1000	0	0	-1	100
14087715	8456	149	0	-100	0	230	101300000	1000	0	0	-1	100
14100275	8471	145	0	-100	0	230	101300000	1000	0	0	-1	100
14112835	8459	144	0	-100	0	230	101300000	1000	0	0	-1	100
14125395	8461	149	0	-100	0	230	101300000	1000	0	0	-1	100
14137955	8461	147	0	-100	0	230	101300000	1000	0	0	-1	100
14150515	8464	145	0	-100	0	230	101300000	1000	0	0	-1	100
14163075	8456	145	0	-100	0	230	101300000	1000	0	0	-1	100
14175635	8461	148	0	-100	0	230	101300000	1000	0	0	-1	100
14188195	8469	144	0	-100	0	230	101300000	1000	0	0	-1	100
14200755	8456	147	0	-100	0	230	101300000	1000	0	0	-1	100
14213315	8461	149	0	-100	0	230	101300000	1000	0	0	-1	100
14225875	8466	144	0	-100	0	230	101300000	1000	0	0	-1	100
14238435	8459	142	0	-100	0	230	101300000	1000	0	0	-1	100
14250995	8459	143	0	-100	0	230	101300000	1000	0	0	-1	100
14263555	8464	144	0	-100	0	230	101300000	1000	0	0	-1	100
14276115	8464	144	0	-100	0	230	101300000	1000	0	0	-1	100
14288675	8464	147	0	-100	0	230	101300000	1000	0	0	-1	100
14301235	8463	144	0	-100	0	230	101300000	1000	0	0	-1	100
14313795	8459	144	0	-100	0	230	101300000	1000	0	0	-1	100
14326355	8461	150	0	-100	0	230	101300000	1000	0	0	-1	100
14338915	8461	147	0	-100	0	230	101300000	1000	0	0	-1	100
14351475	8462	145	0	-100	0	230	101300000	1000	0	0	-1	100
14364035	8461	150	0	-100	0	230	101300000	1000	0	0	-1	100
14376595	8464	143	0	-100	0	230	101300000	1000	0	0	-1	100
14389155	8464	148	0	-100	0	230	101300000	1000	0	0	-1	100
14401715	8459	147	0	-100	0	230	101300000	1000	0	0	-1	100
14414275	8466	144	0	-100	0	230	101300000	1000	0	0	-1	100
14426835	8454	146	0	-100	0	230	101300000	1000	0	0	-1	100
14439395	8459	147	0	-100	0	230	101300000	1000	0	0	-1	100
14451955	8463	147	0	-100	0	230	101300000	1000	0	0	-1	100
14464515	8468	146	0	-100	0	230	101300000	1000	0	0	-1	100
14477075	8466	145	0	-100	0	230	101300000	1000	0	0	-1	100
14489635	8456	147	0	-100	0	230	101300000	1000	0	0	-1	100
14502195	8461	148	0	-100	0	230	101300000	1000	0	0	-1	100
14514755	8461	150	0	-100	0	230	101300000	1000	0	0	-1	100
14527315	8466	148	0	-100	0	230	101300000	1000	0	0	-1	100
14539875	8461	143	0	-100	0	230	101300000	1000	0	0	-1	100
14552435	8459	146	0	-100	0	230	101300000	1000	0	0	-1	100
14564995	8461	143	0	-100	0	230	101300000	1000	0	0	-1	100
14577555	8469	147	0	-100	0	230	101300000	1000	0	0	-1	100
14590115	8454	146	0	-100	0	230	101300000	1000	0	0	-1	100
14602675	8459	150	0	-100	0	230	101300000	1000	0	0	-1	100
14615235	8464	150	0	-100	0	230	101300000	1000	0	0	-1	100
14627795	8464	144	0	-100	0	230	101300000	1000	0	0	-1	100
14640355	8464	149	0	-100	0	230	101300000	1000	0	0	-1	100
14652915	8464	146	0	-100	0	230	101300000	1000	0	0	-1	100
14665475	8464	144	0	-100	0	230	101300000	1000	0	0	-1	100
14678035	8454	144	0	-100	0	230	101300000	1000	0	0	-1	100
14690595	8466	144	0	-100	0	230	101300000	1000	0	0	-1	100
14703155	8469	143	0	-100	0	230	101300000	1000	0	0	-1	100
14715715	8459	149	0	-100	0	230	101300000	1000	0	0	-1	100
14728275	8464	144	0	-100	0	230	101300000	1000	0	0	-1	100
14740835	8457	151	0	-100	0	230	101300000	1000	0	0	-1	100
14753395	8464	145	0	-100	0	230	101300000	1000	0	0	-1	100
14765955	8464	147	0	-100	0	230	101300000	1000	0	0	-1	100
14778515	8464	146	0	-100	0	230	101300000	1000	0	0	-1	100
14791075	8459	147	0	-100	0	230	101300000	1000	0	0	-1	100
14803635	8459	143	0	-100	0	230	101300000	1000	0	0	-1	100
14816195	8459	148	0	-100	0	230	101300000	1000	0	0	-1	100
14828755	8461	143	0	-100	0	230	101300000	1000	0	0	-1	100
14841315	8454	145	0	-100	0	230	101300000	1000	0	0	-1	100
14853875	8466	144	0	-100	0	230	101300000	1000	0	0	-1	100
14866435	8457	145	0	-100	0	230	101300000	1000	0	0	-1	100
14878995	8461	143	0	-100	0	230	101300000	1000	0	0	-1	100
14891555	8466	148	0	-100	0	230	101300000	1000	0	0	-1	100
14904115	8459	145	0	-100	0	230	101300000	1000	0	0	-1	100
14916675	8466	145	0	-100	0	230	101300000	1000	0	0	-1	100
14929235	8450	148	0	-100	0	230	101300000	1000	0	0	-1	100
14941795	8459	146	0	-100	0	230	101300000	1000	0	0	-1	100
14954355	8461	143	0	-100	0	230	101300000	1000	0	0	-1	100
14966915	8457	146	0	-100	0	230	101300000	1000	0	0	-1	100
14979475	8469	147	0	-100	0	230	101300000	1000	0	0	-1	100
14992035	8459	144	0	-100	0	230	101300000	1000	0	0	-1	100
15004595	8456	147	0	-100	0	230	101300000	1000	0	0	-1	100
15017155	8471	145	0	-100	0	230	101300000	1000	0	0	-1	100
15029715	8461	145	0	-100	0	230	101300000	1000	0	0	-1	100
15042275	8457	147	0	-100	0	230	101300000	1000	0	0	-1	100
15054835	8459	144	0	-100	0	230	101300000	1000	0	0	-1	100
15067395	8461	149	0	-100	0	230	101300000	1000	0	0	-1	100
15079955	8464	145	0	-100	0	230	101300000	1000	0	0	-1	100
15092515	8459	151	0	-100	0	230	101300000	1000	0	0	-1	100
15105075	8466	145	0	-100	0	230	101300000	1000	0	0	-1	100
15117635	8459	145	0	-100	0	230	101300000	1000	0	0	-1	100
15130195	8459	149	0	-100	0	230	101300000	1000	0	0	-1	100
15142755	8464	144	0	-100	0	230	101300000	1000	0	0	-1	100
15155315	8454	148	0	-100	0	230	101300000	1000	0	0	-1	100
15167875	8454	149	0	-100	0	230	101300000	1000	0	0	-1	100
15180435	8466	143	0	-100	0	230	101300000	1000	0	0	-1	100
15192995	8457	143	0	-100	0	230	101300000	1000	0	0	-1	100
15205555	8459	147	0	-100	0	230	101300000	1000	0	0	-1	100
15218115	8464	145	0	-100	0	230	101300000	1000	0	0	-1	100
15230675	8454	144	0	-100	0	230	101300000	1000	0	0	-1	100
15243235	8461	147	0	-100	0	230	101300000	1000	0	0	-1	100
15255795	8466	146	0	-100	0	230	101300000	1000	0	0	-1	100
15268355	8459	146	0	-100	0	230	101300000	1000	0	0	-1	100
15280915	8461	147	0	-100	0	230	101300000	1000	0	0	-1	100
15293475	8466	143	0	-100	0	230	101300000	1000	0	0	-1	100
15306035	8459	148	0	-100	0	230	101300000	1000	0	0	-1	100
15318595	8461	145	0	-100	0	230	101300000	1000	0	0	-1	100
15331155	8471	146	0	-100	0	230	101300000	1000	0	0	-1	100
15343715	8464	147	0	-100	0	230	101300000	1000	0	0	-1	100
15356275	8466	145	0	-100	0	230	101300000	1000	0	0	-1	100
15368835	8461	143	0	-100	0	230	101300000	1000	0	0	-1	100
15381395	8459	147	0	-100	0	230	101300000	1000	0	0	-1	100
15393955	8459	147	0	-100	0	230	101300000	1000	0	0	-1	100
15406515	8466	146	0	-100	0	230	101300000	1000	0	0	-1	100
15419075	8461	147	0	-100	0	230	101300000	1000	0	0	-1	100
15431635	8464	144	0	-100	0	230	101300000	1000	0	0	-1	100
15444195	8452	147	0	-100	0	230	101300000	1000	0	0	-1	100
15456755	8461	148	0	-100	0	230	101300000	1000	0	0	-1	100
15469315	8457	147	0	-100	0	230	101300000	1000	0	0	-1	100
15481875	8469	143	0	-100	0	230	101300000	1000	0	0	-1	100
15494435	8464	143	0	-100	0	230	101300000	1000	0	0	-1	100
15506995	8457	144	0	-100	0	230	101300000	1000	0	0	-1	100
15519555	8464	150	0	-100	0	230	101300000	1000	0	0	-1	100
15532115	8468	148	0	-100	0	230	101300000	1000	0	0	-1	100
15544675	8461	145	0	-100	0	230	101300000	1000	0	0	-1	100
15557235	8461	149	0	-100	0	230	101300000	1000	0	0	-1	100
15569795	8459	149	0	-100	0	230	101300000	1000	0	0	-1	100
15582355	8464	145	0	-100	0	230	101300000	1000	0	0	-1	100
15594915	8457	146	0	-100	0	230	101300000	1000	0	0	-1	100
15607475	8459	145	0	-100	0	230	101300000	1000	0	0	-1	100
15620035	8457	147	0	-100	0	230	101300000	1000	0	0	-1	100
15632595	8466	145	0	-100	0	230	101300000	1000	0	0	-1	100
15645155	8464	144	0	-100	0	230	101300000	1000	0	0	-1	100
15657715	8461	149	0	-100	0	230	101300000	1000	0	0	-1	100
15670275	8471	147	0	-100	0	230	101300000	1000	0	0	-1	100
15682835	8461	145	0	-100	0	230	101300000	1000	0	0	-1	100
15695395	8459	148	0	-100	0	230	101300000	1000	0	0	-1	100
15707955	8464	143	0	-100	0	230	101300000	1000	0	0	-1	100
15720515	8456	147	0	-100	0	230	101300000	1000	0	0	-1	100
15733075	8457	149	0	-100	0	230	101300000	1000	0	0	-1	100
15745635	8469	147	0	-100	0	230	101300000	1000	0	0	-1	100
15758195	8457	145	0	-100	0	230	101300000	1000	0	0	-1	100
15770755	8464	148	0	-100	0	230	101300000	1000	0	0	-1	100
15783315	8464	145	0	-100	0	230	101300000	1000	0	0	-1	100
15795875	8457	147	0	-100	0	230	101300000	1000	0	0	-1	100
15808435	8459	147	0	-100	0	230	101300000	1000	0	0	-1	100
15820995	8462	147	0	-100	0	230	101300000	1000	0	0	-1	100
15833555	8457	147	0	-100	0	230	101300000	1000	0	0	-1	100
15846115	8464	130	0	-100	0	230	101300000	1000	0	0	-1	100
15858675	8459	146	0	-100	0	230	101300000	1000	0	0	-1	100
15871235	8461	151	0	-100	0	230	101300000	1000	0	0	-1	100
15883795	8464	147	0	-100	0	230	101300000	1000	0	0	-1	100
15896355	8464	143	0	-100	0	230	101300000	1000	0	0	-1	100
15908915	8463	150	0	-100	0	230	101300000	1000	0	0	-1	100
15921475	8457	147	0	-100	0	230	101300000	1000	0	0	-1	100
15934035	8464	146	0	-100	0	230	101300000	1000	0	0	-1	100
15946595	8464	143	0	-100	0	230	101300000	1000	0	0	-1	100
15959155	8468	147	0	-100	0	230	101300000	1000	0	0	-1	100
15971715	8464	134	0	-100	0	230	101300000	1000	0	0	-1	100
15984275	8464	144	0	-100	0	230	101300000	1000	0	0	-1	100
15996835	8461	147	0	-100	0	230	101300000	1000	0	0	-1	100
16009395	8459	142	0	-100	0	230	101300000	1000	0	0	-1	100
16021955	8457	149	0	-100	0	230	101300000	1000	0	0	-1	100
16034515	8461	148	0	-100	0	230	101300000	1000	0	0	-1	100
16047075	8462	146	0	-100	0	230	101300000	1000	0	0	-1	100
16059635	8457	143	0	-100	0	230	101300000	1000	0	0	-1	100
16072195	8461	151	0	-100	0	230	101300000	1000	0	0	-1	100
16084755	8457	148	0	-100	0	230	101300000	1000	0	0	-1	100
16097315	8468	145	0	-100	0	230	101300000	1000	0	0	-1	100
16109875	8466	146	0	-100	0	230	101300000	1000	0	0	-1	100
16122435	8459	147	0	-100	0	230	101300000	1000	0	0	-1	100
16134995	8461	143	0	-100	0	230	101300000	1000	0	0	-1	100
16147555	8461	143	0	-100	0	230	101300000	1000	0	0	-1	100
16160115	8457	148	0	-100	0	230	101300000	1000	0	0	-1	100
16172675	8459	150	0	-100	0	230	101300000	1000	0	0	-1	100
16185235	8461	146	0	-100	0	230	101300000	1000	0	0	-1	100
16197795	8464	145	0	-100	0	230	101300000	1000	0	0	-1	100
16210355	8461	148	0	-100	0	230	101300000	1000	0	0	-1	100
16222915	8464	141	0	-100	0	230	101300000	1000	0	0	-1	100
16235475	8459	148	0	-100	0	230	101300000	1000	0	0	-1	100
16248035	8459	147	0	-100	0	230	101300000	1000	0	0	-1	100
16260595	8459	145	0	-100	0	230	101300000	1000	0	0	-1	100
16273155	8466	149	0	-100	0	230	101300000	1000	0	0	-1	100
16285715	8456	147	0	-100	0	230	101300000	1000	0	0	-1	100
16298275	8462	142	0	-100	0	230	101300000	1000	0	0	-1	100
16310835	8456	148	0	-100	0	230	101300000	1000	0	0	-1	100
16323395	8459	146	0	-100	0	230	101300000	1000	0	0	-1	100
16335955	8461	142	0	-100	0	230	101300000	1000	0	0	-1	100
16348515	8461	141	0	-100	0	230	101300000	1000	0	0	-1	100
16361075	8464	147	0	-100	0	230	101300000	1000	0	0	-1	100
16373635	8466	145	0	-100	0	230	101300000	1000	0	0	-1	100
16386195	8459	143	0	-100	0	230	101300000	1000	0	0	-1	100
16398755	8459	148	0	-100	0	230	101300000	1000	0	0	-1	100
16411315	8459	146	0	-100	0	230	101300000	1000	0	0	-1	100
16423875	8464	143	0	-100	0	230	101300000	1000	0	0	-1	100
16436435	8461	143	0	-100	0	230	101300000	1000	0	0	-1	100
16448995	8459	144	0	-100	0	230	101300000	1000	0	0	-1	100
16461555	8461	146	0	-100	0	230	101300000	1000	0	0	-1	100
16474115	8466	146	0	-100	0	230	101300000	1000	0	0	-1	100
16486675	8464	145	0	-100	0	230	101300000	1000	0	0	-1	100
16499235	8457	149	0	-100	0	230	101300000	1000	0	0	-1	100
16511795	8461	145	0	-100	0	230	101300000	1000	0	0	-1	100
16524355	8464	145	0	-100	0	230	101300000	1000	0	0	-1	100
16536915	8456	147	0	-100	0	230	101300000	1000	0	0	-1	100
16549475	8457	149	0	-100	0	230	101300000	1000	0	0	-1	100
16562035	8464	143	0	-100	0	230	101300000	1000	0	0	-1	100
16574595	8457	147	0	-100	0	230	101300000	1000	0	0	-1	100
16587155	8468	150	0	-100	0	230	101300000	1000	0	0	-1	100
16599715	8461	143	0	-100	0	230	101300000	1000	0	0	-1	100
16612275	8466	147	0	-100	0	230	101300000	1000	0	0	-1	100
16624835	8459	147	0	-100	0	230	101300000	1000	0	0	-1	100
16637395	8461	147	0	-100	0	230	101300000	1000	0	0	-1	100
16649955	8459	144	0	-100	0	230	101300000	1000	0	0	-1	100
16662515	8461	145	0	-100	0	230	101300000	1000	0	0	-1	100
16675075	8457	147	0	-100	0	230	101300000	1000	0	0	-1	100
16687635	8466	145	0	-100	0	230	101300000	1000	0	0	-1	100
16700195	8459	143	0	-100	0	230	101300000	1000	0	0	-1	100
16712755	8459	149	0	-100	0	230	101300000	1000	0	0	-1	100
16725315	8466	147	0	-100	0	230	101300000	1000	0	0	-1	100
16737875	8464	143	0	-100	0	230	101300000	1000	0	0	-1	100
16750435	8461	150	0	-100	0	230	101300000	1000	0	0	-1	100
16762995	8466	148	0	-100	0	230	101300000	1000	0	0	-1	100
16775555	8461	145	0	-100	0	230	101300000	1000	0	0	-1	100
16788115	8454	147	0	-100	0	230	101300000	1000	0	0	-1	100
16800675	8459	149	0	-100	0	230	101300000	1000	0	0	-1	100
16813235	8469	146	0	-100	0	230	101300000	1000	0	0	-1	100
16825795	8461	145	0	-100	0	230	101300000	1000	0	0	-1	100
16838355	8459	143	0	-100	0	230	101300000	1000	0	0	-1	100
16850915	8454	146	0	-100	0	230	101300000	1000	0	0	-1	100
16863475	8457	150	0	-100	0	230	101300000	1000	0	0	-1	100
16876035	8461	147	0	-100	0	230	101300000	1000	0	0	-1	100
16888595	8468	146	0	-100	0	230	101300000	1000	0	0	-1	100
16901155	8473	146	0	-100	0	230	101300000	1000	0	0	-1	100
16913715	8454	146	0	-100	0	230	101300000	1000	0	0	-1	100
16926275	8459	149	0	-100	0	230	101300000	1000	0	0	-1	100
16938835	8466	144	0	-100	0	230	101300000	1000	0	0	-1	100
16951395	8461	144	0	-100	0	230	101300000	1000	0	0	-1	100
16963955	8461	149	0	-100	0	230	101300000	1000	0	0	-1	100
16976515	8459	145	0	-100	0	230	101300000	1000	0	0	-1	100
16989075	8466	145	0	-100	0	230	101300000	1000	0	0	-1	100
17001635	8457	144	0	-100	0	230	101300000	1000	0	0	-1	100
17014195	8461	144	0	-100	0	230	101300000	1000	0	0	-1	100
17026755	8464	147	0	-100	0	230	101300000	1000	0	0	-1	100
17039315	8456	147	0	-100	0	230	101300000	1000	0	0	-1	100
17051875	8454	150	0	-100	0	230	101300000	1000	0	0	-1	100
17064435	8461	149	0	-100	0	230	101300000	1000	0	0	-1	100
17076995	8461	146	0	-100	0	230	101300000	1000	0	0	-1	100
17089555	8466	147	0	-100	0	230	101300000	1000	0	0	-1	100
17102115	8461	147	0	-100	0	230	101300000	1000	0	0	-1	100
17114675	8457	141	0	-100	0	230	101300000	1000	0	0	-1	100
17127235	8459	144	0	-100	0	230	101300000	1000	0	0	-1	100
17139795	8459	151	0	-100	0	230	101300000	1000	0	0	-1	100
17152355	8456	147	0	-100	0	230	101300000	1000	0	0	-1	100
17164915	8468	146	0	-100	0	230	101300000	1000	0	0	-1	100
17177475	8466	145	0	-100	0	230	101300000	1000	0	0	-1	100
17190035	8463	151	0	-100	0	230	101300000	1000	0	0	-1	100
17202595	8466	147	0	-100	0	230	101300000	1000	0	0	-1	100
17215155	8471	146	0	-100	0	230	101300000	1000	0	0	-1	100
17227715	8457	147	0	-100	0	230	101300000	1000	0	0	-1	100
17240275	8461	149	0	-100	0	230	101300000	1000	0	0	-1	100
17252835	8466	147	0	-100	0	230	101300000	1000	0	0	-1	100
17265395	8457	144	0	-100	0	230	101300000	1000	0	0	-1	100
17277955	8459	149	0	-100	0	230	101300000	1000	0	0	-1	100
17290515	8464	145	0	-100	0	230	101300000	1000	0	0	-1	100
17303075	8464	148	0	-100	0	230	101300000	1000	0	0	-1	100
17315635	8454	148	0	-100	0	230	101300000	1000	0	0	-1	100
17328195	8461	148	0	-100	0	230	101300000	1000	0	0	-1	100
17340755	8464	146	0	-100	0	230	101300000	1000	0	0	-1	100
17353315	8457	146	0	-100	0	230	101300000	1000	0	0	-1	100
17365875	8461	145	0	-100	0	230	101300000	1000	0	0	-1	100
17378435	8459	144	0	-100	0	230	101300000	1000	0	0	-1	100
17390995	8459	143	0	-100	0	230	101300000	1000	0	0	-1	100
17403555	8464	148	0	-100	0	230	101300000	1000	0	0	-1	100
17416115	8464	144	0	-100	0	230	101300000	1000	0	0	-1	100
17428675	8456	147	0	-100	0	230	101300000	1000	0	0	-1	100
17441235	8461	147	0	-100	0	230	101300000	1000	0	0	-1	100
17453795	8464	144	0	-100	0	230	101300000	1000	0	0	-1	100
17466355	8457	144	0	-100	0	230	101300000	1000	0	0	-1	100
17478915	8464	149	0	-100	0	230	101300000	1000	0	0	-1	100
17491475	8461	147	0	-100	0	230	101300000	1000	0	0	-1	100
17504035	8466	146	0	-100	0	230	101300000	1000	0	0	-1	100
17516595	8454	146	0	-100	0	230	101300000	1000	0	0	-1	100
17529155	8468	150	0	-100	0	230	101300000	1000	0	0	-1	100
17541715	8468	146	0	-100	0	230	101300000	1000	0	0	-1	100
17554275	8464	145	0	-100	0	230	101300000	1000	0	0	-1	100
17566835	8461	146	0	-100	0	230	101300000	1000	0	0	-1	100
17579395	8457	147	0	-100	0	230	101300000	1000	0	0	-1	100
17591955	8463	150	0	-100	0	230	101300000	1000	0	0	-1	100
17604515	8463	147	0	-100	0	230	101300000	1000	0	0	-1	100
17617075	8459	142	0	-100	0	230	101300000	1000	0	0	-1	100
17629635	8461	146	0	-100	0	230	101300000	1000	0	0	-1	100
17642195	8459	143	0	-100	0	230	101300000	1000	0	0	-1	100
17654755	8457	148	0	-100	0	230	101300000	1000	0	0	-1	100
17667315	8459	147	0	-100	0	230	101300000	1000	0	0	-1	100
17679875	8466	146	0	-100	0	230	101300000	1000	0	0	-1	100
17692435	8461	145	0	-100	0	230	101300000	1000	0	0	-1	100
17704995	8461	143	0	-100	0	230	101300000	1000	0	0	-1	100
17717555	8461	147	0	-100	0	230	101300000	1000	0	0	-1	100
17730115	8459	149	0	-100	0	230	101300000	1000	0	0	-1	100
17742675	8469	146	0	-100	0	230	101300000	1000	0	0	-1	100
17755235	8461	143	0	-100	0	230	101300000	1000	0	0	-1	100
17767795	8464	147	0	-100	0	230	101300000	1000	0	0	-1	100
17780355	8459	147	0	-100	0	230	101300000	1000	0	0	-1	100
17818035	8459	143	0	-100	0	230	101300000	1000	0	0	-1	100
17830595	8464	143	0	-100	0	230	101300000	1000	0	0	-1	100
17843155	8464	148	0	-100	0	230	101300000	1000	0	0	-1	100
17855715	8469	141	0	-100	0	230	101300000	1000	0	0	-1	100
17868275	8456	145	0	-100	0	230	101300000	1000	0	0	-1	100
17880835	8456	150	0	-100	0	230	101300000	1000	0	0	-1	100
17893395	8466	143	0	-100	0	230	101300000	1000	0	0	-1	100
17905955	8459	147	0	-100	0	230	101300000	1000	0	0	-1	100
17918515	8456	148	0	-100	0	230	101300000	1000	0	0	-1	100
17931075	8464	146	0	-100	0	230	101300000	1000	0	0	-1	100
17943635	8461	147	0	-100	0	230	101300000	1000	0	0	-1	100
17956195	8464	144	0	-100	0	230	101300000	1000	0	0	-1	100
17981315	8466	146	0	-100	0	230	101300000	1000	0	0	-1	100
17993875	8461	150	0	-100	0	230	101300000	1000	0	0	-1	100
18006435	8464	147	0	-100	0	230	101300000	1000	0	0	-1	100
18018995	8459	145	0	-100	0	230	101300000	1000	0	0	-1	100
18031555	8461	143	0	-100	0	230	101300000	1000	0	0	-1	100
18044115	8464	147	0	-100	0	230	101300000	1000	0	0	-1	100
18056675	8464	144	0	-100	0	230	101300000	1000	0	0	-1	100
18069235	8461	148	0	-100	0	230	101300000	1000	0	0	-1	100
18081795	8466	147	0	-100	0	230	101300000	1000	0	0	-1	100
18094355	8461	147	0	-100	0	230	101300000	1000	0	0	-1	100
18106915	8459	145	0	-100	0	230	101300000	1000	0	0	-1	100
18119475	8456	149	0	-100	0	230	101300000	1000	0	0	-1	100
18132035	8459	146	0	-100	0	230	101300000	1000	0	0	-1	100
18144595	8456	147	0	-100	0	230	101300000	1000	0	0	-1	100
18157155	8473	147	0	-100	0	230	101300000	1000	0	0	-1	100
18169715	8459	149	0	-100	0	230	101300000	1000	0	0	-1	100
18182275	8464	145	0	-100	0	230	101300000	1000	0	0	-1	100
18194835	8459	148	0	-100	0	230	101300000	1000	0	0	-1	100
18207395	8459	145	0	-100	0	230	101300000	1000	0	0	-1	100
18219955	8459	147	0	-100	0	230	101300000	1000	0	0	-1	100
18232515	8457	142	0	-100	0	230	101300000	1000	0	0	-1	100
18245075	8459	146	0	-100	0	230	101300000	1000	0	0	-1	100
18257635	8459	146	0	-100	0	230	101300000	1000	0	0	-1	100
18270195	8462	145	0	-100	0	230	101300000	1000	0	0	-1	100
18282755	8461	147	0	-100	0	230	101300000	1000	0	0	-1	100
18295315	8459	145	0	-100	0	230	101300000	1000	0	0	-1	100
18307875	8464	146	0	-100	0	230	101300000	1000	0	0	-1	100
18320435	8454	145	0	-100	0	230	101300000	1000	0	0	-1	100
18332995	8466	147	0	-100	0	230	101300000	1000	0	0	-1	100
18345555	8461	150	0	-100	0	230	101300000	1000	0	0	-1	100
18358115	8461	143	0	-100	0	230	101300000	1000	0	0	-1	100
18370675	8464	143	0	-100	0	230	101300000	1000	0	0	-1	100
18383235	8463	147	0	-100	0	230	101300000	1000	0	0	-1	100
18395795	8466	142	0	-100	0	230	101300000	1000	0	0	-1	100
18408355	8459	148	0	-100	0	230	101300000	1000	0	0	-1	100
18420915	8464	146	0	-100	0	230	101300000	1000	0	0	-1	100
18433475	8461	150	0	-100	0	230	101300000	1000	0	0	-1	100
18446035	8464	144	0	-100	0	230	101300000	1000	0	0	-1	100
18458595	8461	147	0	-100	0	230	101300000	1000	0	0	-1	100
18471155	8480	146	0	-100	0	230	101300000	1000	0	0	-1	100
18483715	8459	147	0	-100	0	230	101300000	1000	0	0	-1	100
18496275	8464	146	0	-100	0	230	101300000	1000	0	0	-1	100
18508835	8457	147	0	-100	0	230	101300000	1000	0	0	-1	100
18521395	8454	147	0	-100	0	230	101300000	1000	0	0	-1	100
18533955	8464	145	0	-100	0	230	101300000	1000	0	0	-1	100
18546515	8464	147	0	-100	0	230	101300000	1000	0	0	-1	100
18559075	8466	145	0	-100	0	230	101300000	1000	0	0	-1	100
18571635	8461	144	0	-100	0	230	101300000	1000	0	0	-1	100
18584195	8456	150	0	-100	0	230	101300000	1000	0	0	-1	100
18596755	8463	149	0	-100	0	230	101300000	1000	0	0	-1	100
18609315	8464	143	0	-100	0	230	101300000	1000	0	0	-1	100
18621875	8459	143	0	-100	0	230	101300000	1000	0	0	-1	100
18634435	8459	148	0	-100	0	230	101300000	1000	0	0	-1	100
18646995	8464	147	0	-100	0	230	101300000	1000	0	0	-1	100
18659555	8459	146	0	-100	0	230	101300000	1000	0	0	-1	100
18672115	8459	150	0	-100	0	230	101300000	1000	0	0	-1	100
18684675	8462	143	0	-100	0	230	101300000	1000	0	0	-1	100
18697235	8459	146	0	-100	0	230	101300000	1000	0	0	-1	100
18709795	8459	147	0	-100	0	230	101300000	1000	0	0	-1	100
18722355	8461	143	0	-100	0	230	101300000	1000	0	0	-1	100
18734915	8456	151	0	-100	0	230	101300000	1000	0	0	-1	100
18747475	8464	146	0	-100	0	230	101300000	1000	0	0	-1	100
18760035	8461	148	0	-100	0	230	101300000	1000	0	0	-1	100
18772595	8464	142	0	-100	0	230	101300000	1000	0	0	-1	100
18785155	8461	146	0	-100	0	230	101300000	1000	0	0	-1	100
18797715	8459	145	0	-100	0	230	101300000	1000	0	0	-1	100
18810275	8464	145	0	-100	0	230	101300000	1000	0	0	-1	100
18822835	8461	146	0	-100	0	230	101300000	1000	0	0	-1	100
18835395	8461	144	0	-100	0	230	101300000	1000	0	0	-1	100
18847955	8464	145	0	-100	0	230	101300000	1000	0	0	-1	100
18860515	8459	147	0	-100	0	230	101300000	1000	0	0	-1	100
18873075	8466	143	0	-100	0	230	101300000	1000	0	0	-1	100
18885635	8464	144	0	-100	0	230	101300000	1000	0	0	-1	100
18898195	8456	150	0	-100	0	230	101300000	1000	0	0	-1	100
18910755	8466	145	0	-100	0	230	101300000	1000	0	0	-1	100
18923315	8454	145	0	-100	0	230	101300000	1000	0	0	-1	100
18935875	8456	147	0	-100	0	230	101300000	1000	0	0	-1	100
18948435	8462	145	0	-100	0	230	101300000	1000	0	0	-1	100
18960995	8459	145	0	-100	0	230	101300000	1000	0	0	-1	100
18973555	8466	145	0	-100	0	230	101300000	1000	0	0	-1	100
18986115	8454	146	0	-100	0	230	101300000	1000	0	0	-1	100
18998675	8457	147	0	-100	0	230	101300000	1000	0	0	-1	100
19011235	8464	147	0	-100	0	230	101300000	1000	0	0	-1	100
19023795	8456	148	0	-100	0	230	101300000	1000	0	0	-1	100
19036355	8464	142	0	-100	0	230	101300000	1000	0	0	-1	100
19048915	8461	148	0	-100	0	230	101300000	1000	0	0	-1	100
19061475	8459	148	0	-100	0	230	101300000	1000	0	0	-1	100
19074035	8466	146	0	-100	0	230	101300000	1000	0	0	-1	100
19086595	8454	145	0	-100	0	230	101300000	1000	0	0	-1	100
19099155	8468	146	0	-100	0	230	101300000	1000	0	0	-1	100
19111715	8464	147	0	-100	0	230	101300000	1000	0	0	-1	100
19124275	8459	148	0	-100	0	230	101300000	1000	0	0	-1	100
19136835	8454	147	0	-100	0	230	101300000	1000	0	0	-1	100
19149395	8469	144	0	-100	0	230	101300000	1000	0	0	-1	100
19161955	8457	143	0	-100	0	230	101300000	1000	0	0	-1	100
19174515	8459	146	0	-100	0	230	101300000	1000	0	0	-1	100
19187075	8457	147	0	-100	0	230	101300000	1000	0	0	-1	100
19199635	8466	144	0	-100	0	230	101300000	1000	0	0	-1	100
19212195	8464	143	0	-100	0	230	101300000	1000	0	0	-1	100
19224755	8461	148	0	-100	0	230	101300000	1000	0	0	-1	100
19237315	8469	140	0	-100	0	230	101300000	1000	0	0	-1	100
19249875	8459	143	0	-100	0	230	101300000	1000	0	0	-1	100
19262435	8459	149	0	-100	0	230	101300000	1000	0	0	-1	100
19274995	8466	146	0	-100	0	230	101300000	1000	0	0	-1	100
19287555	8454	145	0	-100	0	230	101300000	1000	0	0	-1	100
19300115	8464	147	0	-100	0	230	101300000	1000	0	0	-1	100
19312675	8469	144	0	-100	0	230	101300000	1000	0	0	-1	100
19325235	8457	144	0	-100	0	230	101300000	1000	0	0	-1	100
19337795	8459	149	0	-100	0	230	101300000	1000	0	0	-1	100
19350355	8464	148	0	-100	0	230	101300000	1000	0	0	-1	100
19362915	8457	145	0	-100	0	230	101300000	1000	0	0	-1	100
19375475	8454	145	0	-100	0	230	101300000	1000	0	0	-1	100
19388035	8461	149	0	-100	0	230	101300000	1000	0	0	-1	100
19400595	8466	144	0	-100	0	230	101300000	1000	0	0	-1	100
19413155	8476	142	0	-100	0	230	101300000	1000	0	0	-1	100
19425715	8461	143	0	-100	0	230	101300000	1000	0	0	-1	100
19438275	8459	149	0	-100	0	230	101300000	1000	0	0	-1	100
19450835	8468	146	0	-100	0	230	101300000	1000	0	0	-1	100
19463395	8466	143	0	-100	0	230	101300000	1000	0	0	-1	100
19475955	8459	146	0	-100	0	230	101300000	1000	0	0	-1	100
19488515	8461	146	0	-100	0	230	101300000	1000	0	0	-1	100
19501075	8461	146	0	-100	0	230	101300000	1000	0	0	-1	100
19513635	8459	147	0	-100	0	230	101300000	1000	0	0	-1	100
19526195	8459	149	0	-100	0	230	101300000	1000	0	0	-1	100
19538755	8464	146	0	-100	0	230	101300000	1000	0	0	-1	100
19551315	8454	146	0	-100	0	230	101300000	1000	0	0	-1	100
19563875	8461	146	0	-100	0	230	101300000	1000	0	0	-1	100
19576435	8461	144	0	-100	0	230	101300000	1000	0	0	-1	100
19588995	8459	143	0	-100	0	230	101300000	1000	0	0	-1	100
19601555	8461	147	0	-100	0	230	101300000	1000	0	0	-1	100
19614115	8466	147	0	-100	0	230	101300000	1000	0	0	-1	100
19626675	8457	145	0	-100	0	230	101300000	1000	0	0	-1	100
19639235	8456	147	0	-100	0	230	101300000	1000	0	0	-1	100
19651795	8466	146	0	-100	0	230	101300000	1000	0	0	-1	100
19664355	8457	146	0	-100	0	230	101300000	1000	0	0	-1	100
19676915	8459	148	0	-100	0	230	101300000	1000	0	0	-1	100
19689475	8468	147	0	-100	0	230	101300000	1000	0	0	-1	100
19702035	8456	147	0	-100	0	230	101300000	1000	0	0	-1	100
19714595	8464	146	0	-100	0	230	101300000	1000	0	0	-1	100
19727155	8466	148	0	-100	0	230	101300000	1000	0	0	-1	100
19739715	8457	147	0	-100	0	230	101300000	1000	0	0	-1	100
19752275	8463	144	0	-100	0	230	101300000	1000	0	0	-1	100
19764835	8461	146	0	-100	0	230	101300000	1000	0	0	-1	100
19777395	8457	144	0	-100	0	230	101300000	1000	0	0	-1	100
19789955	8461	147	0	-100	0	230	101300000	1000	0	0	-1	100
19802515	8466	146	0	-100	0	230	101300000	1000	0	0	-1	100
19815075	8463	149	0	-100	0	230	101300000	1000	0	0	-1	100
19827635	8471	147	0	-100	0	230	101300000	1000	0	0	-1	100
19840195	8461	144	0	-100	0	230	101300000	1000	0	0	-1	100
19852755	8461	149	0	-100	0	230	101300000	1000	0	0	-1	100
19865315	8461	132	0	-100	0	230	101300000	1000	0	0	-1	100
19877875	8461	143	0	-100	0	230	101300000	1000	0	0	-1	100
19890435	8456	151	0	-100	0	230	101300000	1000	0	0	-1	100
19902995	8459	147	0	-100	0	230	101300000	1000	0	0	-1	100
19915555	8457	145	0	-100	0	230	101300000	1000	0	0	-1	100
19928115	8461	150	0	-100	0	230	101300000	1000	0	0	-1	100
19940675	8459	145	0	-100	0	230	101300000	1000	0	0	-1	100
19953235	8459	146	0	-100	0	230	101300000	1000	0	0	-1	100
19965795	8459	148	0	-100	0	230	101300000	1000	0	0	-1	100
19978355	8464	144	0	-100	0	230	101300000	1000	0	0	-1	100
19990915	8452	146	0	-100	0	230	101300000	1000	0	0	-1	100
20003475	8464	144	0	-100	0	230	101300000	1000	0	0	-1	100
20016035	8459	143	0	-100	0	230	101300000	1000	0	0	-1	100
20028595	8459	147	0	-100	0	230	101300000	1000	0	0	-1	100
20041155	8466	144	0	-100	0	230	101300000	1000	0	0	-1	100
20053715	8461	148	0	-100	0	230	101300000	1000	0	0	-1	100
20066275	8468	143	0	-100	0	230	101300000	1000	0	0	-1	100
20078835	8457	145	0	-100	0	230	101300000	1000	0	0	-1	100
20091395	8466	146	0	-100	0	230	101300000	1000	0	0	-1	100
20103955	8454	147	0	-100	0	230	101300000	1000	0	0	-1	100
20116515	8466	145	0	-100	0	230	101300000	1000	0	0	-1	100
20129075	8459	144	0	-100	0	230	101300000	1000	0	0	-1	100
20141635	8456	147	0	-100	0	230	101300000	1000	0	0	-1	100
20154195	8461	143	0	-100	0	230	101300000	1000	0	0	-1	100
20166755	8461	149	0	-100	0	230	101300000	1000	0	0	-1	100
20179315	8464	146	0	-100	0	230	101300000	1000	0	0	-1	100
20191875	8457	146	0	-100	0	230	101300000	1000	0	0	-1	100
20204435	8466	143	0	-100	0	230	101300000	1000	0	0	-1	100
20216995	8459	147	0	-100	0	230	101300000	1000	0	0	-1	100
20229555	8464	144	0	-100	0	230	101300000	1000	0	0	-1	100
20242115	8456	148	0	-100	0	230	101300000	1000	0	0	-1	100
20254675	8463	145	0	-100	0	230	101300000	1000	0	0	-1	100
20267235	8457	143	0	-100	0	230	101300000	1000	0	0	-1	100
20279795	8461	145	0	-100	0	230	101300000	1000	0	0	-1	100
20292355	8461	144	0	-100	0	230	101300000	1000	0	0	-1	100
20304915	8461	149	0	-100	0	230	101300000	1000	0	0	-1	100
20317475	8459	143	0	-100	0	230	101300000	1000	0	0	-1	100
20330035	8459	150	0	-100	0	230	101300000	1000	0	0	-1	100
20342595	8464	143	0	-100	0	230	101300000	1000	0	0	-1	100
20355155	8471	149	0	-100	0	230	101300000	1000	0	0	-1	100
20367715	8468	146	0	-100	0	230	101300000	1000	0	0	-1	100
20380275	8457	150	0	-100	0	230	101300000	1000	0	0	-1	100
20392835	8461	144	0	-100	0	230	101300000	1000	0	0	-1	100
20405395	8463	148	0	-100	0	230	101300000	1000	0	0	-1	100
20417955	8462	146	0	-100	0	230	101300000	1000	0	0	-1	100
20430515	8461	148	0	-100	0	230	101300000	1000	0	0	-1	100
20443075	8464	142	0	-100	0	230	101300000	1000	0	0	-1	100
20455635	8459	144	0	-100	0	230	101300000	1000	0	0	-1	100
20468195	8466	147	0	-100	0	230	101300000	1000	0	0	-1	100
20480755	8454	147	0	-100	0	230	101300000	1000	0	0	-1	100
20493315	8461	144	0	-100	0	230	101300000	1000	0	0	-1	100
20505875	8459	142	0	-100	0	230	101300000	1000	0	0	-1	100
20518435	8461	148	0	-100	0	230	101300000	1000	0	0	-1	100
20530995	8459	147	0	-100	0	230	101300000	1000	0	0	-1	100
20543555	8459	147	0	-100	0	230	101300000	1000	0	0	-1	100
20556115	8459	145	0	-100	0	230	101300000	1000	0	0	-1	100
20568675	8461	143	0	-100	0	230	101300000	1000	0	0	-1	100
20581235	8457	146	0	-100	0	230	101300000	1000	0	0	-1	100
20593795	8466	147	0	-100	0	230	101300000	1000	0	0	-1	100
20606355	8459	146	0	-100	0	230	101300000	1000	0	0	-1	100
20618915	8459	143	0	-100	0	230	101300000	1000	0	0	-1	100
20631475	8457	143	0	-100	0	230	101300000	1000	0	0	-1	100
20644035	8459	147	0	-100	0	230	101300000	1000	0	0	-1	100
20656595	8461	143	0	-100	0	230	101300000	1000	0	0	-1	100
20669155	8466	147	0	-100	0	230	101300000	1000	0	0	-1	100
20681715	8459	144	0	-100	0	230	101300000	1000	0	0	-1	100
20694275	8468	147	0	-100	0	230	101300000	1000	0	0	-1	100
20706835	8452	143	0	-100	0	230	101300000	1000	0	0	-1	100
20719395	8461	144	0	-100	0	230	101300000	1000	0	0	-1	100
20731955	8461	145	0	-100	0	230	101300000	1000	0	0	-1	100
20744515	8463	148	0	-100	0	230	101300000	1000	0	0	-1	100
20757075	8454	147	0	-100	0	230	101300000	1000	0	0	-1	100
20769635	8464	145	0	-100	0	230	101300000	1000	0	0	-1	100
20782195	8463	149	0	-100	0	230	101300000	1000	0	0	-1	100
20794755	8461	147	0	-100	0	230	101300000	1000	0	0	-1	100
20807315	8454	148	0	-100	0	230	101300000	1000	0	0	-1	100
20819875	8457	145	0	-100	0	230	101300000	1000	0	0	-1	100
20832435	8457	147	0	-100	0	230	101300000	1000	0	0	-1	100
20844995	8457	145	0	-100	0	230	101300000	1000	0	0	-1	100
20857555	8464	147	0	-100	0	230	101300000	1000	0	0	-1	100
20870115	8452	145	0	-100	0	230	101300000	1000	0	0	-1	100
20882675	8464	145	0	-100	0	230	101300000	1000	0	0	-1	100
20895235	8459	150	0	-100	0	230	101300000	1000	0	0	-1	100
20907795	8462	147	0	-100	0	230	101300000	1000	0	0	-1	100
20920355	8461	147	0	-100	0	230	101300000	1000	0	0	-1	100
20932915	8464	147	0	-100	0	230	101300000	1000	0	0	-1	100
20945475	8459	147	0	-100	0	230	101300000	1000	0	0	-1	100
20958035	8459	147	0	-100	0	230	101300000	1000	0	0	-1	100
20970595	8466	143	0	-100	0	230	101300000	1000	0	0	-1	100
20983155	8466	151	0	-100	0	230	101300000	1000	0	0	-1	100
20995715	8468	144	0	-100	0	230	101300000	1000	0	0	-1	100
21008275	8462	146	0	-100	0	230	101300000	1000	0	0	-1	100
21020835	8459	145	0	-100	0	230	101300000	1000	0	0	-1	100
21033395	8463	149	0	-100	0	230	101300000	1000	0	0	-1	100
21045955	8469	147	0	-100	0	230	101300000	1000	0	0	-1	100
21058515	8461	147	0	-100	0	230	101300000	1000	0	0	-1	100
21071075	8461	150	0	-100	0	230	101300000	1000	0	0	-1	100
21083635	8469	147	0	-100	0	230	101300000	1000	0	0	-1	100
21096195	8464	146	0	-100	0	230	101300000	1000	0	0	-1	100
21108755	8461	151	0	-100	0	230	101300000	1000	0	0	-1	100
21121315	8468	146	0	-100	0	230	101300000	1000	0	0	-1	100
21133875	8459	145	0	-100	0	230	101300000	1000	0	0	-1	100
21146435	8459	149	0	-100	0	230	101300000	1000	0	0	-1	100
21158995	8464	150	0	-100	0	230	101300000	1000	0	0	-1	100
21171555	8457	147	0	-100	0	230	101300000	1000	0	0	-1	100
21184115	8461	145	0	-100	0	230	101300000	1000	0	0	-1	100
21196675	8454	146	0	-100	0	230	101300000	1000	0	0	-1	100
21209235	8461	147	0	-100	0	230	101300000	1000	0	0	-1	100
21221795	8464	143	0	-100	0	230	101300000	1000	0	0	-1	100
21234355	8456	148	0	-100	0	230	101300000	1000	0	0	-1	100
21246915	8464	143	0	-100	0	230	101300000	1000	0	0	-1	100
21259475	8461	149	0	-100	0	230	101300000	1000	0	0	-1	100
21272035	8464	146	0	-100	0	230	101300000	1000	0	0	-1	100
21284595	8459	145	0	-100	0	230	101300000	1000	0	0	-1	100
21297155	8468	147	0	-100	0	230	101300000	1000	0	0	-1	100
21309715	8469	146	0	-100	0	230	101300000	1000	0	0	-1	100
21322275	8454	147	0	-100	0	230	101300000	1000	0	0	-1	100
21334835	8459	146	0	-100	0	230	101300000	1000	0	0	-1	100
21347395	8464	146	0	-100	0	230	101300000	1000	0	0	-1	100
21359955	8454	145	0	-100	0	230	101300000	1000	0	0	-1	100
21372515	8461	147	0	-100	0	230	101300000	1000	0	0	-1	100
21385075	8462	146	0	-100	0	230	101300000	1000	0	0	-1	100
21397635	8461	150	0	-100	0	230	101300000	1000	0	0	-1	100
21410195	8469	147	0	-100	0	230	101300000	1000	0	0	-1	100
21422755	8457	148	0	-100	0	230	101300000	1000	0	0	-1	100
21435315	8461	144	0	-100	0	230	101300000	1000	0	0	-1	100
21447875	8461	146	0	-100	0	230	101300000	1000	0	0	-1	100
21460435	8456	149	0	-100	0	230	101300000	1000	0	0	-1	100
21472995	8466	150	0	-100	0	230	101300000	1000	0	0	-1	100
21485555	8461	150	0	-100	0	230	101300000	1000	0	0	-1	100
21498115	8466	145	0	-100	0	230	101300000	1000	0	0	-1	100
21510675	8461	141	0	-100	0	230	101300000	1000	0	0	-1	100
21523235	8459	150	0	-100	0	230	101300000	1000	0	0	-1	100
21535795	8468	149	0	-100	0	230	101300000	1000	0	0	-1	100
21548355	8454	142	0	-100	0	230	101300000	1000	0	0	-1	100
21560915	8456	148	0	-100	0	230	101300000	1000	0	0	-1	100
21573475	8457	143	0	-100	0	230	101300000	1000	0	0	-1	100
21586035	8462	142	0	-100	0	230	101300000	1000	0	0	-1	100
21598595	8461	147	0	-100	0	230	101300000	1000	0	0	-1	100
21611155	8468	149	0	-100	0	230	101300000	1000	0	0	-1	100
21623715	8459	145	0	-100	0	230	101300000	1000	0	0	-1	100
21636275	8468	147	0	-100	0	230	101300000	1000	0	0	-1	100
21648835	8464	146	0	-100	0	230	101300000	1000	0	0	-1	100
21661395	8461	148	0	-100	0	230	101300000	1000	0	0	-1	100
21673955	8461	143	0	-100	0	230	101300000	1000	0	0	-1	100
21686515	8464	144	0	-100	0	230	101300000	1000	0	0	-1	100
21699075	8459	146	0	-100	0	230	101300000	1000	0	0	-1	100
21711635	8462	144	0	-100	0	230	101300000	1000	0	0	-1	100
21724195	8461	150	0	-100	0	230	101300000	1000	0	0	-1	100
21736755	8464	147	0	-100	0	230	101300000	1000	0	0	-1	100
21749315	8452	145	0	-100	0	230	101300000	1000	0	0	-1	100
21761875	8466	146	0	-100	0	230	101300000	1000	0	0	-1	100
21774435	8452	146	0	-100	0	230	101300000	1000	0	0	-1	100
21786995	8461	144	0	-100	0	230	101300000	1000	0	0	-1	100
21799555	8464	146	0	-100	0	230	101300000	1000	0	0	-1	100
21812115	8464	148	0	-100	0	230	101300000	1000	0	0	-1	100
21824675	8469	147	0	-100	0	230	101300000	1000	0	0	-1	100
21837235	8466	145	0	-100	0	230	101300000	1000	0	0	-1	100
21849795	8456	147	0	-100	0	230	101300000	1000	0	0	-1	100
21862355	8461	149	0	-100	0	230	101300000	1000	0	0	-1	100
21874915	8466	145	0	-100	0	230	101300000	1000	0	0	-1	100
21887475	8466	145	0	-100	0	230	101300000	1000	0	0	-1	100
21900035	8459	147	0	-100	0	230	101300000	1000	0	0	-1	100
21912595	8461	151	0	-100	0	230	101300000	1000	0	0	-1	100
21925155	8468	148	0	-100	0	230	101300000	1000	0	0	-1	100
21937715	8464	147	0	-100	0	230	101300000	1000	0	0	-1	100
21950275	8464	146	0	-100	0	230	101300000	1000	0	0	-1	100
21962835	8454	143	0	-100	0	230	101300000	1000	0	0	-1	100
21975395	8459	149	0	-100	0	230	101300000	1000	0	0	-1	100
21987955	8464	143	0	-100	0	230	101300000	1000	0	0	-1	100
22000515	8457	147	0	-100	0	230	101300000	1000	0	0	-1	100
22013075	8457	149	0	-100	0	230	101300000	1000	0	0	-1	100
22025635	8461	147	0	-100	0	230	101300000	1000	0	0	-1	100
22038195	8457	147	0	-100	0	230	101300000	1000	0	0	-1	100
22050755	8459	146	0	-100	0	230	101300000	1000	0	0	-1	100
22063315	8466	143	0	-100	0	230	101300000	1000	0	0	-1	100
22075875	8459	147	0	-100	0	230	101300000	1000	0	0	-1	100
22088435	8461	147	0	-100	0	230	101300000	1000	0	0	-1	100
22100995	8459	145	0	-100	0	230	101300000	1000	0	0	-1	100
22113555	8461	147	0	-100	0	230	101300000	1000	0	0	-1	100
22126115	8462	143	0	-100	0	230	101300000	1000	0	0	-1	100
22138675	8461	150	0	-100	0	230	101300000	1000	0	0	-1	100
22151235	8466	145	0	-100	0	230	101300000	1000	0	0	-1	100
22163795	8466	144	0	-100	0	230	101300000	1000	0	0	-1	100
22176355	8457	147	0	-100	0	230	101300000	1000	0	0	-1	100
22188915	8459	148	0	-100	0	230	101300000	1000	0	0	-1	100
22201475	8468	145	0	-100	0	230	101300000	1000	0	0	-1	100
22214035	8464	147	0	-100	0	230	101300000	1000	0	0	-1	100
22226595	8454	145	0	-100	0	230	101300000	1000	0	0	-1	100
22239155	8468	150	0	-100	0	230	101300000	1000	0	0	-1	100
22251715	8471	145	0	-100	0	230	101300000	1000	0	0	-1	100
22264275	8464	145	0	-100	0	230	101300000	1000	0	0	-1	100
22276835	8454	144	0	-100	0	230	101300000	1000	0	0	-1	100
22289395	8459	148	0	-100	0	230	101300000	1000	0	0	-1	100
22301955	8461	148	0	-100	0	230	101300000	1000	0	0	-1	100
22314515	8464	143	0	-100	0	230	101300000	1000	0	0	-1	100
22327075	8461	143	0	-100	0	230	101300000	1000	0	0	-1	100
22339635	8459	146	0	-100	0	230	101300000	1000	0	0	-1	100
22352195	8459	149	0	-100	0	230	101300000	1000	0	0	-1	100
22364755	8464	145	0	-100	0	230	101300000	1000	0	0	-1	100
22377315	8464	145	0	-100	0	230	101300000	1000	0	0	-1	100
22389875	8454	147	0	-100	0	230	101300000	1000	0	0	-1	100
22402435	8459	148	0	-100	0	230	101300000	1000	0	0	-1	100
22414995	8466	148	0	-100	0	230	101300000	1000	0	0	-1	100
22427555	8466	143	0	-100	0	230	101300000	1000	0	0	-1	100
22440115	8464	145	0	-100	0	230	101300000	1000	0	0	-1	100
22452675	8457	144	0	-100	0	230	101300000	1000	0	0	-1	100
22465235	8459	149	0	-100	0	230	101300000	1000	0	0	-1	100
22477795	8462	143	0	-100	0	230	101300000	1000	0	0	-1	100
22490355	8454	148	0	-100	0	230	101300000	1000	0	0	-1	100
22502915	8459	147	0	-100	0	230	101300000	1000	0	0	-1	100
22515475	8464	143	0	-100	0	230	101300000	1000	0	0	-1	100
22528035	8461	144	0	-100	0	230	101300000	1000	0	0	-1	100
22540595	8456	147	0	-100	0	230	101300000	1000	0	0	-1	100
22553155	8476	145	0	-100	0	230	101300000	1000	0	0	-1	100
22565715	8459	142	0	-100	0	230	101300000	1000	0	0	-1	100
22578275	8459	149	0	-100	0	230	101300000	1000	0	0	-1	100
22590835	8462	147	0	-100	0	230	101300000	1000	0	0	-1	100
22603395	8461	147	0	-100	0	230	101300000	1000	0	0	-1	100
22615955	8471	146	0	-100	0	230	101300000	1000	0	0	-1	100
22628515	8459	141	0	-100	0	230	101300000	1000	0	0	-1	100
22641075	8454	148	0	-100	0	230	101300000	1000	0	0	-1	100
22653635	8469	146	0	-100	0	230	101300000	1000	0	0	-1	100
22666195	8459	146	0	-100	0	230	101300000	1000	0	0	-1	100
22678755	8459	149	0	-100	0	230	101300000	1000	0	0	-1	100
22691315	8471	143	0	-100	0	230	101300000	1000	0	0	-1	100
22703875	8461	147	0	-100	0	230	101300000	1000	0	0	-1	100
22716435	8469	143	0	-100	0	230	101300000	1000	0	0	-1	100
22728995	8452	144	0	-100	0	230	101300000	1000	0	0	-1	100
22741555	8469	147	0	-100	0	230	101300000	1000	0	0	-1	100
22754115	8461	143	0	-100	0	230	101300000	1000	0	0	-1	100
22766675	8461	143	0	-100	0	230	101300000	1000	0	0	-1	100
22779235	8464	143	0	-100	0	230	101300000	1000	0	0	-1	100
22791795	8463	151	0	-100	0	230	101300000	1000	0	0	-1	100
22804355	8459	144	0	-100	0	230	101300000	1000	0	0	-1	100
22816915	8454	147	0	-100	0	230	101300000	1000	0	0	-1	100
22829475	8459	144	0	-100	0	230	101300000	1000	0	0	-1	100
22842035	8459	144	0	-100	0	230	101300000	1000	0	0	-1	100
22854595	8457	147	0	-100	0	230	101300000	1000	0	0	-1	100
22867155	8476	144	0	-100	0	230	101300000	1000	0	0	-1	100
22879715	8454	146	0	-100	0	230	101300000	1000	0	0	-1	100
22892275	8464	147	0	-100	0	230	101300000	1000	0	0	-1	100
22904835	8459	149	0	-100	0	230	101300000	1000	0	0	-1	100
22917395	8464	145	0	-100	0	230	101300000	1000	0	0	-1	100
22929955	8457	147	0	-100	0	230	101300000	1000	0	0	-1	100
22942515	8464	146	0	-100	0	230	101300000	1000	0	0	-1	100
22955075	8459	145	0	-100	0	230	101300000	1000	0	0	-1	100
22967635	8459	149	0	-100	0	230	101300000	1000	0	0	-1	100
22980195	8462	144	0	-100	0	230	101300000	1000	0	0	-1	100
22992755	8461	147	0	-100	0	230	101300000	1000	0	0	-1	100
23005315	8464	144	0	-100	0	230	101300000	1000	0	0	-1	100
23017875	8459	148	0	-100	0	230	101300000	1000	0	0	-1	100
23030435	8464	144	0	-100	0	230	101300000	1000	0	0	-1	100
23042995	8461	143	0	-100	0	230	101300000	1000	0	0	-1	100
23055555	8466	143	0	-100	0	230	101300000	1000	0	0	-1	100
23068115	8452	146	0	-100	0	230	101300000	1000	0	0	-1	100
23080675	8459	146	0	-100	0	230	101300000	1000	0	0	-1	100
23093235	8464	145	0	-100	0	230	101300000	1000	0	0	-1	100
23105795	8461	151	0	-100	0	230	101300000	1000	0	0	-1	100
23118355	8463	144	0	-100	0	230	101300000	1000	0	0	-1	100
23130915	8464	142	0	-100	0	230	101300000	1000	0	0	-1	100
23143475	8461	143	0	-100	0	230	101300000	1000	0	0	-1	100
23156035	8463	148	0	-100	0	230	101300000	1000	0	0	-1	100
23168595	8459	146	0	-100	0	230	101300000	1000	0	0	-1	100
23181155	8471	147	0	-100	0	230	101300000	1000	0	0	-1	100
23193715	8464	147	0	-100	0	230	101300000	1000	0	0	-1	100
23206275	8459	143	0	-100	0	230	101300000	1000	0	0	-1	100
23218835	8461	150	0	-100	0	230	101300000	1000	0	0	-1	100
23231395	8459	147	0	-100	0	230	101300000	1000	0	0	-1	100
23243955	8464	146	0	-100	0	230	101300000	1000	0	0	-1	100
23256515	8464	145	0	-100	0	230	101300000	1000	0	0	-1	100
23269075	8461	149	0	-100	0	230	101300000	1000	0	0	-1	100
23281635	8461	146	0	-100	0	230	101300000	1000	0	0	-1	100
23294195	8461	145	0	-100	0	230	101300000	1000	0	0	-1	100
23306755	8461	147	0	-100	0	230	101300000	1000	0	0	-1	100
23319315	8468	148	0	-100	0	230	101300000	1000	0	0	-1	100
23331875	8464	143	0	-100	0	230	101300000	1000	0	0	-1	100
23344435	8457	145	0	-100	0	230	101300000	1000	0	0	-1	100
23356995	8457	145	0	-100	0	230	101300000	1000	0	0	-1	100
23369555	8464	143	0	-100	0	230	101300000	1000	0	0	-1	100
23382115	8461	144	0	-100	0	230	101300000	1000	0	0	-1	100
23394675	8461	146	0	-100	0	230	101300000	1000	0	0	-1	100
23407235	8456	147	0	-100	0	230	101300000	1000	0	0	-1	100
23419795	8464	147	0	-100	0	230	101300000	1000	0	0	-1	100
23432355	8461	143	0	-100	0	230	101300000	1000	0	0	-1	100
23444915	8459	145	0	-100	0	230	101300000	1000	0	0	-1	100
23457475	8461	144	0	-100	0	230	101300000	1000	0	0	-1	100
23470035	8461	148	0	-100	0	230	101300000	1000	0	0	-1	100
23482595	8463	147	0	-100	0	230	101300000	1000	0	0	-1	100
23495155	8471	142	0	-100	0	230	101300000	1000	0	0	-1	100
23507715	8461	143	0	-100	0	230	101300000	1000	0	0	-1	100
23520275	8459	145	0	-100	0	230	101300000	1000	0	0	-1	100
23532835	8452	147	0	-100	0	230	101300000	1000	0	0	-1	100
23545395	8471	143	0	-100	0	230	101300000	1000	0	0	-1	100
23557955	8462	147	0	-100	0	230	101300000	1000	0	0	-1	100
23570515	8461	144	0	-100	0	230	101300000	1000	0	0	-1	100
23583075	8457	147	0	-100	0	230	101300000	1000	0	0	-1	100
23595635	8459	149	0	-100	0	230	101300000	1000	0	0	-1	100
23608195	8464	145	0	-100	0	230	101300000	1000	0	0	-1	100
23620755	8466	146	0	-100	0	230	101300000	1000	0	0	-1	100
23633315	8456	146	0	-100	0	230	101300000	1000	0	0	-1	100
23645875	8461	148	0	-100	0	230	101300000	1000	0	0	-1	100
23658435	8466	145	0	-100	0	230	101300000	1000	0	0	-1	100
23670995	8464	149	0	-100	0	230	101300000	1000	0	0	-1	100
23683555	8459	144	0	-100	0	230	101300000	1000	0	0	-1	100
23696115	8464	145	0	-100	0	230	101300000	1000	0	0	-1	100
23708675	8461	143	0	-100	0	230	101300000	1000	0	0	-1	100
23721235	8468	142	0	-100	0	230	101300000	1000	0	0	-1	100
23733795	8461	143	0	-100	0	230	101300000	1000	0	0	-1	100
23746355	8454	147	0	-100	0	230	101300000	1000	0	0	-1	100
23758915	8459	146	0	-100	0	230	101300000	1000	0	0	-1	100
23771475	8459	150	0	-100	0	230	101300000	1000	0	0	-1	100
23784035	8456	147	0	-100	0	230	101300000	1000	0	0	-1	100
23796595	8457	147	0	-100	0	230	101300000	1000	0	0	-1	100
23809155	8476	147	0	-100	0	230	101300000	1000	0	0	-1	100
23821715	8464	146	0	-100	0	230	101300000	1000	0	0	-1	100
23834275	8462	146	0	-100	0	230	101300000	1000	0	0	-1	100
23846835	8459	145	0	-100	0	230	101300000	1000	0	0	-1	100
23859395	8454	145	0	-100	0	230	101300000	1000	0	0	-1	100
23871955	8461	148	0	-100	0	230	101300000	1000	0	0	-1	100
23884515	8461	147	0	-100	0	230	101300000	1000	0	0	-1	100
23897075	8456	147	0	-100	0	230	101300000	1000	0	0	-1	100
23909635	8457	147	0	-100	0	230	101300000	1000	0	0	-1	100
23922195	8466	147	0	-100	0	230	101300000	1000	0	0	-1	100
23934755	8464	146	0	-100	0	230	101300000	1000	0	0	-1	100
23947315	8459	143	0	-100	0	230	101300000	1000	0	0	-1	100
23959875	8461	149	0	-100	0	230	101300000	1000	0	0	-1	100
23972435	8457	148	0	-100	0	230	101300000	1000	0	0	-1	100
23984995	8468	147	0	-100	0	230	101300000	1000	0	0	-1	100
23997555	8459	145	0	-100	0	230	101300000	1000	0	0	-1	100
24010115	8454	147	0	-100	0	230	101300000	1000	0	0	-1	100
24022675	8461	147	0	-100	0	230	101300000	1000	0	0	-1	100
24035235	8459	148	0	-100	0	230	101300000	1000	0	0	-1	100
24047795	8459	144	0	-100	0	230	101300000	1000	0	0	-1	100
24060355	8464	144	0	-100	0	230	101300000	1000	0	0	-1	100
24072915	8461	145	0	-100	0	230	101300000	1000	0	0	-1	100
24085475	8461	145	0	-100	0	230	101300000	1000	0	0	-1	100
24098035	8456	148	0	-100	0	230	101300000	1000	0	0	-1	100
24110595	8466	144	0	-100	0	230	101300000	1000	0	0	-1	100
24123155	8471	146	0	-100	0	230	101300000	1000	0	0	-1	100
24135715	8464	142	0	-100	0	230	101300000	1000	0	0	-1	100
24148275	8452	146	0	-100	0	230	101300000	1000	0	0	-1	100
24160835	8454	149	0	-100	0	230	101300000	1000	0	0	-1	100
24173395	8462	144	0	-100	0	230	101300000	1000	0	0	-1	100
24185955	8464	143	0	-100	0	230	101300000	1000	0	0	-1	100
24198515	8459	147	0	-100	0	230	101300000	1000	0	0	-1	100
24211075	8457	150	0	-100	0	230	101300000	1000	0	0	-1	100
24223635	8461	147	0	-100	0	230	101300000	1000	0	0	-1	100
24236195	8462	144	0	-100	0	230	101300000	1000	0	0	-1	100
24248755	8464	133	0	-100	0	230	101300000	1000	0	0	-1	100
24261315	8452	147	0	-100	0	230	101300000	1000	0	0	-1	100
24273875	8461	147	0	-100	0	230	101300000	1000	0	0	-1	100
24286435	8459	147	0	-100	0	230	101300000	1000	0	0	-1	100
24298995	8469	147	0	-100	0	230	101300000	1000	0	0	-1	100
24311555	8466	146	0	-100	0	230	101300000	1000	0	0	-1	100
24324115	8461	143	0	-100	0	230	101300000	1000	0	0	-1	100
24336675	8464	149	0	-100	0	230	101300000	1000	0	0	-1	100
24349235	8456	147	0	-100	0	230	101300000	1000	0	0	-1	100
24361795	8471	147	0	-100	0	230	101300000	1000	0	0	-1	100
24374355	8466	146	0	-100	0	230	101300000	1000	0	0	-1	100
24386915	8459	145	0	-100	0	230	101300000	1000	0	0	-1	100
24399475	8461	151	0	-100	0	230	101300000	1000	0	0	-1	100
24412035	8459	147	0	-100	0	230	101300000	1000	0	0	-1	100
24424595	8466	147	0	-100	0	230	101300000	1000	0	0	-1	100
24437155	8471	142	0	-100	0	230	101300000	1000	0	0	-1	100
24449715	8461	143	0	-100	0	230	101300000	1000	0	0	-1	100
24462275	8454	147	0	-100	0	230	101300000	1000	0	0	-1	100
24474835	8461	149	0	-100	0	230	101300000	1000	0	0	-1	100
24487395	8457	149	0	-100	0	230	101300000	1000	0	0	-1	100
24499955	8461	147	0	-100	0	230	101300000	1000	0	0	-1	100
24512515	8471	147	0	-100	0	230	101300000	1000	0	0	-1	100
24525075	8466	145	0	-100	0	230	101300000	1000	0	0	-1	100
24537635	8461	145	0	-100	0	230	101300000	1000	0	0	-1	100
24550195	8461	148	0	-100	0	230	101300000	1000	0	0	-1	100
24562755	8459	151	0	-100	0	230	101300000	1000	0	0	-1	100
24575315	8464	147	0	-100	0	230	101300000	1000	0	0	-1	100
24587875	8466	147	0	-100	0	230	101300000	1000	0	0	-1	100
24600435	8464	145	0	-100	0	230	101300000	1000	0	0	-1	100
24612995	8459	147	0	-100	0	230	101300000	1000	0	0	-1	100
24625555	8456	145	0	-100	0	230	101300000	1000	0	0	-1	100
24638115	8464	151	0	-100	0	230	101300000	1000	0	0	-1	100
24650675	8459	148	0	-100	0	230	101300000	1000	0	0	-1	100
24663235	8454	147	0	-100	0	230	101300000	1000	0	0	-1	100
24675795	8469	147	0	-100	0	230	101300000	1000	0	0	-1	100
24688355	8461	144	0	-100	0	230	101300000	1000	0	0	-1	100
24700915	8464	143	0	-100	0	230	101300000	1000	0	0	-1	100
24713475	8459	145	0	-100	0	230	101300000	1000	0	0	-1	100
24726035	8463	149	0	-100	0	230	101300000	1000	0	0	-1	100
24738595	8459	148	0	-100	0	230	101300000	1000	0	0	-1	100
24751155	8471	145	0	-100	0	230	101300000	1000	0	0	-1	100
24763715	8466	146	0	-100	0	230	101300000	1000	0	0	-1	100
24776275	8464	147	0	-100	0	230	101300000	1000	0	0	-1	100
24788835	8466	143	0	-100	0	230	101300000	1000	0	0	-1	100
24801395	8468	147	0	-100	0	230	101300000	1000	0	0	-1	100
24813955	8461	145	0	-100	0	230	101300000	1000	0	0	-1	100
24826515	8452	147	0	-100	0	230	101300000	1000	0	0	-1	100
24839075	8459	135	0	-100	0	230	101300000	1000	0	0	-1	100
24851635	8463	150	0	-100	0	230	101300000	1000	0	0	-1	100
24864195	8464	145	0	-100	0	230	101300000	1000	0	0	-1	100
24876755	8471	143	0	-100	0	230	101300000	1000	0	0	-1	100
24889315	8459	144	0	-100	0	230	101300000	1000	0	0	-1	100
24901875	8452	146	0	-100	0	230	101300000	1000	0	0	-1	100
24914435	8457	150	0	-100	0	230	101300000	1000	0	0	-1	100
24926995	8454	144	0	-100	0	230	101300000	1000	0	0	-1	100
24939555	8464	146	0	-100	0	230	101300000	1000	0	0	-1	100
24952115	8468	147	0	-100	0	230	101300000	1000	0	0	-1	100
24964675	8466	144	0	-100	0	230	101300000	1000	0	0	-1	100
24977235	8461	145	0	-100	0	230	101300000	1000	0	0	-1	100
24989795	8461	147	0	-100	0	230	101300000	1000	0	0	-1	100
25002355	8461	149	0	-100	0	230	101300000	1000	0	0	-1	100
25014915	8461	148	0	-100	0	230	101300000	1000	0	0	-1	100
25027475	8464	143	0	-100	0	230	101300000	1000	0	0	-1	100
25040035	8461	143	0	-100	0	230	101300000	1000	0	0	-1	100
25052595	8459	149	0	-100	0	230	101300000	1000	0	0	-1	100
25065155	8468	149	0	-100	0	230	101300000	1000	0	0	-1	100
25077715	8464	143	0	-100	0	230	101300000	1000	0	0	-1	100
25090275	8464	143	0	-100	0	230	101300000	1000	0	0	-1	100
25102835	8459	147	0	-100	0	230	101300000	1000	0	0	-1	100
25115395	8459	147	0	-100	0	230	101300000	1000	0	0	-1	100
25127955	8461	146	0	-100	0	230	101300000	1000	0	0	-1	100
25140515	8464	144	0	-100	0	230	101300000	1000	0	0	-1	100
25153075	8457	147	0	-100	0	230	101300000	1000	0	0	-1	100
25165635	8454	147	0	-100	0	230	101300000	1000	0	0	-1	100
25178195	8468	144	0	-100	0	230	101300000	1000	0	0	-1	100
25190755	8459	143	0	-100	0	230	101300000	1000	0	0	-1	100
25203315	8461	148	0	-100	0	230	101300000	1000	0	0	-1	100
25215875	8466	147	0	-100	0	230	101300000	1000	0	0	-1	100
25228435	8459	143	0	-100	0	230	101300000	1000	0	0	-1	100
25240995	8459	147	0	-100	0	230	101300000	1000	0	0	-1	100
25253555	8454	145	0	-100	0	230	101300000	1000	0	0	-1	100
25266115	8464	143	0	-100	0	230	101300000	1000	0	0	-1	100
25278675	8457	142	0	-100	0	230	101300000	1000	0	0	-1	100
25291235	8457	151	0	-100	0	230	101300000	1000	0	0	-1	100
25303795	8464	144	0	-100	0	230	101300000	1000	0	0	-1	100
25316355	8459	142	0	-100	0	230	101300000	1000	0	0	-1	100
25328915	8461	150	0	-100	0	230	101300000	1000	0	0	-1	100
25341475	8459	148	0	-100	0	230	101300000	1000	0	0	-1	100
25354035	8466	147	0	-100	0	230	101300000	1000	0	0	-1	100
25366595	8464	143	0	-100	0	230	101300000	1000	0	0	-1	100
25379155	8459	147	0	-100	0	230	101300000	1000	0	0	-1	100
25391715	8457	147	0	-100	0	230	101300000	1000	0	0	-1	100
25404275	8461	143	0	-100	0	230	101300000	1000	0	0	-1	100
25416835	8461	149	0	-100	0	230	101300000	1000	0	0	-1	100
25429395	8459	146	0	-100	0	230	101300000	1000	0	0	-1	100
25441955	8466	146	0	-100	0	230	101300000	1000	0	0	-1	100
25454515	8459	144	0	-100	0	230	101300000	1000	0	0	-1	100
25467075	8457	147	0	-100	0	230	101300000	1000	0	0	-1	100
25479635	8457	144	0	-100	0	230	101300000	1000	0	0	-1	100
25492195	8466	147	0	-100	0	230	101300000	1000	0	0	-1	100
25504755	8461	145	0	-100	0	230	101300000	1000	0	0	-1	100
25517315	8459	146	0	-100	0	230	101300000	1000	0	0	-1	100
25529875	8464	144	0	-100	0	230	101300000	1000	0	0	-1	100
25542435	8461	148	0	-100	0	230	101300000	1000	0	0	-1	100
25554995	8457	143	0	-100	0	230	101300000	1000	0	0	-1	100
25567555	8464	145	0	-100	0	230	101300000	1000	0	0	-1	100
25580115	8456	149	0	-100	0	230	101300000	1000	0	0	-1	100
25592675	8459	151	0	-100	0	230	101300000	1000	0	0	-1	100
25605235	8461	143	0	-100	0	230	101300000	1000	0	0	-1	100
25617795	8461	147	0	-100	0	230	101300000	1000	0	0	-1	100
25630355	8457	147	0	-100	0	230	101300000	1000	0	0	-1	100
25642915	8461	147	0	-100	0	230	101300000	1000	0	0	-1	100
25655475	8461	147	0	-100	0	230	101300000	1000	0	0	-1	100
25668035	8466	144	0	-100	0	230	101300000	1000	0	0	-1	100
25680595	8464	143	0	-100	0	230	101300000	1000	0	0	-1	100
25693155	8468	145	0	-100	0	230	101300000	1000	0	0	-1	100
25705715	8459	146	0	-100	0	230	101300000	1000	0	0	-1	100
25718275	8466	146	0	-100	0	230	101300000	1000	0	0	-1	100
25730835	8452	146	0	-100	0	230	101300000	1000	0	0	-1	100
25743395	8461	148	0	-100	0	230	101300000	1000	0	0	-1	100
25755955	8466	147	0	-100	0	230	101300000	1000	0	0	-1	100
25768515	8459	144	0	-100	0	230	101300000	1000	0	0	-1	100
25781075	8454	142	0	-100	0	230	101300000	1000	0	0	-1	100
25793635	8463	144	0	-100	0	230	101300000	1000	0	0	-1	100
25806195	8466	145	0	-100	0	230	101300000	1000	0	0	-1	100
25818755	8461	146	0	-100	0	230	101300000	1000	0	0	-1	100
25831315	8459	146	0	-100	0	230	101300000	1000	0	0	-1	100
25843875	8459	143	0	-100	0	230	101300000	1000	0	0	-1	100
25856435	8461	143	0	-100	0	230	101300000	1000	0	0	-1	100
25868995	8461	144	0	-100	0	230	101300000	1000	0	0	-1	100
25881555	8471	147	0	-100	0	230	101300000	1000	0	0	-1	100
25894115	8459	143	0	-100	0	230	101300000	1000	0	0	-1	100
25906675	8461	148	0	-100	0	230	101300000	1000	0	0	-1	100
25919235	8466	145	0	-100	0	230	101300000	1000	0	0	-1	100
25931795	8457	147	0	-100	0	230	101300000	1000	0	0	-1	100
25944355	8464	145	0	-100	0	230	101300000	1000	0	0	-1	100
25956915	8459	143	0	-100	0	230	101300000	1000	0	0	-1	100
25969475	8459	149	0	-100	0	230	101300000	1000	0	0	-1	100
25982035	8462	145	0	-100	0	230	101300000	1000	0	0	-1	100
25994595	8457	147	0	-100	0	230	101300000	1000	0	0	-1	100
26007155	8468	149	0	-100	0	230	101300000	1000	0	0	-1	100
26019715	8464	147	0	-100	0	230	101300000	1000	0	0	-1	100
26032275	8461	146	0	-100	0	230	101300000	1000	0	0	-1	100
26044835	8461	149	0	-100	0	230	101300000	1000	0	0	-1	100
26057395	8466	147	0	-100	0	230	101300000	1000	0	0	-1	100
26069955	8468	144	0	-100	0	230	101300000	1000	0	0	-1	100
26082515	8459	146	0	-100	0	230	101300000	1000	0	0	-1	100
26095075	8454	147	0	-100	0	230	101300000	1000	0	0	-1	100
26107635	8464	144	0	-100	0	230	101300000	1000	0	0	-1	100
26120195	8452	146	0	-100	0	230	101300000	1000	0	0	-1	100
26132755	8459	148	0	-100	0	230	101300000	1000	0	0	-1	100
26145315	8466	143	0	-100	0	230	101300000	1000	0	0	-1	100
26157875	8461	147	0	-100	0	230	101300000	1000	0	0	-1	100
26170435	8459	151	0	-100	0	230	101300000	1000	0	0	-1	100
26182995	8464	147	0	-100	0	230	101300000	1000	0	0	-1	100
26195555	8464	145	0	-100	0	230	101300000	1000	0	0	-1	100
26208115	8464	147	0	-100	0	230	101300000	1000	0	0	-1	100
26220675	8464	144	0	-100	0	230	101300000	1000	0	0	-1	100
26233235	8464	145	0	-100	0	230	101300000	1000	0	0	-1	100
26245795	8459	149	0	-100	0	230	101300000	1000	0	0	-1	100
26258355	8462	145	0	-100	0	230	101300000	1000	0	0	-1	100
26270915	8463	142	0	-100	0	230	101300000	1000	0	0	-1	100
26283475	8459	145	0	-100	0	230	101300000	1000	0	0	-1	100
26296035	8459	145	0	-100	0	230	101300000	1000	0	0	-1	100
26308595	8457	143	0	-100	0	230	101300000	1000	0	0	-1	100
26321155	8466	149	0	-100	0	230	101300000	1000	0	0	-1	100
26333715	8466	145	0	-100	0	230	101300000	1000	0	0	-1	100
26346275	8461	147	0	-100	0	230	101300000	1000	0	0	-1	100
26358835	8459	147	0	-100	0	230	101300000	1000	0	0	-1	100
26371395	8464	147	0	-100	0	230	101300000	1000	0	0	-1	100
26383955	8454	148	0	-100	0	230	101300000	1000	0	0	-1	100
26396515	8459	147	0	-100	0	230	101300000	1000	0	0	-1	100
26409075	8464	141	0	-100	0	230	101300000	1000	0	0	-1	100
26421635	8461	144	0	-100	0	230	101300000	1000	0	0	-1	100
26434195	8454	144	0	-100	0	230	101300000	1000	0	0	-1	100
26446755	8456	146	0	-100	0	230	101300000	1000	0	0	-1	100
26459315	8468	144	0	-100	0	230	101300000	1000	0	0	-1	100
26471875	8461	145	0	-100	0	230	101300000	1000	0	0	-1	100
26484435	8457	147	0	-100	0	230	101300000	1000	0	0	-1	100
26496995	8464	147	0	-100	0	230	101300000	1000	0	0	-1	100
26509555	8464	145	0	-100	0	230	101300000	1000	0	0	-1	100
26522115	8459	145	0	-100	0	230	101300000	1000	0	0	-1	100
26534675	8461	147	0	-100	0	230	101300000	1000	0	0	-1	100
26547235	8466	145	0	-100	0	230	101300000	1000	0	0	-1	100
26559795	8464	146	0	-100	0	230	101300000	1000	0	0	-1	100
26572355	8461	147	0	-100	0	230	101300000	1000	0	0	-1	100
26584915	8459	145	0	-100	0	230	101300000	1000	0	0	-1	100
26597475	8464	149	0	-100	0	230	101300000	1000	0	0	-1	100
26610035	8461	147	0	-100	0	230	101300000	1000	0	0	-1	100
26622595	8464	145	0	-100	0	230	101300000	1000	0	0	-1	100
26635155	8462	147	0	-100	0	230	101300000	1000	0	0	-1	100
26647715	8466	144	0	-100	0	230	101300000	1000	0	0	-1	100
26660275	8464	143	0	-100	0	230	101300000	1000	0	0	-1	100
26672835	8459	147	0	-100	0	230	101300000	1000	0	0	-1	100
26685395	8468	147	0	-100	0	230	101300000	1000	0	0	-1	100
26697955	8464	143	0	-100	0	230	101300000	1000	0	0	-1	100
26710515	8461	149	0	-100	0	230	101300000	1000	0	0	-1	100
26723075	8461	147	0	-100	0	230	101300000	1000	0	0	-1	100
26735635	8466	144	0	-100	0	230	101300000	1000	0	0	-1	100
26748195	8459	145	0	-100	0	230	101300000	1000	0	0	-1	100
26760755	8461	150	0	-100	0	230	101300000	1000	0	0	-1	100
26773315	8466	147	0	-100	0	230	101300000	1000	0	0	-1	100
26785875	8459	143	0	-100	0	230	101300000	1000	0	0	-1	100
26798435	8461	151	0	-100	0	230	101300000	1000	0	0	-1	100
26810995	8466	146	0	-100	0	230	101300000	1000	0	0	-1	100
26823555	8461	143	0	-100	0	230	101300000	1000	0	0	-1	100
26836115	8461	147	0	-100	0	230	101300000	1000	0	0	-1	100
26848675	8468	146	0	-100	0	230	101300000	1000	0	0	-1	100
26861235	8466	147	0	-100	0	230	101300000	1000	0	0	-1	100
26873795	8459	149	0	-100	0	230	101300000	1000	0	0	-1	100
26886355	8459	148	0	-100	0	230	101300000	1000	0	0	-1	100
26898915	8466	146	0	-100	0	230	101300000	1000	0	0	-1	100
26911475	8464	145	0	-100	0	230	101300000	1000	0	0	-1	100
26924035	8461	143	0	-100	0	230	101300000	1000	0	0	-1	100
26936595	8459	145	0	-100	0	230	101300000	1000	0	0	-1	100
26949155	8468	149	0	-100	0	230	101300000	1000	0	0	-1	100
26961715	8466	149	0	-100	0	230	101300000	1000	0	0	-1	100
26974275	8466	146	0	-100	0	230	101300000	1000	0	0	-1	100
26986835	8461	144	0	-100	0	230	101300000	1000	0	0	-1	100
26999395	8461	147	0	-100	0	230	101300000	1000	0	0	-1	100
27011955	8468	146	0	-100	0	230	101300000	1000	0	0	-1	100
27024515	8457	146	0	-100	0	230	101300000	1000	0	0	-1	100
27037075	8461	148	0	-100	0	230	101300000	1000	0	0	-1	100
27049635	8469	147	0	-100	0	230	101300000	1000	0	0	-1	100
