timestamp	voltage	current	windSpeed	pitchAngle	rpm	temperature	ambientPressure	humidity	accelerationX	accelerationY	accelerationZ	currentSink
7040070	8524	3	0	-100	0	230	101300000	1000	0	0	-1	0
7047523	8512	4	0	-100	0	230	101300000	1000	0	0	-1	0
7060083	8524	0	0	-100	0	230	101300000	1000	0	0	-1	0
7072643	8522	0	0	-100	0	230	101300000	1000	0	0	-1	0
7085203	8515	0	0	-100	0	230	101300000	1000	0	0	-1	0
7097763	8517	4	0	-100	0	230	101300000	1000	0	0	-1	0
7110323	8524	0	0	-100	0	230	101300000	1000	0	0	-1	0
7122883	8517	0	0	-100	0	230	101300000	1000	0	0	-1	0
7135443	8513	0	0	-100	0	230	101300000	1000	0	0	-1	0
7148004	8520	0	0	-100	0	230	101300000	1000	0	0	-1	0
7160563	8522	0	0	-100	0	230	101300000	1000	0	0	-1	0
7173123	8522	0	0	-100	0	230	101300000	1000	0	0	-1	0
7185683	8515	0	0	-100	0	230	101300000	1000	0	0	-1	0
7198243	8517	6	0	-100	0	230	101300000	1000	0	0	-1	0
7210803	8512	2	0	-100	0	230	101300000	1000	0	0	-1	0
7223363	8522	0	0	-100	0	230	101300000	1000	0	0	-1	0
7235923	8524	0	0	-100	0	230	101300000	1000	0	0	-1	0
7248483	8524	0	0	-100	0	230	101300000	1000	0	0	-1	0
7261043	8517	0	0	-100	0	230	101300000	1000	0	0	-1	0
7273603	8513	0	0	-100	0	230	101300000	1000	0	0	-1	0
7286163	8519	4	0	-100	0	230	101300000	1000	0	0	-1	0
7298723	8517	3	0	-100	0	230	101300000	1000	0	0	-1	0
7311283	8524	1	0	-100	0	230	101300000	1000	0	0	-1	0
7323843	8517	2	0	-100	0	230	101300000	1000	0	0	-1	0
7336403	8515	4	0	-100	0	230	101300000	1000	0	0	-1	0
7348963	8517	3	0	-100	0	230	101300000	1000	0	0	-1	0
7707235	8386	279	0	-100	0	230	101300000	1000	0	0	-1	200
7719795	8377	278	0	-100	0	230	101300000	1000	0	0	-1	200
7732355	8384	284	0	-100	0	230	101300000	1000	0	0	-1	200
7744915	8377	282	0	-100	0	230	101300000	1000	0	0	-1	200
7757475	8374	282	0	-100	0	230	101300000	1000	0	0	-1	200
7770035	8379	283	0	-100	0	230	101300000	1000	0	0	-1	200
7782595	8379	284	0	-100	0	230	101300000	1000	0	0	-1	200
7795155	8376	286	0	-100	0	230	101300000	1000	0	0	-1	200
7807715	8374	285	0	-100	0	230	101300000	1000	0	0	-1	200
7820275	8383	285	0	-100	0	230	101300000	1000	0	0	-1	200
7832835	8377	283	0	-100	0	230	101300000	1000	0	0	-1	200
7845395	8377	281	0	-100	0	230	101300000	1000	0	0	-1	200
7857955	8379	280	0	-100	0	230	101300000	1000	0	0	-1	200
7870515	8372	281	0	-100	0	230	101300000	1000	0	0	-1	200
7883075	8374	280	0	-100	0	230	101300000	1000	0	0	-1	200
7895635	8374	286	0	-100	0	230	101300000	1000	0	0	-1	200
7908195	8372	282	0	-100	0	230	101300000	1000	0	0	-1	200
7920755	8372	273	0	-100	0	230	101300000	1000	0	0	-1	200
7933315	8370	281	0	-100	0	230	101300000	1000	0	0	-1	200
7945875	8377	277	0	-100	0	230	101300000	1000	0	0	-1	200
7958435	8376	286	0	-100	0	230	101300000	1000	0	0	-1	200
7970995	8372	280	0	-100	0	230	101300000	1000	0	0	-1	200
7983555	8374	285	0	-100	0	230	101300000	1000	0	0	-1	200
7996115	8381	286	0	-100	0	230	101300000	1000	0	0	-1	200
8008675	8376	283	0	-100	0	230	101300000	1000	0	0	-1	200
8021235	8379	286	0	-100	0	230	101300000	1000	0	0	-1	200
8033795	8372	284	0	-100	0	230	101300000	1000	0	0	-1	200
8046355	8376	282	0	-100	0	230	101300000	1000	0	0	-1	200
8058915	8379	285	0	-100	0	230	101300000	1000	0	0	-1	200
8071475	8377	286	0	-100	0	230	101300000	1000	0	0	-1	200
8084035	8372	285	0	-100	0	230	101300000	1000	0	0	-1	200
8096595	8374	283	0	-100	0	230	101300000	1000	0	0	-1	200
8109155	8381	286	0	-100	0	230	101300000	1000	0	0	-1	200
8121715	8383	282	0	-100	0	230	101300000	1000	0	0	-1	200
8134275	8374	282	0	-100	0	230	101300000	1000	0	0	-1	200
8146835	8374	283	0	-100	0	230	101300000	1000	0	0	-1	200
8159395	8376	281	0	-100	0	230	101300000	1000	0	0	-1	200
8171955	8379	282	0	-100	0	230	101300000	1000	0	0	-1	200
8184515	8377	280	0	-100	0	230	101300000	1000	0	0	-1	200
8197075	8381	278	0	-100	0	230	101300000	1000	0	0	-1	200
8209635	8377	279	0	-100	0	230	101300000	1000	0	0	-1	200
8222195	8377	281	0	-100	0	230	101300000	1000	0	0	-1	200
8234755	8374	285	0	-100	0	230	101300000	1000	0	0	-1	200
8247315	8374	285	0	-100	0	230	101300000	1000	0	0	-1	200
8259875	8374	286	0	-100	0	230	101300000	1000	0	0	-1	200
8272435	8374	283	0	-100	0	230	101300000	1000	0	0	-1	200
8284995	8374	281	0	-100	0	230	101300000	1000	0	0	-1	200
8297555	8377	286	0	-100	0	230	101300000	1000	0	0	-1	200
8310115	8383	283	0	-100	0	230	101300000	1000	0	0	-1	200
8322675	8384	282	0	-100	0	230	101300000	1000	0	0	-1	200
8335235	8379	277	0	-100	0	230	101300000	1000	0	0	-1	200
8347795	8379	281	0	-100	0	230	101300000	1000	0	0	-1	200
8360355	8379	273	0	-100	0	230	101300000	1000	0	0	-1	200
8372915	8379	281	0	-100	0	230	101300000	1000	0	0	-1	200
8385475	8381	280	0	-100	0	230	101300000	1000	0	0	-1	200
8398035	8384	281	0	-100	0	230	101300000	1000	0	0	-1	200
8410595	8377	281	0	-100	0	230	101300000	1000	0	0	-1	200
8423155	8384	281	0	-100	0	230	101300000	1000	0	0	-1	200
8435715	8379	281	0	-100	0	230	101300000	1000	0	0	-1	200
8448275	8384	282	0	-100	0	230	101300000	1000	0	0	-1	200
8460835	8384	279	0	-100	0	230	101300000	1000	0	0	-1	200
8473395	8377	280	0	-100	0	230	101300000	1000	0	0	-1	200
8485955	8379	280	0	-100	0	230	101300000	1000	0	0	-1	200
8498515	8379	277	0	-100	0	230	101300000	1000	0	0	-1	200
8511075	8381	279	0	-100	0	230	101300000	1000	0	0	-1	200
8523635	8377	281	0	-100	0	230	101300000	1000	0	0	-1	200
8536195	8377	281	0	-100	0	230	101300000	1000	0	0	-1	200
8548755	8384	282	0	-100	0	230	101300000	1000	0	0	-1	200
8561315	8379	281	0	-100	0	230	101300000	1000	0	0	-1	200
8573875	8384	278	0	-100	0	230	101300000	1000	0	0	-1	200
8586435	8381	281	0	-100	0	230	101300000	1000	0	0	-1	200
8598995	8379	283	0	-100	0	230	101300000	1000	0	0	-1	200
8611555	8381	280	0	-100	0	230	101300000	1000	0	0	-1	200
8624115	8376	278	0	-100	0	230	101300000	1000	0	0	-1	200
8636675	8374	282	0	-100	0	230	101300000	1000	0	0	-1	200
8649235	8377	286	0	-100	0	230	101300000	1000	0	0	-1	200
8661795	8374	284	0	-100	0	230	101300000	1000	0	0	-1	200
8674355	8374	285	0	-100	0	230	101300000	1000	0	0	-1	200
8686915	8379	283	0	-100	0	230	101300000	1000	0	0	-1	200
8699475	8381	280	0	-100	0	230	101300000	1000	0	0	-1	200
8712035	8384	281	0	-100	0	230	101300000	1000	0	0	-1	200
8724595	8379	281	0	-100	0	230	101300000	1000	0	0	-1	200
8737155	8376	280	0	-100	0	230	101300000	1000	0	0	-1	200
8749715	8379	285	0	-100	0	230	101300000	1000	0	0	-1	200
8762275	8370	282	0	-100	0	230	101300000	1000	0	0	-1	200
8774835	8377	284	0	-100	0	230	101300000	1000	0	0	-1	200
8787395	8377	286	0	-100	0	230	101300000	1000	0	0	-1	200
8799955	8379	287	0	-100	0	230	101300000	1000	0	0	-1	200
8812515	8376	283	0	-100	0	230	101300000	1000	0	0	-1	200
8825075	8377	288	0	-100	0	230	101300000	1000	0	0	-1	200
8837635	8372	284	0	-100	0	230	101300000	1000	0	0	-1	200
8850195	8372	282	0	-100	0	230	101300000	1000	0	0	-1	200
8862755	8377	282	0	-100	0	230	101300000	1000	0	0	-1	200
8875315	8381	282	0	-100	0	230	101300000	1000	0	0	-1	200
8887875	8382	281	0	-100	0	230	101300000	1000	0	0	-1	200
8900435	8384	281	0	-100	0	230	101300000	1000	0	0	-1	200
8912995	8379	281	0	-100	0	230	101300000	1000	0	0	-1	200
8925555	8381	279	0	-100	0	230	101300000	1000	0	0	-1	200
8938115	8379	281	0	-100	0	230	101300000	1000	0	0	-1	200
8950675	8381	278	0	-100	0	230	101300000	1000	0	0	-1	200
8963235	8379	278	0	-100	0	230	101300000	1000	0	0	-1	200
8975795	8377	282	0	-100	0	230	101300000	1000	0	0	-1	200
8988355	8379	284	0	-100	0	230	101300000	1000	0	0	-1	200
9000915	8386	282	0	-100	0	230	101300000	1000	0	0	-1	200
9013475	8381	279	0	-100	0	230	101300000	1000	0	0	-1	200
9026035	8372	284	0	-100	0	230	101300000	1000	0	0	-1	200
9038595	8376	282	0	-100	0	230	101300000	1000	0	0	-1	200
9051155	8381	281	0	-100	0	230	101300000	1000	0	0	-1	200
9063715	8374	284	0	-100	0	230	101300000	1000	0	0	-1	200
9076275	8379	283	0	-100	0	230	101300000	1000	0	0	-1	200
9088835	8381	281	0	-100	0	230	101300000	1000	0	0	-1	200
9101395	8374	281	0	-100	0	230	101300000	1000	0	0	-1	200
9113955	8383	285	0	-100	0	230	101300000	1000	0	0	-1	200
9126515	8374	286	0	-100	0	230	101300000	1000	0	0	-1	200
9139075	8379	282	0	-100	0	230	101300000	1000	0	0	-1	200
9151635	8377	284	0	-100	0	230	101300000	1000	0	0	-1	200
9164195	8374	281	0	-100	0	230	101300000	1000	0	0	-1	200
9176755	8374	284	0	-100	0	230	101300000	1000	0	0	-1	200
9189315	8377	282	0	-100	0	230	101300000	1000	0	0	-1	200
9201875	8379	284	0	-100	0	230	101300000	1000	0	0	-1	200
9214435	8372	283	0	-100	0	230	101300000	1000	0	0	-1	200
9226995	8376	284	0	-100	0	230	101300000	1000	0	0	-1	200
9239555	8375	279	0	-100	0	230	101300000	1000	0	0	-1	200
9252115	8381	281	0	-100	0	230	101300000	1000	0	0	-1	200
9264675	8374	282	0	-100	0	230	101300000	1000	0	0	-1	200
9277235	8374	282	0	-100	0	230	101300000	1000	0	0	-1	200
9289795	8386	285	0	-100	0	230	101300000	1000	0	0	-1	200
9302355	8379	277	0	-100	0	230	101300000	1000	0	0	-1	200
9314915	8379	284	0	-100	0	230	101300000	1000	0	0	-1	200
9327475	8379	284	0	-100	0	230	101300000	1000	0	0	-1	200
9340035	8384	277	0	-100	0	230	101300000	1000	0	0	-1	200
9352595	8374	282	0	-100	0	230	101300000	1000	0	0	-1	200
9365155	8367	283	0	-100	0	230	101300000	1000	0	0	-1	200
9377715	8374	283	0	-100	0	230	101300000	1000	0	0	-1	200
9390275	8379	278	0	-100	0	230	101300000	1000	0	0	-1	200
9402835	8376	279	0	-100	0	230	101300000	1000	0	0	-1	200
9415395	8376	283	0	-100	0	230	101300000	1000	0	0	-1	200
9427955	8379	283	0	-100	0	230	101300000	1000	0	0	-1	200
9440515	8377	280	0	-100	0	230	101300000	1000	0	0	-1	200
9453075	8370	283	0	-100	0	230	101300000	1000	0	0	-1	200
9465635	8376	285	0	-100	0	230	101300000	1000	0	0	-1	200
9478195	8377	285	0	-100	0	230	101300000	1000	0	0	-1	200
9490755	8379	276	0	-100	0	230	101300000	1000	0	0	-1	200
9503315	8381	279	0	-100	0	230	101300000	1000	0	0	-1	200
9515875	8377	283	0	-100	0	230	101300000	1000	0	0	-1	200
9528435	8379	284	0	-100	0	230	101300000	1000	0	0	-1	200
9540995	8381	282	0	-100	0	230	101300000	1000	0	0	-1	200
9553555	8372	283	0	-100	0	230	101300000	1000	0	0	-1	200
9566115	8379	281	0	-100	0	230	101300000	1000	0	0	-1	200
9578675	8381	268	0	-100	0	230	101300000	1000	0	0	-1	200
9591235	8374	283	0	-100	0	230	101300000	1000	0	0	-1	200
9603795	8381	282	0	-100	0	230	101300000	1000	0	0	-1	200
9616355	8377	281	0	-100	0	230	101300000	1000	0	0	-1	200
9628915	8379	284	0	-100	0	230	101300000	1000	0	0	-1	200
9641475	8379	279	0	-100	0	230	101300000	1000	0	0	-1	200
9654035	8370	282	0	-100	0	230	101300000	1000	0	0	-1	200
9666595	8383	282	0	-100	0	230	101300000	1000	0	0	-1	200
9679155	8377	280	0	-100	0	230	101300000	1000	0	0	-1	200
9691715	8381	285	0	-100	0	230	101300000	1000	0	0	-1	200
9704275	8379	279	0	-100	0	230	101300000	1000	0	0	-1	200
9716835	8382	279	0	-100	0	230	101300000	1000	0	0	-1	200
9729395	8377	283	0	-100	0	230	101300000	1000	0	0	-1	200
9741955	8377	283	0	-100	0	230	101300000	1000	0	0	-1	200
9754515	8381	279	0	-100	0	230	101300000	1000	0	0	-1	200
9767075	8377	283	0	-100	0	230	101300000	1000	0	0	-1	200
9779635	8376	282	0	-100	0	230	101300000	1000	0	0	-1	200
9792195	8384	282	0	-100	0	230	101300000	1000	0	0	-1	200
9804755	8370	281	0	-100	0	230	101300000	1000	0	0	-1	200
9817315	8379	285	0	-100	0	230	101300000	1000	0	0	-1	200
9829875	8377	284	0	-100	0	230	101300000	1000	0	0	-1	200
9842435	8386	283	0	-100	0	230	101300000	1000	0	0	-1	200
9854995	8381	282	0	-100	0	230	101300000	1000	0	0	-1	200
9867555	8374	285	0	-100	0	230	101300000	1000	0	0	-1	200
9880115	8379	284	0	-100	0	230	101300000	1000	0	0	-1	200
9892675	8386	283	0	-100	0	230	101300000	1000	0	0	-1	200
9905235	8379	280	0	-100	0	230	101300000	1000	0	0	-1	200
9917795	8372	281	0	-100	0	230	101300000	1000	0	0	-1	200
9930355	8377	284	0	-100	0	230	101300000	1000	0	0	-1	200
9942915	8377	283	0	-100	0	230	101300000	1000	0	0	-1	200
9955475	8374	283	0	-100	0	230	101300000	1000	0	0	-1	200
9968035	8384	280	0	-100	0	230	101300000	1000	0	0	-1	200
9980595	8381	281	0	-100	0	230	101300000	1000	0	0	-1	200
9993155	8386	281	0	-100	0	230	101300000	1000	0	0	-1	200
10005715	8374	267	0	-100	0	230	101300000	1000	0	0	-1	200
10018275	8377	285	0	-100	0	230	101300000	1000	0	0	-1	200
10030835	8381	281	0	-100	0	230	101300000	1000	0	0	-1	200
10043395	8379	281	0	-100	0	230	101300000	1000	0	0	-1	200
10055955	8376	284	0	-100	0	230	101300000	1000	0	0	-1	200
10068515	8381	286	0	-100	0	230	101300000	1000	0	0	-1	200
10081075	8381	281	0	-100	0	230	101300000	1000	0	0	-1	200
10093635	8384	281	0	-100	0	230	101300000	1000	0	0	-1	200
10106195	8377	283	0	-100	0	230	101300000	1000	0	0	-1	200
10118755	8376	282	0	-100	0	230	101300000	1000	0	0	-1	200
10131315	8379	279	0	-100	0	230	101300000	1000	0	0	-1	200
10143875	8379	279	0	-100	0	230	101300000	1000	0	0	-1	200
10156435	8379	287	0	-100	0	230	101300000	1000	0	0	-1	200
10168995	8379	290	0	-100	0	230	101300000	1000	0	0	-1	200
10181555	8384	284	0	-100	0	230	101300000	1000	0	0	-1	200
10194115	8372	281	0	-100	0	230	101300000	1000	0	0	-1	200
10206675	8376	284	0	-100	0	230	101300000	1000	0	0	-1	200
10219235	8379	283	0	-100	0	230	101300000	1000	0	0	-1	200
10231795	8374	283	0	-100	0	230	101300000	1000	0	0	-1	200
10244355	8374	283	0	-100	0	230	101300000	1000	0	0	-1	200
10256915	8382	279	0	-100	0	230	101300000	1000	0	0	-1	200
10269475	8381	280	0	-100	0	230	101300000	1000	0	0	-1	200
10282035	8379	284	0	-100	0	230	101300000	1000	0	0	-1	200
10294595	8377	282	0	-100	0	230	101300000	1000	0	0	-1	200
10307155	8382	281	0	-100	0	230	101300000	1000	0	0	-1	200
10319715	8381	279	0	-100	0	230	101300000	1000	0	0	-1	200
10332275	8379	281	0	-100	0	230	101300000	1000	0	0	-1	200
10344835	8374	286	0	-100	0	230	101300000	1000	0	0	-1	200
10357395	8377	275	0	-100	0	230	101300000	1000	0	0	-1	200
10369955	8379	281	0	-100	0	230	101300000	1000	0	0	-1	200
10382515	8379	286	0	-100	0	230	101300000	1000	0	0	-1	200
10395075	8377	285	0	-100	0	230	101300000	1000	0	0	-1	200
10407635	8386	284	0	-100	0	230	101300000	1000	0	0	-1	200
10420195	8381	280	0	-100	0	230	101300000	1000	0	0	-1	200
10432755	8372	285	0	-100	0	230	101300000	1000	0	0	-1	200
10445315	8374	284	0	-100	0	230	101300000	1000	0	0	-1	200
10457875	8381	279	0	-100	0	230	101300000	1000	0	0	-1	200
10470435	8384	279	0	-100	0	230	101300000	1000	0	0	-1	200
10482995	8379	280	0	-100	0	230	101300000	1000	0	0	-1	200
10495555	8379	286	0	-100	0	230	101300000	1000	0	0	-1	200
10508115	8377	285	0	-100	0	230	101300000	1000	0	0	-1	200
10520675	8382	281	0	-100	0	230	101300000	1000	0	0	-1	200
10533235	8374	283	0	-100	0	230	101300000	1000	0	0	-1	200
10545795	8381	275	0	-100	0	230	101300000	1000	0	0	-1	200
10558355	8379	281	0	-100	0	230	101300000	1000	0	0	-1	200
10570915	8381	280	0	-100	0	230	101300000	1000	0	0	-1	200
10583475	8372	283	0	-100	0	230	101300000	1000	0	0	-1	200
10596035	8379	287	0	-100	0	230	101300000	1000	0	0	-1	200
10608595	8374	280	0	-100	0	230	101300000	1000	0	0	-1	200
10621155	8383	283	0	-100	0	230	101300000	1000	0	0	-1	200
10633715	8381	279	0	-100	0	230	101300000	1000	0	0	-1	200
10646275	8374	280	0	-100	0	230	101300000	1000	0	0	-1	200
10658835	8379	284	0	-100	0	230	101300000	1000	0	0	-1	200
10671395	8379	283	0	-100	0	230	101300000	1000	0	0	-1	200
10683955	8377	276	0	-100	0	230	101300000	1000	0	0	-1	200
10696515	8374	281	0	-100	0	230	101300000	1000	0	0	-1	200
10709075	8374	286	0	-100	0	230	101300000	1000	0	0	-1	200
10721635	8381	279	0	-100	0	230	101300000	1000	0	0	-1	200
10734195	8384	284	0	-100	0	230	101300000	1000	0	0	-1	200
10746755	8379	285	0	-100	0	230	101300000	1000	0	0	-1	200
10759315	8374	286	0	-100	0	230	101300000	1000	0	0	-1	200
10771875	8386	282	0	-100	0	230	101300000	1000	0	0	-1	200
10784435	8379	281	0	-100	0	230	101300000	1000	0	0	-1	200
10796995	8374	281	0	-100	0	230	101300000	1000	0	0	-1	200
10809555	8379	284	0	-100	0	230	101300000	1000	0	0	-1	200
10822115	8379	280	0	-100	0	230	101300000	1000	0	0	-1	200
10834675	8374	281	0	-100	0	230	101300000	1000	0	0	-1	200
10847235	8372	281	0	-100	0	230	101300000	1000	0	0	-1	200
10859795	8377	287	0	-100	0	230	101300000	1000	0	0	-1	200
10872355	8379	282	0	-100	0	230	101300000	1000	0	0	-1	200
10884915	8377	278	0	-100	0	230	101300000	1000	0	0	-1	200
10897475	8384	278	0	-100	0	230	101300000	1000	0	0	-1	200
10910035	8374	282	0	-100	0	230	101300000	1000	0	0	-1	200
10922595	8379	286	0	-100	0	230	101300000	1000	0	0	-1	200
10935155	8386	284	0	-100	0	230	101300000	1000	0	0	-1	200
10947715	8379	283	0	-100	0	230	101300000	1000	0	0	-1	200
10960275	8379	281	0	-100	0	230	101300000	1000	0	0	-1	200
10972835	8376	282	0	-100	0	230	101300000	1000	0	0	-1	200
10985395	8374	285	0	-100	0	230	101300000	1000	0	0	-1	200
10997955	8377	285	0	-100	0	230	101300000	1000	0	0	-1	200
11010515	8386	283	0	-100	0	230	101300000	1000	0	0	-1	200
11023075	8374	281	0	-100	0	230	101300000	1000	0	0	-1	200
11035635	8376	285	0	-100	0	230	101300000	1000	0	0	-1	200
11048195	8375	276	0	-100	0	230	101300000	1000	0	0	-1	200
11060755	8379	285	0	-100	0	230	101300000	1000	0	0	-1	200
11073315	8377	284	0	-100	0	230	101300000	1000	0	0	-1	200
11085875	8389	282	0	-100	0	230	101300000	1000	0	0	-1	200
11098435	8374	277	0	-100	0	230	101300000	1000	0	0	-1	200
11110995	8377	285	0	-100	0	230	101300000	1000	0	0	-1	200
11123555	8379	284	0	-100	0	230	101300000	1000	0	0	-1	200
11136115	8379	282	0	-100	0	230	101300000	1000	0	0	-1	200
11148675	8381	282	0	-100	0	230	101300000	1000	0	0	-1	200
11161235	8374	281	0	-100	0	230	101300000	1000	0	0	-1	200
11173795	8377	286	0	-100	0	230	101300000	1000	0	0	-1	200
11186355	8379	283	0	-100	0	230	101300000	1000	0	0	-1	200
11198915	8379	282	0	-100	0	230	101300000	1000	0	0	-1	200
11211475	8377	283	0	-100	0	230	101300000	1000	0	0	-1	200
11224035	8376	282	0	-100	0	230	101300000	1000	0	0	-1	200
11236595	8381	279	0	-100	0	230	101300000	1000	0	0	-1	200
11249155	8379	279	0	-100	0	230	101300000	1000	0	0	-1	200
11261715	8374	280	0	-100	0	230	101300000	1000	0	0	-1	200
11274275	8374	286	0	-100	0	230	101300000	1000	0	0	-1	200
11286835	8381	282	0	-100	0	230	101300000	1000	0	0	-1	200
11299395	8386	282	0	-100	0	230	101300000	1000	0	0	-1	200
11311955	8377	279	0	-100	0	230	101300000	1000	0	0	-1	200
11324515	8379	284	0	-100	0	230	101300000	1000	0	0	-1	200
11337075	8381	284	0	-100	0	230	101300000	1000	0	0	-1	200
11349635	8381	280	0	-100	0	230	101300000	1000	0	0	-1	200
11362195	8383	284	0	-100	0	230	101300000	1000	0	0	-1	200
11374755	8381	286	0	-100	0	230	101300000	1000	0	0	-1	200
11387315	8384	282	0	-100	0	230	101300000	1000	0	0	-1	200
11399875	8374	283	0	-100	0	230	101300000	1000	0	0	-1	200
11412435	8372	286	0	-100	0	230	101300000	1000	0	0	-1	200
11424995	8382	283	0	-100	0	230	101300000	1000	0	0	-1	200
11437555	8381	278	0	-100	0	230	101300000	1000	0	0	-1	200
11450115	8383	286	0	-100	0	230	101300000	1000	0	0	-1	200
11462675	8386	280	0	-100	0	230	101300000	1000	0	0	-1	200
11475235	8372	283	0	-100	0	230	101300000	1000	0	0	-1	200
11487795	8379	283	0	-100	0	230	101300000	1000	0	0	-1	200
11500355	8377	278	0	-100	0	230	101300000	1000	0	0	-1	200
11512915	8377	286	0	-100	0	230	101300000	1000	0	0	-1	200
11525475	8384	277	0	-100	0	230	101300000	1000	0	0	-1	200
11538035	8377	282	0	-100	0	230	101300000	1000	0	0	-1	200
11550595	8377	281	0	-100	0	230	101300000	1000	0	0	-1	200
11563155	8377	281	0	-100	0	230	101300000	1000	0	0	-1	200
11575715	8374	282	0	-100	0	230	101300000	1000	0	0	-1	200
11588275	8379	281	0	-100	0	230	101300000	1000	0	0	-1	200
11600835	8372	282	0	-100	0	230	101300000	1000	0	0	-1	200
11613395	8377	281	0	-100	0	230	101300000	1000	0	0	-1	200
11625955	8379	279	0	-100	0	230	101300000	1000	0	0	-1	200
11638515	8379	285	0	-100	0	230	101300000	1000	0	0	-1	200
11651075	8379	281	0	-100	0	230	101300000	1000	0	0	-1	200
11663635	8381	286	0	-100	0	230	101300000	1000	0	0	-1	200
11676195	8384	281	0	-100	0	230	101300000	1000	0	0	-1	200
11688755	8377	286	0	-100	0	230	101300000	1000	0	0	-1	200
11701315	8388	285	0	-100	0	230	101300000	1000	0	0	-1	200
11713875	8379	282	0	-100	0	230	101300000	1000	0	0	-1	200
11726435	8374	283	0	-100	0	230	101300000	1000	0	0	-1	200
11738995	8377	282	0	-100	0	230	101300000	1000	0	0	-1	200
11751555	8376	282	0	-100	0	230	101300000	1000	0	0	-1	200
11764115	8381	279	0	-100	0	230	101300000	1000	0	0	-1	200
11776675	8372	282	0	-100	0	230	101300000	1000	0	0	-1	200
11789235	8379	283	0	-100	0	230	101300000	1000	0	0	-1	200
11801795	8382	282	0	-100	0	230	101300000	1000	0	0	-1	200
11814355	8374	284	0	-100	0	230	101300000	1000	0	0	-1	200
11826915	8388	282	0	-100	0	230	101300000	1000	0	0	-1	200
11839475	8377	285	0	-100	0	230	101300000	1000	0	0	-1	200
11852035	8383	278	0	-100	0	230	101300000	1000	0	0	-1	200
11864595	8377	282	0	-100	0	230	101300000	1000	0	0	-1	200
11877155	8384	280	0	-100	0	230	101300000	1000	0	0	-1	200
11889715	8381	284	0	-100	0	230	101300000	1000	0	0	-1	200
11902275	8379	278	0	-100	0	230	101300000	1000	0	0	-1	200
11914835	8377	286	0	-100	0	230	101300000	1000	0	0	-1	200
11927395	8379	282	0	-100	0	230	101300000	1000	0	0	-1	200
11939955	8381	281	0	-100	0	230	101300000	1000	0	0	-1	200
11952515	8377	284	0	-100	0	230	101300000	1000	0	0	-1	200
11965075	8377	280	0	-100	0	230	101300000	1000	0	0	-1	200
11977635	8370	282	0	-100	0	230	101300000	1000	0	0	-1	200
11990195	8379	282	0	-100	0	230	101300000	1000	0	0	-1	200
12002755	8381	281	0	-100	0	230	101300000	1000	0	0	-1	200
12015315	8379	286	0	-100	0	230	101300000	1000	0	0	-1	200
12027875	8377	279	0	-100	0	230	101300000	1000	0	0	-1	200
12040435	8374	281	0	-100	0	230	101300000	1000	0	0	-1	200
12052995	8372	283	0	-100	0	230	101300000	1000	0	0	-1	200
12065555	8379	285	0	-100	0	230	101300000	1000	0	0	-1	200
12078115	8379	282	0	-100	0	230	101300000	1000	0	0	-1	200
12090675	8379	286	0	-100	0	230	101300000	1000	0	0	-1	200
12103235	8379	281	0	-100	0	230	101300000	1000	0	0	-1	200
12115795	8381	285	0	-100	0	230	101300000	1000	0	0	-1	200
12128355	8379	280	0	-100	0	230	101300000	1000	0	0	-1	200
12140915	8374	284	0	-100	0	230	101300000	1000	0	0	-1	200
12153475	8379	279	0	-100	0	230	101300000	1000	0	0	-1	200
12166035	8381	281	0	-100	0	230	101300000	1000	0	0	-1	200
12178595	8379	286	0	-100	0	230	101300000	1000	0	0	-1	200
12191155	8389	283	0	-100	0	230	101300000	1000	0	0	-1	200
12203715	8381	284	0	-100	0	230	101300000	1000	0	0	-1	200
12216275	8382	281	0	-100	0	230	101300000	1000	0	0	-1	200
12228835	8379	284	0	-100	0	230	101300000	1000	0	0	-1	200
12241395	8377	283	0	-100	0	230	101300000	1000	0	0	-1	200
12253955	8384	281	0	-100	0	230	101300000	1000	0	0	-1	200
12266515	8381	284	0	-100	0	230	101300000	1000	0	0	-1	200
12279075	8382	279	0	-100	0	230	101300000	1000	0	0	-1	200
12291635	8383	273	0	-100	0	230	101300000	1000	0	0	-1	200
12304195	8384	282	0	-100	0	230	101300000	1000	0	0	-1	200
12316755	8379	286	0	-100	0	230	101300000	1000	0	0	-1	200
12329315	8384	279	0	-100	0	230	101300000	1000	0	0	-1	200
12341875	8374	285	0	-100	0	230	101300000	1000	0	0	-1	200
12354435	8369	281	0	-100	0	230	101300000	1000	0	0	-1	200
12366995	8382	286	0	-100	0	230	101300000	1000	0	0	-1	200
12379555	8376	285	0	-100	0	230	101300000	1000	0	0	-1	200
12392115	8386	279	0	-100	0	230	101300000	1000	0	0	-1	200
12404675	8381	280	0	-100	0	230	101300000	1000	0	0	-1	200
12417235	8377	284	0	-100	0	230	101300000	1000	0	0	-1	200
12429795	8372	284	0	-100	0	230	101300000	1000	0	0	-1	200
12442355	8384	281	0	-100	0	230	101300000	1000	0	0	-1	200
12454915	8377	283	0	-100	0	230	101300000	1000	0	0	-1	200
12467475	8377	280	0	-100	0	230	101300000	1000	0	0	-1	200
12480035	8383	282	0	-100	0	230	101300000	1000	0	0	-1	200
12492595	8372	284	0	-100	0	230	101300000	1000	0	0	-1	200
12505155	8386	283	0	-100	0	230	101300000	1000	0	0	-1	200
12517715	8381	286	0	-100	0	230	101300000	1000	0	0	-1	200
12530275	8381	279	0	-100	0	230	101300000	1000	0	0	-1	200
12542835	8381	284	0	-100	0	230	101300000	1000	0	0	-1	200
12555395	8374	280	0	-100	0	230	101300000	1000	0	0	-1	200
12567955	8379	282	0	-100	0	230	101300000	1000	0	0	-1	200
12580515	8379	278	0	-100	0	230	101300000	1000	0	0	-1	200
12593075	8377	283	0	-100	0	230	101300000	1000	0	0	-1	200
12605635	8374	285	0	-100	0	230	101300000	1000	0	0	-1	200
12618195	8379	280	0	-100	0	230	101300000	1000	0	0	-1	200
12630755	8379	285	0	-100	0	230	101300000	1000	0	0	-1	200
12643315	8382	280	0	-100	0	230	101300000	1000	0	0	-1	200
12655875	8374	282	0	-100	0	230	101300000	1000	0	0	-1	200
12668435	8379	279	0	-100	0	230	101300000	1000	0	0	-1	200
12680995	8389	284	0	-100	0	230	101300000	1000	0	0	-1	200
12693555	8374	283	0	-100	0	230	101300000	1000	0	0	-1	200
12706115	8386	282	0	-100	0	230	101300000	1000	0	0	-1	200
12718675	8379	286	0	-100	0	230	101300000	1000	0	0	-1	200
12731235	8381	281	0	-100	0	230	101300000	1000	0	0	-1	200
12743795	8374	286	0	-100	0	230	101300000	1000	0	0	-1	200
12756355	8377	282	0	-100	0	230	101300000	1000	0	0	-1	200
12768915	8389	278	0	-100	0	230	101300000	1000	0	0	-1	200
12781475	8376	285	0	-100	0	230	101300000	1000	0	0	-1	200
12794035	8379	281	0	-100	0	230	101300000	1000	0	0	-1	200
12806595	8372	284	0	-100	0	230	101300000	1000	0	0	-1	200
12819155	8374	281	0	-100	0	230	101300000	1000	0	0	-1	200
12831715	8384	283	0	-100	0	230	101300000	1000	0	0	-1	200
12844275	8377	285	0	-100	0	230	101300000	1000	0	0	-1	200
12856835	8379	280	0	-100	0	230	101300000	1000	0	0	-1	200
12869395	8379	283	0	-100	0	230	101300000	1000	0	0	-1	200
12881955	8379	283	0	-100	0	230	101300000	1000	0	0	-1	200
12894515	8384	280	0	-100	0	230	101300000	1000	0	0	-1	200
12907075	8382	279	0	-100	0	230	101300000	1000	0	0	-1	200
12919635	8377	284	0	-100	0	230	101300000	1000	0	0	-1	200
12932195	8379	281	0	-100	0	230	101300000	1000	0	0	-1	200
12944755	8379	283	0	-100	0	230	101300000	1000	0	0	-1	200
12957315	8372	282	0	-100	0	230	101300000	1000	0	0	-1	200
12969875	8382	278	0	-100	0	230	101300000	1000	0	0	-1	200
12982435	8381	287	0	-100	0	230	101300000	1000	0	0	-1	200
12994995	8384	281	0	-100	0	230	101300000	1000	0	0	-1	200
13007555	8381	281	0	-100	0	230	101300000	1000	0	0	-1	200
13020115	8384	280	0	-100	0	230	101300000	1000	0	0	-1	200
13032675	8383	278	0	-100	0	230	101300000	1000	0	0	-1	200
13045235	8372	281	0	-100	0	230	101300000	1000	0	0	-1	200
13057795	8386	285	0	-100	0	230	101300000	1000	0	0	-1	200
13070355	8372	287	0	-100	0	230	101300000	1000	0	0	-1	200
13082915	8388	280	0	-100	0	230	101300000	1000	0	0	-1	200
13095475	8374	282	0	-100	0	230	101300000	1000	0	0	-1	200
13108035	8372	283	0	-100	0	230	101300000	1000	0	0	-1	200
13120595	8377	282	0	-100	0	230	101300000	1000	0	0	-1	200
13133155	8372	286	0	-100	0	230	101300000	1000	0	0	-1	200
13145715	8379	285	0	-100	0	230	101300000	1000	0	0	-1	200
13158275	8376	290	0	-100	0	230	101300000	1000	0	0	-1	200
13170835	8377	282	0	-100	0	230	101300000	1000	0	0	-1	200
13183395	8374	287	0	-100	0	230	101300000	1000	0	0	-1	200
13195955	8379	285	0	-100	0	230	101300000	1000	0	0	-1	200
13208515	8372	285	0	-100	0	230	101300000	1000	0	0	-1	200
13221075	8379	288	0	-100	0	230	101300000	1000	0	0	-1	200
13233635	8374	283	0	-100	0	230	101300000	1000	0	0	-1	200
13246195	8374	286	0	-100	0	230	101300000	1000	0	0	-1	200
13258755	8372	284	0	-100	0	230	101300000	1000	0	0	-1	200
13271315	8381	286	0	-100	0	230	101300000	1000	0	0	-1	200
13283875	8377	286	0	-100	0	230	101300000	1000	0	0	-1	200
13296435	8381	283	0	-100	0	230	101300000	1000	0	0	-1	200
13308995	8377	284	0	-100	0	230	101300000	1000	0	0	-1	200
13321555	8379	286	0	-100	0	230	101300000	1000	0	0	-1	200
13334115	8379	283	0	-100	0	230	101300000	1000	0	0	-1	200
13346675	8377	281	0	-100	0	230	101300000	1000	0	0	-1	200
13359235	8386	282	0	-100	0	230	101300000	1000	0	0	-1	200
13371795	8372	284	0	-100	0	230	101300000	1000	0	0	-1	200
13384355	8379	282	0	-100	0	230	101300000	1000	0	0	-1	200
13396915	8377	279	0	-100	0	230	101300000	1000	0	0	-1	200
13409475	8379	285	0	-100	0	230	101300000	1000	0	0	-1	200
13422035	8382	278	0	-100	0	230	101300000	1000	0	0	-1	200
13434595	8379	286	0	-100	0	230	101300000	1000	0	0	-1	200
13447155	8381	282	0	-100	0	230	101300000	1000	0	0	-1	200
13459715	8381	282	0	-100	0	230	101300000	1000	0	0	-1	200
13472275	8376	283	0	-100	0	230	101300000	1000	0	0	-1	200
13484835	8379	283	0	-100	0	230	101300000	1000	0	0	-1	200
13497395	8381	278	0	-100	0	230	101300000	1000	0	0	-1	200
13509955	8376	283	0	-100	0	230	101300000	1000	0	0	-1	200
13522515	8384	282	0	-100	0	230	101300000	1000	0	0	-1	200
13535075	8381	284	0	-100	0	230	101300000	1000	0	0	-1	200
13547635	8384	279	0	-100	0	230	101300000	1000	0	0	-1	200
13560195	8377	283	0	-100	0	230	101300000	1000	0	0	-1	200
13572755	8381	282	0	-100	0	230	101300000	1000	0	0	-1	200
13585315	8377	281	0	-100	0	230	101300000	1000	0	0	-1	200
13597875	8377	283	0	-100	0	230	101300000	1000	0	0	-1	200
13610435	8379	281	0	-100	0	230	101300000	1000	0	0	-1	200
13622995	8377	285	0	-100	0	230	101300000	1000	0	0	-1	200
13635555	8384	281	0	-100	0	230	101300000	1000	0	0	-1	200
13648115	8379	283	0	-100	0	230	101300000	1000	0	0	-1	200
13660675	8377	283	0	-100	0	230	101300000	1000	0	0	-1	200
13673235	8379	285	0	-100	0	230	101300000	1000	0	0	-1	200
13685795	8391	282	0	-100	0	230	101300000	1000	0	0	-1	200
13698355	8369	283	0	-100	0	230	101300000	1000	0	0	-1	200
13710915	8382	281	0	-100	0	230	101300000	1000	0	0	-1	200
13723475	8384	283	0	-100	0	230	101300000	1000	0	0	-1	200
13736035	8384	279	0	-100	0	230	101300000	1000	0	0	-1	200
13748595	8379	283	0	-100	0	230	101300000	1000	0	0	-1	200
13761155	8384	283	0	-100	0	230	101300000	1000	0	0	-1	200
13773715	8379	287	0	-100	0	230	101300000	1000	0	0	-1	200
13786275	8379	282	0	-100	0	230	101300000	1000	0	0	-1	200
13798835	8379	282	0	-100	0	230	101300000	1000	0	0	-1	200
13811395	8377	283	0	-100	0	230	101300000	1000	0	0	-1	200
13823955	8384	281	0	-100	0	230	101300000	1000	0	0	-1	200
13836515	8377	284	0	-100	0	230	101300000	1000	0	0	-1	200
13849075	8381	278	0	-100	0	230	101300000	1000	0	0	-1	200
13861635	8381	282	0	-100	0	230	101300000	1000	0	0	-1	200
13874195	8372	281	0	-100	0	230	101300000	1000	0	0	-1	200
13886755	8382	278	0	-100	0	230	101300000	1000	0	0	-1	200
13899315	8379	286	0	-100	0	230	101300000	1000	0	0	-1	200
13911875	8377	279	0	-100	0	230	101300000	1000	0	0	-1	200
13924435	8388	282	0	-100	0	230	101300000	1000	0	0	-1	200
13936995	8379	283	0	-100	0	230	101300000	1000	0	0	-1	200
13949555	8379	281	0	-100	0	230	101300000	1000	0	0	-1	200
13962115	8379	281	0	-100	0	230	101300000	1000	0	0	-1	200
13974675	8374	281	0	-100	0	230	101300000	1000	0	0	-1	200
13987235	8384	277	0	-100	0	230	101300000	1000	0	0	-1	200
13999795	8383	282	0	-100	0	230	101300000	1000	0	0	-1	200
14012355	8379	281	0	-100	0	230	101300000	1000	0	0	-1	200
14024915	8377	285	0	-100	0	230	101300000	1000	0	0	-1	200
14037475	8377	281	0	-100	0	230	101300000	1000	0	0	-1	200
14050035	8377	286	0	-100	0	230	101300000	1000	0	0	-1	200
14062595	8377	279	0	-100	0	230	101300000	1000	0	0	-1	200
14075155	8379	283	0	-100	0	230	101300000	1000	0	0	-1	200
14087715	8381	281	0	-100	0	230	101300000	1000	0	0	-1	200
14100275	8389	282	0	-100	0	230	101300000	1000	0	0	-1	200
14112835	8379	284	0	-100	0	230	101300000	1000	0	0	-1	200
14125395	8384	281	0	-100	0	230	101300000	1000	0	0	-1	200
14137955	8377	285	0	-100	0	230	101300000	1000	0	0	-1	200
14150515	8374	281	0	-100	0	230	101300000	1000	0	0	-1	200
14163075	8382	281	0	-100	0	230	101300000	1000	0	0	-1	200
14175635	8379	286	0	-100	0	230	101300000	1000	0	0	-1	200
14188195	8379	278	0	-100	0	230	101300000	1000	0	0	-1	200
14200755	8384	281	0	-100	0	230	101300000	1000	0	0	-1	200
14213315	8383	287	0	-100	0	230	101300000	1000	0	0	-1	200
14225875	8384	281	0	-100	0	230	101300000	1000	0	0	-1	200
14238435	8376	284	0	-100	0	230	101300000	1000	0	0	-1	200
14250995	8377	286	0	-100	0	230	101300000	1000	0	0	-1	200
14263555	8383	281	0	-100	0	230	101300000	1000	0	0	-1	200
14276115	8376	282	0	-100	0	230	101300000	1000	0	0	-1	200
14288675	8389	281	0	-100	0	230	101300000	1000	0	0	-1	200
14301235	8377	286	0	-100	0	230	101300000	1000	0	0	-1	200
14313795	8386	280	0	-100	0	230	101300000	1000	0	0	-1	200
14326355	8388	279	0	-100	0	230	101300000	1000	0	0	-1	200
14338915	8381	284	0	-100	0	230	101300000	1000	0	0	-1	200
14351475	8382	280	0	-100	0	230	101300000	1000	0	0	-1	200
14364035	8381	284	0	-100	0	230	101300000	1000	0	0	-1	200
14376595	8384	284	0	-100	0	230	101300000	1000	0	0	-1	200
14389155	8374	285	0	-100	0	230	101300000	1000	0	0	-1	200
14401715	8382	282	0	-100	0	230	101300000	1000	0	0	-1	200
14414275	8379	286	0	-100	0	230	101300000	1000	0	0	-1	200
14426835	8386	278	0	-100	0	230	101300000	1000	0	0	-1	200
14439395	8379	285	0	-100	0	230	101300000	1000	0	0	-1	200
14451955	8384	280	0	-100	0	230	101300000	1000	0	0	-1	200
14464515	8379	285	0	-100	0	230	101300000	1000	0	0	-1	200
14477075	8384	280	0	-100	0	230	101300000	1000	0	0	-1	200
14489635	8377	283	0	-100	0	230	101300000	1000	0	0	-1	200
14502195	8370	281	0	-100	0	230	101300000	1000	0	0	-1	200
14514755	8389	283	0	-100	0	230	101300000	1000	0	0	-1	200
14527315	8381	283	0	-100	0	230	101300000	1000	0	0	-1	200
14539875	8386	280	0	-100	0	230	101300000	1000	0	0	-1	200
14552435	8379	285	0	-100	0	230	101300000	1000	0	0	-1	200
14564995	8386	284	0	-100	0	230	101300000	1000	0	0	-1	200
14577555	8374	283	0	-100	0	230	101300000	1000	0	0	-1	200
14590115	8384	279	0	-100	0	230	101300000	1000	0	0	-1	200
14602675	8374	281	0	-100	0	230	101300000	1000	0	0	-1	200
14615235	8382	279	0	-100	0	230	101300000	1000	0	0	-1	200
14627795	8379	283	0	-100	0	230	101300000	1000	0	0	-1	200
14640355	8377	281	0	-100	0	230	101300000	1000	0	0	-1	200
14652915	8386	281	0	-100	0	230	101300000	1000	0	0	-1	200
14665475	8379	283	0	-100	0	230	101300000	1000	0	0	-1	200
14678035	8377	283	0	-100	0	230	101300000	1000	0	0	-1	200
14690595	8386	278	0	-100	0	230	101300000	1000	0	0	-1	200
14703155	8386	286	0	-100	0	230	101300000	1000	0	0	-1	200
14715715	8374	282	0	-100	0	230	101300000	1000	0	0	-1	200
14728275	8382	281	0	-100	0	230	101300000	1000	0	0	-1	200
14740835	8386	282	0	-100	0	230	101300000	1000	0	0	-1	200
14753395	8376	284	0	-100	0	230	101300000	1000	0	0	-1	200
14765955	8379	277	0	-100	0	230	101300000	1000	0	0	-1	200
14778515	8386	276	0	-100	0	230	101300000	1000	0	0	-1	200
14791075	8372	285	0	-100	0	230	101300000	1000	0	0	-1	200
14803635	8374	284	0	-100	0	230	101300000	1000	0	0	-1	200
14816195	8379	277	0	-100	0	230	101300000	1000	0	0	-1	200
14828755	8376	282	0	-100	0	230	101300000	1000	0	0	-1	200
14841315	8376	289	0	-100	0	230	101300000	1000	0	0	-1	200
14853875	8377	286	0	-100	0	230	101300000	1000	0	0	-1	200
14866435	8381	286	0	-100	0	230	101300000	1000	0	0	-1	200
14878995	8379	286	0	-100	0	230	101300000	1000	0	0	-1	200
14891555	8381	284	0	-100	0	230	101300000	1000	0	0	-1	200
14904115	8379	282	0	-100	0	230	101300000	1000	0	0	-1	200
14916675	8372	287	0	-100	0	230	101300000	1000	0	0	-1	200
14929235	8374	285	0	-100	0	230	101300000	1000	0	0	-1	200
14941795	8379	288	0	-100	0	230	101300000	1000	0	0	-1	200
14954355	8376	286	0	-100	0	230	101300000	1000	0	0	-1	200
14966915	8372	289	0	-100	0	230	101300000	1000	0	0	-1	200
14979475	8379	287	0	-100	0	230	101300000	1000	0	0	-1	200
14992035	8379	287	0	-100	0	230	101300000	1000	0	0	-1	200
15004595	8384	289	0	-100	0	230	101300000	1000	0	0	-1	200
15017155	8374	290	0	-100	0	230	101300000	1000	0	0	-1	200
15029715	8374	287	0	-100	0	230	101300000	1000	0	0	-1	200
15042275	8379	285	0	-100	0	230	101300000	1000	0	0	-1	200
15054835	8381	289	0	-100	0	230	101300000	1000	0	0	-1	200
15067395	8374	280	0	-100	0	230	101300000	1000	0	0	-1	200
15079955	8367	287	0	-100	0	230	101300000	1000	0	0	-1	200
15092515	8379	286	0	-100	0	230	101300000	1000	0	0	-1	200
15105075	8379	284	0	-100	0	230	101300000	1000	0	0	-1	200
15117635	8374	286	0	-100	0	230	101300000	1000	0	0	-1	200
15130195	8376	287	0	-100	0	230	101300000	1000	0	0	-1	200
15142755	8370	289	0	-100	0	230	101300000	1000	0	0	-1	200
15155315	8381	287	0	-100	0	230	101300000	1000	0	0	-1	200
15167875	8382	285	0	-100	0	230	101300000	1000	0	0	-1	200
15180435	8376	288	0	-100	0	230	101300000	1000	0	0	-1	200
15192995	8379	288	0	-100	0	230	101300000	1000	0	0	-1	200
15205555	8377	289	0	-100	0	230	101300000	1000	0	0	-1	200
15218115	8379	289	0	-100	0	230	101300000	1000	0	0	-1	200
15230675	8381	286	0	-100	0	230	101300000	1000	0	0	-1	200
15243235	8374	287	0	-100	0	230	101300000	1000	0	0	-1	200
15255795	8376	286	0	-100	0	230	101300000	1000	0	0	-1	200
15268355	8382	285	0	-100	0	230	101300000	1000	0	0	-1	200
15280915	8374	287	0	-100	0	230	101300000	1000	0	0	-1	200
15293475	8372	285	0	-100	0	230	101300000	1000	0	0	-1	200
15306035	8379	286	0	-100	0	230	101300000	1000	0	0	-1	200
15318595	8372	286	0	-100	0	230	101300000	1000	0	0	-1	200
15331155	8372	290	0	-100	0	230	101300000	1000	0	0	-1	200
15343715	8379	286	0	-100	0	230	101300000	1000	0	0	-1	200
15356275	8372	285	0	-100	0	230	101300000	1000	0	0	-1	200
15368835	8379	283	0	-100	0	230	101300000	1000	0	0	-1	200
15381395	8376	287	0	-100	0	230	101300000	1000	0	0	-1	200
15393955	8377	286	0	-100	0	230	101300000	1000	0	0	-1	200
15406515	8377	286	0	-100	0	230	101300000	1000	0	0	-1	200
15419075	8374	285	0	-100	0	230	101300000	1000	0	0	-1	200
15431635	8372	290	0	-100	0	230	101300000	1000	0	0	-1	200
15444195	8379	287	0	-100	0	230	101300000	1000	0	0	-1	200
15456755	8372	289	0	-100	0	230	101300000	1000	0	0	-1	200
15469315	8384	287	0	-100	0	230	101300000	1000	0	0	-1	200
15481875	8369	289	0	-100	0	230	101300000	1000	0	0	-1	200
15494435	8381	288	0	-100	0	230	101300000	1000	0	0	-1	200
15506995	8372	288	0	-100	0	230	101300000	1000	0	0	-1	200
15519555	8381	284	0	-100	0	230	101300000	1000	0	0	-1	200
15532115	8377	289	0	-100	0	230	101300000	1000	0	0	-1	200
15544675	8384	288	0	-100	0	230	101300000	1000	0	0	-1	200
15557235	8376	290	0	-100	0	230	101300000	1000	0	0	-1	200
15569795	8384	281	0	-100	0	230	101300000	1000	0	0	-1	200
15582355	8381	277	0	-100	0	230	101300000	1000	0	0	-1	200
15594915	8384	287	0	-100	0	230	101300000	1000	0	0	-1	200
15607475	8372	289	0	-100	0	230	101300000	1000	0	0	-1	200
15620035	8377	285	0	-100	0	230	101300000	1000	0	0	-1	200
15632595	8374	290	0	-100	0	230	101300000	1000	0	0	-1	200
15645155	8381	287	0	-100	0	230	101300000	1000	0	0	-1	200
15657715	8372	287	0	-100	0	230	101300000	1000	0	0	-1	200
15670275	8375	284	0	-100	0	230	101300000	1000	0	0	-1	200
15682835	8372	286	0	-100	0	230	101300000	1000	0	0	-1	200
15695395	8386	286	0	-100	0	230	101300000	1000	0	0	-1	200
15707955	8374	287	0	-100	0	230	101300000	1000	0	0	-1	200
15720515	8384	290	0	-100	0	230	101300000	1000	0	0	-1	200
15733075	8377	293	0	-100	0	230	101300000	1000	0	0	-1	200
15745635	8389	288	0	-100	0	230	101300000	1000	0	0	-1	200
15758195	8374	287	0	-100	0	230	101300000	1000	0	0	-1	200
15770755	8376	287	0	-100	0	230	101300000	1000	0	0	-1	200
15783315	8381	287	0	-100	0	230	101300000	1000	0	0	-1	200
15795875	8377	290	0	-100	0	230	101300000	1000	0	0	-1	200
15808435	8382	284	0	-100	0	230	101300000	1000	0	0	-1	200
15820995	8367	287	0	-100	0	230	101300000	1000	0	0	-1	200
15833555	8379	288	0	-100	0	230	101300000	1000	0	0	-1	200
15846115	8379	282	0	-100	0	230	101300000	1000	0	0	-1	200
15858675	8372	287	0	-100	0	230	101300000	1000	0	0	-1	200
15871235	8376	288	0	-100	0	230	101300000	1000	0	0	-1	200
15883795	8381	287	0	-100	0	230	101300000	1000	0	0	-1	200
15896355	8379	289	0	-100	0	230	101300000	1000	0	0	-1	200
15908915	8377	286	0	-100	0	230	101300000	1000	0	0	-1	200
15921475	8374	287	0	-100	0	230	101300000	1000	0	0	-1	200
15934035	8372	288	0	-100	0	230	101300000	1000	0	0	-1	200
15946595	8379	290	0	-100	0	230	101300000	1000	0	0	-1	200
15959155	8374	289	0	-100	0	230	101300000	1000	0	0	-1	200
15971715	8388	289	0	-100	0	230	101300000	1000	0	0	-1	200
15984275	8381	286	0	-100	0	230	101300000	1000	0	0	-1	200
15996835	8372	285	0	-100	0	230	101300000	1000	0	0	-1	200
16009395	8377	287	0	-100	0	230	101300000	1000	0	0	-1	200
16021955	8379	291	0	-100	0	230	101300000	1000	0	0	-1	200
16034515	8379	288	0	-100	0	230	101300000	1000	0	0	-1	200
16047075	8381	283	0	-100	0	230	101300000	1000	0	0	-1	200
16059635	8379	288	0	-100	0	230	101300000	1000	0	0	-1	200
16072195	8372	285	0	-100	0	230	101300000	1000	0	0	-1	200
16084755	8376	288	0	-100	0	230	101300000	1000	0	0	-1	200
16097315	8384	286	0	-100	0	230	101300000	1000	0	0	-1	200
16109875	8384	286	0	-100	0	230	101300000	1000	0	0	-1	200
16122435	8372	287	0	-100	0	230	101300000	1000	0	0	-1	200
16134995	8374	276	0	-100	0	230	101300000	1000	0	0	-1	200
16147555	8374	287	0	-100	0	230	101300000	1000	0	0	-1	200
16160115	8381	288	0	-100	0	230	101300000	1000	0	0	-1	200
16172675	8381	287	0	-100	0	230	101300000	1000	0	0	-1	200
16185235	8379	285	0	-100	0	230	101300000	1000	0	0	-1	200
16197795	8372	286	0	-100	0	230	101300000	1000	0	0	-1	200
16210355	8379	289	0	-100	0	230	101300000	1000	0	0	-1	200
16222915	8384	286	0	-100	0	230	101300000	1000	0	0	-1	200
16235475	8372	290	0	-100	0	230	101300000	1000	0	0	-1	200
16248035	8379	291	0	-100	0	230	101300000	1000	0	0	-1	200
16260595	8381	289	0	-100	0	230	101300000	1000	0	0	-1	200
16273155	8381	286	0	-100	0	230	101300000	1000	0	0	-1	200
16285715	8379	286	0	-100	0	230	101300000	1000	0	0	-1	200
16298275	8377	288	0	-100	0	230	101300000	1000	0	0	-1	200
16310835	8376	287	0	-100	0	230	101300000	1000	0	0	-1	200
16323395	8377	288	0	-100	0	230	101300000	1000	0	0	-1	200
16335955	8377	290	0	-100	0	230	101300000	1000	0	0	-1	200
16348515	8379	289	0	-100	0	230	101300000	1000	0	0	-1	200
16361075	8381	286	0	-100	0	230	101300000	1000	0	0	-1	200
16373635	8381	288	0	-100	0	230	101300000	1000	0	0	-1	200
16386195	8377	286	0	-100	0	230	101300000	1000	0	0	-1	200
16398755	8374	288	0	-100	0	230	101300000	1000	0	0	-1	200
16411315	8374	287	0	-100	0	230	101300000	1000	0	0	-1	200
16423875	8379	283	0	-100	0	230	101300000	1000	0	0	-1	200
16436435	8379	286	0	-100	0	230	101300000	1000	0	0	-1	200
16448995	8372	288	0	-100	0	230	101300000	1000	0	0	-1	200
16461555	8374	288	0	-100	0	230	101300000	1000	0	0	-1	200
16474115	8384	283	0	-100	0	230	101300000	1000	0	0	-1	200
16486675	8370	285	0	-100	0	230	101300000	1000	0	0	-1	200
16499235	8376	289	0	-100	0	230	101300000	1000	0	0	-1	200
16511795	8379	282	0	-100	0	230	101300000	1000	0	0	-1	200
16524355	8377	285	0	-100	0	230	101300000	1000	0	0	-1	200
16536915	8379	290	0	-100	0	230	101300000	1000	0	0	-1	200
16549475	8379	287	0	-100	0	230	101300000	1000	0	0	-1	200
16562035	8381	285	0	-100	0	230	101300000	1000	0	0	-1	200
16574595	8377	291	0	-100	0	230	101300000	1000	0	0	-1	200
16587155	8379	286	0	-100	0	230	101300000	1000	0	0	-1	200
16599715	8377	288	0	-100	0	230	101300000	1000	0	0	-1	200
16612275	8374	288	0	-100	0	230	101300000	1000	0	0	-1	200
16624835	8386	287	0	-100	0	230	101300000	1000	0	0	-1	200
16637395	8377	286	0	-100	0	230	101300000	1000	0	0	-1	200
16649955	8379	290	0	-100	0	230	101300000	1000	0	0	-1	200
16662515	8369	289	0	-100	0	230	101300000	1000	0	0	-1	200
16675075	8386	290	0	-100	0	230	101300000	1000	0	0	-1	200
16687635	8372	287	0	-100	0	230	101300000	1000	0	0	-1	200
16700195	8374	288	0	-100	0	230	101300000	1000	0	0	-1	200
16712755	8376	290	0	-100	0	230	101300000	1000	0	0	-1	200
16725315	8374	290	0	-100	0	230	101300000	1000	0	0	-1	200
16737875	8389	284	0	-100	0	230	101300000	1000	0	0	-1	200
16750435	8382	284	0	-100	0	230	101300000	1000	0	0	-1	200
16762995	8379	275	0	-100	0	230	101300000	1000	0	0	-1	200
16775555	8381	282	0	-100	0	230	101300000	1000	0	0	-1	200
16788115	8377	286	0	-100	0	230	101300000	1000	0	0	-1	200
16800675	8377	285	0	-100	0	230	101300000	1000	0	0	-1	200
16813235	8381	284	0	-100	0	230	101300000	1000	0	0	-1	200
16825795	8379	286	0	-100	0	230	101300000	1000	0	0	-1	200
16838355	8377	290	0	-100	0	230	101300000	1000	0	0	-1	200
16850915	8376	292	0	-100	0	230	101300000	1000	0	0	-1	200
16863475	8379	285	0	-100	0	230	101300000	1000	0	0	-1	200
16876035	8384	286	0	-100	0	230	101300000	1000	0	0	-1	200
16888595	8381	283	0	-100	0	230	101300000	1000	0	0	-1	200
16901155	8376	284	0	-100	0	230	101300000	1000	0	0	-1	200
16913715	8379	291	0	-100	0	230	101300000	1000	0	0	-1	200
16926275	8374	291	0	-100	0	230	101300000	1000	0	0	-1	200
16938835	8379	287	0	-100	0	230	101300000	1000	0	0	-1	200
16951395	8384	287	0	-100	0	230	101300000	1000	0	0	-1	200
16963955	8377	290	0	-100	0	230	101300000	1000	0	0	-1	200
16976515	8376	291	0	-100	0	230	101300000	1000	0	0	-1	200
16989075	8377	285	0	-100	0	230	101300000	1000	0	0	-1	200
17001635	8384	287	0	-100	0	230	101300000	1000	0	0	-1	200
17014195	8374	288	0	-100	0	230	101300000	1000	0	0	-1	200
17026755	8372	289	0	-100	0	230	101300000	1000	0	0	-1	200
17039315	8382	283	0	-100	0	230	101300000	1000	0	0	-1	200
17051875	8374	284	0	-100	0	230	101300000	1000	0	0	-1	200
17064435	8372	287	0	-100	0	230	101300000	1000	0	0	-1	200
17076995	8384	290	0	-100	0	230	101300000	1000	0	0	-1	200
17089555	8374	285	0	-100	0	230	101300000	1000	0	0	-1	200
17102115	8376	291	0	-100	0	230	101300000	1000	0	0	-1	200
17114675	8386	288	0	-100	0	230	101300000	1000	0	0	-1	200
17127235	8374	286	0	-100	0	230	101300000	1000	0	0	-1	200
17139795	8376	291	0	-100	0	230	101300000	1000	0	0	-1	200
17152355	8383	286	0	-100	0	230	101300000	1000	0	0	-1	200
17164915	8379	286	0	-100	0	230	101300000	1000	0	0	-1	200
17177475	8379	286	0	-100	0	230	101300000	1000	0	0	-1	200
17190035	8379	286	0	-100	0	230	101300000	1000	0	0	-1	200
17202595	8374	290	0	-100	0	230	101300000	1000	0	0	-1	200
17215155	8381	286	0	-100	0	230	101300000	1000	0	0	-1	200
17227715	8377	284	0	-100	0	230	101300000	1000	0	0	-1	200
17240275	8376	289	0	-100	0	230	101300000	1000	0	0	-1	200
17252835	8379	284	0	-100	0	230	101300000	1000	0	0	-1	200
17265395	8379	287	0	-100	0	230	101300000	1000	0	0	-1	200
17277955	8374	292	0	-100	0	230	101300000	1000	0	0	-1	200
17290515	8384	289	0	-100	0	230	101300000	1000	0	0	-1	200
17303075	8377	285	0	-100	0	230	101300000	1000	0	0	-1	200
17315635	8376	287	0	-100	0	230	101300000	1000	0	0	-1	200
17328195	8381	286	0	-100	0	230	101300000	1000	0	0	-1	200
17340755	8374	290	0	-100	0	230	101300000	1000	0	0	-1	200
17353315	8386	289	0	-100	0	230	101300000	1000	0	0	-1	200
17365875	8377	292	0	-100	0	230	101300000	1000	0	0	-1	200
17378435	8381	289	0	-100	0	230	101300000	1000	0	0	-1	200
17390995	8377	291	0	-100	0	230	101300000	1000	0	0	-1	200
17403555	8379	288	0	-100	0	230	101300000	1000	0	0	-1	200
17416115	8381	286	0	-100	0	230	101300000	1000	0	0	-1	200
17428675	8374	285	0	-100	0	230	101300000	1000	0	0	-1	200
17441235	8376	290	0	-100	0	230	101300000	1000	0	0	-1	200
17453795	8379	287	0	-100	0	230	101300000	1000	0	0	-1	200
17466355	8376	291	0	-100	0	230	101300000	1000	0	0	-1	200
17478915	8379	285	0	-100	0	230	101300000	1000	0	0	-1	200
17491475	8377	289	0	-100	0	230	101300000	1000	0	0	-1	200
17504035	8374	289	0	-100	0	230	101300000	1000	0	0	-1	200
17516595	8372	283	0	-100	0	230	101300000	1000	0	0	-1	200
17529155	8376	290	0	-100	0	230	101300000	1000	0	0	-1	200
17541715	8374	285	0	-100	0	230	101300000	1000	0	0	-1	200
17554275	8384	286	0	-100	0	230	101300000	1000	0	0	-1	200
17566835	8374	286	0	-100	0	230	101300000	1000	0	0	-1	200
17579395	8379	288	0	-100	0	230	101300000	1000	0	0	-1	200
17591955	8381	286	0	-100	0	230	101300000	1000	0	0	-1	200
17604515	8376	287	0	-100	0	230	101300000	1000	0	0	-1	200
17617075	8381	285	0	-100	0	230	101300000	1000	0	0	-1	200
17629635	8376	290	0	-100	0	230	101300000	1000	0	0	-1	200
17642195	8384	275	0	-100	0	230	101300000	1000	0	0	-1	200
17654755	8372	289	0	-100	0	230	101300000	1000	0	0	-1	200
17667315	8374	285	0	-100	0	230	101300000	1000	0	0	-1	200
17679875	8381	291	0	-100	0	230	101300000	1000	0	0	-1	200
17692435	8379	283	0	-100	0	230	101300000	1000	0	0	-1	200
17704995	8372	288	0	-100	0	230	101300000	1000	0	0	-1	200
17717555	8381	287	0	-100	0	230	101300000	1000	0	0	-1	200
17730115	8372	291	0	-100	0	230	101300000	1000	0	0	-1	200
17742675	8379	286	0	-100	0	230	101300000	1000	0	0	-1	200
17755235	8379	286	0	-100	0	230	101300000	1000	0	0	-1	200
17767795	8374	290	0	-100	0	230	101300000	1000	0	0	-1	200
17780355	8377	285	0	-100	0	230	101300000	1000	0	0	-1	200
17792915	8374	288	0	-100	0	230	101300000	1000	0	0	-1	200
17805475	8381	285	0	-100	0	230	101300000	1000	0	0	-1	200
17818035	8376	291	0	-100	0	230	101300000	1000	0	0	-1	200
17830595	8379	289	0	-100	0	230	101300000	1000	0	0	-1	200
17843155	8372	288	0	-100	0	230	101300000	1000	0	0	-1	200
17855715	8374	286	0	-100	0	230	101300000	1000	0	0	-1	200
17868275	8379	290	0	-100	0	230	101300000	1000	0	0	-1	200
17880835	8374	285	0	-100	0	230	101300000	1000	0	0	-1	200
17893395	8383	287	0	-100	0	230	101300000	1000	0	0	-1	200
17905955	8377	284	0	-100	0	230	101300000	1000	0	0	-1	200
17918515	8372	286	0	-100	0	230	101300000	1000	0	0	-1	200
17931075	8379	285	0	-100	0	230	101300000	1000	0	0	-1	200
17943635	8374	291	0	-100	0	230	101300000	1000	0	0	-1	200
17956195	8381	285	0	-100	0	230	101300000	1000	0	0	-1	200
17968755	8374	288	0	-100	0	230	101300000	1000	0	0	-1	200
17981315	8381	285	0	-100	0	230	101300000	1000	0	0	-1	200
17993875	8374	288	0	-100	0	230	101300000	1000	0	0	-1	200
18006435	8379	285	0	-100	0	230	101300000	1000	0	0	-1	200
18018995	8372	290	0	-100	0	230	101300000	1000	0	0	-1	200
18031555	8381	286	0	-100	0	230	101300000	1000	0	0	-1	200
18044115	8374	288	0	-100	0	230	101300000	1000	0	0	-1	200
18056675	8379	285	0	-100	0	230	101300000	1000	0	0	-1	200
18069235	8374	290	0	-100	0	230	101300000	1000	0	0	-1	200
18081795	8379	288	0	-100	0	230	101300000	1000	0	0	-1	200
18094355	8376	287	0	-100	0	230	101300000	1000	0	0	-1	200
18106915	8379	290	0	-100	0	230	101300000	1000	0	0	-1	200
18119475	8377	286	0	-100	0	230	101300000	1000	0	0	-1	200
18132035	8376	288	0	-100	0	230	101300000	1000	0	0	-1	200
18144595	8379	285	0	-100	0	230	101300000	1000	0	0	-1	200
18157155	8374	289	0	-100	0	230	101300000	1000	0	0	-1	200
18169715	8379	290	0	-100	0	230	101300000	1000	0	0	-1	200
18182275	8381	286	0	-100	0	230	101300000	1000	0	0	-1	200
18194835	8379	289	0	-100	0	230	101300000	1000	0	0	-1	200
18207395	8381	284	0	-100	0	230	101300000	1000	0	0	-1	200
18219955	8376	286	0	-100	0	230	101300000	1000	0	0	-1	200
18232515	8379	288	0	-100	0	230	101300000	1000	0	0	-1	200
18245075	8377	290	0	-100	0	230	101300000	1000	0	0	-1	200
18257635	8381	286	0	-100	0	230	101300000	1000	0	0	-1	200
18270195	8374	289	0	-100	0	230	101300000	1000	0	0	-1	200
18282755	8379	284	0	-100	0	230	101300000	1000	0	0	-1	200
18295315	8374	290	0	-100	0	230	101300000	1000	0	0	-1	200
18307875	8372	285	0	-100	0	230	101300000	1000	0	0	-1	200
18320435	8379	286	0	-100	0	230	101300000	1000	0	0	-1	200
18332995	8370	288	0	-100	0	230	101300000	1000	0	0	-1	200
18345555	8384	288	0	-100	0	230	101300000	1000	0	0	-1	200
18358115	8374	289	0	-100	0	230	101300000	1000	0	0	-1	200
18370675	8379	287	0	-100	0	230	101300000	1000	0	0	-1	200
18383235	8379	287	0	-100	0	230	101300000	1000	0	0	-1	200
18395795	8377	291	0	-100	0	230	101300000	1000	0	0	-1	200
18408355	8379	285	0	-100	0	230	101300000	1000	0	0	-1	200
18420915	8369	290	0	-100	0	230	101300000	1000	0	0	-1	200
18433475	8379	281	0	-100	0	230	101300000	1000	0	0	-1	200
18446035	8381	287	0	-100	0	230	101300000	1000	0	0	-1	200
18458595	8374	288	0	-100	0	230	101300000	1000	0	0	-1	200
18471155	8381	289	0	-100	0	230	101300000	1000	0	0	-1	200
18483715	8370	285	0	-100	0	230	101300000	1000	0	0	-1	200
18496275	8379	283	0	-100	0	230	101300000	1000	0	0	-1	200
18508835	8376	289	0	-100	0	230	101300000	1000	0	0	-1	200
18521395	8381	283	0	-100	0	230	101300000	1000	0	0	-1	200
18533955	8372	289	0	-100	0	230	101300000	1000	0	0	-1	200
18546515	8377	273	0	-100	0	230	101300000	1000	0	0	-1	200
18559075	8381	285	0	-100	0	230	101300000	1000	0	0	-1	200
18571635	8379	292	0	-100	0	230	101300000	1000	0	0	-1	200
18584195	8379	283	0	-100	0	230	101300000	1000	0	0	-1	200
18596755	8372	288	0	-100	0	230	101300000	1000	0	0	-1	200
18609315	8383	286	0	-100	0	230	101300000	1000	0	0	-1	200
18621875	8379	286	0	-100	0	230	101300000	1000	0	0	-1	200
18634435	8377	290	0	-100	0	230	101300000	1000	0	0	-1	200
18646995	8384	290	0	-100	0	230	101300000	1000	0	0	-1	200
18659555	8377	290	0	-100	0	230	101300000	1000	0	0	-1	200
18672115	8374	288	0	-100	0	230	101300000	1000	0	0	-1	200
18684675	8382	286	0	-100	0	230	101300000	1000	0	0	-1	200
18697235	8379	290	0	-100	0	230	101300000	1000	0	0	-1	200
18709795	8386	287	0	-100	0	230	101300000	1000	0	0	-1	200
18722355	8374	287	0	-100	0	230	101300000	1000	0	0	-1	200
18734915	8386	287	0	-100	0	230	101300000	1000	0	0	-1	200
18747475	8374	284	0	-100	0	230	101300000	1000	0	0	-1	200
18760035	8379	289	0	-100	0	230	101300000	1000	0	0	-1	200
18772595	8384	286	0	-100	0	230	101300000	1000	0	0	-1	200
18785155	8376	289	0	-100	0	230	101300000	1000	0	0	-1	200
18797715	8379	285	0	-100	0	230	101300000	1000	0	0	-1	200
18810275	8377	288	0	-100	0	230	101300000	1000	0	0	-1	200
18822835	8379	285	0	-100	0	230	101300000	1000	0	0	-1	200
18835395	8376	289	0	-100	0	230	101300000	1000	0	0	-1	200
18847955	8379	287	0	-100	0	230	101300000	1000	0	0	-1	200
18860515	8372	287	0	-100	0	230	101300000	1000	0	0	-1	200
18873075	8376	287	0	-100	0	230	101300000	1000	0	0	-1	200
18885635	8377	287	0	-100	0	230	101300000	1000	0	0	-1	200
18898195	8374	288	0	-100	0	230	101300000	1000	0	0	-1	200
18910755	8379	285	0	-100	0	230	101300000	1000	0	0	-1	200
18923315	8374	292	0	-100	0	230	101300000	1000	0	0	-1	200
18935875	8377	285	0	-100	0	230	101300000	1000	0	0	-1	200
18948435	8379	290	0	-100	0	230	101300000	1000	0	0	-1	200
18960995	8377	286	0	-100	0	230	101300000	1000	0	0	-1	200
18973555	8374	290	0	-100	0	230	101300000	1000	0	0	-1	200
18986115	8382	284	0	-100	0	230	101300000	1000	0	0	-1	200
18998675	8374	287	0	-100	0	230	101300000	1000	0	0	-1	200
19011235	8377	287	0	-100	0	230	101300000	1000	0	0	-1	200
19023795	8379	287	0	-100	0	230	101300000	1000	0	0	-1	200
19036355	8379	292	0	-100	0	230	101300000	1000	0	0	-1	200
19048915	8382	286	0	-100	0	230	101300000	1000	0	0	-1	200
19061475	8374	289	0	-100	0	230	101300000	1000	0	0	-1	200
19074035	8381	287	0	-100	0	230	101300000	1000	0	0	-1	200
19086595	8374	289	0	-100	0	230	101300000	1000	0	0	-1	200
19099155	8381	290	0	-100	0	230	101300000	1000	0	0	-1	200
19111715	8377	287	0	-100	0	230	101300000	1000	0	0	-1	200
19124275	8374	291	0	-100	0	230	101300000	1000	0	0	-1	200
19136835	8381	286	0	-100	0	230	101300000	1000	0	0	-1	200
19149395	8379	290	0	-100	0	230	101300000	1000	0	0	-1	200
19161955	8379	284	0	-100	0	230	101300000	1000	0	0	-1	200
19174515	8370	285	0	-100	0	230	101300000	1000	0	0	-1	200
19187075	8381	286	0	-100	0	230	101300000	1000	0	0	-1	200
19199635	8377	289	0	-100	0	230	101300000	1000	0	0	-1	200
19212195	8379	289	0	-100	0	230	101300000	1000	0	0	-1	200
19224755	8379	285	0	-100	0	230	101300000	1000	0	0	-1	200
19237315	8374	289	0	-100	0	230	101300000	1000	0	0	-1	200
19249875	8381	286	0	-100	0	230	101300000	1000	0	0	-1	200
19262435	8379	288	0	-100	0	230	101300000	1000	0	0	-1	200
19274995	8381	294	0	-100	0	230	101300000	1000	0	0	-1	200
19287555	8379	285	0	-100	0	230	101300000	1000	0	0	-1	200
19300115	8376	289	0	-100	0	230	101300000	1000	0	0	-1	200
19312675	8382	285	0	-100	0	230	101300000	1000	0	0	-1	200
19325235	8374	286	0	-100	0	230	101300000	1000	0	0	-1	200
19337795	8379	286	0	-100	0	230	101300000	1000	0	0	-1	200
19350355	8377	286	0	-100	0	230	101300000	1000	0	0	-1	200
19362915	8381	286	0	-100	0	230	101300000	1000	0	0	-1	200
19375475	8374	286	0	-100	0	230	101300000	1000	0	0	-1	200
19388035	8374	287	0	-100	0	230	101300000	1000	0	0	-1	200
19400595	8384	284	0	-100	0	230	101300000	1000	0	0	-1	200
19413155	8374	289	0	-100	0	230	101300000	1000	0	0	-1	200
19425715	8381	285	0	-100	0	230	101300000	1000	0	0	-1	200
19438275	8379	285	0	-100	0	230	101300000	1000	0	0	-1	200
19450835	8374	289	0	-100	0	230	101300000	1000	0	0	-1	200
19463395	8383	285	0	-100	0	230	101300000	1000	0	0	-1	200
19475955	8379	289	0	-100	0	230	101300000	1000	0	0	-1	200
19488515	8379	287	0	-100	0	230	101300000	1000	0	0	-1	200
19501075	8379	289	0	-100	0	230	101300000	1000	0	0	-1	200
19513635	8381	289	0	-100	0	230	101300000	1000	0	0	-1	200
19526195	8379	292	0	-100	0	230	101300000	1000	0	0	-1	200
19538755	8384	286	0	-100	0	230	101300000	1000	0	0	-1	200
19551315	8374	290	0	-100	0	230	101300000	1000	0	0	-1	200
19563875	8384	287	0	-100	0	230	101300000	1000	0	0	-1	200
19576435	8374	290	0	-100	0	230	101300000	1000	0	0	-1	200
19588995	8381	290	0	-100	0	230	101300000	1000	0	0	-1	200
19601555	8381	292	0	-100	0	230	101300000	1000	0	0	-1	200
19614115	8379	290	0	-100	0	230	101300000	1000	0	0	-1	200
19626675	8374	289	0	-100	0	230	101300000	1000	0	0	-1	200
19639235	8377	285	0	-100	0	230	101300000	1000	0	0	-1	200
19651795	8377	291	0	-100	0	230	101300000	1000	0	0	-1	200
19664355	8381	287	0	-100	0	230	101300000	1000	0	0	-1	200
19676915	8377	289	0	-100	0	230	101300000	1000	0	0	-1	200
19689475	8379	287	0	-100	0	230	101300000	1000	0	0	-1	200
19702035	8377	288	0	-100	0	230	101300000	1000	0	0	-1	200
19714595	8386	288	0	-100	0	230	101300000	1000	0	0	-1	200
19727155	8374	287	0	-100	0	230	101300000	1000	0	0	-1	200
19739715	8376	287	0	-100	0	230	101300000	1000	0	0	-1	200
19752275	8377	285	0	-100	0	230	101300000	1000	0	0	-1	200
19764835	8379	290	0	-100	0	230	101300000	1000	0	0	-1	200
19777395	8386	290	0	-100	0	230	101300000	1000	0	0	-1	200
19789955	8374	289	0	-100	0	230	101300000	1000	0	0	-1	200
19802515	8377	289	0	-100	0	230	101300000	1000	0	0	-1	200
19815075	8377	286	0	-100	0	230	101300000	1000	0	0	-1	200
19827635	8377	290	0	-100	0	230	101300000	1000	0	0	-1	200
19840195	8384	286	0	-100	0	230	101300000	1000	0	0	-1	200
19852755	8374	290	0	-100	0	230	101300000	1000	0	0	-1	200
19865315	8379	285	0	-100	0	230	101300000	1000	0	0	-1	200
19877875	8379	288	0	-100	0	230	101300000	1000	0	0	-1	200
19890435	8381	287	0	-100	0	230	101300000	1000	0	0	-1	200
19902995	8374	281	0	-100	0	230	101300000	1000	0	0	-1	200
19915555	8381	286	0	-100	0	230	101300000	1000	0	0	-1	200
19928115	8376	285	0	-100	0	230	101300000	1000	0	0	-1	200
19940675	8381	285	0	-100	0	230	101300000	1000	0	0	-1	200
19953235	8377	288	0	-100	0	230	101300000	1000	0	0	-1	200
19965795	8383	286	0	-100	0	230	101300000	1000	0	0	-1	200
19978355	8379	291	0	-100	0	230	101300000	1000	0	0	-1	200
19990915	8379	289	0	-100	0	230	101300000	1000	0	0	-1	200
20003475	8372	289	0	-100	0	230	101300000	1000	0	0	-1	200
20016035	8381	287	0	-100	0	230	101300000	1000	0	0	-1	200
20028595	8377	288	0	-100	0	230	101300000	1000	0	0	-1	200
20041155	8374	289	0	-100	0	230	101300000	1000	0	0	-1	200
20053715	8377	284	0	-100	0	230	101300000	1000	0	0	-1	200
20066275	8377	291	0	-100	0	230	101300000	1000	0	0	-1	200
20078835	8377	285	0	-100	0	230	101300000	1000	0	0	-1	200
20091395	8374	290	0	-100	0	230	101300000	1000	0	0	-1	200
20103955	8374	286	0	-100	0	230	101300000	1000	0	0	-1	200
20116515	8372	291	0	-100	0	230	101300000	1000	0	0	-1	200
20129075	8374	286	0	-100	0	230	101300000	1000	0	0	-1	200
20141635	8374	289	0	-100	0	230	101300000	1000	0	0	-1	200
20154195	8377	285	0	-100	0	230	101300000	1000	0	0	-1	200
20166755	8379	274	0	-100	0	230	101300000	1000	0	0	-1	200
20179315	8384	285	0	-100	0	230	101300000	1000	0	0	-1	200
20191875	8374	286	0	-100	0	230	101300000	1000	0	0	-1	200
20204435	8376	290	0	-100	0	230	101300000	1000	0	0	-1	200
20216995	8384	292	0	-100	0	230	101300000	1000	0	0	-1	200
20229555	8370	285	0	-100	0	230	101300000	1000	0	0	-1	200
20242115	8379	282	0	-100	0	230	101300000	1000	0	0	-1	200
20254675	8381	285	0	-100	0	230	101300000	1000	0	0	-1	200
20267235	8379	290	0	-100	0	230	101300000	1000	0	0	-1	200
20279795	8386	284	0	-100	0	230	101300000	1000	0	0	-1	200
20292355	8369	288	0	-100	0	230	101300000	1000	0	0	-1	200
20304915	8379	287	0	-100	0	230	101300000	1000	0	0	-1	200
20317475	8379	286	0	-100	0	230	101300000	1000	0	0	-1	200
20330035	8374	290	0	-100	0	230	101300000	1000	0	0	-1	200
20342595	8382	287	0	-100	0	230	101300000	1000	0	0	-1	200
20355155	8377	285	0	-100	0	230	101300000	1000	0	0	-1	200
20367715	8376	290	0	-100	0	230	101300000	1000	0	0	-1	200
20380275	8384	286	0	-100	0	230	101300000	1000	0	0	-1	200
20392835	8374	288	0	-100	0	230	101300000	1000	0	0	-1	200
20405395	8377	290	0	-100	0	230	101300000	1000	0	0	-1	200
20417955	8384	286	0	-100	0	230	101300000	1000	0	0	-1	200
20430515	8374	291	0	-100	0	230	101300000	1000	0	0	-1	200
20443075	8379	290	0	-100	0	230	101300000	1000	0	0	-1	200
20455635	8386	284	0	-100	0	230	101300000	1000	0	0	-1	200
20468195	8374	289	0	-100	0	230	101300000	1000	0	0	-1	200
20480755	8374	290	0	-100	0	230	101300000	1000	0	0	-1	200
20493315	8389	288	0	-100	0	230	101300000	1000	0	0	-1	200
20505875	8374	288	0	-100	0	230	101300000	1000	0	0	-1	200
20518435	8377	290	0	-100	0	230	101300000	1000	0	0	-1	200
20530995	8377	287	0	-100	0	230	101300000	1000	0	0	-1	200
20543555	8384	289	0	-100	0	230	101300000	1000	0	0	-1	200
20556115	8370	287	0	-100	0	230	101300000	1000	0	0	-1	200
20568675	8379	290	0	-100	0	230	101300000	1000	0	0	-1	200
20581235	8382	287	0	-100	0	230	101300000	1000	0	0	-1	200
20593795	8374	285	0	-100	0	230	101300000	1000	0	0	-1	200
20606355	8377	287	0	-100	0	230	101300000	1000	0	0	-1	200
20618915	8381	288	0	-100	0	230	101300000	1000	0	0	-1	200
20631475	8381	290	0	-100	0	230	101300000	1000	0	0	-1	200
20644035	8377	287	0	-100	0	230	101300000	1000	0	0	-1	200
20656595	8381	287	0	-100	0	230	101300000	1000	0	0	-1	200
20669155	8376	291	0	-100	0	230	101300000	1000	0	0	-1	200
20681715	8381	291	0	-100	0	230	101300000	1000	0	0	-1	200
20694275	8379	288	0	-100	0	230	101300000	1000	0	0	-1	200
20706835	8377	285	0	-100	0	230	101300000	1000	0	0	-1	200
20719395	8372	284	0	-100	0	230	101300000	1000	0	0	-1	200
20731955	8376	290	0	-100	0	230	101300000	1000	0	0	-1	200
20744515	8382	285	0	-100	0	230	101300000	1000	0	0	-1	200
20757075	8377	285	0	-100	0	230	101300000	1000	0	0	-1	200
20769635	8379	290	0	-100	0	230	101300000	1000	0	0	-1	200
20782195	8377	288	0	-100	0	230	101300000	1000	0	0	-1	200
20794755	8381	286	0	-100	0	230	101300000	1000	0	0	-1	200
20807315	8376	288	0	-100	0	230	101300000	1000	0	0	-1	200
20819875	8384	283	0	-100	0	230	101300000	1000	0	0	-1	200
20832435	8374	288	0	-100	0	230	101300000	1000	0	0	-1	200
20844995	8376	284	0	-100	0	230	101300000	1000	0	0	-1	200
20857555	8379	285	0	-100	0	230	101300000	1000	0	0	-1	200
20870115	8379	285	0	-100	0	230	101300000	1000	0	0	-1	200
20882675	8377	284	0	-100	0	230	101300000	1000	0	0	-1	200
20895235	8370	285	0	-100	0	230	101300000	1000	0	0	-1	200
20907795	8374	288	0	-100	0	230	101300000	1000	0	0	-1	200
20920355	8379	289	0	-100	0	230	101300000	1000	0	0	-1	200
20932915	8382	289	0	-100	0	230	101300000	1000	0	0	-1	200
20945475	8382	289	0	-100	0	230	101300000	1000	0	0	-1	200
20958035	8377	285	0	-100	0	230	101300000	1000	0	0	-1	200
20970595	8370	286	0	-100	0	230	101300000	1000	0	0	-1	200
20983155	8381	293	0	-100	0	230	101300000	1000	0	0	-1	200
20995715	8382	288	0	-100	0	230	101300000	1000	0	0	-1	200
21008275	8379	286	0	-100	0	230	101300000	1000	0	0	-1	200
21020835	8372	285	0	-100	0	230	101300000	1000	0	0	-1	200
21033395	8377	291	0	-100	0	230	101300000	1000	0	0	-1	200
21045955	8369	289	0	-100	0	230	101300000	1000	0	0	-1	200
21058515	8381	284	0	-100	0	230	101300000	1000	0	0	-1	200
21071075	8379	286	0	-100	0	230	101300000	1000	0	0	-1	200
21083635	8374	290	0	-100	0	230	101300000	1000	0	0	-1	200
21096195	8381	286	0	-100	0	230	101300000	1000	0	0	-1	200
21108755	8384	287	0	-100	0	230	101300000	1000	0	0	-1	200
21121315	8372	288	0	-100	0	230	101300000	1000	0	0	-1	200
21133875	8374	291	0	-100	0	230	101300000	1000	0	0	-1	200
21146435	8382	289	0	-100	0	230	101300000	1000	0	0	-1	200
21158995	8377	287	0	-100	0	230	101300000	1000	0	0	-1	200
21171555	8372	290	0	-100	0	230	101300000	1000	0	0	-1	200
21184115	8376	287	0	-100	0	230	101300000	1000	0	0	-1	200
21196675	8381	286	0	-100	0	230	101300000	1000	0	0	-1	200
21209235	8377	290	0	-100	0	230	101300000	1000	0	0	-1	200
21221795	8377	291	0	-100	0	230	101300000	1000	0	0	-1	200
21234355	8376	290	0	-100	0	230	101300000	1000	0	0	-1	200
21246915	8379	283	0	-100	0	230	101300000	1000	0	0	-1	200
21259475	8374	288	0	-100	0	230	101300000	1000	0	0	-1	200
21272035	8372	288	0	-100	0	230	101300000	1000	0	0	-1	200
21284595	8384	285	0	-100	0	230	101300000	1000	0	0	-1	200
21297155	8379	287	0	-100	0	230	101300000	1000	0	0	-1	200
21309715	8376	290	0	-100	0	230	101300000	1000	0	0	-1	200
21322275	8388	288	0	-100	0	230	101300000	1000	0	0	-1	200
21334835	8381	286	0	-100	0	230	101300000	1000	0	0	-1	200
21347395	8372	289	0	-100	0	230	101300000	1000	0	0	-1	200
21359955	8372	290	0	-100	0	230	101300000	1000	0	0	-1	200
21372515	8379	286	0	-100	0	230	101300000	1000	0	0	-1	200
21385075	8384	283	0	-100	0	230	101300000	1000	0	0	-1	200
21397635	8381	284	0	-100	0	230	101300000	1000	0	0	-1	200
21410195	8377	290	0	-100	0	230	101300000	1000	0	0	-1	200
21422755	8374	286	0	-100	0	230	101300000	1000	0	0	-1	200
21435315	8382	282	0	-100	0	230	101300000	1000	0	0	-1	200
21447875	8379	285	0	-100	0	230	101300000	1000	0	0	-1	200
21460435	8372	287	0	-100	0	230	101300000	1000	0	0	-1	200
21472995	8370	286	0	-100	0	230	101300000	1000	0	0	-1	200
21485555	8377	290	0	-100	0	230	101300000	1000	0	0	-1	200
21498115	8374	291	0	-100	0	230	101300000	1000	0	0	-1	200
21510675	8391	286	0	-100	0	230	101300000	1000	0	0	-1	200
21523235	8377	287	0	-100	0	230	101300000	1000	0	0	-1	200
21535795	8374	288	0	-100	0	230	101300000	1000	0	0	-1	200
21548355	8374	288	0	-100	0	230	101300000	1000	0	0	-1	200
21560915	8384	283	0	-100	0	230	101300000	1000	0	0	-1	200
21573475	8374	286	0	-100	0	230	101300000	1000	0	0	-1	200
21586035	8374	287	0	-100	0	230	101300000	1000	0	0	-1	200
21598595	8381	286	0	-100	0	230	101300000	1000	0	0	-1	200
21611155	8377	292	0	-100	0	230	101300000	1000	0	0	-1	200
21623715	8386	288	0	-100	0	230	101300000	1000	0	0	-1	200
21636275	8379	286	0	-100	0	230	101300000	1000	0	0	-1	200
21648835	8376	290	0	-100	0	230	101300000	1000	0	0	-1	200
21661395	8388	288	0	-100	0	230	101300000	1000	0	0	-1	200
21673955	8379	285	0	-100	0	230	101300000	1000	0	0	-1	200
21686515	8379	290	0	-100	0	230	101300000	1000	0	0	-1	200
21699075	8374	290	0	-100	0	230	101300000	1000	0	0	-1	200
21711635	8381	285	0	-100	0	230	101300000	1000	0	0	-1	200
21724195	8379	283	0	-100	0	230	101300000	1000	0	0	-1	200
21736755	8377	289	0	-100	0	230	101300000	1000	0	0	-1	200
21749315	8381	289	0	-100	0	230	101300000	1000	0	0	-1	200
21761875	8377	286	0	-100	0	230	101300000	1000	0	0	-1	200
21774435	8374	285	0	-100	0	230	101300000	1000	0	0	-1	200
21786995	8379	287	0	-100	0	230	101300000	1000	0	0	-1	200
21799555	8384	287	0	-100	0	230	101300000	1000	0	0	-1	200
21812115	8374	285	0	-100	0	230	101300000	1000	0	0	-1	200
21824675	8374	289	0	-100	0	230	101300000	1000	0	0	-1	200
21837235	8379	283	0	-100	0	230	101300000	1000	0	0	-1	200
21849795	8379	286	0	-100	0	230	101300000	1000	0	0	-1	200
21862355	8370	288	0	-100	0	230	101300000	1000	0	0	-1	200
21874915	8372	291	0	-100	0	230	101300000	1000	0	0	-1	200
21887475	8381	290	0	-100	0	230	101300000	1000	0	0	-1	200
21900035	8386	285	0	-100	0	230	101300000	1000	0	0	-1	200
21912595	8372	287	0	-100	0	230	101300000	1000	0	0	-1	200
21925155	8376	290	0	-100	0	230	101300000	1000	0	0	-1	200
21937715	8379	285	0	-100	0	230	101300000	1000	0	0	-1	200
21950275	8377	287	0	-100	0	230	101300000	1000	0	0	-1	200
21962835	8376	288	0	-100	0	230	101300000	1000	0	0	-1	200
21975395	8379	281	0	-100	0	230	101300000	1000	0	0	-1	200
21987955	8376	287	0	-100	0	230	101300000	1000	0	0	-1	200
22000515	8377	290	0	-100	0	230	101300000	1000	0	0	-1	200
22013075	8374	285	0	-100	0	230	101300000	1000	0	0	-1	200
22025635	8374	292	0	-100	0	230	101300000	1000	0	0	-1	200
22038195	8379	287	0	-100	0	230	101300000	1000	0	0	-1	200
22050755	8377	291	0	-100	0	230	101300000	1000	0	0	-1	200
22063315	8389	288	0	-100	0	230	101300000	1000	0	0	-1	200
22075875	8367	289	0	-100	0	230	101300000	1000	0	0	-1	200
22088435	8381	287	0	-100	0	230	101300000	1000	0	0	-1	200
22100995	8379	289	0	-100	0	230	101300000	1000	0	0	-1	200
22113555	8377	293	0	-100	0	230	101300000	1000	0	0	-1	200
22126115	8379	285	0	-100	0	230	101300000	1000	0	0	-1	200
22138675	8374	289	0	-100	0	230	101300000	1000	0	0	-1	200
22151235	8374	287	0	-100	0	230	101300000	1000	0	0	-1	200
22163795	8384	286	0	-100	0	230	101300000	1000	0	0	-1	200
22176355	8379	288	0	-100	0	230	101300000	1000	0	0	-1	200
22188915	8372	289	0	-100	0	230	101300000	1000	0	0	-1	200
22201475	8382	283	0	-100	0	230	101300000	1000	0	0	-1	200
22214035	8374	287	0	-100	0	230	101300000	1000	0	0	-1	200
22226595	8372	274	0	-100	0	230	101300000	1000	0	0	-1	200
22239155	8381	287	0	-100	0	230	101300000	1000	0	0	-1	200
22251715	8377	282	0	-100	0	230	101300000	1000	0	0	-1	200
22264275	8372	287	0	-100	0	230	101300000	1000	0	0	-1	200
22276835	8376	289	0	-100	0	230	101300000	1000	0	0	-1	200
22289395	8382	287	0	-100	0	230	101300000	1000	0	0	-1	200
22301955	8372	284	0	-100	0	230	101300000	1000	0	0	-1	200
22314515	8372	292	0	-100	0	230	101300000	1000	0	0	-1	200
22327075	8379	286	0	-100	0	230	101300000	1000	0	0	-1	200
22339635	8386	286	0	-100	0	230	101300000	1000	0	0	-1	200
22352195	8370	288	0	-100	0	230	101300000	1000	0	0	-1	200
22364755	8379	290	0	-100	0	230	101300000	1000	0	0	-1	200
22377315	8379	286	0	-100	0	230	101300000	1000	0	0	-1	200
22389875	8374	289	0	-100	0	230	101300000	1000	0	0	-1	200
22402435	8376	288	0	-100	0	230	101300000	1000	0	0	-1	200
22414995	8384	288	0	-100	0	230	101300000	1000	0	0	-1	200
22427555	8377	291	0	-100	0	230	101300000	1000	0	0	-1	200
22440115	8372	290	0	-100	0	230	101300000	1000	0	0	-1	200
22452675	8386	288	0	-100	0	230	101300000	1000	0	0	-1	200
22465235	8377	286	0	-100	0	230	101300000	1000	0	0	-1	200
22477795	8369	285	0	-100	0	230	101300000	1000	0	0	-1	200
22490355	8379	285	0	-100	0	230	101300000	1000	0	0	-1	200
22502915	8372	285	0	-100	0	230	101300000	1000	0	0	-1	200
22515475	8379	289	0	-100	0	230	101300000	1000	0	0	-1	200
22528035	8382	287	0	-100	0	230	101300000	1000	0	0	-1	200
22540595	8377	289	0	-100	0	230	101300000	1000	0	0	-1	200
22553155	8374	290	0	-100	0	230	101300000	1000	0	0	-1	200
22565715	8379	284	0	-100	0	230	101300000	1000	0	0	-1	200
22578275	8374	288	0	-100	0	230	101300000	1000	0	0	-1	200
22590835	8376	290	0	-100	0	230	101300000	1000	0	0	-1	200
22603395	8379	285	0	-100	0	230	101300000	1000	0	0	-1	200
22615955	8381	286	0	-100	0	230	101300000	1000	0	0	-1	200
22628515	8383	287	0	-100	0	230	101300000	1000	0	0	-1	200
22641075	8377	286	0	-100	0	230	101300000	1000	0	0	-1	200
22653635	8381	286	0	-100	0	230	101300000	1000	0	0	-1	200
22666195	8377	290	0	-100	0	230	101300000	1000	0	0	-1	200
22678755	8376	289	0	-100	0	230	101300000	1000	0	0	-1	200
22691315	8374	287	0	-100	0	230	101300000	1000	0	0	-1	200
22703875	8377	285	0	-100	0	230	101300000	1000	0	0	-1	200
22716435	8374	286	0	-100	0	230	101300000	1000	0	0	-1	200
22728995	8372	290	0	-100	0	230	101300000	1000	0	0	-1	200
22741555	8372	289	0	-100	0	230	101300000	1000	0	0	-1	200
22754115	8376	286	0	-100	0	230	101300000	1000	0	0	-1	200
22766675	8384	287	0	-100	0	230	101300000	1000	0	0	-1	200
22779235	8379	284	0	-100	0	230	101300000	1000	0	0	-1	200
22791795	8370	289	0	-100	0	230	101300000	1000	0	0	-1	200
22804355	8372	289	0	-100	0	230	101300000	1000	0	0	-1	200
22816915	8379	273	0	-100	0	230	101300000	1000	0	0	-1	200
22829475	8379	285	0	-100	0	230	101300000	1000	0	0	-1	200
22842035	8374	288	0	-100	0	230	101300000	1000	0	0	-1	200
22854595	8377	291	0	-100	0	230	101300000	1000	0	0	-1	200
22867155	8369	289	0	-100	0	230	101300000	1000	0	0	-1	200
22879715	8384	289	0	-100	0	230	101300000	1000	0	0	-1	200
22892275	8381	284	0	-100	0	230	101300000	1000	0	0	-1	200
22904835	8377	285	0	-100	0	230	101300000	1000	0	0	-1	200
22917395	8374	283	0	-100	0	230	101300000	1000	0	0	-1	200
22929955	8370	287	0	-100	0	230	101300000	1000	0	0	-1	200
22942515	8374	290	0	-100	0	230	101300000	1000	0	0	-1	200
22955075	8384	286	0	-100	0	230	101300000	1000	0	0	-1	200
22967635	8386	289	0	-100	0	230	101300000	1000	0	0	-1	200
22980195	8374	285	0	-100	0	230	101300000	1000	0	0	-1	200
22992755	8370	286	0	-100	0	230	101300000	1000	0	0	-1	200
23005315	8379	289	0	-100	0	230	101300000	1000	0	0	-1	200
23017875	8389	287	0	-100	0	230	101300000	1000	0	0	-1	200
23030435	8381	285	0	-100	0	230	101300000	1000	0	0	-1	200
23042995	8374	289	0	-100	0	230	101300000	1000	0	0	-1	200
23055555	8381	290	0	-100	0	230	101300000	1000	0	0	-1	200
23068115	8386	291	0	-100	0	230	101300000	1000	0	0	-1	200
23080675	8381	286	0	-100	0	230	101300000	1000	0	0	-1	200
23093235	8377	287	0	-100	0	230	101300000	1000	0	0	-1	200
23105795	8369	288	0	-100	0	230	101300000	1000	0	0	-1	200
23118355	8374	293	0	-100	0	230	101300000	1000	0	0	-1	200
23130915	8379	289	0	-100	0	230	101300000	1000	0	0	-1	200
23143475	8379	287	0	-100	0	230	101300000	1000	0	0	-1	200
23156035	8372	283	0	-100	0	230	101300000	1000	0	0	-1	200
23168595	8372	290	0	-100	0	230	101300000	1000	0	0	-1	200
23181155	8384	286	0	-100	0	230	101300000	1000	0	0	-1	200
23193715	8374	289	0	-100	0	230	101300000	1000	0	0	-1	200
23206275	8376	287	0	-100	0	230	101300000	1000	0	0	-1	200
23218835	8377	285	0	-100	0	230	101300000	1000	0	0	-1	200
23231395	8384	287	0	-100	0	230	101300000	1000	0	0	-1	200
23243955	8370	288	0	-100	0	230	101300000	1000	0	0	-1	200
23256515	8376	290	0	-100	0	230	101300000	1000	0	0	-1	200
23269075	8379	285	0	-100	0	230	101300000	1000	0	0	-1	200
23281635	8372	284	0	-100	0	230	101300000	1000	0	0	-1	200
23294195	8374	292	0	-100	0	230	101300000	1000	0	0	-1	200
23306755	8381	286	0	-100	0	230	101300000	1000	0	0	-1	200
23319315	8377	288	0	-100	0	230	101300000	1000	0	0	-1	200
23331875	8379	288	0	-100	0	230	101300000	1000	0	0	-1	200
23344435	8379	288	0	-100	0	230	101300000	1000	0	0	-1	200
23356995	8377	285	0	-100	0	230	101300000	1000	0	0	-1	200
23369555	8372	288	0	-100	0	230	101300000	1000	0	0	-1	200
23382115	8379	289	0	-100	0	230	101300000	1000	0	0	-1	200
23394675	8379	285	0	-100	0	230	101300000	1000	0	0	-1	200
23407235	8379	284	0	-100	0	230	101300000	1000	0	0	-1	200
23419795	8372	291	0	-100	0	230	101300000	1000	0	0	-1	200
23432355	8379	290	0	-100	0	230	101300000	1000	0	0	-1	200
23444915	8386	287	0	-100	0	230	101300000	1000	0	0	-1	200
23457475	8379	285	0	-100	0	230	101300000	1000	0	0	-1	200
23470035	8379	289	0	-100	0	230	101300000	1000	0	0	-1	200
23482595	8379	286	0	-100	0	230	101300000	1000	0	0	-1	200
23495155	8384	287	0	-100	0	230	101300000	1000	0	0	-1	200
23507715	8376	283	0	-100	0	230	101300000	1000	0	0	-1	200
23520275	8372	282	0	-100	0	230	101300000	1000	0	0	-1	200
23532835	8376	290	0	-100	0	230	101300000	1000	0	0	-1	200
23545395	8381	286	0	-100	0	230	101300000	1000	0	0	-1	200
23557955	8384	287	0	-100	0	230	101300000	1000	0	0	-1	200
23570515	8379	289	0	-100	0	230	101300000	1000	0	0	-1	200
23583075	8379	286	0	-100	0	230	101300000	1000	0	0	-1	200
23595635	8374	283	0	-100	0	230	101300000	1000	0	0	-1	200
23608195	8374	284	0	-100	0	230	101300000	1000	0	0	-1	200
23620755	8372	291	0	-100	0	230	101300000	1000	0	0	-1	200
23633315	8384	284	0	-100	0	230	101300000	1000	0	0	-1	200
23645875	8370	287	0	-100	0	230	101300000	1000	0	0	-1	200
23658435	8377	291	0	-100	0	230	101300000	1000	0	0	-1	200
23670995	8377	289	0	-100	0	230	101300000	1000	0	0	-1	200
23683555	8372	285	0	-100	0	230	101300000	1000	0	0	-1	200
23696115	8377	289	0	-100	0	230	101300000	1000	0	0	-1	200
23708675	8377	286	0	-100	0	230	101300000	1000	0	0	-1	200
23721235	8379	287	0	-100	0	230	101300000	1000	0	0	-1	200
23733795	8374	289	0	-100	0	230	101300000	1000	0	0	-1	200
23746355	8374	288	0	-100	0	230	101300000	1000	0	0	-1	200
23758915	8377	285	0	-100	0	230	101300000	1000	0	0	-1	200
23771475	8372	287	0	-100	0	230	101300000	1000	0	0	-1	200
23784035	8374	289	0	-100	0	230	101300000	1000	0	0	-1	200
23796595	8381	286	0	-100	0	230	101300000	1000	0	0	-1	200
23809155	8379	287	0	-100	0	230	101300000	1000	0	0	-1	200
23821715	8367	286	0	-100	0	230	101300000	1000	0	0	-1	200
23834275	8376	288	0	-100	0	230	101300000	1000	0	0	-1	200
23846835	8384	288	0	-100	0	230	101300000	1000	0	0	-1	200
23859395	8377	287	0	-100	0	230	101300000	1000	0	0	-1	200
23871955	8379	286	0	-100	0	230	101300000	1000	0	0	-1	200
23884515	8379	286	0	-100	0	230	101300000	1000	0	0	-1	200
23897075	8381	291	0	-100	0	230	101300000	1000	0	0	-1	200
23909635	8386	287	0	-100	0	230	101300000	1000	0	0	-1	200
23922195	8384	287	0	-100	0	230	101300000	1000	0	0	-1	200
23934755	8379	290	0	-100	0	230	101300000	1000	0	0	-1	200
23947315	8379	290	0	-100	0	230	101300000	1000	0	0	-1	200
23959875	8374	294	0	-100	0	230	101300000	1000	0	0	-1	200
23972435	8379	289	0	-100	0	230	101300000	1000	0	0	-1	200
23984995	8389	290	0	-100	0	230	101300000	1000	0	0	-1	200
23997555	8379	283	0	-100	0	230	101300000	1000	0	0	-1	200
24010115	8384	286	0	-100	0	230	101300000	1000	0	0	-1	200
24022675	8379	285	0	-100	0	230	101300000	1000	0	0	-1	200
24035235	8384	287	0	-100	0	230	101300000	1000	0	0	-1	200
24047795	8381	286	0	-100	0	230	101300000	1000	0	0	-1	200
24060355	8377	287	0	-100	0	230	101300000	1000	0	0	-1	200
24072915	8374	289	0	-100	0	230	101300000	1000	0	0	-1	200
24085475	8377	287	0	-100	0	230	101300000	1000	0	0	-1	200
24098035	8372	288	0	-100	0	230	101300000	1000	0	0	-1	200
24110595	8381	288	0	-100	0	230	101300000	1000	0	0	-1	200
24123155	8379	287	0	-100	0	230	101300000	1000	0	0	-1	200
24135715	8377	285	0	-100	0	230	101300000	1000	0	0	-1	200
24148275	8376	285	0	-100	0	230	101300000	1000	0	0	-1	200
24160835	8374	289	0	-100	0	230	101300000	1000	0	0	-1	200
24173395	8381	293	0	-100	0	230	101300000	1000	0	0	-1	200
24185955	8374	286	0	-100	0	230	101300000	1000	0	0	-1	200
24198515	8379	287	0	-100	0	230	101300000	1000	0	0	-1	200
24211075	8384	286	0	-100	0	230	101300000	1000	0	0	-1	200
24223635	8379	286	0	-100	0	230	101300000	1000	0	0	-1	200
24236195	8379	284	0	-100	0	230	101300000	1000	0	0	-1	200
24248755	8374	283	0	-100	0	230	101300000	1000	0	0	-1	200
24261315	8372	289	0	-100	0	230	101300000	1000	0	0	-1	200
24273875	8372	286	0	-100	0	230	101300000	1000	0	0	-1	200
24286435	8374	279	0	-100	0	230	101300000	1000	0	0	-1	200
24298995	8372	286	0	-100	0	230	101300000	1000	0	0	-1	200
24311555	8374	290	0	-100	0	230	101300000	1000	0	0	-1	200
24324115	8379	290	0	-100	0	230	101300000	1000	0	0	-1	200
24336675	8374	289	0	-100	0	230	101300000	1000	0	0	-1	200
24349235	8379	287	0	-100	0	230	101300000	1000	0	0	-1	200
24361795	8382	289	0	-100	0	230	101300000	1000	0	0	-1	200
24374355	8382	285	0	-100	0	230	101300000	1000	0	0	-1	200
24386915	8384	286	0	-100	0	230	101300000	1000	0	0	-1	200
24399475	8384	284	0	-100	0	230	101300000	1000	0	0	-1	200
24412035	8375	287	0	-100	0	230	101300000	1000	0	0	-1	200
24424595	8379	286	0	-100	0	230	101300000	1000	0	0	-1	200
24437155	8381	287	0	-100	0	230	101300000	1000	0	0	-1	200
24449715	8374	292	0	-100	0	230	101300000	1000	0	0	-1	200
24462275	8372	287	0	-100	0	230	101300000	1000	0	0	-1	200
24474835	8374	287	0	-100	0	230	101300000	1000	0	0	-1	200
24487395	8376	288	0	-100	0	230	101300000	1000	0	0	-1	200
24499955	8381	288	0	-100	0	230	101300000	1000	0	0	-1	200
24512515	8381	286	0	-100	0	230	101300000	1000	0	0	-1	200
24525075	8384	287	0	-100	0	230	101300000	1000	0	0	-1	200
24537635	8372	287	0	-100	0	230	101300000	1000	0	0	-1	200
24550195	8379	290	0	-100	0	230	101300000	1000	0	0	-1	200
24562755	8384	284	0	-100	0	230	101300000	1000	0	0	-1	200
24575315	8381	285	0	-100	0	230	101300000	1000	0	0	-1	200
24587875	8377	292	0	-100	0	230	101300000	1000	0	0	-1	200
24600435	8379	290	0	-100	0	230	101300000	1000	0	0	-1	200
24612995	8379	290	0	-100	0	230	101300000	1000	0	0	-1	200
24625555	8381	286	0	-100	0	230	101300000	1000	0	0	-1	200
24638115	8372	286	0	-100	0	230	101300000	1000	0	0	-1	200
24650675	8381	291	0	-100	0	230	101300000	1000	0	0	-1	200
24663235	8372	289	0	-100	0	230	101300000	1000	0	0	-1	200
24675795	8381	285	0	-100	0	230	101300000	1000	0	0	-1	200
24688355	8384	290	0	-100	0	230	101300000	1000	0	0	-1	200
24700915	8379	288	0	-100	0	230	101300000	1000	0	0	-1	200
24713475	8379	284	0	-100	0	230	101300000	1000	0	0	-1	200
24726035	8377	288	0	-100	0	230	101300000	1000	0	0	-1	200
24738595	8379	290	0	-100	0	230	101300000	1000	0	0	-1	200
24751155	8374	288	0	-100	0	230	101300000	1000	0	0	-1	200
24763715	8379	282	0	-100	0	230	101300000	1000	0	0	-1	200
24776275	8384	288	0	-100	0	230	101300000	1000	0	0	-1	200
24788835	8379	286	0	-100	0	230	101300000	1000	0	0	-1	200
24801395	8377	288	0	-100	0	230	101300000	1000	0	0	-1	200
24813955	8381	286	0	-100	0	230	101300000	1000	0	0	-1	200
24826515	8379	286	0	-100	0	230	101300000	1000	0	0	-1	200
24839075	8379	286	0	-100	0	230	101300000	1000	0	0	-1	200
24851635	8379	287	0	-100	0	230	101300000	1000	0	0	-1	200
24864195	8374	285	0	-100	0	230	101300000	1000	0	0	-1	200
24876755	8374	290	0	-100	0	230	101300000	1000	0	0	-1	200
24889315	8376	291	0	-100	0	230	101300000	1000	0	0	-1	200
24901875	8374	286	0	-100	0	230	101300000	1000	0	0	-1	200
24914435	8377	290	0	-100	0	230	101300000	1000	0	0	-1	200
24926995	8374	287	0	-100	0	230	101300000	1000	0	0	-1	200
24939555	8377	287	0	-100	0	230	101300000	1000	0	0	-1	200
24952115	8379	284	0	-100	0	230	101300000	1000	0	0	-1	200
24964675	8379	282	0	-100	0	230	101300000	1000	0	0	-1	200
24977235	8379	284	0	-100	0	230	101300000	1000	0	0	-1	200
24989795	8372	284	0	-100	0	230	101300000	1000	0	0	-1	200
25002355	8372	285	0	-100	0	230	101300000	1000	0	0	-1	200
25014915	8377	286	0	-100	0	230	101300000	1000	0	0	-1	200
25027475	8377	286	0	-100	0	230	101300000	1000	0	0	-1	200
25040035	8369	289	0	-100	0	230	101300000	1000	0	0	-1	200
25052595	8372	289	0	-100	0	230	101300000	1000	0	0	-1	200
25065155	8374	289	0	-100	0	230	101300000	1000	0	0	-1	200
25077715	8377	290	0	-100	0	230	101300000	1000	0	0	-1	200
25090275	8379	291	0	-100	0	230	101300000	1000	0	0	-1	200
25102835	8381	288	0	-100	0	230	101300000	1000	0	0	-1	200
25115395	8384	282	0	-100	0	230	101300000	1000	0	0	-1	200
25127955	8377	286	0	-100	0	230	101300000	1000	0	0	-1	200
25140515	8379	291	0	-100	0	230	101300000	1000	0	0	-1	200
25153075	8381	288	0	-100	0	230	101300000	1000	0	0	-1	200
25165635	8379	283	0	-100	0	230	101300000	1000	0	0	-1	200
25178195	8377	287	0	-100	0	230	101300000	1000	0	0	-1	200
25190755	8374	286	0	-100	0	230	101300000	1000	0	0	-1	200
25203315	8375	285	0	-100	0	230	101300000	1000	0	0	-1	200
25215875	8374	286	0	-100	0	230	101300000	1000	0	0	-1	200
25228435	8374	290	0	-100	0	230	101300000	1000	0	0	-1	200
25240995	8384	290	0	-100	0	230	101300000	1000	0	0	-1	200
25253555	8370	284	0	-100	0	230	101300000	1000	0	0	-1	200
25266115	8381	290	0	-100	0	230	101300000	1000	0	0	-1	200
25278675	8386	290	0	-100	0	230	101300000	1000	0	0	-1	200
25291235	8377	284	0	-100	0	230	101300000	1000	0	0	-1	200
25303795	8379	288	0	-100	0	230	101300000	1000	0	0	-1	200
25316355	8379	287	0	-100	0	230	101300000	1000	0	0	-1	200
25328915	8386	285	0	-100	0	230	101300000	1000	0	0	-1	200
25341475	8379	284	0	-100	0	230	101300000	1000	0	0	-1	200
25354035	8381	291	0	-100	0	230	101300000	1000	0	0	-1	200
25366595	8381	284	0	-100	0	230	101300000	1000	0	0	-1	200
25379155	8386	288	0	-100	0	230	101300000	1000	0	0	-1	200
25391715	8379	290	0	-100	0	230	101300000	1000	0	0	-1	200
25404275	8376	290	0	-100	0	230	101300000	1000	0	0	-1	200
25416835	8386	290	0	-100	0	230	101300000	1000	0	0	-1	200
25429395	8377	285	0	-100	0	230	101300000	1000	0	0	-1	200
25441955	8377	291	0	-100	0	230	101300000	1000	0	0	-1	200
25454515	8372	289	0	-100	0	230	101300000	1000	0	0	-1	200
25467075	8377	283	0	-100	0	230	101300000	1000	0	0	-1	200
25479635	8384	287	0	-100	0	230	101300000	1000	0	0	-1	200
25492195	8374	289	0	-100	0	230	101300000	1000	0	0	-1	200
25504755	8376	290	0	-100	0	230	101300000	1000	0	0	-1	200
25517315	8377	287	0	-100	0	230	101300000	1000	0	0	-1	200
25529875	8379	287	0	-100	0	230	101300000	1000	0	0	-1	200
25542435	8372	286	0	-100	0	230	101300000	1000	0	0	-1	200
25554995	8374	290	0	-100	0	230	101300000	1000	0	0	-1	200
25567555	8377	285	0	-100	0	230	101300000	1000	0	0	-1	200
25580115	8377	289	0	-100	0	230	101300000	1000	0	0	-1	200
25592675	8377	292	0	-100	0	230	101300000	1000	0	0	-1	200
25605235	8381	285	0	-100	0	230	101300000	1000	0	0	-1	200
25617795	8384	286	0	-100	0	230	101300000	1000	0	0	-1	200
25630355	8370	285	0	-100	0	230	101300000	1000	0	0	-1	200
25642915	8372	289	0	-100	0	230	101300000	1000	0	0	-1	200
25655475	8379	288	0	-100	0	230	101300000	1000	0	0	-1	200
25668035	8374	289	0	-100	0	230	101300000	1000	0	0	-1	200
25680595	8381	288	0	-100	0	230	101300000	1000	0	0	-1	200
25693155	8388	291	0	-100	0	230	101300000	1000	0	0	-1	200
25705715	8374	285	0	-100	0	230	101300000	1000	0	0	-1	200
25718275	8376	290	0	-100	0	230	101300000	1000	0	0	-1	200
25730835	8379	283	0	-100	0	230	101300000	1000	0	0	-1	200
25743395	8367	284	0	-100	0	230	101300000	1000	0	0	-1	200
25755955	8381	285	0	-100	0	230	101300000	1000	0	0	-1	200
25768515	8379	286	0	-100	0	230	101300000	1000	0	0	-1	200
25781075	8376	282	0	-100	0	230	101300000	1000	0	0	-1	200
25793635	8381	286	0	-100	0	230	101300000	1000	0	0	-1	200
25806195	8376	289	0	-100	0	230	101300000	1000	0	0	-1	200
25818755	8381	285	0	-100	0	230	101300000	1000	0	0	-1	200
25831315	8374	288	0	-100	0	230	101300000	1000	0	0	-1	200
25843875	8379	286	0	-100	0	230	101300000	1000	0	0	-1	200
25856435	8376	287	0	-100	0	230	101300000	1000	0	0	-1	200
25868995	8379	285	0	-100	0	230	101300000	1000	0	0	-1	200
25881555	8379	290	0	-100	0	230	101300000	1000	0	0	-1	200
25894115	8379	287	0	-100	0	230	101300000	1000	0	0	-1	200
25906675	8381	284	0	-100	0	230	101300000	1000	0	0	-1	200
25919235	8372	288	0	-100	0	230	101300000	1000	0	0	-1	200
25931795	8379	290	0	-100	0	230	101300000	1000	0	0	-1	200
25944355	8386	288	0	-100	0	230	101300000	1000	0	0	-1	200
25956915	8377	285	0	-100	0	230	101300000	1000	0	0	-1	200
25969475	8372	285	0	-100	0	230	101300000	1000	0	0	-1	200
25982035	8370	286	0	-100	0	230	101300000	1000	0	0	-1	200
25994595	8379	291	0	-100	0	230	101300000	1000	0	0	-1	200
26007155	8376	288	0	-100	0	230	101300000	1000	0	0	-1	200
26019715	8381	285	0	-100	0	230	101300000	1000	0	0	-1	200
26032275	8381	284	0	-100	0	230	101300000	1000	0	0	-1	200
26044835	8374	287	0	-100	0	230	101300000	1000	0	0	-1	200
26057395	8376	287	0	-100	0	230	101300000	1000	0	0	-1	200
26069955	8379	288	0	-100	0	230	101300000	1000	0	0	-1	200
26082515	8384	285	0	-100	0	230	101300000	1000	0	0	-1	200
26095075	8374	292	0	-100	0	230	101300000	1000	0	0	-1	200
26107635	8382	289	0	-100	0	230	101300000	1000	0	0	-1	200
26120195	8384	286	0	-100	0	230	101300000	1000	0	0	-1	200
26132755	8374	292	0	-100	0	230	101300000	1000	0	0	-1	200
26145315	8383	287	0	-100	0	230	101300000	1000	0	0	-1	200
26157875	8381	287	0	-100	0	230	101300000	1000	0	0	-1	200
26170435	8374	288	0	-100	0	230	101300000	1000	0	0	-1	200
26182995	8377	289	0	-100	0	230	101300000	1000	0	0	-1	200
26195555	8377	285	0	-100	0	230	101300000	1000	0	0	-1	200
26208115	8372	289	0	-100	0	230	101300000	1000	0	0	-1	200
26220675	8374	288	0	-100	0	230	101300000	1000	0	0	-1	200
26233235	8374	287	0	-100	0	230	101300000	1000	0	0	-1	200
26245795	8383	286	0	-100	0	230	101300000	1000	0	0	-1	200
26258355	8379	287	0	-100	0	230	101300000	1000	0	0	-1	200
26270915	8376	290	0	-100	0	230	101300000	1000	0	0	-1	200
26283475	8381	291	0	-100	0	230	101300000	1000	0	0	-1	200
26296035	8386	286	0	-100	0	230	101300000	1000	0	0	-1	200
26308595	8381	288	0	-100	0	230	101300000	1000	0	0	-1	200
26321155	8379	283	0	-100	0	230	101300000	1000	0	0	-1	200
26333715	8381	288	0	-100	0	230	101300000	1000	0	0	-1	200
26346275	8374	286	0	-100	0	230	101300000	1000	0	0	-1	200
26358835	8379	286	0	-100	0	230	101300000	1000	0	0	-1	200
26371395	8386	289	0	-100	0	230	101300000	1000	0	0	-1	200
26383955	8379	285	0	-100	0	230	101300000	1000	0	0	-1	200
26396515	8379	285	0	-100	0	230	101300000	1000	0	0	-1	200
26409075	8374	282	0	-100	0	230	101300000	1000	0	0	-1	200
26421635	8374	290	0	-100	0	230	101300000	1000	0	0	-1	200
26434195	8369	289	0	-100	0	230	101300000	1000	0	0	-1	200
26446755	8374	287	0	-100	0	230	101300000	1000	0	0	-1	200
26459315	8384	287	0	-100	0	230	101300000	1000	0	0	-1	200
26471875	8379	285	0	-100	0	230	101300000	1000	0	0	-1	200
26484435	8379	286	0	-100	0	230	101300000	1000	0	0	-1	200
26496995	8374	280	0	-100	0	230	101300000	1000	0	0	-1	200
26509555	8377	290	0	-100	0	230	101300000	1000	0	0	-1	200
26522115	8372	292	0	-100	0	230	101300000	1000	0	0	-1	200
26534675	8388	288	0	-100	0	230	101300000	1000	0	0	-1	200
26547235	8382	286	0	-100	0	230	101300000	1000	0	0	-1	200
26559795	8376	290	0	-100	0	230	101300000	1000	0	0	-1	200
26572355	8381	291	0	-100	0	230	101300000	1000	0	0	-1	200
26584915	8381	288	0	-100	0	230	101300000	1000	0	0	-1	200
26597475	8381	286	0	-100	0	230	101300000	1000	0	0	-1	200
26610035	8374	286	0	-100	0	230	101300000	1000	0	0	-1	200
26622595	8379	290	0	-100	0	230	101300000	1000	0	0	-1	200
26635155	8381	292	0	-100	0	230	101300000	1000	0	0	-1	200
26647715	8379	289	0	-100	0	230	101300000	1000	0	0	-1	200
26660275	8381	284	0	-100	0	230	101300000	1000	0	0	-1	200
26672835	8382	283	0	-100	0	230	101300000	1000	0	0	-1	200
26685395	8379	285	0	-100	0	230	101300000	1000	0	0	-1	200
26697955	8374	289	0	-100	0	230	101300000	1000	0	0	-1	200
26710515	8377	291	0	-100	0	230	101300000	1000	0	0	-1	200
26723075	8379	290	0	-100	0	230	101300000	1000	0	0	-1	200
26735635	8374	283	0	-100	0	230	101300000	1000	0	0	-1	200
26748195	8377	285	0	-100	0	230	101300000	1000	0	0	-1	200
26760755	8377	286	0	-100	0	230	101300000	1000	0	0	-1	200
26773315	8374	288	0	-100	0	230	101300000	1000	0	0	-1	200
26785875	8376	290	0	-100	0	230	101300000	1000	0	0	-1	200
26798435	8379	290	0	-100	0	230	101300000	1000	0	0	-1	200
26810995	8381	291	0	-100	0	230	101300000	1000	0	0	-1	200
26823555	8377	287	0	-100	0	230	101300000	1000	0	0	-1	200
26836115	8370	285	0	-100	0	230	101300000	1000	0	0	-1	200
26848675	8376	290	0	-100	0	230	101300000	1000	0	0	-1	200
26861235	8381	281	0	-100	0	230	101300000	1000	0	0	-1	200
26873795	8377	284	0	-100	0	230	101300000	1000	0	0	-1	200
26886355	8377	292	0	-100	0	230	101300000	1000	0	0	-1	200
26898915	8379	291	0	-100	0	230	101300000	1000	0	0	-1	200
26911475	8382	285	0	-100	0	230	101300000	1000	0	0	-1	200
26924035	8379	286	0	-100	0	230	101300000	1000	0	0	-1	200
26936595	8379	289	0	-100	0	230	101300000	1000	0	0	-1	200
26949155	8379	290	0	-100	0	230	101300000	1000	0	0	-1	200
26961715	8376	290	0	-100	0	230	101300000	1000	0	0	-1	200
26974275	8386	286	0	-100	0	230	101300000	1000	0	0	-1	200
26986835	8386	286	0	-100	0	230	101300000	1000	0	0	-1	200
26999395	8381	286	0	-100	0	230	101300000	1000	0	0	-1	200
27011955	8379	287	0	-100	0	230	101300000	1000	0	0	-1	200
27024515	8379	289	0	-100	0	230	101300000	1000	0	0	-1	200
27037075	8379	286	0	-100	0	230	101300000	1000	0	0	-1	200
27049635	8379	285	0	-100	0	230	101300000	1000	0	0	-1	200
