timestamp	voltage	current	windSpeed	pitchAngle	rpm	temperature	ambientPressure	humidity	accelerationX	accelerationY	accelerationZ	currentSink
7039070	8517	3	0	-100	0	230	101300000	1000	0	0	-1	0
7046523	8519	0	0	-100	0	230	101300000	1000	0	0	-1	0
7059083	8517	4	0	-100	0	230	101300000	1000	0	0	-1	0
7071643	8524	0	0	-100	0	230	101300000	1000	0	0	-1	0
7084203	8522	0	0	-100	0	230	101300000	1000	0	0	-1	0
7096763	8522	0	0	-100	0	230	101300000	1000	0	0	-1	0
7109323	8519	1	0	-100	0	230	101300000	1000	0	0	-1	0
7121883	8517	2	0	-100	0	230	101300000	1000	0	0	-1	0
7134443	8527	0	0	-100	0	230	101300000	1000	0	0	-1	0
7147004	8524	0	0	-100	0	230	101300000	1000	0	0	-1	0
7159563	8517	1	0	-100	0	230	101300000	1000	0	0	-1	0
7172123	8519	1	0	-100	0	230	101300000	1000	0	0	-1	0
7184683	8524	0	0	-100	0	230	101300000	1000	0	0	-1	0
7197243	8519	0	0	-100	0	230	101300000	1000	0	0	-1	0
7209803	8519	4	0	-100	0	230	101300000	1000	0	0	-1	0
7222363	8527	0	0	-100	0	230	101300000	1000	0	0	-1	0
7234923	8519	0	0	-100	0	230	101300000	1000	0	0	-1	0
7247483	8517	2	0	-100	0	230	101300000	1000	0	0	-1	0
7260043	8524	0	0	-100	0	230	101300000	1000	0	0	-1	0
7272603	8517	0	0	-100	0	230	101300000	1000	0	0	-1	0
7285163	8524	4	0	-100	0	230	101300000	1000	0	0	-1	0
7297723	8524	0	0	-100	0	230	101300000	1000	0	0	-1	0
7310283	8520	0	0	-100	0	230	101300000	1000	0	0	-1	0
7322843	8515	0	0	-100	0	230	101300000	1000	0	0	-1	0
7335403	8522	5	0	-100	0	230	101300000	1000	0	0	-1	0
7347963	8520	0	0	-100	0	230	101300000	1000	0	0	-1	0
7693675	8337	354	0	-100	0	230	101300000	1000	0	0	-1	255
7706235	8340	355	0	-100	0	230	101300000	1000	0	0	-1	255
7718795	8349	359	0	-100	0	230	101300000	1000	0	0	-1	255
7731355	8340	353	0	-100	0	230	101300000	1000	0	0	-1	255
7743915	8336	350	0	-100	0	230	101300000	1000	0	0	-1	255
7756475	8340	356	0	-100	0	230	101300000	1000	0	0	-1	255
7769035	8333	353	0	-100	0	230	101300000	1000	0	0	-1	255
7781595	8333	357	0	-100	0	230	101300000	1000	0	0	-1	255
7794155	8347	354	0	-100	0	230	101300000	1000	0	0	-1	255
7806715	8335	358	0	-100	0	230	101300000	1000	0	0	-1	255
7819275	8335	361	0	-100	0	230	101300000	1000	0	0	-1	255
7831835	8335	357	0	-100	0	230	101300000	1000	0	0	-1	255
7844395	8340	354	0	-100	0	230	101300000	1000	0	0	-1	255
7856955	8340	357	0	-100	0	230	101300000	1000	0	0	-1	255
7869515	8338	353	0	-100	0	230	101300000	1000	0	0	-1	255
7882075	8338	353	0	-100	0	230	101300000	1000	0	0	-1	255
7894635	8331	357	0	-100	0	230	101300000	1000	0	0	-1	255
7907195	8338	358	0	-100	0	230	101300000	1000	0	0	-1	255
7919755	8337	357	0	-100	0	230	101300000	1000	0	0	-1	255
7932315	8340	353	0	-100	0	230	101300000	1000	0	0	-1	255
7944875	8338	353	0	-100	0	230	101300000	1000	0	0	-1	255
7957435	8345	354	0	-100	0	230	101300000	1000	0	0	-1	255
7969995	8328	355	0	-100	0	230	101300000	1000	0	0	-1	255
7982555	8333	355	0	-100	0	230	101300000	1000	0	0	-1	255
7995115	8333	358	0	-100	0	230	101300000	1000	0	0	-1	255
8007675	8337	358	0	-100	0	230	101300000	1000	0	0	-1	255
8020235	8333	358	0	-100	0	230	101300000	1000	0	0	-1	255
8032795	8330	357	0	-100	0	230	101300000	1000	0	0	-1	255
8045355	8340	353	0	-100	0	230	101300000	1000	0	0	-1	255
8057915	8343	353	0	-100	0	230	101300000	1000	0	0	-1	255
8070475	8340	357	0	-100	0	230	101300000	1000	0	0	-1	255
8083035	8345	353	0	-100	0	230	101300000	1000	0	0	-1	255
8095595	8333	357	0	-100	0	230	101300000	1000	0	0	-1	255
8108155	8349	356	0	-100	0	230	101300000	1000	0	0	-1	255
8120715	8335	358	0	-100	0	230	101300000	1000	0	0	-1	255
8133275	8333	358	0	-100	0	230	101300000	1000	0	0	-1	255
8145835	8333	355	0	-100	0	230	101300000	1000	0	0	-1	255
8158395	8337	356	0	-100	0	230	101300000	1000	0	0	-1	255
8170955	8335	354	0	-100	0	230	101300000	1000	0	0	-1	255
8183515	8342	354	0	-100	0	230	101300000	1000	0	0	-1	255
8196075	8342	357	0	-100	0	230	101300000	1000	0	0	-1	255
8208635	8342	354	0	-100	0	230	101300000	1000	0	0	-1	255
8221195	8342	354	0	-100	0	230	101300000	1000	0	0	-1	255
8233755	8340	357	0	-100	0	230	101300000	1000	0	0	-1	255
8246315	8338	357	0	-100	0	230	101300000	1000	0	0	-1	255
8258875	8337	356	0	-100	0	230	101300000	1000	0	0	-1	255
8271435	8335	357	0	-100	0	230	101300000	1000	0	0	-1	255
8283995	8337	358	0	-100	0	230	101300000	1000	0	0	-1	255
8296555	8338	359	0	-100	0	230	101300000	1000	0	0	-1	255
8309115	8337	357	0	-100	0	230	101300000	1000	0	0	-1	255
8321675	8335	356	0	-100	0	230	101300000	1000	0	0	-1	255
8334235	8342	355	0	-100	0	230	101300000	1000	0	0	-1	255
8346795	8345	357	0	-100	0	230	101300000	1000	0	0	-1	255
8359355	8343	353	0	-100	0	230	101300000	1000	0	0	-1	255
8371915	8343	356	0	-100	0	230	101300000	1000	0	0	-1	255
8384475	8345	356	0	-100	0	230	101300000	1000	0	0	-1	255
8397035	8335	355	0	-100	0	230	101300000	1000	0	0	-1	255
8409595	8340	355	0	-100	0	230	101300000	1000	0	0	-1	255
8422155	8345	357	0	-100	0	230	101300000	1000	0	0	-1	255
8434715	8340	360	0	-100	0	230	101300000	1000	0	0	-1	255
8447275	8335	359	0	-100	0	230	101300000	1000	0	0	-1	255
8459835	8335	357	0	-100	0	230	101300000	1000	0	0	-1	255
8472395	8336	356	0	-100	0	230	101300000	1000	0	0	-1	255
8484955	8338	353	0	-100	0	230	101300000	1000	0	0	-1	255
8497515	8340	354	0	-100	0	230	101300000	1000	0	0	-1	255
8510075	8340	353	0	-100	0	230	101300000	1000	0	0	-1	255
8522635	8336	357	0	-100	0	230	101300000	1000	0	0	-1	255
8535195	8338	357	0	-100	0	230	101300000	1000	0	0	-1	255
8547755	8338	357	0	-100	0	230	101300000	1000	0	0	-1	255
8560315	8338	358	0	-100	0	230	101300000	1000	0	0	-1	255
8572875	8345	357	0	-100	0	230	101300000	1000	0	0	-1	255
8585435	8343	353	0	-100	0	230	101300000	1000	0	0	-1	255
8597995	8340	361	0	-100	0	230	101300000	1000	0	0	-1	255
8610555	8342	358	0	-100	0	230	101300000	1000	0	0	-1	255
8623115	8337	356	0	-100	0	230	101300000	1000	0	0	-1	255
8635675	8337	361	0	-100	0	230	101300000	1000	0	0	-1	255
8648235	8340	347	0	-100	0	230	101300000	1000	0	0	-1	255
8660795	8337	361	0	-100	0	230	101300000	1000	0	0	-1	255
8673355	8335	360	0	-100	0	230	101300000	1000	0	0	-1	255
8685915	8338	359	0	-100	0	230	101300000	1000	0	0	-1	255
8698475	8337	357	0	-100	0	230	101300000	1000	0	0	-1	255
8711035	8345	358	0	-100	0	230	101300000	1000	0	0	-1	255
8723595	8343	353	0	-100	0	230	101300000	1000	0	0	-1	255
8736155	8347	357	0	-100	0	230	101300000	1000	0	0	-1	255
8748715	8342	358	0	-100	0	230	101300000	1000	0	0	-1	255
8761275	8338	353	0	-100	0	230	101300000	1000	0	0	-1	255
8773835	8338	357	0	-100	0	230	101300000	1000	0	0	-1	255
8786395	8335	359	0	-100	0	230	101300000	1000	0	0	-1	255
8798955	8335	357	0	-100	0	230	101300000	1000	0	0	-1	255
8811515	8340	349	0	-100	0	230	101300000	1000	0	0	-1	255
8824075	8340	358	0	-100	0	230	101300000	1000	0	0	-1	255
8836635	8347	357	0	-100	0	230	101300000	1000	0	0	-1	255
8849195	8340	356	0	-100	0	230	101300000	1000	0	0	-1	255
8861755	8335	358	0	-100	0	230	101300000	1000	0	0	-1	255
8874315	8340	362	0	-100	0	230	101300000	1000	0	0	-1	255
8886875	8337	360	0	-100	0	230	101300000	1000	0	0	-1	255
8899435	8335	358	0	-100	0	230	101300000	1000	0	0	-1	255
8911995	8342	355	0	-100	0	230	101300000	1000	0	0	-1	255
8924555	8345	358	0	-100	0	230	101300000	1000	0	0	-1	255
8937115	8342	356	0	-100	0	230	101300000	1000	0	0	-1	255
8949675	8340	353	0	-100	0	230	101300000	1000	0	0	-1	255
8962235	8333	354	0	-100	0	230	101300000	1000	0	0	-1	255
8974795	8331	359	0	-100	0	230	101300000	1000	0	0	-1	255
8987355	8338	355	0	-100	0	230	101300000	1000	0	0	-1	255
8999915	8340	355	0	-100	0	230	101300000	1000	0	0	-1	255
9012475	8345	359	0	-100	0	230	101300000	1000	0	0	-1	255
9025035	8340	358	0	-100	0	230	101300000	1000	0	0	-1	255
9037595	8335	357	0	-100	0	230	101300000	1000	0	0	-1	255
9050155	8349	360	0	-100	0	230	101300000	1000	0	0	-1	255
9062715	8338	362	0	-100	0	230	101300000	1000	0	0	-1	255
9075275	8331	358	0	-100	0	230	101300000	1000	0	0	-1	255
9087835	8333	358	0	-100	0	230	101300000	1000	0	0	-1	255
9100395	8342	354	0	-100	0	230	101300000	1000	0	0	-1	255
9112955	8342	357	0	-100	0	230	101300000	1000	0	0	-1	255
9125515	8343	354	0	-100	0	230	101300000	1000	0	0	-1	255
9138075	8343	358	0	-100	0	230	101300000	1000	0	0	-1	255
9150635	8350	360	0	-100	0	230	101300000	1000	0	0	-1	255
9163195	8347	358	0	-100	0	230	101300000	1000	0	0	-1	255
9175755	8342	355	0	-100	0	230	101300000	1000	0	0	-1	255
9188315	8347	357	0	-100	0	230	101300000	1000	0	0	-1	255
9200875	8347	361	0	-100	0	230	101300000	1000	0	0	-1	255
9213435	8340	356	0	-100	0	230	101300000	1000	0	0	-1	255
9225995	8342	360	0	-100	0	230	101300000	1000	0	0	-1	255
9238555	8335	363	0	-100	0	230	101300000	1000	0	0	-1	255
9251115	8335	359	0	-100	0	230	101300000	1000	0	0	-1	255
9263675	8338	361	0	-100	0	230	101300000	1000	0	0	-1	255
9276235	8335	354	0	-100	0	230	101300000	1000	0	0	-1	255
9288795	8338	354	0	-100	0	230	101300000	1000	0	0	-1	255
9301355	8340	356	0	-100	0	230	101300000	1000	0	0	-1	255
9313915	8345	354	0	-100	0	230	101300000	1000	0	0	-1	255
9326475	8338	358	0	-100	0	230	101300000	1000	0	0	-1	255
9339035	8340	360	0	-100	0	230	101300000	1000	0	0	-1	255
9351595	8338	355	0	-100	0	230	101300000	1000	0	0	-1	255
9364155	8349	357	0	-100	0	230	101300000	1000	0	0	-1	255
9376715	8343	359	0	-100	0	230	101300000	1000	0	0	-1	255
9389275	8345	359	0	-100	0	230	101300000	1000	0	0	-1	255
9401835	8340	360	0	-100	0	230	101300000	1000	0	0	-1	255
9414395	8342	361	0	-100	0	230	101300000	1000	0	0	-1	255
9426955	8342	359	0	-100	0	230	101300000	1000	0	0	-1	255
9439515	8338	359	0	-100	0	230	101300000	1000	0	0	-1	255
9452075	8342	359	0	-100	0	230	101300000	1000	0	0	-1	255
9464635	8338	357	0	-100	0	230	101300000	1000	0	0	-1	255
9477195	8343	353	0	-100	0	230	101300000	1000	0	0	-1	255
9489755	8345	357	0	-100	0	230	101300000	1000	0	0	-1	255
9502315	8340	357	0	-100	0	230	101300000	1000	0	0	-1	255
9514875	8342	362	0	-100	0	230	101300000	1000	0	0	-1	255
9527435	8337	362	0	-100	0	230	101300000	1000	0	0	-1	255
9539995	8337	358	0	-100	0	230	101300000	1000	0	0	-1	255
9552555	8340	356	0	-100	0	230	101300000	1000	0	0	-1	255
9565115	8345	358	0	-100	0	230	101300000	1000	0	0	-1	255
9577675	8340	358	0	-100	0	230	101300000	1000	0	0	-1	255
9590235	8340	358	0	-100	0	230	101300000	1000	0	0	-1	255
9602795	8333	360	0	-100	0	230	101300000	1000	0	0	-1	255
9615355	8335	362	0	-100	0	230	101300000	1000	0	0	-1	255
9627915	8335	358	0	-100	0	230	101300000	1000	0	0	-1	255
9640475	8342	356	0	-100	0	230	101300000	1000	0	0	-1	255
9653035	8342	358	0	-100	0	230	101300000	1000	0	0	-1	255
9665595	8345	357	0	-100	0	230	101300000	1000	0	0	-1	255
9678155	8347	359	0	-100	0	230	101300000	1000	0	0	-1	255
9690715	8337	362	0	-100	0	230	101300000	1000	0	0	-1	255
9703275	8338	357	0	-100	0	230	101300000	1000	0	0	-1	255
9715835	8340	358	0	-100	0	230	101300000	1000	0	0	-1	255
9728395	8340	362	0	-100	0	230	101300000	1000	0	0	-1	255
9740955	8335	358	0	-100	0	230	101300000	1000	0	0	-1	255
9753515	8338	357	0	-100	0	230	101300000	1000	0	0	-1	255
9766075	8340	355	0	-100	0	230	101300000	1000	0	0	-1	255
9778635	8337	356	0	-100	0	230	101300000	1000	0	0	-1	255
9791195	8342	355	0	-100	0	230	101300000	1000	0	0	-1	255
9803755	8340	362	0	-100	0	230	101300000	1000	0	0	-1	255
9816315	8337	358	0	-100	0	230	101300000	1000	0	0	-1	255
9828875	8342	359	0	-100	0	230	101300000	1000	0	0	-1	255
9841435	8342	358	0	-100	0	230	101300000	1000	0	0	-1	255
9853995	8333	352	0	-100	0	230	101300000	1000	0	0	-1	255
9866555	8333	357	0	-100	0	230	101300000	1000	0	0	-1	255
9879115	8338	358	0	-100	0	230	101300000	1000	0	0	-1	255
9891675	8340	357	0	-100	0	230	101300000	1000	0	0	-1	255
9904235	8342	360	0	-100	0	230	101300000	1000	0	0	-1	255
9916795	8333	360	0	-100	0	230	101300000	1000	0	0	-1	255
9929355	8337	359	0	-100	0	230	101300000	1000	0	0	-1	255
9941915	8337	360	0	-100	0	230	101300000	1000	0	0	-1	255
9954475	8338	358	0	-100	0	230	101300000	1000	0	0	-1	255
9967035	8342	359	0	-100	0	230	101300000	1000	0	0	-1	255
9979595	8337	358	0	-100	0	230	101300000	1000	0	0	-1	255
9992155	8345	359	0	-100	0	230	101300000	1000	0	0	-1	255
10004715	8338	360	0	-100	0	230	101300000	1000	0	0	-1	255
10017275	8338	359	0	-100	0	230	101300000	1000	0	0	-1	255
10029835	8337	360	0	-100	0	230	101300000	1000	0	0	-1	255
10042395	8338	359	0	-100	0	230	101300000	1000	0	0	-1	255
10054955	8335	359	0	-100	0	230	101300000	1000	0	0	-1	255
10067515	8342	358	0	-100	0	230	101300000	1000	0	0	-1	255
10080075	8347	358	0	-100	0	230	101300000	1000	0	0	-1	255
10092635	8342	355	0	-100	0	230	101300000	1000	0	0	-1	255
10105195	8337	356	0	-100	0	230	101300000	1000	0	0	-1	255
10117755	8342	358	0	-100	0	230	101300000	1000	0	0	-1	255
10130315	8337	358	0	-100	0	230	101300000	1000	0	0	-1	255
10142875	8333	357	0	-100	0	230	101300000	1000	0	0	-1	255
10155435	8337	359	0	-100	0	230	101300000	1000	0	0	-1	255
10167995	8335	360	0	-100	0	230	101300000	1000	0	0	-1	255
10180555	8342	360	0	-100	0	230	101300000	1000	0	0	-1	255
10193115	8345	358	0	-100	0	230	101300000	1000	0	0	-1	255
10205675	8352	359	0	-100	0	230	101300000	1000	0	0	-1	255
10218235	8347	359	0	-100	0	230	101300000	1000	0	0	-1	255
10230795	8343	358	0	-100	0	230	101300000	1000	0	0	-1	255
10243355	8343	359	0	-100	0	230	101300000	1000	0	0	-1	255
10255915	8340	359	0	-100	0	230	101300000	1000	0	0	-1	255
10268475	8340	360	0	-100	0	230	101300000	1000	0	0	-1	255
10281035	8342	360	0	-100	0	230	101300000	1000	0	0	-1	255
10293595	8342	360	0	-100	0	230	101300000	1000	0	0	-1	255
10306155	8354	345	0	-100	0	230	101300000	1000	0	0	-1	255
10318715	8345	358	0	-100	0	230	101300000	1000	0	0	-1	255
10331275	8342	358	0	-100	0	230	101300000	1000	0	0	-1	255
10343835	8345	357	0	-100	0	230	101300000	1000	0	0	-1	255
10356395	8338	357	0	-100	0	230	101300000	1000	0	0	-1	255
10394075	8340	356	0	-100	0	230	101300000	1000	0	0	-1	255
10406635	8335	359	0	-100	0	230	101300000	1000	0	0	-1	255
10419195	8337	359	0	-100	0	230	101300000	1000	0	0	-1	255
10431755	8340	356	0	-100	0	230	101300000	1000	0	0	-1	255
10444315	8350	359	0	-100	0	230	101300000	1000	0	0	-1	255
10456875	8347	356	0	-100	0	230	101300000	1000	0	0	-1	255
10469435	8340	357	0	-100	0	230	101300000	1000	0	0	-1	255
10481995	8340	355	0	-100	0	230	101300000	1000	0	0	-1	255
10494555	8338	359	0	-100	0	230	101300000	1000	0	0	-1	255
10507115	8335	361	0	-100	0	230	101300000	1000	0	0	-1	255
10519675	8342	353	0	-100	0	230	101300000	1000	0	0	-1	255
10607595	8347	358	0	-100	0	230	101300000	1000	0	0	-1	255
10620155	8347	357	0	-100	0	230	101300000	1000	0	0	-1	255
10632715	8337	361	0	-100	0	230	101300000	1000	0	0	-1	255
10645275	8340	361	0	-100	0	230	101300000	1000	0	0	-1	255
10657835	8342	360	0	-100	0	230	101300000	1000	0	0	-1	255
10670395	8338	361	0	-100	0	230	101300000	1000	0	0	-1	255
10682955	8338	361	0	-100	0	230	101300000	1000	0	0	-1	255
10695515	8342	355	0	-100	0	230	101300000	1000	0	0	-1	255
10708075	8340	359	0	-100	0	230	101300000	1000	0	0	-1	255
10720635	8340	362	0	-100	0	230	101300000	1000	0	0	-1	255
10733195	8345	358	0	-100	0	230	101300000	1000	0	0	-1	255
10795995	8335	354	0	-100	0	230	101300000	1000	0	0	-1	255
10808555	8340	362	0	-100	0	230	101300000	1000	0	0	-1	255
10821115	8347	356	0	-100	0	230	101300000	1000	0	0	-1	255
10833675	8347	358	0	-100	0	230	101300000	1000	0	0	-1	255
10846235	8340	359	0	-100	0	230	101300000	1000	0	0	-1	255
10858795	8335	358	0	-100	0	230	101300000	1000	0	0	-1	255
10871355	8337	359	0	-100	0	230	101300000	1000	0	0	-1	255
10883915	8347	360	0	-100	0	230	101300000	1000	0	0	-1	255
10896475	8333	361	0	-100	0	230	101300000	1000	0	0	-1	255
10909035	8335	362	0	-100	0	230	101300000	1000	0	0	-1	255
10921595	8343	355	0	-100	0	230	101300000	1000	0	0	-1	255
10934155	8345	358	0	-100	0	230	101300000	1000	0	0	-1	255
10946715	8340	360	0	-100	0	230	101300000	1000	0	0	-1	255
10959275	8340	360	0	-100	0	230	101300000	1000	0	0	-1	255
10971835	8347	359	0	-100	0	230	101300000	1000	0	0	-1	255
10984395	8343	360	0	-100	0	230	101300000	1000	0	0	-1	255
10996955	8342	359	0	-100	0	230	101300000	1000	0	0	-1	255
11009515	8335	361	0	-100	0	230	101300000	1000	0	0	-1	255
11022075	8345	358	0	-100	0	230	101300000	1000	0	0	-1	255
11034635	8345	359	0	-100	0	230	101300000	1000	0	0	-1	255
11047195	8338	361	0	-100	0	230	101300000	1000	0	0	-1	255
11059755	8335	360	0	-100	0	230	101300000	1000	0	0	-1	255
11072315	8338	361	0	-100	0	230	101300000	1000	0	0	-1	255
11084875	8340	357	0	-100	0	230	101300000	1000	0	0	-1	255
11097435	8338	357	0	-100	0	230	101300000	1000	0	0	-1	255
11109995	8342	358	0	-100	0	230	101300000	1000	0	0	-1	255
11122555	8345	358	0	-100	0	230	101300000	1000	0	0	-1	255
11135115	8345	357	0	-100	0	230	101300000	1000	0	0	-1	255
11147675	8338	362	0	-100	0	230	101300000	1000	0	0	-1	255
11160235	8335	363	0	-100	0	230	101300000	1000	0	0	-1	255
11172795	8345	361	0	-100	0	230	101300000	1000	0	0	-1	255
11185355	8340	357	0	-100	0	230	101300000	1000	0	0	-1	255
11197915	8342	355	0	-100	0	230	101300000	1000	0	0	-1	255
11210475	8342	363	0	-100	0	230	101300000	1000	0	0	-1	255
11223035	8345	356	0	-100	0	230	101300000	1000	0	0	-1	255
11235595	8335	359	0	-100	0	230	101300000	1000	0	0	-1	255
11248155	8345	360	0	-100	0	230	101300000	1000	0	0	-1	255
11260715	8338	357	0	-100	0	230	101300000	1000	0	0	-1	255
11273275	8340	356	0	-100	0	230	101300000	1000	0	0	-1	255
11285835	8333	358	0	-100	0	230	101300000	1000	0	0	-1	255
11298395	8335	361	0	-100	0	230	101300000	1000	0	0	-1	255
11310955	8338	362	0	-100	0	230	101300000	1000	0	0	-1	255
11323515	8338	363	0	-100	0	230	101300000	1000	0	0	-1	255
11336075	8335	358	0	-100	0	230	101300000	1000	0	0	-1	255
11348635	8342	361	0	-100	0	230	101300000	1000	0	0	-1	255
11361195	8342	358	0	-100	0	230	101300000	1000	0	0	-1	255
11373755	8338	358	0	-100	0	230	101300000	1000	0	0	-1	255
11386315	8340	356	0	-100	0	230	101300000	1000	0	0	-1	255
11398875	8340	356	0	-100	0	230	101300000	1000	0	0	-1	255
11411435	8343	361	0	-100	0	230	101300000	1000	0	0	-1	255
11423995	8340	360	0	-100	0	230	101300000	1000	0	0	-1	255
11436555	8336	358	0	-100	0	230	101300000	1000	0	0	-1	255
11449115	8342	357	0	-100	0	230	101300000	1000	0	0	-1	255
11461675	8343	357	0	-100	0	230	101300000	1000	0	0	-1	255
11474235	8343	357	0	-100	0	230	101300000	1000	0	0	-1	255
11486795	8345	360	0	-100	0	230	101300000	1000	0	0	-1	255
11499355	8340	357	0	-100	0	230	101300000	1000	0	0	-1	255
11511915	8343	358	0	-100	0	230	101300000	1000	0	0	-1	255
11524475	8347	358	0	-100	0	230	101300000	1000	0	0	-1	255
11537035	8343	355	0	-100	0	230	101300000	1000	0	0	-1	255
11549595	8343	356	0	-100	0	230	101300000	1000	0	0	-1	255
11562155	8347	357	0	-100	0	230	101300000	1000	0	0	-1	255
11574715	8343	360	0	-100	0	230	101300000	1000	0	0	-1	255
11587275	8345	360	0	-100	0	230	101300000	1000	0	0	-1	255
11599835	8345	358	0	-100	0	230	101300000	1000	0	0	-1	255
11612395	8340	358	0	-100	0	230	101300000	1000	0	0	-1	255
11624955	8345	355	0	-100	0	230	101300000	1000	0	0	-1	255
11637515	8338	358	0	-100	0	230	101300000	1000	0	0	-1	255
11650075	8342	358	0	-100	0	230	101300000	1000	0	0	-1	255
11662635	8338	358	0	-100	0	230	101300000	1000	0	0	-1	255
11675195	8338	358	0	-100	0	230	101300000	1000	0	0	-1	255
11687755	8337	360	0	-100	0	230	101300000	1000	0	0	-1	255
11700315	8340	360	0	-100	0	230	101300000	1000	0	0	-1	255
11712875	8345	359	0	-100	0	230	101300000	1000	0	0	-1	255
11725435	8347	361	0	-100	0	230	101300000	1000	0	0	-1	255
11737995	8342	359	0	-100	0	230	101300000	1000	0	0	-1	255
11750555	8333	360	0	-100	0	230	101300000	1000	0	0	-1	255
11763115	8331	360	0	-100	0	230	101300000	1000	0	0	-1	255
11775675	8340	362	0	-100	0	230	101300000	1000	0	0	-1	255
11788235	8335	364	0	-100	0	230	101300000	1000	0	0	-1	255
11800795	8345	358	0	-100	0	230	101300000	1000	0	0	-1	255
11813355	8343	360	0	-100	0	230	101300000	1000	0	0	-1	255
11825915	8342	355	0	-100	0	230	101300000	1000	0	0	-1	255
11838475	8331	352	0	-100	0	230	101300000	1000	0	0	-1	255
11851035	8335	347	0	-100	0	230	101300000	1000	0	0	-1	255
11863595	8333	360	0	-100	0	230	101300000	1000	0	0	-1	255
11876155	8347	359	0	-100	0	230	101300000	1000	0	0	-1	255
11888715	8347	363	0	-100	0	230	101300000	1000	0	0	-1	255
11901275	8347	361	0	-100	0	230	101300000	1000	0	0	-1	255
11913835	8347	358	0	-100	0	230	101300000	1000	0	0	-1	255
11926395	8340	360	0	-100	0	230	101300000	1000	0	0	-1	255
11938955	8338	355	0	-100	0	230	101300000	1000	0	0	-1	255
11951515	8340	354	0	-100	0	230	101300000	1000	0	0	-1	255
11964075	8345	354	0	-100	0	230	101300000	1000	0	0	-1	255
11976635	8345	350	0	-100	0	230	101300000	1000	0	0	-1	255
11989195	8340	355	0	-100	0	230	101300000	1000	0	0	-1	255
12001755	8345	359	0	-100	0	230	101300000	1000	0	0	-1	255
12014315	8345	358	0	-100	0	230	101300000	1000	0	0	-1	255
12026875	8345	358	0	-100	0	230	101300000	1000	0	0	-1	255
12039435	8340	359	0	-100	0	230	101300000	1000	0	0	-1	255
12051995	8340	359	0	-100	0	230	101300000	1000	0	0	-1	255
12064555	8337	362	0	-100	0	230	101300000	1000	0	0	-1	255
12077115	8340	362	0	-100	0	230	101300000	1000	0	0	-1	255
12089675	8335	362	0	-100	0	230	101300000	1000	0	0	-1	255
12102235	8338	359	0	-100	0	230	101300000	1000	0	0	-1	255
12114795	8340	358	0	-100	0	230	101300000	1000	0	0	-1	255
12127355	8352	358	0	-100	0	230	101300000	1000	0	0	-1	255
12139915	8340	359	0	-100	0	230	101300000	1000	0	0	-1	255
12152475	8338	357	0	-100	0	230	101300000	1000	0	0	-1	255
12165035	8340	358	0	-100	0	230	101300000	1000	0	0	-1	255
12177595	8333	361	0	-100	0	230	101300000	1000	0	0	-1	255
12190155	8349	362	0	-100	0	230	101300000	1000	0	0	-1	255
12202715	8337	362	0	-100	0	230	101300000	1000	0	0	-1	255
12215275	8340	358	0	-100	0	230	101300000	1000	0	0	-1	255
12227835	8347	359	0	-100	0	230	101300000	1000	0	0	-1	255
12240395	8338	358	0	-100	0	230	101300000	1000	0	0	-1	255
12252955	8335	359	0	-100	0	230	101300000	1000	0	0	-1	255
12265515	8340	359	0	-100	0	230	101300000	1000	0	0	-1	255
12278075	8337	362	0	-100	0	230	101300000	1000	0	0	-1	255
12290635	8340	357	0	-100	0	230	101300000	1000	0	0	-1	255
12303195	8345	358	0	-100	0	230	101300000	1000	0	0	-1	255
12315755	8342	358	0	-100	0	230	101300000	1000	0	0	-1	255
12328315	8338	356	0	-100	0	230	101300000	1000	0	0	-1	255
12340875	8338	343	0	-100	0	230	101300000	1000	0	0	-1	255
12353435	8335	356	0	-100	0	230	101300000	1000	0	0	-1	255
12365995	8340	357	0	-100	0	230	101300000	1000	0	0	-1	255
12378555	8331	360	0	-100	0	230	101300000	1000	0	0	-1	255
12391115	8338	361	0	-100	0	230	101300000	1000	0	0	-1	255
12403675	8335	360	0	-100	0	230	101300000	1000	0	0	-1	255
12416235	8342	360	0	-100	0	230	101300000	1000	0	0	-1	255
12428795	8338	363	0	-100	0	230	101300000	1000	0	0	-1	255
12441355	8340	364	0	-100	0	230	101300000	1000	0	0	-1	255
12453915	8338	359	0	-100	0	230	101300000	1000	0	0	-1	255
12466475	8335	362	0	-100	0	230	101300000	1000	0	0	-1	255
12479035	8338	360	0	-100	0	230	101300000	1000	0	0	-1	255
12491595	8335	360	0	-100	0	230	101300000	1000	0	0	-1	255
12504155	8354	359	0	-100	0	230	101300000	1000	0	0	-1	255
12516715	8343	360	0	-100	0	230	101300000	1000	0	0	-1	255
12529275	8345	358	0	-100	0	230	101300000	1000	0	0	-1	255
12541835	8340	358	0	-100	0	230	101300000	1000	0	0	-1	255
12554395	8338	358	0	-100	0	230	101300000	1000	0	0	-1	255
12566955	8335	362	0	-100	0	230	101300000	1000	0	0	-1	255
12579515	8342	362	0	-100	0	230	101300000	1000	0	0	-1	255
12592075	8335	360	0	-100	0	230	101300000	1000	0	0	-1	255
12604635	8343	357	0	-100	0	230	101300000	1000	0	0	-1	255
12617195	8338	357	0	-100	0	230	101300000	1000	0	0	-1	255
12629755	8333	358	0	-100	0	230	101300000	1000	0	0	-1	255
12642315	8340	360	0	-100	0	230	101300000	1000	0	0	-1	255
12654875	8345	359	0	-100	0	230	101300000	1000	0	0	-1	255
12667435	8347	359	0	-100	0	230	101300000	1000	0	0	-1	255
12679995	8340	359	0	-100	0	230	101300000	1000	0	0	-1	255
12692555	8338	363	0	-100	0	230	101300000	1000	0	0	-1	255
12705115	8345	359	0	-100	0	230	101300000	1000	0	0	-1	255
12717675	8338	361	0	-100	0	230	101300000	1000	0	0	-1	255
12730235	8333	359	0	-100	0	230	101300000	1000	0	0	-1	255
12742795	8338	364	0	-100	0	230	101300000	1000	0	0	-1	255
12755355	8343	356	0	-100	0	230	101300000	1000	0	0	-1	255
12767915	8342	356	0	-100	0	230	101300000	1000	0	0	-1	255
12780475	8340	363	0	-100	0	230	101300000	1000	0	0	-1	255
12793035	8345	359	0	-100	0	230	101300000	1000	0	0	-1	255
12805595	8333	360	0	-100	0	230	101300000	1000	0	0	-1	255
12818155	8357	359	0	-100	0	230	101300000	1000	0	0	-1	255
12830715	8338	362	0	-100	0	230	101300000	1000	0	0	-1	255
12843275	8336	359	0	-100	0	230	101300000	1000	0	0	-1	255
12855835	8342	359	0	-100	0	230	101300000	1000	0	0	-1	255
12868395	8340	362	0	-100	0	230	101300000	1000	0	0	-1	255
12880955	8340	360	0	-100	0	230	101300000	1000	0	0	-1	255
12893515	8343	344	0	-100	0	230	101300000	1000	0	0	-1	255
12906075	8337	345	0	-100	0	230	101300000	1000	0	0	-1	255
12918635	8342	364	0	-100	0	230	101300000	1000	0	0	-1	255
12931195	8342	358	0	-100	0	230	101300000	1000	0	0	-1	255
12943755	8345	357	0	-100	0	230	101300000	1000	0	0	-1	255
12956315	8340	357	0	-100	0	230	101300000	1000	0	0	-1	255
12968875	8335	360	0	-100	0	230	101300000	1000	0	0	-1	255
12981435	8335	360	0	-100	0	230	101300000	1000	0	0	-1	255
12993995	8347	360	0	-100	0	230	101300000	1000	0	0	-1	255
13006555	8343	359	0	-100	0	230	101300000	1000	0	0	-1	255
13019115	8338	358	0	-100	0	230	101300000	1000	0	0	-1	255
13031675	8335	362	0	-100	0	230	101300000	1000	0	0	-1	255
13044235	8340	359	0	-100	0	230	101300000	1000	0	0	-1	255
13056795	8343	354	0	-100	0	230	101300000	1000	0	0	-1	255
13069355	8342	358	0	-100	0	230	101300000	1000	0	0	-1	255
13081915	8340	361	0	-100	0	230	101300000	1000	0	0	-1	255
13094475	8350	359	0	-100	0	230	101300000	1000	0	0	-1	255
13107035	8343	358	0	-100	0	230	101300000	1000	0	0	-1	255
13119595	8340	362	0	-100	0	230	101300000	1000	0	0	-1	255
13132155	8347	363	0	-100	0	230	101300000	1000	0	0	-1	255
13144715	8343	353	0	-100	0	230	101300000	1000	0	0	-1	255
13157275	8338	355	0	-100	0	230	101300000	1000	0	0	-1	255
13169835	8338	358	0	-100	0	230	101300000	1000	0	0	-1	255
13182395	8341	358	0	-100	0	230	101300000	1000	0	0	-1	255
13194955	8338	355	0	-100	0	230	101300000	1000	0	0	-1	255
13207515	8335	358	0	-100	0	230	101300000	1000	0	0	-1	255
13220075	8340	362	0	-100	0	230	101300000	1000	0	0	-1	255
13232635	8338	364	0	-100	0	230	101300000	1000	0	0	-1	255
13245195	8338	362	0	-100	0	230	101300000	1000	0	0	-1	255
13257755	8340	358	0	-100	0	230	101300000	1000	0	0	-1	255
13270315	8345	358	0	-100	0	230	101300000	1000	0	0	-1	255
13282875	8345	358	0	-100	0	230	101300000	1000	0	0	-1	255
13295435	8342	361	0	-100	0	230	101300000	1000	0	0	-1	255
13307995	8342	358	0	-100	0	230	101300000	1000	0	0	-1	255
13320555	8333	361	0	-100	0	230	101300000	1000	0	0	-1	255
13333115	8342	362	0	-100	0	230	101300000	1000	0	0	-1	255
13345675	8340	363	0	-100	0	230	101300000	1000	0	0	-1	255
13358235	8342	360	0	-100	0	230	101300000	1000	0	0	-1	255
13370795	8340	357	0	-100	0	230	101300000	1000	0	0	-1	255
13383355	8343	358	0	-100	0	230	101300000	1000	0	0	-1	255
13395915	8340	357	0	-100	0	230	101300000	1000	0	0	-1	255
13408475	8336	357	0	-100	0	230	101300000	1000	0	0	-1	255
13421035	8336	361	0	-100	0	230	101300000	1000	0	0	-1	255
13433595	8338	361	0	-100	0	230	101300000	1000	0	0	-1	255
13446155	8345	362	0	-100	0	230	101300000	1000	0	0	-1	255
13458715	8340	359	0	-100	0	230	101300000	1000	0	0	-1	255
13471275	8343	357	0	-100	0	230	101300000	1000	0	0	-1	255
13508955	8343	355	0	-100	0	230	101300000	1000	0	0	-1	255
13521515	8342	358	0	-100	0	230	101300000	1000	0	0	-1	255
13534075	8342	359	0	-100	0	230	101300000	1000	0	0	-1	255
13546635	8340	362	0	-100	0	230	101300000	1000	0	0	-1	255
13559195	8338	357	0	-100	0	230	101300000	1000	0	0	-1	255
13571755	8338	363	0	-100	0	230	101300000	1000	0	0	-1	255
13584315	8337	362	0	-100	0	230	101300000	1000	0	0	-1	255
13596875	8340	358	0	-100	0	230	101300000	1000	0	0	-1	255
13609435	8350	359	0	-100	0	230	101300000	1000	0	0	-1	255
13621995	8343	361	0	-100	0	230	101300000	1000	0	0	-1	255
13634555	8335	357	0	-100	0	230	101300000	1000	0	0	-1	255
13647115	8345	363	0	-100	0	230	101300000	1000	0	0	-1	255
13722475	8342	354	0	-100	0	230	101300000	1000	0	0	-1	255
13735035	8343	359	0	-100	0	230	101300000	1000	0	0	-1	255
13747595	8350	359	0	-100	0	230	101300000	1000	0	0	-1	255
13760155	8349	359	0	-100	0	230	101300000	1000	0	0	-1	255
13772715	8335	363	0	-100	0	230	101300000	1000	0	0	-1	255
13785275	8340	357	0	-100	0	230	101300000	1000	0	0	-1	255
13797835	8340	360	0	-100	0	230	101300000	1000	0	0	-1	255
13810395	8340	359	0	-100	0	230	101300000	1000	0	0	-1	255
13822955	8340	362	0	-100	0	230	101300000	1000	0	0	-1	255
13835515	8338	361	0	-100	0	230	101300000	1000	0	0	-1	255
13848075	8340	361	0	-100	0	230	101300000	1000	0	0	-1	255
13860635	8347	358	0	-100	0	230	101300000	1000	0	0	-1	255
13873195	8345	355	0	-100	0	230	101300000	1000	0	0	-1	255
13885755	8345	360	0	-100	0	230	101300000	1000	0	0	-1	255
13898315	8340	358	0	-100	0	230	101300000	1000	0	0	-1	255
13910875	8340	364	0	-100	0	230	101300000	1000	0	0	-1	255
13923435	8340	365	0	-100	0	230	101300000	1000	0	0	-1	255
13935995	8340	358	0	-100	0	230	101300000	1000	0	0	-1	255
13948555	8340	358	0	-100	0	230	101300000	1000	0	0	-1	255
13961115	8340	356	0	-100	0	230	101300000	1000	0	0	-1	255
13973675	8342	358	0	-100	0	230	101300000	1000	0	0	-1	255
13986235	8340	362	0	-100	0	230	101300000	1000	0	0	-1	255
13998795	8345	363	0	-100	0	230	101300000	1000	0	0	-1	255
14011355	8347	362	0	-100	0	230	101300000	1000	0	0	-1	255
14023915	8340	359	0	-100	0	230	101300000	1000	0	0	-1	255
14036475	8345	358	0	-100	0	230	101300000	1000	0	0	-1	255
14049035	8340	365	0	-100	0	230	101300000	1000	0	0	-1	255
14061595	8340	362	0	-100	0	230	101300000	1000	0	0	-1	255
14074155	8347	363	0	-100	0	230	101300000	1000	0	0	-1	255
14086715	8345	360	0	-100	0	230	101300000	1000	0	0	-1	255
14099275	8338	361	0	-100	0	230	101300000	1000	0	0	-1	255
14111835	8342	361	0	-100	0	230	101300000	1000	0	0	-1	255
14124395	8342	358	0	-100	0	230	101300000	1000	0	0	-1	255
14136955	8345	361	0	-100	0	230	101300000	1000	0	0	-1	255
14149515	8342	358	0	-100	0	230	101300000	1000	0	0	-1	255
14162075	8338	363	0	-100	0	230	101300000	1000	0	0	-1	255
14174635	8333	361	0	-100	0	230	101300000	1000	0	0	-1	255
14187195	8343	357	0	-100	0	230	101300000	1000	0	0	-1	255
14199755	8338	358	0	-100	0	230	101300000	1000	0	0	-1	255
14212315	8338	362	0	-100	0	230	101300000	1000	0	0	-1	255
14224875	8347	360	0	-100	0	230	101300000	1000	0	0	-1	255
14237435	8342	357	0	-100	0	230	101300000	1000	0	0	-1	255
14249995	8340	358	0	-100	0	230	101300000	1000	0	0	-1	255
14262555	8338	361	0	-100	0	230	101300000	1000	0	0	-1	255
14275115	8345	365	0	-100	0	230	101300000	1000	0	0	-1	255
14287675	8340	357	0	-100	0	230	101300000	1000	0	0	-1	255
14300235	8340	363	0	-100	0	230	101300000	1000	0	0	-1	255
14312795	8347	359	0	-100	0	230	101300000	1000	0	0	-1	255
14325355	8342	358	0	-100	0	230	101300000	1000	0	0	-1	255
14337915	8338	364	0	-100	0	230	101300000	1000	0	0	-1	255
14350475	8345	360	0	-100	0	230	101300000	1000	0	0	-1	255
14363035	8340	362	0	-100	0	230	101300000	1000	0	0	-1	255
14375595	8343	357	0	-100	0	230	101300000	1000	0	0	-1	255
14388155	8347	363	0	-100	0	230	101300000	1000	0	0	-1	255
14400715	8342	362	0	-100	0	230	101300000	1000	0	0	-1	255
14413275	8340	357	0	-100	0	230	101300000	1000	0	0	-1	255
14425835	8335	362	0	-100	0	230	101300000	1000	0	0	-1	255
14438395	8343	358	0	-100	0	230	101300000	1000	0	0	-1	255
14450955	8342	357	0	-100	0	230	101300000	1000	0	0	-1	255
14463515	8340	362	0	-100	0	230	101300000	1000	0	0	-1	255
14476075	8352	361	0	-100	0	230	101300000	1000	0	0	-1	255
14488635	8345	362	0	-100	0	230	101300000	1000	0	0	-1	255
14501195	8345	358	0	-100	0	230	101300000	1000	0	0	-1	255
14513755	8342	358	0	-100	0	230	101300000	1000	0	0	-1	255
14526315	8345	362	0	-100	0	230	101300000	1000	0	0	-1	255
14538875	8335	361	0	-100	0	230	101300000	1000	0	0	-1	255
14551435	8338	356	0	-100	0	230	101300000	1000	0	0	-1	255
14563995	8340	354	0	-100	0	230	101300000	1000	0	0	-1	255
14576555	8338	361	0	-100	0	230	101300000	1000	0	0	-1	255
14589115	8336	362	0	-100	0	230	101300000	1000	0	0	-1	255
14601675	8342	357	0	-100	0	230	101300000	1000	0	0	-1	255
14614235	8335	362	0	-100	0	230	101300000	1000	0	0	-1	255
14626795	8338	362	0	-100	0	230	101300000	1000	0	0	-1	255
14639355	8345	361	0	-100	0	230	101300000	1000	0	0	-1	255
14651915	8342	359	0	-100	0	230	101300000	1000	0	0	-1	255
14664475	8345	357	0	-100	0	230	101300000	1000	0	0	-1	255
14677035	8335	364	0	-100	0	230	101300000	1000	0	0	-1	255
14689595	8340	364	0	-100	0	230	101300000	1000	0	0	-1	255
14702155	8349	360	0	-100	0	230	101300000	1000	0	0	-1	255
14714715	8340	358	0	-100	0	230	101300000	1000	0	0	-1	255
14727275	8345	357	0	-100	0	230	101300000	1000	0	0	-1	255
14739835	8347	359	0	-100	0	230	101300000	1000	0	0	-1	255
14752395	8342	362	0	-100	0	230	101300000	1000	0	0	-1	255
14764955	8345	360	0	-100	0	230	101300000	1000	0	0	-1	255
14777515	8342	358	0	-100	0	230	101300000	1000	0	0	-1	255
14790075	8331	359	0	-100	0	230	101300000	1000	0	0	-1	255
14802635	8338	346	0	-100	0	230	101300000	1000	0	0	-1	255
14815195	8343	361	0	-100	0	230	101300000	1000	0	0	-1	255
14827755	8341	359	0	-100	0	230	101300000	1000	0	0	-1	255
14840315	8340	360	0	-100	0	230	101300000	1000	0	0	-1	255
14852875	8345	360	0	-100	0	230	101300000	1000	0	0	-1	255
14865435	8345	362	0	-100	0	230	101300000	1000	0	0	-1	255
14877995	8335	356	0	-100	0	230	101300000	1000	0	0	-1	255
14890555	8342	364	0	-100	0	230	101300000	1000	0	0	-1	255
14903115	8343	361	0	-100	0	230	101300000	1000	0	0	-1	255
14915675	8343	361	0	-100	0	230	101300000	1000	0	0	-1	255
14928235	8345	361	0	-100	0	230	101300000	1000	0	0	-1	255
14940795	8340	361	0	-100	0	230	101300000	1000	0	0	-1	255
14953355	8349	361	0	-100	0	230	101300000	1000	0	0	-1	255
14965915	8352	359	0	-100	0	230	101300000	1000	0	0	-1	255
14978475	8338	357	0	-100	0	230	101300000	1000	0	0	-1	255
14991035	8338	362	0	-100	0	230	101300000	1000	0	0	-1	255
15003595	8340	361	0	-100	0	230	101300000	1000	0	0	-1	255
15016155	8349	360	0	-100	0	230	101300000	1000	0	0	-1	255
15028715	8345	356	0	-100	0	230	101300000	1000	0	0	-1	255
15041275	8338	355	0	-100	0	230	101300000	1000	0	0	-1	255
15053835	8333	359	0	-100	0	230	101300000	1000	0	0	-1	255
15066395	8340	363	0	-100	0	230	101300000	1000	0	0	-1	255
15078955	8343	361	0	-100	0	230	101300000	1000	0	0	-1	255
15091515	8338	358	0	-100	0	230	101300000	1000	0	0	-1	255
15104075	8342	364	0	-100	0	230	101300000	1000	0	0	-1	255
15116635	8340	358	0	-100	0	230	101300000	1000	0	0	-1	255
15129195	8343	356	0	-100	0	230	101300000	1000	0	0	-1	255
15141755	8333	358	0	-100	0	230	101300000	1000	0	0	-1	255
15154315	8340	362	0	-100	0	230	101300000	1000	0	0	-1	255
15166875	8345	358	0	-100	0	230	101300000	1000	0	0	-1	255
15179435	8340	359	0	-100	0	230	101300000	1000	0	0	-1	255
15191995	8335	360	0	-100	0	230	101300000	1000	0	0	-1	255
15204555	8340	363	0	-100	0	230	101300000	1000	0	0	-1	255
15217115	8340	359	0	-100	0	230	101300000	1000	0	0	-1	255
15229675	8345	362	0	-100	0	230	101300000	1000	0	0	-1	255
15242235	8338	353	0	-100	0	230	101300000	1000	0	0	-1	255
15254795	8340	363	0	-100	0	230	101300000	1000	0	0	-1	255
15267355	8337	361	0	-100	0	230	101300000	1000	0	0	-1	255
15279915	8335	361	0	-100	0	230	101300000	1000	0	0	-1	255
15292475	8342	360	0	-100	0	230	101300000	1000	0	0	-1	255
15305035	8342	359	0	-100	0	230	101300000	1000	0	0	-1	255
15317595	8345	361	0	-100	0	230	101300000	1000	0	0	-1	255
15330155	8352	360	0	-100	0	230	101300000	1000	0	0	-1	255
15342715	8338	356	0	-100	0	230	101300000	1000	0	0	-1	255
15355275	8342	362	0	-100	0	230	101300000	1000	0	0	-1	255
15367835	8342	360	0	-100	0	230	101300000	1000	0	0	-1	255
15380395	8343	357	0	-100	0	230	101300000	1000	0	0	-1	255
15392955	8345	358	0	-100	0	230	101300000	1000	0	0	-1	255
15405515	8335	362	0	-100	0	230	101300000	1000	0	0	-1	255
15418075	8338	361	0	-100	0	230	101300000	1000	0	0	-1	255
15430635	8338	359	0	-100	0	230	101300000	1000	0	0	-1	255
15443195	8343	358	0	-100	0	230	101300000	1000	0	0	-1	255
15455755	8336	359	0	-100	0	230	101300000	1000	0	0	-1	255
15468315	8347	358	0	-100	0	230	101300000	1000	0	0	-1	255
15480875	8338	362	0	-100	0	230	101300000	1000	0	0	-1	255
15493435	8340	360	0	-100	0	230	101300000	1000	0	0	-1	255
15505995	8350	363	0	-100	0	230	101300000	1000	0	0	-1	255
15518555	8338	360	0	-100	0	230	101300000	1000	0	0	-1	255
15531115	8340	356	0	-100	0	230	101300000	1000	0	0	-1	255
15543675	8340	361	0	-100	0	230	101300000	1000	0	0	-1	255
15556235	8335	360	0	-100	0	230	101300000	1000	0	0	-1	255
15568795	8331	358	0	-100	0	230	101300000	1000	0	0	-1	255
15581355	8342	361	0	-100	0	230	101300000	1000	0	0	-1	255
15593915	8340	364	0	-100	0	230	101300000	1000	0	0	-1	255
15606475	8340	361	0	-100	0	230	101300000	1000	0	0	-1	255
15619035	8342	357	0	-100	0	230	101300000	1000	0	0	-1	255
15631595	8343	357	0	-100	0	230	101300000	1000	0	0	-1	255
15644155	8345	360	0	-100	0	230	101300000	1000	0	0	-1	255
15656715	8340	359	0	-100	0	230	101300000	1000	0	0	-1	255
15669275	8338	362	0	-100	0	230	101300000	1000	0	0	-1	255
15681835	8337	361	0	-100	0	230	101300000	1000	0	0	-1	255
15694395	8345	361	0	-100	0	230	101300000	1000	0	0	-1	255
15706955	8342	362	0	-100	0	230	101300000	1000	0	0	-1	255
15719515	8335	361	0	-100	0	230	101300000	1000	0	0	-1	255
15732075	8338	366	0	-100	0	230	101300000	1000	0	0	-1	255
15744635	8350	362	0	-100	0	230	101300000	1000	0	0	-1	255
15757195	8345	360	0	-100	0	230	101300000	1000	0	0	-1	255
15769755	8333	359	0	-100	0	230	101300000	1000	0	0	-1	255
15782315	8338	364	0	-100	0	230	101300000	1000	0	0	-1	255
15794875	8345	361	0	-100	0	230	101300000	1000	0	0	-1	255
15807435	8343	359	0	-100	0	230	101300000	1000	0	0	-1	255
15819995	8340	358	0	-100	0	230	101300000	1000	0	0	-1	255
15832555	8333	361	0	-100	0	230	101300000	1000	0	0	-1	255
15845115	8345	357	0	-100	0	230	101300000	1000	0	0	-1	255
15857675	8338	361	0	-100	0	230	101300000	1000	0	0	-1	255
15870235	8335	361	0	-100	0	230	101300000	1000	0	0	-1	255
15882795	8342	364	0	-100	0	230	101300000	1000	0	0	-1	255
15895355	8350	362	0	-100	0	230	101300000	1000	0	0	-1	255
15907915	8338	357	0	-100	0	230	101300000	1000	0	0	-1	255
15920475	8338	362	0	-100	0	230	101300000	1000	0	0	-1	255
15933035	8338	362	0	-100	0	230	101300000	1000	0	0	-1	255
15945595	8343	359	0	-100	0	230	101300000	1000	0	0	-1	255
15958155	8342	363	0	-100	0	230	101300000	1000	0	0	-1	255
15970715	8340	362	0	-100	0	230	101300000	1000	0	0	-1	255
15983275	8343	356	0	-100	0	230	101300000	1000	0	0	-1	255
15995835	8340	358	0	-100	0	230	101300000	1000	0	0	-1	255
16008395	8338	362	0	-100	0	230	101300000	1000	0	0	-1	255
16020955	8340	362	0	-100	0	230	101300000	1000	0	0	-1	255
16033515	8345	359	0	-100	0	230	101300000	1000	0	0	-1	255
16046075	8343	361	0	-100	0	230	101300000	1000	0	0	-1	255
16058635	8338	358	0	-100	0	230	101300000	1000	0	0	-1	255
16071195	8340	363	0	-100	0	230	101300000	1000	0	0	-1	255
16083755	8341	357	0	-100	0	230	101300000	1000	0	0	-1	255
16096315	8338	360	0	-100	0	230	101300000	1000	0	0	-1	255
16108875	8333	364	0	-100	0	230	101300000	1000	0	0	-1	255
16121435	8345	359	0	-100	0	230	101300000	1000	0	0	-1	255
16133995	8331	360	0	-100	0	230	101300000	1000	0	0	-1	255
16146555	8345	363	0	-100	0	230	101300000	1000	0	0	-1	255
16159115	8336	357	0	-100	0	230	101300000	1000	0	0	-1	255
16171675	8340	362	0	-100	0	230	101300000	1000	0	0	-1	255
16184235	8338	361	0	-100	0	230	101300000	1000	0	0	-1	255
16196795	8347	360	0	-100	0	230	101300000	1000	0	0	-1	255
16209355	8347	360	0	-100	0	230	101300000	1000	0	0	-1	255
16221915	8345	358	0	-100	0	230	101300000	1000	0	0	-1	255
16234475	8340	361	0	-100	0	230	101300000	1000	0	0	-1	255
16247035	8338	361	0	-100	0	230	101300000	1000	0	0	-1	255
16259595	8345	364	0	-100	0	230	101300000	1000	0	0	-1	255
16272155	8345	362	0	-100	0	230	101300000	1000	0	0	-1	255
16284715	8338	362	0	-100	0	230	101300000	1000	0	0	-1	255
16297275	8340	358	0	-100	0	230	101300000	1000	0	0	-1	255
16309835	8345	358	0	-100	0	230	101300000	1000	0	0	-1	255
16322395	8340	359	0	-100	0	230	101300000	1000	0	0	-1	255
16334955	8347	360	0	-100	0	230	101300000	1000	0	0	-1	255
16347515	8340	358	0	-100	0	230	101300000	1000	0	0	-1	255
16360075	8333	362	0	-100	0	230	101300000	1000	0	0	-1	255
16372635	8340	362	0	-100	0	230	101300000	1000	0	0	-1	255
16385195	8338	362	0	-100	0	230	101300000	1000	0	0	-1	255
16397755	8338	349	0	-100	0	230	101300000	1000	0	0	-1	255
16435435	8338	357	0	-100	0	230	101300000	1000	0	0	-1	255
16447995	8338	357	0	-100	0	230	101300000	1000	0	0	-1	255
16460555	8338	357	0	-100	0	230	101300000	1000	0	0	-1	255
16473115	8340	360	0	-100	0	230	101300000	1000	0	0	-1	255
16485675	8338	364	0	-100	0	230	101300000	1000	0	0	-1	255
16498235	8340	363	0	-100	0	230	101300000	1000	0	0	-1	255
16510795	8340	364	0	-100	0	230	101300000	1000	0	0	-1	255
16523355	8340	362	0	-100	0	230	101300000	1000	0	0	-1	255
16535915	8340	360	0	-100	0	230	101300000	1000	0	0	-1	255
16548475	8342	359	0	-100	0	230	101300000	1000	0	0	-1	255
16561035	8343	360	0	-100	0	230	101300000	1000	0	0	-1	255
16573595	8335	362	0	-100	0	230	101300000	1000	0	0	-1	255
16648955	8342	358	0	-100	0	230	101300000	1000	0	0	-1	255
16661515	8340	362	0	-100	0	230	101300000	1000	0	0	-1	255
16674075	8338	361	0	-100	0	230	101300000	1000	0	0	-1	255
16686635	8338	361	0	-100	0	230	101300000	1000	0	0	-1	255
16699195	8340	359	0	-100	0	230	101300000	1000	0	0	-1	255
16711755	8342	359	0	-100	0	230	101300000	1000	0	0	-1	255
16724315	8340	355	0	-100	0	230	101300000	1000	0	0	-1	255
16736875	8343	359	0	-100	0	230	101300000	1000	0	0	-1	255
16749435	8343	359	0	-100	0	230	101300000	1000	0	0	-1	255
16761995	8338	357	0	-100	0	230	101300000	1000	0	0	-1	255
16774555	8343	360	0	-100	0	230	101300000	1000	0	0	-1	255
16787115	8345	360	0	-100	0	230	101300000	1000	0	0	-1	255
16824795	8345	360	0	-100	0	230	101300000	1000	0	0	-1	255
16837355	8347	359	0	-100	0	230	101300000	1000	0	0	-1	255
16849915	8340	358	0	-100	0	230	101300000	1000	0	0	-1	255
16862475	8345	362	0	-100	0	230	101300000	1000	0	0	-1	255
16875035	8347	360	0	-100	0	230	101300000	1000	0	0	-1	255
16887595	8350	362	0	-100	0	230	101300000	1000	0	0	-1	255
16900155	8347	361	0	-100	0	230	101300000	1000	0	0	-1	255
16912715	8338	358	0	-100	0	230	101300000	1000	0	0	-1	255
16925275	8340	356	0	-100	0	230	101300000	1000	0	0	-1	255
16937835	8347	355	0	-100	0	230	101300000	1000	0	0	-1	255
16950395	8345	355	0	-100	0	230	101300000	1000	0	0	-1	255
16962955	8342	358	0	-100	0	230	101300000	1000	0	0	-1	255
16975515	8335	360	0	-100	0	230	101300000	1000	0	0	-1	255
16988075	8340	360	0	-100	0	230	101300000	1000	0	0	-1	255
17000635	8342	362	0	-100	0	230	101300000	1000	0	0	-1	255
17013195	8338	362	0	-100	0	230	101300000	1000	0	0	-1	255
17025755	8337	360	0	-100	0	230	101300000	1000	0	0	-1	255
17038315	8342	361	0	-100	0	230	101300000	1000	0	0	-1	255
17050875	8345	360	0	-100	0	230	101300000	1000	0	0	-1	255
17063435	8345	358	0	-100	0	230	101300000	1000	0	0	-1	255
17075995	8347	359	0	-100	0	230	101300000	1000	0	0	-1	255
17088555	8347	354	0	-100	0	230	101300000	1000	0	0	-1	255
17101115	8343	360	0	-100	0	230	101300000	1000	0	0	-1	255
17113675	8338	360	0	-100	0	230	101300000	1000	0	0	-1	255
17126235	8343	357	0	-100	0	230	101300000	1000	0	0	-1	255
17138795	8342	358	0	-100	0	230	101300000	1000	0	0	-1	255
17151355	8340	359	0	-100	0	230	101300000	1000	0	0	-1	255
17163915	8336	357	0	-100	0	230	101300000	1000	0	0	-1	255
17176475	8338	362	0	-100	0	230	101300000	1000	0	0	-1	255
17189035	8338	361	0	-100	0	230	101300000	1000	0	0	-1	255
17201595	8340	361	0	-100	0	230	101300000	1000	0	0	-1	255
17214155	8345	363	0	-100	0	230	101300000	1000	0	0	-1	255
17226715	8335	361	0	-100	0	230	101300000	1000	0	0	-1	255
17239275	8347	362	0	-100	0	230	101300000	1000	0	0	-1	255
17251835	8342	359	0	-100	0	230	101300000	1000	0	0	-1	255
17264395	8333	356	0	-100	0	230	101300000	1000	0	0	-1	255
17276955	8345	359	0	-100	0	230	101300000	1000	0	0	-1	255
17289515	8340	359	0	-100	0	230	101300000	1000	0	0	-1	255
17302075	8335	361	0	-100	0	230	101300000	1000	0	0	-1	255
17314635	8333	357	0	-100	0	230	101300000	1000	0	0	-1	255
17327195	8338	361	0	-100	0	230	101300000	1000	0	0	-1	255
17339755	8340	357	0	-100	0	230	101300000	1000	0	0	-1	255
17352315	8338	358	0	-100	0	230	101300000	1000	0	0	-1	255
17364875	8342	359	0	-100	0	230	101300000	1000	0	0	-1	255
17377435	8349	359	0	-100	0	230	101300000	1000	0	0	-1	255
17389995	8338	358	0	-100	0	230	101300000	1000	0	0	-1	255
17402555	8336	359	0	-100	0	230	101300000	1000	0	0	-1	255
17415115	8342	357	0	-100	0	230	101300000	1000	0	0	-1	255
17427675	8343	361	0	-100	0	230	101300000	1000	0	0	-1	255
17440235	8347	360	0	-100	0	230	101300000	1000	0	0	-1	255
17452795	8342	359	0	-100	0	230	101300000	1000	0	0	-1	255
17465355	8342	362	0	-100	0	230	101300000	1000	0	0	-1	255
17477915	8342	362	0	-100	0	230	101300000	1000	0	0	-1	255
17490475	8338	361	0	-100	0	230	101300000	1000	0	0	-1	255
17503035	8347	362	0	-100	0	230	101300000	1000	0	0	-1	255
17515595	8340	359	0	-100	0	230	101300000	1000	0	0	-1	255
17528155	8359	360	0	-100	0	230	101300000	1000	0	0	-1	255
17540715	8342	359	0	-100	0	230	101300000	1000	0	0	-1	255
17553275	8342	364	0	-100	0	230	101300000	1000	0	0	-1	255
17565835	8345	360	0	-100	0	230	101300000	1000	0	0	-1	255
17578395	8342	356	0	-100	0	230	101300000	1000	0	0	-1	255
17590955	8345	358	0	-100	0	230	101300000	1000	0	0	-1	255
17603515	8343	360	0	-100	0	230	101300000	1000	0	0	-1	255
17616075	8343	359	0	-100	0	230	101300000	1000	0	0	-1	255
17628635	8347	358	0	-100	0	230	101300000	1000	0	0	-1	255
17641195	8343	361	0	-100	0	230	101300000	1000	0	0	-1	255
17653755	8340	359	0	-100	0	230	101300000	1000	0	0	-1	255
17666315	8343	358	0	-100	0	230	101300000	1000	0	0	-1	255
17678875	8350	363	0	-100	0	230	101300000	1000	0	0	-1	255
17691435	8343	359	0	-100	0	230	101300000	1000	0	0	-1	255
17703995	8345	358	0	-100	0	230	101300000	1000	0	0	-1	255
17716555	8335	362	0	-100	0	230	101300000	1000	0	0	-1	255
17729115	8345	359	0	-100	0	230	101300000	1000	0	0	-1	255
17741675	8345	360	0	-100	0	230	101300000	1000	0	0	-1	255
17754235	8342	357	0	-100	0	230	101300000	1000	0	0	-1	255
17766795	8333	360	0	-100	0	230	101300000	1000	0	0	-1	255
17779355	8340	360	0	-100	0	230	101300000	1000	0	0	-1	255
17791915	8350	362	0	-100	0	230	101300000	1000	0	0	-1	255
17804475	8345	358	0	-100	0	230	101300000	1000	0	0	-1	255
17817035	8345	355	0	-100	0	230	101300000	1000	0	0	-1	255
17829595	8345	361	0	-100	0	230	101300000	1000	0	0	-1	255
17842155	8356	360	0	-100	0	230	101300000	1000	0	0	-1	255
17854715	8345	364	0	-100	0	230	101300000	1000	0	0	-1	255
17867275	8340	358	0	-100	0	230	101300000	1000	0	0	-1	255
17879835	8347	359	0	-100	0	230	101300000	1000	0	0	-1	255
17892395	8343	358	0	-100	0	230	101300000	1000	0	0	-1	255
17904955	8340	359	0	-100	0	230	101300000	1000	0	0	-1	255
17917515	8340	358	0	-100	0	230	101300000	1000	0	0	-1	255
17930075	8333	360	0	-100	0	230	101300000	1000	0	0	-1	255
17942635	8340	362	0	-100	0	230	101300000	1000	0	0	-1	255
17955195	8335	362	0	-100	0	230	101300000	1000	0	0	-1	255
17967755	8338	360	0	-100	0	230	101300000	1000	0	0	-1	255
17980315	8340	362	0	-100	0	230	101300000	1000	0	0	-1	255
17992875	8340	361	0	-100	0	230	101300000	1000	0	0	-1	255
18005435	8345	359	0	-100	0	230	101300000	1000	0	0	-1	255
18017995	8345	361	0	-100	0	230	101300000	1000	0	0	-1	255
18030555	8340	364	0	-100	0	230	101300000	1000	0	0	-1	255
18043115	8345	357	0	-100	0	230	101300000	1000	0	0	-1	255
18055675	8343	365	0	-100	0	230	101300000	1000	0	0	-1	255
18068235	8340	358	0	-100	0	230	101300000	1000	0	0	-1	255
18080795	8340	357	0	-100	0	230	101300000	1000	0	0	-1	255
18093355	8345	357	0	-100	0	230	101300000	1000	0	0	-1	255
18105915	8338	357	0	-100	0	230	101300000	1000	0	0	-1	255
18118475	8336	359	0	-100	0	230	101300000	1000	0	0	-1	255
18131035	8340	362	0	-100	0	230	101300000	1000	0	0	-1	255
18143595	8340	361	0	-100	0	230	101300000	1000	0	0	-1	255
18156155	8350	357	0	-100	0	230	101300000	1000	0	0	-1	255
18168715	8338	359	0	-100	0	230	101300000	1000	0	0	-1	255
18181275	8335	366	0	-100	0	230	101300000	1000	0	0	-1	255
18193835	8337	361	0	-100	0	230	101300000	1000	0	0	-1	255
18206395	8338	358	0	-100	0	230	101300000	1000	0	0	-1	255
18218955	8342	358	0	-100	0	230	101300000	1000	0	0	-1	255
18231515	8340	363	0	-100	0	230	101300000	1000	0	0	-1	255
18244075	8347	360	0	-100	0	230	101300000	1000	0	0	-1	255
18256635	8331	361	0	-100	0	230	101300000	1000	0	0	-1	255
18269195	8347	361	0	-100	0	230	101300000	1000	0	0	-1	255
18281755	8342	354	0	-100	0	230	101300000	1000	0	0	-1	255
18294315	8345	363	0	-100	0	230	101300000	1000	0	0	-1	255
18306875	8345	357	0	-100	0	230	101300000	1000	0	0	-1	255
18319435	8331	362	0	-100	0	230	101300000	1000	0	0	-1	255
18331995	8340	362	0	-100	0	230	101300000	1000	0	0	-1	255
18344555	8340	357	0	-100	0	230	101300000	1000	0	0	-1	255
18357115	8338	364	0	-100	0	230	101300000	1000	0	0	-1	255
18369675	8345	358	0	-100	0	230	101300000	1000	0	0	-1	255
18382235	8340	362	0	-100	0	230	101300000	1000	0	0	-1	255
18394795	8343	361	0	-100	0	230	101300000	1000	0	0	-1	255
18407355	8338	356	0	-100	0	230	101300000	1000	0	0	-1	255
18419915	8345	363	0	-100	0	230	101300000	1000	0	0	-1	255
18432475	8345	358	0	-100	0	230	101300000	1000	0	0	-1	255
18445035	8338	357	0	-100	0	230	101300000	1000	0	0	-1	255
18457595	8340	364	0	-100	0	230	101300000	1000	0	0	-1	255
18470155	8352	359	0	-100	0	230	101300000	1000	0	0	-1	255
18482715	8345	362	0	-100	0	230	101300000	1000	0	0	-1	255
18495275	8338	361	0	-100	0	230	101300000	1000	0	0	-1	255
18507835	8338	365	0	-100	0	230	101300000	1000	0	0	-1	255
18520395	8342	361	0	-100	0	230	101300000	1000	0	0	-1	255
18532955	8345	349	0	-100	0	230	101300000	1000	0	0	-1	255
18545515	8343	357	0	-100	0	230	101300000	1000	0	0	-1	255
18558075	8338	357	0	-100	0	230	101300000	1000	0	0	-1	255
18570635	8338	360	0	-100	0	230	101300000	1000	0	0	-1	255
18583195	8340	358	0	-100	0	230	101300000	1000	0	0	-1	255
18595755	8343	361	0	-100	0	230	101300000	1000	0	0	-1	255
18608315	8345	359	0	-100	0	230	101300000	1000	0	0	-1	255
18620875	8342	358	0	-100	0	230	101300000	1000	0	0	-1	255
18633435	8340	359	0	-100	0	230	101300000	1000	0	0	-1	255
18645995	8335	361	0	-100	0	230	101300000	1000	0	0	-1	255
18658555	8347	362	0	-100	0	230	101300000	1000	0	0	-1	255
18671115	8345	360	0	-100	0	230	101300000	1000	0	0	-1	255
18683675	8340	362	0	-100	0	230	101300000	1000	0	0	-1	255
18696235	8340	364	0	-100	0	230	101300000	1000	0	0	-1	255
18708795	8347	358	0	-100	0	230	101300000	1000	0	0	-1	255
18721355	8345	359	0	-100	0	230	101300000	1000	0	0	-1	255
18733915	8340	357	0	-100	0	230	101300000	1000	0	0	-1	255
18746475	8342	360	0	-100	0	230	101300000	1000	0	0	-1	255
18759035	8335	363	0	-100	0	230	101300000	1000	0	0	-1	255
18771595	8352	362	0	-100	0	230	101300000	1000	0	0	-1	255
18784155	8352	359	0	-100	0	230	101300000	1000	0	0	-1	255
18796715	8340	365	0	-100	0	230	101300000	1000	0	0	-1	255
18809275	8345	358	0	-100	0	230	101300000	1000	0	0	-1	255
18821835	8347	357	0	-100	0	230	101300000	1000	0	0	-1	255
18834395	8343	358	0	-100	0	230	101300000	1000	0	0	-1	255
18846955	8340	359	0	-100	0	230	101300000	1000	0	0	-1	255
18859515	8340	359	0	-100	0	230	101300000	1000	0	0	-1	255
18872075	8342	357	0	-100	0	230	101300000	1000	0	0	-1	255
18884635	8342	358	0	-100	0	230	101300000	1000	0	0	-1	255
18897195	8340	357	0	-100	0	230	101300000	1000	0	0	-1	255
18909755	8336	359	0	-100	0	230	101300000	1000	0	0	-1	255
18922315	8340	357	0	-100	0	230	101300000	1000	0	0	-1	255
18934875	8343	360	0	-100	0	230	101300000	1000	0	0	-1	255
18947435	8345	362	0	-100	0	230	101300000	1000	0	0	-1	255
18959995	8347	363	0	-100	0	230	101300000	1000	0	0	-1	255
18972555	8345	358	0	-100	0	230	101300000	1000	0	0	-1	255
18985115	8347	361	0	-100	0	230	101300000	1000	0	0	-1	255
18997675	8347	361	0	-100	0	230	101300000	1000	0	0	-1	255
19010235	8347	359	0	-100	0	230	101300000	1000	0	0	-1	255
19022795	8345	361	0	-100	0	230	101300000	1000	0	0	-1	255
19035355	8350	361	0	-100	0	230	101300000	1000	0	0	-1	255
19047915	8345	355	0	-100	0	230	101300000	1000	0	0	-1	255
19060475	8345	362	0	-100	0	230	101300000	1000	0	0	-1	255
19073035	8343	357	0	-100	0	230	101300000	1000	0	0	-1	255
19085595	8338	361	0	-100	0	230	101300000	1000	0	0	-1	255
19098155	8345	361	0	-100	0	230	101300000	1000	0	0	-1	255
19110715	8338	357	0	-100	0	230	101300000	1000	0	0	-1	255
19123275	8338	361	0	-100	0	230	101300000	1000	0	0	-1	255
19135835	8338	362	0	-100	0	230	101300000	1000	0	0	-1	255
19148395	8347	362	0	-100	0	230	101300000	1000	0	0	-1	255
19160955	8347	359	0	-100	0	230	101300000	1000	0	0	-1	255
19173515	8342	363	0	-100	0	230	101300000	1000	0	0	-1	255
19186075	8335	362	0	-100	0	230	101300000	1000	0	0	-1	255
19198635	8345	365	0	-100	0	230	101300000	1000	0	0	-1	255
19211195	8340	359	0	-100	0	230	101300000	1000	0	0	-1	255
19223755	8338	364	0	-100	0	230	101300000	1000	0	0	-1	255
19236315	8340	361	0	-100	0	230	101300000	1000	0	0	-1	255
19248875	8342	361	0	-100	0	230	101300000	1000	0	0	-1	255
19261435	8345	359	0	-100	0	230	101300000	1000	0	0	-1	255
19273995	8340	358	0	-100	0	230	101300000	1000	0	0	-1	255
19286555	8340	364	0	-100	0	230	101300000	1000	0	0	-1	255
19299115	8347	359	0	-100	0	230	101300000	1000	0	0	-1	255
19311675	8343	357	0	-100	0	230	101300000	1000	0	0	-1	255
19324235	8342	365	0	-100	0	230	101300000	1000	0	0	-1	255
19336795	8342	360	0	-100	0	230	101300000	1000	0	0	-1	255
19349355	8343	361	0	-100	0	230	101300000	1000	0	0	-1	255
19361915	8335	361	0	-100	0	230	101300000	1000	0	0	-1	255
19374475	8337	362	0	-100	0	230	101300000	1000	0	0	-1	255
19387035	8343	359	0	-100	0	230	101300000	1000	0	0	-1	255
19399595	8333	361	0	-100	0	230	101300000	1000	0	0	-1	255
19412155	8347	364	0	-100	0	230	101300000	1000	0	0	-1	255
19424715	8347	359	0	-100	0	230	101300000	1000	0	0	-1	255
19437275	8338	361	0	-100	0	230	101300000	1000	0	0	-1	255
19449835	8343	358	0	-100	0	230	101300000	1000	0	0	-1	255
19462395	8336	359	0	-100	0	230	101300000	1000	0	0	-1	255
19474955	8338	362	0	-100	0	230	101300000	1000	0	0	-1	255
19487515	8347	359	0	-100	0	230	101300000	1000	0	0	-1	255
19500075	8340	362	0	-100	0	230	101300000	1000	0	0	-1	255
19575435	8343	360	0	-100	0	230	101300000	1000	0	0	-1	255
19587995	8335	361	0	-100	0	230	101300000	1000	0	0	-1	255
19600555	8340	361	0	-100	0	230	101300000	1000	0	0	-1	255
19613115	8345	358	0	-100	0	230	101300000	1000	0	0	-1	255
19625675	8345	359	0	-100	0	230	101300000	1000	0	0	-1	255
19638235	8340	358	0	-100	0	230	101300000	1000	0	0	-1	255
19650795	8338	362	0	-100	0	230	101300000	1000	0	0	-1	255
19663355	8340	361	0	-100	0	230	101300000	1000	0	0	-1	255
19675915	8341	357	0	-100	0	230	101300000	1000	0	0	-1	255
19688475	8336	358	0	-100	0	230	101300000	1000	0	0	-1	255
19701035	8340	363	0	-100	0	230	101300000	1000	0	0	-1	255
19776395	8341	360	0	-100	0	230	101300000	1000	0	0	-1	255
19788955	8336	359	0	-100	0	230	101300000	1000	0	0	-1	255
19801515	8335	353	0	-100	0	230	101300000	1000	0	0	-1	255
19814075	8333	364	0	-100	0	230	101300000	1000	0	0	-1	255
19826635	8342	362	0	-100	0	230	101300000	1000	0	0	-1	255
19839195	8347	359	0	-100	0	230	101300000	1000	0	0	-1	255
19851755	8345	362	0	-100	0	230	101300000	1000	0	0	-1	255
19864315	8342	357	0	-100	0	230	101300000	1000	0	0	-1	255
19876875	8333	361	0	-100	0	230	101300000	1000	0	0	-1	255
19889435	8342	359	0	-100	0	230	101300000	1000	0	0	-1	255
19901995	8347	359	0	-100	0	230	101300000	1000	0	0	-1	255
19914555	8338	360	0	-100	0	230	101300000	1000	0	0	-1	255
19927115	8340	363	0	-100	0	230	101300000	1000	0	0	-1	255
19939675	8345	361	0	-100	0	230	101300000	1000	0	0	-1	255
19952235	8347	360	0	-100	0	230	101300000	1000	0	0	-1	255
19964795	8338	361	0	-100	0	230	101300000	1000	0	0	-1	255
19977355	8342	360	0	-100	0	230	101300000	1000	0	0	-1	255
19989915	8340	363	0	-100	0	230	101300000	1000	0	0	-1	255
20002475	8336	361	0	-100	0	230	101300000	1000	0	0	-1	255
20015035	8340	364	0	-100	0	230	101300000	1000	0	0	-1	255
20027595	8347	362	0	-100	0	230	101300000	1000	0	0	-1	255
20040155	8349	365	0	-100	0	230	101300000	1000	0	0	-1	255
20052715	8340	362	0	-100	0	230	101300000	1000	0	0	-1	255
20065275	8343	357	0	-100	0	230	101300000	1000	0	0	-1	255
20077835	8342	360	0	-100	0	230	101300000	1000	0	0	-1	255
20090395	8340	363	0	-100	0	230	101300000	1000	0	0	-1	255
20102955	8340	362	0	-100	0	230	101300000	1000	0	0	-1	255
20115515	8345	360	0	-100	0	230	101300000	1000	0	0	-1	255
20128075	8340	365	0	-100	0	230	101300000	1000	0	0	-1	255
20140635	8343	357	0	-100	0	230	101300000	1000	0	0	-1	255
20153195	8335	364	0	-100	0	230	101300000	1000	0	0	-1	255
20165755	8340	362	0	-100	0	230	101300000	1000	0	0	-1	255
20178315	8347	358	0	-100	0	230	101300000	1000	0	0	-1	255
20190875	8338	362	0	-100	0	230	101300000	1000	0	0	-1	255
20203435	8338	364	0	-100	0	230	101300000	1000	0	0	-1	255
20215995	8349	363	0	-100	0	230	101300000	1000	0	0	-1	255
20228555	8342	362	0	-100	0	230	101300000	1000	0	0	-1	255
20241115	8340	362	0	-100	0	230	101300000	1000	0	0	-1	255
20253675	8343	357	0	-100	0	230	101300000	1000	0	0	-1	255
20266235	8340	362	0	-100	0	230	101300000	1000	0	0	-1	255
20278795	8340	364	0	-100	0	230	101300000	1000	0	0	-1	255
20291355	8342	358	0	-100	0	230	101300000	1000	0	0	-1	255
20303915	8338	365	0	-100	0	230	101300000	1000	0	0	-1	255
20316475	8345	349	0	-100	0	230	101300000	1000	0	0	-1	255
20329035	8338	360	0	-100	0	230	101300000	1000	0	0	-1	255
20341595	8342	361	0	-100	0	230	101300000	1000	0	0	-1	255
20354155	8354	362	0	-100	0	230	101300000	1000	0	0	-1	255
20366715	8338	357	0	-100	0	230	101300000	1000	0	0	-1	255
20379275	8340	362	0	-100	0	230	101300000	1000	0	0	-1	255
20391835	8352	360	0	-100	0	230	101300000	1000	0	0	-1	255
20404395	8345	359	0	-100	0	230	101300000	1000	0	0	-1	255
20416955	8342	362	0	-100	0	230	101300000	1000	0	0	-1	255
20429515	8338	363	0	-100	0	230	101300000	1000	0	0	-1	255
20442075	8350	362	0	-100	0	230	101300000	1000	0	0	-1	255
20454635	8338	361	0	-100	0	230	101300000	1000	0	0	-1	255
20467195	8338	362	0	-100	0	230	101300000	1000	0	0	-1	255
20479755	8347	358	0	-100	0	230	101300000	1000	0	0	-1	255
20492315	8335	360	0	-100	0	230	101300000	1000	0	0	-1	255
20504875	8342	358	0	-100	0	230	101300000	1000	0	0	-1	255
20517435	8340	360	0	-100	0	230	101300000	1000	0	0	-1	255
20529995	8345	359	0	-100	0	230	101300000	1000	0	0	-1	255
20542555	8340	361	0	-100	0	230	101300000	1000	0	0	-1	255
20555115	8345	361	0	-100	0	230	101300000	1000	0	0	-1	255
20567675	8338	358	0	-100	0	230	101300000	1000	0	0	-1	255
20580235	8338	362	0	-100	0	230	101300000	1000	0	0	-1	255
20592795	8345	360	0	-100	0	230	101300000	1000	0	0	-1	255
20605355	8340	359	0	-100	0	230	101300000	1000	0	0	-1	255
20617915	8340	366	0	-100	0	230	101300000	1000	0	0	-1	255
20630475	8345	359	0	-100	0	230	101300000	1000	0	0	-1	255
20643035	8342	358	0	-100	0	230	101300000	1000	0	0	-1	255
20655595	8338	361	0	-100	0	230	101300000	1000	0	0	-1	255
20668155	8347	364	0	-100	0	230	101300000	1000	0	0	-1	255
20680715	8347	361	0	-100	0	230	101300000	1000	0	0	-1	255
20693275	8338	355	0	-100	0	230	101300000	1000	0	0	-1	255
20705835	8340	363	0	-100	0	230	101300000	1000	0	0	-1	255
20718395	8340	359	0	-100	0	230	101300000	1000	0	0	-1	255
20730955	8345	359	0	-100	0	230	101300000	1000	0	0	-1	255
20743515	8338	364	0	-100	0	230	101300000	1000	0	0	-1	255
20756075	8345	360	0	-100	0	230	101300000	1000	0	0	-1	255
20768635	8338	360	0	-100	0	230	101300000	1000	0	0	-1	255
20781195	8338	365	0	-100	0	230	101300000	1000	0	0	-1	255
20793755	8340	364	0	-100	0	230	101300000	1000	0	0	-1	255
20806315	8336	361	0	-100	0	230	101300000	1000	0	0	-1	255
20818875	8340	359	0	-100	0	230	101300000	1000	0	0	-1	255
20831435	8338	358	0	-100	0	230	101300000	1000	0	0	-1	255
20843995	8340	359	0	-100	0	230	101300000	1000	0	0	-1	255
20856555	8343	362	0	-100	0	230	101300000	1000	0	0	-1	255
20869115	8335	357	0	-100	0	230	101300000	1000	0	0	-1	255
20881675	8338	363	0	-100	0	230	101300000	1000	0	0	-1	255
20894235	8345	359	0	-100	0	230	101300000	1000	0	0	-1	255
20906795	8342	364	0	-100	0	230	101300000	1000	0	0	-1	255
20919355	8347	358	0	-100	0	230	101300000	1000	0	0	-1	255
20931915	8345	359	0	-100	0	230	101300000	1000	0	0	-1	255
20944475	8338	362	0	-100	0	230	101300000	1000	0	0	-1	255
20957035	8338	363	0	-100	0	230	101300000	1000	0	0	-1	255
20969595	8343	357	0	-100	0	230	101300000	1000	0	0	-1	255
20982155	8352	357	0	-100	0	230	101300000	1000	0	0	-1	255
20994715	8342	365	0	-100	0	230	101300000	1000	0	0	-1	255
21007275	8345	361	0	-100	0	230	101300000	1000	0	0	-1	255
21019835	8338	357	0	-100	0	230	101300000	1000	0	0	-1	255
21032395	8333	362	0	-100	0	230	101300000	1000	0	0	-1	255
21044955	8340	365	0	-100	0	230	101300000	1000	0	0	-1	255
21057515	8338	358	0	-100	0	230	101300000	1000	0	0	-1	255
21070075	8347	361	0	-100	0	230	101300000	1000	0	0	-1	255
21082635	8336	363	0	-100	0	230	101300000	1000	0	0	-1	255
21095195	8345	362	0	-100	0	230	101300000	1000	0	0	-1	255
21107755	8345	360	0	-100	0	230	101300000	1000	0	0	-1	255
21120315	8342	358	0	-100	0	230	101300000	1000	0	0	-1	255
21132875	8342	362	0	-100	0	230	101300000	1000	0	0	-1	255
21145435	8347	362	0	-100	0	230	101300000	1000	0	0	-1	255
21157995	8342	358	0	-100	0	230	101300000	1000	0	0	-1	255
21170555	8340	365	0	-100	0	230	101300000	1000	0	0	-1	255
21183115	8347	361	0	-100	0	230	101300000	1000	0	0	-1	255
21195675	8338	364	0	-100	0	230	101300000	1000	0	0	-1	255
21208235	8342	362	0	-100	0	230	101300000	1000	0	0	-1	255
21220795	8342	360	0	-100	0	230	101300000	1000	0	0	-1	255
21233355	8345	363	0	-100	0	230	101300000	1000	0	0	-1	255
21245915	8340	358	0	-100	0	230	101300000	1000	0	0	-1	255
21258475	8335	359	0	-100	0	230	101300000	1000	0	0	-1	255
21271035	8342	359	0	-100	0	230	101300000	1000	0	0	-1	255
21283595	8343	358	0	-100	0	230	101300000	1000	0	0	-1	255
21296155	8349	361	0	-100	0	230	101300000	1000	0	0	-1	255
21308715	8343	361	0	-100	0	230	101300000	1000	0	0	-1	255
21321275	8335	361	0	-100	0	230	101300000	1000	0	0	-1	255
21333835	8345	358	0	-100	0	230	101300000	1000	0	0	-1	255
21346395	8342	362	0	-100	0	230	101300000	1000	0	0	-1	255
21358955	8345	362	0	-100	0	230	101300000	1000	0	0	-1	255
21371515	8342	362	0	-100	0	230	101300000	1000	0	0	-1	255
21384075	8338	358	0	-100	0	230	101300000	1000	0	0	-1	255
21396635	8336	360	0	-100	0	230	101300000	1000	0	0	-1	255
21409195	8340	362	0	-100	0	230	101300000	1000	0	0	-1	255
21421755	8342	359	0	-100	0	230	101300000	1000	0	0	-1	255
21434315	8345	362	0	-100	0	230	101300000	1000	0	0	-1	255
21446875	8343	361	0	-100	0	230	101300000	1000	0	0	-1	255
21459435	8338	360	0	-100	0	230	101300000	1000	0	0	-1	255
21471995	8347	361	0	-100	0	230	101300000	1000	0	0	-1	255
21484555	8342	363	0	-100	0	230	101300000	1000	0	0	-1	255
21497115	8349	361	0	-100	0	230	101300000	1000	0	0	-1	255
21509675	8342	363	0	-100	0	230	101300000	1000	0	0	-1	255
21522235	8340	361	0	-100	0	230	101300000	1000	0	0	-1	255
21534795	8337	363	0	-100	0	230	101300000	1000	0	0	-1	255
21547355	8343	362	0	-100	0	230	101300000	1000	0	0	-1	255
21559915	8340	364	0	-100	0	230	101300000	1000	0	0	-1	255
21572475	8340	360	0	-100	0	230	101300000	1000	0	0	-1	255
21585035	8340	362	0	-100	0	230	101300000	1000	0	0	-1	255
21597595	8347	359	0	-100	0	230	101300000	1000	0	0	-1	255
21610155	8349	361	0	-100	0	230	101300000	1000	0	0	-1	255
21622715	8345	362	0	-100	0	230	101300000	1000	0	0	-1	255
21635275	8333	363	0	-100	0	230	101300000	1000	0	0	-1	255
21647835	8347	360	0	-100	0	230	101300000	1000	0	0	-1	255
21660395	8338	361	0	-100	0	230	101300000	1000	0	0	-1	255
21672955	8335	361	0	-100	0	230	101300000	1000	0	0	-1	255
21685515	8342	359	0	-100	0	230	101300000	1000	0	0	-1	255
21698075	8335	362	0	-100	0	230	101300000	1000	0	0	-1	255
21710635	8342	358	0	-100	0	230	101300000	1000	0	0	-1	255
21723195	8338	364	0	-100	0	230	101300000	1000	0	0	-1	255
21735755	8340	361	0	-100	0	230	101300000	1000	0	0	-1	255
21748315	8345	363	0	-100	0	230	101300000	1000	0	0	-1	255
21760875	8343	358	0	-100	0	230	101300000	1000	0	0	-1	255
21773435	8338	363	0	-100	0	230	101300000	1000	0	0	-1	255
21785995	8347	364	0	-100	0	230	101300000	1000	0	0	-1	255
21798555	8338	360	0	-100	0	230	101300000	1000	0	0	-1	255
21811115	8335	366	0	-100	0	230	101300000	1000	0	0	-1	255
21823675	8343	360	0	-100	0	230	101300000	1000	0	0	-1	255
21836235	8335	364	0	-100	0	230	101300000	1000	0	0	-1	255
21848795	8340	360	0	-100	0	230	101300000	1000	0	0	-1	255
21861355	8342	362	0	-100	0	230	101300000	1000	0	0	-1	255
21873915	8343	359	0	-100	0	230	101300000	1000	0	0	-1	255
21886475	8333	363	0	-100	0	230	101300000	1000	0	0	-1	255
21899035	8347	362	0	-100	0	230	101300000	1000	0	0	-1	255
21911595	8335	362	0	-100	0	230	101300000	1000	0	0	-1	255
21924155	8345	362	0	-100	0	230	101300000	1000	0	0	-1	255
21936715	8347	361	0	-100	0	230	101300000	1000	0	0	-1	255
21949275	8342	361	0	-100	0	230	101300000	1000	0	0	-1	255
21961835	8350	362	0	-100	0	230	101300000	1000	0	0	-1	255
21974395	8342	362	0	-100	0	230	101300000	1000	0	0	-1	255
21986955	8345	360	0	-100	0	230	101300000	1000	0	0	-1	255
21999515	8342	359	0	-100	0	230	101300000	1000	0	0	-1	255
22012075	8340	359	0	-100	0	230	101300000	1000	0	0	-1	255
22024635	8340	362	0	-100	0	230	101300000	1000	0	0	-1	255
22037195	8345	360	0	-100	0	230	101300000	1000	0	0	-1	255
22049755	8338	364	0	-100	0	230	101300000	1000	0	0	-1	255
22062315	8340	360	0	-100	0	230	101300000	1000	0	0	-1	255
22074875	8338	357	0	-100	0	230	101300000	1000	0	0	-1	255
22087435	8338	364	0	-100	0	230	101300000	1000	0	0	-1	255
22099995	8347	358	0	-100	0	230	101300000	1000	0	0	-1	255
22112555	8335	362	0	-100	0	230	101300000	1000	0	0	-1	255
22125115	8342	359	0	-100	0	230	101300000	1000	0	0	-1	255
22137675	8342	363	0	-100	0	230	101300000	1000	0	0	-1	255
22150235	8340	360	0	-100	0	230	101300000	1000	0	0	-1	255
22162795	8337	360	0	-100	0	230	101300000	1000	0	0	-1	255
22175355	8343	363	0	-100	0	230	101300000	1000	0	0	-1	255
22187915	8338	361	0	-100	0	230	101300000	1000	0	0	-1	255
22200475	8343	358	0	-100	0	230	101300000	1000	0	0	-1	255
22213035	8340	365	0	-100	0	230	101300000	1000	0	0	-1	255
22225595	8347	358	0	-100	0	230	101300000	1000	0	0	-1	255
22238155	8349	362	0	-100	0	230	101300000	1000	0	0	-1	255
22250715	8340	361	0	-100	0	230	101300000	1000	0	0	-1	255
22263275	8338	362	0	-100	0	230	101300000	1000	0	0	-1	255
22275835	8340	361	0	-100	0	230	101300000	1000	0	0	-1	255
22288395	8340	362	0	-100	0	230	101300000	1000	0	0	-1	255
22300955	8342	360	0	-100	0	230	101300000	1000	0	0	-1	255
22313515	8340	362	0	-100	0	230	101300000	1000	0	0	-1	255
22326075	8338	358	0	-100	0	230	101300000	1000	0	0	-1	255
22338635	8342	357	0	-100	0	230	101300000	1000	0	0	-1	255
22351195	8340	362	0	-100	0	230	101300000	1000	0	0	-1	255
22363755	8338	361	0	-100	0	230	101300000	1000	0	0	-1	255
22376315	8342	360	0	-100	0	230	101300000	1000	0	0	-1	255
22388875	8338	360	0	-100	0	230	101300000	1000	0	0	-1	255
22401435	8343	357	0	-100	0	230	101300000	1000	0	0	-1	255
22413995	8340	358	0	-100	0	230	101300000	1000	0	0	-1	255
22426555	8340	360	0	-100	0	230	101300000	1000	0	0	-1	255
22439115	8340	362	0	-100	0	230	101300000	1000	0	0	-1	255
22451675	8340	358	0	-100	0	230	101300000	1000	0	0	-1	255
22489355	8340	362	0	-100	0	230	101300000	1000	0	0	-1	255
22501915	8342	360	0	-100	0	230	101300000	1000	0	0	-1	255
22514475	8340	361	0	-100	0	230	101300000	1000	0	0	-1	255
22527035	8342	358	0	-100	0	230	101300000	1000	0	0	-1	255
22539595	8335	361	0	-100	0	230	101300000	1000	0	0	-1	255
22552155	8357	363	0	-100	0	230	101300000	1000	0	0	-1	255
22564715	8333	360	0	-100	0	230	101300000	1000	0	0	-1	255
22577275	8345	358	0	-100	0	230	101300000	1000	0	0	-1	255
22589835	8342	362	0	-100	0	230	101300000	1000	0	0	-1	255
22602395	8345	361	0	-100	0	230	101300000	1000	0	0	-1	255
22614955	8340	364	0	-100	0	230	101300000	1000	0	0	-1	255
22627515	8340	360	0	-100	0	230	101300000	1000	0	0	-1	255
22690315	8335	362	0	-100	0	230	101300000	1000	0	0	-1	255
22702875	8342	363	0	-100	0	230	101300000	1000	0	0	-1	255
22715435	8338	359	0	-100	0	230	101300000	1000	0	0	-1	255
22727995	8338	358	0	-100	0	230	101300000	1000	0	0	-1	255
22740555	8340	361	0	-100	0	230	101300000	1000	0	0	-1	255
22753115	8345	361	0	-100	0	230	101300000	1000	0	0	-1	255
22765675	8333	363	0	-100	0	230	101300000	1000	0	0	-1	255
22778235	8345	357	0	-100	0	230	101300000	1000	0	0	-1	255
22790795	8340	363	0	-100	0	230	101300000	1000	0	0	-1	255
22803355	8342	360	0	-100	0	230	101300000	1000	0	0	-1	255
22815915	8342	362	0	-100	0	230	101300000	1000	0	0	-1	255
22828475	8335	359	0	-100	0	230	101300000	1000	0	0	-1	255
22841035	8340	362	0	-100	0	230	101300000	1000	0	0	-1	255
22853595	8338	362	0	-100	0	230	101300000	1000	0	0	-1	255
22866155	8345	362	0	-100	0	230	101300000	1000	0	0	-1	255
22878715	8340	360	0	-100	0	230	101300000	1000	0	0	-1	255
22891275	8342	363	0	-100	0	230	101300000	1000	0	0	-1	255
22903835	8338	360	0	-100	0	230	101300000	1000	0	0	-1	255
22916395	8347	363	0	-100	0	230	101300000	1000	0	0	-1	255
22928955	8340	363	0	-100	0	230	101300000	1000	0	0	-1	255
22941515	8338	360	0	-100	0	230	101300000	1000	0	0	-1	255
22954075	8345	362	0	-100	0	230	101300000	1000	0	0	-1	255
22966635	8338	362	0	-100	0	230	101300000	1000	0	0	-1	255
22979195	8335	357	0	-100	0	230	101300000	1000	0	0	-1	255
22991755	8349	362	0	-100	0	230	101300000	1000	0	0	-1	255
23004315	8342	360	0	-100	0	230	101300000	1000	0	0	-1	255
23016875	8338	363	0	-100	0	230	101300000	1000	0	0	-1	255
23029435	8340	360	0	-100	0	230	101300000	1000	0	0	-1	255
23041995	8337	354	0	-100	0	230	101300000	1000	0	0	-1	255
23054555	8347	362	0	-100	0	230	101300000	1000	0	0	-1	255
23067115	8342	364	0	-100	0	230	101300000	1000	0	0	-1	255
23079675	8350	359	0	-100	0	230	101300000	1000	0	0	-1	255
23092235	8338	358	0	-100	0	230	101300000	1000	0	0	-1	255
23104795	8347	359	0	-100	0	230	101300000	1000	0	0	-1	255
23117355	8338	358	0	-100	0	230	101300000	1000	0	0	-1	255
23129915	8338	361	0	-100	0	230	101300000	1000	0	0	-1	255
23142475	8342	359	0	-100	0	230	101300000	1000	0	0	-1	255
23155035	8338	361	0	-100	0	230	101300000	1000	0	0	-1	255
23167595	8352	363	0	-100	0	230	101300000	1000	0	0	-1	255
23180155	8350	361	0	-100	0	230	101300000	1000	0	0	-1	255
23192715	8338	361	0	-100	0	230	101300000	1000	0	0	-1	255
23205275	8345	359	0	-100	0	230	101300000	1000	0	0	-1	255
23217835	8342	362	0	-100	0	230	101300000	1000	0	0	-1	255
23230395	8338	363	0	-100	0	230	101300000	1000	0	0	-1	255
23242955	8347	359	0	-100	0	230	101300000	1000	0	0	-1	255
23255515	8345	358	0	-100	0	230	101300000	1000	0	0	-1	255
23268075	8347	362	0	-100	0	230	101300000	1000	0	0	-1	255
23280635	8347	357	0	-100	0	230	101300000	1000	0	0	-1	255
23293195	8335	361	0	-100	0	230	101300000	1000	0	0	-1	255
23305755	8340	360	0	-100	0	230	101300000	1000	0	0	-1	255
23318315	8340	358	0	-100	0	230	101300000	1000	0	0	-1	255
23330875	8333	359	0	-100	0	230	101300000	1000	0	0	-1	255
23343435	8340	362	0	-100	0	230	101300000	1000	0	0	-1	255
23355995	8345	360	0	-100	0	230	101300000	1000	0	0	-1	255
23368555	8335	361	0	-100	0	230	101300000	1000	0	0	-1	255
23381115	8342	358	0	-100	0	230	101300000	1000	0	0	-1	255
23393675	8342	360	0	-100	0	230	101300000	1000	0	0	-1	255
23406235	8338	364	0	-100	0	230	101300000	1000	0	0	-1	255
23418795	8342	361	0	-100	0	230	101300000	1000	0	0	-1	255
23431355	8340	362	0	-100	0	230	101300000	1000	0	0	-1	255
23443915	8352	359	0	-100	0	230	101300000	1000	0	0	-1	255
23456475	8335	359	0	-100	0	230	101300000	1000	0	0	-1	255
23469035	8345	360	0	-100	0	230	101300000	1000	0	0	-1	255
23481595	8338	356	0	-100	0	230	101300000	1000	0	0	-1	255
23494155	8349	362	0	-100	0	230	101300000	1000	0	0	-1	255
23506715	8340	358	0	-100	0	230	101300000	1000	0	0	-1	255
23519275	8343	361	0	-100	0	230	101300000	1000	0	0	-1	255
23531835	8338	362	0	-100	0	230	101300000	1000	0	0	-1	255
23544395	8338	362	0	-100	0	230	101300000	1000	0	0	-1	255
23556955	8335	358	0	-100	0	230	101300000	1000	0	0	-1	255
23569515	8345	362	0	-100	0	230	101300000	1000	0	0	-1	255
23582075	8331	361	0	-100	0	230	101300000	1000	0	0	-1	255
23594635	8337	362	0	-100	0	230	101300000	1000	0	0	-1	255
23607195	8345	358	0	-100	0	230	101300000	1000	0	0	-1	255
23619755	8340	362	0	-100	0	230	101300000	1000	0	0	-1	255
23632315	8345	359	0	-100	0	230	101300000	1000	0	0	-1	255
23644875	8338	358	0	-100	0	230	101300000	1000	0	0	-1	255
23657435	8345	358	0	-100	0	230	101300000	1000	0	0	-1	255
23669995	8342	359	0	-100	0	230	101300000	1000	0	0	-1	255
23682555	8338	363	0	-100	0	230	101300000	1000	0	0	-1	255
23695115	8343	357	0	-100	0	230	101300000	1000	0	0	-1	255
23707675	8340	365	0	-100	0	230	101300000	1000	0	0	-1	255
23720235	8335	362	0	-100	0	230	101300000	1000	0	0	-1	255
23732795	8340	359	0	-100	0	230	101300000	1000	0	0	-1	255
23745355	8331	363	0	-100	0	230	101300000	1000	0	0	-1	255
23757915	8343	357	0	-100	0	230	101300000	1000	0	0	-1	255
23770475	8333	361	0	-100	0	230	101300000	1000	0	0	-1	255
23783035	8347	363	0	-100	0	230	101300000	1000	0	0	-1	255
23795595	8343	360	0	-100	0	230	101300000	1000	0	0	-1	255
23808155	8352	365	0	-100	0	230	101300000	1000	0	0	-1	255
23820715	8343	358	0	-100	0	230	101300000	1000	0	0	-1	255
23833275	8338	361	0	-100	0	230	101300000	1000	0	0	-1	255
23845835	8335	361	0	-100	0	230	101300000	1000	0	0	-1	255
23858395	8345	359	0	-100	0	230	101300000	1000	0	0	-1	255
23870955	8342	364	0	-100	0	230	101300000	1000	0	0	-1	255
23883515	8347	362	0	-100	0	230	101300000	1000	0	0	-1	255
23896075	8345	361	0	-100	0	230	101300000	1000	0	0	-1	255
23908635	8340	362	0	-100	0	230	101300000	1000	0	0	-1	255
23921195	8340	360	0	-100	0	230	101300000	1000	0	0	-1	255
23933755	8342	360	0	-100	0	230	101300000	1000	0	0	-1	255
23946315	8342	362	0	-100	0	230	101300000	1000	0	0	-1	255
23958875	8345	356	0	-100	0	230	101300000	1000	0	0	-1	255
23971435	8333	361	0	-100	0	230	101300000	1000	0	0	-1	255
23983995	8335	361	0	-100	0	230	101300000	1000	0	0	-1	255
23996555	8343	357	0	-100	0	230	101300000	1000	0	0	-1	255
24009115	8342	359	0	-100	0	230	101300000	1000	0	0	-1	255
24021675	8338	362	0	-100	0	230	101300000	1000	0	0	-1	255
24034235	8347	362	0	-100	0	230	101300000	1000	0	0	-1	255
24046795	8347	359	0	-100	0	230	101300000	1000	0	0	-1	255
24059355	8335	357	0	-100	0	230	101300000	1000	0	0	-1	255
24071915	8340	363	0	-100	0	230	101300000	1000	0	0	-1	255
24084475	8340	341	0	-100	0	230	101300000	1000	0	0	-1	255
24097035	8340	358	0	-100	0	230	101300000	1000	0	0	-1	255
24109595	8340	364	0	-100	0	230	101300000	1000	0	0	-1	255
24122155	8357	362	0	-100	0	230	101300000	1000	0	0	-1	255
24134715	8340	357	0	-100	0	230	101300000	1000	0	0	-1	255
24147275	8345	364	0	-100	0	230	101300000	1000	0	0	-1	255
24159835	8345	361	0	-100	0	230	101300000	1000	0	0	-1	255
24172395	8343	361	0	-100	0	230	101300000	1000	0	0	-1	255
24184955	8333	358	0	-100	0	230	101300000	1000	0	0	-1	255
24197515	8338	364	0	-100	0	230	101300000	1000	0	0	-1	255
24210075	8338	359	0	-100	0	230	101300000	1000	0	0	-1	255
24222635	8340	360	0	-100	0	230	101300000	1000	0	0	-1	255
24235195	8342	357	0	-100	0	230	101300000	1000	0	0	-1	255
24247755	8345	360	0	-100	0	230	101300000	1000	0	0	-1	255
24260315	8340	361	0	-100	0	230	101300000	1000	0	0	-1	255
24272875	8340	360	0	-100	0	230	101300000	1000	0	0	-1	255
24285435	8340	362	0	-100	0	230	101300000	1000	0	0	-1	255
24297995	8345	360	0	-100	0	230	101300000	1000	0	0	-1	255
24310555	8338	345	0	-100	0	230	101300000	1000	0	0	-1	255
24323115	8340	362	0	-100	0	230	101300000	1000	0	0	-1	255
24335675	8345	358	0	-100	0	230	101300000	1000	0	0	-1	255
24348235	8338	362	0	-100	0	230	101300000	1000	0	0	-1	255
24360795	8335	365	0	-100	0	230	101300000	1000	0	0	-1	255
24373355	8343	357	0	-100	0	230	101300000	1000	0	0	-1	255
24385915	8338	359	0	-100	0	230	101300000	1000	0	0	-1	255
24398475	8342	360	0	-100	0	230	101300000	1000	0	0	-1	255
24411035	8340	360	0	-100	0	230	101300000	1000	0	0	-1	255
24423595	8338	365	0	-100	0	230	101300000	1000	0	0	-1	255
24436155	8355	358	0	-100	0	230	101300000	1000	0	0	-1	255
24448715	8337	364	0	-100	0	230	101300000	1000	0	0	-1	255
24461275	8335	360	0	-100	0	230	101300000	1000	0	0	-1	255
24473835	8345	360	0	-100	0	230	101300000	1000	0	0	-1	255
24486395	8333	364	0	-100	0	230	101300000	1000	0	0	-1	255
24498955	8337	362	0	-100	0	230	101300000	1000	0	0	-1	255
24511515	8350	360	0	-100	0	230	101300000	1000	0	0	-1	255
24524075	8340	362	0	-100	0	230	101300000	1000	0	0	-1	255
24536635	8338	364	0	-100	0	230	101300000	1000	0	0	-1	255
24549195	8343	357	0	-100	0	230	101300000	1000	0	0	-1	255
24561755	8342	357	0	-100	0	230	101300000	1000	0	0	-1	255
24574315	8337	362	0	-100	0	230	101300000	1000	0	0	-1	255
24586875	8350	362	0	-100	0	230	101300000	1000	0	0	-1	255
24599435	8340	360	0	-100	0	230	101300000	1000	0	0	-1	255
24611995	8340	358	0	-100	0	230	101300000	1000	0	0	-1	255
24624555	8347	362	0	-100	0	230	101300000	1000	0	0	-1	255
24637115	8338	357	0	-100	0	230	101300000	1000	0	0	-1	255
24649675	8340	362	0	-100	0	230	101300000	1000	0	0	-1	255
24662235	8345	360	0	-100	0	230	101300000	1000	0	0	-1	255
24674795	8338	359	0	-100	0	230	101300000	1000	0	0	-1	255
24687355	8338	364	0	-100	0	230	101300000	1000	0	0	-1	255
24699915	8340	357	0	-100	0	230	101300000	1000	0	0	-1	255
24712475	8335	364	0	-100	0	230	101300000	1000	0	0	-1	255
24725035	8335	363	0	-100	0	230	101300000	1000	0	0	-1	255
24737595	8343	359	0	-100	0	230	101300000	1000	0	0	-1	255
24750155	8343	364	0	-100	0	230	101300000	1000	0	0	-1	255
24762715	8338	363	0	-100	0	230	101300000	1000	0	0	-1	255
24775275	8345	361	0	-100	0	230	101300000	1000	0	0	-1	255
24787835	8345	358	0	-100	0	230	101300000	1000	0	0	-1	255
24800395	8340	363	0	-100	0	230	101300000	1000	0	0	-1	255
24812955	8340	364	0	-100	0	230	101300000	1000	0	0	-1	255
24825515	8345	362	0	-100	0	230	101300000	1000	0	0	-1	255
24838075	8337	366	0	-100	0	230	101300000	1000	0	0	-1	255
24850635	8345	358	0	-100	0	230	101300000	1000	0	0	-1	255
24863195	8335	362	0	-100	0	230	101300000	1000	0	0	-1	255
24875755	8340	360	0	-100	0	230	101300000	1000	0	0	-1	255
24888315	8342	359	0	-100	0	230	101300000	1000	0	0	-1	255
24900875	8335	362	0	-100	0	230	101300000	1000	0	0	-1	255
24913435	8345	362	0	-100	0	230	101300000	1000	0	0	-1	255
24925995	8338	358	0	-100	0	230	101300000	1000	0	0	-1	255
24938555	8335	361	0	-100	0	230	101300000	1000	0	0	-1	255
24951115	8345	359	0	-100	0	230	101300000	1000	0	0	-1	255
24963675	8337	362	0	-100	0	230	101300000	1000	0	0	-1	255
24976235	8345	362	0	-100	0	230	101300000	1000	0	0	-1	255
24988795	8338	361	0	-100	0	230	101300000	1000	0	0	-1	255
25001355	8350	357	0	-100	0	230	101300000	1000	0	0	-1	255
25013915	8342	362	0	-100	0	230	101300000	1000	0	0	-1	255
25026475	8343	359	0	-100	0	230	101300000	1000	0	0	-1	255
25039035	8338	362	0	-100	0	230	101300000	1000	0	0	-1	255
25051595	8347	358	0	-100	0	230	101300000	1000	0	0	-1	255
25064155	8349	366	0	-100	0	230	101300000	1000	0	0	-1	255
25076715	8338	359	0	-100	0	230	101300000	1000	0	0	-1	255
25089275	8342	364	0	-100	0	230	101300000	1000	0	0	-1	255
25101835	8345	360	0	-100	0	230	101300000	1000	0	0	-1	255
25114395	8335	364	0	-100	0	230	101300000	1000	0	0	-1	255
25126955	8340	358	0	-100	0	230	101300000	1000	0	0	-1	255
25139515	8338	364	0	-100	0	230	101300000	1000	0	0	-1	255
25152075	8340	361	0	-100	0	230	101300000	1000	0	0	-1	255
25164635	8342	360	0	-100	0	230	101300000	1000	0	0	-1	255
25177195	8340	360	0	-100	0	230	101300000	1000	0	0	-1	255
25189755	8340	360	0	-100	0	230	101300000	1000	0	0	-1	255
25202315	8336	359	0	-100	0	230	101300000	1000	0	0	-1	255
25214875	8345	349	0	-100	0	230	101300000	1000	0	0	-1	255
25227435	8340	363	0	-100	0	230	101300000	1000	0	0	-1	255
25239995	8342	359	0	-100	0	230	101300000	1000	0	0	-1	255
25252555	8340	358	0	-100	0	230	101300000	1000	0	0	-1	255
25265115	8335	361	0	-100	0	230	101300000	1000	0	0	-1	255
25277675	8338	358	0	-100	0	230	101300000	1000	0	0	-1	255
25290235	8338	358	0	-100	0	230	101300000	1000	0	0	-1	255
25302795	8338	361	0	-100	0	230	101300000	1000	0	0	-1	255
25315355	8340	363	0	-100	0	230	101300000	1000	0	0	-1	255
25327915	8350	363	0	-100	0	230	101300000	1000	0	0	-1	255
25340475	8340	360	0	-100	0	230	101300000	1000	0	0	-1	255
25353035	8335	362	0	-100	0	230	101300000	1000	0	0	-1	255
25365595	8342	358	0	-100	0	230	101300000	1000	0	0	-1	255
25378155	8350	360	0	-100	0	230	101300000	1000	0	0	-1	255
25390715	8345	364	0	-100	0	230	101300000	1000	0	0	-1	255
25403275	8345	360	0	-100	0	230	101300000	1000	0	0	-1	255
25415835	8338	356	0	-100	0	230	101300000	1000	0	0	-1	255
25428395	8340	362	0	-100	0	230	101300000	1000	0	0	-1	255
25440955	8342	360	0	-100	0	230	101300000	1000	0	0	-1	255
25453515	8338	359	0	-100	0	230	101300000	1000	0	0	-1	255
25466075	8342	363	0	-100	0	230	101300000	1000	0	0	-1	255
25478635	8345	358	0	-100	0	230	101300000	1000	0	0	-1	255
25491195	8340	360	0	-100	0	230	101300000	1000	0	0	-1	255
25503755	8340	365	0	-100	0	230	101300000	1000	0	0	-1	255
25516315	8340	360	0	-100	0	230	101300000	1000	0	0	-1	255
25528875	8340	359	0	-100	0	230	101300000	1000	0	0	-1	255
25541435	8335	363	0	-100	0	230	101300000	1000	0	0	-1	255
25553995	8347	362	0	-100	0	230	101300000	1000	0	0	-1	255
25566555	8335	364	0	-100	0	230	101300000	1000	0	0	-1	255
25579115	8340	361	0	-100	0	230	101300000	1000	0	0	-1	255
25591675	8345	362	0	-100	0	230	101300000	1000	0	0	-1	255
25604235	8349	365	0	-100	0	230	101300000	1000	0	0	-1	255
25616795	8342	359	0	-100	0	230	101300000	1000	0	0	-1	255
25629355	8340	365	0	-100	0	230	101300000	1000	0	0	-1	255
25641915	8347	363	0	-100	0	230	101300000	1000	0	0	-1	255
25654475	8342	363	0	-100	0	230	101300000	1000	0	0	-1	255
25667035	8345	361	0	-100	0	230	101300000	1000	0	0	-1	255
25679595	8335	363	0	-100	0	230	101300000	1000	0	0	-1	255
25692155	8354	363	0	-100	0	230	101300000	1000	0	0	-1	255
25704715	8333	359	0	-100	0	230	101300000	1000	0	0	-1	255
25717275	8342	362	0	-100	0	230	101300000	1000	0	0	-1	255
25729835	8333	356	0	-100	0	230	101300000	1000	0	0	-1	255
25742395	8335	362	0	-100	0	230	101300000	1000	0	0	-1	255
25754955	8345	362	0	-100	0	230	101300000	1000	0	0	-1	255
25767515	8342	347	0	-100	0	230	101300000	1000	0	0	-1	255
25780075	8345	363	0	-100	0	230	101300000	1000	0	0	-1	255
25792635	8340	362	0	-100	0	230	101300000	1000	0	0	-1	255
25805195	8338	360	0	-100	0	230	101300000	1000	0	0	-1	255
25817755	8342	360	0	-100	0	230	101300000	1000	0	0	-1	255
25830315	8340	362	0	-100	0	230	101300000	1000	0	0	-1	255
25842875	8340	358	0	-100	0	230	101300000	1000	0	0	-1	255
25855435	8340	360	0	-100	0	230	101300000	1000	0	0	-1	255
25867995	8340	358	0	-100	0	230	101300000	1000	0	0	-1	255
25880555	8342	362	0	-100	0	230	101300000	1000	0	0	-1	255
25893115	8338	362	0	-100	0	230	101300000	1000	0	0	-1	255
25905675	8350	360	0	-100	0	230	101300000	1000	0	0	-1	255
25918235	8336	362	0	-100	0	230	101300000	1000	0	0	-1	255
25930795	8340	360	0	-100	0	230	101300000	1000	0	0	-1	255
25943355	8342	357	0	-100	0	230	101300000	1000	0	0	-1	255
25955915	8340	360	0	-100	0	230	101300000	1000	0	0	-1	255
25968475	8338	361	0	-100	0	230	101300000	1000	0	0	-1	255
25981035	8345	361	0	-100	0	230	101300000	1000	0	0	-1	255
25993595	8340	364	0	-100	0	230	101300000	1000	0	0	-1	255
26006155	8347	363	0	-100	0	230	101300000	1000	0	0	-1	255
26018715	8343	358	0	-100	0	230	101300000	1000	0	0	-1	255
26031275	8338	362	0	-100	0	230	101300000	1000	0	0	-1	255
26043835	8340	362	0	-100	0	230	101300000	1000	0	0	-1	255
26056395	8340	360	0	-100	0	230	101300000	1000	0	0	-1	255
26068955	8338	361	0	-100	0	230	101300000	1000	0	0	-1	255
26081515	8333	365	0	-100	0	230	101300000	1000	0	0	-1	255
26094075	8345	360	0	-100	0	230	101300000	1000	0	0	-1	255
26106635	8347	362	0	-100	0	230	101300000	1000	0	0	-1	255
26119195	8345	356	0	-100	0	230	101300000	1000	0	0	-1	255
26131755	8340	359	0	-100	0	230	101300000	1000	0	0	-1	255
26144315	8345	360	0	-100	0	230	101300000	1000	0	0	-1	255
26156875	8340	361	0	-100	0	230	101300000	1000	0	0	-1	255
26169435	8338	362	0	-100	0	230	101300000	1000	0	0	-1	255
26181995	8338	358	0	-100	0	230	101300000	1000	0	0	-1	255
26194555	8342	363	0	-100	0	230	101300000	1000	0	0	-1	255
26207115	8338	364	0	-100	0	230	101300000	1000	0	0	-1	255
26219675	8337	362	0	-100	0	230	101300000	1000	0	0	-1	255
26232235	8347	360	0	-100	0	230	101300000	1000	0	0	-1	255
26244795	8345	359	0	-100	0	230	101300000	1000	0	0	-1	255
26257355	8343	358	0	-100	0	230	101300000	1000	0	0	-1	255
26269915	8347	358	0	-100	0	230	101300000	1000	0	0	-1	255
26282475	8347	360	0	-100	0	230	101300000	1000	0	0	-1	255
26295035	8347	359	0	-100	0	230	101300000	1000	0	0	-1	255
26307595	8345	358	0	-100	0	230	101300000	1000	0	0	-1	255
26320155	8350	362	0	-100	0	230	101300000	1000	0	0	-1	255
26332715	8342	362	0	-100	0	230	101300000	1000	0	0	-1	255
26345275	8347	359	0	-100	0	230	101300000	1000	0	0	-1	255
26357835	8345	362	0	-100	0	230	101300000	1000	0	0	-1	255
26370395	8342	358	0	-100	0	230	101300000	1000	0	0	-1	255
26382955	8335	361	0	-100	0	230	101300000	1000	0	0	-1	255
26395515	8335	363	0	-100	0	230	101300000	1000	0	0	-1	255
26408075	8342	360	0	-100	0	230	101300000	1000	0	0	-1	255
26420635	8342	363	0	-100	0	230	101300000	1000	0	0	-1	255
26433195	8342	364	0	-100	0	230	101300000	1000	0	0	-1	255
26445755	8342	363	0	-100	0	230	101300000	1000	0	0	-1	255
26458315	8347	362	0	-100	0	230	101300000	1000	0	0	-1	255
26470875	8343	362	0	-100	0	230	101300000	1000	0	0	-1	255
26483435	8345	359	0	-100	0	230	101300000	1000	0	0	-1	255
26495995	8342	362	0	-100	0	230	101300000	1000	0	0	-1	255
26508555	8340	359	0	-100	0	230	101300000	1000	0	0	-1	255
26521115	8340	363	0	-100	0	230	101300000	1000	0	0	-1	255
26533675	8342	361	0	-100	0	230	101300000	1000	0	0	-1	255
26546235	8338	364	0	-100	0	230	101300000	1000	0	0	-1	255
26558795	8342	362	0	-100	0	230	101300000	1000	0	0	-1	255
26571355	8338	358	0	-100	0	230	101300000	1000	0	0	-1	255
26583915	8340	361	0	-100	0	230	101300000	1000	0	0	-1	255
26596475	8338	358	0	-100	0	230	101300000	1000	0	0	-1	255
26609035	8338	358	0	-100	0	230	101300000	1000	0	0	-1	255
26621595	8337	362	0	-100	0	230	101300000	1000	0	0	-1	255
26634155	8352	358	0	-100	0	230	101300000	1000	0	0	-1	255
26646715	8340	355	0	-100	0	230	101300000	1000	0	0	-1	255
26659275	8338	362	0	-100	0	230	101300000	1000	0	0	-1	255
26671835	8335	362	0	-100	0	230	101300000	1000	0	0	-1	255
26684395	8343	358	0	-100	0	230	101300000	1000	0	0	-1	255
26696955	8333	364	0	-100	0	230	101300000	1000	0	0	-1	255
26709515	8333	361	0	-100	0	230	101300000	1000	0	0	-1	255
26722075	8347	358	0	-100	0	230	101300000	1000	0	0	-1	255
26734635	8338	363	0	-100	0	230	101300000	1000	0	0	-1	255
26747195	8345	360	0	-100	0	230	101300000	1000	0	0	-1	255
26759755	8331	361	0	-100	0	230	101300000	1000	0	0	-1	255
26772315	8349	343	0	-100	0	230	101300000	1000	0	0	-1	255
26784875	8338	358	0	-100	0	230	101300000	1000	0	0	-1	255
26797435	8342	364	0	-100	0	230	101300000	1000	0	0	-1	255
26809995	8345	361	0	-100	0	230	101300000	1000	0	0	-1	255
26822555	8335	362	0	-100	0	230	101300000	1000	0	0	-1	255
26835115	8335	364	0	-100	0	230	101300000	1000	0	0	-1	255
26847675	8342	359	0	-100	0	230	101300000	1000	0	0	-1	255
26860235	8343	358	0	-100	0	230	101300000	1000	0	0	-1	255
26872795	8340	358	0	-100	0	230	101300000	1000	0	0	-1	255
26885355	8340	361	0	-100	0	230	101300000	1000	0	0	-1	255
26897915	8340	361	0	-100	0	230	101300000	1000	0	0	-1	255
26910475	8342	362	0	-100	0	230	101300000	1000	0	0	-1	255
26923035	8340	362	0	-100	0	230	101300000	1000	0	0	-1	255
26935595	8347	362	0	-100	0	230	101300000	1000	0	0	-1	255
26948155	8354	358	0	-100	0	230	101300000	1000	0	0	-1	255
26960715	8345	359	0	-100	0	230	101300000	1000	0	0	-1	255
26973275	8345	360	0	-100	0	230	101300000	1000	0	0	-1	255
26985835	8333	363	0	-100	0	230	101300000	1000	0	0	-1	255
26998395	8347	363	0	-100	0	230	101300000	1000	0	0	-1	255
27010955	8340	360	0	-100	0	230	101300000	1000	0	0	-1	255
27023515	8347	362	0	-100	0	230	101300000	1000	0	0	-1	255
27036075	8345	359	0	-100	0	230	101300000	1000	0	0	-1	255
27048635	8338	358	0	-100	0	230	101300000	1000	0	0	-1	255
