timestamp	voltage	current	windSpeed	pitchAngle	rpm	temperature	ambientPressure	humidity	accelerationX	accelerationY	accelerationZ	currentSink
7040070	8524	0	0	-100	0	230	101300000	1000	0	0	-1	0
7047523	8527	0	0	-100	0	230	101300000	1000	0	0	-1	0
7060083	8519	3	0	-100	0	230	101300000	1000	0	0	-1	0
7072643	8517	0	0	-100	0	230	101300000	1000	0	0	-1	0
7085203	8524	0	0	-100	0	230	101300000	1000	0	0	-1	0
7097763	8519	4	0	-100	0	230	101300000	1000	0	0	-1	0
7110323	8520	0	0	-100	0	230	101300000	1000	0	0	-1	0
7122883	8522	0	0	-100	0	230	101300000	1000	0	0	-1	0
7135443	8519	2	0	-100	0	230	101300000	1000	0	0	-1	0
7148004	8524	0	0	-100	0	230	101300000	1000	0	0	-1	0
7160563	8517	1	0	-100	0	230	101300000	1000	0	0	-1	0
7173123	8519	0	0	-100	0	230	101300000	1000	0	0	-1	0
7185683	8527	0	0	-100	0	230	101300000	1000	0	0	-1	0
7198243	8517	5	0	-100	0	230	101300000	1000	0	0	-1	0
7210803	8524	0	0	-100	0	230	101300000	1000	0	0	-1	0
7223363	8517	4	0	-100	0	230	101300000	1000	0	0	-1	0
7235923	8522	0	0	-100	0	230	101300000	1000	0	0	-1	0
7248483	8526	0	0	-100	0	230	101300000	1000	0	0	-1	0
7261043	8510	0	0	-100	0	230	101300000	1000	0	0	-1	0
7273603	8524	0	0	-100	0	230	101300000	1000	0	0	-1	0
7286163	8529	0	0	-100	0	230	101300000	1000	0	0	-1	0
7298723	8519	0	0	-100	0	230	101300000	1000	0	0	-1	0
7311283	8524	0	0	-100	0	230	101300000	1000	0	0	-1	0
7323843	8517	2	0	-100	0	230	101300000	1000	0	0	-1	0
7336403	8527	0	0	-100	0	230	101300000	1000	0	0	-1	0
7348963	8524	1	0	-100	0	230	101300000	1000	0	0	-1	0
7719795	8342	353	0	-100	0	230	101300000	1000	0	0	-1	250
7732355	8350	352	0	-100	0	230	101300000	1000	0	0	-1	250
7744915	8342	357	0	-100	0	230	101300000	1000	0	0	-1	250
7757475	8341	348	0	-100	0	230	101300000	1000	0	0	-1	250
7770035	8347	356	0	-100	0	230	101300000	1000	0	0	-1	250
7782595	8352	353	0	-100	0	230	101300000	1000	0	0	-1	250
7795155	8352	337	0	-100	0	230	101300000	1000	0	0	-1	250
7807715	8354	356	0	-100	0	230	101300000	1000	0	0	-1	250
7820275	8336	356	0	-100	0	230	101300000	1000	0	0	-1	250
7832835	8348	353	0	-100	0	230	101300000	1000	0	0	-1	250
7845395	8336	351	0	-100	0	230	101300000	1000	0	0	-1	250
7857955	8345	349	0	-100	0	230	101300000	1000	0	0	-1	250
7870515	8340	356	0	-100	0	230	101300000	1000	0	0	-1	250
7883075	8350	353	0	-100	0	230	101300000	1000	0	0	-1	250
7895635	8342	354	0	-100	0	230	101300000	1000	0	0	-1	250
7908195	8340	350	0	-100	0	230	101300000	1000	0	0	-1	250
7920755	8345	356	0	-100	0	230	101300000	1000	0	0	-1	250
7933315	8342	349	0	-100	0	230	101300000	1000	0	0	-1	250
7945875	8343	354	0	-100	0	230	101300000	1000	0	0	-1	250
7958435	8340	341	0	-100	0	230	101300000	1000	0	0	-1	250
7970995	8352	354	0	-100	0	230	101300000	1000	0	0	-1	250
7983555	8340	354	0	-100	0	230	101300000	1000	0	0	-1	250
7996115	8352	353	0	-100	0	230	101300000	1000	0	0	-1	250
8008675	8342	353	0	-100	0	230	101300000	1000	0	0	-1	250
8021235	8340	353	0	-100	0	230	101300000	1000	0	0	-1	250
8033795	8347	354	0	-100	0	230	101300000	1000	0	0	-1	250
8046355	8347	352	0	-100	0	230	101300000	1000	0	0	-1	250
8058915	8338	354	0	-100	0	230	101300000	1000	0	0	-1	250
8071475	8350	350	0	-100	0	230	101300000	1000	0	0	-1	250
8084035	8342	359	0	-100	0	230	101300000	1000	0	0	-1	250
8096595	8343	353	0	-100	0	230	101300000	1000	0	0	-1	250
8109155	8357	352	0	-100	0	230	101300000	1000	0	0	-1	250
8121715	8338	352	0	-100	0	230	101300000	1000	0	0	-1	250
8134275	8350	351	0	-100	0	230	101300000	1000	0	0	-1	250
8146835	8340	357	0	-100	0	230	101300000	1000	0	0	-1	250
8159395	8343	355	0	-100	0	230	101300000	1000	0	0	-1	250
8171955	8340	352	0	-100	0	230	101300000	1000	0	0	-1	250
8184515	8335	356	0	-100	0	230	101300000	1000	0	0	-1	250
8197075	8350	353	0	-100	0	230	101300000	1000	0	0	-1	250
8209635	8338	355	0	-100	0	230	101300000	1000	0	0	-1	250
8222195	8345	351	0	-100	0	230	101300000	1000	0	0	-1	250
8234755	8345	353	0	-100	0	230	101300000	1000	0	0	-1	250
8247315	8338	352	0	-100	0	230	101300000	1000	0	0	-1	250
8259875	8342	353	0	-100	0	230	101300000	1000	0	0	-1	250
8272435	8345	352	0	-100	0	230	101300000	1000	0	0	-1	250
8284995	8350	356	0	-100	0	230	101300000	1000	0	0	-1	250
8297555	8340	354	0	-100	0	230	101300000	1000	0	0	-1	250
8310115	8345	348	0	-100	0	230	101300000	1000	0	0	-1	250
8322675	8342	354	0	-100	0	230	101300000	1000	0	0	-1	250
8335235	8347	351	0	-100	0	230	101300000	1000	0	0	-1	250
8347795	8343	353	0	-100	0	230	101300000	1000	0	0	-1	250
8360355	8350	354	0	-100	0	230	101300000	1000	0	0	-1	250
8372915	8342	353	0	-100	0	230	101300000	1000	0	0	-1	250
8385475	8342	335	0	-100	0	230	101300000	1000	0	0	-1	250
8398035	8345	350	0	-100	0	230	101300000	1000	0	0	-1	250
8410595	8342	358	0	-100	0	230	101300000	1000	0	0	-1	250
8423155	8364	357	0	-100	0	230	101300000	1000	0	0	-1	250
8435715	8340	356	0	-100	0	230	101300000	1000	0	0	-1	250
8448275	8342	353	0	-100	0	230	101300000	1000	0	0	-1	250
8460835	8343	351	0	-100	0	230	101300000	1000	0	0	-1	250
8473395	8350	353	0	-100	0	230	101300000	1000	0	0	-1	250
8485955	8340	353	0	-100	0	230	101300000	1000	0	0	-1	250
8498515	8345	349	0	-100	0	230	101300000	1000	0	0	-1	250
8511075	8347	357	0	-100	0	230	101300000	1000	0	0	-1	250
8523635	8340	354	0	-100	0	230	101300000	1000	0	0	-1	250
8536195	8340	356	0	-100	0	230	101300000	1000	0	0	-1	250
8548755	8345	351	0	-100	0	230	101300000	1000	0	0	-1	250
8561315	8345	353	0	-100	0	230	101300000	1000	0	0	-1	250
8573875	8345	356	0	-100	0	230	101300000	1000	0	0	-1	250
8586435	8350	351	0	-100	0	230	101300000	1000	0	0	-1	250
8598995	8336	352	0	-100	0	230	101300000	1000	0	0	-1	250
8611555	8347	355	0	-100	0	230	101300000	1000	0	0	-1	250
8624115	8342	357	0	-100	0	230	101300000	1000	0	0	-1	250
8636675	8340	351	0	-100	0	230	101300000	1000	0	0	-1	250
8649235	8349	352	0	-100	0	230	101300000	1000	0	0	-1	250
8661795	8347	357	0	-100	0	230	101300000	1000	0	0	-1	250
8674355	8347	354	0	-100	0	230	101300000	1000	0	0	-1	250
8686915	8352	355	0	-100	0	230	101300000	1000	0	0	-1	250
8699475	8340	353	0	-100	0	230	101300000	1000	0	0	-1	250
8712035	8345	354	0	-100	0	230	101300000	1000	0	0	-1	250
8724595	8340	357	0	-100	0	230	101300000	1000	0	0	-1	250
8737155	8352	356	0	-100	0	230	101300000	1000	0	0	-1	250
8749715	8352	354	0	-100	0	230	101300000	1000	0	0	-1	250
8762275	8345	354	0	-100	0	230	101300000	1000	0	0	-1	250
8774835	8350	354	0	-100	0	230	101300000	1000	0	0	-1	250
8787395	8342	356	0	-100	0	230	101300000	1000	0	0	-1	250
8799955	8340	339	0	-100	0	230	101300000	1000	0	0	-1	250
8812515	8345	355	0	-100	0	230	101300000	1000	0	0	-1	250
8825075	8340	349	0	-100	0	230	101300000	1000	0	0	-1	250
8837635	8350	352	0	-100	0	230	101300000	1000	0	0	-1	250
8850195	8342	358	0	-100	0	230	101300000	1000	0	0	-1	250
8862755	8345	356	0	-100	0	230	101300000	1000	0	0	-1	250
8875315	8345	354	0	-100	0	230	101300000	1000	0	0	-1	250
8887875	8345	354	0	-100	0	230	101300000	1000	0	0	-1	250
8900435	8347	353	0	-100	0	230	101300000	1000	0	0	-1	250
8912995	8342	355	0	-100	0	230	101300000	1000	0	0	-1	250
8925555	8345	341	0	-100	0	230	101300000	1000	0	0	-1	250
8938115	8347	354	0	-100	0	230	101300000	1000	0	0	-1	250
8950675	8336	356	0	-100	0	230	101300000	1000	0	0	-1	250
8963235	8354	354	0	-100	0	230	101300000	1000	0	0	-1	250
8975795	8338	355	0	-100	0	230	101300000	1000	0	0	-1	250
8988355	8352	351	0	-100	0	230	101300000	1000	0	0	-1	250
9000915	8340	355	0	-100	0	230	101300000	1000	0	0	-1	250
9013475	8352	356	0	-100	0	230	101300000	1000	0	0	-1	250
9026035	8343	354	0	-100	0	230	101300000	1000	0	0	-1	250
9038595	8350	352	0	-100	0	230	101300000	1000	0	0	-1	250
9051155	8350	357	0	-100	0	230	101300000	1000	0	0	-1	250
9063715	8345	351	0	-100	0	230	101300000	1000	0	0	-1	250
9076275	8343	353	0	-100	0	230	101300000	1000	0	0	-1	250
9088835	8342	354	0	-100	0	230	101300000	1000	0	0	-1	250
9101395	8350	353	0	-100	0	230	101300000	1000	0	0	-1	250
9113955	8342	357	0	-100	0	230	101300000	1000	0	0	-1	250
9126515	8347	353	0	-100	0	230	101300000	1000	0	0	-1	250
9139075	8345	352	0	-100	0	230	101300000	1000	0	0	-1	250
9151635	8343	350	0	-100	0	230	101300000	1000	0	0	-1	250
9164195	8345	354	0	-100	0	230	101300000	1000	0	0	-1	250
9176755	8345	350	0	-100	0	230	101300000	1000	0	0	-1	250
9189315	8345	354	0	-100	0	230	101300000	1000	0	0	-1	250
9201875	8343	354	0	-100	0	230	101300000	1000	0	0	-1	250
9214435	8345	352	0	-100	0	230	101300000	1000	0	0	-1	250
9226995	8342	353	0	-100	0	230	101300000	1000	0	0	-1	250
9239555	8352	348	0	-100	0	230	101300000	1000	0	0	-1	250
9252115	8342	351	0	-100	0	230	101300000	1000	0	0	-1	250
9264675	8326	348	0	-100	0	230	101300000	1000	0	0	-1	250
9277235	8286	349	0	-100	0	230	101300000	1000	0	0	-1	250
9289795	8314	348	0	-100	0	230	101300000	1000	0	0	-1	250
9302355	8321	351	0	-100	0	230	101300000	1000	0	0	-1	250
9314915	8333	347	0	-100	0	230	101300000	1000	0	0	-1	250
9327475	8336	350	0	-100	0	230	101300000	1000	0	0	-1	250
9340035	8340	352	0	-100	0	230	101300000	1000	0	0	-1	250
9352595	8340	351	0	-100	0	230	101300000	1000	0	0	-1	250
9365155	114	355	0	-100	0	230	101300000	1000	0	0	-1	250
9377715	118	363	0	-100	0	230	101300000	1000	0	0	-1	250
9390275	111	371	0	-100	0	230	101300000	1000	0	0	-1	250
9402835	133	369	0	-100	0	230	101300000	1000	0	0	-1	250
9415395	147	369	0	-100	0	230	101300000	1000	0	0	-1	250
9427955	169	371	0	-100	0	230	101300000	1000	0	0	-1	250
9440515	186	368	0	-100	0	230	101300000	1000	0	0	-1	250
9453075	208	370	0	-100	0	230	101300000	1000	0	0	-1	250
9465635	227	362	0	-100	0	230	101300000	1000	0	0	-1	250
9478195	257	356	0	-100	0	230	101300000	1000	0	0	-1	250
9490755	300	358	0	-100	0	230	101300000	1000	0	0	-1	250
9503315	181	357	0	-100	0	230	101300000	1000	0	0	-1	250
9515875	1542	342	0	-100	0	230	101300000	1000	0	0	-1	250
9528435	4802	319	0	-100	0	230	101300000	1000	0	0	-1	250
9540995	6504	337	0	-100	0	230	101300000	1000	0	0	-1	250
9553555	7402	341	0	-100	0	230	101300000	1000	0	0	-1	250
9566115	7862	350	0	-100	0	230	101300000	1000	0	0	-1	250
9578675	8105	354	0	-100	0	230	101300000	1000	0	0	-1	250
9591235	8221	353	0	-100	0	230	101300000	1000	0	0	-1	250
9603795	8286	358	0	-100	0	230	101300000	1000	0	0	-1	250
9616355	8318	354	0	-100	0	230	101300000	1000	0	0	-1	250
9628915	8328	351	0	-100	0	230	101300000	1000	0	0	-1	250
9641475	8333	358	0	-100	0	230	101300000	1000	0	0	-1	250
9654035	8342	351	0	-100	0	230	101300000	1000	0	0	-1	250
9666595	8350	353	0	-100	0	230	101300000	1000	0	0	-1	250
9679155	8352	354	0	-100	0	230	101300000	1000	0	0	-1	250
9691715	8345	355	0	-100	0	230	101300000	1000	0	0	-1	250
9704275	8350	351	0	-100	0	230	101300000	1000	0	0	-1	250
9716835	8347	352	0	-100	0	230	101300000	1000	0	0	-1	250
9729395	8338	357	0	-100	0	230	101300000	1000	0	0	-1	250
9741955	8342	354	0	-100	0	230	101300000	1000	0	0	-1	250
9754515	8347	351	0	-100	0	230	101300000	1000	0	0	-1	250
9767075	8347	354	0	-100	0	230	101300000	1000	0	0	-1	250
9779635	8345	354	0	-100	0	230	101300000	1000	0	0	-1	250
9792195	8345	356	0	-100	0	230	101300000	1000	0	0	-1	250
9804755	8347	348	0	-100	0	230	101300000	1000	0	0	-1	250
9817315	8340	356	0	-100	0	230	101300000	1000	0	0	-1	250
9829875	8345	353	0	-100	0	230	101300000	1000	0	0	-1	250
9842435	8345	357	0	-100	0	230	101300000	1000	0	0	-1	250
9854995	8352	358	0	-100	0	230	101300000	1000	0	0	-1	250
9867555	8340	355	0	-100	0	230	101300000	1000	0	0	-1	250
9880115	8345	349	0	-100	0	230	101300000	1000	0	0	-1	250
9892675	8345	357	0	-100	0	230	101300000	1000	0	0	-1	250
9905235	8345	354	0	-100	0	230	101300000	1000	0	0	-1	250
9917795	8347	354	0	-100	0	230	101300000	1000	0	0	-1	250
9955475	8347	356	0	-100	0	230	101300000	1000	0	0	-1	250
9968035	8345	350	0	-100	0	230	101300000	1000	0	0	-1	250
9980595	8342	357	0	-100	0	230	101300000	1000	0	0	-1	250
9993155	8357	357	0	-100	0	230	101300000	1000	0	0	-1	250
10005715	8342	352	0	-100	0	230	101300000	1000	0	0	-1	250
10018275	8345	357	0	-100	0	230	101300000	1000	0	0	-1	250
10030835	8345	353	0	-100	0	230	101300000	1000	0	0	-1	250
10043395	8345	353	0	-100	0	230	101300000	1000	0	0	-1	250
10055955	8338	353	0	-100	0	230	101300000	1000	0	0	-1	250
10068515	8340	353	0	-100	0	230	101300000	1000	0	0	-1	250
10081075	8350	353	0	-100	0	230	101300000	1000	0	0	-1	250
10106195	8357	355	0	-100	0	230	101300000	1000	0	0	-1	250
10118755	8340	352	0	-100	0	230	101300000	1000	0	0	-1	250
10131315	8336	357	0	-100	0	230	101300000	1000	0	0	-1	250
10143875	8347	354	0	-100	0	230	101300000	1000	0	0	-1	250
10156435	8342	354	0	-100	0	230	101300000	1000	0	0	-1	250
10168995	8340	338	0	-100	0	230	101300000	1000	0	0	-1	250
10181555	8345	354	0	-100	0	230	101300000	1000	0	0	-1	250
10194115	8350	352	0	-100	0	230	101300000	1000	0	0	-1	250
10206675	8350	354	0	-100	0	230	101300000	1000	0	0	-1	250
10219235	8342	352	0	-100	0	230	101300000	1000	0	0	-1	250
10231795	8345	358	0	-100	0	230	101300000	1000	0	0	-1	250
10244355	8350	350	0	-100	0	230	101300000	1000	0	0	-1	250
10256915	8347	356	0	-100	0	230	101300000	1000	0	0	-1	250
10269475	8352	351	0	-100	0	230	101300000	1000	0	0	-1	250
10282035	8338	354	0	-100	0	230	101300000	1000	0	0	-1	250
10294595	8352	354	0	-100	0	230	101300000	1000	0	0	-1	250
10307155	8347	352	0	-100	0	230	101300000	1000	0	0	-1	250
10319715	8342	357	0	-100	0	230	101300000	1000	0	0	-1	250
10332275	8354	354	0	-100	0	230	101300000	1000	0	0	-1	250
10344835	8342	352	0	-100	0	230	101300000	1000	0	0	-1	250
10357395	8345	356	0	-100	0	230	101300000	1000	0	0	-1	250
10369955	8345	352	0	-100	0	230	101300000	1000	0	0	-1	250
10382515	8340	356	0	-100	0	230	101300000	1000	0	0	-1	250
10395075	8345	352	0	-100	0	230	101300000	1000	0	0	-1	250
10407635	8345	357	0	-100	0	230	101300000	1000	0	0	-1	250
10420195	8347	353	0	-100	0	230	101300000	1000	0	0	-1	250
10432755	8347	358	0	-100	0	230	101300000	1000	0	0	-1	250
10445315	8340	352	0	-100	0	230	101300000	1000	0	0	-1	250
10457875	8345	355	0	-100	0	230	101300000	1000	0	0	-1	250
10470435	8345	352	0	-100	0	230	101300000	1000	0	0	-1	250
10482995	8342	353	0	-100	0	230	101300000	1000	0	0	-1	250
10495555	8340	352	0	-100	0	230	101300000	1000	0	0	-1	250
10508115	8345	357	0	-100	0	230	101300000	1000	0	0	-1	250
10520675	8345	352	0	-100	0	230	101300000	1000	0	0	-1	250
10533235	8343	353	0	-100	0	230	101300000	1000	0	0	-1	250
10545795	8342	352	0	-100	0	230	101300000	1000	0	0	-1	250
10558355	8340	355	0	-100	0	230	101300000	1000	0	0	-1	250
10570915	8347	353	0	-100	0	230	101300000	1000	0	0	-1	250
10583475	8345	355	0	-100	0	230	101300000	1000	0	0	-1	250
10596035	8338	353	0	-100	0	230	101300000	1000	0	0	-1	250
10608595	8347	352	0	-100	0	230	101300000	1000	0	0	-1	250
10621155	8350	354	0	-100	0	230	101300000	1000	0	0	-1	250
10633715	8350	356	0	-100	0	230	101300000	1000	0	0	-1	250
10646275	8336	355	0	-100	0	230	101300000	1000	0	0	-1	250
10658835	8354	358	0	-100	0	230	101300000	1000	0	0	-1	250
10671395	8342	354	0	-100	0	230	101300000	1000	0	0	-1	250
10683955	8349	354	0	-100	0	230	101300000	1000	0	0	-1	250
10696515	8345	353	0	-100	0	230	101300000	1000	0	0	-1	250
10709075	8338	355	0	-100	0	230	101300000	1000	0	0	-1	250
10721635	8350	352	0	-100	0	230	101300000	1000	0	0	-1	250
10734195	8342	355	0	-100	0	230	101300000	1000	0	0	-1	250
10746755	8352	354	0	-100	0	230	101300000	1000	0	0	-1	250
10759315	8343	355	0	-100	0	230	101300000	1000	0	0	-1	250
10771875	8343	355	0	-100	0	230	101300000	1000	0	0	-1	250
10784435	8345	353	0	-100	0	230	101300000	1000	0	0	-1	250
10796995	8340	353	0	-100	0	230	101300000	1000	0	0	-1	250
10809555	8345	355	0	-100	0	230	101300000	1000	0	0	-1	250
10822115	8343	354	0	-100	0	230	101300000	1000	0	0	-1	250
10834675	8345	352	0	-100	0	230	101300000	1000	0	0	-1	250
10847235	8347	355	0	-100	0	230	101300000	1000	0	0	-1	250
10859795	8342	353	0	-100	0	230	101300000	1000	0	0	-1	250
10872355	8350	351	0	-100	0	230	101300000	1000	0	0	-1	250
10884915	8342	355	0	-100	0	230	101300000	1000	0	0	-1	250
10897475	8343	352	0	-100	0	230	101300000	1000	0	0	-1	250
10910035	8347	354	0	-100	0	230	101300000	1000	0	0	-1	250
10922595	8345	350	0	-100	0	230	101300000	1000	0	0	-1	250
10935155	8352	353	0	-100	0	230	101300000	1000	0	0	-1	250
10947715	8352	357	0	-100	0	230	101300000	1000	0	0	-1	250
10960275	8343	351	0	-100	0	230	101300000	1000	0	0	-1	250
10972835	8340	355	0	-100	0	230	101300000	1000	0	0	-1	250
10985395	8350	352	0	-100	0	230	101300000	1000	0	0	-1	250
10997955	8340	354	0	-100	0	230	101300000	1000	0	0	-1	250
11010515	8342	354	0	-100	0	230	101300000	1000	0	0	-1	250
11023075	8350	354	0	-100	0	230	101300000	1000	0	0	-1	250
11035635	8343	355	0	-100	0	230	101300000	1000	0	0	-1	250
11048195	8338	358	0	-100	0	230	101300000	1000	0	0	-1	250
11060755	8347	335	0	-100	0	230	101300000	1000	0	0	-1	250
11073315	8345	353	0	-100	0	230	101300000	1000	0	0	-1	250
11085875	8340	353	0	-100	0	230	101300000	1000	0	0	-1	250
11098435	8340	357	0	-100	0	230	101300000	1000	0	0	-1	250
11110995	8347	351	0	-100	0	230	101300000	1000	0	0	-1	250
11123555	8345	352	0	-100	0	230	101300000	1000	0	0	-1	250
11136115	8352	354	0	-100	0	230	101300000	1000	0	0	-1	250
11148675	8345	352	0	-100	0	230	101300000	1000	0	0	-1	250
11161235	8340	353	0	-100	0	230	101300000	1000	0	0	-1	250
11173795	8347	353	0	-100	0	230	101300000	1000	0	0	-1	250
11186355	8338	355	0	-100	0	230	101300000	1000	0	0	-1	250
11198915	8343	352	0	-100	0	230	101300000	1000	0	0	-1	250
11211475	8345	353	0	-100	0	230	101300000	1000	0	0	-1	250
11224035	8340	356	0	-100	0	230	101300000	1000	0	0	-1	250
11236595	8342	356	0	-100	0	230	101300000	1000	0	0	-1	250
11249155	8355	351	0	-100	0	230	101300000	1000	0	0	-1	250
11261715	8342	358	0	-100	0	230	101300000	1000	0	0	-1	250
11274275	8345	356	0	-100	0	230	101300000	1000	0	0	-1	250
11286835	8347	355	0	-100	0	230	101300000	1000	0	0	-1	250
11299395	8352	354	0	-100	0	230	101300000	1000	0	0	-1	250
11311955	8350	354	0	-100	0	230	101300000	1000	0	0	-1	250
11324515	8342	351	0	-100	0	230	101300000	1000	0	0	-1	250
11337075	8340	353	0	-100	0	230	101300000	1000	0	0	-1	250
11349635	8345	358	0	-100	0	230	101300000	1000	0	0	-1	250
11362195	8352	353	0	-100	0	230	101300000	1000	0	0	-1	250
11374755	8350	353	0	-100	0	230	101300000	1000	0	0	-1	250
11387315	8350	354	0	-100	0	230	101300000	1000	0	0	-1	250
11399875	8342	351	0	-100	0	230	101300000	1000	0	0	-1	250
11412435	8349	354	0	-100	0	230	101300000	1000	0	0	-1	250
11424995	8342	351	0	-100	0	230	101300000	1000	0	0	-1	250
11437555	8345	357	0	-100	0	230	101300000	1000	0	0	-1	250
11450115	8350	356	0	-100	0	230	101300000	1000	0	0	-1	250
11462675	8345	354	0	-100	0	230	101300000	1000	0	0	-1	250
11475235	8347	354	0	-100	0	230	101300000	1000	0	0	-1	250
11487795	8338	354	0	-100	0	230	101300000	1000	0	0	-1	250
11500355	8345	355	0	-100	0	230	101300000	1000	0	0	-1	250
11512915	8345	353	0	-100	0	230	101300000	1000	0	0	-1	250
11525475	8343	355	0	-100	0	230	101300000	1000	0	0	-1	250
11538035	8347	354	0	-100	0	230	101300000	1000	0	0	-1	250
11550595	8345	345	0	-100	0	230	101300000	1000	0	0	-1	250
11563155	8350	352	0	-100	0	230	101300000	1000	0	0	-1	250
11575715	8340	353	0	-100	0	230	101300000	1000	0	0	-1	250
11588275	8340	353	0	-100	0	230	101300000	1000	0	0	-1	250
11600835	8345	350	0	-100	0	230	101300000	1000	0	0	-1	250
11613395	8340	350	0	-100	0	230	101300000	1000	0	0	-1	250
11625955	8342	352	0	-100	0	230	101300000	1000	0	0	-1	250
11638515	8340	352	0	-100	0	230	101300000	1000	0	0	-1	250
11651075	8342	356	0	-100	0	230	101300000	1000	0	0	-1	250
11663635	8333	355	0	-100	0	230	101300000	1000	0	0	-1	250
11676195	8347	355	0	-100	0	230	101300000	1000	0	0	-1	250
11688755	8342	357	0	-100	0	230	101300000	1000	0	0	-1	250
11701315	8347	355	0	-100	0	230	101300000	1000	0	0	-1	250
11713875	8342	358	0	-100	0	230	101300000	1000	0	0	-1	250
11726435	8340	356	0	-100	0	230	101300000	1000	0	0	-1	250
11738995	8347	354	0	-100	0	230	101300000	1000	0	0	-1	250
11751555	8345	356	0	-100	0	230	101300000	1000	0	0	-1	250
11764115	8336	356	0	-100	0	230	101300000	1000	0	0	-1	250
11776675	8343	353	0	-100	0	230	101300000	1000	0	0	-1	250
11789235	8347	359	0	-100	0	230	101300000	1000	0	0	-1	250
11801795	8345	357	0	-100	0	230	101300000	1000	0	0	-1	250
11814355	8336	354	0	-100	0	230	101300000	1000	0	0	-1	250
11826915	8345	354	0	-100	0	230	101300000	1000	0	0	-1	250
11839475	8342	356	0	-100	0	230	101300000	1000	0	0	-1	250
11852035	8345	353	0	-100	0	230	101300000	1000	0	0	-1	250
11864595	8342	357	0	-100	0	230	101300000	1000	0	0	-1	250
11877155	8347	357	0	-100	0	230	101300000	1000	0	0	-1	250
11889715	8347	358	0	-100	0	230	101300000	1000	0	0	-1	250
11902275	8342	358	0	-100	0	230	101300000	1000	0	0	-1	250
11914835	8340	358	0	-100	0	230	101300000	1000	0	0	-1	250
11927395	8347	355	0	-100	0	230	101300000	1000	0	0	-1	250
11939955	8350	349	0	-100	0	230	101300000	1000	0	0	-1	250
11952515	8340	353	0	-100	0	230	101300000	1000	0	0	-1	250
11965075	8340	355	0	-100	0	230	101300000	1000	0	0	-1	250
11977635	8347	358	0	-100	0	230	101300000	1000	0	0	-1	250
11990195	8338	357	0	-100	0	230	101300000	1000	0	0	-1	250
12002755	8342	356	0	-100	0	230	101300000	1000	0	0	-1	250
12015315	8347	355	0	-100	0	230	101300000	1000	0	0	-1	250
12027875	8343	348	0	-100	0	230	101300000	1000	0	0	-1	250
12040435	8345	353	0	-100	0	230	101300000	1000	0	0	-1	250
12052995	8352	355	0	-100	0	230	101300000	1000	0	0	-1	250
12065555	8342	350	0	-100	0	230	101300000	1000	0	0	-1	250
12078115	8342	356	0	-100	0	230	101300000	1000	0	0	-1	250
12090675	8342	354	0	-100	0	230	101300000	1000	0	0	-1	250
12103235	8342	354	0	-100	0	230	101300000	1000	0	0	-1	250
12115795	8342	355	0	-100	0	230	101300000	1000	0	0	-1	250
12128355	8352	356	0	-100	0	230	101300000	1000	0	0	-1	250
12140915	8350	355	0	-100	0	230	101300000	1000	0	0	-1	250
12153475	8347	352	0	-100	0	230	101300000	1000	0	0	-1	250
12166035	8338	354	0	-100	0	230	101300000	1000	0	0	-1	250
12178595	8347	358	0	-100	0	230	101300000	1000	0	0	-1	250
12191155	8354	358	0	-100	0	230	101300000	1000	0	0	-1	250
12203715	8340	356	0	-100	0	230	101300000	1000	0	0	-1	250
12216275	8342	354	0	-100	0	230	101300000	1000	0	0	-1	250
12228835	8354	356	0	-100	0	230	101300000	1000	0	0	-1	250
12241395	8347	337	0	-100	0	230	101300000	1000	0	0	-1	250
12253955	8343	351	0	-100	0	230	101300000	1000	0	0	-1	250
12266515	8345	354	0	-100	0	230	101300000	1000	0	0	-1	250
12279075	8338	356	0	-100	0	230	101300000	1000	0	0	-1	250
12291635	8343	355	0	-100	0	230	101300000	1000	0	0	-1	250
12304195	8345	350	0	-100	0	230	101300000	1000	0	0	-1	250
12316755	8350	353	0	-100	0	230	101300000	1000	0	0	-1	250
12329315	8338	354	0	-100	0	230	101300000	1000	0	0	-1	250
12341875	8345	355	0	-100	0	230	101300000	1000	0	0	-1	250
12354435	8342	352	0	-100	0	230	101300000	1000	0	0	-1	250
12366995	8340	357	0	-100	0	230	101300000	1000	0	0	-1	250
12379555	8342	355	0	-100	0	230	101300000	1000	0	0	-1	250
12392115	8342	356	0	-100	0	230	101300000	1000	0	0	-1	250
12404675	8350	356	0	-100	0	230	101300000	1000	0	0	-1	250
12417235	8347	356	0	-100	0	230	101300000	1000	0	0	-1	250
12429795	8350	354	0	-100	0	230	101300000	1000	0	0	-1	250
12442355	8350	352	0	-100	0	230	101300000	1000	0	0	-1	250
12454915	8342	352	0	-100	0	230	101300000	1000	0	0	-1	250
12467475	8340	357	0	-100	0	230	101300000	1000	0	0	-1	250
12480035	8340	357	0	-100	0	230	101300000	1000	0	0	-1	250
12492595	8345	357	0	-100	0	230	101300000	1000	0	0	-1	250
12505155	8345	358	0	-100	0	230	101300000	1000	0	0	-1	250
12517715	8345	353	0	-100	0	230	101300000	1000	0	0	-1	250
12530275	8340	355	0	-100	0	230	101300000	1000	0	0	-1	250
12542835	8345	356	0	-100	0	230	101300000	1000	0	0	-1	250
12555395	8347	357	0	-100	0	230	101300000	1000	0	0	-1	250
12567955	8347	349	0	-100	0	230	101300000	1000	0	0	-1	250
12580515	8350	353	0	-100	0	230	101300000	1000	0	0	-1	250
12593075	8350	353	0	-100	0	230	101300000	1000	0	0	-1	250
12605635	8350	354	0	-100	0	230	101300000	1000	0	0	-1	250
12618195	8352	354	0	-100	0	230	101300000	1000	0	0	-1	250
12630755	8345	353	0	-100	0	230	101300000	1000	0	0	-1	250
12643315	8343	355	0	-100	0	230	101300000	1000	0	0	-1	250
12655875	8340	352	0	-100	0	230	101300000	1000	0	0	-1	250
12668435	8340	357	0	-100	0	230	101300000	1000	0	0	-1	250
12680995	8347	354	0	-100	0	230	101300000	1000	0	0	-1	250
12693555	8350	351	0	-100	0	230	101300000	1000	0	0	-1	250
12706115	8343	353	0	-100	0	230	101300000	1000	0	0	-1	250
12718675	8345	353	0	-100	0	230	101300000	1000	0	0	-1	250
12731235	8340	354	0	-100	0	230	101300000	1000	0	0	-1	250
12743795	8340	356	0	-100	0	230	101300000	1000	0	0	-1	250
12756355	8342	358	0	-100	0	230	101300000	1000	0	0	-1	250
12768915	8345	354	0	-100	0	230	101300000	1000	0	0	-1	250
12781475	8340	353	0	-100	0	230	101300000	1000	0	0	-1	250
12806595	8342	352	0	-100	0	230	101300000	1000	0	0	-1	250
12819155	8350	354	0	-100	0	230	101300000	1000	0	0	-1	250
12831715	8338	352	0	-100	0	230	101300000	1000	0	0	-1	250
12844275	8342	358	0	-100	0	230	101300000	1000	0	0	-1	250
12856835	8340	357	0	-100	0	230	101300000	1000	0	0	-1	250
12869395	8342	358	0	-100	0	230	101300000	1000	0	0	-1	250
12881955	8342	352	0	-100	0	230	101300000	1000	0	0	-1	250
12894515	8350	353	0	-100	0	230	101300000	1000	0	0	-1	250
12907075	8345	351	0	-100	0	230	101300000	1000	0	0	-1	250
12919635	8333	355	0	-100	0	230	101300000	1000	0	0	-1	250
12932195	8345	359	0	-100	0	230	101300000	1000	0	0	-1	250
12944755	8345	352	0	-100	0	230	101300000	1000	0	0	-1	250
12969875	8345	353	0	-100	0	230	101300000	1000	0	0	-1	250
12982435	8338	356	0	-100	0	230	101300000	1000	0	0	-1	250
12994995	8345	352	0	-100	0	230	101300000	1000	0	0	-1	250
13007555	8345	355	0	-100	0	230	101300000	1000	0	0	-1	250
13020115	8352	357	0	-100	0	230	101300000	1000	0	0	-1	250
13032675	8350	356	0	-100	0	230	101300000	1000	0	0	-1	250
13045235	8342	354	0	-100	0	230	101300000	1000	0	0	-1	250
13057795	8338	357	0	-100	0	230	101300000	1000	0	0	-1	250
13070355	8340	355	0	-100	0	230	101300000	1000	0	0	-1	250
13082915	8354	356	0	-100	0	230	101300000	1000	0	0	-1	250
13095475	8345	353	0	-100	0	230	101300000	1000	0	0	-1	250
13108035	8345	353	0	-100	0	230	101300000	1000	0	0	-1	250
13133155	8354	346	0	-100	0	230	101300000	1000	0	0	-1	250
13145715	8340	357	0	-100	0	230	101300000	1000	0	0	-1	250
13158275	8342	355	0	-100	0	230	101300000	1000	0	0	-1	250
13170835	8340	357	0	-100	0	230	101300000	1000	0	0	-1	250
13183395	8338	352	0	-100	0	230	101300000	1000	0	0	-1	250
13195955	8342	358	0	-100	0	230	101300000	1000	0	0	-1	250
13208515	8342	357	0	-100	0	230	101300000	1000	0	0	-1	250
13221075	8338	353	0	-100	0	230	101300000	1000	0	0	-1	250
13233635	8345	354	0	-100	0	230	101300000	1000	0	0	-1	250
13246195	8340	352	0	-100	0	230	101300000	1000	0	0	-1	250
13258755	8345	355	0	-100	0	230	101300000	1000	0	0	-1	250
13271315	8340	357	0	-100	0	230	101300000	1000	0	0	-1	250
13283875	8338	356	0	-100	0	230	101300000	1000	0	0	-1	250
13296435	8345	355	0	-100	0	230	101300000	1000	0	0	-1	250
13308995	8340	354	0	-100	0	230	101300000	1000	0	0	-1	250
13321555	8340	356	0	-100	0	230	101300000	1000	0	0	-1	250
13334115	8340	356	0	-100	0	230	101300000	1000	0	0	-1	250
13346675	8345	356	0	-100	0	230	101300000	1000	0	0	-1	250
13359235	8345	354	0	-100	0	230	101300000	1000	0	0	-1	250
13371795	8352	354	0	-100	0	230	101300000	1000	0	0	-1	250
13384355	8354	358	0	-100	0	230	101300000	1000	0	0	-1	250
13396915	8354	354	0	-100	0	230	101300000	1000	0	0	-1	250
13409475	8345	351	0	-100	0	230	101300000	1000	0	0	-1	250
13422035	8350	349	0	-100	0	230	101300000	1000	0	0	-1	250
13434595	8350	352	0	-100	0	230	101300000	1000	0	0	-1	250
13447155	8359	353	0	-100	0	230	101300000	1000	0	0	-1	250
13459715	8347	357	0	-100	0	230	101300000	1000	0	0	-1	250
13472275	8343	354	0	-100	0	230	101300000	1000	0	0	-1	250
13484835	8345	354	0	-100	0	230	101300000	1000	0	0	-1	250
13497395	8350	353	0	-100	0	230	101300000	1000	0	0	-1	250
13509955	8347	354	0	-100	0	230	101300000	1000	0	0	-1	250
13522515	8349	356	0	-100	0	230	101300000	1000	0	0	-1	250
13535075	8345	353	0	-100	0	230	101300000	1000	0	0	-1	250
13547635	8347	354	0	-100	0	230	101300000	1000	0	0	-1	250
13560195	8345	354	0	-100	0	230	101300000	1000	0	0	-1	250
13572755	8340	354	0	-100	0	230	101300000	1000	0	0	-1	250
13585315	8347	355	0	-100	0	230	101300000	1000	0	0	-1	250
13597875	8338	354	0	-100	0	230	101300000	1000	0	0	-1	250
13610435	8340	358	0	-100	0	230	101300000	1000	0	0	-1	250
13622995	8340	357	0	-100	0	230	101300000	1000	0	0	-1	250
13635555	8345	358	0	-100	0	230	101300000	1000	0	0	-1	250
13648115	8342	353	0	-100	0	230	101300000	1000	0	0	-1	250
13660675	8347	350	0	-100	0	230	101300000	1000	0	0	-1	250
13673235	8347	353	0	-100	0	230	101300000	1000	0	0	-1	250
13685795	8352	357	0	-100	0	230	101300000	1000	0	0	-1	250
13698355	8350	353	0	-100	0	230	101300000	1000	0	0	-1	250
13710915	8342	353	0	-100	0	230	101300000	1000	0	0	-1	250
13723475	8340	356	0	-100	0	230	101300000	1000	0	0	-1	250
13736035	8340	355	0	-100	0	230	101300000	1000	0	0	-1	250
13748595	8345	354	0	-100	0	230	101300000	1000	0	0	-1	250
13761155	8359	355	0	-100	0	230	101300000	1000	0	0	-1	250
13773715	8347	351	0	-100	0	230	101300000	1000	0	0	-1	250
13786275	8340	355	0	-100	0	230	101300000	1000	0	0	-1	250
13798835	8345	355	0	-100	0	230	101300000	1000	0	0	-1	250
13811395	8340	360	0	-100	0	230	101300000	1000	0	0	-1	250
13823955	8340	356	0	-100	0	230	101300000	1000	0	0	-1	250
13836515	8345	355	0	-100	0	230	101300000	1000	0	0	-1	250
13849075	8350	357	0	-100	0	230	101300000	1000	0	0	-1	250
13861635	8352	355	0	-100	0	230	101300000	1000	0	0	-1	250
13874195	8343	352	0	-100	0	230	101300000	1000	0	0	-1	250
13886755	8338	359	0	-100	0	230	101300000	1000	0	0	-1	250
13899315	8343	357	0	-100	0	230	101300000	1000	0	0	-1	250
13911875	8342	354	0	-100	0	230	101300000	1000	0	0	-1	250
13924435	8345	357	0	-100	0	230	101300000	1000	0	0	-1	250
13936995	8354	357	0	-100	0	230	101300000	1000	0	0	-1	250
13949555	8350	353	0	-100	0	230	101300000	1000	0	0	-1	250
13962115	8343	353	0	-100	0	230	101300000	1000	0	0	-1	250
13974675	8340	353	0	-100	0	230	101300000	1000	0	0	-1	250
13987235	8342	357	0	-100	0	230	101300000	1000	0	0	-1	250
13999795	8340	354	0	-100	0	230	101300000	1000	0	0	-1	250
14012355	8350	351	0	-100	0	230	101300000	1000	0	0	-1	250
14024915	8343	354	0	-100	0	230	101300000	1000	0	0	-1	250
14037475	8350	353	0	-100	0	230	101300000	1000	0	0	-1	250
14050035	8345	353	0	-100	0	230	101300000	1000	0	0	-1	250
14062595	8342	358	0	-100	0	230	101300000	1000	0	0	-1	250
14075155	8350	353	0	-100	0	230	101300000	1000	0	0	-1	250
14087715	8342	356	0	-100	0	230	101300000	1000	0	0	-1	250
14100275	8347	352	0	-100	0	230	101300000	1000	0	0	-1	250
14112835	8352	356	0	-100	0	230	101300000	1000	0	0	-1	250
14125395	8342	358	0	-100	0	230	101300000	1000	0	0	-1	250
14137955	8345	357	0	-100	0	230	101300000	1000	0	0	-1	250
14150515	8345	355	0	-100	0	230	101300000	1000	0	0	-1	250
14163075	8347	352	0	-100	0	230	101300000	1000	0	0	-1	250
14175635	8340	357	0	-100	0	230	101300000	1000	0	0	-1	250
14188195	8345	359	0	-100	0	230	101300000	1000	0	0	-1	250
14200755	8345	354	0	-100	0	230	101300000	1000	0	0	-1	250
14213315	8347	349	0	-100	0	230	101300000	1000	0	0	-1	250
14225875	8350	355	0	-100	0	230	101300000	1000	0	0	-1	250
14238435	8345	353	0	-100	0	230	101300000	1000	0	0	-1	250
14250995	8340	350	0	-100	0	230	101300000	1000	0	0	-1	250
14263555	8342	355	0	-100	0	230	101300000	1000	0	0	-1	250
14276115	8335	356	0	-100	0	230	101300000	1000	0	0	-1	250
14288675	8345	357	0	-100	0	230	101300000	1000	0	0	-1	250
14301235	8354	354	0	-100	0	230	101300000	1000	0	0	-1	250
14313795	8340	353	0	-100	0	230	101300000	1000	0	0	-1	250
14326355	8347	353	0	-100	0	230	101300000	1000	0	0	-1	250
14338915	8340	354	0	-100	0	230	101300000	1000	0	0	-1	250
14351475	8342	351	0	-100	0	230	101300000	1000	0	0	-1	250
14364035	8343	356	0	-100	0	230	101300000	1000	0	0	-1	250
14376595	8352	351	0	-100	0	230	101300000	1000	0	0	-1	250
14389155	8352	353	0	-100	0	230	101300000	1000	0	0	-1	250
14401715	8345	355	0	-100	0	230	101300000	1000	0	0	-1	250
14414275	8347	355	0	-100	0	230	101300000	1000	0	0	-1	250
14426835	8347	351	0	-100	0	230	101300000	1000	0	0	-1	250
14439395	8347	354	0	-100	0	230	101300000	1000	0	0	-1	250
14451955	8340	358	0	-100	0	230	101300000	1000	0	0	-1	250
14464515	8345	357	0	-100	0	230	101300000	1000	0	0	-1	250
14477075	8340	358	0	-100	0	230	101300000	1000	0	0	-1	250
14489635	8345	355	0	-100	0	230	101300000	1000	0	0	-1	250
14502195	8345	353	0	-100	0	230	101300000	1000	0	0	-1	250
14514755	8343	352	0	-100	0	230	101300000	1000	0	0	-1	250
14527315	8343	354	0	-100	0	230	101300000	1000	0	0	-1	250
14539875	8342	352	0	-100	0	230	101300000	1000	0	0	-1	250
14552435	8338	354	0	-100	0	230	101300000	1000	0	0	-1	250
14564995	8340	353	0	-100	0	230	101300000	1000	0	0	-1	250
14577555	8340	357	0	-100	0	230	101300000	1000	0	0	-1	250
14590115	8342	356	0	-100	0	230	101300000	1000	0	0	-1	250
14602675	8352	337	0	-100	0	230	101300000	1000	0	0	-1	250
14615235	8343	354	0	-100	0	230	101300000	1000	0	0	-1	250
14627795	8345	354	0	-100	0	230	101300000	1000	0	0	-1	250
14640355	8338	355	0	-100	0	230	101300000	1000	0	0	-1	250
14652915	8347	355	0	-100	0	230	101300000	1000	0	0	-1	250
14665475	8345	356	0	-100	0	230	101300000	1000	0	0	-1	250
14678035	8350	353	0	-100	0	230	101300000	1000	0	0	-1	250
14690595	8345	352	0	-100	0	230	101300000	1000	0	0	-1	250
14703155	8357	352	0	-100	0	230	101300000	1000	0	0	-1	250
14715715	8343	351	0	-100	0	230	101300000	1000	0	0	-1	250
14728275	8354	352	0	-100	0	230	101300000	1000	0	0	-1	250
14740835	8347	355	0	-100	0	230	101300000	1000	0	0	-1	250
14753395	8350	353	0	-100	0	230	101300000	1000	0	0	-1	250
14765955	8343	355	0	-100	0	230	101300000	1000	0	0	-1	250
14778515	8345	351	0	-100	0	230	101300000	1000	0	0	-1	250
14791075	8342	353	0	-100	0	230	101300000	1000	0	0	-1	250
14803635	8338	352	0	-100	0	230	101300000	1000	0	0	-1	250
14816195	8347	355	0	-100	0	230	101300000	1000	0	0	-1	250
14828755	8340	357	0	-100	0	230	101300000	1000	0	0	-1	250
14841315	8338	357	0	-100	0	230	101300000	1000	0	0	-1	250
14853875	8345	355	0	-100	0	230	101300000	1000	0	0	-1	250
14866435	8352	354	0	-100	0	230	101300000	1000	0	0	-1	250
14878995	8347	357	0	-100	0	230	101300000	1000	0	0	-1	250
14891555	8345	353	0	-100	0	230	101300000	1000	0	0	-1	250
14904115	8345	351	0	-100	0	230	101300000	1000	0	0	-1	250
14916675	8342	353	0	-100	0	230	101300000	1000	0	0	-1	250
14929235	8343	351	0	-100	0	230	101300000	1000	0	0	-1	250
14941795	8342	350	0	-100	0	230	101300000	1000	0	0	-1	250
14954355	8342	358	0	-100	0	230	101300000	1000	0	0	-1	250
14966915	8340	355	0	-100	0	230	101300000	1000	0	0	-1	250
14979475	8345	353	0	-100	0	230	101300000	1000	0	0	-1	250
14992035	8345	358	0	-100	0	230	101300000	1000	0	0	-1	250
15004595	8345	354	0	-100	0	230	101300000	1000	0	0	-1	250
15017155	8359	354	0	-100	0	230	101300000	1000	0	0	-1	250
15029715	8350	358	0	-100	0	230	101300000	1000	0	0	-1	250
15042275	8347	354	0	-100	0	230	101300000	1000	0	0	-1	250
15054835	8342	359	0	-100	0	230	101300000	1000	0	0	-1	250
15067395	8347	352	0	-100	0	230	101300000	1000	0	0	-1	250
15079955	8338	357	0	-100	0	230	101300000	1000	0	0	-1	250
15092515	8340	357	0	-100	0	230	101300000	1000	0	0	-1	250
15105075	8349	355	0	-100	0	230	101300000	1000	0	0	-1	250
15117635	8347	351	0	-100	0	230	101300000	1000	0	0	-1	250
15130195	8340	353	0	-100	0	230	101300000	1000	0	0	-1	250
15142755	8340	353	0	-100	0	230	101300000	1000	0	0	-1	250
15155315	8345	358	0	-100	0	230	101300000	1000	0	0	-1	250
15167875	8345	356	0	-100	0	230	101300000	1000	0	0	-1	250
15180435	8347	357	0	-100	0	230	101300000	1000	0	0	-1	250
15192995	8345	353	0	-100	0	230	101300000	1000	0	0	-1	250
15205555	8336	354	0	-100	0	230	101300000	1000	0	0	-1	250
15218115	8345	355	0	-100	0	230	101300000	1000	0	0	-1	250
15230675	8340	358	0	-100	0	230	101300000	1000	0	0	-1	250
15243235	8342	349	0	-100	0	230	101300000	1000	0	0	-1	250
15255795	8347	356	0	-100	0	230	101300000	1000	0	0	-1	250
15268355	8340	353	0	-100	0	230	101300000	1000	0	0	-1	250
15280915	8347	354	0	-100	0	230	101300000	1000	0	0	-1	250
15293475	8343	356	0	-100	0	230	101300000	1000	0	0	-1	250
15306035	8352	354	0	-100	0	230	101300000	1000	0	0	-1	250
15318595	8354	356	0	-100	0	230	101300000	1000	0	0	-1	250
15331155	8359	355	0	-100	0	230	101300000	1000	0	0	-1	250
15343715	8347	354	0	-100	0	230	101300000	1000	0	0	-1	250
15356275	8347	353	0	-100	0	230	101300000	1000	0	0	-1	250
15368835	8347	354	0	-100	0	230	101300000	1000	0	0	-1	250
15381395	8347	356	0	-100	0	230	101300000	1000	0	0	-1	250
15393955	8343	354	0	-100	0	230	101300000	1000	0	0	-1	250
15406515	8342	353	0	-100	0	230	101300000	1000	0	0	-1	250
15419075	8345	350	0	-100	0	230	101300000	1000	0	0	-1	250
15431635	8350	357	0	-100	0	230	101300000	1000	0	0	-1	250
15444195	8350	358	0	-100	0	230	101300000	1000	0	0	-1	250
15456755	8345	352	0	-100	0	230	101300000	1000	0	0	-1	250
15469315	8345	355	0	-100	0	230	101300000	1000	0	0	-1	250
15481875	8345	350	0	-100	0	230	101300000	1000	0	0	-1	250
15494435	8336	354	0	-100	0	230	101300000	1000	0	0	-1	250
15506995	8340	354	0	-100	0	230	101300000	1000	0	0	-1	250
15519555	8345	356	0	-100	0	230	101300000	1000	0	0	-1	250
15532115	8342	357	0	-100	0	230	101300000	1000	0	0	-1	250
15544675	8340	354	0	-100	0	230	101300000	1000	0	0	-1	250
15557235	8352	354	0	-100	0	230	101300000	1000	0	0	-1	250
15569795	8345	355	0	-100	0	230	101300000	1000	0	0	-1	250
15582355	8347	353	0	-100	0	230	101300000	1000	0	0	-1	250
15594915	8342	353	0	-100	0	230	101300000	1000	0	0	-1	250
15607475	8340	357	0	-100	0	230	101300000	1000	0	0	-1	250
15620035	8347	356	0	-100	0	230	101300000	1000	0	0	-1	250
15632595	8340	355	0	-100	0	230	101300000	1000	0	0	-1	250
15645155	8350	358	0	-100	0	230	101300000	1000	0	0	-1	250
15657715	8345	357	0	-100	0	230	101300000	1000	0	0	-1	250
15695395	8338	355	0	-100	0	230	101300000	1000	0	0	-1	250
15707955	8345	359	0	-100	0	230	101300000	1000	0	0	-1	250
15720515	8345	357	0	-100	0	230	101300000	1000	0	0	-1	250
15733075	8342	354	0	-100	0	230	101300000	1000	0	0	-1	250
15745635	8350	355	0	-100	0	230	101300000	1000	0	0	-1	250
15758195	8345	352	0	-100	0	230	101300000	1000	0	0	-1	250
15770755	8342	353	0	-100	0	230	101300000	1000	0	0	-1	250
15783315	8347	352	0	-100	0	230	101300000	1000	0	0	-1	250
15795875	8350	354	0	-100	0	230	101300000	1000	0	0	-1	250
15808435	8345	351	0	-100	0	230	101300000	1000	0	0	-1	250
15820995	8347	358	0	-100	0	230	101300000	1000	0	0	-1	250
15908915	8345	359	0	-100	0	230	101300000	1000	0	0	-1	250
15921475	8342	360	0	-100	0	230	101300000	1000	0	0	-1	250
15934035	8347	357	0	-100	0	230	101300000	1000	0	0	-1	250
15946595	8345	358	0	-100	0	230	101300000	1000	0	0	-1	250
15959155	8354	358	0	-100	0	230	101300000	1000	0	0	-1	250
15971715	8340	354	0	-100	0	230	101300000	1000	0	0	-1	250
15984275	8340	358	0	-100	0	230	101300000	1000	0	0	-1	250
15996835	8342	354	0	-100	0	230	101300000	1000	0	0	-1	250
16009395	8340	356	0	-100	0	230	101300000	1000	0	0	-1	250
16021955	8342	356	0	-100	0	230	101300000	1000	0	0	-1	250
16034515	8342	356	0	-100	0	230	101300000	1000	0	0	-1	250
16047075	8347	354	0	-100	0	230	101300000	1000	0	0	-1	250
16097315	8345	353	0	-100	0	230	101300000	1000	0	0	-1	250
16109875	8342	347	0	-100	0	230	101300000	1000	0	0	-1	250
16122435	8347	354	0	-100	0	230	101300000	1000	0	0	-1	250
16134995	8338	355	0	-100	0	230	101300000	1000	0	0	-1	250
16147555	8342	358	0	-100	0	230	101300000	1000	0	0	-1	250
16160115	8347	358	0	-100	0	230	101300000	1000	0	0	-1	250
16172675	8342	357	0	-100	0	230	101300000	1000	0	0	-1	250
16185235	8347	357	0	-100	0	230	101300000	1000	0	0	-1	250
16197795	8340	358	0	-100	0	230	101300000	1000	0	0	-1	250
16210355	8347	358	0	-100	0	230	101300000	1000	0	0	-1	250
16222915	8340	357	0	-100	0	230	101300000	1000	0	0	-1	250
16235475	8342	357	0	-100	0	230	101300000	1000	0	0	-1	250
16248035	8340	356	0	-100	0	230	101300000	1000	0	0	-1	250
16260595	8347	355	0	-100	0	230	101300000	1000	0	0	-1	250
16273155	8352	357	0	-100	0	230	101300000	1000	0	0	-1	250
16285715	8340	355	0	-100	0	230	101300000	1000	0	0	-1	250
16298275	8345	353	0	-100	0	230	101300000	1000	0	0	-1	250
16310835	8350	357	0	-100	0	230	101300000	1000	0	0	-1	250
16323395	8355	357	0	-100	0	230	101300000	1000	0	0	-1	250
16335955	8343	350	0	-100	0	230	101300000	1000	0	0	-1	250
16348515	8345	354	0	-100	0	230	101300000	1000	0	0	-1	250
16361075	8343	350	0	-100	0	230	101300000	1000	0	0	-1	250
16373635	8343	338	0	-100	0	230	101300000	1000	0	0	-1	250
16386195	8343	353	0	-100	0	230	101300000	1000	0	0	-1	250
16398755	8340	353	0	-100	0	230	101300000	1000	0	0	-1	250
16411315	8340	353	0	-100	0	230	101300000	1000	0	0	-1	250
16423875	8340	352	0	-100	0	230	101300000	1000	0	0	-1	250
16436435	8343	353	0	-100	0	230	101300000	1000	0	0	-1	250
16448995	8347	354	0	-100	0	230	101300000	1000	0	0	-1	250
16461555	8345	354	0	-100	0	230	101300000	1000	0	0	-1	250
16474115	8347	353	0	-100	0	230	101300000	1000	0	0	-1	250
16486675	8352	355	0	-100	0	230	101300000	1000	0	0	-1	250
16499235	8350	353	0	-100	0	230	101300000	1000	0	0	-1	250
16511795	8347	356	0	-100	0	230	101300000	1000	0	0	-1	250
16524355	8347	353	0	-100	0	230	101300000	1000	0	0	-1	250
16536915	8345	356	0	-100	0	230	101300000	1000	0	0	-1	250
16549475	8342	357	0	-100	0	230	101300000	1000	0	0	-1	250
16562035	8340	356	0	-100	0	230	101300000	1000	0	0	-1	250
16574595	8340	353	0	-100	0	230	101300000	1000	0	0	-1	250
16587155	8350	353	0	-100	0	230	101300000	1000	0	0	-1	250
16599715	8347	355	0	-100	0	230	101300000	1000	0	0	-1	250
16612275	8350	350	0	-100	0	230	101300000	1000	0	0	-1	250
16624835	8352	354	0	-100	0	230	101300000	1000	0	0	-1	250
16637395	8347	356	0	-100	0	230	101300000	1000	0	0	-1	250
16649955	8347	353	0	-100	0	230	101300000	1000	0	0	-1	250
16662515	8338	355	0	-100	0	230	101300000	1000	0	0	-1	250
16675075	8342	357	0	-100	0	230	101300000	1000	0	0	-1	250
16687635	8342	355	0	-100	0	230	101300000	1000	0	0	-1	250
16700195	8345	355	0	-100	0	230	101300000	1000	0	0	-1	250
16712755	8345	358	0	-100	0	230	101300000	1000	0	0	-1	250
16725315	8343	355	0	-100	0	230	101300000	1000	0	0	-1	250
16737875	8338	358	0	-100	0	230	101300000	1000	0	0	-1	250
16750435	8340	353	0	-100	0	230	101300000	1000	0	0	-1	250
16762995	8342	354	0	-100	0	230	101300000	1000	0	0	-1	250
16775555	8338	352	0	-100	0	230	101300000	1000	0	0	-1	250
16788115	8347	352	0	-100	0	230	101300000	1000	0	0	-1	250
16800675	8347	352	0	-100	0	230	101300000	1000	0	0	-1	250
16813235	8352	354	0	-100	0	230	101300000	1000	0	0	-1	250
16825795	8347	353	0	-100	0	230	101300000	1000	0	0	-1	250
16838355	8338	357	0	-100	0	230	101300000	1000	0	0	-1	250
16850915	8345	358	0	-100	0	230	101300000	1000	0	0	-1	250
16863475	8347	357	0	-100	0	230	101300000	1000	0	0	-1	250
16876035	8347	358	0	-100	0	230	101300000	1000	0	0	-1	250
16888595	8345	352	0	-100	0	230	101300000	1000	0	0	-1	250
16901155	8352	355	0	-100	0	230	101300000	1000	0	0	-1	250
16913715	8347	351	0	-100	0	230	101300000	1000	0	0	-1	250
16926275	8347	355	0	-100	0	230	101300000	1000	0	0	-1	250
16938835	8354	354	0	-100	0	230	101300000	1000	0	0	-1	250
16951395	8345	355	0	-100	0	230	101300000	1000	0	0	-1	250
16963955	8345	353	0	-100	0	230	101300000	1000	0	0	-1	250
16976515	8342	353	0	-100	0	230	101300000	1000	0	0	-1	250
16989075	8350	356	0	-100	0	230	101300000	1000	0	0	-1	250
17001635	8354	354	0	-100	0	230	101300000	1000	0	0	-1	250
17014195	8350	357	0	-100	0	230	101300000	1000	0	0	-1	250
17026755	8354	354	0	-100	0	230	101300000	1000	0	0	-1	250
17039315	8345	357	0	-100	0	230	101300000	1000	0	0	-1	250
17051875	8345	359	0	-100	0	230	101300000	1000	0	0	-1	250
17064435	8345	358	0	-100	0	230	101300000	1000	0	0	-1	250
17076995	8340	354	0	-100	0	230	101300000	1000	0	0	-1	250
17089555	8345	352	0	-100	0	230	101300000	1000	0	0	-1	250
17102115	8345	352	0	-100	0	230	101300000	1000	0	0	-1	250
17114675	8348	353	0	-100	0	230	101300000	1000	0	0	-1	250
17127235	8350	352	0	-100	0	230	101300000	1000	0	0	-1	250
17139795	8349	354	0	-100	0	230	101300000	1000	0	0	-1	250
17152355	8342	356	0	-100	0	230	101300000	1000	0	0	-1	250
17164915	8345	355	0	-100	0	230	101300000	1000	0	0	-1	250
17177475	8335	354	0	-100	0	230	101300000	1000	0	0	-1	250
17190035	8345	358	0	-100	0	230	101300000	1000	0	0	-1	250
17202595	8342	354	0	-100	0	230	101300000	1000	0	0	-1	250
17215155	8347	357	0	-100	0	230	101300000	1000	0	0	-1	250
17227715	8338	355	0	-100	0	230	101300000	1000	0	0	-1	250
17240275	8340	351	0	-100	0	230	101300000	1000	0	0	-1	250
17252835	8347	352	0	-100	0	230	101300000	1000	0	0	-1	250
17265395	8350	339	0	-100	0	230	101300000	1000	0	0	-1	250
17277955	8345	351	0	-100	0	230	101300000	1000	0	0	-1	250
17290515	8347	355	0	-100	0	230	101300000	1000	0	0	-1	250
17303075	8338	354	0	-100	0	230	101300000	1000	0	0	-1	250
17315635	8347	352	0	-100	0	230	101300000	1000	0	0	-1	250
17328195	8347	354	0	-100	0	230	101300000	1000	0	0	-1	250
17340755	8338	357	0	-100	0	230	101300000	1000	0	0	-1	250
17353315	8338	354	0	-100	0	230	101300000	1000	0	0	-1	250
17365875	8352	356	0	-100	0	230	101300000	1000	0	0	-1	250
17378435	8352	353	0	-100	0	230	101300000	1000	0	0	-1	250
17390995	8350	356	0	-100	0	230	101300000	1000	0	0	-1	250
17403555	8343	354	0	-100	0	230	101300000	1000	0	0	-1	250
17416115	8347	354	0	-100	0	230	101300000	1000	0	0	-1	250
17428675	8350	353	0	-100	0	230	101300000	1000	0	0	-1	250
17441235	8347	354	0	-100	0	230	101300000	1000	0	0	-1	250
17453795	8343	356	0	-100	0	230	101300000	1000	0	0	-1	250
17466355	8342	357	0	-100	0	230	101300000	1000	0	0	-1	250
17478915	8343	358	0	-100	0	230	101300000	1000	0	0	-1	250
17491475	8340	355	0	-100	0	230	101300000	1000	0	0	-1	250
17504035	8340	359	0	-100	0	230	101300000	1000	0	0	-1	250
17516595	8342	350	0	-100	0	230	101300000	1000	0	0	-1	250
17529155	8350	353	0	-100	0	230	101300000	1000	0	0	-1	250
17541715	8341	352	0	-100	0	230	101300000	1000	0	0	-1	250
17554275	8345	353	0	-100	0	230	101300000	1000	0	0	-1	250
17566835	8343	355	0	-100	0	230	101300000	1000	0	0	-1	250
17579395	8347	356	0	-100	0	230	101300000	1000	0	0	-1	250
17591955	8347	358	0	-100	0	230	101300000	1000	0	0	-1	250
17604515	8352	354	0	-100	0	230	101300000	1000	0	0	-1	250
17617075	8347	351	0	-100	0	230	101300000	1000	0	0	-1	250
17629635	8347	350	0	-100	0	230	101300000	1000	0	0	-1	250
17642195	8347	353	0	-100	0	230	101300000	1000	0	0	-1	250
17654755	8345	354	0	-100	0	230	101300000	1000	0	0	-1	250
17667315	8350	353	0	-100	0	230	101300000	1000	0	0	-1	250
17679875	8345	353	0	-100	0	230	101300000	1000	0	0	-1	250
17692435	8347	355	0	-100	0	230	101300000	1000	0	0	-1	250
17704995	8338	353	0	-100	0	230	101300000	1000	0	0	-1	250
17717555	8343	353	0	-100	0	230	101300000	1000	0	0	-1	250
17730115	8345	354	0	-100	0	230	101300000	1000	0	0	-1	250
17742675	8341	355	0	-100	0	230	101300000	1000	0	0	-1	250
17755235	8347	353	0	-100	0	230	101300000	1000	0	0	-1	250
17767795	8340	357	0	-100	0	230	101300000	1000	0	0	-1	250
17780355	8345	352	0	-100	0	230	101300000	1000	0	0	-1	250
17792915	8338	356	0	-100	0	230	101300000	1000	0	0	-1	250
17805475	8335	357	0	-100	0	230	101300000	1000	0	0	-1	250
17818035	8333	353	0	-100	0	230	101300000	1000	0	0	-1	250
17830595	8345	354	0	-100	0	230	101300000	1000	0	0	-1	250
17843155	8350	353	0	-100	0	230	101300000	1000	0	0	-1	250
17855715	8343	358	0	-100	0	230	101300000	1000	0	0	-1	250
17868275	8340	355	0	-100	0	230	101300000	1000	0	0	-1	250
17880835	8342	354	0	-100	0	230	101300000	1000	0	0	-1	250
17893395	8340	359	0	-100	0	230	101300000	1000	0	0	-1	250
17905955	8342	355	0	-100	0	230	101300000	1000	0	0	-1	250
17918515	8345	357	0	-100	0	230	101300000	1000	0	0	-1	250
17931075	8345	354	0	-100	0	230	101300000	1000	0	0	-1	250
17943635	8343	353	0	-100	0	230	101300000	1000	0	0	-1	250
17956195	8345	355	0	-100	0	230	101300000	1000	0	0	-1	250
17968755	8345	351	0	-100	0	230	101300000	1000	0	0	-1	250
17981315	8343	357	0	-100	0	230	101300000	1000	0	0	-1	250
17993875	8347	354	0	-100	0	230	101300000	1000	0	0	-1	250
18006435	8347	353	0	-100	0	230	101300000	1000	0	0	-1	250
18018995	8343	354	0	-100	0	230	101300000	1000	0	0	-1	250
18031555	8345	352	0	-100	0	230	101300000	1000	0	0	-1	250
18044115	8350	355	0	-100	0	230	101300000	1000	0	0	-1	250
18056675	8350	354	0	-100	0	230	101300000	1000	0	0	-1	250
18069235	8352	358	0	-100	0	230	101300000	1000	0	0	-1	250
18081795	8347	354	0	-100	0	230	101300000	1000	0	0	-1	250
18094355	8347	355	0	-100	0	230	101300000	1000	0	0	-1	250
18106915	8342	353	0	-100	0	230	101300000	1000	0	0	-1	250
18119475	8345	350	0	-100	0	230	101300000	1000	0	0	-1	250
18132035	8342	356	0	-100	0	230	101300000	1000	0	0	-1	250
18144595	8340	353	0	-100	0	230	101300000	1000	0	0	-1	250
18157155	8350	354	0	-100	0	230	101300000	1000	0	0	-1	250
18169715	8342	351	0	-100	0	230	101300000	1000	0	0	-1	250
18182275	8345	352	0	-100	0	230	101300000	1000	0	0	-1	250
18194835	8342	351	0	-100	0	230	101300000	1000	0	0	-1	250
18207395	8340	359	0	-100	0	230	101300000	1000	0	0	-1	250
18219955	8338	354	0	-100	0	230	101300000	1000	0	0	-1	250
18232515	8347	353	0	-100	0	230	101300000	1000	0	0	-1	250
18245075	8340	356	0	-100	0	230	101300000	1000	0	0	-1	250
18257635	8340	353	0	-100	0	230	101300000	1000	0	0	-1	250
18270195	8347	358	0	-100	0	230	101300000	1000	0	0	-1	250
18282755	8345	358	0	-100	0	230	101300000	1000	0	0	-1	250
18295315	8340	359	0	-100	0	230	101300000	1000	0	0	-1	250
18307875	8342	358	0	-100	0	230	101300000	1000	0	0	-1	250
18320435	8340	357	0	-100	0	230	101300000	1000	0	0	-1	250
18332995	8342	354	0	-100	0	230	101300000	1000	0	0	-1	250
18345555	8340	357	0	-100	0	230	101300000	1000	0	0	-1	250
18358115	8342	356	0	-100	0	230	101300000	1000	0	0	-1	250
18370675	8342	357	0	-100	0	230	101300000	1000	0	0	-1	250
18383235	8342	354	0	-100	0	230	101300000	1000	0	0	-1	250
18395795	8342	355	0	-100	0	230	101300000	1000	0	0	-1	250
18408355	8342	354	0	-100	0	230	101300000	1000	0	0	-1	250
18420915	8345	353	0	-100	0	230	101300000	1000	0	0	-1	250
18433475	8345	353	0	-100	0	230	101300000	1000	0	0	-1	250
18446035	8340	355	0	-100	0	230	101300000	1000	0	0	-1	250
18458595	8342	353	0	-100	0	230	101300000	1000	0	0	-1	250
18471155	8350	354	0	-100	0	230	101300000	1000	0	0	-1	250
18483715	8342	357	0	-100	0	230	101300000	1000	0	0	-1	250
18496275	8343	358	0	-100	0	230	101300000	1000	0	0	-1	250
18508835	8338	360	0	-100	0	230	101300000	1000	0	0	-1	250
18521395	8340	358	0	-100	0	230	101300000	1000	0	0	-1	250
18533955	8342	357	0	-100	0	230	101300000	1000	0	0	-1	250
18546515	8340	353	0	-100	0	230	101300000	1000	0	0	-1	250
18559075	8342	355	0	-100	0	230	101300000	1000	0	0	-1	250
18571635	8340	356	0	-100	0	230	101300000	1000	0	0	-1	250
18584195	8345	353	0	-100	0	230	101300000	1000	0	0	-1	250
18596755	8347	358	0	-100	0	230	101300000	1000	0	0	-1	250
18609315	8345	351	0	-100	0	230	101300000	1000	0	0	-1	250
18646995	8340	355	0	-100	0	230	101300000	1000	0	0	-1	250
18659555	8347	357	0	-100	0	230	101300000	1000	0	0	-1	250
18672115	8342	358	0	-100	0	230	101300000	1000	0	0	-1	250
18684675	8345	357	0	-100	0	230	101300000	1000	0	0	-1	250
18697235	8345	355	0	-100	0	230	101300000	1000	0	0	-1	250
18709795	8349	354	0	-100	0	230	101300000	1000	0	0	-1	250
18722355	8345	355	0	-100	0	230	101300000	1000	0	0	-1	250
18734915	8342	358	0	-100	0	230	101300000	1000	0	0	-1	250
18747475	8342	358	0	-100	0	230	101300000	1000	0	0	-1	250
18760035	8345	359	0	-100	0	230	101300000	1000	0	0	-1	250
18772595	8340	358	0	-100	0	230	101300000	1000	0	0	-1	250
18785155	8340	355	0	-100	0	230	101300000	1000	0	0	-1	250
18860515	8347	355	0	-100	0	230	101300000	1000	0	0	-1	250
18873075	8345	353	0	-100	0	230	101300000	1000	0	0	-1	250
18885635	8342	354	0	-100	0	230	101300000	1000	0	0	-1	250
18898195	8335	356	0	-100	0	230	101300000	1000	0	0	-1	250
18910755	8342	358	0	-100	0	230	101300000	1000	0	0	-1	250
18923315	8342	358	0	-100	0	230	101300000	1000	0	0	-1	250
18935875	8342	359	0	-100	0	230	101300000	1000	0	0	-1	250
18948435	8347	358	0	-100	0	230	101300000	1000	0	0	-1	250
18960995	8342	354	0	-100	0	230	101300000	1000	0	0	-1	250
18973555	8342	357	0	-100	0	230	101300000	1000	0	0	-1	250
18986115	8342	357	0	-100	0	230	101300000	1000	0	0	-1	250
18998675	8345	353	0	-100	0	230	101300000	1000	0	0	-1	250
19061475	8350	354	0	-100	0	230	101300000	1000	0	0	-1	250
19074035	8345	352	0	-100	0	230	101300000	1000	0	0	-1	250
19086595	8347	356	0	-100	0	230	101300000	1000	0	0	-1	250
19099155	8352	357	0	-100	0	230	101300000	1000	0	0	-1	250
19111715	8347	352	0	-100	0	230	101300000	1000	0	0	-1	250
19124275	8345	353	0	-100	0	230	101300000	1000	0	0	-1	250
19136835	8345	353	0	-100	0	230	101300000	1000	0	0	-1	250
19149395	8338	352	0	-100	0	230	101300000	1000	0	0	-1	250
19161955	8345	354	0	-100	0	230	101300000	1000	0	0	-1	250
19174515	8347	353	0	-100	0	230	101300000	1000	0	0	-1	250
19187075	8352	353	0	-100	0	230	101300000	1000	0	0	-1	250
19199635	8340	356	0	-100	0	230	101300000	1000	0	0	-1	250
19212195	8345	354	0	-100	0	230	101300000	1000	0	0	-1	250
19224755	8340	358	0	-100	0	230	101300000	1000	0	0	-1	250
19237315	8343	358	0	-100	0	230	101300000	1000	0	0	-1	250
19249875	8340	358	0	-100	0	230	101300000	1000	0	0	-1	250
19262435	8345	355	0	-100	0	230	101300000	1000	0	0	-1	250
19274995	8343	357	0	-100	0	230	101300000	1000	0	0	-1	250
19287555	8343	353	0	-100	0	230	101300000	1000	0	0	-1	250
19300115	8347	356	0	-100	0	230	101300000	1000	0	0	-1	250
19312675	8347	353	0	-100	0	230	101300000	1000	0	0	-1	250
19325235	8352	354	0	-100	0	230	101300000	1000	0	0	-1	250
19337795	8338	357	0	-100	0	230	101300000	1000	0	0	-1	250
19350355	8342	360	0	-100	0	230	101300000	1000	0	0	-1	250
19362915	8347	358	0	-100	0	230	101300000	1000	0	0	-1	250
19375475	8338	352	0	-100	0	230	101300000	1000	0	0	-1	250
19388035	8347	355	0	-100	0	230	101300000	1000	0	0	-1	250
19400595	8343	352	0	-100	0	230	101300000	1000	0	0	-1	250
19413155	8352	355	0	-100	0	230	101300000	1000	0	0	-1	250
19425715	8352	353	0	-100	0	230	101300000	1000	0	0	-1	250
19438275	8345	356	0	-100	0	230	101300000	1000	0	0	-1	250
19450835	8345	357	0	-100	0	230	101300000	1000	0	0	-1	250
19463395	8338	353	0	-100	0	230	101300000	1000	0	0	-1	250
19475955	8343	350	0	-100	0	230	101300000	1000	0	0	-1	250
19488515	8345	352	0	-100	0	230	101300000	1000	0	0	-1	250
19501075	8343	356	0	-100	0	230	101300000	1000	0	0	-1	250
19513635	8350	353	0	-100	0	230	101300000	1000	0	0	-1	250
19526195	8345	352	0	-100	0	230	101300000	1000	0	0	-1	250
19538755	8350	354	0	-100	0	230	101300000	1000	0	0	-1	250
19551315	8343	353	0	-100	0	230	101300000	1000	0	0	-1	250
19563875	8345	355	0	-100	0	230	101300000	1000	0	0	-1	250
19576435	8345	354	0	-100	0	230	101300000	1000	0	0	-1	250
19588995	8340	356	0	-100	0	230	101300000	1000	0	0	-1	250
19601555	8340	357	0	-100	0	230	101300000	1000	0	0	-1	250
19614115	8340	357	0	-100	0	230	101300000	1000	0	0	-1	250
19626675	8347	356	0	-100	0	230	101300000	1000	0	0	-1	250
19639235	8347	355	0	-100	0	230	101300000	1000	0	0	-1	250
19651795	8340	354	0	-100	0	230	101300000	1000	0	0	-1	250
19664355	8345	361	0	-100	0	230	101300000	1000	0	0	-1	250
19676915	8343	354	0	-100	0	230	101300000	1000	0	0	-1	250
19689475	8338	352	0	-100	0	230	101300000	1000	0	0	-1	250
19702035	8338	357	0	-100	0	230	101300000	1000	0	0	-1	250
19714595	8340	357	0	-100	0	230	101300000	1000	0	0	-1	250
19727155	8354	354	0	-100	0	230	101300000	1000	0	0	-1	250
19739715	8338	351	0	-100	0	230	101300000	1000	0	0	-1	250
19752275	8347	353	0	-100	0	230	101300000	1000	0	0	-1	250
19764835	8345	357	0	-100	0	230	101300000	1000	0	0	-1	250
19777395	8347	353	0	-100	0	230	101300000	1000	0	0	-1	250
19789955	8350	353	0	-100	0	230	101300000	1000	0	0	-1	250
19802515	8343	355	0	-100	0	230	101300000	1000	0	0	-1	250
19815075	8352	354	0	-100	0	230	101300000	1000	0	0	-1	250
19827635	8347	355	0	-100	0	230	101300000	1000	0	0	-1	250
19840195	8345	350	0	-100	0	230	101300000	1000	0	0	-1	250
19852755	8352	355	0	-100	0	230	101300000	1000	0	0	-1	250
19865315	8352	354	0	-100	0	230	101300000	1000	0	0	-1	250
19877875	8350	353	0	-100	0	230	101300000	1000	0	0	-1	250
19890435	8347	352	0	-100	0	230	101300000	1000	0	0	-1	250
19902995	8350	358	0	-100	0	230	101300000	1000	0	0	-1	250
19915555	8349	355	0	-100	0	230	101300000	1000	0	0	-1	250
19928115	8340	356	0	-100	0	230	101300000	1000	0	0	-1	250
19940675	8345	359	0	-100	0	230	101300000	1000	0	0	-1	250
19953235	8345	356	0	-100	0	230	101300000	1000	0	0	-1	250
19965795	8345	357	0	-100	0	230	101300000	1000	0	0	-1	250
19978355	8340	357	0	-100	0	230	101300000	1000	0	0	-1	250
19990915	8340	357	0	-100	0	230	101300000	1000	0	0	-1	250
20003475	8342	353	0	-100	0	230	101300000	1000	0	0	-1	250
20016035	8347	354	0	-100	0	230	101300000	1000	0	0	-1	250
20028595	8352	351	0	-100	0	230	101300000	1000	0	0	-1	250
20041155	8357	346	0	-100	0	230	101300000	1000	0	0	-1	250
20053715	8350	357	0	-100	0	230	101300000	1000	0	0	-1	250
20066275	8352	356	0	-100	0	230	101300000	1000	0	0	-1	250
20078835	8345	353	0	-100	0	230	101300000	1000	0	0	-1	250
20091395	8347	357	0	-100	0	230	101300000	1000	0	0	-1	250
20103955	8352	354	0	-100	0	230	101300000	1000	0	0	-1	250
20116515	8345	354	0	-100	0	230	101300000	1000	0	0	-1	250
20129075	8359	354	0	-100	0	230	101300000	1000	0	0	-1	250
20141635	8350	356	0	-100	0	230	101300000	1000	0	0	-1	250
20154195	8347	354	0	-100	0	230	101300000	1000	0	0	-1	250
20166755	8342	353	0	-100	0	230	101300000	1000	0	0	-1	250
20179315	8352	354	0	-100	0	230	101300000	1000	0	0	-1	250
20191875	8350	354	0	-100	0	230	101300000	1000	0	0	-1	250
20204435	8352	354	0	-100	0	230	101300000	1000	0	0	-1	250
20216995	8352	357	0	-100	0	230	101300000	1000	0	0	-1	250
20229555	8350	355	0	-100	0	230	101300000	1000	0	0	-1	250
20242115	8350	358	0	-100	0	230	101300000	1000	0	0	-1	250
20254675	8352	345	0	-100	0	230	101300000	1000	0	0	-1	250
20267235	8350	353	0	-100	0	230	101300000	1000	0	0	-1	250
20279795	8350	356	0	-100	0	230	101300000	1000	0	0	-1	250
20292355	8350	353	0	-100	0	230	101300000	1000	0	0	-1	250
20304915	8350	355	0	-100	0	230	101300000	1000	0	0	-1	250
20317475	8342	354	0	-100	0	230	101300000	1000	0	0	-1	250
20330035	8342	358	0	-100	0	230	101300000	1000	0	0	-1	250
20342595	8340	357	0	-100	0	230	101300000	1000	0	0	-1	250
20355155	8352	355	0	-100	0	230	101300000	1000	0	0	-1	250
20367715	8347	355	0	-100	0	230	101300000	1000	0	0	-1	250
20380275	8347	356	0	-100	0	230	101300000	1000	0	0	-1	250
20392835	8352	353	0	-100	0	230	101300000	1000	0	0	-1	250
20405395	8345	351	0	-100	0	230	101300000	1000	0	0	-1	250
20417955	8347	353	0	-100	0	230	101300000	1000	0	0	-1	250
20430515	8347	351	0	-100	0	230	101300000	1000	0	0	-1	250
20443075	8345	352	0	-100	0	230	101300000	1000	0	0	-1	250
20455635	8342	353	0	-100	0	230	101300000	1000	0	0	-1	250
20468195	8342	352	0	-100	0	230	101300000	1000	0	0	-1	250
20480755	8340	353	0	-100	0	230	101300000	1000	0	0	-1	250
20493315	8347	353	0	-100	0	230	101300000	1000	0	0	-1	250
20505875	8347	352	0	-100	0	230	101300000	1000	0	0	-1	250
20518435	8340	354	0	-100	0	230	101300000	1000	0	0	-1	250
20530995	8340	356	0	-100	0	230	101300000	1000	0	0	-1	250
20543555	8347	356	0	-100	0	230	101300000	1000	0	0	-1	250
20556115	8342	359	0	-100	0	230	101300000	1000	0	0	-1	250
20568675	8340	357	0	-100	0	230	101300000	1000	0	0	-1	250
20581235	8349	355	0	-100	0	230	101300000	1000	0	0	-1	250
20593795	8345	354	0	-100	0	230	101300000	1000	0	0	-1	250
20606355	8345	357	0	-100	0	230	101300000	1000	0	0	-1	250
20618915	8345	354	0	-100	0	230	101300000	1000	0	0	-1	250
20631475	8345	354	0	-100	0	230	101300000	1000	0	0	-1	250
20644035	8347	358	0	-100	0	230	101300000	1000	0	0	-1	250
20656595	8342	358	0	-100	0	230	101300000	1000	0	0	-1	250
20669155	8350	357	0	-100	0	230	101300000	1000	0	0	-1	250
20681715	8347	356	0	-100	0	230	101300000	1000	0	0	-1	250
20694275	8343	356	0	-100	0	230	101300000	1000	0	0	-1	250
20706835	8342	345	0	-100	0	230	101300000	1000	0	0	-1	250
20719395	8342	351	0	-100	0	230	101300000	1000	0	0	-1	250
20731955	8350	358	0	-100	0	230	101300000	1000	0	0	-1	250
20744515	8347	354	0	-100	0	230	101300000	1000	0	0	-1	250
20757075	8347	356	0	-100	0	230	101300000	1000	0	0	-1	250
20769635	8342	358	0	-100	0	230	101300000	1000	0	0	-1	250
20782195	8338	355	0	-100	0	230	101300000	1000	0	0	-1	250
20794755	8336	355	0	-100	0	230	101300000	1000	0	0	-1	250
20807315	8347	355	0	-100	0	230	101300000	1000	0	0	-1	250
20819875	8342	353	0	-100	0	230	101300000	1000	0	0	-1	250
20832435	8347	354	0	-100	0	230	101300000	1000	0	0	-1	250
20844995	8345	355	0	-100	0	230	101300000	1000	0	0	-1	250
20857555	8340	353	0	-100	0	230	101300000	1000	0	0	-1	250
20870115	8338	356	0	-100	0	230	101300000	1000	0	0	-1	250
20882675	8336	353	0	-100	0	230	101300000	1000	0	0	-1	250
20895235	8340	357	0	-100	0	230	101300000	1000	0	0	-1	250
20907795	8338	353	0	-100	0	230	101300000	1000	0	0	-1	250
20920355	8338	336	0	-100	0	230	101300000	1000	0	0	-1	250
20932915	8345	354	0	-100	0	230	101300000	1000	0	0	-1	250
20945475	8352	355	0	-100	0	230	101300000	1000	0	0	-1	250
20958035	8352	352	0	-100	0	230	101300000	1000	0	0	-1	250
20970595	8345	357	0	-100	0	230	101300000	1000	0	0	-1	250
20983155	8354	356	0	-100	0	230	101300000	1000	0	0	-1	250
20995715	8342	350	0	-100	0	230	101300000	1000	0	0	-1	250
21008275	8340	355	0	-100	0	230	101300000	1000	0	0	-1	250
21020835	8336	354	0	-100	0	230	101300000	1000	0	0	-1	250
21033395	8345	358	0	-100	0	230	101300000	1000	0	0	-1	250
21045955	8347	358	0	-100	0	230	101300000	1000	0	0	-1	250
21058515	8342	357	0	-100	0	230	101300000	1000	0	0	-1	250
21071075	8345	355	0	-100	0	230	101300000	1000	0	0	-1	250
21083635	8345	352	0	-100	0	230	101300000	1000	0	0	-1	250
21096195	8350	356	0	-100	0	230	101300000	1000	0	0	-1	250
21108755	8342	354	0	-100	0	230	101300000	1000	0	0	-1	250
21121315	8342	356	0	-100	0	230	101300000	1000	0	0	-1	250
21133875	8342	356	0	-100	0	230	101300000	1000	0	0	-1	250
21146435	8347	358	0	-100	0	230	101300000	1000	0	0	-1	250
21158995	8340	353	0	-100	0	230	101300000	1000	0	0	-1	250
21171555	8345	359	0	-100	0	230	101300000	1000	0	0	-1	250
21184115	8345	355	0	-100	0	230	101300000	1000	0	0	-1	250
21196675	8347	354	0	-100	0	230	101300000	1000	0	0	-1	250
21209235	8350	355	0	-100	0	230	101300000	1000	0	0	-1	250
21221795	8348	351	0	-100	0	230	101300000	1000	0	0	-1	250
21234355	8345	355	0	-100	0	230	101300000	1000	0	0	-1	250
21246915	8347	353	0	-100	0	230	101300000	1000	0	0	-1	250
21259475	8340	356	0	-100	0	230	101300000	1000	0	0	-1	250
21272035	8350	354	0	-100	0	230	101300000	1000	0	0	-1	250
21284595	8345	354	0	-100	0	230	101300000	1000	0	0	-1	250
21297155	8354	353	0	-100	0	230	101300000	1000	0	0	-1	250
21309715	8343	355	0	-100	0	230	101300000	1000	0	0	-1	250
21322275	8352	353	0	-100	0	230	101300000	1000	0	0	-1	250
21334835	8343	352	0	-100	0	230	101300000	1000	0	0	-1	250
21347395	8342	354	0	-100	0	230	101300000	1000	0	0	-1	250
21359955	8340	358	0	-100	0	230	101300000	1000	0	0	-1	250
21372515	8345	355	0	-100	0	230	101300000	1000	0	0	-1	250
21385075	8347	357	0	-100	0	230	101300000	1000	0	0	-1	250
21397635	8340	357	0	-100	0	230	101300000	1000	0	0	-1	250
21410195	8342	355	0	-100	0	230	101300000	1000	0	0	-1	250
21422755	8347	354	0	-100	0	230	101300000	1000	0	0	-1	250
21435315	8347	358	0	-100	0	230	101300000	1000	0	0	-1	250
21447875	8345	355	0	-100	0	230	101300000	1000	0	0	-1	250
21460435	8338	357	0	-100	0	230	101300000	1000	0	0	-1	250
21472995	8338	355	0	-100	0	230	101300000	1000	0	0	-1	250
21485555	8340	358	0	-100	0	230	101300000	1000	0	0	-1	250
21498115	8345	360	0	-100	0	230	101300000	1000	0	0	-1	250
21510675	8342	357	0	-100	0	230	101300000	1000	0	0	-1	250
21523235	8345	359	0	-100	0	230	101300000	1000	0	0	-1	250
21535795	8345	354	0	-100	0	230	101300000	1000	0	0	-1	250
21548355	8338	354	0	-100	0	230	101300000	1000	0	0	-1	250
21560915	8338	355	0	-100	0	230	101300000	1000	0	0	-1	250
21573475	8340	355	0	-100	0	230	101300000	1000	0	0	-1	250
21598595	8340	353	0	-100	0	230	101300000	1000	0	0	-1	250
21611155	8350	358	0	-100	0	230	101300000	1000	0	0	-1	250
21623715	8340	356	0	-100	0	230	101300000	1000	0	0	-1	250
21636275	8340	355	0	-100	0	230	101300000	1000	0	0	-1	250
21648835	8338	356	0	-100	0	230	101300000	1000	0	0	-1	250
21661395	8340	359	0	-100	0	230	101300000	1000	0	0	-1	250
21673955	8340	354	0	-100	0	230	101300000	1000	0	0	-1	250
21686515	8349	355	0	-100	0	230	101300000	1000	0	0	-1	250
21699075	8350	355	0	-100	0	230	101300000	1000	0	0	-1	250
21711635	8343	355	0	-100	0	230	101300000	1000	0	0	-1	250
21724195	8345	357	0	-100	0	230	101300000	1000	0	0	-1	250
21736755	8342	354	0	-100	0	230	101300000	1000	0	0	-1	250
21837235	8342	356	0	-100	0	230	101300000	1000	0	0	-1	250
21849795	8354	355	0	-100	0	230	101300000	1000	0	0	-1	250
21862355	8340	353	0	-100	0	230	101300000	1000	0	0	-1	250
21874915	8340	357	0	-100	0	230	101300000	1000	0	0	-1	250
21887475	8340	355	0	-100	0	230	101300000	1000	0	0	-1	250
21900035	8340	354	0	-100	0	230	101300000	1000	0	0	-1	250
21912595	8345	358	0	-100	0	230	101300000	1000	0	0	-1	250
21925155	8357	354	0	-100	0	230	101300000	1000	0	0	-1	250
21937715	8342	353	0	-100	0	230	101300000	1000	0	0	-1	250
21950275	8342	358	0	-100	0	230	101300000	1000	0	0	-1	250
21962835	8350	354	0	-100	0	230	101300000	1000	0	0	-1	250
22025635	8345	344	0	-100	0	230	101300000	1000	0	0	-1	250
22038195	8342	355	0	-100	0	230	101300000	1000	0	0	-1	250
22050755	8350	354	0	-100	0	230	101300000	1000	0	0	-1	250
22063315	8343	351	0	-100	0	230	101300000	1000	0	0	-1	250
22075875	8347	351	0	-100	0	230	101300000	1000	0	0	-1	250
22088435	8340	356	0	-100	0	230	101300000	1000	0	0	-1	250
22100995	8345	353	0	-100	0	230	101300000	1000	0	0	-1	250
22113555	8340	354	0	-100	0	230	101300000	1000	0	0	-1	250
22126115	8345	352	0	-100	0	230	101300000	1000	0	0	-1	250
22138675	8350	341	0	-100	0	230	101300000	1000	0	0	-1	250
22151235	8340	353	0	-100	0	230	101300000	1000	0	0	-1	250
22163795	8340	354	0	-100	0	230	101300000	1000	0	0	-1	250
22176355	8347	357	0	-100	0	230	101300000	1000	0	0	-1	250
22188915	8347	353	0	-100	0	230	101300000	1000	0	0	-1	250
22201475	8343	353	0	-100	0	230	101300000	1000	0	0	-1	250
22214035	8349	358	0	-100	0	230	101300000	1000	0	0	-1	250
22226595	8342	353	0	-100	0	230	101300000	1000	0	0	-1	250
22239155	8357	355	0	-100	0	230	101300000	1000	0	0	-1	250
22251715	8342	353	0	-100	0	230	101300000	1000	0	0	-1	250
22264275	8340	355	0	-100	0	230	101300000	1000	0	0	-1	250
22276835	8340	358	0	-100	0	230	101300000	1000	0	0	-1	250
22289395	8345	357	0	-100	0	230	101300000	1000	0	0	-1	250
22301955	8345	351	0	-100	0	230	101300000	1000	0	0	-1	250
22314515	8347	351	0	-100	0	230	101300000	1000	0	0	-1	250
22327075	8350	354	0	-100	0	230	101300000	1000	0	0	-1	250
22339635	8342	356	0	-100	0	230	101300000	1000	0	0	-1	250
22352195	8342	354	0	-100	0	230	101300000	1000	0	0	-1	250
22364755	8342	357	0	-100	0	230	101300000	1000	0	0	-1	250
22377315	8347	355	0	-100	0	230	101300000	1000	0	0	-1	250
22389875	8345	350	0	-100	0	230	101300000	1000	0	0	-1	250
22402435	8347	353	0	-100	0	230	101300000	1000	0	0	-1	250
22414995	8340	351	0	-100	0	230	101300000	1000	0	0	-1	250
22427555	8340	355	0	-100	0	230	101300000	1000	0	0	-1	250
22440115	8347	353	0	-100	0	230	101300000	1000	0	0	-1	250
22452675	8352	354	0	-100	0	230	101300000	1000	0	0	-1	250
22465235	8340	352	0	-100	0	230	101300000	1000	0	0	-1	250
22477795	8340	351	0	-100	0	230	101300000	1000	0	0	-1	250
22490355	8335	357	0	-100	0	230	101300000	1000	0	0	-1	250
22502915	8352	355	0	-100	0	230	101300000	1000	0	0	-1	250
22515475	8345	353	0	-100	0	230	101300000	1000	0	0	-1	250
22528035	8338	354	0	-100	0	230	101300000	1000	0	0	-1	250
22540595	8340	356	0	-100	0	230	101300000	1000	0	0	-1	250
22553155	8347	353	0	-100	0	230	101300000	1000	0	0	-1	250
22565715	8347	357	0	-100	0	230	101300000	1000	0	0	-1	250
22578275	8350	353	0	-100	0	230	101300000	1000	0	0	-1	250
22590835	8340	353	0	-100	0	230	101300000	1000	0	0	-1	250
22603395	8340	360	0	-100	0	230	101300000	1000	0	0	-1	250
22615955	8347	356	0	-100	0	230	101300000	1000	0	0	-1	250
22628515	8338	352	0	-100	0	230	101300000	1000	0	0	-1	250
22641075	8336	353	0	-100	0	230	101300000	1000	0	0	-1	250
22653635	8342	354	0	-100	0	230	101300000	1000	0	0	-1	250
22666195	8352	354	0	-100	0	230	101300000	1000	0	0	-1	250
22678755	8347	350	0	-100	0	230	101300000	1000	0	0	-1	250
22691315	8338	355	0	-100	0	230	101300000	1000	0	0	-1	250
22703875	8340	354	0	-100	0	230	101300000	1000	0	0	-1	250
22716435	8341	353	0	-100	0	230	101300000	1000	0	0	-1	250
22728995	8342	355	0	-100	0	230	101300000	1000	0	0	-1	250
22741555	8342	355	0	-100	0	230	101300000	1000	0	0	-1	250
22754115	8342	358	0	-100	0	230	101300000	1000	0	0	-1	250
22766675	8342	355	0	-100	0	230	101300000	1000	0	0	-1	250
22779235	8345	355	0	-100	0	230	101300000	1000	0	0	-1	250
22791795	8345	353	0	-100	0	230	101300000	1000	0	0	-1	250
22804355	8342	353	0	-100	0	230	101300000	1000	0	0	-1	250
22816915	8340	354	0	-100	0	230	101300000	1000	0	0	-1	250
22829475	8338	357	0	-100	0	230	101300000	1000	0	0	-1	250
22842035	8342	357	0	-100	0	230	101300000	1000	0	0	-1	250
22854595	8340	357	0	-100	0	230	101300000	1000	0	0	-1	250
22867155	8354	354	0	-100	0	230	101300000	1000	0	0	-1	250
22879715	8347	353	0	-100	0	230	101300000	1000	0	0	-1	250
22892275	8340	358	0	-100	0	230	101300000	1000	0	0	-1	250
22904835	8340	355	0	-100	0	230	101300000	1000	0	0	-1	250
22917395	8340	357	0	-100	0	230	101300000	1000	0	0	-1	250
22929955	8343	352	0	-100	0	230	101300000	1000	0	0	-1	250
22942515	8345	353	0	-100	0	230	101300000	1000	0	0	-1	250
22955075	8340	357	0	-100	0	230	101300000	1000	0	0	-1	250
22967635	8338	357	0	-100	0	230	101300000	1000	0	0	-1	250
22980195	8347	353	0	-100	0	230	101300000	1000	0	0	-1	250
22992755	8345	352	0	-100	0	230	101300000	1000	0	0	-1	250
23005315	8338	357	0	-100	0	230	101300000	1000	0	0	-1	250
23017875	8342	356	0	-100	0	230	101300000	1000	0	0	-1	250
23030435	8352	351	0	-100	0	230	101300000	1000	0	0	-1	250
23042995	8340	357	0	-100	0	230	101300000	1000	0	0	-1	250
23055555	8345	355	0	-100	0	230	101300000	1000	0	0	-1	250
23068115	8338	356	0	-100	0	230	101300000	1000	0	0	-1	250
23080675	8345	354	0	-100	0	230	101300000	1000	0	0	-1	250
23093235	8345	353	0	-100	0	230	101300000	1000	0	0	-1	250
23105795	8340	353	0	-100	0	230	101300000	1000	0	0	-1	250
23118355	8342	357	0	-100	0	230	101300000	1000	0	0	-1	250
23130915	8345	356	0	-100	0	230	101300000	1000	0	0	-1	250
23143475	8343	356	0	-100	0	230	101300000	1000	0	0	-1	250
23156035	8340	351	0	-100	0	230	101300000	1000	0	0	-1	250
23168595	8345	357	0	-100	0	230	101300000	1000	0	0	-1	250
23181155	8349	356	0	-100	0	230	101300000	1000	0	0	-1	250
23193715	8347	357	0	-100	0	230	101300000	1000	0	0	-1	250
23206275	8347	357	0	-100	0	230	101300000	1000	0	0	-1	250
23218835	8345	353	0	-100	0	230	101300000	1000	0	0	-1	250
23231395	8336	357	0	-100	0	230	101300000	1000	0	0	-1	250
23243955	8345	358	0	-100	0	230	101300000	1000	0	0	-1	250
23256515	8340	339	0	-100	0	230	101300000	1000	0	0	-1	250
23269075	8345	357	0	-100	0	230	101300000	1000	0	0	-1	250
23281635	8345	354	0	-100	0	230	101300000	1000	0	0	-1	250
23294195	8343	353	0	-100	0	230	101300000	1000	0	0	-1	250
23306755	8345	353	0	-100	0	230	101300000	1000	0	0	-1	250
23319315	8342	352	0	-100	0	230	101300000	1000	0	0	-1	250
23331875	8338	357	0	-100	0	230	101300000	1000	0	0	-1	250
23344435	8345	357	0	-100	0	230	101300000	1000	0	0	-1	250
23356995	8352	357	0	-100	0	230	101300000	1000	0	0	-1	250
23369555	8345	353	0	-100	0	230	101300000	1000	0	0	-1	250
23382115	8336	353	0	-100	0	230	101300000	1000	0	0	-1	250
23394675	8338	352	0	-100	0	230	101300000	1000	0	0	-1	250
23407235	8338	355	0	-100	0	230	101300000	1000	0	0	-1	250
23419795	8350	355	0	-100	0	230	101300000	1000	0	0	-1	250
23432355	8352	354	0	-100	0	230	101300000	1000	0	0	-1	250
23444915	8347	353	0	-100	0	230	101300000	1000	0	0	-1	250
23457475	8336	357	0	-100	0	230	101300000	1000	0	0	-1	250
23470035	8345	354	0	-100	0	230	101300000	1000	0	0	-1	250
23482595	8345	357	0	-100	0	230	101300000	1000	0	0	-1	250
23495155	8354	359	0	-100	0	230	101300000	1000	0	0	-1	250
23507715	8345	357	0	-100	0	230	101300000	1000	0	0	-1	250
23520275	8342	356	0	-100	0	230	101300000	1000	0	0	-1	250
23532835	8343	356	0	-100	0	230	101300000	1000	0	0	-1	250
23545395	8340	353	0	-100	0	230	101300000	1000	0	0	-1	250
23557955	8347	354	0	-100	0	230	101300000	1000	0	0	-1	250
23570515	8349	354	0	-100	0	230	101300000	1000	0	0	-1	250
23583075	8343	355	0	-100	0	230	101300000	1000	0	0	-1	250
23595635	8352	357	0	-100	0	230	101300000	1000	0	0	-1	250
23608195	8348	343	0	-100	0	230	101300000	1000	0	0	-1	250
23620755	8345	352	0	-100	0	230	101300000	1000	0	0	-1	250
23633315	8342	357	0	-100	0	230	101300000	1000	0	0	-1	250
23645875	8338	358	0	-100	0	230	101300000	1000	0	0	-1	250
23658435	8347	359	0	-100	0	230	101300000	1000	0	0	-1	250
23670995	8343	350	0	-100	0	230	101300000	1000	0	0	-1	250
23683555	8345	358	0	-100	0	230	101300000	1000	0	0	-1	250
23696115	8342	358	0	-100	0	230	101300000	1000	0	0	-1	250
23708675	8345	354	0	-100	0	230	101300000	1000	0	0	-1	250
23721235	8352	359	0	-100	0	230	101300000	1000	0	0	-1	250
23733795	8350	356	0	-100	0	230	101300000	1000	0	0	-1	250
23746355	8354	357	0	-100	0	230	101300000	1000	0	0	-1	250
23758915	8350	352	0	-100	0	230	101300000	1000	0	0	-1	250
23771475	8345	350	0	-100	0	230	101300000	1000	0	0	-1	250
23784035	8350	353	0	-100	0	230	101300000	1000	0	0	-1	250
23796595	8345	354	0	-100	0	230	101300000	1000	0	0	-1	250
23809155	8354	353	0	-100	0	230	101300000	1000	0	0	-1	250
23821715	8340	355	0	-100	0	230	101300000	1000	0	0	-1	250
23834275	8340	359	0	-100	0	230	101300000	1000	0	0	-1	250
23846835	8340	357	0	-100	0	230	101300000	1000	0	0	-1	250
23859395	8347	358	0	-100	0	230	101300000	1000	0	0	-1	250
23871955	8347	354	0	-100	0	230	101300000	1000	0	0	-1	250
23884515	8340	356	0	-100	0	230	101300000	1000	0	0	-1	250
23897075	8347	358	0	-100	0	230	101300000	1000	0	0	-1	250
23909635	8342	357	0	-100	0	230	101300000	1000	0	0	-1	250
23922195	8342	356	0	-100	0	230	101300000	1000	0	0	-1	250
23934755	8350	353	0	-100	0	230	101300000	1000	0	0	-1	250
23947315	8340	352	0	-100	0	230	101300000	1000	0	0	-1	250
23959875	8340	355	0	-100	0	230	101300000	1000	0	0	-1	250
23972435	8340	355	0	-100	0	230	101300000	1000	0	0	-1	250
23984995	8345	354	0	-100	0	230	101300000	1000	0	0	-1	250
23997555	8340	356	0	-100	0	230	101300000	1000	0	0	-1	250
24010115	8354	357	0	-100	0	230	101300000	1000	0	0	-1	250
24022675	8345	351	0	-100	0	230	101300000	1000	0	0	-1	250
24035235	8352	355	0	-100	0	230	101300000	1000	0	0	-1	250
24047795	8343	356	0	-100	0	230	101300000	1000	0	0	-1	250
24060355	8347	360	0	-100	0	230	101300000	1000	0	0	-1	250
24072915	8336	357	0	-100	0	230	101300000	1000	0	0	-1	250
24085475	8352	356	0	-100	0	230	101300000	1000	0	0	-1	250
24098035	8345	358	0	-100	0	230	101300000	1000	0	0	-1	250
24110595	8345	355	0	-100	0	230	101300000	1000	0	0	-1	250
24123155	8352	360	0	-100	0	230	101300000	1000	0	0	-1	250
24135715	8347	358	0	-100	0	230	101300000	1000	0	0	-1	250
24148275	8342	356	0	-100	0	230	101300000	1000	0	0	-1	250
24160835	8347	356	0	-100	0	230	101300000	1000	0	0	-1	250
24173395	8350	356	0	-100	0	230	101300000	1000	0	0	-1	250
24185955	8347	355	0	-100	0	230	101300000	1000	0	0	-1	250
24198515	8343	353	0	-100	0	230	101300000	1000	0	0	-1	250
24211075	8340	353	0	-100	0	230	101300000	1000	0	0	-1	250
24223635	8343	356	0	-100	0	230	101300000	1000	0	0	-1	250
24236195	8345	358	0	-100	0	230	101300000	1000	0	0	-1	250
24248755	8342	360	0	-100	0	230	101300000	1000	0	0	-1	250
24261315	8345	355	0	-100	0	230	101300000	1000	0	0	-1	250
24273875	8343	354	0	-100	0	230	101300000	1000	0	0	-1	250
24286435	8338	353	0	-100	0	230	101300000	1000	0	0	-1	250
24298995	8342	352	0	-100	0	230	101300000	1000	0	0	-1	250
24311555	8345	356	0	-100	0	230	101300000	1000	0	0	-1	250
24324115	8336	354	0	-100	0	230	101300000	1000	0	0	-1	250
24336675	8338	352	0	-100	0	230	101300000	1000	0	0	-1	250
24349235	8345	354	0	-100	0	230	101300000	1000	0	0	-1	250
24361795	8347	352	0	-100	0	230	101300000	1000	0	0	-1	250
24374355	8345	354	0	-100	0	230	101300000	1000	0	0	-1	250
24386915	8336	355	0	-100	0	230	101300000	1000	0	0	-1	250
24399475	8345	353	0	-100	0	230	101300000	1000	0	0	-1	250
24412035	8340	360	0	-100	0	230	101300000	1000	0	0	-1	250
24424595	8340	358	0	-100	0	230	101300000	1000	0	0	-1	250
24437155	8352	359	0	-100	0	230	101300000	1000	0	0	-1	250
24449715	8347	354	0	-100	0	230	101300000	1000	0	0	-1	250
24462275	8347	356	0	-100	0	230	101300000	1000	0	0	-1	250
24474835	8347	353	0	-100	0	230	101300000	1000	0	0	-1	250
24487395	8347	349	0	-100	0	230	101300000	1000	0	0	-1	250
24499955	8350	356	0	-100	0	230	101300000	1000	0	0	-1	250
24512515	8345	354	0	-100	0	230	101300000	1000	0	0	-1	250
24525075	8338	353	0	-100	0	230	101300000	1000	0	0	-1	250
24537635	8342	356	0	-100	0	230	101300000	1000	0	0	-1	250
24550195	8340	354	0	-100	0	230	101300000	1000	0	0	-1	250
24562755	8347	358	0	-100	0	230	101300000	1000	0	0	-1	250
24575315	8340	353	0	-100	0	230	101300000	1000	0	0	-1	250
24587875	8336	356	0	-100	0	230	101300000	1000	0	0	-1	250
24600435	8342	358	0	-100	0	230	101300000	1000	0	0	-1	250
24612995	8342	356	0	-100	0	230	101300000	1000	0	0	-1	250
24625555	8340	358	0	-100	0	230	101300000	1000	0	0	-1	250
24638115	8340	353	0	-100	0	230	101300000	1000	0	0	-1	250
24650675	8342	354	0	-100	0	230	101300000	1000	0	0	-1	250
24663235	8350	357	0	-100	0	230	101300000	1000	0	0	-1	250
24675795	8350	356	0	-100	0	230	101300000	1000	0	0	-1	250
24688355	8355	356	0	-100	0	230	101300000	1000	0	0	-1	250
24700915	8352	355	0	-100	0	230	101300000	1000	0	0	-1	250
24713475	8352	339	0	-100	0	230	101300000	1000	0	0	-1	250
24801395	8345	358	0	-100	0	230	101300000	1000	0	0	-1	250
24813955	8352	356	0	-100	0	230	101300000	1000	0	0	-1	250
24826515	8345	353	0	-100	0	230	101300000	1000	0	0	-1	250
24839075	8345	353	0	-100	0	230	101300000	1000	0	0	-1	250
24851635	8343	355	0	-100	0	230	101300000	1000	0	0	-1	250
24864195	8347	354	0	-100	0	230	101300000	1000	0	0	-1	250
24876755	8343	353	0	-100	0	230	101300000	1000	0	0	-1	250
24889315	8347	355	0	-100	0	230	101300000	1000	0	0	-1	250
24901875	8342	353	0	-100	0	230	101300000	1000	0	0	-1	250
24914435	8343	357	0	-100	0	230	101300000	1000	0	0	-1	250
24926995	8342	356	0	-100	0	230	101300000	1000	0	0	-1	250
24939555	8345	359	0	-100	0	230	101300000	1000	0	0	-1	250
25027475	8340	353	0	-100	0	230	101300000	1000	0	0	-1	250
25040035	8347	353	0	-100	0	230	101300000	1000	0	0	-1	250
25052595	8343	352	0	-100	0	230	101300000	1000	0	0	-1	250
25065155	8355	353	0	-100	0	230	101300000	1000	0	0	-1	250
25077715	8347	355	0	-100	0	230	101300000	1000	0	0	-1	250
25090275	8350	357	0	-100	0	230	101300000	1000	0	0	-1	250
25102835	8345	356	0	-100	0	230	101300000	1000	0	0	-1	250
25115395	8345	356	0	-100	0	230	101300000	1000	0	0	-1	250
25127955	8347	353	0	-100	0	230	101300000	1000	0	0	-1	250
25140515	8347	355	0	-100	0	230	101300000	1000	0	0	-1	250
25153075	8347	354	0	-100	0	230	101300000	1000	0	0	-1	250
25165635	8345	350	0	-100	0	230	101300000	1000	0	0	-1	250
25178195	8345	353	0	-100	0	230	101300000	1000	0	0	-1	250
25190755	8345	351	0	-100	0	230	101300000	1000	0	0	-1	250
25203315	8340	356	0	-100	0	230	101300000	1000	0	0	-1	250
25215875	8340	355	0	-100	0	230	101300000	1000	0	0	-1	250
25228435	8340	359	0	-100	0	230	101300000	1000	0	0	-1	250
25240995	8350	356	0	-100	0	230	101300000	1000	0	0	-1	250
25253555	8345	352	0	-100	0	230	101300000	1000	0	0	-1	250
25266115	8345	357	0	-100	0	230	101300000	1000	0	0	-1	250
25278675	8345	357	0	-100	0	230	101300000	1000	0	0	-1	250
25291235	8340	357	0	-100	0	230	101300000	1000	0	0	-1	250
25303795	8343	349	0	-100	0	230	101300000	1000	0	0	-1	250
25316355	8352	350	0	-100	0	230	101300000	1000	0	0	-1	250
25328915	8350	355	0	-100	0	230	101300000	1000	0	0	-1	250
25341475	8345	358	0	-100	0	230	101300000	1000	0	0	-1	250
25354035	8350	353	0	-100	0	230	101300000	1000	0	0	-1	250
25366595	8343	353	0	-100	0	230	101300000	1000	0	0	-1	250
25379155	8345	360	0	-100	0	230	101300000	1000	0	0	-1	250
25391715	8345	358	0	-100	0	230	101300000	1000	0	0	-1	250
25404275	8340	355	0	-100	0	230	101300000	1000	0	0	-1	250
25416835	8345	353	0	-100	0	230	101300000	1000	0	0	-1	250
25429395	8345	352	0	-100	0	230	101300000	1000	0	0	-1	250
25441955	8345	354	0	-100	0	230	101300000	1000	0	0	-1	250
25454515	8345	356	0	-100	0	230	101300000	1000	0	0	-1	250
25467075	8342	359	0	-100	0	230	101300000	1000	0	0	-1	250
25479635	8338	355	0	-100	0	230	101300000	1000	0	0	-1	250
25492195	8345	349	0	-100	0	230	101300000	1000	0	0	-1	250
25504755	8345	355	0	-100	0	230	101300000	1000	0	0	-1	250
25517315	8345	355	0	-100	0	230	101300000	1000	0	0	-1	250
25529875	8338	357	0	-100	0	230	101300000	1000	0	0	-1	250
25542435	8342	356	0	-100	0	230	101300000	1000	0	0	-1	250
25554995	8338	354	0	-100	0	230	101300000	1000	0	0	-1	250
25567555	8347	357	0	-100	0	230	101300000	1000	0	0	-1	250
25580115	8342	355	0	-100	0	230	101300000	1000	0	0	-1	250
25592675	8342	354	0	-100	0	230	101300000	1000	0	0	-1	250
25605235	8347	354	0	-100	0	230	101300000	1000	0	0	-1	250
25617795	8340	357	0	-100	0	230	101300000	1000	0	0	-1	250
25630355	8338	357	0	-100	0	230	101300000	1000	0	0	-1	250
25642915	8338	357	0	-100	0	230	101300000	1000	0	0	-1	250
25655475	8347	356	0	-100	0	230	101300000	1000	0	0	-1	250
25668035	8342	353	0	-100	0	230	101300000	1000	0	0	-1	250
25680595	8333	356	0	-100	0	230	101300000	1000	0	0	-1	250
25693155	8347	354	0	-100	0	230	101300000	1000	0	0	-1	250
25705715	8343	355	0	-100	0	230	101300000	1000	0	0	-1	250
25718275	8343	354	0	-100	0	230	101300000	1000	0	0	-1	250
25730835	8347	356	0	-100	0	230	101300000	1000	0	0	-1	250
25743395	8347	356	0	-100	0	230	101300000	1000	0	0	-1	250
25755955	8343	354	0	-100	0	230	101300000	1000	0	0	-1	250
25768515	8350	354	0	-100	0	230	101300000	1000	0	0	-1	250
25781075	8345	354	0	-100	0	230	101300000	1000	0	0	-1	250
25793635	8347	355	0	-100	0	230	101300000	1000	0	0	-1	250
25806195	8342	360	0	-100	0	230	101300000	1000	0	0	-1	250
25818755	8340	356	0	-100	0	230	101300000	1000	0	0	-1	250
25831315	8340	358	0	-100	0	230	101300000	1000	0	0	-1	250
25843875	8340	358	0	-100	0	230	101300000	1000	0	0	-1	250
25856435	8342	357	0	-100	0	230	101300000	1000	0	0	-1	250
25868995	8347	357	0	-100	0	230	101300000	1000	0	0	-1	250
25881555	8345	354	0	-100	0	230	101300000	1000	0	0	-1	250
25894115	8350	356	0	-100	0	230	101300000	1000	0	0	-1	250
25906675	8354	357	0	-100	0	230	101300000	1000	0	0	-1	250
25919235	8347	354	0	-100	0	230	101300000	1000	0	0	-1	250
25931795	8341	354	0	-100	0	230	101300000	1000	0	0	-1	250
25944355	8343	354	0	-100	0	230	101300000	1000	0	0	-1	250
25956915	8345	352	0	-100	0	230	101300000	1000	0	0	-1	250
25969475	8345	350	0	-100	0	230	101300000	1000	0	0	-1	250
25982035	8352	352	0	-100	0	230	101300000	1000	0	0	-1	250
25994595	8352	356	0	-100	0	230	101300000	1000	0	0	-1	250
26007155	8357	354	0	-100	0	230	101300000	1000	0	0	-1	250
26019715	8345	355	0	-100	0	230	101300000	1000	0	0	-1	250
26032275	8347	353	0	-100	0	230	101300000	1000	0	0	-1	250
26044835	8340	352	0	-100	0	230	101300000	1000	0	0	-1	250
26057395	8345	355	0	-100	0	230	101300000	1000	0	0	-1	250
26069955	8340	359	0	-100	0	230	101300000	1000	0	0	-1	250
26082515	8349	356	0	-100	0	230	101300000	1000	0	0	-1	250
26095075	8345	355	0	-100	0	230	101300000	1000	0	0	-1	250
26107635	8345	356	0	-100	0	230	101300000	1000	0	0	-1	250
26120195	8340	343	0	-100	0	230	101300000	1000	0	0	-1	250
26132755	8338	353	0	-100	0	230	101300000	1000	0	0	-1	250
26145315	8343	354	0	-100	0	230	101300000	1000	0	0	-1	250
26157875	8342	358	0	-100	0	230	101300000	1000	0	0	-1	250
26170435	8342	358	0	-100	0	230	101300000	1000	0	0	-1	250
26182995	8342	353	0	-100	0	230	101300000	1000	0	0	-1	250
26195555	8342	357	0	-100	0	230	101300000	1000	0	0	-1	250
26208115	8338	355	0	-100	0	230	101300000	1000	0	0	-1	250
26220675	8345	353	0	-100	0	230	101300000	1000	0	0	-1	250
26233235	8340	340	0	-100	0	230	101300000	1000	0	0	-1	250
26245795	8347	357	0	-100	0	230	101300000	1000	0	0	-1	250
26258355	8347	350	0	-100	0	230	101300000	1000	0	0	-1	250
26270915	8347	357	0	-100	0	230	101300000	1000	0	0	-1	250
26283475	8343	353	0	-100	0	230	101300000	1000	0	0	-1	250
26296035	8340	353	0	-100	0	230	101300000	1000	0	0	-1	250
26308595	8340	354	0	-100	0	230	101300000	1000	0	0	-1	250
26321155	8352	361	0	-100	0	230	101300000	1000	0	0	-1	250
26333715	8345	358	0	-100	0	230	101300000	1000	0	0	-1	250
26346275	8342	357	0	-100	0	230	101300000	1000	0	0	-1	250
26358835	8342	356	0	-100	0	230	101300000	1000	0	0	-1	250
26371395	8345	358	0	-100	0	230	101300000	1000	0	0	-1	250
26383955	8338	357	0	-100	0	230	101300000	1000	0	0	-1	250
26396515	8338	354	0	-100	0	230	101300000	1000	0	0	-1	250
26409075	8345	355	0	-100	0	230	101300000	1000	0	0	-1	250
26421635	8347	355	0	-100	0	230	101300000	1000	0	0	-1	250
26434195	8345	357	0	-100	0	230	101300000	1000	0	0	-1	250
26446755	8347	355	0	-100	0	230	101300000	1000	0	0	-1	250
26459315	8342	356	0	-100	0	230	101300000	1000	0	0	-1	250
26471875	8345	354	0	-100	0	230	101300000	1000	0	0	-1	250
26484435	8345	354	0	-100	0	230	101300000	1000	0	0	-1	250
26496995	8354	360	0	-100	0	230	101300000	1000	0	0	-1	250
26509555	8350	353	0	-100	0	230	101300000	1000	0	0	-1	250
26522115	8340	353	0	-100	0	230	101300000	1000	0	0	-1	250
26534675	8340	354	0	-100	0	230	101300000	1000	0	0	-1	250
26547235	8340	358	0	-100	0	230	101300000	1000	0	0	-1	250
26559795	8347	356	0	-100	0	230	101300000	1000	0	0	-1	250
26572355	8345	357	0	-100	0	230	101300000	1000	0	0	-1	250
26584915	8345	353	0	-100	0	230	101300000	1000	0	0	-1	250
26597475	8350	357	0	-100	0	230	101300000	1000	0	0	-1	250
26610035	8347	354	0	-100	0	230	101300000	1000	0	0	-1	250
26622595	8340	353	0	-100	0	230	101300000	1000	0	0	-1	250
26635155	8347	357	0	-100	0	230	101300000	1000	0	0	-1	250
26647715	8336	355	0	-100	0	230	101300000	1000	0	0	-1	250
26660275	8342	354	0	-100	0	230	101300000	1000	0	0	-1	250
26672835	8345	355	0	-100	0	230	101300000	1000	0	0	-1	250
26685395	8345	351	0	-100	0	230	101300000	1000	0	0	-1	250
26697955	8345	353	0	-100	0	230	101300000	1000	0	0	-1	250
26710515	8343	353	0	-100	0	230	101300000	1000	0	0	-1	250
26723075	8350	358	0	-100	0	230	101300000	1000	0	0	-1	250
26735635	8350	356	0	-100	0	230	101300000	1000	0	0	-1	250
26748195	8345	355	0	-100	0	230	101300000	1000	0	0	-1	250
26760755	8347	354	0	-100	0	230	101300000	1000	0	0	-1	250
26773315	8343	355	0	-100	0	230	101300000	1000	0	0	-1	250
26785875	8345	353	0	-100	0	230	101300000	1000	0	0	-1	250
26798435	8340	354	0	-100	0	230	101300000	1000	0	0	-1	250
26810995	8342	357	0	-100	0	230	101300000	1000	0	0	-1	250
26823555	8340	359	0	-100	0	230	101300000	1000	0	0	-1	250
26836115	8336	359	0	-100	0	230	101300000	1000	0	0	-1	250
26848675	8340	357	0	-100	0	230	101300000	1000	0	0	-1	250
26861235	8345	355	0	-100	0	230	101300000	1000	0	0	-1	250
26873795	8347	357	0	-100	0	230	101300000	1000	0	0	-1	250
26886355	8336	357	0	-100	0	230	101300000	1000	0	0	-1	250
26898915	8352	358	0	-100	0	230	101300000	1000	0	0	-1	250
26911475	8343	356	0	-100	0	230	101300000	1000	0	0	-1	250
26924035	8338	357	0	-100	0	230	101300000	1000	0	0	-1	250
26936595	8340	359	0	-100	0	230	101300000	1000	0	0	-1	250
26949155	8352	357	0	-100	0	230	101300000	1000	0	0	-1	250
26961715	8340	356	0	-100	0	230	101300000	1000	0	0	-1	250
26974275	8342	358	0	-100	0	230	101300000	1000	0	0	-1	250
26986835	8340	353	0	-100	0	230	101300000	1000	0	0	-1	250
26999395	8340	355	0	-100	0	230	101300000	1000	0	0	-1	250
27011955	8347	353	0	-100	0	230	101300000	1000	0	0	-1	250
27024515	8352	356	0	-100	0	230	101300000	1000	0	0	-1	250
27037075	8345	352	0	-100	0	230	101300000	1000	0	0	-1	250
27049635	8345	353	0	-100	0	230	101300000	1000	0	0	-1	250
