timestamp	voltage	current	windSpeed	pitchAngle	rpm	temperature	ambientPressure	humidity	accelerationX	accelerationY	accelerationZ	currentSink
7040070	8524	0	0	-100	0	230	101300000	1000	0	0	-1	0
7047523	8531	0	0	-100	0	230	101300000	1000	0	0	-1	0
7060083	8527	0	0	-100	0	230	101300000	1000	0	0	-1	0
7072643	8529	0	0	-100	0	230	101300000	1000	0	0	-1	0
7085203	8531	0	0	-100	0	230	101300000	1000	0	0	-1	0
7097763	8534	0	0	-100	0	230	101300000	1000	0	0	-1	0
7110323	8524	1	0	-100	0	230	101300000	1000	0	0	-1	0
7122883	8527	4	0	-100	0	230	101300000	1000	0	0	-1	0
7135443	8527	0	0	-100	0	230	101300000	1000	0	0	-1	0
7148004	8532	0	0	-100	0	230	101300000	1000	0	0	-1	0
7160563	8527	0	0	-100	0	230	101300000	1000	0	0	-1	0
7173123	8534	0	0	-100	0	230	101300000	1000	0	0	-1	0
7185683	8534	0	0	-100	0	230	101300000	1000	0	0	-1	0
7198243	8529	0	0	-100	0	230	101300000	1000	0	0	-1	0
7210803	8534	0	0	-100	0	230	101300000	1000	0	0	-1	0
7223363	8534	0	0	-100	0	230	101300000	1000	0	0	-1	0
7235923	8538	0	0	-100	0	230	101300000	1000	0	0	-1	0
7248483	8534	0	0	-100	0	230	101300000	1000	0	0	-1	0
7261043	8538	0	0	-100	0	230	101300000	1000	0	0	-1	0
7273603	8534	0	0	-100	0	230	101300000	1000	0	0	-1	0
7286163	8536	0	0	-100	0	230	101300000	1000	0	0	-1	0
7298723	8532	0	0	-100	0	230	101300000	1000	0	0	-1	0
7311283	8529	0	0	-100	0	230	101300000	1000	0	0	-1	0
7323843	8529	0	0	-100	0	230	101300000	1000	0	0	-1	0
7336403	8529	0	0	-100	0	230	101300000	1000	0	0	-1	0
7348963	8527	0	0	-100	0	230	101300000	1000	0	0	-1	0
7707235	8272	380	0	-100	0	230	101300000	1000	0	0	-1	300
7719795	8276	379	0	-100	0	230	101300000	1000	0	0	-1	300
7732355	8275	379	0	-100	0	230	101300000	1000	0	0	-1	300
7744915	8275	376	0	-100	0	230	101300000	1000	0	0	-1	300
7757475	8270	376	0	-100	0	230	101300000	1000	0	0	-1	300
7770035	8282	375	0	-100	0	230	101300000	1000	0	0	-1	300
7782595	8277	376	0	-100	0	230	101300000	1000	0	0	-1	300
7795155	8284	379	0	-100	0	230	101300000	1000	0	0	-1	300
7807715	8277	378	0	-100	0	230	101300000	1000	0	0	-1	300
7820275	8286	375	0	-100	0	230	101300000	1000	0	0	-1	300
7832835	8282	358	0	-100	0	230	101300000	1000	0	0	-1	300
7845395	8282	379	0	-100	0	230	101300000	1000	0	0	-1	300
7857955	8272	374	0	-100	0	230	101300000	1000	0	0	-1	300
7870515	8277	377	0	-100	0	230	101300000	1000	0	0	-1	300
7883075	8284	375	0	-100	0	230	101300000	1000	0	0	-1	300
7895635	8277	372	0	-100	0	230	101300000	1000	0	0	-1	300
7908195	8279	377	0	-100	0	230	101300000	1000	0	0	-1	300
7920755	8277	380	0	-100	0	230	101300000	1000	0	0	-1	300
7933315	8270	383	0	-100	0	230	101300000	1000	0	0	-1	300
7945875	8277	380	0	-100	0	230	101300000	1000	0	0	-1	300
7958435	8277	376	0	-100	0	230	101300000	1000	0	0	-1	300
7970995	8277	378	0	-100	0	230	101300000	1000	0	0	-1	300
7983555	8291	375	0	-100	0	230	101300000	1000	0	0	-1	300
7996115	8286	379	0	-100	0	230	101300000	1000	0	0	-1	300
8008675	8279	379	0	-100	0	230	101300000	1000	0	0	-1	300
8021235	8279	378	0	-100	0	230	101300000	1000	0	0	-1	300
8033795	8269	378	0	-100	0	230	101300000	1000	0	0	-1	300
8046355	8277	380	0	-100	0	230	101300000	1000	0	0	-1	300
8058915	8272	381	0	-100	0	230	101300000	1000	0	0	-1	300
8071475	8276	384	0	-100	0	230	101300000	1000	0	0	-1	300
8084035	8275	377	0	-100	0	230	101300000	1000	0	0	-1	300
8096595	8272	379	0	-100	0	230	101300000	1000	0	0	-1	300
8109155	8281	380	0	-100	0	230	101300000	1000	0	0	-1	300
8121715	8277	381	0	-100	0	230	101300000	1000	0	0	-1	300
8134275	8282	376	0	-100	0	230	101300000	1000	0	0	-1	300
8146835	8289	381	0	-100	0	230	101300000	1000	0	0	-1	300
8159395	8279	379	0	-100	0	230	101300000	1000	0	0	-1	300
8171955	8279	380	0	-100	0	230	101300000	1000	0	0	-1	300
8184515	8286	380	0	-100	0	230	101300000	1000	0	0	-1	300
8197075	8279	372	0	-100	0	230	101300000	1000	0	0	-1	300
8209635	8277	367	0	-100	0	230	101300000	1000	0	0	-1	300
8222195	8279	381	0	-100	0	230	101300000	1000	0	0	-1	300
8234755	8270	377	0	-100	0	230	101300000	1000	0	0	-1	300
8247315	8284	374	0	-100	0	230	101300000	1000	0	0	-1	300
8259875	8267	379	0	-100	0	230	101300000	1000	0	0	-1	300
8272435	8279	382	0	-100	0	230	101300000	1000	0	0	-1	300
8284995	8277	381	0	-100	0	230	101300000	1000	0	0	-1	300
8297555	8277	380	0	-100	0	230	101300000	1000	0	0	-1	300
8310115	8275	366	0	-100	0	230	101300000	1000	0	0	-1	300
8322675	8272	380	0	-100	0	230	101300000	1000	0	0	-1	300
8335235	8274	379	0	-100	0	230	101300000	1000	0	0	-1	300
8347795	8277	379	0	-100	0	230	101300000	1000	0	0	-1	300
8360355	8277	380	0	-100	0	230	101300000	1000	0	0	-1	300
8372915	8289	379	0	-100	0	230	101300000	1000	0	0	-1	300
8385475	8275	377	0	-100	0	230	101300000	1000	0	0	-1	300
8398035	8277	376	0	-100	0	230	101300000	1000	0	0	-1	300
8410595	8279	381	0	-100	0	230	101300000	1000	0	0	-1	300
8423155	8277	379	0	-100	0	230	101300000	1000	0	0	-1	300
8435715	8286	377	0	-100	0	230	101300000	1000	0	0	-1	300
8448275	8267	379	0	-100	0	230	101300000	1000	0	0	-1	300
8460835	8284	383	0	-100	0	230	101300000	1000	0	0	-1	300
8473395	8272	380	0	-100	0	230	101300000	1000	0	0	-1	300
8485955	8286	377	0	-100	0	230	101300000	1000	0	0	-1	300
8498515	8279	372	0	-100	0	230	101300000	1000	0	0	-1	300
8511075	8279	375	0	-100	0	230	101300000	1000	0	0	-1	300
8523635	8280	378	0	-100	0	230	101300000	1000	0	0	-1	300
8536195	8277	380	0	-100	0	230	101300000	1000	0	0	-1	300
8548755	8281	379	0	-100	0	230	101300000	1000	0	0	-1	300
8561315	8287	380	0	-100	0	230	101300000	1000	0	0	-1	300
8573875	8286	378	0	-100	0	230	101300000	1000	0	0	-1	300
8586435	8282	376	0	-100	0	230	101300000	1000	0	0	-1	300
8598995	8282	381	0	-100	0	230	101300000	1000	0	0	-1	300
8611555	8272	381	0	-100	0	230	101300000	1000	0	0	-1	300
8624115	8272	379	0	-100	0	230	101300000	1000	0	0	-1	300
8636675	8275	381	0	-100	0	230	101300000	1000	0	0	-1	300
8649235	8282	377	0	-100	0	230	101300000	1000	0	0	-1	300
8661795	8280	380	0	-100	0	230	101300000	1000	0	0	-1	300
8674355	8286	377	0	-100	0	230	101300000	1000	0	0	-1	300
8686915	8279	377	0	-100	0	230	101300000	1000	0	0	-1	300
8699475	8284	375	0	-100	0	230	101300000	1000	0	0	-1	300
8712035	8279	375	0	-100	0	230	101300000	1000	0	0	-1	300
8724595	8291	380	0	-100	0	230	101300000	1000	0	0	-1	300
8737155	8279	382	0	-100	0	230	101300000	1000	0	0	-1	300
8749715	8280	377	0	-100	0	230	101300000	1000	0	0	-1	300
8762275	8282	378	0	-100	0	230	101300000	1000	0	0	-1	300
8774835	8282	383	0	-100	0	230	101300000	1000	0	0	-1	300
8787395	8289	382	0	-100	0	230	101300000	1000	0	0	-1	300
8799955	8282	379	0	-100	0	230	101300000	1000	0	0	-1	300
8812515	8284	378	0	-100	0	230	101300000	1000	0	0	-1	300
8825075	8289	377	0	-100	0	230	101300000	1000	0	0	-1	300
8837635	8284	379	0	-100	0	230	101300000	1000	0	0	-1	300
8850195	8284	380	0	-100	0	230	101300000	1000	0	0	-1	300
8862755	8276	379	0	-100	0	230	101300000	1000	0	0	-1	300
8875315	8279	379	0	-100	0	230	101300000	1000	0	0	-1	300
8887875	8279	382	0	-100	0	230	101300000	1000	0	0	-1	300
8900435	8270	380	0	-100	0	230	101300000	1000	0	0	-1	300
8912995	8279	381	0	-100	0	230	101300000	1000	0	0	-1	300
8925555	8274	376	0	-100	0	230	101300000	1000	0	0	-1	300
8938115	8286	377	0	-100	0	230	101300000	1000	0	0	-1	300
8950675	8282	379	0	-100	0	230	101300000	1000	0	0	-1	300
8963235	8282	380	0	-100	0	230	101300000	1000	0	0	-1	300
8975795	8282	376	0	-100	0	230	101300000	1000	0	0	-1	300
8988355	8277	377	0	-100	0	230	101300000	1000	0	0	-1	300
9000915	8279	375	0	-100	0	230	101300000	1000	0	0	-1	300
9013475	8284	377	0	-100	0	230	101300000	1000	0	0	-1	300
9026035	8282	378	0	-100	0	230	101300000	1000	0	0	-1	300
9038595	8282	376	0	-100	0	230	101300000	1000	0	0	-1	300
9051155	8282	380	0	-100	0	230	101300000	1000	0	0	-1	300
9063715	8284	384	0	-100	0	230	101300000	1000	0	0	-1	300
9076275	8284	379	0	-100	0	230	101300000	1000	0	0	-1	300
9088835	8279	377	0	-100	0	230	101300000	1000	0	0	-1	300
9101395	8274	382	0	-100	0	230	101300000	1000	0	0	-1	300
9113955	8265	379	0	-100	0	230	101300000	1000	0	0	-1	300
9126515	8270	378	0	-100	0	230	101300000	1000	0	0	-1	300
9139075	8282	376	0	-100	0	230	101300000	1000	0	0	-1	300
9151635	8284	379	0	-100	0	230	101300000	1000	0	0	-1	300
9164195	8281	380	0	-100	0	230	101300000	1000	0	0	-1	300
9176755	8277	380	0	-100	0	230	101300000	1000	0	0	-1	300
9189315	8279	379	0	-100	0	230	101300000	1000	0	0	-1	300
9201875	8277	376	0	-100	0	230	101300000	1000	0	0	-1	300
9214435	8284	377	0	-100	0	230	101300000	1000	0	0	-1	300
9226995	8270	379	0	-100	0	230	101300000	1000	0	0	-1	300
9239555	8279	381	0	-100	0	230	101300000	1000	0	0	-1	300
9252115	8284	378	0	-100	0	230	101300000	1000	0	0	-1	300
9264675	8279	378	0	-100	0	230	101300000	1000	0	0	-1	300
9277235	8289	377	0	-100	0	230	101300000	1000	0	0	-1	300
9289795	8276	380	0	-100	0	230	101300000	1000	0	0	-1	300
9302355	8277	378	0	-100	0	230	101300000	1000	0	0	-1	300
9314915	8282	376	0	-100	0	230	101300000	1000	0	0	-1	300
9327475	8277	376	0	-100	0	230	101300000	1000	0	0	-1	300
9340035	8282	380	0	-100	0	230	101300000	1000	0	0	-1	300
9352595	8275	380	0	-100	0	230	101300000	1000	0	0	-1	300
9365155	8286	376	0	-100	0	230	101300000	1000	0	0	-1	300
9377715	8291	380	0	-100	0	230	101300000	1000	0	0	-1	300
9390275	8286	379	0	-100	0	230	101300000	1000	0	0	-1	300
9402835	8284	382	0	-100	0	230	101300000	1000	0	0	-1	300
9415395	8279	381	0	-100	0	230	101300000	1000	0	0	-1	300
9427955	8276	380	0	-100	0	230	101300000	1000	0	0	-1	300
9440515	8279	379	0	-100	0	230	101300000	1000	0	0	-1	300
9453075	8282	382	0	-100	0	230	101300000	1000	0	0	-1	300
9465635	8281	380	0	-100	0	230	101300000	1000	0	0	-1	300
9478195	8281	382	0	-100	0	230	101300000	1000	0	0	-1	300
9490755	8279	383	0	-100	0	230	101300000	1000	0	0	-1	300
9503315	8283	383	0	-100	0	230	101300000	1000	0	0	-1	300
9515875	8282	384	0	-100	0	230	101300000	1000	0	0	-1	300
9528435	8282	384	0	-100	0	230	101300000	1000	0	0	-1	300
9540995	8269	377	0	-100	0	230	101300000	1000	0	0	-1	300
9553555	8277	380	0	-100	0	230	101300000	1000	0	0	-1	300
9566115	8279	380	0	-100	0	230	101300000	1000	0	0	-1	300
9578675	8279	378	0	-100	0	230	101300000	1000	0	0	-1	300
9591235	8270	379	0	-100	0	230	101300000	1000	0	0	-1	300
9603795	8272	375	0	-100	0	230	101300000	1000	0	0	-1	300
9616355	8270	380	0	-100	0	230	101300000	1000	0	0	-1	300
9628915	8284	378	0	-100	0	230	101300000	1000	0	0	-1	300
9641475	8282	379	0	-100	0	230	101300000	1000	0	0	-1	300
9654035	8284	377	0	-100	0	230	101300000	1000	0	0	-1	300
9666595	8284	379	0	-100	0	230	101300000	1000	0	0	-1	300
9679155	8289	384	0	-100	0	230	101300000	1000	0	0	-1	300
9691715	8291	379	0	-100	0	230	101300000	1000	0	0	-1	300
9704275	8277	379	0	-100	0	230	101300000	1000	0	0	-1	300
9716835	8279	382	0	-100	0	230	101300000	1000	0	0	-1	300
9729395	8277	383	0	-100	0	230	101300000	1000	0	0	-1	300
9741955	8289	379	0	-100	0	230	101300000	1000	0	0	-1	300
9754515	8282	378	0	-100	0	230	101300000	1000	0	0	-1	300
9767075	8286	380	0	-100	0	230	101300000	1000	0	0	-1	300
9779635	8282	383	0	-100	0	230	101300000	1000	0	0	-1	300
9792195	8282	380	0	-100	0	230	101300000	1000	0	0	-1	300
9804755	8276	381	0	-100	0	230	101300000	1000	0	0	-1	300
9817315	8277	380	0	-100	0	230	101300000	1000	0	0	-1	300
9829875	8279	382	0	-100	0	230	101300000	1000	0	0	-1	300
9842435	8272	379	0	-100	0	230	101300000	1000	0	0	-1	300
9854995	8274	379	0	-100	0	230	101300000	1000	0	0	-1	300
9867555	8274	380	0	-100	0	230	101300000	1000	0	0	-1	300
9880115	8279	382	0	-100	0	230	101300000	1000	0	0	-1	300
9892675	8286	380	0	-100	0	230	101300000	1000	0	0	-1	300
9905235	8270	379	0	-100	0	230	101300000	1000	0	0	-1	300
9917795	8277	379	0	-100	0	230	101300000	1000	0	0	-1	300
9930355	8275	380	0	-100	0	230	101300000	1000	0	0	-1	300
9942915	8279	378	0	-100	0	230	101300000	1000	0	0	-1	300
9955475	8289	382	0	-100	0	230	101300000	1000	0	0	-1	300
9968035	8286	379	0	-100	0	230	101300000	1000	0	0	-1	300
9980595	8287	381	0	-100	0	230	101300000	1000	0	0	-1	300
9993155	8286	380	0	-100	0	230	101300000	1000	0	0	-1	300
10005715	8282	378	0	-100	0	230	101300000	1000	0	0	-1	300
10018275	8274	381	0	-100	0	230	101300000	1000	0	0	-1	300
10030835	8279	384	0	-100	0	230	101300000	1000	0	0	-1	300
10043395	8274	365	0	-100	0	230	101300000	1000	0	0	-1	300
10055955	8279	381	0	-100	0	230	101300000	1000	0	0	-1	300
10068515	8272	378	0	-100	0	230	101300000	1000	0	0	-1	300
10081075	8291	380	0	-100	0	230	101300000	1000	0	0	-1	300
10093635	8279	378	0	-100	0	230	101300000	1000	0	0	-1	300
10106195	8284	384	0	-100	0	230	101300000	1000	0	0	-1	300
10118755	8281	381	0	-100	0	230	101300000	1000	0	0	-1	300
10131315	8284	377	0	-100	0	230	101300000	1000	0	0	-1	300
10143875	8277	378	0	-100	0	230	101300000	1000	0	0	-1	300
10156435	8284	376	0	-100	0	230	101300000	1000	0	0	-1	300
10168995	8284	381	0	-100	0	230	101300000	1000	0	0	-1	300
10181555	8274	380	0	-100	0	230	101300000	1000	0	0	-1	300
10194115	8284	379	0	-100	0	230	101300000	1000	0	0	-1	300
10206675	8289	380	0	-100	0	230	101300000	1000	0	0	-1	300
10219235	8286	379	0	-100	0	230	101300000	1000	0	0	-1	300
10269475	8277	382	0	-100	0	230	101300000	1000	0	0	-1	300
10282035	8284	380	0	-100	0	230	101300000	1000	0	0	-1	300
10294595	8274	377	0	-100	0	230	101300000	1000	0	0	-1	300
10307155	8279	382	0	-100	0	230	101300000	1000	0	0	-1	300
10319715	8286	374	0	-100	0	230	101300000	1000	0	0	-1	300
10332275	8284	378	0	-100	0	230	101300000	1000	0	0	-1	300
10344835	8282	381	0	-100	0	230	101300000	1000	0	0	-1	300
10357395	8277	383	0	-100	0	230	101300000	1000	0	0	-1	300
10369955	8279	378	0	-100	0	230	101300000	1000	0	0	-1	300
10382515	8284	378	0	-100	0	230	101300000	1000	0	0	-1	300
10395075	8282	380	0	-100	0	230	101300000	1000	0	0	-1	300
10470435	8286	379	0	-100	0	230	101300000	1000	0	0	-1	300
10482995	8279	376	0	-100	0	230	101300000	1000	0	0	-1	300
10495555	8272	381	0	-100	0	230	101300000	1000	0	0	-1	300
10508115	8277	379	0	-100	0	230	101300000	1000	0	0	-1	300
10520675	8281	380	0	-100	0	230	101300000	1000	0	0	-1	300
10533235	8274	380	0	-100	0	230	101300000	1000	0	0	-1	300
10545795	8277	384	0	-100	0	230	101300000	1000	0	0	-1	300
10558355	8280	378	0	-100	0	230	101300000	1000	0	0	-1	300
10570915	8289	379	0	-100	0	230	101300000	1000	0	0	-1	300
10583475	8289	382	0	-100	0	230	101300000	1000	0	0	-1	300
10596035	8286	385	0	-100	0	230	101300000	1000	0	0	-1	300
10608595	8277	379	0	-100	0	230	101300000	1000	0	0	-1	300
10621155	8282	370	0	-100	0	230	101300000	1000	0	0	-1	300
10633715	8284	381	0	-100	0	230	101300000	1000	0	0	-1	300
10646275	8274	382	0	-100	0	230	101300000	1000	0	0	-1	300
10658835	8277	371	0	-100	0	230	101300000	1000	0	0	-1	300
10671395	8279	379	0	-100	0	230	101300000	1000	0	0	-1	300
10683955	8284	382	0	-100	0	230	101300000	1000	0	0	-1	300
10696515	8284	380	0	-100	0	230	101300000	1000	0	0	-1	300
10709075	8274	380	0	-100	0	230	101300000	1000	0	0	-1	300
10721635	8289	380	0	-100	0	230	101300000	1000	0	0	-1	300
10734195	8272	378	0	-100	0	230	101300000	1000	0	0	-1	300
10746755	8289	378	0	-100	0	230	101300000	1000	0	0	-1	300
10759315	8286	380	0	-100	0	230	101300000	1000	0	0	-1	300
10771875	8275	384	0	-100	0	230	101300000	1000	0	0	-1	300
10784435	8277	382	0	-100	0	230	101300000	1000	0	0	-1	300
10796995	8277	377	0	-100	0	230	101300000	1000	0	0	-1	300
10809555	8284	379	0	-100	0	230	101300000	1000	0	0	-1	300
10822115	8289	378	0	-100	0	230	101300000	1000	0	0	-1	300
10834675	8282	383	0	-100	0	230	101300000	1000	0	0	-1	300
10847235	8275	381	0	-100	0	230	101300000	1000	0	0	-1	300
10859795	8284	378	0	-100	0	230	101300000	1000	0	0	-1	300
10872355	8281	380	0	-100	0	230	101300000	1000	0	0	-1	300
10884915	8279	379	0	-100	0	230	101300000	1000	0	0	-1	300
10897475	8284	378	0	-100	0	230	101300000	1000	0	0	-1	300
10910035	8291	384	0	-100	0	230	101300000	1000	0	0	-1	300
10922595	8282	382	0	-100	0	230	101300000	1000	0	0	-1	300
10935155	8274	383	0	-100	0	230	101300000	1000	0	0	-1	300
10947715	8281	384	0	-100	0	230	101300000	1000	0	0	-1	300
10960275	8270	380	0	-100	0	230	101300000	1000	0	0	-1	300
10972835	8267	376	0	-100	0	230	101300000	1000	0	0	-1	300
10985395	8284	379	0	-100	0	230	101300000	1000	0	0	-1	300
10997955	8286	377	0	-100	0	230	101300000	1000	0	0	-1	300
11010515	8289	382	0	-100	0	230	101300000	1000	0	0	-1	300
11023075	8282	377	0	-100	0	230	101300000	1000	0	0	-1	300
11035635	8281	380	0	-100	0	230	101300000	1000	0	0	-1	300
11048195	8279	383	0	-100	0	230	101300000	1000	0	0	-1	300
11060755	8274	385	0	-100	0	230	101300000	1000	0	0	-1	300
11073315	8277	379	0	-100	0	230	101300000	1000	0	0	-1	300
11085875	8279	376	0	-100	0	230	101300000	1000	0	0	-1	300
11098435	8289	379	0	-100	0	230	101300000	1000	0	0	-1	300
11110995	8289	381	0	-100	0	230	101300000	1000	0	0	-1	300
11123555	8286	382	0	-100	0	230	101300000	1000	0	0	-1	300
11136115	8272	380	0	-100	0	230	101300000	1000	0	0	-1	300
11148675	8281	384	0	-100	0	230	101300000	1000	0	0	-1	300
11161235	8279	385	0	-100	0	230	101300000	1000	0	0	-1	300
11173795	8279	380	0	-100	0	230	101300000	1000	0	0	-1	300
11186355	8286	380	0	-100	0	230	101300000	1000	0	0	-1	300
11198915	8284	380	0	-100	0	230	101300000	1000	0	0	-1	300
11211475	8289	380	0	-100	0	230	101300000	1000	0	0	-1	300
11224035	8279	381	0	-100	0	230	101300000	1000	0	0	-1	300
11236595	8284	384	0	-100	0	230	101300000	1000	0	0	-1	300
11249155	8279	379	0	-100	0	230	101300000	1000	0	0	-1	300
11261715	8286	378	0	-100	0	230	101300000	1000	0	0	-1	300
11274275	8286	379	0	-100	0	230	101300000	1000	0	0	-1	300
11286835	8277	379	0	-100	0	230	101300000	1000	0	0	-1	300
11299395	8292	375	0	-100	0	230	101300000	1000	0	0	-1	300
11311955	8282	379	0	-100	0	230	101300000	1000	0	0	-1	300
11324515	8289	382	0	-100	0	230	101300000	1000	0	0	-1	300
11337075	8280	382	0	-100	0	230	101300000	1000	0	0	-1	300
11349635	8279	382	0	-100	0	230	101300000	1000	0	0	-1	300
11362195	8282	379	0	-100	0	230	101300000	1000	0	0	-1	300
11374755	8284	380	0	-100	0	230	101300000	1000	0	0	-1	300
11387315	8294	379	0	-100	0	230	101300000	1000	0	0	-1	300
11399875	8279	380	0	-100	0	230	101300000	1000	0	0	-1	300
11412435	8275	381	0	-100	0	230	101300000	1000	0	0	-1	300
11424995	8281	375	0	-100	0	230	101300000	1000	0	0	-1	300
11437555	8276	364	0	-100	0	230	101300000	1000	0	0	-1	300
11450115	8272	378	0	-100	0	230	101300000	1000	0	0	-1	300
11462675	8277	381	0	-100	0	230	101300000	1000	0	0	-1	300
11475235	8286	382	0	-100	0	230	101300000	1000	0	0	-1	300
11487795	8279	375	0	-100	0	230	101300000	1000	0	0	-1	300
11500355	8291	384	0	-100	0	230	101300000	1000	0	0	-1	300
11512915	8286	381	0	-100	0	230	101300000	1000	0	0	-1	300
11525475	8281	383	0	-100	0	230	101300000	1000	0	0	-1	300
11538035	8277	383	0	-100	0	230	101300000	1000	0	0	-1	300
11550595	8275	382	0	-100	0	230	101300000	1000	0	0	-1	300
11563155	8281	377	0	-100	0	230	101300000	1000	0	0	-1	300
11575715	8284	381	0	-100	0	230	101300000	1000	0	0	-1	300
11588275	8282	378	0	-100	0	230	101300000	1000	0	0	-1	300
11600835	8282	381	0	-100	0	230	101300000	1000	0	0	-1	300
11613395	8282	380	0	-100	0	230	101300000	1000	0	0	-1	300
11625955	8284	380	0	-100	0	230	101300000	1000	0	0	-1	300
11638515	8275	382	0	-100	0	230	101300000	1000	0	0	-1	300
11651075	8281	383	0	-100	0	230	101300000	1000	0	0	-1	300
11663635	8279	382	0	-100	0	230	101300000	1000	0	0	-1	300
11676195	8284	384	0	-100	0	230	101300000	1000	0	0	-1	300
11688755	8281	382	0	-100	0	230	101300000	1000	0	0	-1	300
11701315	8279	381	0	-100	0	230	101300000	1000	0	0	-1	300
11713875	8277	383	0	-100	0	230	101300000	1000	0	0	-1	300
11726435	8279	382	0	-100	0	230	101300000	1000	0	0	-1	300
11738995	8279	383	0	-100	0	230	101300000	1000	0	0	-1	300
11751555	8279	382	0	-100	0	230	101300000	1000	0	0	-1	300
11764115	8282	378	0	-100	0	230	101300000	1000	0	0	-1	300
11776675	8284	378	0	-100	0	230	101300000	1000	0	0	-1	300
11789235	8284	380	0	-100	0	230	101300000	1000	0	0	-1	300
11801795	8282	375	0	-100	0	230	101300000	1000	0	0	-1	300
11814355	8284	378	0	-100	0	230	101300000	1000	0	0	-1	300
11826915	8282	378	0	-100	0	230	101300000	1000	0	0	-1	300
11839475	8284	378	0	-100	0	230	101300000	1000	0	0	-1	300
11852035	8289	379	0	-100	0	230	101300000	1000	0	0	-1	300
11864595	8286	379	0	-100	0	230	101300000	1000	0	0	-1	300
11877155	8282	383	0	-100	0	230	101300000	1000	0	0	-1	300
11889715	8289	379	0	-100	0	230	101300000	1000	0	0	-1	300
11902275	8281	377	0	-100	0	230	101300000	1000	0	0	-1	300
11914835	8284	380	0	-100	0	230	101300000	1000	0	0	-1	300
11927395	8279	384	0	-100	0	230	101300000	1000	0	0	-1	300
11939955	8281	380	0	-100	0	230	101300000	1000	0	0	-1	300
11952515	8279	383	0	-100	0	230	101300000	1000	0	0	-1	300
11965075	8279	378	0	-100	0	230	101300000	1000	0	0	-1	300
11977635	8279	380	0	-100	0	230	101300000	1000	0	0	-1	300
11990195	8277	379	0	-100	0	230	101300000	1000	0	0	-1	300
12002755	8277	378	0	-100	0	230	101300000	1000	0	0	-1	300
12015315	8282	380	0	-100	0	230	101300000	1000	0	0	-1	300
12027875	8284	379	0	-100	0	230	101300000	1000	0	0	-1	300
12040435	8289	382	0	-100	0	230	101300000	1000	0	0	-1	300
12052995	8284	382	0	-100	0	230	101300000	1000	0	0	-1	300
12065555	8279	375	0	-100	0	230	101300000	1000	0	0	-1	300
12078115	8286	380	0	-100	0	230	101300000	1000	0	0	-1	300
12090675	8286	380	0	-100	0	230	101300000	1000	0	0	-1	300
12103235	8286	379	0	-100	0	230	101300000	1000	0	0	-1	300
12115795	8277	377	0	-100	0	230	101300000	1000	0	0	-1	300
12128355	8274	380	0	-100	0	230	101300000	1000	0	0	-1	300
12140915	8279	382	0	-100	0	230	101300000	1000	0	0	-1	300
12153475	8281	382	0	-100	0	230	101300000	1000	0	0	-1	300
12166035	8274	381	0	-100	0	230	101300000	1000	0	0	-1	300
12178595	8277	382	0	-100	0	230	101300000	1000	0	0	-1	300
12191155	8277	381	0	-100	0	230	101300000	1000	0	0	-1	300
12203715	8276	383	0	-100	0	230	101300000	1000	0	0	-1	300
12216275	8279	384	0	-100	0	230	101300000	1000	0	0	-1	300
12228835	8279	383	0	-100	0	230	101300000	1000	0	0	-1	300
12241395	8275	380	0	-100	0	230	101300000	1000	0	0	-1	300
12253955	8277	382	0	-100	0	230	101300000	1000	0	0	-1	300
12266515	8275	385	0	-100	0	230	101300000	1000	0	0	-1	300
12279075	8277	382	0	-100	0	230	101300000	1000	0	0	-1	300
12291635	8270	382	0	-100	0	230	101300000	1000	0	0	-1	300
12304195	8277	379	0	-100	0	230	101300000	1000	0	0	-1	300
12316755	8272	383	0	-100	0	230	101300000	1000	0	0	-1	300
12329315	8279	380	0	-100	0	230	101300000	1000	0	0	-1	300
12341875	8277	379	0	-100	0	230	101300000	1000	0	0	-1	300
12354435	8281	383	0	-100	0	230	101300000	1000	0	0	-1	300
12366995	8284	379	0	-100	0	230	101300000	1000	0	0	-1	300
12379555	8291	380	0	-100	0	230	101300000	1000	0	0	-1	300
12392115	8282	379	0	-100	0	230	101300000	1000	0	0	-1	300
12404675	8279	380	0	-100	0	230	101300000	1000	0	0	-1	300
12417235	8279	378	0	-100	0	230	101300000	1000	0	0	-1	300
12429795	8284	384	0	-100	0	230	101300000	1000	0	0	-1	300
12442355	8277	380	0	-100	0	230	101300000	1000	0	0	-1	300
12454915	8272	383	0	-100	0	230	101300000	1000	0	0	-1	300
12467475	8289	379	0	-100	0	230	101300000	1000	0	0	-1	300
12480035	8286	378	0	-100	0	230	101300000	1000	0	0	-1	300
12492595	8284	379	0	-100	0	230	101300000	1000	0	0	-1	300
12505155	8281	380	0	-100	0	230	101300000	1000	0	0	-1	300
12517715	8272	382	0	-100	0	230	101300000	1000	0	0	-1	300
12530275	8277	381	0	-100	0	230	101300000	1000	0	0	-1	300
12542835	8284	379	0	-100	0	230	101300000	1000	0	0	-1	300
12555395	8275	378	0	-100	0	230	101300000	1000	0	0	-1	300
12567955	8279	376	0	-100	0	230	101300000	1000	0	0	-1	300
12580515	8277	377	0	-100	0	230	101300000	1000	0	0	-1	300
12593075	8279	378	0	-100	0	230	101300000	1000	0	0	-1	300
12605635	8284	380	0	-100	0	230	101300000	1000	0	0	-1	300
12618195	8284	375	0	-100	0	230	101300000	1000	0	0	-1	300
12630755	8289	379	0	-100	0	230	101300000	1000	0	0	-1	300
12643315	8291	379	0	-100	0	230	101300000	1000	0	0	-1	300
12655875	8284	383	0	-100	0	230	101300000	1000	0	0	-1	300
12668435	8284	382	0	-100	0	230	101300000	1000	0	0	-1	300
12680995	8273	379	0	-100	0	230	101300000	1000	0	0	-1	300
12693555	8279	383	0	-100	0	230	101300000	1000	0	0	-1	300
12706115	8281	376	0	-100	0	230	101300000	1000	0	0	-1	300
12718675	8279	378	0	-100	0	230	101300000	1000	0	0	-1	300
12731235	8282	375	0	-100	0	230	101300000	1000	0	0	-1	300
12743795	8284	376	0	-100	0	230	101300000	1000	0	0	-1	300
12756355	8284	376	0	-100	0	230	101300000	1000	0	0	-1	300
12768915	8286	384	0	-100	0	230	101300000	1000	0	0	-1	300
12781475	8286	382	0	-100	0	230	101300000	1000	0	0	-1	300
12794035	8282	378	0	-100	0	230	101300000	1000	0	0	-1	300
12806595	8282	381	0	-100	0	230	101300000	1000	0	0	-1	300
12819155	8279	380	0	-100	0	230	101300000	1000	0	0	-1	300
12831715	8281	377	0	-100	0	230	101300000	1000	0	0	-1	300
12844275	8281	377	0	-100	0	230	101300000	1000	0	0	-1	300
12856835	8277	382	0	-100	0	230	101300000	1000	0	0	-1	300
12869395	8274	378	0	-100	0	230	101300000	1000	0	0	-1	300
12881955	8284	367	0	-100	0	230	101300000	1000	0	0	-1	300
12894515	8279	383	0	-100	0	230	101300000	1000	0	0	-1	300
12907075	8272	385	0	-100	0	230	101300000	1000	0	0	-1	300
12919635	8277	380	0	-100	0	230	101300000	1000	0	0	-1	300
12932195	8289	382	0	-100	0	230	101300000	1000	0	0	-1	300
12944755	8282	376	0	-100	0	230	101300000	1000	0	0	-1	300
12957315	8279	379	0	-100	0	230	101300000	1000	0	0	-1	300
12969875	8277	383	0	-100	0	230	101300000	1000	0	0	-1	300
12982435	8283	381	0	-100	0	230	101300000	1000	0	0	-1	300
12994995	8281	380	0	-100	0	230	101300000	1000	0	0	-1	300
13007555	8284	377	0	-100	0	230	101300000	1000	0	0	-1	300
13020115	8286	382	0	-100	0	230	101300000	1000	0	0	-1	300
13032675	8279	382	0	-100	0	230	101300000	1000	0	0	-1	300
13045235	8279	383	0	-100	0	230	101300000	1000	0	0	-1	300
13057795	8282	379	0	-100	0	230	101300000	1000	0	0	-1	300
13070355	8284	380	0	-100	0	230	101300000	1000	0	0	-1	300
13082915	8284	382	0	-100	0	230	101300000	1000	0	0	-1	300
13095475	8281	381	0	-100	0	230	101300000	1000	0	0	-1	300
13108035	8284	365	0	-100	0	230	101300000	1000	0	0	-1	300
13120595	8274	382	0	-100	0	230	101300000	1000	0	0	-1	300
13133155	8284	384	0	-100	0	230	101300000	1000	0	0	-1	300
13145715	8279	378	0	-100	0	230	101300000	1000	0	0	-1	300
13183395	8284	378	0	-100	0	230	101300000	1000	0	0	-1	300
13195955	8279	377	0	-100	0	230	101300000	1000	0	0	-1	300
13208515	8275	380	0	-100	0	230	101300000	1000	0	0	-1	300
13221075	8277	363	0	-100	0	230	101300000	1000	0	0	-1	300
13233635	8289	380	0	-100	0	230	101300000	1000	0	0	-1	300
13246195	8286	379	0	-100	0	230	101300000	1000	0	0	-1	300
13258755	8286	377	0	-100	0	230	101300000	1000	0	0	-1	300
13271315	8282	376	0	-100	0	230	101300000	1000	0	0	-1	300
13283875	8277	376	0	-100	0	230	101300000	1000	0	0	-1	300
13296435	8281	380	0	-100	0	230	101300000	1000	0	0	-1	300
13308995	8281	380	0	-100	0	230	101300000	1000	0	0	-1	300
13384355	8275	379	0	-100	0	230	101300000	1000	0	0	-1	300
13396915	8284	382	0	-100	0	230	101300000	1000	0	0	-1	300
13409475	8286	376	0	-100	0	230	101300000	1000	0	0	-1	300
13422035	8282	377	0	-100	0	230	101300000	1000	0	0	-1	300
13434595	8284	378	0	-100	0	230	101300000	1000	0	0	-1	300
13447155	8275	379	0	-100	0	230	101300000	1000	0	0	-1	300
13459715	8286	382	0	-100	0	230	101300000	1000	0	0	-1	300
13472275	8274	384	0	-100	0	230	101300000	1000	0	0	-1	300
13484835	8277	382	0	-100	0	230	101300000	1000	0	0	-1	300
13497395	8286	381	0	-100	0	230	101300000	1000	0	0	-1	300
13509955	8282	383	0	-100	0	230	101300000	1000	0	0	-1	300
13522515	8277	381	0	-100	0	230	101300000	1000	0	0	-1	300
13572755	8289	383	0	-100	0	230	101300000	1000	0	0	-1	300
13585315	8286	383	0	-100	0	230	101300000	1000	0	0	-1	300
13597875	8279	381	0	-100	0	230	101300000	1000	0	0	-1	300
13610435	8282	383	0	-100	0	230	101300000	1000	0	0	-1	300
13622995	8275	379	0	-100	0	230	101300000	1000	0	0	-1	300
13635555	8286	379	0	-100	0	230	101300000	1000	0	0	-1	300
13648115	8284	382	0	-100	0	230	101300000	1000	0	0	-1	300
13660675	8279	382	0	-100	0	230	101300000	1000	0	0	-1	300
13673235	8279	379	0	-100	0	230	101300000	1000	0	0	-1	300
13685795	8279	381	0	-100	0	230	101300000	1000	0	0	-1	300
13698355	8281	381	0	-100	0	230	101300000	1000	0	0	-1	300
13710915	8281	383	0	-100	0	230	101300000	1000	0	0	-1	300
13723475	8284	377	0	-100	0	230	101300000	1000	0	0	-1	300
13736035	8289	377	0	-100	0	230	101300000	1000	0	0	-1	300
13748595	8289	382	0	-100	0	230	101300000	1000	0	0	-1	300
13761155	8286	373	0	-100	0	230	101300000	1000	0	0	-1	300
13773715	8284	378	0	-100	0	230	101300000	1000	0	0	-1	300
13786275	8291	378	0	-100	0	230	101300000	1000	0	0	-1	300
13798835	8287	378	0	-100	0	230	101300000	1000	0	0	-1	300
13811395	8289	378	0	-100	0	230	101300000	1000	0	0	-1	300
13823955	8284	378	0	-100	0	230	101300000	1000	0	0	-1	300
13836515	8286	383	0	-100	0	230	101300000	1000	0	0	-1	300
13849075	8286	378	0	-100	0	230	101300000	1000	0	0	-1	300
13861635	8284	379	0	-100	0	230	101300000	1000	0	0	-1	300
13874195	8277	382	0	-100	0	230	101300000	1000	0	0	-1	300
13886755	8288	385	0	-100	0	230	101300000	1000	0	0	-1	300
13899315	8279	384	0	-100	0	230	101300000	1000	0	0	-1	300
13911875	8284	386	0	-100	0	230	101300000	1000	0	0	-1	300
13924435	8279	379	0	-100	0	230	101300000	1000	0	0	-1	300
13936995	8284	380	0	-100	0	230	101300000	1000	0	0	-1	300
13949555	8284	379	0	-100	0	230	101300000	1000	0	0	-1	300
13962115	8280	378	0	-100	0	230	101300000	1000	0	0	-1	300
13974675	8287	381	0	-100	0	230	101300000	1000	0	0	-1	300
13987235	8282	380	0	-100	0	230	101300000	1000	0	0	-1	300
13999795	8291	379	0	-100	0	230	101300000	1000	0	0	-1	300
14012355	8282	379	0	-100	0	230	101300000	1000	0	0	-1	300
14024915	8286	377	0	-100	0	230	101300000	1000	0	0	-1	300
14037475	8289	381	0	-100	0	230	101300000	1000	0	0	-1	300
14050035	8279	381	0	-100	0	230	101300000	1000	0	0	-1	300
14062595	8279	381	0	-100	0	230	101300000	1000	0	0	-1	300
14075155	8272	385	0	-100	0	230	101300000	1000	0	0	-1	300
14087715	8282	383	0	-100	0	230	101300000	1000	0	0	-1	300
14100275	8277	379	0	-100	0	230	101300000	1000	0	0	-1	300
14112835	8282	362	0	-100	0	230	101300000	1000	0	0	-1	300
14125395	8291	379	0	-100	0	230	101300000	1000	0	0	-1	300
14137955	8282	378	0	-100	0	230	101300000	1000	0	0	-1	300
14150515	8284	380	0	-100	0	230	101300000	1000	0	0	-1	300
14163075	8282	379	0	-100	0	230	101300000	1000	0	0	-1	300
14175635	8284	380	0	-100	0	230	101300000	1000	0	0	-1	300
14188195	8284	380	0	-100	0	230	101300000	1000	0	0	-1	300
14200755	8272	383	0	-100	0	230	101300000	1000	0	0	-1	300
14213315	8284	380	0	-100	0	230	101300000	1000	0	0	-1	300
14225875	8279	380	0	-100	0	230	101300000	1000	0	0	-1	300
14238435	8292	381	0	-100	0	230	101300000	1000	0	0	-1	300
14250995	8284	380	0	-100	0	230	101300000	1000	0	0	-1	300
14263555	8289	384	0	-100	0	230	101300000	1000	0	0	-1	300
14276115	8284	379	0	-100	0	230	101300000	1000	0	0	-1	300
14288675	8289	382	0	-100	0	230	101300000	1000	0	0	-1	300
14301235	8284	382	0	-100	0	230	101300000	1000	0	0	-1	300
14313795	8277	383	0	-100	0	230	101300000	1000	0	0	-1	300
14326355	8286	378	0	-100	0	230	101300000	1000	0	0	-1	300
14338915	8282	379	0	-100	0	230	101300000	1000	0	0	-1	300
14351475	8274	380	0	-100	0	230	101300000	1000	0	0	-1	300
14364035	8279	381	0	-100	0	230	101300000	1000	0	0	-1	300
14376595	8284	380	0	-100	0	230	101300000	1000	0	0	-1	300
14389155	8284	382	0	-100	0	230	101300000	1000	0	0	-1	300
14401715	8282	381	0	-100	0	230	101300000	1000	0	0	-1	300
14414275	8284	384	0	-100	0	230	101300000	1000	0	0	-1	300
14426835	8281	378	0	-100	0	230	101300000	1000	0	0	-1	300
14439395	8274	384	0	-100	0	230	101300000	1000	0	0	-1	300
14451955	8279	380	0	-100	0	230	101300000	1000	0	0	-1	300
14464515	8294	381	0	-100	0	230	101300000	1000	0	0	-1	300
14477075	8284	386	0	-100	0	230	101300000	1000	0	0	-1	300
14489635	8277	376	0	-100	0	230	101300000	1000	0	0	-1	300
14502195	8287	382	0	-100	0	230	101300000	1000	0	0	-1	300
14514755	8279	382	0	-100	0	230	101300000	1000	0	0	-1	300
14527315	8280	377	0	-100	0	230	101300000	1000	0	0	-1	300
14539875	8284	381	0	-100	0	230	101300000	1000	0	0	-1	300
14552435	8284	379	0	-100	0	230	101300000	1000	0	0	-1	300
14564995	8279	385	0	-100	0	230	101300000	1000	0	0	-1	300
14577555	8272	378	0	-100	0	230	101300000	1000	0	0	-1	300
14590115	8294	382	0	-100	0	230	101300000	1000	0	0	-1	300
14602675	8277	379	0	-100	0	230	101300000	1000	0	0	-1	300
14615235	8280	378	0	-100	0	230	101300000	1000	0	0	-1	300
14627795	8291	365	0	-100	0	230	101300000	1000	0	0	-1	300
14640355	8277	382	0	-100	0	230	101300000	1000	0	0	-1	300
14652915	8279	380	0	-100	0	230	101300000	1000	0	0	-1	300
14665475	8287	379	0	-100	0	230	101300000	1000	0	0	-1	300
14678035	8275	383	0	-100	0	230	101300000	1000	0	0	-1	300
14690595	8274	381	0	-100	0	230	101300000	1000	0	0	-1	300
14703155	8279	379	0	-100	0	230	101300000	1000	0	0	-1	300
14715715	8282	383	0	-100	0	230	101300000	1000	0	0	-1	300
14728275	8280	379	0	-100	0	230	101300000	1000	0	0	-1	300
14740835	8277	380	0	-100	0	230	101300000	1000	0	0	-1	300
14753395	8279	378	0	-100	0	230	101300000	1000	0	0	-1	300
14765955	8287	379	0	-100	0	230	101300000	1000	0	0	-1	300
14778515	8284	385	0	-100	0	230	101300000	1000	0	0	-1	300
14791075	8279	379	0	-100	0	230	101300000	1000	0	0	-1	300
14803635	8289	383	0	-100	0	230	101300000	1000	0	0	-1	300
14816195	8279	383	0	-100	0	230	101300000	1000	0	0	-1	300
14828755	8284	381	0	-100	0	230	101300000	1000	0	0	-1	300
14841315	8286	379	0	-100	0	230	101300000	1000	0	0	-1	300
14853875	8275	382	0	-100	0	230	101300000	1000	0	0	-1	300
14866435	8284	380	0	-100	0	230	101300000	1000	0	0	-1	300
14878995	8275	380	0	-100	0	230	101300000	1000	0	0	-1	300
14891555	8277	383	0	-100	0	230	101300000	1000	0	0	-1	300
14904115	8279	375	0	-100	0	230	101300000	1000	0	0	-1	300
14916675	8282	379	0	-100	0	230	101300000	1000	0	0	-1	300
14929235	8279	379	0	-100	0	230	101300000	1000	0	0	-1	300
14941795	8284	380	0	-100	0	230	101300000	1000	0	0	-1	300
14954355	8274	380	0	-100	0	230	101300000	1000	0	0	-1	300
14966915	8289	379	0	-100	0	230	101300000	1000	0	0	-1	300
14979475	8287	377	0	-100	0	230	101300000	1000	0	0	-1	300
14992035	8281	378	0	-100	0	230	101300000	1000	0	0	-1	300
15004595	8277	383	0	-100	0	230	101300000	1000	0	0	-1	300
15017155	8281	382	0	-100	0	230	101300000	1000	0	0	-1	300
15029715	8291	377	0	-100	0	230	101300000	1000	0	0	-1	300
15042275	8282	376	0	-100	0	230	101300000	1000	0	0	-1	300
15054835	8291	380	0	-100	0	230	101300000	1000	0	0	-1	300
15067395	8275	385	0	-100	0	230	101300000	1000	0	0	-1	300
15079955	8279	380	0	-100	0	230	101300000	1000	0	0	-1	300
15092515	8291	383	0	-100	0	230	101300000	1000	0	0	-1	300
15105075	8277	383	0	-100	0	230	101300000	1000	0	0	-1	300
15117635	8279	383	0	-100	0	230	101300000	1000	0	0	-1	300
15130195	8282	379	0	-100	0	230	101300000	1000	0	0	-1	300
15142755	8284	376	0	-100	0	230	101300000	1000	0	0	-1	300
15155315	8272	384	0	-100	0	230	101300000	1000	0	0	-1	300
15167875	8282	379	0	-100	0	230	101300000	1000	0	0	-1	300
15180435	8286	381	0	-100	0	230	101300000	1000	0	0	-1	300
15192995	8286	383	0	-100	0	230	101300000	1000	0	0	-1	300
15205555	8281	381	0	-100	0	230	101300000	1000	0	0	-1	300
15218115	8281	384	0	-100	0	230	101300000	1000	0	0	-1	300
15230675	8272	382	0	-100	0	230	101300000	1000	0	0	-1	300
15243235	8281	377	0	-100	0	230	101300000	1000	0	0	-1	300
15255795	8286	376	0	-100	0	230	101300000	1000	0	0	-1	300
15268355	8291	381	0	-100	0	230	101300000	1000	0	0	-1	300
15280915	8286	380	0	-100	0	230	101300000	1000	0	0	-1	300
15293475	8284	383	0	-100	0	230	101300000	1000	0	0	-1	300
15306035	8280	379	0	-100	0	230	101300000	1000	0	0	-1	300
15318595	8284	379	0	-100	0	230	101300000	1000	0	0	-1	300
15331155	8286	381	0	-100	0	230	101300000	1000	0	0	-1	300
15343715	8291	380	0	-100	0	230	101300000	1000	0	0	-1	300
15356275	8281	378	0	-100	0	230	101300000	1000	0	0	-1	300
15368835	8282	381	0	-100	0	230	101300000	1000	0	0	-1	300
15381395	8279	380	0	-100	0	230	101300000	1000	0	0	-1	300
15393955	8284	362	0	-100	0	230	101300000	1000	0	0	-1	300
15406515	8279	380	0	-100	0	230	101300000	1000	0	0	-1	300
15419075	8286	380	0	-100	0	230	101300000	1000	0	0	-1	300
15431635	8277	382	0	-100	0	230	101300000	1000	0	0	-1	300
15444195	8293	377	0	-100	0	230	101300000	1000	0	0	-1	300
15456755	8282	380	0	-100	0	230	101300000	1000	0	0	-1	300
15469315	8279	380	0	-100	0	230	101300000	1000	0	0	-1	300
15481875	8277	379	0	-100	0	230	101300000	1000	0	0	-1	300
15494435	8291	381	0	-100	0	230	101300000	1000	0	0	-1	300
15506995	8289	383	0	-100	0	230	101300000	1000	0	0	-1	300
15519555	8279	383	0	-100	0	230	101300000	1000	0	0	-1	300
15532115	8279	383	0	-100	0	230	101300000	1000	0	0	-1	300
15544675	8287	381	0	-100	0	230	101300000	1000	0	0	-1	300
15557235	8286	379	0	-100	0	230	101300000	1000	0	0	-1	300
15569795	8286	383	0	-100	0	230	101300000	1000	0	0	-1	300
15582355	8279	374	0	-100	0	230	101300000	1000	0	0	-1	300
15594915	8289	379	0	-100	0	230	101300000	1000	0	0	-1	300
15607475	8282	381	0	-100	0	230	101300000	1000	0	0	-1	300
15620035	8286	379	0	-100	0	230	101300000	1000	0	0	-1	300
15632595	8281	380	0	-100	0	230	101300000	1000	0	0	-1	300
15645155	8279	383	0	-100	0	230	101300000	1000	0	0	-1	300
15657715	8284	381	0	-100	0	230	101300000	1000	0	0	-1	300
15670275	8277	383	0	-100	0	230	101300000	1000	0	0	-1	300
15682835	8286	382	0	-100	0	230	101300000	1000	0	0	-1	300
15695395	8279	385	0	-100	0	230	101300000	1000	0	0	-1	300
15707955	8275	382	0	-100	0	230	101300000	1000	0	0	-1	300
15720515	8279	376	0	-100	0	230	101300000	1000	0	0	-1	300
15733075	8284	379	0	-100	0	230	101300000	1000	0	0	-1	300
15745635	8292	383	0	-100	0	230	101300000	1000	0	0	-1	300
15758195	8284	376	0	-100	0	230	101300000	1000	0	0	-1	300
15770755	8272	381	0	-100	0	230	101300000	1000	0	0	-1	300
15783315	8284	378	0	-100	0	230	101300000	1000	0	0	-1	300
15795875	8289	380	0	-100	0	230	101300000	1000	0	0	-1	300
15808435	8282	381	0	-100	0	230	101300000	1000	0	0	-1	300
15820995	8281	380	0	-100	0	230	101300000	1000	0	0	-1	300
15833555	8284	385	0	-100	0	230	101300000	1000	0	0	-1	300
15846115	8277	381	0	-100	0	230	101300000	1000	0	0	-1	300
15858675	8277	382	0	-100	0	230	101300000	1000	0	0	-1	300
15871235	8281	380	0	-100	0	230	101300000	1000	0	0	-1	300
15883795	8277	380	0	-100	0	230	101300000	1000	0	0	-1	300
15896355	8284	380	0	-100	0	230	101300000	1000	0	0	-1	300
15908915	8286	378	0	-100	0	230	101300000	1000	0	0	-1	300
15921475	8289	380	0	-100	0	230	101300000	1000	0	0	-1	300
15934035	8284	379	0	-100	0	230	101300000	1000	0	0	-1	300
15946595	8279	380	0	-100	0	230	101300000	1000	0	0	-1	300
15959155	8284	385	0	-100	0	230	101300000	1000	0	0	-1	300
15971715	8277	381	0	-100	0	230	101300000	1000	0	0	-1	300
15984275	8277	378	0	-100	0	230	101300000	1000	0	0	-1	300
15996835	8279	379	0	-100	0	230	101300000	1000	0	0	-1	300
16009395	8289	377	0	-100	0	230	101300000	1000	0	0	-1	300
16021955	8284	379	0	-100	0	230	101300000	1000	0	0	-1	300
16034515	8287	379	0	-100	0	230	101300000	1000	0	0	-1	300
16047075	8291	381	0	-100	0	230	101300000	1000	0	0	-1	300
16059635	8289	380	0	-100	0	230	101300000	1000	0	0	-1	300
16072195	8282	381	0	-100	0	230	101300000	1000	0	0	-1	300
16084755	8282	375	0	-100	0	230	101300000	1000	0	0	-1	300
16097315	8286	380	0	-100	0	230	101300000	1000	0	0	-1	300
16109875	8291	381	0	-100	0	230	101300000	1000	0	0	-1	300
16122435	8284	379	0	-100	0	230	101300000	1000	0	0	-1	300
16134995	8282	383	0	-100	0	230	101300000	1000	0	0	-1	300
16147555	8287	380	0	-100	0	230	101300000	1000	0	0	-1	300
16160115	8277	382	0	-100	0	230	101300000	1000	0	0	-1	300
16172675	8281	381	0	-100	0	230	101300000	1000	0	0	-1	300
16185235	8284	383	0	-100	0	230	101300000	1000	0	0	-1	300
16197795	8272	382	0	-100	0	230	101300000	1000	0	0	-1	300
16210355	8267	378	0	-100	0	230	101300000	1000	0	0	-1	300
16222915	8275	383	0	-100	0	230	101300000	1000	0	0	-1	300
16235475	8281	380	0	-100	0	230	101300000	1000	0	0	-1	300
16298275	8284	380	0	-100	0	230	101300000	1000	0	0	-1	300
16310835	8272	383	0	-100	0	230	101300000	1000	0	0	-1	300
16323395	8284	380	0	-100	0	230	101300000	1000	0	0	-1	300
16335955	8277	382	0	-100	0	230	101300000	1000	0	0	-1	300
16348515	8284	384	0	-100	0	230	101300000	1000	0	0	-1	300
16361075	8279	380	0	-100	0	230	101300000	1000	0	0	-1	300
16373635	8279	381	0	-100	0	230	101300000	1000	0	0	-1	300
16386195	8282	379	0	-100	0	230	101300000	1000	0	0	-1	300
16398755	8277	382	0	-100	0	230	101300000	1000	0	0	-1	300
16411315	8284	380	0	-100	0	230	101300000	1000	0	0	-1	300
16423875	8279	377	0	-100	0	230	101300000	1000	0	0	-1	300
16499235	8284	382	0	-100	0	230	101300000	1000	0	0	-1	300
16511795	8289	379	0	-100	0	230	101300000	1000	0	0	-1	300
16524355	8284	378	0	-100	0	230	101300000	1000	0	0	-1	300
16536915	8291	378	0	-100	0	230	101300000	1000	0	0	-1	300
16549475	8279	381	0	-100	0	230	101300000	1000	0	0	-1	300
16562035	8279	382	0	-100	0	230	101300000	1000	0	0	-1	300
16574595	8284	380	0	-100	0	230	101300000	1000	0	0	-1	300
16587155	8284	379	0	-100	0	230	101300000	1000	0	0	-1	300
16599715	8287	378	0	-100	0	230	101300000	1000	0	0	-1	300
16612275	8289	380	0	-100	0	230	101300000	1000	0	0	-1	300
16624835	8282	379	0	-100	0	230	101300000	1000	0	0	-1	300
16637395	8277	379	0	-100	0	230	101300000	1000	0	0	-1	300
16649955	8284	383	0	-100	0	230	101300000	1000	0	0	-1	300
16662515	8282	380	0	-100	0	230	101300000	1000	0	0	-1	300
16675075	8281	379	0	-100	0	230	101300000	1000	0	0	-1	300
16687635	8279	380	0	-100	0	230	101300000	1000	0	0	-1	300
16700195	8277	380	0	-100	0	230	101300000	1000	0	0	-1	300
16712755	8279	378	0	-100	0	230	101300000	1000	0	0	-1	300
16725315	8281	385	0	-100	0	230	101300000	1000	0	0	-1	300
16737875	8284	383	0	-100	0	230	101300000	1000	0	0	-1	300
16750435	8277	387	0	-100	0	230	101300000	1000	0	0	-1	300
16762995	8281	379	0	-100	0	230	101300000	1000	0	0	-1	300
16775555	8282	384	0	-100	0	230	101300000	1000	0	0	-1	300
16788115	8282	381	0	-100	0	230	101300000	1000	0	0	-1	300
16800675	8279	381	0	-100	0	230	101300000	1000	0	0	-1	300
16813235	8282	380	0	-100	0	230	101300000	1000	0	0	-1	300
16825795	8284	383	0	-100	0	230	101300000	1000	0	0	-1	300
16838355	8284	383	0	-100	0	230	101300000	1000	0	0	-1	300
16850915	8279	378	0	-100	0	230	101300000	1000	0	0	-1	300
16863475	8281	380	0	-100	0	230	101300000	1000	0	0	-1	300
16876035	8289	379	0	-100	0	230	101300000	1000	0	0	-1	300
16888595	8284	380	0	-100	0	230	101300000	1000	0	0	-1	300
16901155	8284	382	0	-100	0	230	101300000	1000	0	0	-1	300
16913715	8282	381	0	-100	0	230	101300000	1000	0	0	-1	300
16926275	8281	378	0	-100	0	230	101300000	1000	0	0	-1	300
16938835	8280	380	0	-100	0	230	101300000	1000	0	0	-1	300
16951395	8279	379	0	-100	0	230	101300000	1000	0	0	-1	300
16963955	8279	379	0	-100	0	230	101300000	1000	0	0	-1	300
16976515	8282	379	0	-100	0	230	101300000	1000	0	0	-1	300
16989075	8289	379	0	-100	0	230	101300000	1000	0	0	-1	300
17001635	8293	383	0	-100	0	230	101300000	1000	0	0	-1	300
17014195	8289	380	0	-100	0	230	101300000	1000	0	0	-1	300
17026755	8284	376	0	-100	0	230	101300000	1000	0	0	-1	300
17039315	8281	381	0	-100	0	230	101300000	1000	0	0	-1	300
17051875	8289	379	0	-100	0	230	101300000	1000	0	0	-1	300
17064435	8286	382	0	-100	0	230	101300000	1000	0	0	-1	300
17076995	8281	380	0	-100	0	230	101300000	1000	0	0	-1	300
17089555	8279	382	0	-100	0	230	101300000	1000	0	0	-1	300
17102115	8281	380	0	-100	0	230	101300000	1000	0	0	-1	300
17114675	8286	379	0	-100	0	230	101300000	1000	0	0	-1	300
17127235	8286	380	0	-100	0	230	101300000	1000	0	0	-1	300
17139795	8281	380	0	-100	0	230	101300000	1000	0	0	-1	300
17152355	8277	380	0	-100	0	230	101300000	1000	0	0	-1	300
17164915	8279	379	0	-100	0	230	101300000	1000	0	0	-1	300
17177475	8284	384	0	-100	0	230	101300000	1000	0	0	-1	300
17190035	8284	382	0	-100	0	230	101300000	1000	0	0	-1	300
17202595	8286	381	0	-100	0	230	101300000	1000	0	0	-1	300
17215155	8286	382	0	-100	0	230	101300000	1000	0	0	-1	300
17227715	8286	382	0	-100	0	230	101300000	1000	0	0	-1	300
17240275	8272	382	0	-100	0	230	101300000	1000	0	0	-1	300
17252835	8279	383	0	-100	0	230	101300000	1000	0	0	-1	300
17265395	8279	384	0	-100	0	230	101300000	1000	0	0	-1	300
17277955	8279	383	0	-100	0	230	101300000	1000	0	0	-1	300
17290515	8282	382	0	-100	0	230	101300000	1000	0	0	-1	300
17303075	8279	382	0	-100	0	230	101300000	1000	0	0	-1	300
17315635	8289	379	0	-100	0	230	101300000	1000	0	0	-1	300
17328195	8284	379	0	-100	0	230	101300000	1000	0	0	-1	300
17340755	8289	383	0	-100	0	230	101300000	1000	0	0	-1	300
17353315	8275	379	0	-100	0	230	101300000	1000	0	0	-1	300
17365875	8279	380	0	-100	0	230	101300000	1000	0	0	-1	300
17378435	8277	380	0	-100	0	230	101300000	1000	0	0	-1	300
17390995	8284	379	0	-100	0	230	101300000	1000	0	0	-1	300
17403555	8284	383	0	-100	0	230	101300000	1000	0	0	-1	300
17416115	8277	384	0	-100	0	230	101300000	1000	0	0	-1	300
17428675	8279	377	0	-100	0	230	101300000	1000	0	0	-1	300
17441235	8275	380	0	-100	0	230	101300000	1000	0	0	-1	300
17453795	8284	379	0	-100	0	230	101300000	1000	0	0	-1	300
17466355	8286	382	0	-100	0	230	101300000	1000	0	0	-1	300
17478915	8288	384	0	-100	0	230	101300000	1000	0	0	-1	300
17491475	8277	382	0	-100	0	230	101300000	1000	0	0	-1	300
17504035	8277	383	0	-100	0	230	101300000	1000	0	0	-1	300
17516595	8283	385	0	-100	0	230	101300000	1000	0	0	-1	300
17529155	8281	382	0	-100	0	230	101300000	1000	0	0	-1	300
17541715	8279	384	0	-100	0	230	101300000	1000	0	0	-1	300
17554275	8279	382	0	-100	0	230	101300000	1000	0	0	-1	300
17566835	8284	380	0	-100	0	230	101300000	1000	0	0	-1	300
17579395	8282	382	0	-100	0	230	101300000	1000	0	0	-1	300
17591955	8277	380	0	-100	0	230	101300000	1000	0	0	-1	300
17604515	8284	378	0	-100	0	230	101300000	1000	0	0	-1	300
17617075	8284	379	0	-100	0	230	101300000	1000	0	0	-1	300
17629635	8282	377	0	-100	0	230	101300000	1000	0	0	-1	300
17642195	8291	378	0	-100	0	230	101300000	1000	0	0	-1	300
17654755	8287	378	0	-100	0	230	101300000	1000	0	0	-1	300
17667315	8301	382	0	-100	0	230	101300000	1000	0	0	-1	300
17679875	8282	381	0	-100	0	230	101300000	1000	0	0	-1	300
17692435	8280	381	0	-100	0	230	101300000	1000	0	0	-1	300
17704995	8286	383	0	-100	0	230	101300000	1000	0	0	-1	300
17717555	8291	380	0	-100	0	230	101300000	1000	0	0	-1	300
17730115	8282	380	0	-100	0	230	101300000	1000	0	0	-1	300
17742675	8284	380	0	-100	0	230	101300000	1000	0	0	-1	300
17755235	8286	384	0	-100	0	230	101300000	1000	0	0	-1	300
17767795	8279	383	0	-100	0	230	101300000	1000	0	0	-1	300
17780355	8281	386	0	-100	0	230	101300000	1000	0	0	-1	300
17792915	8272	381	0	-100	0	230	101300000	1000	0	0	-1	300
17805475	8286	380	0	-100	0	230	101300000	1000	0	0	-1	300
17818035	8284	380	0	-100	0	230	101300000	1000	0	0	-1	300
17830595	8281	381	0	-100	0	230	101300000	1000	0	0	-1	300
17843155	8281	384	0	-100	0	230	101300000	1000	0	0	-1	300
17855715	8293	379	0	-100	0	230	101300000	1000	0	0	-1	300
17868275	8289	383	0	-100	0	230	101300000	1000	0	0	-1	300
17880835	8294	381	0	-100	0	230	101300000	1000	0	0	-1	300
17893395	8287	378	0	-100	0	230	101300000	1000	0	0	-1	300
17905955	8289	381	0	-100	0	230	101300000	1000	0	0	-1	300
17918515	8289	380	0	-100	0	230	101300000	1000	0	0	-1	300
17931075	8279	384	0	-100	0	230	101300000	1000	0	0	-1	300
17943635	8286	384	0	-100	0	230	101300000	1000	0	0	-1	300
17956195	8284	382	0	-100	0	230	101300000	1000	0	0	-1	300
17968755	8279	380	0	-100	0	230	101300000	1000	0	0	-1	300
17981315	8282	381	0	-100	0	230	101300000	1000	0	0	-1	300
17993875	8281	382	0	-100	0	230	101300000	1000	0	0	-1	300
18006435	8277	382	0	-100	0	230	101300000	1000	0	0	-1	300
18018995	8289	383	0	-100	0	230	101300000	1000	0	0	-1	300
18031555	8284	380	0	-100	0	230	101300000	1000	0	0	-1	300
18044115	8286	381	0	-100	0	230	101300000	1000	0	0	-1	300
18056675	8292	378	0	-100	0	230	101300000	1000	0	0	-1	300
18069235	8284	378	0	-100	0	230	101300000	1000	0	0	-1	300
18081795	8284	379	0	-100	0	230	101300000	1000	0	0	-1	300
18094355	8284	379	0	-100	0	230	101300000	1000	0	0	-1	300
18106915	8282	374	0	-100	0	230	101300000	1000	0	0	-1	300
18119475	8293	380	0	-100	0	230	101300000	1000	0	0	-1	300
18132035	8289	378	0	-100	0	230	101300000	1000	0	0	-1	300
18144595	8286	381	0	-100	0	230	101300000	1000	0	0	-1	300
18157155	8291	381	0	-100	0	230	101300000	1000	0	0	-1	300
18169715	8282	363	0	-100	0	230	101300000	1000	0	0	-1	300
18182275	8284	378	0	-100	0	230	101300000	1000	0	0	-1	300
18194835	8281	378	0	-100	0	230	101300000	1000	0	0	-1	300
18207395	8279	383	0	-100	0	230	101300000	1000	0	0	-1	300
18219955	8277	383	0	-100	0	230	101300000	1000	0	0	-1	300
18232515	8277	377	0	-100	0	230	101300000	1000	0	0	-1	300
18245075	8277	382	0	-100	0	230	101300000	1000	0	0	-1	300
18257635	8281	384	0	-100	0	230	101300000	1000	0	0	-1	300
18270195	8289	379	0	-100	0	230	101300000	1000	0	0	-1	300
18282755	8289	379	0	-100	0	230	101300000	1000	0	0	-1	300
18295315	8279	375	0	-100	0	230	101300000	1000	0	0	-1	300
18307875	8275	382	0	-100	0	230	101300000	1000	0	0	-1	300
18320435	8273	382	0	-100	0	230	101300000	1000	0	0	-1	300
18332995	8277	381	0	-100	0	230	101300000	1000	0	0	-1	300
18345555	8277	381	0	-100	0	230	101300000	1000	0	0	-1	300
18358115	8291	380	0	-100	0	230	101300000	1000	0	0	-1	300
18370675	8280	380	0	-100	0	230	101300000	1000	0	0	-1	300
18383235	8287	381	0	-100	0	230	101300000	1000	0	0	-1	300
18395795	8281	378	0	-100	0	230	101300000	1000	0	0	-1	300
18408355	8282	383	0	-100	0	230	101300000	1000	0	0	-1	300
18420915	8286	384	0	-100	0	230	101300000	1000	0	0	-1	300
18433475	8282	382	0	-100	0	230	101300000	1000	0	0	-1	300
18446035	8284	384	0	-100	0	230	101300000	1000	0	0	-1	300
18458595	8277	379	0	-100	0	230	101300000	1000	0	0	-1	300
18471155	8284	381	0	-100	0	230	101300000	1000	0	0	-1	300
18483715	8279	380	0	-100	0	230	101300000	1000	0	0	-1	300
18496275	8272	386	0	-100	0	230	101300000	1000	0	0	-1	300
18508835	8286	382	0	-100	0	230	101300000	1000	0	0	-1	300
18521395	8284	380	0	-100	0	230	101300000	1000	0	0	-1	300
18533955	8279	383	0	-100	0	230	101300000	1000	0	0	-1	300
18546515	8277	382	0	-100	0	230	101300000	1000	0	0	-1	300
18559075	8282	379	0	-100	0	230	101300000	1000	0	0	-1	300
18571635	8289	379	0	-100	0	230	101300000	1000	0	0	-1	300
18584195	8284	381	0	-100	0	230	101300000	1000	0	0	-1	300
18596755	8284	382	0	-100	0	230	101300000	1000	0	0	-1	300
18609315	8294	381	0	-100	0	230	101300000	1000	0	0	-1	300
18621875	8275	382	0	-100	0	230	101300000	1000	0	0	-1	300
18634435	8274	383	0	-100	0	230	101300000	1000	0	0	-1	300
18646995	8277	379	0	-100	0	230	101300000	1000	0	0	-1	300
18659555	8286	382	0	-100	0	230	101300000	1000	0	0	-1	300
18672115	8286	378	0	-100	0	230	101300000	1000	0	0	-1	300
18684675	8286	379	0	-100	0	230	101300000	1000	0	0	-1	300
18697235	8284	378	0	-100	0	230	101300000	1000	0	0	-1	300
18709795	8291	380	0	-100	0	230	101300000	1000	0	0	-1	300
18722355	8289	381	0	-100	0	230	101300000	1000	0	0	-1	300
18734915	8284	382	0	-100	0	230	101300000	1000	0	0	-1	300
18747475	8284	384	0	-100	0	230	101300000	1000	0	0	-1	300
18760035	8284	382	0	-100	0	230	101300000	1000	0	0	-1	300
18772595	8282	377	0	-100	0	230	101300000	1000	0	0	-1	300
18785155	8289	383	0	-100	0	230	101300000	1000	0	0	-1	300
18797715	8286	383	0	-100	0	230	101300000	1000	0	0	-1	300
18810275	8282	383	0	-100	0	230	101300000	1000	0	0	-1	300
18822835	8284	384	0	-100	0	230	101300000	1000	0	0	-1	300
18835395	8284	379	0	-100	0	230	101300000	1000	0	0	-1	300
18847955	8284	383	0	-100	0	230	101300000	1000	0	0	-1	300
18860515	8286	379	0	-100	0	230	101300000	1000	0	0	-1	300
18873075	8279	384	0	-100	0	230	101300000	1000	0	0	-1	300
18885635	8279	377	0	-100	0	230	101300000	1000	0	0	-1	300
18898195	8287	382	0	-100	0	230	101300000	1000	0	0	-1	300
18910755	8281	381	0	-100	0	230	101300000	1000	0	0	-1	300
18923315	8274	380	0	-100	0	230	101300000	1000	0	0	-1	300
18935875	8284	383	0	-100	0	230	101300000	1000	0	0	-1	300
18948435	8282	385	0	-100	0	230	101300000	1000	0	0	-1	300
18960995	8284	381	0	-100	0	230	101300000	1000	0	0	-1	300
18973555	8286	379	0	-100	0	230	101300000	1000	0	0	-1	300
18986115	8284	383	0	-100	0	230	101300000	1000	0	0	-1	300
18998675	8282	375	0	-100	0	230	101300000	1000	0	0	-1	300
19011235	8282	382	0	-100	0	230	101300000	1000	0	0	-1	300
19023795	8286	380	0	-100	0	230	101300000	1000	0	0	-1	300
19036355	8286	382	0	-100	0	230	101300000	1000	0	0	-1	300
19048915	8286	380	0	-100	0	230	101300000	1000	0	0	-1	300
19061475	8280	375	0	-100	0	230	101300000	1000	0	0	-1	300
19074035	8284	380	0	-100	0	230	101300000	1000	0	0	-1	300
19086595	8277	380	0	-100	0	230	101300000	1000	0	0	-1	300
19099155	8284	381	0	-100	0	230	101300000	1000	0	0	-1	300
19111715	8284	375	0	-100	0	230	101300000	1000	0	0	-1	300
19124275	8277	379	0	-100	0	230	101300000	1000	0	0	-1	300
19136835	8279	383	0	-100	0	230	101300000	1000	0	0	-1	300
19149395	8282	380	0	-100	0	230	101300000	1000	0	0	-1	300
19161955	8284	376	0	-100	0	230	101300000	1000	0	0	-1	300
19174515	8281	382	0	-100	0	230	101300000	1000	0	0	-1	300
19212195	8289	380	0	-100	0	230	101300000	1000	0	0	-1	300
19224755	8279	384	0	-100	0	230	101300000	1000	0	0	-1	300
19237315	8279	379	0	-100	0	230	101300000	1000	0	0	-1	300
19249875	8277	379	0	-100	0	230	101300000	1000	0	0	-1	300
19262435	8289	384	0	-100	0	230	101300000	1000	0	0	-1	300
19274995	8272	376	0	-100	0	230	101300000	1000	0	0	-1	300
19287555	8286	380	0	-100	0	230	101300000	1000	0	0	-1	300
19300115	8286	383	0	-100	0	230	101300000	1000	0	0	-1	300
19312675	8274	381	0	-100	0	230	101300000	1000	0	0	-1	300
19325235	8284	379	0	-100	0	230	101300000	1000	0	0	-1	300
19337795	8296	383	0	-100	0	230	101300000	1000	0	0	-1	300
19350355	8279	382	0	-100	0	230	101300000	1000	0	0	-1	300
19438275	8286	381	0	-100	0	230	101300000	1000	0	0	-1	300
19450835	8286	382	0	-100	0	230	101300000	1000	0	0	-1	300
19463395	8277	372	0	-100	0	230	101300000	1000	0	0	-1	300
19475955	8284	378	0	-100	0	230	101300000	1000	0	0	-1	300
19488515	8270	383	0	-100	0	230	101300000	1000	0	0	-1	300
19501075	8280	381	0	-100	0	230	101300000	1000	0	0	-1	300
19513635	8279	380	0	-100	0	230	101300000	1000	0	0	-1	300
19526195	8280	378	0	-100	0	230	101300000	1000	0	0	-1	300
19538755	8284	377	0	-100	0	230	101300000	1000	0	0	-1	300
19551315	8294	380	0	-100	0	230	101300000	1000	0	0	-1	300
19563875	8279	378	0	-100	0	230	101300000	1000	0	0	-1	300
19576435	8291	382	0	-100	0	230	101300000	1000	0	0	-1	300
19601555	8281	382	0	-100	0	230	101300000	1000	0	0	-1	300
19614115	8281	384	0	-100	0	230	101300000	1000	0	0	-1	300
19626675	8286	380	0	-100	0	230	101300000	1000	0	0	-1	300
19639235	8277	383	0	-100	0	230	101300000	1000	0	0	-1	300
19651795	8284	382	0	-100	0	230	101300000	1000	0	0	-1	300
19664355	8284	380	0	-100	0	230	101300000	1000	0	0	-1	300
19676915	8279	381	0	-100	0	230	101300000	1000	0	0	-1	300
19689475	8284	380	0	-100	0	230	101300000	1000	0	0	-1	300
19702035	8272	378	0	-100	0	230	101300000	1000	0	0	-1	300
19714595	8282	379	0	-100	0	230	101300000	1000	0	0	-1	300
19727155	8277	381	0	-100	0	230	101300000	1000	0	0	-1	300
19739715	8286	381	0	-100	0	230	101300000	1000	0	0	-1	300
19752275	8284	377	0	-100	0	230	101300000	1000	0	0	-1	300
19764835	8284	381	0	-100	0	230	101300000	1000	0	0	-1	300
19777395	8289	380	0	-100	0	230	101300000	1000	0	0	-1	300
19789955	8275	380	0	-100	0	230	101300000	1000	0	0	-1	300
19802515	8281	382	0	-100	0	230	101300000	1000	0	0	-1	300
19815075	8276	382	0	-100	0	230	101300000	1000	0	0	-1	300
19827635	8277	382	0	-100	0	230	101300000	1000	0	0	-1	300
19840195	8291	385	0	-100	0	230	101300000	1000	0	0	-1	300
19852755	8279	380	0	-100	0	230	101300000	1000	0	0	-1	300
19865315	8284	383	0	-100	0	230	101300000	1000	0	0	-1	300
19877875	8282	379	0	-100	0	230	101300000	1000	0	0	-1	300
19890435	8280	379	0	-100	0	230	101300000	1000	0	0	-1	300
19902995	8282	379	0	-100	0	230	101300000	1000	0	0	-1	300
19915555	8289	376	0	-100	0	230	101300000	1000	0	0	-1	300
19928115	8286	383	0	-100	0	230	101300000	1000	0	0	-1	300
19940675	8283	382	0	-100	0	230	101300000	1000	0	0	-1	300
19953235	8279	385	0	-100	0	230	101300000	1000	0	0	-1	300
19965795	8279	381	0	-100	0	230	101300000	1000	0	0	-1	300
19978355	8284	384	0	-100	0	230	101300000	1000	0	0	-1	300
19990915	8275	378	0	-100	0	230	101300000	1000	0	0	-1	300
20003475	8279	383	0	-100	0	230	101300000	1000	0	0	-1	300
20016035	8282	381	0	-100	0	230	101300000	1000	0	0	-1	300
20028595	8279	379	0	-100	0	230	101300000	1000	0	0	-1	300
20041155	8284	383	0	-100	0	230	101300000	1000	0	0	-1	300
20053715	8286	379	0	-100	0	230	101300000	1000	0	0	-1	300
20066275	8286	379	0	-100	0	230	101300000	1000	0	0	-1	300
20078835	8291	382	0	-100	0	230	101300000	1000	0	0	-1	300
20091395	8279	381	0	-100	0	230	101300000	1000	0	0	-1	300
20103955	8279	382	0	-100	0	230	101300000	1000	0	0	-1	300
20116515	8284	383	0	-100	0	230	101300000	1000	0	0	-1	300
20129075	8281	380	0	-100	0	230	101300000	1000	0	0	-1	300
20141635	8279	383	0	-100	0	230	101300000	1000	0	0	-1	300
20154195	8277	379	0	-100	0	230	101300000	1000	0	0	-1	300
20166755	8277	379	0	-100	0	230	101300000	1000	0	0	-1	300
20179315	8286	384	0	-100	0	230	101300000	1000	0	0	-1	300
20191875	8286	381	0	-100	0	230	101300000	1000	0	0	-1	300
20204435	8284	381	0	-100	0	230	101300000	1000	0	0	-1	300
20216995	8279	383	0	-100	0	230	101300000	1000	0	0	-1	300
20229555	8286	380	0	-100	0	230	101300000	1000	0	0	-1	300
20242115	8289	380	0	-100	0	230	101300000	1000	0	0	-1	300
20254675	8284	380	0	-100	0	230	101300000	1000	0	0	-1	300
20267235	8286	376	0	-100	0	230	101300000	1000	0	0	-1	300
20279795	8291	379	0	-100	0	230	101300000	1000	0	0	-1	300
20292355	8282	378	0	-100	0	230	101300000	1000	0	0	-1	300
20304915	8291	379	0	-100	0	230	101300000	1000	0	0	-1	300
20317475	8279	376	0	-100	0	230	101300000	1000	0	0	-1	300
20330035	8282	380	0	-100	0	230	101300000	1000	0	0	-1	300
20342595	8275	382	0	-100	0	230	101300000	1000	0	0	-1	300
20355155	8286	384	0	-100	0	230	101300000	1000	0	0	-1	300
20367715	8286	383	0	-100	0	230	101300000	1000	0	0	-1	300
20380275	8282	383	0	-100	0	230	101300000	1000	0	0	-1	300
20392835	8289	381	0	-100	0	230	101300000	1000	0	0	-1	300
20405395	8294	382	0	-100	0	230	101300000	1000	0	0	-1	300
20417955	8296	379	0	-100	0	230	101300000	1000	0	0	-1	300
20430515	8279	381	0	-100	0	230	101300000	1000	0	0	-1	300
20443075	8275	364	0	-100	0	230	101300000	1000	0	0	-1	300
20455635	8284	380	0	-100	0	230	101300000	1000	0	0	-1	300
20468195	8282	383	0	-100	0	230	101300000	1000	0	0	-1	300
20480755	8279	385	0	-100	0	230	101300000	1000	0	0	-1	300
20493315	8286	381	0	-100	0	230	101300000	1000	0	0	-1	300
20505875	8284	379	0	-100	0	230	101300000	1000	0	0	-1	300
20518435	8289	382	0	-100	0	230	101300000	1000	0	0	-1	300
20530995	8287	384	0	-100	0	230	101300000	1000	0	0	-1	300
20543555	8287	379	0	-100	0	230	101300000	1000	0	0	-1	300
20556115	8286	376	0	-100	0	230	101300000	1000	0	0	-1	300
20568675	8282	379	0	-100	0	230	101300000	1000	0	0	-1	300
20581235	8289	378	0	-100	0	230	101300000	1000	0	0	-1	300
20593795	8287	380	0	-100	0	230	101300000	1000	0	0	-1	300
20606355	8279	377	0	-100	0	230	101300000	1000	0	0	-1	300
20618915	8274	386	0	-100	0	230	101300000	1000	0	0	-1	300
20631475	8282	380	0	-100	0	230	101300000	1000	0	0	-1	300
20644035	8291	381	0	-100	0	230	101300000	1000	0	0	-1	300
20656595	8286	380	0	-100	0	230	101300000	1000	0	0	-1	300
20669155	8282	376	0	-100	0	230	101300000	1000	0	0	-1	300
20681715	8279	379	0	-100	0	230	101300000	1000	0	0	-1	300
20694275	8282	380	0	-100	0	230	101300000	1000	0	0	-1	300
20706835	8281	384	0	-100	0	230	101300000	1000	0	0	-1	300
20719395	8282	386	0	-100	0	230	101300000	1000	0	0	-1	300
20731955	8281	377	0	-100	0	230	101300000	1000	0	0	-1	300
20744515	8286	381	0	-100	0	230	101300000	1000	0	0	-1	300
20757075	8289	380	0	-100	0	230	101300000	1000	0	0	-1	300
20769635	8287	382	0	-100	0	230	101300000	1000	0	0	-1	300
20782195	8284	378	0	-100	0	230	101300000	1000	0	0	-1	300
20794755	8289	383	0	-100	0	230	101300000	1000	0	0	-1	300
20807315	8286	380	0	-100	0	230	101300000	1000	0	0	-1	300
20819875	8279	379	0	-100	0	230	101300000	1000	0	0	-1	300
20832435	8284	379	0	-100	0	230	101300000	1000	0	0	-1	300
20844995	8272	378	0	-100	0	230	101300000	1000	0	0	-1	300
20857555	8282	383	0	-100	0	230	101300000	1000	0	0	-1	300
20870115	8284	380	0	-100	0	230	101300000	1000	0	0	-1	300
20882675	8279	379	0	-100	0	230	101300000	1000	0	0	-1	300
20895235	8294	380	0	-100	0	230	101300000	1000	0	0	-1	300
20907795	8286	380	0	-100	0	230	101300000	1000	0	0	-1	300
20920355	8282	378	0	-100	0	230	101300000	1000	0	0	-1	300
20932915	8277	381	0	-100	0	230	101300000	1000	0	0	-1	300
20945475	8274	385	0	-100	0	230	101300000	1000	0	0	-1	300
20958035	8279	384	0	-100	0	230	101300000	1000	0	0	-1	300
20970595	8281	380	0	-100	0	230	101300000	1000	0	0	-1	300
20983155	8291	383	0	-100	0	230	101300000	1000	0	0	-1	300
20995715	8286	383	0	-100	0	230	101300000	1000	0	0	-1	300
21008275	8279	379	0	-100	0	230	101300000	1000	0	0	-1	300
21020835	8277	384	0	-100	0	230	101300000	1000	0	0	-1	300
21033395	8284	384	0	-100	0	230	101300000	1000	0	0	-1	300
21045955	8284	385	0	-100	0	230	101300000	1000	0	0	-1	300
21058515	8279	381	0	-100	0	230	101300000	1000	0	0	-1	300
21071075	8294	379	0	-100	0	230	101300000	1000	0	0	-1	300
21083635	8286	361	0	-100	0	230	101300000	1000	0	0	-1	300
21096195	8277	376	0	-100	0	230	101300000	1000	0	0	-1	300
21108755	8277	366	0	-100	0	230	101300000	1000	0	0	-1	300
21121315	8277	384	0	-100	0	230	101300000	1000	0	0	-1	300
21133875	8281	382	0	-100	0	230	101300000	1000	0	0	-1	300
21146435	8291	381	0	-100	0	230	101300000	1000	0	0	-1	300
21158995	8282	382	0	-100	0	230	101300000	1000	0	0	-1	300
21171555	8282	382	0	-100	0	230	101300000	1000	0	0	-1	300
21184115	8277	379	0	-100	0	230	101300000	1000	0	0	-1	300
21196675	8286	382	0	-100	0	230	101300000	1000	0	0	-1	300
21209235	8286	372	0	-100	0	230	101300000	1000	0	0	-1	300
21221795	8280	380	0	-100	0	230	101300000	1000	0	0	-1	300
21234355	8287	382	0	-100	0	230	101300000	1000	0	0	-1	300
21246915	8286	383	0	-100	0	230	101300000	1000	0	0	-1	300
21259475	8277	383	0	-100	0	230	101300000	1000	0	0	-1	300
21272035	8284	387	0	-100	0	230	101300000	1000	0	0	-1	300
21284595	8279	383	0	-100	0	230	101300000	1000	0	0	-1	300
21297155	8284	381	0	-100	0	230	101300000	1000	0	0	-1	300
21309715	8277	378	0	-100	0	230	101300000	1000	0	0	-1	300
21322275	8286	379	0	-100	0	230	101300000	1000	0	0	-1	300
21334835	8282	382	0	-100	0	230	101300000	1000	0	0	-1	300
21347395	8277	383	0	-100	0	230	101300000	1000	0	0	-1	300
21359955	8281	382	0	-100	0	230	101300000	1000	0	0	-1	300
21372515	8274	386	0	-100	0	230	101300000	1000	0	0	-1	300
21385075	8284	380	0	-100	0	230	101300000	1000	0	0	-1	300
21397635	8291	382	0	-100	0	230	101300000	1000	0	0	-1	300
21410195	8281	380	0	-100	0	230	101300000	1000	0	0	-1	300
21422755	8284	384	0	-100	0	230	101300000	1000	0	0	-1	300
21435315	8279	383	0	-100	0	230	101300000	1000	0	0	-1	300
21447875	8284	382	0	-100	0	230	101300000	1000	0	0	-1	300
21460435	8281	380	0	-100	0	230	101300000	1000	0	0	-1	300
21472995	8286	385	0	-100	0	230	101300000	1000	0	0	-1	300
21485555	8279	379	0	-100	0	230	101300000	1000	0	0	-1	300
21498115	8284	381	0	-100	0	230	101300000	1000	0	0	-1	300
21510675	8289	380	0	-100	0	230	101300000	1000	0	0	-1	300
21523235	8286	377	0	-100	0	230	101300000	1000	0	0	-1	300
21535795	8289	381	0	-100	0	230	101300000	1000	0	0	-1	300
21548355	8284	378	0	-100	0	230	101300000	1000	0	0	-1	300
21560915	8275	378	0	-100	0	230	101300000	1000	0	0	-1	300
21573475	8284	385	0	-100	0	230	101300000	1000	0	0	-1	300
21586035	8289	380	0	-100	0	230	101300000	1000	0	0	-1	300
21598595	8289	379	0	-100	0	230	101300000	1000	0	0	-1	300
21611155	8281	382	0	-100	0	230	101300000	1000	0	0	-1	300
21623715	8279	380	0	-100	0	230	101300000	1000	0	0	-1	300
21636275	8291	385	0	-100	0	230	101300000	1000	0	0	-1	300
21648835	8277	384	0	-100	0	230	101300000	1000	0	0	-1	300
21661395	8286	383	0	-100	0	230	101300000	1000	0	0	-1	300
21673955	8289	379	0	-100	0	230	101300000	1000	0	0	-1	300
21686515	8279	379	0	-100	0	230	101300000	1000	0	0	-1	300
21699075	8281	382	0	-100	0	230	101300000	1000	0	0	-1	300
21711635	8291	379	0	-100	0	230	101300000	1000	0	0	-1	300
21724195	8284	381	0	-100	0	230	101300000	1000	0	0	-1	300
21736755	8275	379	0	-100	0	230	101300000	1000	0	0	-1	300
21749315	8279	378	0	-100	0	230	101300000	1000	0	0	-1	300
21761875	8284	381	0	-100	0	230	101300000	1000	0	0	-1	300
21774435	8281	381	0	-100	0	230	101300000	1000	0	0	-1	300
21786995	8281	384	0	-100	0	230	101300000	1000	0	0	-1	300
21799555	8286	383	0	-100	0	230	101300000	1000	0	0	-1	300
21812115	8284	380	0	-100	0	230	101300000	1000	0	0	-1	300
21824675	8289	379	0	-100	0	230	101300000	1000	0	0	-1	300
21837235	8291	383	0	-100	0	230	101300000	1000	0	0	-1	300
21849795	8284	379	0	-100	0	230	101300000	1000	0	0	-1	300
21862355	8282	383	0	-100	0	230	101300000	1000	0	0	-1	300
21874915	8286	381	0	-100	0	230	101300000	1000	0	0	-1	300
21887475	8284	381	0	-100	0	230	101300000	1000	0	0	-1	300
21900035	8284	386	0	-100	0	230	101300000	1000	0	0	-1	300
21912595	8284	382	0	-100	0	230	101300000	1000	0	0	-1	300
21925155	8277	383	0	-100	0	230	101300000	1000	0	0	-1	300
21937715	8282	386	0	-100	0	230	101300000	1000	0	0	-1	300
21950275	8282	383	0	-100	0	230	101300000	1000	0	0	-1	300
21962835	8281	383	0	-100	0	230	101300000	1000	0	0	-1	300
21975395	8279	384	0	-100	0	230	101300000	1000	0	0	-1	300
21987955	8284	380	0	-100	0	230	101300000	1000	0	0	-1	300
22000515	8287	378	0	-100	0	230	101300000	1000	0	0	-1	300
22013075	8281	382	0	-100	0	230	101300000	1000	0	0	-1	300
22025635	8289	384	0	-100	0	230	101300000	1000	0	0	-1	300
22038195	8284	382	0	-100	0	230	101300000	1000	0	0	-1	300
22050755	8274	383	0	-100	0	230	101300000	1000	0	0	-1	300
22063315	8282	379	0	-100	0	230	101300000	1000	0	0	-1	300
22075875	8291	378	0	-100	0	230	101300000	1000	0	0	-1	300
22088435	8275	383	0	-100	0	230	101300000	1000	0	0	-1	300
22100995	8279	377	0	-100	0	230	101300000	1000	0	0	-1	300
22113555	8281	383	0	-100	0	230	101300000	1000	0	0	-1	300
22126115	8289	379	0	-100	0	230	101300000	1000	0	0	-1	300
22138675	8284	379	0	-100	0	230	101300000	1000	0	0	-1	300
22151235	8286	380	0	-100	0	230	101300000	1000	0	0	-1	300
22163795	8289	380	0	-100	0	230	101300000	1000	0	0	-1	300
22176355	8289	382	0	-100	0	230	101300000	1000	0	0	-1	300
22188915	8286	382	0	-100	0	230	101300000	1000	0	0	-1	300
22201475	8284	378	0	-100	0	230	101300000	1000	0	0	-1	300
22214035	8286	381	0	-100	0	230	101300000	1000	0	0	-1	300
22226595	8284	382	0	-100	0	230	101300000	1000	0	0	-1	300
22239155	8281	386	0	-100	0	230	101300000	1000	0	0	-1	300
22251715	8281	383	0	-100	0	230	101300000	1000	0	0	-1	300
22264275	8279	383	0	-100	0	230	101300000	1000	0	0	-1	300
22276835	8286	380	0	-100	0	230	101300000	1000	0	0	-1	300
22352195	8284	378	0	-100	0	230	101300000	1000	0	0	-1	300
22364755	8279	383	0	-100	0	230	101300000	1000	0	0	-1	300
22377315	8272	378	0	-100	0	230	101300000	1000	0	0	-1	300
22389875	8277	379	0	-100	0	230	101300000	1000	0	0	-1	300
22402435	8294	383	0	-100	0	230	101300000	1000	0	0	-1	300
22414995	8282	375	0	-100	0	230	101300000	1000	0	0	-1	300
22427555	8277	382	0	-100	0	230	101300000	1000	0	0	-1	300
22440115	8287	380	0	-100	0	230	101300000	1000	0	0	-1	300
22452675	8277	376	0	-100	0	230	101300000	1000	0	0	-1	300
22465235	8284	379	0	-100	0	230	101300000	1000	0	0	-1	300
22477795	8284	382	0	-100	0	230	101300000	1000	0	0	-1	300
22490355	8279	383	0	-100	0	230	101300000	1000	0	0	-1	300
22540595	8275	381	0	-100	0	230	101300000	1000	0	0	-1	300
22553155	8289	385	0	-100	0	230	101300000	1000	0	0	-1	300
22565715	8284	381	0	-100	0	230	101300000	1000	0	0	-1	300
22578275	8284	380	0	-100	0	230	101300000	1000	0	0	-1	300
22590835	8282	378	0	-100	0	230	101300000	1000	0	0	-1	300
22603395	8284	377	0	-100	0	230	101300000	1000	0	0	-1	300
22615955	8279	382	0	-100	0	230	101300000	1000	0	0	-1	300
22628515	8284	382	0	-100	0	230	101300000	1000	0	0	-1	300
22641075	8291	379	0	-100	0	230	101300000	1000	0	0	-1	300
22653635	8279	384	0	-100	0	230	101300000	1000	0	0	-1	300
22666195	8279	378	0	-100	0	230	101300000	1000	0	0	-1	300
22678755	8291	379	0	-100	0	230	101300000	1000	0	0	-1	300
22691315	8286	381	0	-100	0	230	101300000	1000	0	0	-1	300
22703875	8277	380	0	-100	0	230	101300000	1000	0	0	-1	300
22716435	8277	382	0	-100	0	230	101300000	1000	0	0	-1	300
22728995	8284	380	0	-100	0	230	101300000	1000	0	0	-1	300
22741555	8292	384	0	-100	0	230	101300000	1000	0	0	-1	300
22754115	8282	384	0	-100	0	230	101300000	1000	0	0	-1	300
22766675	8289	380	0	-100	0	230	101300000	1000	0	0	-1	300
22779235	8277	382	0	-100	0	230	101300000	1000	0	0	-1	300
22791795	8286	385	0	-100	0	230	101300000	1000	0	0	-1	300
22804355	8277	385	0	-100	0	230	101300000	1000	0	0	-1	300
22816915	8281	386	0	-100	0	230	101300000	1000	0	0	-1	300
22829475	8282	382	0	-100	0	230	101300000	1000	0	0	-1	300
22842035	8284	380	0	-100	0	230	101300000	1000	0	0	-1	300
22854595	8282	379	0	-100	0	230	101300000	1000	0	0	-1	300
22867155	8277	379	0	-100	0	230	101300000	1000	0	0	-1	300
22879715	8284	377	0	-100	0	230	101300000	1000	0	0	-1	300
22892275	8289	380	0	-100	0	230	101300000	1000	0	0	-1	300
22904835	8287	378	0	-100	0	230	101300000	1000	0	0	-1	300
22917395	8291	374	0	-100	0	230	101300000	1000	0	0	-1	300
22929955	8282	380	0	-100	0	230	101300000	1000	0	0	-1	300
22942515	8281	384	0	-100	0	230	101300000	1000	0	0	-1	300
22955075	8284	384	0	-100	0	230	101300000	1000	0	0	-1	300
22967635	8284	380	0	-100	0	230	101300000	1000	0	0	-1	300
22980195	8284	382	0	-100	0	230	101300000	1000	0	0	-1	300
22992755	8284	378	0	-100	0	230	101300000	1000	0	0	-1	300
23005315	8289	380	0	-100	0	230	101300000	1000	0	0	-1	300
23017875	8287	378	0	-100	0	230	101300000	1000	0	0	-1	300
23030435	8289	383	0	-100	0	230	101300000	1000	0	0	-1	300
23042995	8289	384	0	-100	0	230	101300000	1000	0	0	-1	300
23055555	8289	384	0	-100	0	230	101300000	1000	0	0	-1	300
23068115	8293	380	0	-100	0	230	101300000	1000	0	0	-1	300
23080675	8286	380	0	-100	0	230	101300000	1000	0	0	-1	300
23093235	8282	380	0	-100	0	230	101300000	1000	0	0	-1	300
23105795	8279	384	0	-100	0	230	101300000	1000	0	0	-1	300
23118355	8272	384	0	-100	0	230	101300000	1000	0	0	-1	300
23130915	8277	383	0	-100	0	230	101300000	1000	0	0	-1	300
23143475	8284	385	0	-100	0	230	101300000	1000	0	0	-1	300
23156035	8284	387	0	-100	0	230	101300000	1000	0	0	-1	300
23168595	8286	385	0	-100	0	230	101300000	1000	0	0	-1	300
23181155	8281	384	0	-100	0	230	101300000	1000	0	0	-1	300
23193715	8281	384	0	-100	0	230	101300000	1000	0	0	-1	300
23206275	8289	385	0	-100	0	230	101300000	1000	0	0	-1	300
23218835	8286	384	0	-100	0	230	101300000	1000	0	0	-1	300
23231395	8282	386	0	-100	0	230	101300000	1000	0	0	-1	300
23243955	8277	384	0	-100	0	230	101300000	1000	0	0	-1	300
23256515	8282	383	0	-100	0	230	101300000	1000	0	0	-1	300
23269075	8275	381	0	-100	0	230	101300000	1000	0	0	-1	300
23281635	8284	379	0	-100	0	230	101300000	1000	0	0	-1	300
23294195	8284	383	0	-100	0	230	101300000	1000	0	0	-1	300
23306755	8286	383	0	-100	0	230	101300000	1000	0	0	-1	300
23319315	8284	386	0	-100	0	230	101300000	1000	0	0	-1	300
23331875	8284	385	0	-100	0	230	101300000	1000	0	0	-1	300
23344435	8277	383	0	-100	0	230	101300000	1000	0	0	-1	300
23356995	8282	379	0	-100	0	230	101300000	1000	0	0	-1	300
23369555	8289	381	0	-100	0	230	101300000	1000	0	0	-1	300
23382115	8286	379	0	-100	0	230	101300000	1000	0	0	-1	300
23394675	8286	383	0	-100	0	230	101300000	1000	0	0	-1	300
23407235	8289	380	0	-100	0	230	101300000	1000	0	0	-1	300
23419795	8275	380	0	-100	0	230	101300000	1000	0	0	-1	300
23432355	8279	378	0	-100	0	230	101300000	1000	0	0	-1	300
23444915	8277	381	0	-100	0	230	101300000	1000	0	0	-1	300
23457475	8284	379	0	-100	0	230	101300000	1000	0	0	-1	300
23470035	8275	382	0	-100	0	230	101300000	1000	0	0	-1	300
23482595	8279	380	0	-100	0	230	101300000	1000	0	0	-1	300
23495155	8282	384	0	-100	0	230	101300000	1000	0	0	-1	300
23507715	8282	384	0	-100	0	230	101300000	1000	0	0	-1	300
23520275	8286	383	0	-100	0	230	101300000	1000	0	0	-1	300
23532835	8272	383	0	-100	0	230	101300000	1000	0	0	-1	300
23545395	8279	381	0	-100	0	230	101300000	1000	0	0	-1	300
23557955	8279	380	0	-100	0	230	101300000	1000	0	0	-1	300
23570515	8289	378	0	-100	0	230	101300000	1000	0	0	-1	300
23583075	8284	378	0	-100	0	230	101300000	1000	0	0	-1	300
23595635	8279	380	0	-100	0	230	101300000	1000	0	0	-1	300
23608195	8284	378	0	-100	0	230	101300000	1000	0	0	-1	300
23620755	8287	381	0	-100	0	230	101300000	1000	0	0	-1	300
23633315	8284	379	0	-100	0	230	101300000	1000	0	0	-1	300
23645875	8296	383	0	-100	0	230	101300000	1000	0	0	-1	300
23658435	8279	384	0	-100	0	230	101300000	1000	0	0	-1	300
23670995	8279	380	0	-100	0	230	101300000	1000	0	0	-1	300
23683555	8277	382	0	-100	0	230	101300000	1000	0	0	-1	300
23696115	8277	380	0	-100	0	230	101300000	1000	0	0	-1	300
23708675	8282	379	0	-100	0	230	101300000	1000	0	0	-1	300
23721235	8281	378	0	-100	0	230	101300000	1000	0	0	-1	300
23733795	8282	378	0	-100	0	230	101300000	1000	0	0	-1	300
23746355	8279	380	0	-100	0	230	101300000	1000	0	0	-1	300
23758915	8285	377	0	-100	0	230	101300000	1000	0	0	-1	300
23771475	8286	378	0	-100	0	230	101300000	1000	0	0	-1	300
23784035	8284	381	0	-100	0	230	101300000	1000	0	0	-1	300
23796595	8281	385	0	-100	0	230	101300000	1000	0	0	-1	300
23809155	8281	384	0	-100	0	230	101300000	1000	0	0	-1	300
23821715	8281	382	0	-100	0	230	101300000	1000	0	0	-1	300
23834275	8293	384	0	-100	0	230	101300000	1000	0	0	-1	300
23846835	8279	383	0	-100	0	230	101300000	1000	0	0	-1	300
23859395	8280	378	0	-100	0	230	101300000	1000	0	0	-1	300
23871955	8284	383	0	-100	0	230	101300000	1000	0	0	-1	300
23884515	8270	381	0	-100	0	230	101300000	1000	0	0	-1	300
23897075	8275	380	0	-100	0	230	101300000	1000	0	0	-1	300
23909635	8281	380	0	-100	0	230	101300000	1000	0	0	-1	300
23922195	8286	380	0	-100	0	230	101300000	1000	0	0	-1	300
23934755	8294	379	0	-100	0	230	101300000	1000	0	0	-1	300
23947315	8284	383	0	-100	0	230	101300000	1000	0	0	-1	300
23959875	8284	383	0	-100	0	230	101300000	1000	0	0	-1	300
23972435	8289	383	0	-100	0	230	101300000	1000	0	0	-1	300
23984995	8279	376	0	-100	0	230	101300000	1000	0	0	-1	300
23997555	8282	384	0	-100	0	230	101300000	1000	0	0	-1	300
24010115	8282	381	0	-100	0	230	101300000	1000	0	0	-1	300
24022675	8286	381	0	-100	0	230	101300000	1000	0	0	-1	300
24035235	8282	380	0	-100	0	230	101300000	1000	0	0	-1	300
24047795	8277	381	0	-100	0	230	101300000	1000	0	0	-1	300
24060355	8286	383	0	-100	0	230	101300000	1000	0	0	-1	300
24072915	8277	378	0	-100	0	230	101300000	1000	0	0	-1	300
24085475	8277	383	0	-100	0	230	101300000	1000	0	0	-1	300
24098035	8282	379	0	-100	0	230	101300000	1000	0	0	-1	300
24110595	8282	383	0	-100	0	230	101300000	1000	0	0	-1	300
24123155	8279	383	0	-100	0	230	101300000	1000	0	0	-1	300
24135715	8284	380	0	-100	0	230	101300000	1000	0	0	-1	300
24148275	8282	376	0	-100	0	230	101300000	1000	0	0	-1	300
24160835	8291	381	0	-100	0	230	101300000	1000	0	0	-1	300
24173395	8282	384	0	-100	0	230	101300000	1000	0	0	-1	300
24185955	8284	382	0	-100	0	230	101300000	1000	0	0	-1	300
24198515	8279	382	0	-100	0	230	101300000	1000	0	0	-1	300
24211075	8277	379	0	-100	0	230	101300000	1000	0	0	-1	300
24223635	8286	380	0	-100	0	230	101300000	1000	0	0	-1	300
24236195	8291	383	0	-100	0	230	101300000	1000	0	0	-1	300
24248755	8284	381	0	-100	0	230	101300000	1000	0	0	-1	300
24261315	8281	383	0	-100	0	230	101300000	1000	0	0	-1	300
24273875	8279	383	0	-100	0	230	101300000	1000	0	0	-1	300
24286435	8282	379	0	-100	0	230	101300000	1000	0	0	-1	300
24298995	8287	383	0	-100	0	230	101300000	1000	0	0	-1	300
24311555	8291	381	0	-100	0	230	101300000	1000	0	0	-1	300
24324115	8281	387	0	-100	0	230	101300000	1000	0	0	-1	300
24336675	8279	384	0	-100	0	230	101300000	1000	0	0	-1	300
24349235	8282	366	0	-100	0	230	101300000	1000	0	0	-1	300
24361795	8289	380	0	-100	0	230	101300000	1000	0	0	-1	300
24374355	8281	380	0	-100	0	230	101300000	1000	0	0	-1	300
24386915	8282	383	0	-100	0	230	101300000	1000	0	0	-1	300
24399475	8275	382	0	-100	0	230	101300000	1000	0	0	-1	300
24412035	8289	380	0	-100	0	230	101300000	1000	0	0	-1	300
24424595	8289	383	0	-100	0	230	101300000	1000	0	0	-1	300
24437155	8284	385	0	-100	0	230	101300000	1000	0	0	-1	300
24449715	8291	384	0	-100	0	230	101300000	1000	0	0	-1	300
24462275	8284	380	0	-100	0	230	101300000	1000	0	0	-1	300
24474835	8284	381	0	-100	0	230	101300000	1000	0	0	-1	300
24487395	8289	381	0	-100	0	230	101300000	1000	0	0	-1	300
24499955	8282	378	0	-100	0	230	101300000	1000	0	0	-1	300
24512515	8298	384	0	-100	0	230	101300000	1000	0	0	-1	300
24525075	8291	380	0	-100	0	230	101300000	1000	0	0	-1	300
24537635	8298	381	0	-100	0	230	101300000	1000	0	0	-1	300
24550195	8284	381	0	-100	0	230	101300000	1000	0	0	-1	300
24562755	8284	380	0	-100	0	230	101300000	1000	0	0	-1	300
24575315	8284	385	0	-100	0	230	101300000	1000	0	0	-1	300
24587875	8279	384	0	-100	0	230	101300000	1000	0	0	-1	300
24600435	8282	383	0	-100	0	230	101300000	1000	0	0	-1	300
24612995	8281	382	0	-100	0	230	101300000	1000	0	0	-1	300
24625555	8279	383	0	-100	0	230	101300000	1000	0	0	-1	300
24638115	8282	382	0	-100	0	230	101300000	1000	0	0	-1	300
24650675	8272	381	0	-100	0	230	101300000	1000	0	0	-1	300
24663235	8277	382	0	-100	0	230	101300000	1000	0	0	-1	300
24675795	8281	382	0	-100	0	230	101300000	1000	0	0	-1	300
24688355	8281	384	0	-100	0	230	101300000	1000	0	0	-1	300
24700915	8281	381	0	-100	0	230	101300000	1000	0	0	-1	300
24713475	8279	382	0	-100	0	230	101300000	1000	0	0	-1	300
24726035	8277	382	0	-100	0	230	101300000	1000	0	0	-1	300
24738595	8284	379	0	-100	0	230	101300000	1000	0	0	-1	300
24751155	8279	383	0	-100	0	230	101300000	1000	0	0	-1	300
24763715	8286	362	0	-100	0	230	101300000	1000	0	0	-1	300
24776275	8279	379	0	-100	0	230	101300000	1000	0	0	-1	300
24788835	8289	379	0	-100	0	230	101300000	1000	0	0	-1	300
24801395	8282	382	0	-100	0	230	101300000	1000	0	0	-1	300
24813955	8293	383	0	-100	0	230	101300000	1000	0	0	-1	300
24826515	8286	381	0	-100	0	230	101300000	1000	0	0	-1	300
24839075	8284	385	0	-100	0	230	101300000	1000	0	0	-1	300
24851635	8284	383	0	-100	0	230	101300000	1000	0	0	-1	300
24864195	8284	384	0	-100	0	230	101300000	1000	0	0	-1	300
24876755	8284	380	0	-100	0	230	101300000	1000	0	0	-1	300
24889315	8274	379	0	-100	0	230	101300000	1000	0	0	-1	300
24901875	8279	382	0	-100	0	230	101300000	1000	0	0	-1	300
24914435	8279	385	0	-100	0	230	101300000	1000	0	0	-1	300
24926995	8279	379	0	-100	0	230	101300000	1000	0	0	-1	300
24939555	8281	383	0	-100	0	230	101300000	1000	0	0	-1	300
24952115	8284	383	0	-100	0	230	101300000	1000	0	0	-1	300
24964675	8277	381	0	-100	0	230	101300000	1000	0	0	-1	300
24977235	8282	379	0	-100	0	230	101300000	1000	0	0	-1	300
24989795	8289	384	0	-100	0	230	101300000	1000	0	0	-1	300
25002355	8277	382	0	-100	0	230	101300000	1000	0	0	-1	300
25014915	8284	378	0	-100	0	230	101300000	1000	0	0	-1	300
25027475	8282	381	0	-100	0	230	101300000	1000	0	0	-1	300
25040035	8284	377	0	-100	0	230	101300000	1000	0	0	-1	300
25052595	8284	381	0	-100	0	230	101300000	1000	0	0	-1	300
25065155	8286	382	0	-100	0	230	101300000	1000	0	0	-1	300
25077715	8287	379	0	-100	0	230	101300000	1000	0	0	-1	300
25090275	8286	380	0	-100	0	230	101300000	1000	0	0	-1	300
25102835	8291	379	0	-100	0	230	101300000	1000	0	0	-1	300
25115395	8280	380	0	-100	0	230	101300000	1000	0	0	-1	300
25127955	8289	379	0	-100	0	230	101300000	1000	0	0	-1	300
25140515	8287	379	0	-100	0	230	101300000	1000	0	0	-1	300
25153075	8284	380	0	-100	0	230	101300000	1000	0	0	-1	300
25165635	8289	381	0	-100	0	230	101300000	1000	0	0	-1	300
25178195	8291	380	0	-100	0	230	101300000	1000	0	0	-1	300
25190755	8291	380	0	-100	0	230	101300000	1000	0	0	-1	300
25203315	8286	379	0	-100	0	230	101300000	1000	0	0	-1	300
25215875	8289	382	0	-100	0	230	101300000	1000	0	0	-1	300
25253555	8286	380	0	-100	0	230	101300000	1000	0	0	-1	300
25266115	8281	378	0	-100	0	230	101300000	1000	0	0	-1	300
25278675	8282	379	0	-100	0	230	101300000	1000	0	0	-1	300
25291235	8274	380	0	-100	0	230	101300000	1000	0	0	-1	300
25303795	8284	381	0	-100	0	230	101300000	1000	0	0	-1	300
25316355	8277	383	0	-100	0	230	101300000	1000	0	0	-1	300
25328915	8279	382	0	-100	0	230	101300000	1000	0	0	-1	300
25341475	8282	381	0	-100	0	230	101300000	1000	0	0	-1	300
25354035	8279	382	0	-100	0	230	101300000	1000	0	0	-1	300
25366595	8289	378	0	-100	0	230	101300000	1000	0	0	-1	300
25379155	8284	379	0	-100	0	230	101300000	1000	0	0	-1	300
25454515	8286	380	0	-100	0	230	101300000	1000	0	0	-1	300
25467075	8286	381	0	-100	0	230	101300000	1000	0	0	-1	300
25479635	8280	380	0	-100	0	230	101300000	1000	0	0	-1	300
25492195	8282	377	0	-100	0	230	101300000	1000	0	0	-1	300
25504755	8286	381	0	-100	0	230	101300000	1000	0	0	-1	300
25517315	8279	380	0	-100	0	230	101300000	1000	0	0	-1	300
25529875	8282	380	0	-100	0	230	101300000	1000	0	0	-1	300
25542435	8279	382	0	-100	0	230	101300000	1000	0	0	-1	300
25554995	8284	380	0	-100	0	230	101300000	1000	0	0	-1	300
25567555	8286	381	0	-100	0	230	101300000	1000	0	0	-1	300
25580115	8280	382	0	-100	0	230	101300000	1000	0	0	-1	300
25592675	8286	379	0	-100	0	230	101300000	1000	0	0	-1	300
25617795	8279	379	0	-100	0	230	101300000	1000	0	0	-1	300
25630355	8287	381	0	-100	0	230	101300000	1000	0	0	-1	300
25642915	8291	380	0	-100	0	230	101300000	1000	0	0	-1	300
25655475	8284	383	0	-100	0	230	101300000	1000	0	0	-1	300
25668035	8293	380	0	-100	0	230	101300000	1000	0	0	-1	300
25680595	8286	379	0	-100	0	230	101300000	1000	0	0	-1	300
25693155	8284	386	0	-100	0	230	101300000	1000	0	0	-1	300
25705715	8281	385	0	-100	0	230	101300000	1000	0	0	-1	300
25718275	8284	385	0	-100	0	230	101300000	1000	0	0	-1	300
25730835	8280	379	0	-100	0	230	101300000	1000	0	0	-1	300
25743395	8277	381	0	-100	0	230	101300000	1000	0	0	-1	300
25755955	8284	383	0	-100	0	230	101300000	1000	0	0	-1	300
25768515	8284	384	0	-100	0	230	101300000	1000	0	0	-1	300
25781075	8282	383	0	-100	0	230	101300000	1000	0	0	-1	300
25793635	8281	382	0	-100	0	230	101300000	1000	0	0	-1	300
25806195	8279	382	0	-100	0	230	101300000	1000	0	0	-1	300
25818755	8289	385	0	-100	0	230	101300000	1000	0	0	-1	300
25831315	8279	387	0	-100	0	230	101300000	1000	0	0	-1	300
25843875	8282	381	0	-100	0	230	101300000	1000	0	0	-1	300
25856435	8286	380	0	-100	0	230	101300000	1000	0	0	-1	300
25868995	8284	384	0	-100	0	230	101300000	1000	0	0	-1	300
25881555	8284	386	0	-100	0	230	101300000	1000	0	0	-1	300
25894115	8277	384	0	-100	0	230	101300000	1000	0	0	-1	300
25906675	8284	382	0	-100	0	230	101300000	1000	0	0	-1	300
25919235	8286	380	0	-100	0	230	101300000	1000	0	0	-1	300
25931795	8286	381	0	-100	0	230	101300000	1000	0	0	-1	300
25944355	8289	380	0	-100	0	230	101300000	1000	0	0	-1	300
25956915	8289	380	0	-100	0	230	101300000	1000	0	0	-1	300
25969475	8284	380	0	-100	0	230	101300000	1000	0	0	-1	300
25982035	8286	380	0	-100	0	230	101300000	1000	0	0	-1	300
25994595	8286	380	0	-100	0	230	101300000	1000	0	0	-1	300
26007155	8281	380	0	-100	0	230	101300000	1000	0	0	-1	300
26019715	8279	379	0	-100	0	230	101300000	1000	0	0	-1	300
26032275	8279	381	0	-100	0	230	101300000	1000	0	0	-1	300
26044835	8282	383	0	-100	0	230	101300000	1000	0	0	-1	300
26057395	8284	385	0	-100	0	230	101300000	1000	0	0	-1	300
26069955	8284	385	0	-100	0	230	101300000	1000	0	0	-1	300
26082515	8279	384	0	-100	0	230	101300000	1000	0	0	-1	300
26095075	8286	360	0	-100	0	230	101300000	1000	0	0	-1	300
26107635	8281	379	0	-100	0	230	101300000	1000	0	0	-1	300
26120195	8289	380	0	-100	0	230	101300000	1000	0	0	-1	300
26132755	8291	382	0	-100	0	230	101300000	1000	0	0	-1	300
26145315	8291	380	0	-100	0	230	101300000	1000	0	0	-1	300
26157875	8284	378	0	-100	0	230	101300000	1000	0	0	-1	300
26170435	8277	379	0	-100	0	230	101300000	1000	0	0	-1	300
26182995	8277	382	0	-100	0	230	101300000	1000	0	0	-1	300
26195555	8277	380	0	-100	0	230	101300000	1000	0	0	-1	300
26208115	8286	382	0	-100	0	230	101300000	1000	0	0	-1	300
26220675	8277	382	0	-100	0	230	101300000	1000	0	0	-1	300
26233235	8289	384	0	-100	0	230	101300000	1000	0	0	-1	300
26245795	8281	384	0	-100	0	230	101300000	1000	0	0	-1	300
26258355	8281	384	0	-100	0	230	101300000	1000	0	0	-1	300
26270915	8289	377	0	-100	0	230	101300000	1000	0	0	-1	300
26283475	8286	381	0	-100	0	230	101300000	1000	0	0	-1	300
26296035	8282	383	0	-100	0	230	101300000	1000	0	0	-1	300
26308595	8282	379	0	-100	0	230	101300000	1000	0	0	-1	300
26321155	8282	380	0	-100	0	230	101300000	1000	0	0	-1	300
26333715	8284	380	0	-100	0	230	101300000	1000	0	0	-1	300
26346275	8286	382	0	-100	0	230	101300000	1000	0	0	-1	300
26358835	8279	386	0	-100	0	230	101300000	1000	0	0	-1	300
26371395	8277	379	0	-100	0	230	101300000	1000	0	0	-1	300
26383955	8282	379	0	-100	0	230	101300000	1000	0	0	-1	300
26396515	8277	381	0	-100	0	230	101300000	1000	0	0	-1	300
26409075	8289	387	0	-100	0	230	101300000	1000	0	0	-1	300
26421635	8275	383	0	-100	0	230	101300000	1000	0	0	-1	300
26434195	8277	383	0	-100	0	230	101300000	1000	0	0	-1	300
26446755	8279	385	0	-100	0	230	101300000	1000	0	0	-1	300
26459315	8279	385	0	-100	0	230	101300000	1000	0	0	-1	300
26471875	8279	381	0	-100	0	230	101300000	1000	0	0	-1	300
26484435	8284	384	0	-100	0	230	101300000	1000	0	0	-1	300
26496995	8291	380	0	-100	0	230	101300000	1000	0	0	-1	300
26509555	8284	381	0	-100	0	230	101300000	1000	0	0	-1	300
26522115	8293	380	0	-100	0	230	101300000	1000	0	0	-1	300
26534675	8291	380	0	-100	0	230	101300000	1000	0	0	-1	300
26547235	8284	379	0	-100	0	230	101300000	1000	0	0	-1	300
26559795	8287	383	0	-100	0	230	101300000	1000	0	0	-1	300
26572355	8286	380	0	-100	0	230	101300000	1000	0	0	-1	300
26584915	8291	380	0	-100	0	230	101300000	1000	0	0	-1	300
26597475	8286	381	0	-100	0	230	101300000	1000	0	0	-1	300
26610035	8284	378	0	-100	0	230	101300000	1000	0	0	-1	300
26622595	8284	379	0	-100	0	230	101300000	1000	0	0	-1	300
26635155	8291	383	0	-100	0	230	101300000	1000	0	0	-1	300
26647715	8286	383	0	-100	0	230	101300000	1000	0	0	-1	300
26660275	8286	381	0	-100	0	230	101300000	1000	0	0	-1	300
26672835	8284	378	0	-100	0	230	101300000	1000	0	0	-1	300
26685395	8287	382	0	-100	0	230	101300000	1000	0	0	-1	300
26697955	8291	384	0	-100	0	230	101300000	1000	0	0	-1	300
26710515	8279	381	0	-100	0	230	101300000	1000	0	0	-1	300
26723075	8277	379	0	-100	0	230	101300000	1000	0	0	-1	300
26735635	8284	380	0	-100	0	230	101300000	1000	0	0	-1	300
26748195	8298	380	0	-100	0	230	101300000	1000	0	0	-1	300
26760755	8284	379	0	-100	0	230	101300000	1000	0	0	-1	300
26773315	8286	381	0	-100	0	230	101300000	1000	0	0	-1	300
26785875	8279	381	0	-100	0	230	101300000	1000	0	0	-1	300
26798435	8279	383	0	-100	0	230	101300000	1000	0	0	-1	300
26810995	8277	379	0	-100	0	230	101300000	1000	0	0	-1	300
26823555	8277	380	0	-100	0	230	101300000	1000	0	0	-1	300
26836115	8284	383	0	-100	0	230	101300000	1000	0	0	-1	300
26848675	8284	383	0	-100	0	230	101300000	1000	0	0	-1	300
26861235	8279	383	0	-100	0	230	101300000	1000	0	0	-1	300
26873795	8282	380	0	-100	0	230	101300000	1000	0	0	-1	300
26886355	8274	379	0	-100	0	230	101300000	1000	0	0	-1	300
26898915	8277	383	0	-100	0	230	101300000	1000	0	0	-1	300
26911475	8277	382	0	-100	0	230	101300000	1000	0	0	-1	300
26924035	8286	383	0	-100	0	230	101300000	1000	0	0	-1	300
26936595	8286	384	0	-100	0	230	101300000	1000	0	0	-1	300
26949155	8284	384	0	-100	0	230	101300000	1000	0	0	-1	300
26961715	8284	383	0	-100	0	230	101300000	1000	0	0	-1	300
26974275	8281	385	0	-100	0	230	101300000	1000	0	0	-1	300
26986835	8284	383	0	-100	0	230	101300000	1000	0	0	-1	300
26999395	8284	380	0	-100	0	230	101300000	1000	0	0	-1	300
27011955	8289	380	0	-100	0	230	101300000	1000	0	0	-1	300
27024515	8284	380	0	-100	0	230	101300000	1000	0	0	-1	300
27037075	8282	379	0	-100	0	230	101300000	1000	0	0	-1	300
27049635	8282	385	0	-100	0	230	101300000	1000	0	0	-1	300
