timestamp	voltage	current	windSpeed	pitchAngle	rpm	temperature	ambientPressure	humidity	accelerationX	accelerationY	accelerationZ	currentSink
7039070	8520	0	0	-100	0	230	101300000	1000	0	0	-1	0
7046523	8534	0	0	-100	0	230	101300000	1000	0	0	-1	0
7059083	8534	0	0	-100	0	230	101300000	1000	0	0	-1	0
7071643	8526	4	0	-100	0	230	101300000	1000	0	0	-1	0
7084203	8522	0	0	-100	0	230	101300000	1000	0	0	-1	0
7096763	8531	0	0	-100	0	230	101300000	1000	0	0	-1	0
7109323	8534	0	0	-100	0	230	101300000	1000	0	0	-1	0
7121883	8526	3	0	-100	0	230	101300000	1000	0	0	-1	0
7134443	8522	0	0	-100	0	230	101300000	1000	0	0	-1	0
7147004	8522	3	0	-100	0	230	101300000	1000	0	0	-1	0
7159563	8526	0	0	-100	0	230	101300000	1000	0	0	-1	0
7172123	8527	4	0	-100	0	230	101300000	1000	0	0	-1	0
7184683	8531	0	0	-100	0	230	101300000	1000	0	0	-1	0
7197243	8529	0	0	-100	0	230	101300000	1000	0	0	-1	0
7209803	8531	0	0	-100	0	230	101300000	1000	0	0	-1	0
7222363	8526	3	0	-100	0	230	101300000	1000	0	0	-1	0
7234923	8524	0	0	-100	0	230	101300000	1000	0	0	-1	0
7247483	8524	0	0	-100	0	230	101300000	1000	0	0	-1	0
7260043	8534	0	0	-100	0	230	101300000	1000	0	0	-1	0
7272603	8527	0	0	-100	0	230	101300000	1000	0	0	-1	0
7285163	8524	0	0	-100	0	230	101300000	1000	0	0	-1	0
7297723	8524	1	0	-100	0	230	101300000	1000	0	0	-1	0
7310283	8529	3	0	-100	0	230	101300000	1000	0	0	-1	0
7322843	8527	0	0	-100	0	230	101300000	1000	0	0	-1	0
7335403	8529	0	0	-100	0	230	101300000	1000	0	0	-1	0
7347963	8527	0	0	-100	0	230	101300000	1000	0	0	-1	0
7693675	8177	483	0	-100	0	230	101300000	1000	0	0	-1	400
7706235	8175	480	0	-100	0	230	101300000	1000	0	0	-1	400
7718795	8161	479	0	-100	0	230	101300000	1000	0	0	-1	400
7731355	8165	478	0	-100	0	230	101300000	1000	0	0	-1	400
7743915	8180	483	0	-100	0	230	101300000	1000	0	0	-1	400
7756475	8175	480	0	-100	0	230	101300000	1000	0	0	-1	400
7769035	8172	480	0	-100	0	230	101300000	1000	0	0	-1	400
7781595	8182	479	0	-100	0	230	101300000	1000	0	0	-1	400
7794155	8164	475	0	-100	0	230	101300000	1000	0	0	-1	400
7806715	8168	482	0	-100	0	230	101300000	1000	0	0	-1	400
7819275	8173	478	0	-100	0	230	101300000	1000	0	0	-1	400
7831835	8180	480	0	-100	0	230	101300000	1000	0	0	-1	400
7869515	8182	484	0	-100	0	230	101300000	1000	0	0	-1	400
7882075	8177	478	0	-100	0	230	101300000	1000	0	0	-1	400
7894635	8165	480	0	-100	0	230	101300000	1000	0	0	-1	400
7907195	8175	481	0	-100	0	230	101300000	1000	0	0	-1	400
7919755	8174	483	0	-100	0	230	101300000	1000	0	0	-1	400
7932315	8170	482	0	-100	0	230	101300000	1000	0	0	-1	400
7944875	8172	483	0	-100	0	230	101300000	1000	0	0	-1	400
7957435	8167	481	0	-100	0	230	101300000	1000	0	0	-1	400
7969995	8160	482	0	-100	0	230	101300000	1000	0	0	-1	400
7982555	8163	480	0	-100	0	230	101300000	1000	0	0	-1	400
7995115	8170	481	0	-100	0	230	101300000	1000	0	0	-1	400
8007675	8163	481	0	-100	0	230	101300000	1000	0	0	-1	400
8020235	8175	481	0	-100	0	230	101300000	1000	0	0	-1	400
8032795	8174	485	0	-100	0	230	101300000	1000	0	0	-1	400
8045355	8168	480	0	-100	0	230	101300000	1000	0	0	-1	400
8057915	8175	483	0	-100	0	230	101300000	1000	0	0	-1	400
8070475	8170	471	0	-100	0	230	101300000	1000	0	0	-1	400
8083035	8168	482	0	-100	0	230	101300000	1000	0	0	-1	400
8095595	8165	480	0	-100	0	230	101300000	1000	0	0	-1	400
8108155	8163	478	0	-100	0	230	101300000	1000	0	0	-1	400
8120715	8172	488	0	-100	0	230	101300000	1000	0	0	-1	400
8133275	8165	483	0	-100	0	230	101300000	1000	0	0	-1	400
8145835	8172	482	0	-100	0	230	101300000	1000	0	0	-1	400
8158395	8168	480	0	-100	0	230	101300000	1000	0	0	-1	400
8170955	8156	481	0	-100	0	230	101300000	1000	0	0	-1	400
8183515	8156	485	0	-100	0	230	101300000	1000	0	0	-1	400
8196075	8168	481	0	-100	0	230	101300000	1000	0	0	-1	400
8208635	8172	483	0	-100	0	230	101300000	1000	0	0	-1	400
8221195	8184	484	0	-100	0	230	101300000	1000	0	0	-1	400
8233755	8175	475	0	-100	0	230	101300000	1000	0	0	-1	400
8246315	8182	484	0	-100	0	230	101300000	1000	0	0	-1	400
8258875	8172	482	0	-100	0	230	101300000	1000	0	0	-1	400
8271435	8172	485	0	-100	0	230	101300000	1000	0	0	-1	400
8283995	8165	483	0	-100	0	230	101300000	1000	0	0	-1	400
8296555	8177	484	0	-100	0	230	101300000	1000	0	0	-1	400
8309115	8170	483	0	-100	0	230	101300000	1000	0	0	-1	400
8321675	8156	483	0	-100	0	230	101300000	1000	0	0	-1	400
8334235	8170	485	0	-100	0	230	101300000	1000	0	0	-1	400
8346795	8165	484	0	-100	0	230	101300000	1000	0	0	-1	400
8359355	8165	483	0	-100	0	230	101300000	1000	0	0	-1	400
8371915	8153	480	0	-100	0	230	101300000	1000	0	0	-1	400
8384475	8172	479	0	-100	0	230	101300000	1000	0	0	-1	400
8397035	8168	483	0	-100	0	230	101300000	1000	0	0	-1	400
8409595	8178	482	0	-100	0	230	101300000	1000	0	0	-1	400
8422155	8166	479	0	-100	0	230	101300000	1000	0	0	-1	400
8434715	8170	466	0	-100	0	230	101300000	1000	0	0	-1	400
8447275	8179	484	0	-100	0	230	101300000	1000	0	0	-1	400
8459835	8175	480	0	-100	0	230	101300000	1000	0	0	-1	400
8472395	8177	485	0	-100	0	230	101300000	1000	0	0	-1	400
8484955	8160	484	0	-100	0	230	101300000	1000	0	0	-1	400
8497515	8170	483	0	-100	0	230	101300000	1000	0	0	-1	400
8510075	8172	484	0	-100	0	230	101300000	1000	0	0	-1	400
8522635	8172	481	0	-100	0	230	101300000	1000	0	0	-1	400
8535195	8168	478	0	-100	0	230	101300000	1000	0	0	-1	400
8547755	8170	480	0	-100	0	230	101300000	1000	0	0	-1	400
8560315	8180	481	0	-100	0	230	101300000	1000	0	0	-1	400
8572875	8174	484	0	-100	0	230	101300000	1000	0	0	-1	400
8585435	8167	484	0	-100	0	230	101300000	1000	0	0	-1	400
8597995	8177	480	0	-100	0	230	101300000	1000	0	0	-1	400
8610555	8177	481	0	-100	0	230	101300000	1000	0	0	-1	400
8623115	8178	480	0	-100	0	230	101300000	1000	0	0	-1	400
8635675	8178	482	0	-100	0	230	101300000	1000	0	0	-1	400
8648235	8177	487	0	-100	0	230	101300000	1000	0	0	-1	400
8660795	8172	482	0	-100	0	230	101300000	1000	0	0	-1	400
8673355	8163	483	0	-100	0	230	101300000	1000	0	0	-1	400
8685915	8163	485	0	-100	0	230	101300000	1000	0	0	-1	400
8698475	8175	483	0	-100	0	230	101300000	1000	0	0	-1	400
8711035	8170	481	0	-100	0	230	101300000	1000	0	0	-1	400
8723595	8173	483	0	-100	0	230	101300000	1000	0	0	-1	400
8736155	8166	474	0	-100	0	230	101300000	1000	0	0	-1	400
8748715	8179	484	0	-100	0	230	101300000	1000	0	0	-1	400
8761275	8184	482	0	-100	0	230	101300000	1000	0	0	-1	400
8773835	8177	480	0	-100	0	230	101300000	1000	0	0	-1	400
8786395	8177	483	0	-100	0	230	101300000	1000	0	0	-1	400
8798955	8167	485	0	-100	0	230	101300000	1000	0	0	-1	400
8811515	8170	484	0	-100	0	230	101300000	1000	0	0	-1	400
8824075	8177	481	0	-100	0	230	101300000	1000	0	0	-1	400
8836635	8180	484	0	-100	0	230	101300000	1000	0	0	-1	400
8849195	8177	482	0	-100	0	230	101300000	1000	0	0	-1	400
8861755	8177	482	0	-100	0	230	101300000	1000	0	0	-1	400
8874315	8173	480	0	-100	0	230	101300000	1000	0	0	-1	400
8886875	8173	484	0	-100	0	230	101300000	1000	0	0	-1	400
8899435	8174	482	0	-100	0	230	101300000	1000	0	0	-1	400
8911995	8177	483	0	-100	0	230	101300000	1000	0	0	-1	400
8924555	8170	485	0	-100	0	230	101300000	1000	0	0	-1	400
8937115	8177	484	0	-100	0	230	101300000	1000	0	0	-1	400
8949675	8165	484	0	-100	0	230	101300000	1000	0	0	-1	400
8962235	8165	483	0	-100	0	230	101300000	1000	0	0	-1	400
8974795	8179	484	0	-100	0	230	101300000	1000	0	0	-1	400
8987355	8163	483	0	-100	0	230	101300000	1000	0	0	-1	400
8999915	8174	483	0	-100	0	230	101300000	1000	0	0	-1	400
9012475	8165	480	0	-100	0	230	101300000	1000	0	0	-1	400
9025035	8161	484	0	-100	0	230	101300000	1000	0	0	-1	400
9037595	8172	482	0	-100	0	230	101300000	1000	0	0	-1	400
9050155	8177	481	0	-100	0	230	101300000	1000	0	0	-1	400
9062715	8177	481	0	-100	0	230	101300000	1000	0	0	-1	400
9075275	8178	480	0	-100	0	230	101300000	1000	0	0	-1	400
9087835	8170	481	0	-100	0	230	101300000	1000	0	0	-1	400
9100395	8175	483	0	-100	0	230	101300000	1000	0	0	-1	400
9112955	8172	483	0	-100	0	230	101300000	1000	0	0	-1	400
9125515	8175	484	0	-100	0	230	101300000	1000	0	0	-1	400
9138075	8177	486	0	-100	0	230	101300000	1000	0	0	-1	400
9150635	8165	483	0	-100	0	230	101300000	1000	0	0	-1	400
9163195	8175	482	0	-100	0	230	101300000	1000	0	0	-1	400
9175755	8163	484	0	-100	0	230	101300000	1000	0	0	-1	400
9188315	8172	485	0	-100	0	230	101300000	1000	0	0	-1	400
9200875	8175	485	0	-100	0	230	101300000	1000	0	0	-1	400
9213435	8165	484	0	-100	0	230	101300000	1000	0	0	-1	400
9225995	8177	483	0	-100	0	230	101300000	1000	0	0	-1	400
9238555	8182	483	0	-100	0	230	101300000	1000	0	0	-1	400
9251115	8179	483	0	-100	0	230	101300000	1000	0	0	-1	400
9263675	8182	482	0	-100	0	230	101300000	1000	0	0	-1	400
9276235	8180	479	0	-100	0	230	101300000	1000	0	0	-1	400
9288795	8170	477	0	-100	0	230	101300000	1000	0	0	-1	400
9301355	8178	480	0	-100	0	230	101300000	1000	0	0	-1	400
9313915	8175	481	0	-100	0	230	101300000	1000	0	0	-1	400
9326475	8170	485	0	-100	0	230	101300000	1000	0	0	-1	400
9339035	8163	484	0	-100	0	230	101300000	1000	0	0	-1	400
9351595	8170	485	0	-100	0	230	101300000	1000	0	0	-1	400
9364155	8159	484	0	-100	0	230	101300000	1000	0	0	-1	400
9376715	8165	480	0	-100	0	230	101300000	1000	0	0	-1	400
9389275	8165	484	0	-100	0	230	101300000	1000	0	0	-1	400
9401835	8172	487	0	-100	0	230	101300000	1000	0	0	-1	400
9414395	8172	481	0	-100	0	230	101300000	1000	0	0	-1	400
9426955	8175	484	0	-100	0	230	101300000	1000	0	0	-1	400
9439515	8180	483	0	-100	0	230	101300000	1000	0	0	-1	400
9452075	8165	480	0	-100	0	230	101300000	1000	0	0	-1	400
9464635	8170	485	0	-100	0	230	101300000	1000	0	0	-1	400
9477195	8167	484	0	-100	0	230	101300000	1000	0	0	-1	400
9489755	8165	484	0	-100	0	230	101300000	1000	0	0	-1	400
9502315	8160	481	0	-100	0	230	101300000	1000	0	0	-1	400
9514875	8184	485	0	-100	0	230	101300000	1000	0	0	-1	400
9527435	8180	482	0	-100	0	230	101300000	1000	0	0	-1	400
9539995	8180	485	0	-100	0	230	101300000	1000	0	0	-1	400
9552555	8168	478	0	-100	0	230	101300000	1000	0	0	-1	400
9565115	8180	485	0	-100	0	230	101300000	1000	0	0	-1	400
9577675	8163	483	0	-100	0	230	101300000	1000	0	0	-1	400
9590235	8170	486	0	-100	0	230	101300000	1000	0	0	-1	400
9602795	8163	484	0	-100	0	230	101300000	1000	0	0	-1	400
9615355	8168	481	0	-100	0	230	101300000	1000	0	0	-1	400
9627915	8170	480	0	-100	0	230	101300000	1000	0	0	-1	400
9640475	8175	481	0	-100	0	230	101300000	1000	0	0	-1	400
9653035	8168	484	0	-100	0	230	101300000	1000	0	0	-1	400
9665595	8177	483	0	-100	0	230	101300000	1000	0	0	-1	400
9678155	8165	481	0	-100	0	230	101300000	1000	0	0	-1	400
9690715	8158	480	0	-100	0	230	101300000	1000	0	0	-1	400
9703275	8172	478	0	-100	0	230	101300000	1000	0	0	-1	400
9715835	8168	478	0	-100	0	230	101300000	1000	0	0	-1	400
9728395	8178	480	0	-100	0	230	101300000	1000	0	0	-1	400
9740955	8173	480	0	-100	0	230	101300000	1000	0	0	-1	400
9753515	8177	483	0	-100	0	230	101300000	1000	0	0	-1	400
9766075	8180	483	0	-100	0	230	101300000	1000	0	0	-1	400
9778635	8167	486	0	-100	0	230	101300000	1000	0	0	-1	400
9791195	8178	485	0	-100	0	230	101300000	1000	0	0	-1	400
9803755	8170	484	0	-100	0	230	101300000	1000	0	0	-1	400
9816315	8163	479	0	-100	0	230	101300000	1000	0	0	-1	400
9828875	8175	486	0	-100	0	230	101300000	1000	0	0	-1	400
9841435	8182	463	0	-100	0	230	101300000	1000	0	0	-1	400
9853995	8175	486	0	-100	0	230	101300000	1000	0	0	-1	400
9866555	8167	481	0	-100	0	230	101300000	1000	0	0	-1	400
9879115	8177	486	0	-100	0	230	101300000	1000	0	0	-1	400
9891675	8167	484	0	-100	0	230	101300000	1000	0	0	-1	400
9904235	8170	485	0	-100	0	230	101300000	1000	0	0	-1	400
9916795	8175	485	0	-100	0	230	101300000	1000	0	0	-1	400
9929355	8177	484	0	-100	0	230	101300000	1000	0	0	-1	400
9941915	8165	482	0	-100	0	230	101300000	1000	0	0	-1	400
9954475	8172	485	0	-100	0	230	101300000	1000	0	0	-1	400
9967035	8177	485	0	-100	0	230	101300000	1000	0	0	-1	400
9979595	8161	483	0	-100	0	230	101300000	1000	0	0	-1	400
9992155	8159	476	0	-100	0	230	101300000	1000	0	0	-1	400
10004715	8172	485	0	-100	0	230	101300000	1000	0	0	-1	400
10017275	8161	483	0	-100	0	230	101300000	1000	0	0	-1	400
10029835	8165	484	0	-100	0	230	101300000	1000	0	0	-1	400
10042395	8167	486	0	-100	0	230	101300000	1000	0	0	-1	400
10054955	8172	458	0	-100	0	230	101300000	1000	0	0	-1	400
10067515	8180	479	0	-100	0	230	101300000	1000	0	0	-1	400
10080075	8175	482	0	-100	0	230	101300000	1000	0	0	-1	400
10092635	8175	482	0	-100	0	230	101300000	1000	0	0	-1	400
10105195	8170	481	0	-100	0	230	101300000	1000	0	0	-1	400
10117755	8170	484	0	-100	0	230	101300000	1000	0	0	-1	400
10130315	8173	484	0	-100	0	230	101300000	1000	0	0	-1	400
10142875	8170	482	0	-100	0	230	101300000	1000	0	0	-1	400
10155435	8179	483	0	-100	0	230	101300000	1000	0	0	-1	400
10167995	8172	461	0	-100	0	230	101300000	1000	0	0	-1	400
10180555	8177	484	0	-100	0	230	101300000	1000	0	0	-1	400
10193115	8182	482	0	-100	0	230	101300000	1000	0	0	-1	400
10205675	8182	481	0	-100	0	230	101300000	1000	0	0	-1	400
10218235	8168	482	0	-100	0	230	101300000	1000	0	0	-1	400
10230795	8184	483	0	-100	0	230	101300000	1000	0	0	-1	400
10243355	8165	482	0	-100	0	230	101300000	1000	0	0	-1	400
10255915	8170	484	0	-100	0	230	101300000	1000	0	0	-1	400
10268475	8177	483	0	-100	0	230	101300000	1000	0	0	-1	400
10281035	8165	483	0	-100	0	230	101300000	1000	0	0	-1	400
10293595	8161	483	0	-100	0	230	101300000	1000	0	0	-1	400
10306155	8158	483	0	-100	0	230	101300000	1000	0	0	-1	400
10318715	8167	478	0	-100	0	230	101300000	1000	0	0	-1	400
10331275	8171	479	0	-100	0	230	101300000	1000	0	0	-1	400
10343835	8177	481	0	-100	0	230	101300000	1000	0	0	-1	400
10356395	8172	480	0	-100	0	230	101300000	1000	0	0	-1	400
10368955	8160	485	0	-100	0	230	101300000	1000	0	0	-1	400
10381515	8174	485	0	-100	0	230	101300000	1000	0	0	-1	400
10394075	8172	485	0	-100	0	230	101300000	1000	0	0	-1	400
10406635	8165	485	0	-100	0	230	101300000	1000	0	0	-1	400
10419195	8170	482	0	-100	0	230	101300000	1000	0	0	-1	400
10431755	8177	485	0	-100	0	230	101300000	1000	0	0	-1	400
10444315	8182	482	0	-100	0	230	101300000	1000	0	0	-1	400
10456875	8173	487	0	-100	0	230	101300000	1000	0	0	-1	400
10469435	8163	488	0	-100	0	230	101300000	1000	0	0	-1	400
10481995	8170	482	0	-100	0	230	101300000	1000	0	0	-1	400
10494555	8180	483	0	-100	0	230	101300000	1000	0	0	-1	400
10507115	8180	485	0	-100	0	230	101300000	1000	0	0	-1	400
10519675	8170	482	0	-100	0	230	101300000	1000	0	0	-1	400
10532235	8172	483	0	-100	0	230	101300000	1000	0	0	-1	400
10544795	8165	488	0	-100	0	230	101300000	1000	0	0	-1	400
10557355	8168	483	0	-100	0	230	101300000	1000	0	0	-1	400
10569915	8165	489	0	-100	0	230	101300000	1000	0	0	-1	400
10582475	8167	485	0	-100	0	230	101300000	1000	0	0	-1	400
10595035	8172	487	0	-100	0	230	101300000	1000	0	0	-1	400
10607595	8175	485	0	-100	0	230	101300000	1000	0	0	-1	400
10620155	8165	479	0	-100	0	230	101300000	1000	0	0	-1	400
10632715	8172	482	0	-100	0	230	101300000	1000	0	0	-1	400
10645275	8177	478	0	-100	0	230	101300000	1000	0	0	-1	400
10657835	8185	481	0	-100	0	230	101300000	1000	0	0	-1	400
10670395	8177	487	0	-100	0	230	101300000	1000	0	0	-1	400
10682955	8173	478	0	-100	0	230	101300000	1000	0	0	-1	400
10695515	8177	479	0	-100	0	230	101300000	1000	0	0	-1	400
10758315	8174	487	0	-100	0	230	101300000	1000	0	0	-1	400
10770875	8165	487	0	-100	0	230	101300000	1000	0	0	-1	400
10783435	8180	487	0	-100	0	230	101300000	1000	0	0	-1	400
10795995	8175	482	0	-100	0	230	101300000	1000	0	0	-1	400
10808555	8182	482	0	-100	0	230	101300000	1000	0	0	-1	400
10821115	8172	481	0	-100	0	230	101300000	1000	0	0	-1	400
10833675	8163	483	0	-100	0	230	101300000	1000	0	0	-1	400
10846235	8163	483	0	-100	0	230	101300000	1000	0	0	-1	400
10858795	8163	480	0	-100	0	230	101300000	1000	0	0	-1	400
10871355	8174	483	0	-100	0	230	101300000	1000	0	0	-1	400
10883915	8168	484	0	-100	0	230	101300000	1000	0	0	-1	400
10896475	8170	481	0	-100	0	230	101300000	1000	0	0	-1	400
10959275	8172	483	0	-100	0	230	101300000	1000	0	0	-1	400
10971835	8172	486	0	-100	0	230	101300000	1000	0	0	-1	400
10984395	8174	486	0	-100	0	230	101300000	1000	0	0	-1	400
10996955	8165	488	0	-100	0	230	101300000	1000	0	0	-1	400
11009515	8177	484	0	-100	0	230	101300000	1000	0	0	-1	400
11022075	8170	483	0	-100	0	230	101300000	1000	0	0	-1	400
11034635	8170	481	0	-100	0	230	101300000	1000	0	0	-1	400
11047195	8166	480	0	-100	0	230	101300000	1000	0	0	-1	400
11059755	8168	486	0	-100	0	230	101300000	1000	0	0	-1	400
11072315	8163	484	0	-100	0	230	101300000	1000	0	0	-1	400
11084875	8175	478	0	-100	0	230	101300000	1000	0	0	-1	400
11097435	8184	482	0	-100	0	230	101300000	1000	0	0	-1	400
11109995	8173	482	0	-100	0	230	101300000	1000	0	0	-1	400
11122555	8158	483	0	-100	0	230	101300000	1000	0	0	-1	400
11135115	8172	479	0	-100	0	230	101300000	1000	0	0	-1	400
11147675	8165	481	0	-100	0	230	101300000	1000	0	0	-1	400
11160235	8172	485	0	-100	0	230	101300000	1000	0	0	-1	400
11172795	8173	484	0	-100	0	230	101300000	1000	0	0	-1	400
11185355	8180	479	0	-100	0	230	101300000	1000	0	0	-1	400
11197915	8170	483	0	-100	0	230	101300000	1000	0	0	-1	400
11210475	8170	480	0	-100	0	230	101300000	1000	0	0	-1	400
11223035	8180	481	0	-100	0	230	101300000	1000	0	0	-1	400
11235595	8187	482	0	-100	0	230	101300000	1000	0	0	-1	400
11248155	8161	479	0	-100	0	230	101300000	1000	0	0	-1	400
11260715	8165	480	0	-100	0	230	101300000	1000	0	0	-1	400
11273275	8182	480	0	-100	0	230	101300000	1000	0	0	-1	400
11285835	8170	482	0	-100	0	230	101300000	1000	0	0	-1	400
11298395	8167	480	0	-100	0	230	101300000	1000	0	0	-1	400
11310955	8184	483	0	-100	0	230	101300000	1000	0	0	-1	400
11323515	8170	481	0	-100	0	230	101300000	1000	0	0	-1	400
11336075	8168	484	0	-100	0	230	101300000	1000	0	0	-1	400
11348635	8170	486	0	-100	0	230	101300000	1000	0	0	-1	400
11361195	8165	481	0	-100	0	230	101300000	1000	0	0	-1	400
11373755	8165	485	0	-100	0	230	101300000	1000	0	0	-1	400
11386315	8172	484	0	-100	0	230	101300000	1000	0	0	-1	400
11398875	8165	482	0	-100	0	230	101300000	1000	0	0	-1	400
11411435	8177	483	0	-100	0	230	101300000	1000	0	0	-1	400
11423995	8177	482	0	-100	0	230	101300000	1000	0	0	-1	400
11436555	8179	485	0	-100	0	230	101300000	1000	0	0	-1	400
11449115	8180	481	0	-100	0	230	101300000	1000	0	0	-1	400
11461675	8172	482	0	-100	0	230	101300000	1000	0	0	-1	400
11474235	8180	484	0	-100	0	230	101300000	1000	0	0	-1	400
11486795	8172	480	0	-100	0	230	101300000	1000	0	0	-1	400
11499355	8170	465	0	-100	0	230	101300000	1000	0	0	-1	400
11511915	8172	485	0	-100	0	230	101300000	1000	0	0	-1	400
11524475	8172	487	0	-100	0	230	101300000	1000	0	0	-1	400
11537035	8165	486	0	-100	0	230	101300000	1000	0	0	-1	400
11549595	8175	481	0	-100	0	230	101300000	1000	0	0	-1	400
11562155	8158	483	0	-100	0	230	101300000	1000	0	0	-1	400
11574715	8165	483	0	-100	0	230	101300000	1000	0	0	-1	400
11587275	8170	480	0	-100	0	230	101300000	1000	0	0	-1	400
11599835	8156	483	0	-100	0	230	101300000	1000	0	0	-1	400
11612395	8170	483	0	-100	0	230	101300000	1000	0	0	-1	400
11624955	8167	485	0	-100	0	230	101300000	1000	0	0	-1	400
11637515	8166	485	0	-100	0	230	101300000	1000	0	0	-1	400
11650075	8173	485	0	-100	0	230	101300000	1000	0	0	-1	400
11662635	8175	486	0	-100	0	230	101300000	1000	0	0	-1	400
11675195	8174	483	0	-100	0	230	101300000	1000	0	0	-1	400
11687755	8168	481	0	-100	0	230	101300000	1000	0	0	-1	400
11700315	8172	484	0	-100	0	230	101300000	1000	0	0	-1	400
11712875	8175	485	0	-100	0	230	101300000	1000	0	0	-1	400
11725435	8170	486	0	-100	0	230	101300000	1000	0	0	-1	400
11737995	8163	481	0	-100	0	230	101300000	1000	0	0	-1	400
11750555	8170	483	0	-100	0	230	101300000	1000	0	0	-1	400
11763115	8177	481	0	-100	0	230	101300000	1000	0	0	-1	400
11775675	8172	481	0	-100	0	230	101300000	1000	0	0	-1	400
11788235	8163	481	0	-100	0	230	101300000	1000	0	0	-1	400
11800795	8163	483	0	-100	0	230	101300000	1000	0	0	-1	400
11813355	8168	481	0	-100	0	230	101300000	1000	0	0	-1	400
11825915	8170	481	0	-100	0	230	101300000	1000	0	0	-1	400
11838475	8180	470	0	-100	0	230	101300000	1000	0	0	-1	400
11851035	8177	487	0	-100	0	230	101300000	1000	0	0	-1	400
11863595	8172	481	0	-100	0	230	101300000	1000	0	0	-1	400
11876155	8168	482	0	-100	0	230	101300000	1000	0	0	-1	400
11888715	8165	482	0	-100	0	230	101300000	1000	0	0	-1	400
11901275	8163	486	0	-100	0	230	101300000	1000	0	0	-1	400
11913835	8167	485	0	-100	0	230	101300000	1000	0	0	-1	400
11926395	8177	485	0	-100	0	230	101300000	1000	0	0	-1	400
11938955	8170	485	0	-100	0	230	101300000	1000	0	0	-1	400
11951515	8163	486	0	-100	0	230	101300000	1000	0	0	-1	400
11964075	8174	487	0	-100	0	230	101300000	1000	0	0	-1	400
11976635	8170	485	0	-100	0	230	101300000	1000	0	0	-1	400
11989195	8177	485	0	-100	0	230	101300000	1000	0	0	-1	400
12001755	8165	485	0	-100	0	230	101300000	1000	0	0	-1	400
12014315	8163	485	0	-100	0	230	101300000	1000	0	0	-1	400
12026875	8165	484	0	-100	0	230	101300000	1000	0	0	-1	400
12039435	8168	488	0	-100	0	230	101300000	1000	0	0	-1	400
12051995	8170	485	0	-100	0	230	101300000	1000	0	0	-1	400
12064555	8184	486	0	-100	0	230	101300000	1000	0	0	-1	400
12077115	8177	485	0	-100	0	230	101300000	1000	0	0	-1	400
12089675	8170	485	0	-100	0	230	101300000	1000	0	0	-1	400
12102235	8175	487	0	-100	0	230	101300000	1000	0	0	-1	400
12114795	8168	483	0	-100	0	230	101300000	1000	0	0	-1	400
12127355	8168	485	0	-100	0	230	101300000	1000	0	0	-1	400
12139915	8177	480	0	-100	0	230	101300000	1000	0	0	-1	400
12152475	8177	485	0	-100	0	230	101300000	1000	0	0	-1	400
12165035	8178	484	0	-100	0	230	101300000	1000	0	0	-1	400
12177595	8182	480	0	-100	0	230	101300000	1000	0	0	-1	400
12190155	8168	479	0	-100	0	230	101300000	1000	0	0	-1	400
12202715	8173	481	0	-100	0	230	101300000	1000	0	0	-1	400
12215275	8175	485	0	-100	0	230	101300000	1000	0	0	-1	400
12227835	8172	483	0	-100	0	230	101300000	1000	0	0	-1	400
12240395	8170	484	0	-100	0	230	101300000	1000	0	0	-1	400
12252955	8168	480	0	-100	0	230	101300000	1000	0	0	-1	400
12265515	8177	460	0	-100	0	230	101300000	1000	0	0	-1	400
12278075	8172	482	0	-100	0	230	101300000	1000	0	0	-1	400
12290635	8179	484	0	-100	0	230	101300000	1000	0	0	-1	400
12303195	8177	482	0	-100	0	230	101300000	1000	0	0	-1	400
12315755	8167	484	0	-100	0	230	101300000	1000	0	0	-1	400
12328315	8165	482	0	-100	0	230	101300000	1000	0	0	-1	400
12340875	8178	482	0	-100	0	230	101300000	1000	0	0	-1	400
12353435	8177	482	0	-100	0	230	101300000	1000	0	0	-1	400
12365995	8180	484	0	-100	0	230	101300000	1000	0	0	-1	400
12378555	8174	484	0	-100	0	230	101300000	1000	0	0	-1	400
12391115	8170	479	0	-100	0	230	101300000	1000	0	0	-1	400
12403675	8173	484	0	-100	0	230	101300000	1000	0	0	-1	400
12416235	8172	481	0	-100	0	230	101300000	1000	0	0	-1	400
12428795	8171	479	0	-100	0	230	101300000	1000	0	0	-1	400
12441355	8172	484	0	-100	0	230	101300000	1000	0	0	-1	400
12453915	8170	482	0	-100	0	230	101300000	1000	0	0	-1	400
12466475	8168	482	0	-100	0	230	101300000	1000	0	0	-1	400
12479035	8167	484	0	-100	0	230	101300000	1000	0	0	-1	400
12491595	8170	485	0	-100	0	230	101300000	1000	0	0	-1	400
12504155	8163	485	0	-100	0	230	101300000	1000	0	0	-1	400
12516715	8175	485	0	-100	0	230	101300000	1000	0	0	-1	400
12529275	8175	483	0	-100	0	230	101300000	1000	0	0	-1	400
12541835	8172	481	0	-100	0	230	101300000	1000	0	0	-1	400
12554395	8184	486	0	-100	0	230	101300000	1000	0	0	-1	400
12566955	8179	482	0	-100	0	230	101300000	1000	0	0	-1	400
12579515	8168	484	0	-100	0	230	101300000	1000	0	0	-1	400
12592075	8170	485	0	-100	0	230	101300000	1000	0	0	-1	400
12604635	8168	485	0	-100	0	230	101300000	1000	0	0	-1	400
12617195	8163	486	0	-100	0	230	101300000	1000	0	0	-1	400
12629755	8182	489	0	-100	0	230	101300000	1000	0	0	-1	400
12642315	8168	486	0	-100	0	230	101300000	1000	0	0	-1	400
12654875	8163	485	0	-100	0	230	101300000	1000	0	0	-1	400
12667435	8182	483	0	-100	0	230	101300000	1000	0	0	-1	400
12679995	8172	480	0	-100	0	230	101300000	1000	0	0	-1	400
12692555	8173	487	0	-100	0	230	101300000	1000	0	0	-1	400
12705115	8166	484	0	-100	0	230	101300000	1000	0	0	-1	400
12717675	8175	484	0	-100	0	230	101300000	1000	0	0	-1	400
12730235	8170	485	0	-100	0	230	101300000	1000	0	0	-1	400
12742795	8168	488	0	-100	0	230	101300000	1000	0	0	-1	400
12755355	8172	479	0	-100	0	230	101300000	1000	0	0	-1	400
12767915	8170	482	0	-100	0	230	101300000	1000	0	0	-1	400
12780475	8172	485	0	-100	0	230	101300000	1000	0	0	-1	400
12793035	8167	486	0	-100	0	230	101300000	1000	0	0	-1	400
12805595	8165	489	0	-100	0	230	101300000	1000	0	0	-1	400
12818155	8168	483	0	-100	0	230	101300000	1000	0	0	-1	400
12830715	8179	486	0	-100	0	230	101300000	1000	0	0	-1	400
12843275	8172	484	0	-100	0	230	101300000	1000	0	0	-1	400
12855835	8170	480	0	-100	0	230	101300000	1000	0	0	-1	400
12868395	8180	481	0	-100	0	230	101300000	1000	0	0	-1	400
12880955	8170	483	0	-100	0	230	101300000	1000	0	0	-1	400
12893515	8168	483	0	-100	0	230	101300000	1000	0	0	-1	400
12906075	8172	481	0	-100	0	230	101300000	1000	0	0	-1	400
12918635	8165	482	0	-100	0	230	101300000	1000	0	0	-1	400
12931195	8172	488	0	-100	0	230	101300000	1000	0	0	-1	400
12943755	8172	487	0	-100	0	230	101300000	1000	0	0	-1	400
12956315	8177	486	0	-100	0	230	101300000	1000	0	0	-1	400
12968875	8170	481	0	-100	0	230	101300000	1000	0	0	-1	400
12981435	8179	486	0	-100	0	230	101300000	1000	0	0	-1	400
12993995	8177	485	0	-100	0	230	101300000	1000	0	0	-1	400
13006555	8172	484	0	-100	0	230	101300000	1000	0	0	-1	400
13019115	8170	484	0	-100	0	230	101300000	1000	0	0	-1	400
13031675	8167	482	0	-100	0	230	101300000	1000	0	0	-1	400
13044235	8172	482	0	-100	0	230	101300000	1000	0	0	-1	400
13056795	8168	485	0	-100	0	230	101300000	1000	0	0	-1	400
13069355	8172	483	0	-100	0	230	101300000	1000	0	0	-1	400
13081915	8175	483	0	-100	0	230	101300000	1000	0	0	-1	400
13094475	8175	480	0	-100	0	230	101300000	1000	0	0	-1	400
13107035	8177	483	0	-100	0	230	101300000	1000	0	0	-1	400
13119595	8174	484	0	-100	0	230	101300000	1000	0	0	-1	400
13132155	8158	481	0	-100	0	230	101300000	1000	0	0	-1	400
13144715	8165	479	0	-100	0	230	101300000	1000	0	0	-1	400
13157275	8173	485	0	-100	0	230	101300000	1000	0	0	-1	400
13169835	8175	478	0	-100	0	230	101300000	1000	0	0	-1	400
13182395	8174	485	0	-100	0	230	101300000	1000	0	0	-1	400
13194955	8167	484	0	-100	0	230	101300000	1000	0	0	-1	400
13207515	8167	484	0	-100	0	230	101300000	1000	0	0	-1	400
13220075	8165	456	0	-100	0	230	101300000	1000	0	0	-1	400
13232635	8175	482	0	-100	0	230	101300000	1000	0	0	-1	400
13245195	8175	480	0	-100	0	230	101300000	1000	0	0	-1	400
13257755	8184	485	0	-100	0	230	101300000	1000	0	0	-1	400
13270315	8172	483	0	-100	0	230	101300000	1000	0	0	-1	400
13282875	8172	483	0	-100	0	230	101300000	1000	0	0	-1	400
13295435	8172	478	0	-100	0	230	101300000	1000	0	0	-1	400
13307995	8168	481	0	-100	0	230	101300000	1000	0	0	-1	400
13320555	8184	485	0	-100	0	230	101300000	1000	0	0	-1	400
13333115	8170	486	0	-100	0	230	101300000	1000	0	0	-1	400
13345675	8180	484	0	-100	0	230	101300000	1000	0	0	-1	400
13358235	8165	482	0	-100	0	230	101300000	1000	0	0	-1	400
13370795	8170	480	0	-100	0	230	101300000	1000	0	0	-1	400
13383355	8175	482	0	-100	0	230	101300000	1000	0	0	-1	400
13395915	8168	482	0	-100	0	230	101300000	1000	0	0	-1	400
13408475	8175	484	0	-100	0	230	101300000	1000	0	0	-1	400
13421035	8175	485	0	-100	0	230	101300000	1000	0	0	-1	400
13433595	8187	479	0	-100	0	230	101300000	1000	0	0	-1	400
13446155	8171	479	0	-100	0	230	101300000	1000	0	0	-1	400
13458715	8174	482	0	-100	0	230	101300000	1000	0	0	-1	400
13471275	8165	485	0	-100	0	230	101300000	1000	0	0	-1	400
13483835	8172	483	0	-100	0	230	101300000	1000	0	0	-1	400
13496395	8163	487	0	-100	0	230	101300000	1000	0	0	-1	400
13508955	8177	481	0	-100	0	230	101300000	1000	0	0	-1	400
13521515	8175	483	0	-100	0	230	101300000	1000	0	0	-1	400
13534075	8182	484	0	-100	0	230	101300000	1000	0	0	-1	400
13546635	8174	482	0	-100	0	230	101300000	1000	0	0	-1	400
13559195	8167	482	0	-100	0	230	101300000	1000	0	0	-1	400
13571755	8166	480	0	-100	0	230	101300000	1000	0	0	-1	400
13584315	8160	483	0	-100	0	230	101300000	1000	0	0	-1	400
13596875	8172	481	0	-100	0	230	101300000	1000	0	0	-1	400
13609435	8167	482	0	-100	0	230	101300000	1000	0	0	-1	400
13621995	8177	485	0	-100	0	230	101300000	1000	0	0	-1	400
13672235	8180	480	0	-100	0	230	101300000	1000	0	0	-1	400
13684795	8185	481	0	-100	0	230	101300000	1000	0	0	-1	400
13697355	8182	484	0	-100	0	230	101300000	1000	0	0	-1	400
13709915	8179	480	0	-100	0	230	101300000	1000	0	0	-1	400
13722475	8163	483	0	-100	0	230	101300000	1000	0	0	-1	400
13735035	8167	488	0	-100	0	230	101300000	1000	0	0	-1	400
13747595	8165	482	0	-100	0	230	101300000	1000	0	0	-1	400
13760155	8161	478	0	-100	0	230	101300000	1000	0	0	-1	400
13772715	8179	486	0	-100	0	230	101300000	1000	0	0	-1	400
13785275	8177	485	0	-100	0	230	101300000	1000	0	0	-1	400
13797835	8175	481	0	-100	0	230	101300000	1000	0	0	-1	400
13873195	8167	485	0	-100	0	230	101300000	1000	0	0	-1	400
13885755	8168	482	0	-100	0	230	101300000	1000	0	0	-1	400
13898315	8177	481	0	-100	0	230	101300000	1000	0	0	-1	400
13910875	8178	480	0	-100	0	230	101300000	1000	0	0	-1	400
13923435	8167	482	0	-100	0	230	101300000	1000	0	0	-1	400
13935995	8177	480	0	-100	0	230	101300000	1000	0	0	-1	400
13948555	8172	487	0	-100	0	230	101300000	1000	0	0	-1	400
13961115	8166	481	0	-100	0	230	101300000	1000	0	0	-1	400
13973675	8165	482	0	-100	0	230	101300000	1000	0	0	-1	400
13986235	8175	481	0	-100	0	230	101300000	1000	0	0	-1	400
13998795	8185	481	0	-100	0	230	101300000	1000	0	0	-1	400
14036475	8170	487	0	-100	0	230	101300000	1000	0	0	-1	400
14049035	8172	486	0	-100	0	230	101300000	1000	0	0	-1	400
14061595	8172	484	0	-100	0	230	101300000	1000	0	0	-1	400
14074155	8168	480	0	-100	0	230	101300000	1000	0	0	-1	400
14086715	8165	481	0	-100	0	230	101300000	1000	0	0	-1	400
14099275	8163	484	0	-100	0	230	101300000	1000	0	0	-1	400
14111835	8177	481	0	-100	0	230	101300000	1000	0	0	-1	400
14124395	8182	480	0	-100	0	230	101300000	1000	0	0	-1	400
14136955	8177	483	0	-100	0	230	101300000	1000	0	0	-1	400
14149515	8182	485	0	-100	0	230	101300000	1000	0	0	-1	400
14162075	8168	484	0	-100	0	230	101300000	1000	0	0	-1	400
14174635	8172	484	0	-100	0	230	101300000	1000	0	0	-1	400
14187195	8167	482	0	-100	0	230	101300000	1000	0	0	-1	400
14199755	8170	487	0	-100	0	230	101300000	1000	0	0	-1	400
14212315	8167	485	0	-100	0	230	101300000	1000	0	0	-1	400
14224875	8165	483	0	-100	0	230	101300000	1000	0	0	-1	400
14237435	8170	481	0	-100	0	230	101300000	1000	0	0	-1	400
14249995	8170	481	0	-100	0	230	101300000	1000	0	0	-1	400
14262555	8163	486	0	-100	0	230	101300000	1000	0	0	-1	400
14275115	8173	483	0	-100	0	230	101300000	1000	0	0	-1	400
14287675	8165	481	0	-100	0	230	101300000	1000	0	0	-1	400
14300235	8168	480	0	-100	0	230	101300000	1000	0	0	-1	400
14312795	8170	484	0	-100	0	230	101300000	1000	0	0	-1	400
14325355	8170	485	0	-100	0	230	101300000	1000	0	0	-1	400
14337915	8172	487	0	-100	0	230	101300000	1000	0	0	-1	400
14350475	8170	484	0	-100	0	230	101300000	1000	0	0	-1	400
14363035	8174	472	0	-100	0	230	101300000	1000	0	0	-1	400
14375595	8179	486	0	-100	0	230	101300000	1000	0	0	-1	400
14388155	8161	485	0	-100	0	230	101300000	1000	0	0	-1	400
14400715	8177	486	0	-100	0	230	101300000	1000	0	0	-1	400
14413275	8175	485	0	-100	0	230	101300000	1000	0	0	-1	400
14425835	8161	477	0	-100	0	230	101300000	1000	0	0	-1	400
14438395	8179	486	0	-100	0	230	101300000	1000	0	0	-1	400
14450955	8165	483	0	-100	0	230	101300000	1000	0	0	-1	400
14463515	8177	480	0	-100	0	230	101300000	1000	0	0	-1	400
14476075	8170	482	0	-100	0	230	101300000	1000	0	0	-1	400
14488635	8163	482	0	-100	0	230	101300000	1000	0	0	-1	400
14501195	8177	479	0	-100	0	230	101300000	1000	0	0	-1	400
14513755	8172	483	0	-100	0	230	101300000	1000	0	0	-1	400
14526315	8172	482	0	-100	0	230	101300000	1000	0	0	-1	400
14538875	8167	484	0	-100	0	230	101300000	1000	0	0	-1	400
14551435	8168	484	0	-100	0	230	101300000	1000	0	0	-1	400
14563995	8177	485	0	-100	0	230	101300000	1000	0	0	-1	400
14576555	8171	485	0	-100	0	230	101300000	1000	0	0	-1	400
14589115	8168	488	0	-100	0	230	101300000	1000	0	0	-1	400
14601675	8170	489	0	-100	0	230	101300000	1000	0	0	-1	400
14614235	8177	484	0	-100	0	230	101300000	1000	0	0	-1	400
14626795	8180	484	0	-100	0	230	101300000	1000	0	0	-1	400
14639355	8185	484	0	-100	0	230	101300000	1000	0	0	-1	400
14651915	8180	479	0	-100	0	230	101300000	1000	0	0	-1	400
14664475	8170	477	0	-100	0	230	101300000	1000	0	0	-1	400
14677035	8168	482	0	-100	0	230	101300000	1000	0	0	-1	400
14689595	8175	482	0	-100	0	230	101300000	1000	0	0	-1	400
14702155	8168	479	0	-100	0	230	101300000	1000	0	0	-1	400
14714715	8170	480	0	-100	0	230	101300000	1000	0	0	-1	400
14727275	8180	481	0	-100	0	230	101300000	1000	0	0	-1	400
14739835	8172	484	0	-100	0	230	101300000	1000	0	0	-1	400
14752395	8168	484	0	-100	0	230	101300000	1000	0	0	-1	400
14764955	8172	487	0	-100	0	230	101300000	1000	0	0	-1	400
14777515	8168	481	0	-100	0	230	101300000	1000	0	0	-1	400
14790075	8161	485	0	-100	0	230	101300000	1000	0	0	-1	400
14802635	8170	486	0	-100	0	230	101300000	1000	0	0	-1	400
14815195	8172	481	0	-100	0	230	101300000	1000	0	0	-1	400
14827755	8173	480	0	-100	0	230	101300000	1000	0	0	-1	400
14840315	8177	480	0	-100	0	230	101300000	1000	0	0	-1	400
14852875	8175	484	0	-100	0	230	101300000	1000	0	0	-1	400
14865435	8168	487	0	-100	0	230	101300000	1000	0	0	-1	400
14877995	8182	481	0	-100	0	230	101300000	1000	0	0	-1	400
14890555	8178	480	0	-100	0	230	101300000	1000	0	0	-1	400
14903115	8173	486	0	-100	0	230	101300000	1000	0	0	-1	400
14915675	8167	481	0	-100	0	230	101300000	1000	0	0	-1	400
14928235	8158	484	0	-100	0	230	101300000	1000	0	0	-1	400
14940795	8177	484	0	-100	0	230	101300000	1000	0	0	-1	400
14953355	8170	486	0	-100	0	230	101300000	1000	0	0	-1	400
14965915	8175	486	0	-100	0	230	101300000	1000	0	0	-1	400
14978475	8182	484	0	-100	0	230	101300000	1000	0	0	-1	400
14991035	8175	483	0	-100	0	230	101300000	1000	0	0	-1	400
15003595	8177	479	0	-100	0	230	101300000	1000	0	0	-1	400
15016155	8173	480	0	-100	0	230	101300000	1000	0	0	-1	400
15028715	8170	485	0	-100	0	230	101300000	1000	0	0	-1	400
15041275	8161	479	0	-100	0	230	101300000	1000	0	0	-1	400
15053835	8175	485	0	-100	0	230	101300000	1000	0	0	-1	400
15066395	8172	485	0	-100	0	230	101300000	1000	0	0	-1	400
15078955	8170	484	0	-100	0	230	101300000	1000	0	0	-1	400
15091515	8175	481	0	-100	0	230	101300000	1000	0	0	-1	400
15104075	8175	481	0	-100	0	230	101300000	1000	0	0	-1	400
15116635	8180	484	0	-100	0	230	101300000	1000	0	0	-1	400
15129195	8156	482	0	-100	0	230	101300000	1000	0	0	-1	400
15141755	8158	484	0	-100	0	230	101300000	1000	0	0	-1	400
15154315	8168	484	0	-100	0	230	101300000	1000	0	0	-1	400
15166875	8177	483	0	-100	0	230	101300000	1000	0	0	-1	400
15179435	8175	483	0	-100	0	230	101300000	1000	0	0	-1	400
15191995	8178	484	0	-100	0	230	101300000	1000	0	0	-1	400
15204555	8175	481	0	-100	0	230	101300000	1000	0	0	-1	400
15217115	8179	486	0	-100	0	230	101300000	1000	0	0	-1	400
15229675	8168	485	0	-100	0	230	101300000	1000	0	0	-1	400
15242235	8182	483	0	-100	0	230	101300000	1000	0	0	-1	400
15254795	8172	482	0	-100	0	230	101300000	1000	0	0	-1	400
15267355	8177	479	0	-100	0	230	101300000	1000	0	0	-1	400
15279915	8168	480	0	-100	0	230	101300000	1000	0	0	-1	400
15292475	8172	485	0	-100	0	230	101300000	1000	0	0	-1	400
15305035	8170	485	0	-100	0	230	101300000	1000	0	0	-1	400
15317595	8167	483	0	-100	0	230	101300000	1000	0	0	-1	400
15330155	8168	480	0	-100	0	230	101300000	1000	0	0	-1	400
15342715	8179	465	0	-100	0	230	101300000	1000	0	0	-1	400
15355275	8175	485	0	-100	0	230	101300000	1000	0	0	-1	400
15367835	8179	487	0	-100	0	230	101300000	1000	0	0	-1	400
15380395	8172	488	0	-100	0	230	101300000	1000	0	0	-1	400
15392955	8170	481	0	-100	0	230	101300000	1000	0	0	-1	400
15405515	8177	484	0	-100	0	230	101300000	1000	0	0	-1	400
15418075	8182	479	0	-100	0	230	101300000	1000	0	0	-1	400
15430635	8168	480	0	-100	0	230	101300000	1000	0	0	-1	400
15443195	8180	480	0	-100	0	230	101300000	1000	0	0	-1	400
15455755	8171	485	0	-100	0	230	101300000	1000	0	0	-1	400
15468315	8175	480	0	-100	0	230	101300000	1000	0	0	-1	400
15480875	8180	482	0	-100	0	230	101300000	1000	0	0	-1	400
15493435	8180	482	0	-100	0	230	101300000	1000	0	0	-1	400
15505995	8182	487	0	-100	0	230	101300000	1000	0	0	-1	400
15518555	8177	484	0	-100	0	230	101300000	1000	0	0	-1	400
15531115	8175	483	0	-100	0	230	101300000	1000	0	0	-1	400
15543675	8174	483	0	-100	0	230	101300000	1000	0	0	-1	400
15556235	8175	478	0	-100	0	230	101300000	1000	0	0	-1	400
15568795	8187	486	0	-100	0	230	101300000	1000	0	0	-1	400
15581355	8175	483	0	-100	0	230	101300000	1000	0	0	-1	400
15593915	8163	484	0	-100	0	230	101300000	1000	0	0	-1	400
15606475	8170	486	0	-100	0	230	101300000	1000	0	0	-1	400
15619035	8172	480	0	-100	0	230	101300000	1000	0	0	-1	400
15631595	8177	480	0	-100	0	230	101300000	1000	0	0	-1	400
15644155	8164	477	0	-100	0	230	101300000	1000	0	0	-1	400
15656715	8175	481	0	-100	0	230	101300000	1000	0	0	-1	400
15669275	8175	483	0	-100	0	230	101300000	1000	0	0	-1	400
15681835	8175	481	0	-100	0	230	101300000	1000	0	0	-1	400
15694395	8170	481	0	-100	0	230	101300000	1000	0	0	-1	400
15706955	8174	486	0	-100	0	230	101300000	1000	0	0	-1	400
15719515	8167	479	0	-100	0	230	101300000	1000	0	0	-1	400
15732075	8177	482	0	-100	0	230	101300000	1000	0	0	-1	400
15744635	8174	483	0	-100	0	230	101300000	1000	0	0	-1	400
15757195	8174	486	0	-100	0	230	101300000	1000	0	0	-1	400
15769755	8168	480	0	-100	0	230	101300000	1000	0	0	-1	400
15782315	8177	483	0	-100	0	230	101300000	1000	0	0	-1	400
15794875	8172	480	0	-100	0	230	101300000	1000	0	0	-1	400
15807435	8177	481	0	-100	0	230	101300000	1000	0	0	-1	400
15819995	8170	482	0	-100	0	230	101300000	1000	0	0	-1	400
15832555	8175	481	0	-100	0	230	101300000	1000	0	0	-1	400
15845115	8168	484	0	-100	0	230	101300000	1000	0	0	-1	400
15857675	8184	484	0	-100	0	230	101300000	1000	0	0	-1	400
15870235	8177	482	0	-100	0	230	101300000	1000	0	0	-1	400
15882795	8173	483	0	-100	0	230	101300000	1000	0	0	-1	400
15895355	8180	479	0	-100	0	230	101300000	1000	0	0	-1	400
15907915	8167	478	0	-100	0	230	101300000	1000	0	0	-1	400
15920475	8170	477	0	-100	0	230	101300000	1000	0	0	-1	400
15933035	8172	484	0	-100	0	230	101300000	1000	0	0	-1	400
15945595	8163	483	0	-100	0	230	101300000	1000	0	0	-1	400
15958155	8163	479	0	-100	0	230	101300000	1000	0	0	-1	400
15970715	8172	485	0	-100	0	230	101300000	1000	0	0	-1	400
15983275	8182	486	0	-100	0	230	101300000	1000	0	0	-1	400
15995835	8172	484	0	-100	0	230	101300000	1000	0	0	-1	400
16008395	8172	482	0	-100	0	230	101300000	1000	0	0	-1	400
16020955	8175	478	0	-100	0	230	101300000	1000	0	0	-1	400
16033515	8175	484	0	-100	0	230	101300000	1000	0	0	-1	400
16046075	8160	481	0	-100	0	230	101300000	1000	0	0	-1	400
16058635	8167	482	0	-100	0	230	101300000	1000	0	0	-1	400
16071195	8165	483	0	-100	0	230	101300000	1000	0	0	-1	400
16083755	8170	485	0	-100	0	230	101300000	1000	0	0	-1	400
16096315	8172	485	0	-100	0	230	101300000	1000	0	0	-1	400
16108875	8172	486	0	-100	0	230	101300000	1000	0	0	-1	400
16121435	8165	484	0	-100	0	230	101300000	1000	0	0	-1	400
16133995	8177	486	0	-100	0	230	101300000	1000	0	0	-1	400
16146555	8175	481	0	-100	0	230	101300000	1000	0	0	-1	400
16159115	8179	483	0	-100	0	230	101300000	1000	0	0	-1	400
16171675	8178	483	0	-100	0	230	101300000	1000	0	0	-1	400
16184235	8173	480	0	-100	0	230	101300000	1000	0	0	-1	400
16196795	8161	483	0	-100	0	230	101300000	1000	0	0	-1	400
16209355	8170	484	0	-100	0	230	101300000	1000	0	0	-1	400
16221915	8168	484	0	-100	0	230	101300000	1000	0	0	-1	400
16234475	8163	485	0	-100	0	230	101300000	1000	0	0	-1	400
16247035	8175	484	0	-100	0	230	101300000	1000	0	0	-1	400
16259595	8177	485	0	-100	0	230	101300000	1000	0	0	-1	400
16272155	8156	482	0	-100	0	230	101300000	1000	0	0	-1	400
16284715	8182	483	0	-100	0	230	101300000	1000	0	0	-1	400
16297275	8187	487	0	-100	0	230	101300000	1000	0	0	-1	400
16309835	8177	478	0	-100	0	230	101300000	1000	0	0	-1	400
16322395	8180	479	0	-100	0	230	101300000	1000	0	0	-1	400
16334955	8175	480	0	-100	0	230	101300000	1000	0	0	-1	400
16347515	8177	478	0	-100	0	230	101300000	1000	0	0	-1	400
16360075	8173	478	0	-100	0	230	101300000	1000	0	0	-1	400
16372635	8175	479	0	-100	0	230	101300000	1000	0	0	-1	400
16385195	8177	482	0	-100	0	230	101300000	1000	0	0	-1	400
16397755	8177	484	0	-100	0	230	101300000	1000	0	0	-1	400
16410315	8175	482	0	-100	0	230	101300000	1000	0	0	-1	400
16422875	8170	481	0	-100	0	230	101300000	1000	0	0	-1	400
16435435	8170	482	0	-100	0	230	101300000	1000	0	0	-1	400
16447995	8175	478	0	-100	0	230	101300000	1000	0	0	-1	400
16460555	8170	485	0	-100	0	230	101300000	1000	0	0	-1	400
16473115	8163	480	0	-100	0	230	101300000	1000	0	0	-1	400
16485675	8165	483	0	-100	0	230	101300000	1000	0	0	-1	400
16498235	8172	483	0	-100	0	230	101300000	1000	0	0	-1	400
16510795	8177	484	0	-100	0	230	101300000	1000	0	0	-1	400
16523355	8174	480	0	-100	0	230	101300000	1000	0	0	-1	400
16535915	8174	482	0	-100	0	230	101300000	1000	0	0	-1	400
16548475	8177	482	0	-100	0	230	101300000	1000	0	0	-1	400
16561035	8170	482	0	-100	0	230	101300000	1000	0	0	-1	400
16573595	8177	483	0	-100	0	230	101300000	1000	0	0	-1	400
16586155	8156	479	0	-100	0	230	101300000	1000	0	0	-1	400
16598715	8170	485	0	-100	0	230	101300000	1000	0	0	-1	400
16611275	8172	482	0	-100	0	230	101300000	1000	0	0	-1	400
16623835	8165	480	0	-100	0	230	101300000	1000	0	0	-1	400
16636395	8165	482	0	-100	0	230	101300000	1000	0	0	-1	400
16648955	8172	481	0	-100	0	230	101300000	1000	0	0	-1	400
16661515	8170	481	0	-100	0	230	101300000	1000	0	0	-1	400
16674075	8167	483	0	-100	0	230	101300000	1000	0	0	-1	400
16686635	8163	482	0	-100	0	230	101300000	1000	0	0	-1	400
16699195	8179	486	0	-100	0	230	101300000	1000	0	0	-1	400
16711755	8179	484	0	-100	0	230	101300000	1000	0	0	-1	400
16774555	8180	482	0	-100	0	230	101300000	1000	0	0	-1	400
16787115	8173	481	0	-100	0	230	101300000	1000	0	0	-1	400
16799675	8170	485	0	-100	0	230	101300000	1000	0	0	-1	400
16812235	8170	482	0	-100	0	230	101300000	1000	0	0	-1	400
16824795	8167	485	0	-100	0	230	101300000	1000	0	0	-1	400
16837355	8178	482	0	-100	0	230	101300000	1000	0	0	-1	400
16849915	8180	485	0	-100	0	230	101300000	1000	0	0	-1	400
16862475	8175	488	0	-100	0	230	101300000	1000	0	0	-1	400
16875035	8177	481	0	-100	0	230	101300000	1000	0	0	-1	400
16887595	8175	483	0	-100	0	230	101300000	1000	0	0	-1	400
16900155	8161	478	0	-100	0	230	101300000	1000	0	0	-1	400
16912715	8172	485	0	-100	0	230	101300000	1000	0	0	-1	400
16962955	8173	484	0	-100	0	230	101300000	1000	0	0	-1	400
16975515	8182	481	0	-100	0	230	101300000	1000	0	0	-1	400
16988075	8180	476	0	-100	0	230	101300000	1000	0	0	-1	400
17000635	8180	477	0	-100	0	230	101300000	1000	0	0	-1	400
17013195	8177	459	0	-100	0	230	101300000	1000	0	0	-1	400
17025755	8178	479	0	-100	0	230	101300000	1000	0	0	-1	400
17038315	8170	481	0	-100	0	230	101300000	1000	0	0	-1	400
17050875	8171	480	0	-100	0	230	101300000	1000	0	0	-1	400
17063435	8179	483	0	-100	0	230	101300000	1000	0	0	-1	400
17075995	8177	483	0	-100	0	230	101300000	1000	0	0	-1	400
17088555	8165	485	0	-100	0	230	101300000	1000	0	0	-1	400
17101115	8165	484	0	-100	0	230	101300000	1000	0	0	-1	400
17113675	8172	477	0	-100	0	230	101300000	1000	0	0	-1	400
17126235	8182	483	0	-100	0	230	101300000	1000	0	0	-1	400
17138795	8170	482	0	-100	0	230	101300000	1000	0	0	-1	400
17151355	8182	486	0	-100	0	230	101300000	1000	0	0	-1	400
17163915	8168	481	0	-100	0	230	101300000	1000	0	0	-1	400
17176475	8175	482	0	-100	0	230	101300000	1000	0	0	-1	400
17189035	8182	483	0	-100	0	230	101300000	1000	0	0	-1	400
17201595	8172	481	0	-100	0	230	101300000	1000	0	0	-1	400
17214155	8172	482	0	-100	0	230	101300000	1000	0	0	-1	400
17226715	8167	484	0	-100	0	230	101300000	1000	0	0	-1	400
17239275	8172	484	0	-100	0	230	101300000	1000	0	0	-1	400
17251835	8172	481	0	-100	0	230	101300000	1000	0	0	-1	400
17264395	8172	482	0	-100	0	230	101300000	1000	0	0	-1	400
17276955	8170	480	0	-100	0	230	101300000	1000	0	0	-1	400
17289515	8175	483	0	-100	0	230	101300000	1000	0	0	-1	400
17302075	8165	480	0	-100	0	230	101300000	1000	0	0	-1	400
17314635	8173	482	0	-100	0	230	101300000	1000	0	0	-1	400
17327195	8182	480	0	-100	0	230	101300000	1000	0	0	-1	400
17339755	8184	483	0	-100	0	230	101300000	1000	0	0	-1	400
17352315	8180	485	0	-100	0	230	101300000	1000	0	0	-1	400
17364875	8167	485	0	-100	0	230	101300000	1000	0	0	-1	400
17377435	8174	485	0	-100	0	230	101300000	1000	0	0	-1	400
17389995	8175	481	0	-100	0	230	101300000	1000	0	0	-1	400
17402555	8166	481	0	-100	0	230	101300000	1000	0	0	-1	400
17415115	8165	467	0	-100	0	230	101300000	1000	0	0	-1	400
17427675	8177	483	0	-100	0	230	101300000	1000	0	0	-1	400
17440235	8165	483	0	-100	0	230	101300000	1000	0	0	-1	400
17452795	8175	483	0	-100	0	230	101300000	1000	0	0	-1	400
17465355	8177	484	0	-100	0	230	101300000	1000	0	0	-1	400
17477915	8182	483	0	-100	0	230	101300000	1000	0	0	-1	400
17490475	8173	480	0	-100	0	230	101300000	1000	0	0	-1	400
17503035	8180	471	0	-100	0	230	101300000	1000	0	0	-1	400
17515595	8184	482	0	-100	0	230	101300000	1000	0	0	-1	400
17528155	8166	479	0	-100	0	230	101300000	1000	0	0	-1	400
17540715	8182	482	0	-100	0	230	101300000	1000	0	0	-1	400
17553275	8177	479	0	-100	0	230	101300000	1000	0	0	-1	400
17565835	8184	484	0	-100	0	230	101300000	1000	0	0	-1	400
17578395	8177	481	0	-100	0	230	101300000	1000	0	0	-1	400
17590955	8170	478	0	-100	0	230	101300000	1000	0	0	-1	400
17603515	8180	482	0	-100	0	230	101300000	1000	0	0	-1	400
17616075	8175	483	0	-100	0	230	101300000	1000	0	0	-1	400
17628635	8171	482	0	-100	0	230	101300000	1000	0	0	-1	400
17641195	8178	484	0	-100	0	230	101300000	1000	0	0	-1	400
17653755	8174	482	0	-100	0	230	101300000	1000	0	0	-1	400
17666315	8177	482	0	-100	0	230	101300000	1000	0	0	-1	400
17678875	8168	483	0	-100	0	230	101300000	1000	0	0	-1	400
17691435	8177	481	0	-100	0	230	101300000	1000	0	0	-1	400
17703995	8172	484	0	-100	0	230	101300000	1000	0	0	-1	400
17716555	8165	488	0	-100	0	230	101300000	1000	0	0	-1	400
17729115	8170	488	0	-100	0	230	101300000	1000	0	0	-1	400
17741675	8170	488	0	-100	0	230	101300000	1000	0	0	-1	400
17754235	8165	481	0	-100	0	230	101300000	1000	0	0	-1	400
17766795	8173	479	0	-100	0	230	101300000	1000	0	0	-1	400
17779355	8170	478	0	-100	0	230	101300000	1000	0	0	-1	400
17791915	8180	480	0	-100	0	230	101300000	1000	0	0	-1	400
17804475	8175	481	0	-100	0	230	101300000	1000	0	0	-1	400
17817035	8172	481	0	-100	0	230	101300000	1000	0	0	-1	400
17829595	8180	484	0	-100	0	230	101300000	1000	0	0	-1	400
17842155	8163	481	0	-100	0	230	101300000	1000	0	0	-1	400
17854715	8165	484	0	-100	0	230	101300000	1000	0	0	-1	400
17867275	8168	485	0	-100	0	230	101300000	1000	0	0	-1	400
17879835	8175	486	0	-100	0	230	101300000	1000	0	0	-1	400
17892395	8174	482	0	-100	0	230	101300000	1000	0	0	-1	400
17904955	8168	484	0	-100	0	230	101300000	1000	0	0	-1	400
17917515	8167	480	0	-100	0	230	101300000	1000	0	0	-1	400
17930075	8172	481	0	-100	0	230	101300000	1000	0	0	-1	400
17942635	8180	482	0	-100	0	230	101300000	1000	0	0	-1	400
17955195	8182	481	0	-100	0	230	101300000	1000	0	0	-1	400
17967755	8179	487	0	-100	0	230	101300000	1000	0	0	-1	400
17980315	8180	481	0	-100	0	230	101300000	1000	0	0	-1	400
17992875	8170	485	0	-100	0	230	101300000	1000	0	0	-1	400
18005435	8175	480	0	-100	0	230	101300000	1000	0	0	-1	400
18017995	8182	486	0	-100	0	230	101300000	1000	0	0	-1	400
18030555	8167	482	0	-100	0	230	101300000	1000	0	0	-1	400
18043115	8162	483	0	-100	0	230	101300000	1000	0	0	-1	400
18055675	8170	475	0	-100	0	230	101300000	1000	0	0	-1	400
18068235	8167	484	0	-100	0	230	101300000	1000	0	0	-1	400
18080795	8172	483	0	-100	0	230	101300000	1000	0	0	-1	400
18093355	8175	481	0	-100	0	230	101300000	1000	0	0	-1	400
18105915	8178	477	0	-100	0	230	101300000	1000	0	0	-1	400
18118475	8167	482	0	-100	0	230	101300000	1000	0	0	-1	400
18131035	8182	485	0	-100	0	230	101300000	1000	0	0	-1	400
18143595	8163	487	0	-100	0	230	101300000	1000	0	0	-1	400
18156155	8163	478	0	-100	0	230	101300000	1000	0	0	-1	400
18168715	8175	482	0	-100	0	230	101300000	1000	0	0	-1	400
18181275	8180	484	0	-100	0	230	101300000	1000	0	0	-1	400
18193835	8172	485	0	-100	0	230	101300000	1000	0	0	-1	400
18206395	8168	487	0	-100	0	230	101300000	1000	0	0	-1	400
18218955	8170	485	0	-100	0	230	101300000	1000	0	0	-1	400
18231515	8163	485	0	-100	0	230	101300000	1000	0	0	-1	400
18244075	8175	489	0	-100	0	230	101300000	1000	0	0	-1	400
18256635	8170	486	0	-100	0	230	101300000	1000	0	0	-1	400
18269195	8177	485	0	-100	0	230	101300000	1000	0	0	-1	400
18281755	8170	487	0	-100	0	230	101300000	1000	0	0	-1	400
18294315	8177	483	0	-100	0	230	101300000	1000	0	0	-1	400
18306875	8184	483	0	-100	0	230	101300000	1000	0	0	-1	400
18319435	8175	481	0	-100	0	230	101300000	1000	0	0	-1	400
18331995	8165	470	0	-100	0	230	101300000	1000	0	0	-1	400
18344555	8161	485	0	-100	0	230	101300000	1000	0	0	-1	400
18357115	8167	486	0	-100	0	230	101300000	1000	0	0	-1	400
18369675	8165	484	0	-100	0	230	101300000	1000	0	0	-1	400
18382235	8175	483	0	-100	0	230	101300000	1000	0	0	-1	400
18394795	8172	483	0	-100	0	230	101300000	1000	0	0	-1	400
18407355	8161	484	0	-100	0	230	101300000	1000	0	0	-1	400
18419915	8165	485	0	-100	0	230	101300000	1000	0	0	-1	400
18432475	8182	483	0	-100	0	230	101300000	1000	0	0	-1	400
18445035	8182	483	0	-100	0	230	101300000	1000	0	0	-1	400
18457595	8174	482	0	-100	0	230	101300000	1000	0	0	-1	400
18470155	8163	480	0	-100	0	230	101300000	1000	0	0	-1	400
18482715	8177	488	0	-100	0	230	101300000	1000	0	0	-1	400
18495275	8175	489	0	-100	0	230	101300000	1000	0	0	-1	400
18507835	8177	485	0	-100	0	230	101300000	1000	0	0	-1	400
18520395	8179	483	0	-100	0	230	101300000	1000	0	0	-1	400
18532955	8180	489	0	-100	0	230	101300000	1000	0	0	-1	400
18545515	8182	482	0	-100	0	230	101300000	1000	0	0	-1	400
18558075	8180	482	0	-100	0	230	101300000	1000	0	0	-1	400
18570635	8172	481	0	-100	0	230	101300000	1000	0	0	-1	400
18583195	8175	479	0	-100	0	230	101300000	1000	0	0	-1	400
18595755	8173	484	0	-100	0	230	101300000	1000	0	0	-1	400
18608315	8175	488	0	-100	0	230	101300000	1000	0	0	-1	400
18620875	8172	487	0	-100	0	230	101300000	1000	0	0	-1	400
18633435	8179	485	0	-100	0	230	101300000	1000	0	0	-1	400
18645995	8185	485	0	-100	0	230	101300000	1000	0	0	-1	400
18658555	8173	483	0	-100	0	230	101300000	1000	0	0	-1	400
18671115	8170	484	0	-100	0	230	101300000	1000	0	0	-1	400
18683675	8170	484	0	-100	0	230	101300000	1000	0	0	-1	400
18696235	8172	485	0	-100	0	230	101300000	1000	0	0	-1	400
18708795	8170	483	0	-100	0	230	101300000	1000	0	0	-1	400
18721355	8170	481	0	-100	0	230	101300000	1000	0	0	-1	400
18733915	8170	482	0	-100	0	230	101300000	1000	0	0	-1	400
18746475	8170	485	0	-100	0	230	101300000	1000	0	0	-1	400
18759035	8172	476	0	-100	0	230	101300000	1000	0	0	-1	400
18771595	8184	485	0	-100	0	230	101300000	1000	0	0	-1	400
18784155	8166	476	0	-100	0	230	101300000	1000	0	0	-1	400
18796715	8168	482	0	-100	0	230	101300000	1000	0	0	-1	400
18809275	8172	485	0	-100	0	230	101300000	1000	0	0	-1	400
18821835	8165	481	0	-100	0	230	101300000	1000	0	0	-1	400
18834395	8177	482	0	-100	0	230	101300000	1000	0	0	-1	400
18846955	8172	480	0	-100	0	230	101300000	1000	0	0	-1	400
18859515	8175	464	0	-100	0	230	101300000	1000	0	0	-1	400
18872075	8175	483	0	-100	0	230	101300000	1000	0	0	-1	400
18884635	8185	480	0	-100	0	230	101300000	1000	0	0	-1	400
18897195	8177	480	0	-100	0	230	101300000	1000	0	0	-1	400
18909755	8187	483	0	-100	0	230	101300000	1000	0	0	-1	400
18922315	8180	483	0	-100	0	230	101300000	1000	0	0	-1	400
18934875	8177	481	0	-100	0	230	101300000	1000	0	0	-1	400
18947435	8178	484	0	-100	0	230	101300000	1000	0	0	-1	400
18959995	8168	482	0	-100	0	230	101300000	1000	0	0	-1	400
18972555	8177	486	0	-100	0	230	101300000	1000	0	0	-1	400
18985115	8177	482	0	-100	0	230	101300000	1000	0	0	-1	400
18997675	8179	483	0	-100	0	230	101300000	1000	0	0	-1	400
19010235	8174	490	0	-100	0	230	101300000	1000	0	0	-1	400
19022795	8163	484	0	-100	0	230	101300000	1000	0	0	-1	400
19035355	8182	482	0	-100	0	230	101300000	1000	0	0	-1	400
19047915	8177	485	0	-100	0	230	101300000	1000	0	0	-1	400
19060475	8182	483	0	-100	0	230	101300000	1000	0	0	-1	400
19073035	8173	484	0	-100	0	230	101300000	1000	0	0	-1	400
19085595	8182	485	0	-100	0	230	101300000	1000	0	0	-1	400
19098155	8171	478	0	-100	0	230	101300000	1000	0	0	-1	400
19110715	8175	479	0	-100	0	230	101300000	1000	0	0	-1	400
19123275	8180	484	0	-100	0	230	101300000	1000	0	0	-1	400
19135835	8170	485	0	-100	0	230	101300000	1000	0	0	-1	400
19148395	8175	488	0	-100	0	230	101300000	1000	0	0	-1	400
19160955	8158	482	0	-100	0	230	101300000	1000	0	0	-1	400
19173515	8165	486	0	-100	0	230	101300000	1000	0	0	-1	400
19186075	8167	487	0	-100	0	230	101300000	1000	0	0	-1	400
19198635	8172	480	0	-100	0	230	101300000	1000	0	0	-1	400
19211195	8166	481	0	-100	0	230	101300000	1000	0	0	-1	400
19223755	8170	485	0	-100	0	230	101300000	1000	0	0	-1	400
19236315	8177	486	0	-100	0	230	101300000	1000	0	0	-1	400
19248875	8179	484	0	-100	0	230	101300000	1000	0	0	-1	400
19261435	8180	483	0	-100	0	230	101300000	1000	0	0	-1	400
19273995	8170	480	0	-100	0	230	101300000	1000	0	0	-1	400
19286555	8167	485	0	-100	0	230	101300000	1000	0	0	-1	400
19299115	8168	488	0	-100	0	230	101300000	1000	0	0	-1	400
19311675	8182	485	0	-100	0	230	101300000	1000	0	0	-1	400
19324235	8180	479	0	-100	0	230	101300000	1000	0	0	-1	400
19336795	8175	481	0	-100	0	230	101300000	1000	0	0	-1	400
19349355	8180	480	0	-100	0	230	101300000	1000	0	0	-1	400
19361915	8175	489	0	-100	0	230	101300000	1000	0	0	-1	400
19374475	8172	485	0	-100	0	230	101300000	1000	0	0	-1	400
19387035	8167	487	0	-100	0	230	101300000	1000	0	0	-1	400
19399595	8175	481	0	-100	0	230	101300000	1000	0	0	-1	400
19412155	8166	477	0	-100	0	230	101300000	1000	0	0	-1	400
19424715	8180	481	0	-100	0	230	101300000	1000	0	0	-1	400
19437275	8180	484	0	-100	0	230	101300000	1000	0	0	-1	400
19449835	8175	481	0	-100	0	230	101300000	1000	0	0	-1	400
19462395	8184	482	0	-100	0	230	101300000	1000	0	0	-1	400
19474955	8172	486	0	-100	0	230	101300000	1000	0	0	-1	400
19487515	8182	483	0	-100	0	230	101300000	1000	0	0	-1	400
19500075	8185	483	0	-100	0	230	101300000	1000	0	0	-1	400
19512635	8180	484	0	-100	0	230	101300000	1000	0	0	-1	400
19525195	8172	486	0	-100	0	230	101300000	1000	0	0	-1	400
19537755	8170	482	0	-100	0	230	101300000	1000	0	0	-1	400
19550315	8180	485	0	-100	0	230	101300000	1000	0	0	-1	400
19562875	8172	483	0	-100	0	230	101300000	1000	0	0	-1	400
19575435	8175	482	0	-100	0	230	101300000	1000	0	0	-1	400
19587995	8177	481	0	-100	0	230	101300000	1000	0	0	-1	400
19600555	8177	482	0	-100	0	230	101300000	1000	0	0	-1	400
19613115	8175	484	0	-100	0	230	101300000	1000	0	0	-1	400
19625675	8182	489	0	-100	0	230	101300000	1000	0	0	-1	400
19638235	8191	487	0	-100	0	230	101300000	1000	0	0	-1	400
19663355	8180	484	0	-100	0	230	101300000	1000	0	0	-1	400
19675915	8172	485	0	-100	0	230	101300000	1000	0	0	-1	400
19688475	8177	485	0	-100	0	230	101300000	1000	0	0	-1	400
19701035	8172	484	0	-100	0	230	101300000	1000	0	0	-1	400
19713595	8170	486	0	-100	0	230	101300000	1000	0	0	-1	400
19726155	8158	483	0	-100	0	230	101300000	1000	0	0	-1	400
19738715	8182	486	0	-100	0	230	101300000	1000	0	0	-1	400
19751275	8168	489	0	-100	0	230	101300000	1000	0	0	-1	400
19763835	8175	484	0	-100	0	230	101300000	1000	0	0	-1	400
19776395	8172	485	0	-100	0	230	101300000	1000	0	0	-1	400
19788955	8175	484	0	-100	0	230	101300000	1000	0	0	-1	400
19801515	8184	483	0	-100	0	230	101300000	1000	0	0	-1	400
19876875	8182	487	0	-100	0	230	101300000	1000	0	0	-1	400
19889435	8182	485	0	-100	0	230	101300000	1000	0	0	-1	400
19901995	8180	481	0	-100	0	230	101300000	1000	0	0	-1	400
19914555	8167	480	0	-100	0	230	101300000	1000	0	0	-1	400
19927115	8170	489	0	-100	0	230	101300000	1000	0	0	-1	400
19939675	8168	487	0	-100	0	230	101300000	1000	0	0	-1	400
19952235	8179	488	0	-100	0	230	101300000	1000	0	0	-1	400
19964795	8170	481	0	-100	0	230	101300000	1000	0	0	-1	400
19977355	8165	486	0	-100	0	230	101300000	1000	0	0	-1	400
19989915	8180	485	0	-100	0	230	101300000	1000	0	0	-1	400
20002475	8170	488	0	-100	0	230	101300000	1000	0	0	-1	400
20040155	8168	480	0	-100	0	230	101300000	1000	0	0	-1	400
20052715	8170	481	0	-100	0	230	101300000	1000	0	0	-1	400
20065275	8182	486	0	-100	0	230	101300000	1000	0	0	-1	400
20077835	8172	484	0	-100	0	230	101300000	1000	0	0	-1	400
20090395	8170	482	0	-100	0	230	101300000	1000	0	0	-1	400
20102955	8179	485	0	-100	0	230	101300000	1000	0	0	-1	400
20115515	8172	484	0	-100	0	230	101300000	1000	0	0	-1	400
20128075	8180	486	0	-100	0	230	101300000	1000	0	0	-1	400
20140635	8165	484	0	-100	0	230	101300000	1000	0	0	-1	400
20153195	8177	478	0	-100	0	230	101300000	1000	0	0	-1	400
20165755	8182	482	0	-100	0	230	101300000	1000	0	0	-1	400
20178315	8179	485	0	-100	0	230	101300000	1000	0	0	-1	400
20190875	8177	482	0	-100	0	230	101300000	1000	0	0	-1	400
20203435	8172	484	0	-100	0	230	101300000	1000	0	0	-1	400
20215995	8168	481	0	-100	0	230	101300000	1000	0	0	-1	400
20228555	8167	482	0	-100	0	230	101300000	1000	0	0	-1	400
20241115	8170	482	0	-100	0	230	101300000	1000	0	0	-1	400
20253675	8163	487	0	-100	0	230	101300000	1000	0	0	-1	400
20266235	8167	482	0	-100	0	230	101300000	1000	0	0	-1	400
20278795	8175	482	0	-100	0	230	101300000	1000	0	0	-1	400
20291355	8165	484	0	-100	0	230	101300000	1000	0	0	-1	400
20303915	8170	484	0	-100	0	230	101300000	1000	0	0	-1	400
20316475	8174	482	0	-100	0	230	101300000	1000	0	0	-1	400
20329035	8180	481	0	-100	0	230	101300000	1000	0	0	-1	400
20341595	8170	481	0	-100	0	230	101300000	1000	0	0	-1	400
20354155	8173	476	0	-100	0	230	101300000	1000	0	0	-1	400
20366715	8168	480	0	-100	0	230	101300000	1000	0	0	-1	400
20379275	8173	480	0	-100	0	230	101300000	1000	0	0	-1	400
20391835	8180	488	0	-100	0	230	101300000	1000	0	0	-1	400
20404395	8172	480	0	-100	0	230	101300000	1000	0	0	-1	400
20416955	8177	486	0	-100	0	230	101300000	1000	0	0	-1	400
20429515	8170	481	0	-100	0	230	101300000	1000	0	0	-1	400
20442075	8178	481	0	-100	0	230	101300000	1000	0	0	-1	400
20454635	8167	484	0	-100	0	230	101300000	1000	0	0	-1	400
20467195	8175	482	0	-100	0	230	101300000	1000	0	0	-1	400
20479755	8178	463	0	-100	0	230	101300000	1000	0	0	-1	400
20492315	8175	479	0	-100	0	230	101300000	1000	0	0	-1	400
20504875	8177	481	0	-100	0	230	101300000	1000	0	0	-1	400
20517435	8172	486	0	-100	0	230	101300000	1000	0	0	-1	400
20529995	8179	482	0	-100	0	230	101300000	1000	0	0	-1	400
20542555	8165	478	0	-100	0	230	101300000	1000	0	0	-1	400
20555115	8170	481	0	-100	0	230	101300000	1000	0	0	-1	400
20567675	8170	486	0	-100	0	230	101300000	1000	0	0	-1	400
20580235	8175	480	0	-100	0	230	101300000	1000	0	0	-1	400
20592795	8180	485	0	-100	0	230	101300000	1000	0	0	-1	400
20605355	8165	487	0	-100	0	230	101300000	1000	0	0	-1	400
20617915	8182	490	0	-100	0	230	101300000	1000	0	0	-1	400
20630475	8175	485	0	-100	0	230	101300000	1000	0	0	-1	400
20643035	8163	478	0	-100	0	230	101300000	1000	0	0	-1	400
20655595	8180	480	0	-100	0	230	101300000	1000	0	0	-1	400
20668155	8178	481	0	-100	0	230	101300000	1000	0	0	-1	400
20680715	8182	480	0	-100	0	230	101300000	1000	0	0	-1	400
20693275	8175	484	0	-100	0	230	101300000	1000	0	0	-1	400
20705835	8165	484	0	-100	0	230	101300000	1000	0	0	-1	400
20718395	8170	485	0	-100	0	230	101300000	1000	0	0	-1	400
20730955	8182	486	0	-100	0	230	101300000	1000	0	0	-1	400
20743515	8168	483	0	-100	0	230	101300000	1000	0	0	-1	400
20756075	8182	482	0	-100	0	230	101300000	1000	0	0	-1	400
20768635	8173	485	0	-100	0	230	101300000	1000	0	0	-1	400
20781195	8177	483	0	-100	0	230	101300000	1000	0	0	-1	400
20793755	8180	485	0	-100	0	230	101300000	1000	0	0	-1	400
20806315	8172	483	0	-100	0	230	101300000	1000	0	0	-1	400
20818875	8177	481	0	-100	0	230	101300000	1000	0	0	-1	400
20831435	8179	483	0	-100	0	230	101300000	1000	0	0	-1	400
20843995	8182	479	0	-100	0	230	101300000	1000	0	0	-1	400
20856555	8175	478	0	-100	0	230	101300000	1000	0	0	-1	400
20869115	8175	482	0	-100	0	230	101300000	1000	0	0	-1	400
20881675	8177	481	0	-100	0	230	101300000	1000	0	0	-1	400
20894235	8180	483	0	-100	0	230	101300000	1000	0	0	-1	400
20906795	8170	485	0	-100	0	230	101300000	1000	0	0	-1	400
20919355	8170	485	0	-100	0	230	101300000	1000	0	0	-1	400
20931915	8168	483	0	-100	0	230	101300000	1000	0	0	-1	400
20944475	8170	488	0	-100	0	230	101300000	1000	0	0	-1	400
20957035	8172	481	0	-100	0	230	101300000	1000	0	0	-1	400
20969595	8170	483	0	-100	0	230	101300000	1000	0	0	-1	400
20982155	8154	476	0	-100	0	230	101300000	1000	0	0	-1	400
20994715	8170	484	0	-100	0	230	101300000	1000	0	0	-1	400
21007275	8175	479	0	-100	0	230	101300000	1000	0	0	-1	400
21019835	8177	479	0	-100	0	230	101300000	1000	0	0	-1	400
21032395	8194	484	0	-100	0	230	101300000	1000	0	0	-1	400
21044955	8177	487	0	-100	0	230	101300000	1000	0	0	-1	400
21057515	8172	482	0	-100	0	230	101300000	1000	0	0	-1	400
21070075	8182	483	0	-100	0	230	101300000	1000	0	0	-1	400
21082635	8175	482	0	-100	0	230	101300000	1000	0	0	-1	400
21095195	8172	485	0	-100	0	230	101300000	1000	0	0	-1	400
21107755	8167	483	0	-100	0	230	101300000	1000	0	0	-1	400
21120315	8178	483	0	-100	0	230	101300000	1000	0	0	-1	400
21132875	8177	490	0	-100	0	230	101300000	1000	0	0	-1	400
21145435	8182	484	0	-100	0	230	101300000	1000	0	0	-1	400
21157995	8177	483	0	-100	0	230	101300000	1000	0	0	-1	400
21170555	8173	477	0	-100	0	230	101300000	1000	0	0	-1	400
21183115	8180	483	0	-100	0	230	101300000	1000	0	0	-1	400
21195675	8177	488	0	-100	0	230	101300000	1000	0	0	-1	400
21208235	8179	487	0	-100	0	230	101300000	1000	0	0	-1	400
21220795	8177	484	0	-100	0	230	101300000	1000	0	0	-1	400
21233355	8177	490	0	-100	0	230	101300000	1000	0	0	-1	400
21245915	8180	473	0	-100	0	230	101300000	1000	0	0	-1	400
21258475	8180	478	0	-100	0	230	101300000	1000	0	0	-1	400
21271035	8170	481	0	-100	0	230	101300000	1000	0	0	-1	400
21283595	8168	489	0	-100	0	230	101300000	1000	0	0	-1	400
21296155	8173	483	0	-100	0	230	101300000	1000	0	0	-1	400
21308715	8168	485	0	-100	0	230	101300000	1000	0	0	-1	400
21321275	8175	485	0	-100	0	230	101300000	1000	0	0	-1	400
21333835	8168	484	0	-100	0	230	101300000	1000	0	0	-1	400
21346395	8172	483	0	-100	0	230	101300000	1000	0	0	-1	400
21358955	8165	480	0	-100	0	230	101300000	1000	0	0	-1	400
21371515	8173	483	0	-100	0	230	101300000	1000	0	0	-1	400
21384075	8175	481	0	-100	0	230	101300000	1000	0	0	-1	400
21396635	8177	487	0	-100	0	230	101300000	1000	0	0	-1	400
21409195	8170	484	0	-100	0	230	101300000	1000	0	0	-1	400
21421755	8167	481	0	-100	0	230	101300000	1000	0	0	-1	400
21434315	8170	484	0	-100	0	230	101300000	1000	0	0	-1	400
21446875	8182	482	0	-100	0	230	101300000	1000	0	0	-1	400
21459435	8177	481	0	-100	0	230	101300000	1000	0	0	-1	400
21471995	8182	485	0	-100	0	230	101300000	1000	0	0	-1	400
21484555	8182	482	0	-100	0	230	101300000	1000	0	0	-1	400
21497115	8180	485	0	-100	0	230	101300000	1000	0	0	-1	400
21509675	8177	484	0	-100	0	230	101300000	1000	0	0	-1	400
21522235	8189	483	0	-100	0	230	101300000	1000	0	0	-1	400
21534795	8180	484	0	-100	0	230	101300000	1000	0	0	-1	400
21547355	8180	480	0	-100	0	230	101300000	1000	0	0	-1	400
21559915	8168	484	0	-100	0	230	101300000	1000	0	0	-1	400
21572475	8170	482	0	-100	0	230	101300000	1000	0	0	-1	400
21585035	8166	481	0	-100	0	230	101300000	1000	0	0	-1	400
21597595	8168	483	0	-100	0	230	101300000	1000	0	0	-1	400
21610155	8166	478	0	-100	0	230	101300000	1000	0	0	-1	400
21622715	8173	484	0	-100	0	230	101300000	1000	0	0	-1	400
21635275	8172	482	0	-100	0	230	101300000	1000	0	0	-1	400
21647835	8182	472	0	-100	0	230	101300000	1000	0	0	-1	400
21660395	8180	480	0	-100	0	230	101300000	1000	0	0	-1	400
21672955	8170	484	0	-100	0	230	101300000	1000	0	0	-1	400
21685515	8175	462	0	-100	0	230	101300000	1000	0	0	-1	400
21698075	8180	481	0	-100	0	230	101300000	1000	0	0	-1	400
21710635	8170	481	0	-100	0	230	101300000	1000	0	0	-1	400
21723195	8173	484	0	-100	0	230	101300000	1000	0	0	-1	400
21735755	8180	483	0	-100	0	230	101300000	1000	0	0	-1	400
21748315	8175	484	0	-100	0	230	101300000	1000	0	0	-1	400
21760875	8172	482	0	-100	0	230	101300000	1000	0	0	-1	400
21773435	8175	485	0	-100	0	230	101300000	1000	0	0	-1	400
21785995	8185	485	0	-100	0	230	101300000	1000	0	0	-1	400
21798555	8175	478	0	-100	0	230	101300000	1000	0	0	-1	400
21811115	8180	480	0	-100	0	230	101300000	1000	0	0	-1	400
21823675	8168	481	0	-100	0	230	101300000	1000	0	0	-1	400
21836235	8182	483	0	-100	0	230	101300000	1000	0	0	-1	400
21848795	8177	485	0	-100	0	230	101300000	1000	0	0	-1	400
21861355	8175	482	0	-100	0	230	101300000	1000	0	0	-1	400
21873915	8175	481	0	-100	0	230	101300000	1000	0	0	-1	400
21886475	8184	487	0	-100	0	230	101300000	1000	0	0	-1	400
21899035	8177	487	0	-100	0	230	101300000	1000	0	0	-1	400
21911595	8192	483	0	-100	0	230	101300000	1000	0	0	-1	400
21924155	8178	483	0	-100	0	230	101300000	1000	0	0	-1	400
21936715	8187	486	0	-100	0	230	101300000	1000	0	0	-1	400
21949275	8187	482	0	-100	0	230	101300000	1000	0	0	-1	400
21961835	8179	484	0	-100	0	230	101300000	1000	0	0	-1	400
21974395	8179	481	0	-100	0	230	101300000	1000	0	0	-1	400
21986955	8179	483	0	-100	0	230	101300000	1000	0	0	-1	400
21999515	8183	481	0	-100	0	230	101300000	1000	0	0	-1	400
22012075	8177	484	0	-100	0	230	101300000	1000	0	0	-1	400
22024635	8178	481	0	-100	0	230	101300000	1000	0	0	-1	400
22037195	8175	482	0	-100	0	230	101300000	1000	0	0	-1	400
22049755	8167	485	0	-100	0	230	101300000	1000	0	0	-1	400
22062315	8165	483	0	-100	0	230	101300000	1000	0	0	-1	400
22074875	8179	485	0	-100	0	230	101300000	1000	0	0	-1	400
22087435	8175	483	0	-100	0	230	101300000	1000	0	0	-1	400
22099995	8189	486	0	-100	0	230	101300000	1000	0	0	-1	400
22112555	8182	485	0	-100	0	230	101300000	1000	0	0	-1	400
22125115	8177	485	0	-100	0	230	101300000	1000	0	0	-1	400
22137675	8177	486	0	-100	0	230	101300000	1000	0	0	-1	400
22150235	8179	483	0	-100	0	230	101300000	1000	0	0	-1	400
22162795	8179	482	0	-100	0	230	101300000	1000	0	0	-1	400
22175355	8187	482	0	-100	0	230	101300000	1000	0	0	-1	400
22187915	8172	483	0	-100	0	230	101300000	1000	0	0	-1	400
22200475	8172	483	0	-100	0	230	101300000	1000	0	0	-1	400
22213035	8170	482	0	-100	0	230	101300000	1000	0	0	-1	400
22225595	8172	483	0	-100	0	230	101300000	1000	0	0	-1	400
22238155	8173	478	0	-100	0	230	101300000	1000	0	0	-1	400
22250715	8177	481	0	-100	0	230	101300000	1000	0	0	-1	400
22263275	8168	482	0	-100	0	230	101300000	1000	0	0	-1	400
22275835	8167	487	0	-100	0	230	101300000	1000	0	0	-1	400
22288395	8172	483	0	-100	0	230	101300000	1000	0	0	-1	400
22300955	8177	464	0	-100	0	230	101300000	1000	0	0	-1	400
22313515	8175	487	0	-100	0	230	101300000	1000	0	0	-1	400
22326075	8163	484	0	-100	0	230	101300000	1000	0	0	-1	400
22338635	8170	481	0	-100	0	230	101300000	1000	0	0	-1	400
22351195	8179	485	0	-100	0	230	101300000	1000	0	0	-1	400
22363755	8160	482	0	-100	0	230	101300000	1000	0	0	-1	400
22376315	8170	485	0	-100	0	230	101300000	1000	0	0	-1	400
22388875	8182	485	0	-100	0	230	101300000	1000	0	0	-1	400
22401435	8178	483	0	-100	0	230	101300000	1000	0	0	-1	400
22413995	8170	482	0	-100	0	230	101300000	1000	0	0	-1	400
22426555	8179	486	0	-100	0	230	101300000	1000	0	0	-1	400
22439115	8183	477	0	-100	0	230	101300000	1000	0	0	-1	400
22451675	8172	481	0	-100	0	230	101300000	1000	0	0	-1	400
22464235	8175	487	0	-100	0	230	101300000	1000	0	0	-1	400
22476795	8170	488	0	-100	0	230	101300000	1000	0	0	-1	400
22489355	8177	481	0	-100	0	230	101300000	1000	0	0	-1	400
22501915	8178	484	0	-100	0	230	101300000	1000	0	0	-1	400
22514475	8178	484	0	-100	0	230	101300000	1000	0	0	-1	400
22527035	8175	483	0	-100	0	230	101300000	1000	0	0	-1	400
22539595	8173	483	0	-100	0	230	101300000	1000	0	0	-1	400
22552155	8170	484	0	-100	0	230	101300000	1000	0	0	-1	400
22564715	8174	485	0	-100	0	230	101300000	1000	0	0	-1	400
22577275	8179	466	0	-100	0	230	101300000	1000	0	0	-1	400
22589835	8178	485	0	-100	0	230	101300000	1000	0	0	-1	400
22602395	8174	483	0	-100	0	230	101300000	1000	0	0	-1	400
22614955	8173	475	0	-100	0	230	101300000	1000	0	0	-1	400
22627515	8170	482	0	-100	0	230	101300000	1000	0	0	-1	400
22640075	8163	485	0	-100	0	230	101300000	1000	0	0	-1	400
22652635	8182	481	0	-100	0	230	101300000	1000	0	0	-1	400
22665195	8180	479	0	-100	0	230	101300000	1000	0	0	-1	400
22677755	8172	483	0	-100	0	230	101300000	1000	0	0	-1	400
22690315	8171	485	0	-100	0	230	101300000	1000	0	0	-1	400
22702875	8172	483	0	-100	0	230	101300000	1000	0	0	-1	400
22715435	8172	481	0	-100	0	230	101300000	1000	0	0	-1	400
22778235	8180	477	0	-100	0	230	101300000	1000	0	0	-1	400
22790795	8172	483	0	-100	0	230	101300000	1000	0	0	-1	400
22803355	8170	485	0	-100	0	230	101300000	1000	0	0	-1	400
22815915	8175	484	0	-100	0	230	101300000	1000	0	0	-1	400
22828475	8177	484	0	-100	0	230	101300000	1000	0	0	-1	400
22841035	8172	483	0	-100	0	230	101300000	1000	0	0	-1	400
22853595	8168	483	0	-100	0	230	101300000	1000	0	0	-1	400
22866155	8168	477	0	-100	0	230	101300000	1000	0	0	-1	400
22878715	8180	483	0	-100	0	230	101300000	1000	0	0	-1	400
22891275	8165	483	0	-100	0	230	101300000	1000	0	0	-1	400
22903835	8170	486	0	-100	0	230	101300000	1000	0	0	-1	400
22916395	8187	485	0	-100	0	230	101300000	1000	0	0	-1	400
22966635	8172	482	0	-100	0	230	101300000	1000	0	0	-1	400
22979195	8170	482	0	-100	0	230	101300000	1000	0	0	-1	400
22991755	8175	483	0	-100	0	230	101300000	1000	0	0	-1	400
23004315	8175	482	0	-100	0	230	101300000	1000	0	0	-1	400
23016875	8172	485	0	-100	0	230	101300000	1000	0	0	-1	400
23029435	8166	488	0	-100	0	230	101300000	1000	0	0	-1	400
23041995	8180	483	0	-100	0	230	101300000	1000	0	0	-1	400
23054555	8170	485	0	-100	0	230	101300000	1000	0	0	-1	400
23067115	8172	486	0	-100	0	230	101300000	1000	0	0	-1	400
23079675	8175	486	0	-100	0	230	101300000	1000	0	0	-1	400
23092235	8173	483	0	-100	0	230	101300000	1000	0	0	-1	400
23104795	8175	485	0	-100	0	230	101300000	1000	0	0	-1	400
23117355	8158	484	0	-100	0	230	101300000	1000	0	0	-1	400
23129915	8175	486	0	-100	0	230	101300000	1000	0	0	-1	400
23142475	8170	485	0	-100	0	230	101300000	1000	0	0	-1	400
23155035	8168	485	0	-100	0	230	101300000	1000	0	0	-1	400
23167595	8175	485	0	-100	0	230	101300000	1000	0	0	-1	400
23180155	8163	485	0	-100	0	230	101300000	1000	0	0	-1	400
23192715	8172	481	0	-100	0	230	101300000	1000	0	0	-1	400
23205275	8165	482	0	-100	0	230	101300000	1000	0	0	-1	400
23217835	8168	458	0	-100	0	230	101300000	1000	0	0	-1	400
23230395	8182	485	0	-100	0	230	101300000	1000	0	0	-1	400
23242955	8180	485	0	-100	0	230	101300000	1000	0	0	-1	400
23255515	8180	484	0	-100	0	230	101300000	1000	0	0	-1	400
23268075	8191	482	0	-100	0	230	101300000	1000	0	0	-1	400
23280635	8170	484	0	-100	0	230	101300000	1000	0	0	-1	400
23293195	8168	478	0	-100	0	230	101300000	1000	0	0	-1	400
23305755	8175	481	0	-100	0	230	101300000	1000	0	0	-1	400
23318315	8175	480	0	-100	0	230	101300000	1000	0	0	-1	400
23330875	8182	484	0	-100	0	230	101300000	1000	0	0	-1	400
23343435	8178	483	0	-100	0	230	101300000	1000	0	0	-1	400
23355995	8180	483	0	-100	0	230	101300000	1000	0	0	-1	400
23368555	8165	481	0	-100	0	230	101300000	1000	0	0	-1	400
23381115	8168	480	0	-100	0	230	101300000	1000	0	0	-1	400
23393675	8167	485	0	-100	0	230	101300000	1000	0	0	-1	400
23406235	8172	486	0	-100	0	230	101300000	1000	0	0	-1	400
23418795	8175	485	0	-100	0	230	101300000	1000	0	0	-1	400
23431355	8172	481	0	-100	0	230	101300000	1000	0	0	-1	400
23443915	8178	483	0	-100	0	230	101300000	1000	0	0	-1	400
23456475	8175	480	0	-100	0	230	101300000	1000	0	0	-1	400
23469035	8168	484	0	-100	0	230	101300000	1000	0	0	-1	400
23481595	8163	485	0	-100	0	230	101300000	1000	0	0	-1	400
23494155	8168	482	0	-100	0	230	101300000	1000	0	0	-1	400
23506715	8175	481	0	-100	0	230	101300000	1000	0	0	-1	400
23519275	8175	481	0	-100	0	230	101300000	1000	0	0	-1	400
23531835	8177	482	0	-100	0	230	101300000	1000	0	0	-1	400
23544395	8172	486	0	-100	0	230	101300000	1000	0	0	-1	400
23556955	8174	484	0	-100	0	230	101300000	1000	0	0	-1	400
23569515	8185	482	0	-100	0	230	101300000	1000	0	0	-1	400
23582075	8165	486	0	-100	0	230	101300000	1000	0	0	-1	400
23594635	8174	485	0	-100	0	230	101300000	1000	0	0	-1	400
23607195	8184	481	0	-100	0	230	101300000	1000	0	0	-1	400
23619755	8177	481	0	-100	0	230	101300000	1000	0	0	-1	400
23632315	8172	483	0	-100	0	230	101300000	1000	0	0	-1	400
23644875	8175	484	0	-100	0	230	101300000	1000	0	0	-1	400
23657435	8170	480	0	-100	0	230	101300000	1000	0	0	-1	400
23669995	8175	483	0	-100	0	230	101300000	1000	0	0	-1	400
23682555	8163	484	0	-100	0	230	101300000	1000	0	0	-1	400
23695115	8175	485	0	-100	0	230	101300000	1000	0	0	-1	400
23707675	8175	482	0	-100	0	230	101300000	1000	0	0	-1	400
23720235	8165	480	0	-100	0	230	101300000	1000	0	0	-1	400
23732795	8184	480	0	-100	0	230	101300000	1000	0	0	-1	400
23745355	8175	464	0	-100	0	230	101300000	1000	0	0	-1	400
23757915	8177	483	0	-100	0	230	101300000	1000	0	0	-1	400
23770475	8172	481	0	-100	0	230	101300000	1000	0	0	-1	400
23783035	8184	485	0	-100	0	230	101300000	1000	0	0	-1	400
23795595	8175	486	0	-100	0	230	101300000	1000	0	0	-1	400
23808155	8175	481	0	-100	0	230	101300000	1000	0	0	-1	400
23820715	8177	481	0	-100	0	230	101300000	1000	0	0	-1	400
23833275	8168	485	0	-100	0	230	101300000	1000	0	0	-1	400
23845835	8175	481	0	-100	0	230	101300000	1000	0	0	-1	400
23858395	8170	466	0	-100	0	230	101300000	1000	0	0	-1	400
23870955	8185	486	0	-100	0	230	101300000	1000	0	0	-1	400
23883515	8177	483	0	-100	0	230	101300000	1000	0	0	-1	400
23896075	8163	488	0	-100	0	230	101300000	1000	0	0	-1	400
23908635	8170	484	0	-100	0	230	101300000	1000	0	0	-1	400
23921195	8182	483	0	-100	0	230	101300000	1000	0	0	-1	400
23933755	8182	482	0	-100	0	230	101300000	1000	0	0	-1	400
23946315	8168	484	0	-100	0	230	101300000	1000	0	0	-1	400
23958875	8175	480	0	-100	0	230	101300000	1000	0	0	-1	400
23971435	8175	487	0	-100	0	230	101300000	1000	0	0	-1	400
23983995	8165	480	0	-100	0	230	101300000	1000	0	0	-1	400
23996555	8172	484	0	-100	0	230	101300000	1000	0	0	-1	400
24009115	8174	482	0	-100	0	230	101300000	1000	0	0	-1	400
24021675	8180	484	0	-100	0	230	101300000	1000	0	0	-1	400
24034235	8177	481	0	-100	0	230	101300000	1000	0	0	-1	400
24046795	8170	477	0	-100	0	230	101300000	1000	0	0	-1	400
24059355	8168	489	0	-100	0	230	101300000	1000	0	0	-1	400
24071915	8174	485	0	-100	0	230	101300000	1000	0	0	-1	400
24084475	8182	486	0	-100	0	230	101300000	1000	0	0	-1	400
24097035	8170	485	0	-100	0	230	101300000	1000	0	0	-1	400
24109595	8175	482	0	-100	0	230	101300000	1000	0	0	-1	400
24122155	8171	475	0	-100	0	230	101300000	1000	0	0	-1	400
24134715	8168	485	0	-100	0	230	101300000	1000	0	0	-1	400
24147275	8172	481	0	-100	0	230	101300000	1000	0	0	-1	400
24159835	8172	486	0	-100	0	230	101300000	1000	0	0	-1	400
24172395	8177	485	0	-100	0	230	101300000	1000	0	0	-1	400
24184955	8168	482	0	-100	0	230	101300000	1000	0	0	-1	400
24197515	8175	481	0	-100	0	230	101300000	1000	0	0	-1	400
24210075	8168	485	0	-100	0	230	101300000	1000	0	0	-1	400
24222635	8173	480	0	-100	0	230	101300000	1000	0	0	-1	400
24235195	8168	483	0	-100	0	230	101300000	1000	0	0	-1	400
24247755	8170	484	0	-100	0	230	101300000	1000	0	0	-1	400
24260315	8167	484	0	-100	0	230	101300000	1000	0	0	-1	400
24272875	8177	487	0	-100	0	230	101300000	1000	0	0	-1	400
24285435	8175	481	0	-100	0	230	101300000	1000	0	0	-1	400
24297995	8175	485	0	-100	0	230	101300000	1000	0	0	-1	400
24310555	8184	482	0	-100	0	230	101300000	1000	0	0	-1	400
24323115	8180	484	0	-100	0	230	101300000	1000	0	0	-1	400
24335675	8173	483	0	-100	0	230	101300000	1000	0	0	-1	400
24348235	8180	487	0	-100	0	230	101300000	1000	0	0	-1	400
24360795	8187	485	0	-100	0	230	101300000	1000	0	0	-1	400
24373355	8184	484	0	-100	0	230	101300000	1000	0	0	-1	400
24385915	8172	481	0	-100	0	230	101300000	1000	0	0	-1	400
24398475	8180	485	0	-100	0	230	101300000	1000	0	0	-1	400
24411035	8177	480	0	-100	0	230	101300000	1000	0	0	-1	400
24423595	8175	484	0	-100	0	230	101300000	1000	0	0	-1	400
24436155	8173	482	0	-100	0	230	101300000	1000	0	0	-1	400
24448715	8172	485	0	-100	0	230	101300000	1000	0	0	-1	400
24461275	8182	484	0	-100	0	230	101300000	1000	0	0	-1	400
24473835	8173	481	0	-100	0	230	101300000	1000	0	0	-1	400
24486395	8172	481	0	-100	0	230	101300000	1000	0	0	-1	400
24498955	8179	483	0	-100	0	230	101300000	1000	0	0	-1	400
24511515	8167	484	0	-100	0	230	101300000	1000	0	0	-1	400
24524075	8177	481	0	-100	0	230	101300000	1000	0	0	-1	400
24536635	8168	482	0	-100	0	230	101300000	1000	0	0	-1	400
24549195	8175	484	0	-100	0	230	101300000	1000	0	0	-1	400
24561755	8175	484	0	-100	0	230	101300000	1000	0	0	-1	400
24574315	8172	485	0	-100	0	230	101300000	1000	0	0	-1	400
24586875	8177	485	0	-100	0	230	101300000	1000	0	0	-1	400
24599435	8182	487	0	-100	0	230	101300000	1000	0	0	-1	400
24611995	8180	485	0	-100	0	230	101300000	1000	0	0	-1	400
24624555	8172	481	0	-100	0	230	101300000	1000	0	0	-1	400
24637115	8172	483	0	-100	0	230	101300000	1000	0	0	-1	400
24649675	8172	483	0	-100	0	230	101300000	1000	0	0	-1	400
24662235	8172	476	0	-100	0	230	101300000	1000	0	0	-1	400
24674795	8170	481	0	-100	0	230	101300000	1000	0	0	-1	400
24687355	8161	483	0	-100	0	230	101300000	1000	0	0	-1	400
24699915	8177	485	0	-100	0	230	101300000	1000	0	0	-1	400
24712475	8170	484	0	-100	0	230	101300000	1000	0	0	-1	400
24725035	8184	484	0	-100	0	230	101300000	1000	0	0	-1	400
24737595	8180	481	0	-100	0	230	101300000	1000	0	0	-1	400
24750155	8164	478	0	-100	0	230	101300000	1000	0	0	-1	400
24762715	8160	479	0	-100	0	230	101300000	1000	0	0	-1	400
24775275	8172	485	0	-100	0	230	101300000	1000	0	0	-1	400
24787835	8170	472	0	-100	0	230	101300000	1000	0	0	-1	400
24800395	8174	483	0	-100	0	230	101300000	1000	0	0	-1	400
24812955	8170	487	0	-100	0	230	101300000	1000	0	0	-1	400
24825515	8177	485	0	-100	0	230	101300000	1000	0	0	-1	400
24838075	8168	483	0	-100	0	230	101300000	1000	0	0	-1	400
24850635	8175	487	0	-100	0	230	101300000	1000	0	0	-1	400
24863195	8175	488	0	-100	0	230	101300000	1000	0	0	-1	400
24875755	8167	485	0	-100	0	230	101300000	1000	0	0	-1	400
24888315	8165	480	0	-100	0	230	101300000	1000	0	0	-1	400
24900875	8179	487	0	-100	0	230	101300000	1000	0	0	-1	400
24913435	8177	485	0	-100	0	230	101300000	1000	0	0	-1	400
24925995	8173	481	0	-100	0	230	101300000	1000	0	0	-1	400
24938555	8178	482	0	-100	0	230	101300000	1000	0	0	-1	400
24951115	8175	484	0	-100	0	230	101300000	1000	0	0	-1	400
24963675	8167	485	0	-100	0	230	101300000	1000	0	0	-1	400
24976235	8172	483	0	-100	0	230	101300000	1000	0	0	-1	400
24988795	8177	486	0	-100	0	230	101300000	1000	0	0	-1	400
25001355	8174	487	0	-100	0	230	101300000	1000	0	0	-1	400
25013915	8170	483	0	-100	0	230	101300000	1000	0	0	-1	400
25026475	8177	484	0	-100	0	230	101300000	1000	0	0	-1	400
25039035	8165	487	0	-100	0	230	101300000	1000	0	0	-1	400
25051595	8182	486	0	-100	0	230	101300000	1000	0	0	-1	400
25064155	8163	480	0	-100	0	230	101300000	1000	0	0	-1	400
25076715	8172	480	0	-100	0	230	101300000	1000	0	0	-1	400
25089275	8172	481	0	-100	0	230	101300000	1000	0	0	-1	400
25101835	8170	486	0	-100	0	230	101300000	1000	0	0	-1	400
25114395	8175	487	0	-100	0	230	101300000	1000	0	0	-1	400
25126955	8182	482	0	-100	0	230	101300000	1000	0	0	-1	400
25139515	8180	483	0	-100	0	230	101300000	1000	0	0	-1	400
25152075	8175	484	0	-100	0	230	101300000	1000	0	0	-1	400
25164635	8173	483	0	-100	0	230	101300000	1000	0	0	-1	400
25177195	8173	480	0	-100	0	230	101300000	1000	0	0	-1	400
25189755	8172	480	0	-100	0	230	101300000	1000	0	0	-1	400
25202315	8178	482	0	-100	0	230	101300000	1000	0	0	-1	400
25214875	8170	487	0	-100	0	230	101300000	1000	0	0	-1	400
25227435	8168	483	0	-100	0	230	101300000	1000	0	0	-1	400
25239995	8167	485	0	-100	0	230	101300000	1000	0	0	-1	400
25252555	8179	485	0	-100	0	230	101300000	1000	0	0	-1	400
25265115	8178	480	0	-100	0	230	101300000	1000	0	0	-1	400
25277675	8182	488	0	-100	0	230	101300000	1000	0	0	-1	400
25290235	8163	486	0	-100	0	230	101300000	1000	0	0	-1	400
25302795	8170	482	0	-100	0	230	101300000	1000	0	0	-1	400
25315355	8179	487	0	-100	0	230	101300000	1000	0	0	-1	400
25327915	8170	485	0	-100	0	230	101300000	1000	0	0	-1	400
25340475	8167	480	0	-100	0	230	101300000	1000	0	0	-1	400
25353035	8182	483	0	-100	0	230	101300000	1000	0	0	-1	400
25365595	8168	481	0	-100	0	230	101300000	1000	0	0	-1	400
25378155	8161	478	0	-100	0	230	101300000	1000	0	0	-1	400
25390715	8170	486	0	-100	0	230	101300000	1000	0	0	-1	400
25403275	8172	485	0	-100	0	230	101300000	1000	0	0	-1	400
25415835	8178	483	0	-100	0	230	101300000	1000	0	0	-1	400
25428395	8175	481	0	-100	0	230	101300000	1000	0	0	-1	400
25440955	8177	486	0	-100	0	230	101300000	1000	0	0	-1	400
25453515	8172	485	0	-100	0	230	101300000	1000	0	0	-1	400
25466075	8168	482	0	-100	0	230	101300000	1000	0	0	-1	400
25478635	8187	481	0	-100	0	230	101300000	1000	0	0	-1	400
25491195	8165	482	0	-100	0	230	101300000	1000	0	0	-1	400
25503755	8177	487	0	-100	0	230	101300000	1000	0	0	-1	400
25516315	8166	477	0	-100	0	230	101300000	1000	0	0	-1	400
25528875	8165	477	0	-100	0	230	101300000	1000	0	0	-1	400
25541435	8177	482	0	-100	0	230	101300000	1000	0	0	-1	400
25553995	8182	487	0	-100	0	230	101300000	1000	0	0	-1	400
25566555	8173	481	0	-100	0	230	101300000	1000	0	0	-1	400
25579115	8165	484	0	-100	0	230	101300000	1000	0	0	-1	400
25591675	8170	484	0	-100	0	230	101300000	1000	0	0	-1	400
25604235	8182	483	0	-100	0	230	101300000	1000	0	0	-1	400
25616795	8182	482	0	-100	0	230	101300000	1000	0	0	-1	400
25629355	8177	487	0	-100	0	230	101300000	1000	0	0	-1	400
25641915	8177	481	0	-100	0	230	101300000	1000	0	0	-1	400
25692155	8168	481	0	-100	0	230	101300000	1000	0	0	-1	400
25704715	8170	461	0	-100	0	230	101300000	1000	0	0	-1	400
25717275	8177	481	0	-100	0	230	101300000	1000	0	0	-1	400
25729835	8177	485	0	-100	0	230	101300000	1000	0	0	-1	400
25742395	8175	481	0	-100	0	230	101300000	1000	0	0	-1	400
25754955	8172	484	0	-100	0	230	101300000	1000	0	0	-1	400
25767515	8165	486	0	-100	0	230	101300000	1000	0	0	-1	400
25780075	8174	482	0	-100	0	230	101300000	1000	0	0	-1	400
25792635	8170	480	0	-100	0	230	101300000	1000	0	0	-1	400
25805195	8177	484	0	-100	0	230	101300000	1000	0	0	-1	400
25817755	8170	484	0	-100	0	230	101300000	1000	0	0	-1	400
25830315	8177	485	0	-100	0	230	101300000	1000	0	0	-1	400
25905675	8160	480	0	-100	0	230	101300000	1000	0	0	-1	400
25918235	8170	482	0	-100	0	230	101300000	1000	0	0	-1	400
25930795	8180	484	0	-100	0	230	101300000	1000	0	0	-1	400
25943355	8170	481	0	-100	0	230	101300000	1000	0	0	-1	400
25955915	8175	483	0	-100	0	230	101300000	1000	0	0	-1	400
25968475	8175	485	0	-100	0	230	101300000	1000	0	0	-1	400
25981035	8180	480	0	-100	0	230	101300000	1000	0	0	-1	400
25993595	8175	483	0	-100	0	230	101300000	1000	0	0	-1	400
26006155	8170	477	0	-100	0	230	101300000	1000	0	0	-1	400
26018715	8178	483	0	-100	0	230	101300000	1000	0	0	-1	400
26031275	8168	483	0	-100	0	230	101300000	1000	0	0	-1	400
26043835	8167	485	0	-100	0	230	101300000	1000	0	0	-1	400
26056395	8172	483	0	-100	0	230	101300000	1000	0	0	-1	400
26068955	8177	481	0	-100	0	230	101300000	1000	0	0	-1	400
26081515	8170	482	0	-100	0	230	101300000	1000	0	0	-1	400
26094075	8175	485	0	-100	0	230	101300000	1000	0	0	-1	400
26106635	8170	481	0	-100	0	230	101300000	1000	0	0	-1	400
26119195	8166	482	0	-100	0	230	101300000	1000	0	0	-1	400
26131755	8168	485	0	-100	0	230	101300000	1000	0	0	-1	400
26144315	8182	484	0	-100	0	230	101300000	1000	0	0	-1	400
26156875	8180	485	0	-100	0	230	101300000	1000	0	0	-1	400
26169435	8168	488	0	-100	0	230	101300000	1000	0	0	-1	400
26181995	8172	482	0	-100	0	230	101300000	1000	0	0	-1	400
26194555	8172	482	0	-100	0	230	101300000	1000	0	0	-1	400
26207115	8179	483	0	-100	0	230	101300000	1000	0	0	-1	400
26219675	8172	487	0	-100	0	230	101300000	1000	0	0	-1	400
26232235	8170	485	0	-100	0	230	101300000	1000	0	0	-1	400
26244795	8178	480	0	-100	0	230	101300000	1000	0	0	-1	400
26257355	8172	483	0	-100	0	230	101300000	1000	0	0	-1	400
26269915	8165	485	0	-100	0	230	101300000	1000	0	0	-1	400
26282475	8170	481	0	-100	0	230	101300000	1000	0	0	-1	400
26295035	8187	485	0	-100	0	230	101300000	1000	0	0	-1	400
26307595	8178	481	0	-100	0	230	101300000	1000	0	0	-1	400
26320155	8171	477	0	-100	0	230	101300000	1000	0	0	-1	400
26332715	8165	477	0	-100	0	230	101300000	1000	0	0	-1	400
26345275	8172	481	0	-100	0	230	101300000	1000	0	0	-1	400
26357835	8172	483	0	-100	0	230	101300000	1000	0	0	-1	400
26370395	8177	486	0	-100	0	230	101300000	1000	0	0	-1	400
26382955	8177	480	0	-100	0	230	101300000	1000	0	0	-1	400
26395515	8170	486	0	-100	0	230	101300000	1000	0	0	-1	400
26408075	8172	484	0	-100	0	230	101300000	1000	0	0	-1	400
26420635	8175	487	0	-100	0	230	101300000	1000	0	0	-1	400
26433195	8170	482	0	-100	0	230	101300000	1000	0	0	-1	400
26445755	8179	461	0	-100	0	230	101300000	1000	0	0	-1	400
26458315	8177	482	0	-100	0	230	101300000	1000	0	0	-1	400
26470875	8177	485	0	-100	0	230	101300000	1000	0	0	-1	400
26483435	8175	481	0	-100	0	230	101300000	1000	0	0	-1	400
26495995	8182	488	0	-100	0	230	101300000	1000	0	0	-1	400
26508555	8182	484	0	-100	0	230	101300000	1000	0	0	-1	400
26521115	8175	481	0	-100	0	230	101300000	1000	0	0	-1	400
26533675	8165	482	0	-100	0	230	101300000	1000	0	0	-1	400
26546235	8172	484	0	-100	0	230	101300000	1000	0	0	-1	400
26558795	8179	484	0	-100	0	230	101300000	1000	0	0	-1	400
26571355	8170	488	0	-100	0	230	101300000	1000	0	0	-1	400
26583915	8180	484	0	-100	0	230	101300000	1000	0	0	-1	400
26596475	8175	482	0	-100	0	230	101300000	1000	0	0	-1	400
26609035	8173	485	0	-100	0	230	101300000	1000	0	0	-1	400
26621595	8173	482	0	-100	0	230	101300000	1000	0	0	-1	400
26634155	8170	478	0	-100	0	230	101300000	1000	0	0	-1	400
26646715	8175	480	0	-100	0	230	101300000	1000	0	0	-1	400
26659275	8170	484	0	-100	0	230	101300000	1000	0	0	-1	400
26671835	8175	484	0	-100	0	230	101300000	1000	0	0	-1	400
26684395	8172	484	0	-100	0	230	101300000	1000	0	0	-1	400
26696955	8172	485	0	-100	0	230	101300000	1000	0	0	-1	400
26709515	8179	484	0	-100	0	230	101300000	1000	0	0	-1	400
26722075	8170	486	0	-100	0	230	101300000	1000	0	0	-1	400
26734635	8180	478	0	-100	0	230	101300000	1000	0	0	-1	400
26747195	8185	480	0	-100	0	230	101300000	1000	0	0	-1	400
26759755	8184	485	0	-100	0	230	101300000	1000	0	0	-1	400
26772315	8177	481	0	-100	0	230	101300000	1000	0	0	-1	400
26784875	8173	483	0	-100	0	230	101300000	1000	0	0	-1	400
26797435	8172	485	0	-100	0	230	101300000	1000	0	0	-1	400
26809995	8174	486	0	-100	0	230	101300000	1000	0	0	-1	400
26822555	8187	482	0	-100	0	230	101300000	1000	0	0	-1	400
26835115	8177	482	0	-100	0	230	101300000	1000	0	0	-1	400
26847675	8170	483	0	-100	0	230	101300000	1000	0	0	-1	400
26860235	8180	486	0	-100	0	230	101300000	1000	0	0	-1	400
26872795	8175	482	0	-100	0	230	101300000	1000	0	0	-1	400
26885355	8177	481	0	-100	0	230	101300000	1000	0	0	-1	400
26897915	8184	482	0	-100	0	230	101300000	1000	0	0	-1	400
26910475	8170	485	0	-100	0	230	101300000	1000	0	0	-1	400
26923035	8170	486	0	-100	0	230	101300000	1000	0	0	-1	400
26935595	8182	481	0	-100	0	230	101300000	1000	0	0	-1	400
26948155	8161	478	0	-100	0	230	101300000	1000	0	0	-1	400
26960715	8173	487	0	-100	0	230	101300000	1000	0	0	-1	400
26973275	8168	485	0	-100	0	230	101300000	1000	0	0	-1	400
26985835	8175	481	0	-100	0	230	101300000	1000	0	0	-1	400
26998395	8175	482	0	-100	0	230	101300000	1000	0	0	-1	400
27010955	8158	485	0	-100	0	230	101300000	1000	0	0	-1	400
27023515	8170	486	0	-100	0	230	101300000	1000	0	0	-1	400
27036075	8172	483	0	-100	0	230	101300000	1000	0	0	-1	400
27048635	8177	486	0	-100	0	230	101300000	1000	0	0	-1	400
