timestamp	voltage	current	windSpeed	pitchAngle	rpm	temperature	ambientPressure	humidity	accelerationX	accelerationY	accelerationZ	currentSink
7040070	8520	0	0	-100	0	230	101300000	1000	0	0	-1	0
7047523	8527	0	0	-100	0	230	101300000	1000	0	0	-1	0
7060083	8529	3	0	-100	0	230	101300000	1000	0	0	-1	0
7072643	8534	0	0	-100	0	230	101300000	1000	0	0	-1	0
7085203	8524	4	0	-100	0	230	101300000	1000	0	0	-1	0
7097763	8532	0	0	-100	0	230	101300000	1000	0	0	-1	0
7110323	8529	0	0	-100	0	230	101300000	1000	0	0	-1	0
7122883	8532	0	0	-100	0	230	101300000	1000	0	0	-1	0
7135443	8527	0	0	-100	0	230	101300000	1000	0	0	-1	0
7148004	8531	1	0	-100	0	230	101300000	1000	0	0	-1	0
7160563	8529	0	0	-100	0	230	101300000	1000	0	0	-1	0
7173123	8527	1	0	-100	0	230	101300000	1000	0	0	-1	0
7185683	8529	0	0	-100	0	230	101300000	1000	0	0	-1	0
7198243	8529	3	0	-100	0	230	101300000	1000	0	0	-1	0
7210803	8534	0	0	-100	0	230	101300000	1000	0	0	-1	0
7223363	8529	0	0	-100	0	230	101300000	1000	0	0	-1	0
7235923	8529	4	0	-100	0	230	101300000	1000	0	0	-1	0
7248483	8529	0	0	-100	0	230	101300000	1000	0	0	-1	0
7261043	8520	0	0	-100	0	230	101300000	1000	0	0	-1	0
7273603	8534	0	0	-100	0	230	101300000	1000	0	0	-1	0
7286163	8527	0	0	-100	0	230	101300000	1000	0	0	-1	0
7298723	8529	3	0	-100	0	230	101300000	1000	0	0	-1	0
7311283	8536	0	0	-100	0	230	101300000	1000	0	0	-1	0
7323843	8524	0	0	-100	0	230	101300000	1000	0	0	-1	0
7336403	8527	3	0	-100	0	230	101300000	1000	0	0	-1	0
7348963	8529	0	0	-100	0	230	101300000	1000	0	0	-1	0
7719795	8098	564	0	-100	0	230	101300000	1000	0	0	-1	500
7732355	8078	560	0	-100	0	230	101300000	1000	0	0	-1	500
7744915	8090	566	0	-100	0	230	101300000	1000	0	0	-1	500
7757475	8090	567	0	-100	0	230	101300000	1000	0	0	-1	500
7770035	8086	566	0	-100	0	230	101300000	1000	0	0	-1	500
7782595	8090	569	0	-100	0	230	101300000	1000	0	0	-1	500
7795155	8080	568	0	-100	0	230	101300000	1000	0	0	-1	500
7807715	8093	558	0	-100	0	230	101300000	1000	0	0	-1	500
7820275	8095	566	0	-100	0	230	101300000	1000	0	0	-1	500
7832835	8085	568	0	-100	0	230	101300000	1000	0	0	-1	500
7845395	8094	566	0	-100	0	230	101300000	1000	0	0	-1	500
7883075	8085	566	0	-100	0	230	101300000	1000	0	0	-1	500
7895635	8102	565	0	-100	0	230	101300000	1000	0	0	-1	500
7908195	8081	572	0	-100	0	230	101300000	1000	0	0	-1	500
7920755	8087	570	0	-100	0	230	101300000	1000	0	0	-1	500
7933315	8095	563	0	-100	0	230	101300000	1000	0	0	-1	500
7945875	8088	565	0	-100	0	230	101300000	1000	0	0	-1	500
7958435	8085	563	0	-100	0	230	101300000	1000	0	0	-1	500
7970995	8083	569	0	-100	0	230	101300000	1000	0	0	-1	500
7983555	8092	565	0	-100	0	230	101300000	1000	0	0	-1	500
7996115	8090	570	0	-100	0	230	101300000	1000	0	0	-1	500
8008675	8092	566	0	-100	0	230	101300000	1000	0	0	-1	500
8021235	8090	567	0	-100	0	230	101300000	1000	0	0	-1	500
8033795	8078	568	0	-100	0	230	101300000	1000	0	0	-1	500
8046355	8098	565	0	-100	0	230	101300000	1000	0	0	-1	500
8058915	8092	572	0	-100	0	230	101300000	1000	0	0	-1	500
8071475	8095	571	0	-100	0	230	101300000	1000	0	0	-1	500
8084035	8085	564	0	-100	0	230	101300000	1000	0	0	-1	500
8096595	8102	568	0	-100	0	230	101300000	1000	0	0	-1	500
8109155	8083	562	0	-100	0	230	101300000	1000	0	0	-1	500
8121715	8095	564	0	-100	0	230	101300000	1000	0	0	-1	500
8134275	8095	568	0	-100	0	230	101300000	1000	0	0	-1	500
8146835	8083	568	0	-100	0	230	101300000	1000	0	0	-1	500
8159395	8088	565	0	-100	0	230	101300000	1000	0	0	-1	500
8171955	8087	565	0	-100	0	230	101300000	1000	0	0	-1	500
8184515	8090	568	0	-100	0	230	101300000	1000	0	0	-1	500
8197075	8094	566	0	-100	0	230	101300000	1000	0	0	-1	500
8209635	8105	569	0	-100	0	230	101300000	1000	0	0	-1	500
8222195	8087	567	0	-100	0	230	101300000	1000	0	0	-1	500
8234755	8087	571	0	-100	0	230	101300000	1000	0	0	-1	500
8247315	8095	565	0	-100	0	230	101300000	1000	0	0	-1	500
8259875	8073	571	0	-100	0	230	101300000	1000	0	0	-1	500
8272435	8078	568	0	-100	0	230	101300000	1000	0	0	-1	500
8284995	8078	565	0	-100	0	230	101300000	1000	0	0	-1	500
8297555	8090	569	0	-100	0	230	101300000	1000	0	0	-1	500
8310115	8092	571	0	-100	0	230	101300000	1000	0	0	-1	500
8322675	8093	567	0	-100	0	230	101300000	1000	0	0	-1	500
8335235	8095	564	0	-100	0	230	101300000	1000	0	0	-1	500
8347795	8098	566	0	-100	0	230	101300000	1000	0	0	-1	500
8360355	8085	570	0	-100	0	230	101300000	1000	0	0	-1	500
8372915	8095	561	0	-100	0	230	101300000	1000	0	0	-1	500
8385475	8090	569	0	-100	0	230	101300000	1000	0	0	-1	500
8398035	8092	570	0	-100	0	230	101300000	1000	0	0	-1	500
8410595	8086	568	0	-100	0	230	101300000	1000	0	0	-1	500
8423155	8092	569	0	-100	0	230	101300000	1000	0	0	-1	500
8435715	8099	567	0	-100	0	230	101300000	1000	0	0	-1	500
8448275	8095	567	0	-100	0	230	101300000	1000	0	0	-1	500
8460835	8078	568	0	-100	0	230	101300000	1000	0	0	-1	500
8473395	8090	565	0	-100	0	230	101300000	1000	0	0	-1	500
8485955	8098	563	0	-100	0	230	101300000	1000	0	0	-1	500
8498515	8102	566	0	-100	0	230	101300000	1000	0	0	-1	500
8511075	8081	568	0	-100	0	230	101300000	1000	0	0	-1	500
8523635	8085	568	0	-100	0	230	101300000	1000	0	0	-1	500
8536195	8095	566	0	-100	0	230	101300000	1000	0	0	-1	500
8548755	8090	564	0	-100	0	230	101300000	1000	0	0	-1	500
8561315	8088	567	0	-100	0	230	101300000	1000	0	0	-1	500
8573875	8090	564	0	-100	0	230	101300000	1000	0	0	-1	500
8586435	8094	570	0	-100	0	230	101300000	1000	0	0	-1	500
8598995	8085	569	0	-100	0	230	101300000	1000	0	0	-1	500
8611555	8099	566	0	-100	0	230	101300000	1000	0	0	-1	500
8624115	8100	567	0	-100	0	230	101300000	1000	0	0	-1	500
8636675	8102	564	0	-100	0	230	101300000	1000	0	0	-1	500
8649235	8097	569	0	-100	0	230	101300000	1000	0	0	-1	500
8661795	8100	565	0	-100	0	230	101300000	1000	0	0	-1	500
8674355	8090	568	0	-100	0	230	101300000	1000	0	0	-1	500
8686915	8085	563	0	-100	0	230	101300000	1000	0	0	-1	500
8699475	8090	565	0	-100	0	230	101300000	1000	0	0	-1	500
8712035	8085	570	0	-100	0	230	101300000	1000	0	0	-1	500
8724595	8102	571	0	-100	0	230	101300000	1000	0	0	-1	500
8737155	8088	565	0	-100	0	230	101300000	1000	0	0	-1	500
8749715	8085	573	0	-100	0	230	101300000	1000	0	0	-1	500
8762275	8083	568	0	-100	0	230	101300000	1000	0	0	-1	500
8774835	8090	566	0	-100	0	230	101300000	1000	0	0	-1	500
8787395	8088	569	0	-100	0	230	101300000	1000	0	0	-1	500
8799955	8090	569	0	-100	0	230	101300000	1000	0	0	-1	500
8812515	8083	567	0	-100	0	230	101300000	1000	0	0	-1	500
8825075	8092	567	0	-100	0	230	101300000	1000	0	0	-1	500
8837635	8095	567	0	-100	0	230	101300000	1000	0	0	-1	500
8850195	8083	567	0	-100	0	230	101300000	1000	0	0	-1	500
8862755	8095	568	0	-100	0	230	101300000	1000	0	0	-1	500
8875315	8090	565	0	-100	0	230	101300000	1000	0	0	-1	500
8887875	8095	568	0	-100	0	230	101300000	1000	0	0	-1	500
8900435	8097	568	0	-100	0	230	101300000	1000	0	0	-1	500
8912995	8088	569	0	-100	0	230	101300000	1000	0	0	-1	500
8925555	8085	566	0	-100	0	230	101300000	1000	0	0	-1	500
8938115	8087	573	0	-100	0	230	101300000	1000	0	0	-1	500
8950675	8095	565	0	-100	0	230	101300000	1000	0	0	-1	500
8963235	8088	572	0	-100	0	230	101300000	1000	0	0	-1	500
8975795	8087	573	0	-100	0	230	101300000	1000	0	0	-1	500
8988355	8111	569	0	-100	0	230	101300000	1000	0	0	-1	500
9000915	8088	568	0	-100	0	230	101300000	1000	0	0	-1	500
9013475	8085	570	0	-100	0	230	101300000	1000	0	0	-1	500
9026035	8097	571	0	-100	0	230	101300000	1000	0	0	-1	500
9038595	8092	564	0	-100	0	230	101300000	1000	0	0	-1	500
9051155	8085	568	0	-100	0	230	101300000	1000	0	0	-1	500
9063715	8078	572	0	-100	0	230	101300000	1000	0	0	-1	500
9076275	8080	566	0	-100	0	230	101300000	1000	0	0	-1	500
9088835	8095	564	0	-100	0	230	101300000	1000	0	0	-1	500
9101395	8085	566	0	-100	0	230	101300000	1000	0	0	-1	500
9113955	8078	567	0	-100	0	230	101300000	1000	0	0	-1	500
9126515	8095	568	0	-100	0	230	101300000	1000	0	0	-1	500
9139075	8085	566	0	-100	0	230	101300000	1000	0	0	-1	500
9151635	8104	566	0	-100	0	230	101300000	1000	0	0	-1	500
9164195	8095	565	0	-100	0	230	101300000	1000	0	0	-1	500
9176755	8081	569	0	-100	0	230	101300000	1000	0	0	-1	500
9189315	8097	560	0	-100	0	230	101300000	1000	0	0	-1	500
9201875	8102	570	0	-100	0	230	101300000	1000	0	0	-1	500
9214435	8088	567	0	-100	0	230	101300000	1000	0	0	-1	500
9226995	8095	567	0	-100	0	230	101300000	1000	0	0	-1	500
9239555	8098	568	0	-100	0	230	101300000	1000	0	0	-1	500
9252115	8104	569	0	-100	0	230	101300000	1000	0	0	-1	500
9264675	8090	573	0	-100	0	230	101300000	1000	0	0	-1	500
9277235	8090	568	0	-100	0	230	101300000	1000	0	0	-1	500
9289795	8088	568	0	-100	0	230	101300000	1000	0	0	-1	500
9302355	8095	566	0	-100	0	230	101300000	1000	0	0	-1	500
9314915	8094	567	0	-100	0	230	101300000	1000	0	0	-1	500
9327475	8098	566	0	-100	0	230	101300000	1000	0	0	-1	500
9340035	8080	570	0	-100	0	230	101300000	1000	0	0	-1	500
9352595	8097	570	0	-100	0	230	101300000	1000	0	0	-1	500
9365155	8090	570	0	-100	0	230	101300000	1000	0	0	-1	500
9377715	8092	566	0	-100	0	230	101300000	1000	0	0	-1	500
9390275	8085	568	0	-100	0	230	101300000	1000	0	0	-1	500
9402835	8080	565	0	-100	0	230	101300000	1000	0	0	-1	500
9415395	8090	566	0	-100	0	230	101300000	1000	0	0	-1	500
9427955	8074	571	0	-100	0	230	101300000	1000	0	0	-1	500
9440515	8098	563	0	-100	0	230	101300000	1000	0	0	-1	500
9453075	8075	565	0	-100	0	230	101300000	1000	0	0	-1	500
9465635	8090	565	0	-100	0	230	101300000	1000	0	0	-1	500
9478195	8090	568	0	-100	0	230	101300000	1000	0	0	-1	500
9490755	8088	565	0	-100	0	230	101300000	1000	0	0	-1	500
9503315	8083	566	0	-100	0	230	101300000	1000	0	0	-1	500
9515875	8092	569	0	-100	0	230	101300000	1000	0	0	-1	500
9528435	8080	565	0	-100	0	230	101300000	1000	0	0	-1	500
9540995	8107	570	0	-100	0	230	101300000	1000	0	0	-1	500
9553555	8102	570	0	-100	0	230	101300000	1000	0	0	-1	500
9566115	8100	545	0	-100	0	230	101300000	1000	0	0	-1	500
9578675	8095	567	0	-100	0	230	101300000	1000	0	0	-1	500
9591235	8095	567	0	-100	0	230	101300000	1000	0	0	-1	500
9603795	8078	563	0	-100	0	230	101300000	1000	0	0	-1	500
9616355	8093	569	0	-100	0	230	101300000	1000	0	0	-1	500
9628915	8092	567	0	-100	0	230	101300000	1000	0	0	-1	500
9641475	8100	568	0	-100	0	230	101300000	1000	0	0	-1	500
9654035	8087	567	0	-100	0	230	101300000	1000	0	0	-1	500
9666595	8094	566	0	-100	0	230	101300000	1000	0	0	-1	500
9679155	8098	570	0	-100	0	230	101300000	1000	0	0	-1	500
9691715	8081	565	0	-100	0	230	101300000	1000	0	0	-1	500
9704275	8083	568	0	-100	0	230	101300000	1000	0	0	-1	500
9716835	8100	570	0	-100	0	230	101300000	1000	0	0	-1	500
9729395	8095	569	0	-100	0	230	101300000	1000	0	0	-1	500
9741955	8102	570	0	-100	0	230	101300000	1000	0	0	-1	500
9754515	8078	574	0	-100	0	230	101300000	1000	0	0	-1	500
9767075	8087	570	0	-100	0	230	101300000	1000	0	0	-1	500
9779635	8100	570	0	-100	0	230	101300000	1000	0	0	-1	500
9792195	8100	571	0	-100	0	230	101300000	1000	0	0	-1	500
9804755	8097	571	0	-100	0	230	101300000	1000	0	0	-1	500
9817315	8088	550	0	-100	0	230	101300000	1000	0	0	-1	500
9829875	8088	565	0	-100	0	230	101300000	1000	0	0	-1	500
9842435	8080	566	0	-100	0	230	101300000	1000	0	0	-1	500
9854995	8092	565	0	-100	0	230	101300000	1000	0	0	-1	500
9867555	8098	568	0	-100	0	230	101300000	1000	0	0	-1	500
9880115	8083	568	0	-100	0	230	101300000	1000	0	0	-1	500
9892675	8100	570	0	-100	0	230	101300000	1000	0	0	-1	500
9905235	8085	572	0	-100	0	230	101300000	1000	0	0	-1	500
9917795	8097	566	0	-100	0	230	101300000	1000	0	0	-1	500
9930355	8097	567	0	-100	0	230	101300000	1000	0	0	-1	500
9942915	8097	570	0	-100	0	230	101300000	1000	0	0	-1	500
9955475	8092	570	0	-100	0	230	101300000	1000	0	0	-1	500
9968035	8092	568	0	-100	0	230	101300000	1000	0	0	-1	500
9980595	8087	567	0	-100	0	230	101300000	1000	0	0	-1	500
9993155	8100	571	0	-100	0	230	101300000	1000	0	0	-1	500
10005715	8092	569	0	-100	0	230	101300000	1000	0	0	-1	500
10018275	8098	570	0	-100	0	230	101300000	1000	0	0	-1	500
10030835	8081	571	0	-100	0	230	101300000	1000	0	0	-1	500
10043395	8088	567	0	-100	0	230	101300000	1000	0	0	-1	500
10055955	8092	567	0	-100	0	230	101300000	1000	0	0	-1	500
10068515	8092	571	0	-100	0	230	101300000	1000	0	0	-1	500
10081075	8087	570	0	-100	0	230	101300000	1000	0	0	-1	500
10093635	8083	570	0	-100	0	230	101300000	1000	0	0	-1	500
10106195	8091	566	0	-100	0	230	101300000	1000	0	0	-1	500
10118755	8085	564	0	-100	0	230	101300000	1000	0	0	-1	500
10131315	8092	569	0	-100	0	230	101300000	1000	0	0	-1	500
10143875	8083	567	0	-100	0	230	101300000	1000	0	0	-1	500
10156435	8088	568	0	-100	0	230	101300000	1000	0	0	-1	500
10168995	8083	568	0	-100	0	230	101300000	1000	0	0	-1	500
10181555	8097	570	0	-100	0	230	101300000	1000	0	0	-1	500
10194115	8085	565	0	-100	0	230	101300000	1000	0	0	-1	500
10206675	8078	569	0	-100	0	230	101300000	1000	0	0	-1	500
10219235	8102	569	0	-100	0	230	101300000	1000	0	0	-1	500
10231795	8090	568	0	-100	0	230	101300000	1000	0	0	-1	500
10244355	8099	571	0	-100	0	230	101300000	1000	0	0	-1	500
10256915	8085	551	0	-100	0	230	101300000	1000	0	0	-1	500
10269475	8095	570	0	-100	0	230	101300000	1000	0	0	-1	500
10282035	8088	564	0	-100	0	230	101300000	1000	0	0	-1	500
10294595	8090	569	0	-100	0	230	101300000	1000	0	0	-1	500
10307155	8092	576	0	-100	0	230	101300000	1000	0	0	-1	500
10319715	8076	570	0	-100	0	230	101300000	1000	0	0	-1	500
10332275	8099	566	0	-100	0	230	101300000	1000	0	0	-1	500
10344835	8090	563	0	-100	0	230	101300000	1000	0	0	-1	500
10357395	8087	566	0	-100	0	230	101300000	1000	0	0	-1	500
10369955	8098	566	0	-100	0	230	101300000	1000	0	0	-1	500
10382515	8095	569	0	-100	0	230	101300000	1000	0	0	-1	500
10395075	8082	566	0	-100	0	230	101300000	1000	0	0	-1	500
10407635	8088	564	0	-100	0	230	101300000	1000	0	0	-1	500
10420195	8085	570	0	-100	0	230	101300000	1000	0	0	-1	500
10432755	8097	569	0	-100	0	230	101300000	1000	0	0	-1	500
10445315	8085	568	0	-100	0	230	101300000	1000	0	0	-1	500
10457875	8090	574	0	-100	0	230	101300000	1000	0	0	-1	500
10470435	8095	568	0	-100	0	230	101300000	1000	0	0	-1	500
10482995	8085	567	0	-100	0	230	101300000	1000	0	0	-1	500
10495555	8102	563	0	-100	0	230	101300000	1000	0	0	-1	500
10508115	8090	569	0	-100	0	230	101300000	1000	0	0	-1	500
10520675	8100	571	0	-100	0	230	101300000	1000	0	0	-1	500
10533235	8092	568	0	-100	0	230	101300000	1000	0	0	-1	500
10545795	8088	564	0	-100	0	230	101300000	1000	0	0	-1	500
10558355	8099	571	0	-100	0	230	101300000	1000	0	0	-1	500
10570915	8093	560	0	-100	0	230	101300000	1000	0	0	-1	500
10583475	8086	568	0	-100	0	230	101300000	1000	0	0	-1	500
10596035	8083	568	0	-100	0	230	101300000	1000	0	0	-1	500
10608595	8085	567	0	-100	0	230	101300000	1000	0	0	-1	500
10621155	8090	570	0	-100	0	230	101300000	1000	0	0	-1	500
10633715	8092	570	0	-100	0	230	101300000	1000	0	0	-1	500
10646275	8085	565	0	-100	0	230	101300000	1000	0	0	-1	500
10658835	8088	568	0	-100	0	230	101300000	1000	0	0	-1	500
10671395	8090	568	0	-100	0	230	101300000	1000	0	0	-1	500
10683955	8090	570	0	-100	0	230	101300000	1000	0	0	-1	500
10696515	8095	566	0	-100	0	230	101300000	1000	0	0	-1	500
10709075	8102	565	0	-100	0	230	101300000	1000	0	0	-1	500
10721635	8094	571	0	-100	0	230	101300000	1000	0	0	-1	500
10734195	8095	563	0	-100	0	230	101300000	1000	0	0	-1	500
10746755	8088	569	0	-100	0	230	101300000	1000	0	0	-1	500
10759315	8095	568	0	-100	0	230	101300000	1000	0	0	-1	500
10771875	8100	565	0	-100	0	230	101300000	1000	0	0	-1	500
10784435	8085	570	0	-100	0	230	101300000	1000	0	0	-1	500
10796995	8085	564	0	-100	0	230	101300000	1000	0	0	-1	500
10809555	8095	568	0	-100	0	230	101300000	1000	0	0	-1	500
10822115	8092	566	0	-100	0	230	101300000	1000	0	0	-1	500
10834675	8083	569	0	-100	0	230	101300000	1000	0	0	-1	500
10847235	8080	569	0	-100	0	230	101300000	1000	0	0	-1	500
10859795	8102	570	0	-100	0	230	101300000	1000	0	0	-1	500
10872355	8100	569	0	-100	0	230	101300000	1000	0	0	-1	500
10884915	8100	570	0	-100	0	230	101300000	1000	0	0	-1	500
10897475	8090	570	0	-100	0	230	101300000	1000	0	0	-1	500
10910035	8090	564	0	-100	0	230	101300000	1000	0	0	-1	500
10922595	8095	572	0	-100	0	230	101300000	1000	0	0	-1	500
10935155	8092	570	0	-100	0	230	101300000	1000	0	0	-1	500
10947715	8090	570	0	-100	0	230	101300000	1000	0	0	-1	500
10960275	8092	568	0	-100	0	230	101300000	1000	0	0	-1	500
10972835	8091	566	0	-100	0	230	101300000	1000	0	0	-1	500
10985395	8088	568	0	-100	0	230	101300000	1000	0	0	-1	500
10997955	8090	571	0	-100	0	230	101300000	1000	0	0	-1	500
11010515	8085	568	0	-100	0	230	101300000	1000	0	0	-1	500
11023075	8091	564	0	-100	0	230	101300000	1000	0	0	-1	500
11035635	8095	565	0	-100	0	230	101300000	1000	0	0	-1	500
11073315	8087	571	0	-100	0	230	101300000	1000	0	0	-1	500
11085875	8095	568	0	-100	0	230	101300000	1000	0	0	-1	500
11098435	8098	570	0	-100	0	230	101300000	1000	0	0	-1	500
11110995	8085	568	0	-100	0	230	101300000	1000	0	0	-1	500
11123555	8090	569	0	-100	0	230	101300000	1000	0	0	-1	500
11136115	8087	573	0	-100	0	230	101300000	1000	0	0	-1	500
11148675	8090	572	0	-100	0	230	101300000	1000	0	0	-1	500
11161235	8095	571	0	-100	0	230	101300000	1000	0	0	-1	500
11173795	8088	565	0	-100	0	230	101300000	1000	0	0	-1	500
11186355	8085	569	0	-100	0	230	101300000	1000	0	0	-1	500
11198915	8090	571	0	-100	0	230	101300000	1000	0	0	-1	500
11211475	8100	565	0	-100	0	230	101300000	1000	0	0	-1	500
11224035	8092	567	0	-100	0	230	101300000	1000	0	0	-1	500
11236595	8090	572	0	-100	0	230	101300000	1000	0	0	-1	500
11249155	8090	571	0	-100	0	230	101300000	1000	0	0	-1	500
11261715	8105	570	0	-100	0	230	101300000	1000	0	0	-1	500
11274275	8092	567	0	-100	0	230	101300000	1000	0	0	-1	500
11286835	8088	569	0	-100	0	230	101300000	1000	0	0	-1	500
11299395	8090	567	0	-100	0	230	101300000	1000	0	0	-1	500
11311955	8085	569	0	-100	0	230	101300000	1000	0	0	-1	500
11324515	8090	564	0	-100	0	230	101300000	1000	0	0	-1	500
11337075	8092	566	0	-100	0	230	101300000	1000	0	0	-1	500
11349635	8085	570	0	-100	0	230	101300000	1000	0	0	-1	500
11362195	8094	572	0	-100	0	230	101300000	1000	0	0	-1	500
11374755	8102	573	0	-100	0	230	101300000	1000	0	0	-1	500
11387315	8092	567	0	-100	0	230	101300000	1000	0	0	-1	500
11399875	8083	567	0	-100	0	230	101300000	1000	0	0	-1	500
11412435	8104	566	0	-100	0	230	101300000	1000	0	0	-1	500
11424995	8107	568	0	-100	0	230	101300000	1000	0	0	-1	500
11437555	8086	564	0	-100	0	230	101300000	1000	0	0	-1	500
11450115	8098	568	0	-100	0	230	101300000	1000	0	0	-1	500
11462675	8092	573	0	-100	0	230	101300000	1000	0	0	-1	500
11475235	8095	569	0	-100	0	230	101300000	1000	0	0	-1	500
11487795	8098	565	0	-100	0	230	101300000	1000	0	0	-1	500
11500355	8102	568	0	-100	0	230	101300000	1000	0	0	-1	500
11512915	8097	571	0	-100	0	230	101300000	1000	0	0	-1	500
11525475	8088	566	0	-100	0	230	101300000	1000	0	0	-1	500
11538035	8088	569	0	-100	0	230	101300000	1000	0	0	-1	500
11550595	8087	570	0	-100	0	230	101300000	1000	0	0	-1	500
11563155	8075	570	0	-100	0	230	101300000	1000	0	0	-1	500
11575715	8091	568	0	-100	0	230	101300000	1000	0	0	-1	500
11588275	8093	568	0	-100	0	230	101300000	1000	0	0	-1	500
11600835	8088	567	0	-100	0	230	101300000	1000	0	0	-1	500
11613395	8093	569	0	-100	0	230	101300000	1000	0	0	-1	500
11625955	8097	566	0	-100	0	230	101300000	1000	0	0	-1	500
11638515	8087	568	0	-100	0	230	101300000	1000	0	0	-1	500
11651075	8095	568	0	-100	0	230	101300000	1000	0	0	-1	500
11663635	8100	567	0	-100	0	230	101300000	1000	0	0	-1	500
11676195	8100	566	0	-100	0	230	101300000	1000	0	0	-1	500
11688755	8090	573	0	-100	0	230	101300000	1000	0	0	-1	500
11701315	8086	570	0	-100	0	230	101300000	1000	0	0	-1	500
11713875	8085	567	0	-100	0	230	101300000	1000	0	0	-1	500
11726435	8092	568	0	-100	0	230	101300000	1000	0	0	-1	500
11738995	8104	568	0	-100	0	230	101300000	1000	0	0	-1	500
11751555	8102	567	0	-100	0	230	101300000	1000	0	0	-1	500
11764115	8092	567	0	-100	0	230	101300000	1000	0	0	-1	500
11776675	8094	571	0	-100	0	230	101300000	1000	0	0	-1	500
11789235	8097	569	0	-100	0	230	101300000	1000	0	0	-1	500
11801795	8098	568	0	-100	0	230	101300000	1000	0	0	-1	500
11814355	8090	566	0	-100	0	230	101300000	1000	0	0	-1	500
11826915	8090	578	0	-100	0	230	101300000	1000	0	0	-1	500
11839475	8097	571	0	-100	0	230	101300000	1000	0	0	-1	500
11852035	8087	568	0	-100	0	230	101300000	1000	0	0	-1	500
11864595	8100	567	0	-100	0	230	101300000	1000	0	0	-1	500
11877155	8100	569	0	-100	0	230	101300000	1000	0	0	-1	500
11889715	8090	571	0	-100	0	230	101300000	1000	0	0	-1	500
11902275	8085	569	0	-100	0	230	101300000	1000	0	0	-1	500
11914835	8087	570	0	-100	0	230	101300000	1000	0	0	-1	500
11927395	8098	570	0	-100	0	230	101300000	1000	0	0	-1	500
11939955	8092	565	0	-100	0	230	101300000	1000	0	0	-1	500
11952515	8098	568	0	-100	0	230	101300000	1000	0	0	-1	500
11965075	8083	570	0	-100	0	230	101300000	1000	0	0	-1	500
11977635	8085	573	0	-100	0	230	101300000	1000	0	0	-1	500
11990195	8087	574	0	-100	0	230	101300000	1000	0	0	-1	500
12002755	8097	569	0	-100	0	230	101300000	1000	0	0	-1	500
12015315	8092	573	0	-100	0	230	101300000	1000	0	0	-1	500
12027875	8093	564	0	-100	0	230	101300000	1000	0	0	-1	500
12040435	8078	568	0	-100	0	230	101300000	1000	0	0	-1	500
12052995	8083	569	0	-100	0	230	101300000	1000	0	0	-1	500
12065555	8092	570	0	-100	0	230	101300000	1000	0	0	-1	500
12078115	8085	569	0	-100	0	230	101300000	1000	0	0	-1	500
12090675	8088	568	0	-100	0	230	101300000	1000	0	0	-1	500
12103235	8097	572	0	-100	0	230	101300000	1000	0	0	-1	500
12115795	8092	565	0	-100	0	230	101300000	1000	0	0	-1	500
12128355	8095	564	0	-100	0	230	101300000	1000	0	0	-1	500
12140915	8086	569	0	-100	0	230	101300000	1000	0	0	-1	500
12153475	8088	568	0	-100	0	230	101300000	1000	0	0	-1	500
12166035	8100	570	0	-100	0	230	101300000	1000	0	0	-1	500
12178595	8094	569	0	-100	0	230	101300000	1000	0	0	-1	500
12191155	8085	567	0	-100	0	230	101300000	1000	0	0	-1	500
12203715	8092	569	0	-100	0	230	101300000	1000	0	0	-1	500
12216275	8092	565	0	-100	0	230	101300000	1000	0	0	-1	500
12228835	8092	573	0	-100	0	230	101300000	1000	0	0	-1	500
12241395	8090	564	0	-100	0	230	101300000	1000	0	0	-1	500
12253955	8087	574	0	-100	0	230	101300000	1000	0	0	-1	500
12266515	8092	561	0	-100	0	230	101300000	1000	0	0	-1	500
12279075	8100	567	0	-100	0	230	101300000	1000	0	0	-1	500
12291635	8097	570	0	-100	0	230	101300000	1000	0	0	-1	500
12304195	8095	568	0	-100	0	230	101300000	1000	0	0	-1	500
12316755	8085	573	0	-100	0	230	101300000	1000	0	0	-1	500
12329315	8097	572	0	-100	0	230	101300000	1000	0	0	-1	500
12341875	8090	565	0	-100	0	230	101300000	1000	0	0	-1	500
12354435	8090	567	0	-100	0	230	101300000	1000	0	0	-1	500
12366995	8092	570	0	-100	0	230	101300000	1000	0	0	-1	500
12379555	8093	570	0	-100	0	230	101300000	1000	0	0	-1	500
12392115	8081	568	0	-100	0	230	101300000	1000	0	0	-1	500
12404675	8090	573	0	-100	0	230	101300000	1000	0	0	-1	500
12417235	8092	571	0	-100	0	230	101300000	1000	0	0	-1	500
12429795	8090	569	0	-100	0	230	101300000	1000	0	0	-1	500
12442355	8097	570	0	-100	0	230	101300000	1000	0	0	-1	500
12454915	8102	569	0	-100	0	230	101300000	1000	0	0	-1	500
12467475	8095	564	0	-100	0	230	101300000	1000	0	0	-1	500
12480035	8090	569	0	-100	0	230	101300000	1000	0	0	-1	500
12492595	8093	563	0	-100	0	230	101300000	1000	0	0	-1	500
12505155	8088	567	0	-100	0	230	101300000	1000	0	0	-1	500
12517715	8098	570	0	-100	0	230	101300000	1000	0	0	-1	500
12530275	8086	570	0	-100	0	230	101300000	1000	0	0	-1	500
12542835	8086	567	0	-100	0	230	101300000	1000	0	0	-1	500
12555395	8093	567	0	-100	0	230	101300000	1000	0	0	-1	500
12567955	8087	567	0	-100	0	230	101300000	1000	0	0	-1	500
12580515	8099	571	0	-100	0	230	101300000	1000	0	0	-1	500
12593075	8095	573	0	-100	0	230	101300000	1000	0	0	-1	500
12605635	8102	564	0	-100	0	230	101300000	1000	0	0	-1	500
12618195	8088	573	0	-100	0	230	101300000	1000	0	0	-1	500
12630755	8093	566	0	-100	0	230	101300000	1000	0	0	-1	500
12643315	8092	566	0	-100	0	230	101300000	1000	0	0	-1	500
12655875	8097	565	0	-100	0	230	101300000	1000	0	0	-1	500
12668435	8088	566	0	-100	0	230	101300000	1000	0	0	-1	500
12680995	8090	566	0	-100	0	230	101300000	1000	0	0	-1	500
12693555	8098	568	0	-100	0	230	101300000	1000	0	0	-1	500
12706115	8085	569	0	-100	0	230	101300000	1000	0	0	-1	500
12718675	8104	574	0	-100	0	230	101300000	1000	0	0	-1	500
12731235	8090	572	0	-100	0	230	101300000	1000	0	0	-1	500
12743795	8095	572	0	-100	0	230	101300000	1000	0	0	-1	500
12756355	8105	568	0	-100	0	230	101300000	1000	0	0	-1	500
12768915	8095	565	0	-100	0	230	101300000	1000	0	0	-1	500
12781475	8088	569	0	-100	0	230	101300000	1000	0	0	-1	500
12794035	8097	566	0	-100	0	230	101300000	1000	0	0	-1	500
12806595	8090	570	0	-100	0	230	101300000	1000	0	0	-1	500
12819155	8102	570	0	-100	0	230	101300000	1000	0	0	-1	500
12831715	8098	568	0	-100	0	230	101300000	1000	0	0	-1	500
12844275	8102	569	0	-100	0	230	101300000	1000	0	0	-1	500
12856835	8086	566	0	-100	0	230	101300000	1000	0	0	-1	500
12869395	8092	574	0	-100	0	230	101300000	1000	0	0	-1	500
12881955	8097	572	0	-100	0	230	101300000	1000	0	0	-1	500
12894515	8090	570	0	-100	0	230	101300000	1000	0	0	-1	500
12907075	8092	566	0	-100	0	230	101300000	1000	0	0	-1	500
12919635	8095	564	0	-100	0	230	101300000	1000	0	0	-1	500
12932195	8104	566	0	-100	0	230	101300000	1000	0	0	-1	500
12944755	8097	567	0	-100	0	230	101300000	1000	0	0	-1	500
12957315	8102	570	0	-100	0	230	101300000	1000	0	0	-1	500
12969875	8092	570	0	-100	0	230	101300000	1000	0	0	-1	500
12982435	8097	565	0	-100	0	230	101300000	1000	0	0	-1	500
12994995	8095	566	0	-100	0	230	101300000	1000	0	0	-1	500
13007555	8092	568	0	-100	0	230	101300000	1000	0	0	-1	500
13020115	8083	572	0	-100	0	230	101300000	1000	0	0	-1	500
13032675	8100	571	0	-100	0	230	101300000	1000	0	0	-1	500
13045235	8092	570	0	-100	0	230	101300000	1000	0	0	-1	500
13057795	8094	568	0	-100	0	230	101300000	1000	0	0	-1	500
13070355	8106	569	0	-100	0	230	101300000	1000	0	0	-1	500
13082915	8090	562	0	-100	0	230	101300000	1000	0	0	-1	500
13095475	8078	571	0	-100	0	230	101300000	1000	0	0	-1	500
13108035	8090	569	0	-100	0	230	101300000	1000	0	0	-1	500
13120595	8087	568	0	-100	0	230	101300000	1000	0	0	-1	500
13133155	8099	571	0	-100	0	230	101300000	1000	0	0	-1	500
13145715	8102	571	0	-100	0	230	101300000	1000	0	0	-1	500
13158275	8090	568	0	-100	0	230	101300000	1000	0	0	-1	500
13170835	8097	569	0	-100	0	230	101300000	1000	0	0	-1	500
13183395	8086	569	0	-100	0	230	101300000	1000	0	0	-1	500
13195955	8087	573	0	-100	0	230	101300000	1000	0	0	-1	500
13208515	8081	571	0	-100	0	230	101300000	1000	0	0	-1	500
13221075	8097	571	0	-100	0	230	101300000	1000	0	0	-1	500
13233635	8102	546	0	-100	0	230	101300000	1000	0	0	-1	500
13246195	8095	570	0	-100	0	230	101300000	1000	0	0	-1	500
13258755	8102	573	0	-100	0	230	101300000	1000	0	0	-1	500
13271315	8095	569	0	-100	0	230	101300000	1000	0	0	-1	500
13283875	8095	565	0	-100	0	230	101300000	1000	0	0	-1	500
13296435	8088	565	0	-100	0	230	101300000	1000	0	0	-1	500
13308995	8080	568	0	-100	0	230	101300000	1000	0	0	-1	500
13321555	8093	548	0	-100	0	230	101300000	1000	0	0	-1	500
13334115	8100	571	0	-100	0	230	101300000	1000	0	0	-1	500
13346675	8092	568	0	-100	0	230	101300000	1000	0	0	-1	500
13359235	8100	569	0	-100	0	230	101300000	1000	0	0	-1	500
13371795	8098	569	0	-100	0	230	101300000	1000	0	0	-1	500
13384355	8085	569	0	-100	0	230	101300000	1000	0	0	-1	500
13396915	8092	572	0	-100	0	230	101300000	1000	0	0	-1	500
13409475	8095	566	0	-100	0	230	101300000	1000	0	0	-1	500
13422035	8090	564	0	-100	0	230	101300000	1000	0	0	-1	500
13434595	8093	573	0	-100	0	230	101300000	1000	0	0	-1	500
13447155	8087	570	0	-100	0	230	101300000	1000	0	0	-1	500
13459715	8095	550	0	-100	0	230	101300000	1000	0	0	-1	500
13472275	8083	573	0	-100	0	230	101300000	1000	0	0	-1	500
13484835	8100	573	0	-100	0	230	101300000	1000	0	0	-1	500
13497395	8088	564	0	-100	0	230	101300000	1000	0	0	-1	500
13509955	8095	569	0	-100	0	230	101300000	1000	0	0	-1	500
13522515	8088	570	0	-100	0	230	101300000	1000	0	0	-1	500
13535075	8095	569	0	-100	0	230	101300000	1000	0	0	-1	500
13547635	8097	567	0	-100	0	230	101300000	1000	0	0	-1	500
13560195	8093	571	0	-100	0	230	101300000	1000	0	0	-1	500
13572755	8088	568	0	-100	0	230	101300000	1000	0	0	-1	500
13585315	8095	568	0	-100	0	230	101300000	1000	0	0	-1	500
13597875	8092	569	0	-100	0	230	101300000	1000	0	0	-1	500
13610435	8102	570	0	-100	0	230	101300000	1000	0	0	-1	500
13622995	8100	567	0	-100	0	230	101300000	1000	0	0	-1	500
13635555	8095	571	0	-100	0	230	101300000	1000	0	0	-1	500
13648115	8093	568	0	-100	0	230	101300000	1000	0	0	-1	500
13660675	8085	567	0	-100	0	230	101300000	1000	0	0	-1	500
13673235	8098	568	0	-100	0	230	101300000	1000	0	0	-1	500
13685795	8087	575	0	-100	0	230	101300000	1000	0	0	-1	500
13698355	8093	567	0	-100	0	230	101300000	1000	0	0	-1	500
13710915	8100	571	0	-100	0	230	101300000	1000	0	0	-1	500
13723475	8098	568	0	-100	0	230	101300000	1000	0	0	-1	500
13736035	8082	571	0	-100	0	230	101300000	1000	0	0	-1	500
13748595	8095	565	0	-100	0	230	101300000	1000	0	0	-1	500
13761155	8097	574	0	-100	0	230	101300000	1000	0	0	-1	500
13773715	8095	570	0	-100	0	230	101300000	1000	0	0	-1	500
13786275	8090	573	0	-100	0	230	101300000	1000	0	0	-1	500
13798835	8100	570	0	-100	0	230	101300000	1000	0	0	-1	500
13811395	8085	571	0	-100	0	230	101300000	1000	0	0	-1	500
13823955	8085	572	0	-100	0	230	101300000	1000	0	0	-1	500
13836515	8088	571	0	-100	0	230	101300000	1000	0	0	-1	500
13849075	8095	571	0	-100	0	230	101300000	1000	0	0	-1	500
13861635	8092	570	0	-100	0	230	101300000	1000	0	0	-1	500
13874195	8107	574	0	-100	0	230	101300000	1000	0	0	-1	500
13886755	8102	571	0	-100	0	230	101300000	1000	0	0	-1	500
13899315	8087	571	0	-100	0	230	101300000	1000	0	0	-1	500
13911875	8095	567	0	-100	0	230	101300000	1000	0	0	-1	500
13924435	8095	567	0	-100	0	230	101300000	1000	0	0	-1	500
13936995	8086	560	0	-100	0	230	101300000	1000	0	0	-1	500
13949555	8093	565	0	-100	0	230	101300000	1000	0	0	-1	500
13962115	8085	572	0	-100	0	230	101300000	1000	0	0	-1	500
13974675	8087	565	0	-100	0	230	101300000	1000	0	0	-1	500
13987235	8104	571	0	-100	0	230	101300000	1000	0	0	-1	500
13999795	8093	568	0	-100	0	230	101300000	1000	0	0	-1	500
14012355	8095	568	0	-100	0	230	101300000	1000	0	0	-1	500
14024915	8100	566	0	-100	0	230	101300000	1000	0	0	-1	500
14037475	8088	566	0	-100	0	230	101300000	1000	0	0	-1	500
14050035	8095	570	0	-100	0	230	101300000	1000	0	0	-1	500
14062595	8088	572	0	-100	0	230	101300000	1000	0	0	-1	500
14075155	8088	568	0	-100	0	230	101300000	1000	0	0	-1	500
14087715	8085	575	0	-100	0	230	101300000	1000	0	0	-1	500
14100275	8100	569	0	-100	0	230	101300000	1000	0	0	-1	500
14112835	8100	566	0	-100	0	230	101300000	1000	0	0	-1	500
14125395	8083	568	0	-100	0	230	101300000	1000	0	0	-1	500
14137955	8107	570	0	-100	0	230	101300000	1000	0	0	-1	500
14150515	8088	568	0	-100	0	230	101300000	1000	0	0	-1	500
14163075	8095	567	0	-100	0	230	101300000	1000	0	0	-1	500
14175635	8095	569	0	-100	0	230	101300000	1000	0	0	-1	500
14188195	8095	567	0	-100	0	230	101300000	1000	0	0	-1	500
14200755	8077	568	0	-100	0	230	101300000	1000	0	0	-1	500
14213315	8092	565	0	-100	0	230	101300000	1000	0	0	-1	500
14225875	8087	547	0	-100	0	230	101300000	1000	0	0	-1	500
14238435	8097	564	0	-100	0	230	101300000	1000	0	0	-1	500
14250995	8085	566	0	-100	0	230	101300000	1000	0	0	-1	500
14263555	8100	569	0	-100	0	230	101300000	1000	0	0	-1	500
14276115	8090	572	0	-100	0	230	101300000	1000	0	0	-1	500
14288675	8100	571	0	-100	0	230	101300000	1000	0	0	-1	500
14301235	8093	571	0	-100	0	230	101300000	1000	0	0	-1	500
14313795	8087	568	0	-100	0	230	101300000	1000	0	0	-1	500
14326355	8090	564	0	-100	0	230	101300000	1000	0	0	-1	500
14338915	8090	574	0	-100	0	230	101300000	1000	0	0	-1	500
14351475	8085	566	0	-100	0	230	101300000	1000	0	0	-1	500
14364035	8093	568	0	-100	0	230	101300000	1000	0	0	-1	500
14376595	8093	565	0	-100	0	230	101300000	1000	0	0	-1	500
14389155	8081	571	0	-100	0	230	101300000	1000	0	0	-1	500
14401715	8090	567	0	-100	0	230	101300000	1000	0	0	-1	500
14414275	8085	571	0	-100	0	230	101300000	1000	0	0	-1	500
14426835	8087	567	0	-100	0	230	101300000	1000	0	0	-1	500
14439395	8092	568	0	-100	0	230	101300000	1000	0	0	-1	500
14451955	8095	569	0	-100	0	230	101300000	1000	0	0	-1	500
14464515	8090	569	0	-100	0	230	101300000	1000	0	0	-1	500
14477075	8085	566	0	-100	0	230	101300000	1000	0	0	-1	500
14489635	8100	568	0	-100	0	230	101300000	1000	0	0	-1	500
14502195	8092	567	0	-100	0	230	101300000	1000	0	0	-1	500
14514755	8092	570	0	-100	0	230	101300000	1000	0	0	-1	500
14527315	8095	568	0	-100	0	230	101300000	1000	0	0	-1	500
14539875	8098	568	0	-100	0	230	101300000	1000	0	0	-1	500
14552435	8091	567	0	-100	0	230	101300000	1000	0	0	-1	500
14564995	8100	573	0	-100	0	230	101300000	1000	0	0	-1	500
14577555	8112	571	0	-100	0	230	101300000	1000	0	0	-1	500
14590115	8095	567	0	-100	0	230	101300000	1000	0	0	-1	500
14602675	8085	562	0	-100	0	230	101300000	1000	0	0	-1	500
14615235	8088	569	0	-100	0	230	101300000	1000	0	0	-1	500
14627795	8104	573	0	-100	0	230	101300000	1000	0	0	-1	500
14640355	8097	568	0	-100	0	230	101300000	1000	0	0	-1	500
14652915	8097	568	0	-100	0	230	101300000	1000	0	0	-1	500
14665475	8097	569	0	-100	0	230	101300000	1000	0	0	-1	500
14678035	8078	569	0	-100	0	230	101300000	1000	0	0	-1	500
14690595	8102	561	0	-100	0	230	101300000	1000	0	0	-1	500
14703155	8104	570	0	-100	0	230	101300000	1000	0	0	-1	500
14715715	8088	565	0	-100	0	230	101300000	1000	0	0	-1	500
14728275	8090	570	0	-100	0	230	101300000	1000	0	0	-1	500
14740835	8102	567	0	-100	0	230	101300000	1000	0	0	-1	500
14753395	8090	568	0	-100	0	230	101300000	1000	0	0	-1	500
14765955	8090	573	0	-100	0	230	101300000	1000	0	0	-1	500
14778515	8097	574	0	-100	0	230	101300000	1000	0	0	-1	500
14791075	8087	571	0	-100	0	230	101300000	1000	0	0	-1	500
14803635	8092	566	0	-100	0	230	101300000	1000	0	0	-1	500
14816195	8098	564	0	-100	0	230	101300000	1000	0	0	-1	500
14828755	8090	567	0	-100	0	230	101300000	1000	0	0	-1	500
14841315	8078	570	0	-100	0	230	101300000	1000	0	0	-1	500
14853875	8092	568	0	-100	0	230	101300000	1000	0	0	-1	500
14866435	8083	573	0	-100	0	230	101300000	1000	0	0	-1	500
14878995	8087	571	0	-100	0	230	101300000	1000	0	0	-1	500
14891555	8092	566	0	-100	0	230	101300000	1000	0	0	-1	500
14904115	8100	567	0	-100	0	230	101300000	1000	0	0	-1	500
14916675	8088	572	0	-100	0	230	101300000	1000	0	0	-1	500
14929235	8093	568	0	-100	0	230	101300000	1000	0	0	-1	500
14941795	8090	570	0	-100	0	230	101300000	1000	0	0	-1	500
14954355	8088	572	0	-100	0	230	101300000	1000	0	0	-1	500
14966915	8083	569	0	-100	0	230	101300000	1000	0	0	-1	500
14979475	8100	570	0	-100	0	230	101300000	1000	0	0	-1	500
14992035	8102	570	0	-100	0	230	101300000	1000	0	0	-1	500
15004595	8090	568	0	-100	0	230	101300000	1000	0	0	-1	500
15017155	8088	574	0	-100	0	230	101300000	1000	0	0	-1	500
15029715	8090	572	0	-100	0	230	101300000	1000	0	0	-1	500
15042275	8088	568	0	-100	0	230	101300000	1000	0	0	-1	500
15054835	8095	568	0	-100	0	230	101300000	1000	0	0	-1	500
15067395	8085	561	0	-100	0	230	101300000	1000	0	0	-1	500
15079955	8097	566	0	-100	0	230	101300000	1000	0	0	-1	500
15092515	8097	569	0	-100	0	230	101300000	1000	0	0	-1	500
15105075	8081	566	0	-100	0	230	101300000	1000	0	0	-1	500
15117635	8095	568	0	-100	0	230	101300000	1000	0	0	-1	500
15130195	8097	569	0	-100	0	230	101300000	1000	0	0	-1	500
15142755	8100	573	0	-100	0	230	101300000	1000	0	0	-1	500
15155315	8099	571	0	-100	0	230	101300000	1000	0	0	-1	500
15167875	8088	570	0	-100	0	230	101300000	1000	0	0	-1	500
15180435	8098	569	0	-100	0	230	101300000	1000	0	0	-1	500
15192995	8107	571	0	-100	0	230	101300000	1000	0	0	-1	500
15205555	8102	566	0	-100	0	230	101300000	1000	0	0	-1	500
15218115	8091	568	0	-100	0	230	101300000	1000	0	0	-1	500
15230675	8083	569	0	-100	0	230	101300000	1000	0	0	-1	500
15243235	8088	572	0	-100	0	230	101300000	1000	0	0	-1	500
15255795	8085	567	0	-100	0	230	101300000	1000	0	0	-1	500
15268355	8090	564	0	-100	0	230	101300000	1000	0	0	-1	500
15280915	8095	565	0	-100	0	230	101300000	1000	0	0	-1	500
15293475	8100	564	0	-100	0	230	101300000	1000	0	0	-1	500
15306035	8093	569	0	-100	0	230	101300000	1000	0	0	-1	500
15318595	8100	565	0	-100	0	230	101300000	1000	0	0	-1	500
15331155	8086	568	0	-100	0	230	101300000	1000	0	0	-1	500
15343715	8095	571	0	-100	0	230	101300000	1000	0	0	-1	500
15356275	8090	572	0	-100	0	230	101300000	1000	0	0	-1	500
15368835	8097	574	0	-100	0	230	101300000	1000	0	0	-1	500
15381395	8097	571	0	-100	0	230	101300000	1000	0	0	-1	500
15393955	8093	564	0	-100	0	230	101300000	1000	0	0	-1	500
15406515	8087	566	0	-100	0	230	101300000	1000	0	0	-1	500
15419075	8090	567	0	-100	0	230	101300000	1000	0	0	-1	500
15431635	8095	569	0	-100	0	230	101300000	1000	0	0	-1	500
15444195	8092	562	0	-100	0	230	101300000	1000	0	0	-1	500
15456755	8104	568	0	-100	0	230	101300000	1000	0	0	-1	500
15469315	8102	573	0	-100	0	230	101300000	1000	0	0	-1	500
15481875	8097	567	0	-100	0	230	101300000	1000	0	0	-1	500
15494435	8088	572	0	-100	0	230	101300000	1000	0	0	-1	500
15506995	8078	566	0	-100	0	230	101300000	1000	0	0	-1	500
15519555	8095	570	0	-100	0	230	101300000	1000	0	0	-1	500
15532115	8087	569	0	-100	0	230	101300000	1000	0	0	-1	500
15544675	8100	568	0	-100	0	230	101300000	1000	0	0	-1	500
15557235	8104	568	0	-100	0	230	101300000	1000	0	0	-1	500
15569795	8088	568	0	-100	0	230	101300000	1000	0	0	-1	500
15582355	8083	565	0	-100	0	230	101300000	1000	0	0	-1	500
15594915	8078	568	0	-100	0	230	101300000	1000	0	0	-1	500
15607475	8087	568	0	-100	0	230	101300000	1000	0	0	-1	500
15620035	8090	574	0	-100	0	230	101300000	1000	0	0	-1	500
15632595	8090	572	0	-100	0	230	101300000	1000	0	0	-1	500
15645155	8102	568	0	-100	0	230	101300000	1000	0	0	-1	500
15657715	8097	566	0	-100	0	230	101300000	1000	0	0	-1	500
15670275	8102	568	0	-100	0	230	101300000	1000	0	0	-1	500
15682835	8100	566	0	-100	0	230	101300000	1000	0	0	-1	500
15695395	8095	569	0	-100	0	230	101300000	1000	0	0	-1	500
15707955	8095	570	0	-100	0	230	101300000	1000	0	0	-1	500
15720515	8100	566	0	-100	0	230	101300000	1000	0	0	-1	500
15733075	8088	571	0	-100	0	230	101300000	1000	0	0	-1	500
15745635	8090	569	0	-100	0	230	101300000	1000	0	0	-1	500
15758195	8102	567	0	-100	0	230	101300000	1000	0	0	-1	500
15770755	8095	568	0	-100	0	230	101300000	1000	0	0	-1	500
15783315	8090	569	0	-100	0	230	101300000	1000	0	0	-1	500
15795875	8085	571	0	-100	0	230	101300000	1000	0	0	-1	500
15808435	8100	571	0	-100	0	230	101300000	1000	0	0	-1	500
15820995	8097	568	0	-100	0	230	101300000	1000	0	0	-1	500
15833555	8088	563	0	-100	0	230	101300000	1000	0	0	-1	500
15846115	8093	570	0	-100	0	230	101300000	1000	0	0	-1	500
15858675	8097	572	0	-100	0	230	101300000	1000	0	0	-1	500
15871235	8093	574	0	-100	0	230	101300000	1000	0	0	-1	500
15883795	8097	569	0	-100	0	230	101300000	1000	0	0	-1	500
15896355	8092	567	0	-100	0	230	101300000	1000	0	0	-1	500
15908915	8102	566	0	-100	0	230	101300000	1000	0	0	-1	500
15921475	8102	568	0	-100	0	230	101300000	1000	0	0	-1	500
15934035	8100	569	0	-100	0	230	101300000	1000	0	0	-1	500
15946595	8093	566	0	-100	0	230	101300000	1000	0	0	-1	500
15959155	8083	549	0	-100	0	230	101300000	1000	0	0	-1	500
15971715	8092	571	0	-100	0	230	101300000	1000	0	0	-1	500
15984275	8102	571	0	-100	0	230	101300000	1000	0	0	-1	500
15996835	8095	557	0	-100	0	230	101300000	1000	0	0	-1	500
16009395	8092	572	0	-100	0	230	101300000	1000	0	0	-1	500
16021955	8095	567	0	-100	0	230	101300000	1000	0	0	-1	500
16034515	8095	572	0	-100	0	230	101300000	1000	0	0	-1	500
16047075	8088	570	0	-100	0	230	101300000	1000	0	0	-1	500
16059635	8095	572	0	-100	0	230	101300000	1000	0	0	-1	500
16072195	8095	570	0	-100	0	230	101300000	1000	0	0	-1	500
16084755	8085	568	0	-100	0	230	101300000	1000	0	0	-1	500
16097315	8085	568	0	-100	0	230	101300000	1000	0	0	-1	500
16109875	8097	567	0	-100	0	230	101300000	1000	0	0	-1	500
16122435	8085	573	0	-100	0	230	101300000	1000	0	0	-1	500
16134995	8095	567	0	-100	0	230	101300000	1000	0	0	-1	500
16147555	8097	574	0	-100	0	230	101300000	1000	0	0	-1	500
16160115	8102	569	0	-100	0	230	101300000	1000	0	0	-1	500
16172675	8102	571	0	-100	0	230	101300000	1000	0	0	-1	500
16185235	8087	571	0	-100	0	230	101300000	1000	0	0	-1	500
16197795	8083	568	0	-100	0	230	101300000	1000	0	0	-1	500
16210355	8093	569	0	-100	0	230	101300000	1000	0	0	-1	500
16222915	8092	552	0	-100	0	230	101300000	1000	0	0	-1	500
16235475	8102	567	0	-100	0	230	101300000	1000	0	0	-1	500
16248035	8104	567	0	-100	0	230	101300000	1000	0	0	-1	500
16260595	8104	570	0	-100	0	230	101300000	1000	0	0	-1	500
16273155	8095	567	0	-100	0	230	101300000	1000	0	0	-1	500
16285715	8100	568	0	-100	0	230	101300000	1000	0	0	-1	500
16298275	8092	565	0	-100	0	230	101300000	1000	0	0	-1	500
16310835	8095	572	0	-100	0	230	101300000	1000	0	0	-1	500
16323395	8090	566	0	-100	0	230	101300000	1000	0	0	-1	500
16335955	8100	572	0	-100	0	230	101300000	1000	0	0	-1	500
16348515	8102	572	0	-100	0	230	101300000	1000	0	0	-1	500
16361075	8104	571	0	-100	0	230	101300000	1000	0	0	-1	500
16373635	8084	567	0	-100	0	230	101300000	1000	0	0	-1	500
16386195	8100	565	0	-100	0	230	101300000	1000	0	0	-1	500
16398755	8088	573	0	-100	0	230	101300000	1000	0	0	-1	500
16411315	8097	571	0	-100	0	230	101300000	1000	0	0	-1	500
16423875	8102	567	0	-100	0	230	101300000	1000	0	0	-1	500
16436435	8097	566	0	-100	0	230	101300000	1000	0	0	-1	500
16448995	8095	571	0	-100	0	230	101300000	1000	0	0	-1	500
16461555	8095	569	0	-100	0	230	101300000	1000	0	0	-1	500
16474115	8092	566	0	-100	0	230	101300000	1000	0	0	-1	500
16486675	8085	569	0	-100	0	230	101300000	1000	0	0	-1	500
16499235	8093	551	0	-100	0	230	101300000	1000	0	0	-1	500
16511795	8092	571	0	-100	0	230	101300000	1000	0	0	-1	500
16524355	8100	566	0	-100	0	230	101300000	1000	0	0	-1	500
16536915	8104	567	0	-100	0	230	101300000	1000	0	0	-1	500
16549475	8085	549	0	-100	0	230	101300000	1000	0	0	-1	500
16562035	8090	568	0	-100	0	230	101300000	1000	0	0	-1	500
16574595	8095	569	0	-100	0	230	101300000	1000	0	0	-1	500
16587155	8090	567	0	-100	0	230	101300000	1000	0	0	-1	500
16599715	8094	572	0	-100	0	230	101300000	1000	0	0	-1	500
16612275	8097	570	0	-100	0	230	101300000	1000	0	0	-1	500
16624835	8095	566	0	-100	0	230	101300000	1000	0	0	-1	500
16637395	8092	566	0	-100	0	230	101300000	1000	0	0	-1	500
16649955	8090	571	0	-100	0	230	101300000	1000	0	0	-1	500
16662515	8080	571	0	-100	0	230	101300000	1000	0	0	-1	500
16675075	8102	571	0	-100	0	230	101300000	1000	0	0	-1	500
16687635	8095	566	0	-100	0	230	101300000	1000	0	0	-1	500
16700195	8093	570	0	-100	0	230	101300000	1000	0	0	-1	500
16712755	8088	565	0	-100	0	230	101300000	1000	0	0	-1	500
16725315	8086	568	0	-100	0	230	101300000	1000	0	0	-1	500
16737875	8090	571	0	-100	0	230	101300000	1000	0	0	-1	500
16750435	8098	567	0	-100	0	230	101300000	1000	0	0	-1	500
16762995	8092	566	0	-100	0	230	101300000	1000	0	0	-1	500
16775555	8088	567	0	-100	0	230	101300000	1000	0	0	-1	500
16788115	8092	566	0	-100	0	230	101300000	1000	0	0	-1	500
16800675	8088	569	0	-100	0	230	101300000	1000	0	0	-1	500
16813235	8100	568	0	-100	0	230	101300000	1000	0	0	-1	500
16825795	8097	569	0	-100	0	230	101300000	1000	0	0	-1	500
16838355	8085	574	0	-100	0	230	101300000	1000	0	0	-1	500
16850915	8102	570	0	-100	0	230	101300000	1000	0	0	-1	500
16863475	8097	572	0	-100	0	230	101300000	1000	0	0	-1	500
16876035	8093	568	0	-100	0	230	101300000	1000	0	0	-1	500
16888595	8090	577	0	-100	0	230	101300000	1000	0	0	-1	500
16901155	8090	570	0	-100	0	230	101300000	1000	0	0	-1	500
16913715	8102	572	0	-100	0	230	101300000	1000	0	0	-1	500
16926275	8099	575	0	-100	0	230	101300000	1000	0	0	-1	500
16938835	8100	571	0	-100	0	230	101300000	1000	0	0	-1	500
16951395	8090	572	0	-100	0	230	101300000	1000	0	0	-1	500
16963955	8091	570	0	-100	0	230	101300000	1000	0	0	-1	500
16976515	8107	571	0	-100	0	230	101300000	1000	0	0	-1	500
16989075	8076	571	0	-100	0	230	101300000	1000	0	0	-1	500
17001635	8090	567	0	-100	0	230	101300000	1000	0	0	-1	500
17014195	8086	567	0	-100	0	230	101300000	1000	0	0	-1	500
17026755	8102	573	0	-100	0	230	101300000	1000	0	0	-1	500
17039315	8088	566	0	-100	0	230	101300000	1000	0	0	-1	500
17051875	8083	573	0	-100	0	230	101300000	1000	0	0	-1	500
17064435	8099	574	0	-100	0	230	101300000	1000	0	0	-1	500
17076995	8095	566	0	-100	0	230	101300000	1000	0	0	-1	500
17089555	8085	566	0	-100	0	230	101300000	1000	0	0	-1	500
17102115	8092	571	0	-100	0	230	101300000	1000	0	0	-1	500
17114675	8095	566	0	-100	0	230	101300000	1000	0	0	-1	500
17127235	8095	571	0	-100	0	230	101300000	1000	0	0	-1	500
17139795	8099	569	0	-100	0	230	101300000	1000	0	0	-1	500
17152355	8097	571	0	-100	0	230	101300000	1000	0	0	-1	500
17164915	8088	572	0	-100	0	230	101300000	1000	0	0	-1	500
17177475	8090	575	0	-100	0	230	101300000	1000	0	0	-1	500
17190035	8090	572	0	-100	0	230	101300000	1000	0	0	-1	500
17202595	8092	573	0	-100	0	230	101300000	1000	0	0	-1	500
17215155	8095	570	0	-100	0	230	101300000	1000	0	0	-1	500
17227715	8097	571	0	-100	0	230	101300000	1000	0	0	-1	500
17240275	8088	571	0	-100	0	230	101300000	1000	0	0	-1	500
17252835	8095	569	0	-100	0	230	101300000	1000	0	0	-1	500
17265395	8085	569	0	-100	0	230	101300000	1000	0	0	-1	500
17277955	8100	569	0	-100	0	230	101300000	1000	0	0	-1	500
17290515	8086	569	0	-100	0	230	101300000	1000	0	0	-1	500
17303075	8104	569	0	-100	0	230	101300000	1000	0	0	-1	500
17315635	8093	568	0	-100	0	230	101300000	1000	0	0	-1	500
17328195	8107	569	0	-100	0	230	101300000	1000	0	0	-1	500
17340755	8092	568	0	-100	0	230	101300000	1000	0	0	-1	500
17353315	8088	569	0	-100	0	230	101300000	1000	0	0	-1	500
17365875	8093	566	0	-100	0	230	101300000	1000	0	0	-1	500
17378435	8092	568	0	-100	0	230	101300000	1000	0	0	-1	500
17390995	8092	569	0	-100	0	230	101300000	1000	0	0	-1	500
17403555	8092	573	0	-100	0	230	101300000	1000	0	0	-1	500
17416115	8099	570	0	-100	0	230	101300000	1000	0	0	-1	500
17428675	8092	569	0	-100	0	230	101300000	1000	0	0	-1	500
17441235	8083	568	0	-100	0	230	101300000	1000	0	0	-1	500
17453795	8107	568	0	-100	0	230	101300000	1000	0	0	-1	500
17466355	8085	575	0	-100	0	230	101300000	1000	0	0	-1	500
17478915	8097	566	0	-100	0	230	101300000	1000	0	0	-1	500
17491475	8095	564	0	-100	0	230	101300000	1000	0	0	-1	500
17504035	8102	568	0	-100	0	230	101300000	1000	0	0	-1	500
17516595	8102	568	0	-100	0	230	101300000	1000	0	0	-1	500
17529155	8087	568	0	-100	0	230	101300000	1000	0	0	-1	500
17541715	8100	564	0	-100	0	230	101300000	1000	0	0	-1	500
17554275	8085	570	0	-100	0	230	101300000	1000	0	0	-1	500
17566835	8098	568	0	-100	0	230	101300000	1000	0	0	-1	500
17579395	8090	568	0	-100	0	230	101300000	1000	0	0	-1	500
17591955	8090	566	0	-100	0	230	101300000	1000	0	0	-1	500
17604515	8095	573	0	-100	0	230	101300000	1000	0	0	-1	500
17617075	8081	562	0	-100	0	230	101300000	1000	0	0	-1	500
17629635	8083	569	0	-100	0	230	101300000	1000	0	0	-1	500
17642195	8090	567	0	-100	0	230	101300000	1000	0	0	-1	500
17654755	8097	572	0	-100	0	230	101300000	1000	0	0	-1	500
17667315	8087	574	0	-100	0	230	101300000	1000	0	0	-1	500
17679875	8095	571	0	-100	0	230	101300000	1000	0	0	-1	500
17692435	8099	574	0	-100	0	230	101300000	1000	0	0	-1	500
17704995	8090	571	0	-100	0	230	101300000	1000	0	0	-1	500
17717555	8099	570	0	-100	0	230	101300000	1000	0	0	-1	500
17730115	8102	567	0	-100	0	230	101300000	1000	0	0	-1	500
17742675	8086	570	0	-100	0	230	101300000	1000	0	0	-1	500
17755235	8091	570	0	-100	0	230	101300000	1000	0	0	-1	500
17767795	8088	568	0	-100	0	230	101300000	1000	0	0	-1	500
17780355	8093	563	0	-100	0	230	101300000	1000	0	0	-1	500
17792915	8083	571	0	-100	0	230	101300000	1000	0	0	-1	500
17805475	8100	565	0	-100	0	230	101300000	1000	0	0	-1	500
17818035	8092	566	0	-100	0	230	101300000	1000	0	0	-1	500
17830595	8090	568	0	-100	0	230	101300000	1000	0	0	-1	500
17843155	8092	570	0	-100	0	230	101300000	1000	0	0	-1	500
17855715	8088	565	0	-100	0	230	101300000	1000	0	0	-1	500
17868275	8095	568	0	-100	0	230	101300000	1000	0	0	-1	500
17880835	8092	567	0	-100	0	230	101300000	1000	0	0	-1	500
17893395	8090	574	0	-100	0	230	101300000	1000	0	0	-1	500
17905955	8093	568	0	-100	0	230	101300000	1000	0	0	-1	500
17918515	8104	568	0	-100	0	230	101300000	1000	0	0	-1	500
17931075	8090	568	0	-100	0	230	101300000	1000	0	0	-1	500
17943635	8095	567	0	-100	0	230	101300000	1000	0	0	-1	500
17956195	8086	571	0	-100	0	230	101300000	1000	0	0	-1	500
17968755	8099	570	0	-100	0	230	101300000	1000	0	0	-1	500
17981315	8088	565	0	-100	0	230	101300000	1000	0	0	-1	500
17993875	8100	572	0	-100	0	230	101300000	1000	0	0	-1	500
18006435	8095	570	0	-100	0	230	101300000	1000	0	0	-1	500
18018995	8095	571	0	-100	0	230	101300000	1000	0	0	-1	500
18031555	8083	568	0	-100	0	230	101300000	1000	0	0	-1	500
18044115	8095	567	0	-100	0	230	101300000	1000	0	0	-1	500
18056675	8090	567	0	-100	0	230	101300000	1000	0	0	-1	500
18069235	8095	569	0	-100	0	230	101300000	1000	0	0	-1	500
18081795	8088	566	0	-100	0	230	101300000	1000	0	0	-1	500
18094355	8100	566	0	-100	0	230	101300000	1000	0	0	-1	500
18106915	8090	572	0	-100	0	230	101300000	1000	0	0	-1	500
18119475	8102	569	0	-100	0	230	101300000	1000	0	0	-1	500
18132035	8085	571	0	-100	0	230	101300000	1000	0	0	-1	500
18144595	8102	568	0	-100	0	230	101300000	1000	0	0	-1	500
18157155	8087	574	0	-100	0	230	101300000	1000	0	0	-1	500
18169715	8102	566	0	-100	0	230	101300000	1000	0	0	-1	500
18182275	8090	565	0	-100	0	230	101300000	1000	0	0	-1	500
18194835	8091	572	0	-100	0	230	101300000	1000	0	0	-1	500
18207395	8095	568	0	-100	0	230	101300000	1000	0	0	-1	500
18219955	8097	566	0	-100	0	230	101300000	1000	0	0	-1	500
18232515	8090	565	0	-100	0	230	101300000	1000	0	0	-1	500
18245075	8090	568	0	-100	0	230	101300000	1000	0	0	-1	500
18257635	8090	566	0	-100	0	230	101300000	1000	0	0	-1	500
18270195	8090	573	0	-100	0	230	101300000	1000	0	0	-1	500
18282755	8095	567	0	-100	0	230	101300000	1000	0	0	-1	500
18295315	8083	572	0	-100	0	230	101300000	1000	0	0	-1	500
18307875	8092	570	0	-100	0	230	101300000	1000	0	0	-1	500
18320435	8092	568	0	-100	0	230	101300000	1000	0	0	-1	500
18332995	8087	564	0	-100	0	230	101300000	1000	0	0	-1	500
18345555	8100	570	0	-100	0	230	101300000	1000	0	0	-1	500
18358115	8090	571	0	-100	0	230	101300000	1000	0	0	-1	500
18370675	8085	567	0	-100	0	230	101300000	1000	0	0	-1	500
18383235	8102	568	0	-100	0	230	101300000	1000	0	0	-1	500
18395795	8083	568	0	-100	0	230	101300000	1000	0	0	-1	500
18408355	8094	573	0	-100	0	230	101300000	1000	0	0	-1	500
18420915	8090	568	0	-100	0	230	101300000	1000	0	0	-1	500
18433475	8085	572	0	-100	0	230	101300000	1000	0	0	-1	500
18446035	8092	568	0	-100	0	230	101300000	1000	0	0	-1	500
18458595	8093	568	0	-100	0	230	101300000	1000	0	0	-1	500
18471155	8102	571	0	-100	0	230	101300000	1000	0	0	-1	500
18483715	8097	566	0	-100	0	230	101300000	1000	0	0	-1	500
18496275	8105	566	0	-100	0	230	101300000	1000	0	0	-1	500
18508835	8094	572	0	-100	0	230	101300000	1000	0	0	-1	500
18521395	8093	568	0	-100	0	230	101300000	1000	0	0	-1	500
18533955	8083	573	0	-100	0	230	101300000	1000	0	0	-1	500
18546515	8100	565	0	-100	0	230	101300000	1000	0	0	-1	500
18559075	8100	567	0	-100	0	230	101300000	1000	0	0	-1	500
18571635	8093	566	0	-100	0	230	101300000	1000	0	0	-1	500
18584195	8090	570	0	-100	0	230	101300000	1000	0	0	-1	500
18596755	8102	566	0	-100	0	230	101300000	1000	0	0	-1	500
18609315	8095	572	0	-100	0	230	101300000	1000	0	0	-1	500
18621875	8087	568	0	-100	0	230	101300000	1000	0	0	-1	500
18634435	8104	567	0	-100	0	230	101300000	1000	0	0	-1	500
18646995	8093	569	0	-100	0	230	101300000	1000	0	0	-1	500
18659555	8102	567	0	-100	0	230	101300000	1000	0	0	-1	500
18672115	8080	569	0	-100	0	230	101300000	1000	0	0	-1	500
18684675	8092	571	0	-100	0	230	101300000	1000	0	0	-1	500
18697235	8088	564	0	-100	0	230	101300000	1000	0	0	-1	500
18709795	8095	568	0	-100	0	230	101300000	1000	0	0	-1	500
18722355	8095	569	0	-100	0	230	101300000	1000	0	0	-1	500
18734915	8090	570	0	-100	0	230	101300000	1000	0	0	-1	500
18747475	8095	572	0	-100	0	230	101300000	1000	0	0	-1	500
18760035	8088	570	0	-100	0	230	101300000	1000	0	0	-1	500
18772595	8090	571	0	-100	0	230	101300000	1000	0	0	-1	500
18785155	8102	566	0	-100	0	230	101300000	1000	0	0	-1	500
18797715	8097	569	0	-100	0	230	101300000	1000	0	0	-1	500
18810275	8100	569	0	-100	0	230	101300000	1000	0	0	-1	500
18822835	8095	570	0	-100	0	230	101300000	1000	0	0	-1	500
18835395	8085	567	0	-100	0	230	101300000	1000	0	0	-1	500
18847955	8098	568	0	-100	0	230	101300000	1000	0	0	-1	500
18860515	8092	569	0	-100	0	230	101300000	1000	0	0	-1	500
18873075	8092	568	0	-100	0	230	101300000	1000	0	0	-1	500
18885635	8097	570	0	-100	0	230	101300000	1000	0	0	-1	500
18898195	8074	570	0	-100	0	230	101300000	1000	0	0	-1	500
18910755	8097	566	0	-100	0	230	101300000	1000	0	0	-1	500
18923315	8095	572	0	-100	0	230	101300000	1000	0	0	-1	500
18935875	8109	570	0	-100	0	230	101300000	1000	0	0	-1	500
18948435	8090	567	0	-100	0	230	101300000	1000	0	0	-1	500
18960995	8105	552	0	-100	0	230	101300000	1000	0	0	-1	500
18973555	8100	569	0	-100	0	230	101300000	1000	0	0	-1	500
18986115	8093	569	0	-100	0	230	101300000	1000	0	0	-1	500
18998675	8098	567	0	-100	0	230	101300000	1000	0	0	-1	500
19011235	8102	567	0	-100	0	230	101300000	1000	0	0	-1	500
19023795	8097	569	0	-100	0	230	101300000	1000	0	0	-1	500
19036355	8099	569	0	-100	0	230	101300000	1000	0	0	-1	500
19048915	8092	572	0	-100	0	230	101300000	1000	0	0	-1	500
19061475	8092	568	0	-100	0	230	101300000	1000	0	0	-1	500
19074035	8088	568	0	-100	0	230	101300000	1000	0	0	-1	500
19086595	8090	569	0	-100	0	230	101300000	1000	0	0	-1	500
19099155	8098	568	0	-100	0	230	101300000	1000	0	0	-1	500
19111715	8095	569	0	-100	0	230	101300000	1000	0	0	-1	500
19124275	8085	567	0	-100	0	230	101300000	1000	0	0	-1	500
19136835	8088	570	0	-100	0	230	101300000	1000	0	0	-1	500
19149395	8094	572	0	-100	0	230	101300000	1000	0	0	-1	500
19161955	8095	567	0	-100	0	230	101300000	1000	0	0	-1	500
19174515	8095	566	0	-100	0	230	101300000	1000	0	0	-1	500
19187075	8095	569	0	-100	0	230	101300000	1000	0	0	-1	500
19199635	8092	568	0	-100	0	230	101300000	1000	0	0	-1	500
19212195	8083	569	0	-100	0	230	101300000	1000	0	0	-1	500
19224755	8114	569	0	-100	0	230	101300000	1000	0	0	-1	500
19237315	8092	572	0	-100	0	230	101300000	1000	0	0	-1	500
19249875	8097	570	0	-100	0	230	101300000	1000	0	0	-1	500
19262435	8097	567	0	-100	0	230	101300000	1000	0	0	-1	500
19274995	8095	567	0	-100	0	230	101300000	1000	0	0	-1	500
19287555	8078	568	0	-100	0	230	101300000	1000	0	0	-1	500
19300115	8098	572	0	-100	0	230	101300000	1000	0	0	-1	500
19312675	8090	570	0	-100	0	230	101300000	1000	0	0	-1	500
19325235	8087	574	0	-100	0	230	101300000	1000	0	0	-1	500
19337795	8102	571	0	-100	0	230	101300000	1000	0	0	-1	500
19350355	8102	568	0	-100	0	230	101300000	1000	0	0	-1	500
19362915	8102	571	0	-100	0	230	101300000	1000	0	0	-1	500
19375475	8107	570	0	-100	0	230	101300000	1000	0	0	-1	500
19388035	8083	568	0	-100	0	230	101300000	1000	0	0	-1	500
19400595	8104	570	0	-100	0	230	101300000	1000	0	0	-1	500
19413155	8095	570	0	-100	0	230	101300000	1000	0	0	-1	500
19425715	8104	571	0	-100	0	230	101300000	1000	0	0	-1	500
19438275	8095	568	0	-100	0	230	101300000	1000	0	0	-1	500
19450835	8086	568	0	-100	0	230	101300000	1000	0	0	-1	500
19463395	8092	573	0	-100	0	230	101300000	1000	0	0	-1	500
19475955	8105	572	0	-100	0	230	101300000	1000	0	0	-1	500
19488515	8092	571	0	-100	0	230	101300000	1000	0	0	-1	500
19501075	8091	570	0	-100	0	230	101300000	1000	0	0	-1	500
19513635	8102	572	0	-100	0	230	101300000	1000	0	0	-1	500
19526195	8100	568	0	-100	0	230	101300000	1000	0	0	-1	500
19538755	8099	573	0	-100	0	230	101300000	1000	0	0	-1	500
19551315	8102	573	0	-100	0	230	101300000	1000	0	0	-1	500
19563875	8095	569	0	-100	0	230	101300000	1000	0	0	-1	500
19576435	8100	572	0	-100	0	230	101300000	1000	0	0	-1	500
19588995	8085	570	0	-100	0	230	101300000	1000	0	0	-1	500
19601555	8088	568	0	-100	0	230	101300000	1000	0	0	-1	500
19614115	8090	570	0	-100	0	230	101300000	1000	0	0	-1	500
19626675	8088	565	0	-100	0	230	101300000	1000	0	0	-1	500
19639235	8102	568	0	-100	0	230	101300000	1000	0	0	-1	500
19651795	8083	569	0	-100	0	230	101300000	1000	0	0	-1	500
19664355	8090	568	0	-100	0	230	101300000	1000	0	0	-1	500
19676915	8095	570	0	-100	0	230	101300000	1000	0	0	-1	500
19689475	8090	573	0	-100	0	230	101300000	1000	0	0	-1	500
19702035	8097	566	0	-100	0	230	101300000	1000	0	0	-1	500
19714595	8092	571	0	-100	0	230	101300000	1000	0	0	-1	500
19727155	8100	557	0	-100	0	230	101300000	1000	0	0	-1	500
19739715	8090	571	0	-100	0	230	101300000	1000	0	0	-1	500
19752275	8088	568	0	-100	0	230	101300000	1000	0	0	-1	500
19764835	8107	572	0	-100	0	230	101300000	1000	0	0	-1	500
19777395	8097	573	0	-100	0	230	101300000	1000	0	0	-1	500
19815075	8095	567	0	-100	0	230	101300000	1000	0	0	-1	500
19827635	8102	571	0	-100	0	230	101300000	1000	0	0	-1	500
19840195	8092	570	0	-100	0	230	101300000	1000	0	0	-1	500
19852755	8092	573	0	-100	0	230	101300000	1000	0	0	-1	500
19865315	8105	571	0	-100	0	230	101300000	1000	0	0	-1	500
19877875	8097	575	0	-100	0	230	101300000	1000	0	0	-1	500
19890435	8109	565	0	-100	0	230	101300000	1000	0	0	-1	500
19902995	8090	567	0	-100	0	230	101300000	1000	0	0	-1	500
19915555	8100	573	0	-100	0	230	101300000	1000	0	0	-1	500
19928115	8100	568	0	-100	0	230	101300000	1000	0	0	-1	500
19940675	8086	569	0	-100	0	230	101300000	1000	0	0	-1	500
19953235	8095	568	0	-100	0	230	101300000	1000	0	0	-1	500
20028595	8083	569	0	-100	0	230	101300000	1000	0	0	-1	500
20041155	8097	571	0	-100	0	230	101300000	1000	0	0	-1	500
20053715	8098	567	0	-100	0	230	101300000	1000	0	0	-1	500
20066275	8107	570	0	-100	0	230	101300000	1000	0	0	-1	500
20078835	8097	567	0	-100	0	230	101300000	1000	0	0	-1	500
20091395	8085	566	0	-100	0	230	101300000	1000	0	0	-1	500
20103955	8081	568	0	-100	0	230	101300000	1000	0	0	-1	500
20116515	8098	569	0	-100	0	230	101300000	1000	0	0	-1	500
20129075	8085	571	0	-100	0	230	101300000	1000	0	0	-1	500
20141635	8102	564	0	-100	0	230	101300000	1000	0	0	-1	500
20154195	8097	573	0	-100	0	230	101300000	1000	0	0	-1	500
20166755	8097	565	0	-100	0	230	101300000	1000	0	0	-1	500
20179315	8088	571	0	-100	0	230	101300000	1000	0	0	-1	500
20191875	8086	575	0	-100	0	230	101300000	1000	0	0	-1	500
20204435	8110	568	0	-100	0	230	101300000	1000	0	0	-1	500
20216995	8081	568	0	-100	0	230	101300000	1000	0	0	-1	500
20229555	8097	569	0	-100	0	230	101300000	1000	0	0	-1	500
20242115	8102	569	0	-100	0	230	101300000	1000	0	0	-1	500
20254675	8092	572	0	-100	0	230	101300000	1000	0	0	-1	500
20267235	8105	569	0	-100	0	230	101300000	1000	0	0	-1	500
20279795	8090	573	0	-100	0	230	101300000	1000	0	0	-1	500
20292355	8096	569	0	-100	0	230	101300000	1000	0	0	-1	500
20304915	8081	568	0	-100	0	230	101300000	1000	0	0	-1	500
20317475	8102	569	0	-100	0	230	101300000	1000	0	0	-1	500
20330035	8081	567	0	-100	0	230	101300000	1000	0	0	-1	500
20342595	8107	569	0	-100	0	230	101300000	1000	0	0	-1	500
20355155	8090	570	0	-100	0	230	101300000	1000	0	0	-1	500
20367715	8104	566	0	-100	0	230	101300000	1000	0	0	-1	500
20380275	8088	570	0	-100	0	230	101300000	1000	0	0	-1	500
20392835	8090	569	0	-100	0	230	101300000	1000	0	0	-1	500
20405395	8090	569	0	-100	0	230	101300000	1000	0	0	-1	500
20417955	8090	568	0	-100	0	230	101300000	1000	0	0	-1	500
20430515	8090	568	0	-100	0	230	101300000	1000	0	0	-1	500
20443075	8090	572	0	-100	0	230	101300000	1000	0	0	-1	500
20455635	8098	568	0	-100	0	230	101300000	1000	0	0	-1	500
20468195	8093	568	0	-100	0	230	101300000	1000	0	0	-1	500
20480755	8104	574	0	-100	0	230	101300000	1000	0	0	-1	500
20493315	8100	569	0	-100	0	230	101300000	1000	0	0	-1	500
20505875	8102	571	0	-100	0	230	101300000	1000	0	0	-1	500
20518435	8090	564	0	-100	0	230	101300000	1000	0	0	-1	500
20530995	8092	570	0	-100	0	230	101300000	1000	0	0	-1	500
20543555	8078	569	0	-100	0	230	101300000	1000	0	0	-1	500
20556115	8093	567	0	-100	0	230	101300000	1000	0	0	-1	500
20568675	8092	574	0	-100	0	230	101300000	1000	0	0	-1	500
20581235	8092	572	0	-100	0	230	101300000	1000	0	0	-1	500
20593795	8097	566	0	-100	0	230	101300000	1000	0	0	-1	500
20606355	8088	564	0	-100	0	230	101300000	1000	0	0	-1	500
20618915	8092	570	0	-100	0	230	101300000	1000	0	0	-1	500
20631475	8090	566	0	-100	0	230	101300000	1000	0	0	-1	500
20644035	8090	570	0	-100	0	230	101300000	1000	0	0	-1	500
20656595	8095	571	0	-100	0	230	101300000	1000	0	0	-1	500
20669155	8090	565	0	-100	0	230	101300000	1000	0	0	-1	500
20681715	8087	571	0	-100	0	230	101300000	1000	0	0	-1	500
20694275	8112	565	0	-100	0	230	101300000	1000	0	0	-1	500
20706835	8097	573	0	-100	0	230	101300000	1000	0	0	-1	500
20719395	8097	567	0	-100	0	230	101300000	1000	0	0	-1	500
20731955	8090	570	0	-100	0	230	101300000	1000	0	0	-1	500
20744515	8087	568	0	-100	0	230	101300000	1000	0	0	-1	500
20757075	8092	563	0	-100	0	230	101300000	1000	0	0	-1	500
20769635	8086	569	0	-100	0	230	101300000	1000	0	0	-1	500
20782195	8097	561	0	-100	0	230	101300000	1000	0	0	-1	500
20794755	8085	569	0	-100	0	230	101300000	1000	0	0	-1	500
20807315	8097	569	0	-100	0	230	101300000	1000	0	0	-1	500
20819875	8083	569	0	-100	0	230	101300000	1000	0	0	-1	500
20832435	8095	569	0	-100	0	230	101300000	1000	0	0	-1	500
20844995	8091	555	0	-100	0	230	101300000	1000	0	0	-1	500
20857555	8090	568	0	-100	0	230	101300000	1000	0	0	-1	500
20870115	8112	569	0	-100	0	230	101300000	1000	0	0	-1	500
20882675	8095	575	0	-100	0	230	101300000	1000	0	0	-1	500
20895235	8095	566	0	-100	0	230	101300000	1000	0	0	-1	500
20907795	8085	567	0	-100	0	230	101300000	1000	0	0	-1	500
20920355	8098	568	0	-100	0	230	101300000	1000	0	0	-1	500
20932915	8102	570	0	-100	0	230	101300000	1000	0	0	-1	500
20945475	8092	564	0	-100	0	230	101300000	1000	0	0	-1	500
20958035	8086	573	0	-100	0	230	101300000	1000	0	0	-1	500
20970595	8097	571	0	-100	0	230	101300000	1000	0	0	-1	500
20983155	8085	570	0	-100	0	230	101300000	1000	0	0	-1	500
20995715	8094	570	0	-100	0	230	101300000	1000	0	0	-1	500
21008275	8085	572	0	-100	0	230	101300000	1000	0	0	-1	500
21020835	8102	574	0	-100	0	230	101300000	1000	0	0	-1	500
21033395	8093	567	0	-100	0	230	101300000	1000	0	0	-1	500
21045955	8083	570	0	-100	0	230	101300000	1000	0	0	-1	500
21058515	8088	567	0	-100	0	230	101300000	1000	0	0	-1	500
21071075	8078	574	0	-100	0	230	101300000	1000	0	0	-1	500
21083635	8090	569	0	-100	0	230	101300000	1000	0	0	-1	500
21096195	8102	576	0	-100	0	230	101300000	1000	0	0	-1	500
21108755	8100	572	0	-100	0	230	101300000	1000	0	0	-1	500
21121315	8095	571	0	-100	0	230	101300000	1000	0	0	-1	500
21133875	8095	569	0	-100	0	230	101300000	1000	0	0	-1	500
21146435	8093	569	0	-100	0	230	101300000	1000	0	0	-1	500
21158995	8100	574	0	-100	0	230	101300000	1000	0	0	-1	500
21171555	8095	573	0	-100	0	230	101300000	1000	0	0	-1	500
21184115	8095	568	0	-100	0	230	101300000	1000	0	0	-1	500
21196675	8095	567	0	-100	0	230	101300000	1000	0	0	-1	500
21209235	8080	568	0	-100	0	230	101300000	1000	0	0	-1	500
21221795	8100	567	0	-100	0	230	101300000	1000	0	0	-1	500
21234355	8090	570	0	-100	0	230	101300000	1000	0	0	-1	500
21246915	8107	569	0	-100	0	230	101300000	1000	0	0	-1	500
21259475	8100	569	0	-100	0	230	101300000	1000	0	0	-1	500
21272035	8080	566	0	-100	0	230	101300000	1000	0	0	-1	500
21284595	8105	568	0	-100	0	230	101300000	1000	0	0	-1	500
21297155	8095	569	0	-100	0	230	101300000	1000	0	0	-1	500
21309715	8090	573	0	-100	0	230	101300000	1000	0	0	-1	500
21322275	8090	566	0	-100	0	230	101300000	1000	0	0	-1	500
21334835	8085	567	0	-100	0	230	101300000	1000	0	0	-1	500
21347395	8090	566	0	-100	0	230	101300000	1000	0	0	-1	500
21359955	8095	572	0	-100	0	230	101300000	1000	0	0	-1	500
21372515	8090	571	0	-100	0	230	101300000	1000	0	0	-1	500
21385075	8092	563	0	-100	0	230	101300000	1000	0	0	-1	500
21397635	8088	573	0	-100	0	230	101300000	1000	0	0	-1	500
21410195	8100	572	0	-100	0	230	101300000	1000	0	0	-1	500
21422755	8116	575	0	-100	0	230	101300000	1000	0	0	-1	500
21435315	8098	567	0	-100	0	230	101300000	1000	0	0	-1	500
21447875	8109	570	0	-100	0	230	101300000	1000	0	0	-1	500
21460435	8092	545	0	-100	0	230	101300000	1000	0	0	-1	500
21472995	8093	572	0	-100	0	230	101300000	1000	0	0	-1	500
21485555	8095	571	0	-100	0	230	101300000	1000	0	0	-1	500
21498115	8085	576	0	-100	0	230	101300000	1000	0	0	-1	500
21510675	8100	569	0	-100	0	230	101300000	1000	0	0	-1	500
21523235	8095	566	0	-100	0	230	101300000	1000	0	0	-1	500
21535795	8078	569	0	-100	0	230	101300000	1000	0	0	-1	500
21548355	8092	571	0	-100	0	230	101300000	1000	0	0	-1	500
21560915	8090	556	0	-100	0	230	101300000	1000	0	0	-1	500
21573475	8092	566	0	-100	0	230	101300000	1000	0	0	-1	500
21586035	8088	568	0	-100	0	230	101300000	1000	0	0	-1	500
21598595	8090	570	0	-100	0	230	101300000	1000	0	0	-1	500
21611155	8095	569	0	-100	0	230	101300000	1000	0	0	-1	500
21623715	8093	572	0	-100	0	230	101300000	1000	0	0	-1	500
21636275	8092	569	0	-100	0	230	101300000	1000	0	0	-1	500
21648835	8092	573	0	-100	0	230	101300000	1000	0	0	-1	500
21661395	8100	568	0	-100	0	230	101300000	1000	0	0	-1	500
21673955	8088	567	0	-100	0	230	101300000	1000	0	0	-1	500
21686515	8100	569	0	-100	0	230	101300000	1000	0	0	-1	500
21699075	8095	572	0	-100	0	230	101300000	1000	0	0	-1	500
21711635	8102	570	0	-100	0	230	101300000	1000	0	0	-1	500
21724195	8090	573	0	-100	0	230	101300000	1000	0	0	-1	500
21736755	8114	566	0	-100	0	230	101300000	1000	0	0	-1	500
21749315	8092	569	0	-100	0	230	101300000	1000	0	0	-1	500
21761875	8097	572	0	-100	0	230	101300000	1000	0	0	-1	500
21774435	8100	571	0	-100	0	230	101300000	1000	0	0	-1	500
21786995	8090	573	0	-100	0	230	101300000	1000	0	0	-1	500
21799555	8092	566	0	-100	0	230	101300000	1000	0	0	-1	500
21812115	8097	569	0	-100	0	230	101300000	1000	0	0	-1	500
21824675	8090	568	0	-100	0	230	101300000	1000	0	0	-1	500
21837235	8085	571	0	-100	0	230	101300000	1000	0	0	-1	500
21849795	8093	564	0	-100	0	230	101300000	1000	0	0	-1	500
21862355	8088	568	0	-100	0	230	101300000	1000	0	0	-1	500
21874915	8098	571	0	-100	0	230	101300000	1000	0	0	-1	500
21887475	8104	569	0	-100	0	230	101300000	1000	0	0	-1	500
21900035	8090	569	0	-100	0	230	101300000	1000	0	0	-1	500
21912595	8090	570	0	-100	0	230	101300000	1000	0	0	-1	500
21925155	8104	569	0	-100	0	230	101300000	1000	0	0	-1	500
21937715	8088	570	0	-100	0	230	101300000	1000	0	0	-1	500
21950275	8105	571	0	-100	0	230	101300000	1000	0	0	-1	500
21962835	8095	568	0	-100	0	230	101300000	1000	0	0	-1	500
21975395	8097	568	0	-100	0	230	101300000	1000	0	0	-1	500
21987955	8095	566	0	-100	0	230	101300000	1000	0	0	-1	500
22000515	8087	571	0	-100	0	230	101300000	1000	0	0	-1	500
22013075	8095	566	0	-100	0	230	101300000	1000	0	0	-1	500
22025635	8092	569	0	-100	0	230	101300000	1000	0	0	-1	500
22038195	8088	568	0	-100	0	230	101300000	1000	0	0	-1	500
22050755	8088	569	0	-100	0	230	101300000	1000	0	0	-1	500
22063315	8090	569	0	-100	0	230	101300000	1000	0	0	-1	500
22075875	8092	568	0	-100	0	230	101300000	1000	0	0	-1	500
22088435	8104	570	0	-100	0	230	101300000	1000	0	0	-1	500
22100995	8097	570	0	-100	0	230	101300000	1000	0	0	-1	500
22113555	8085	571	0	-100	0	230	101300000	1000	0	0	-1	500
22126115	8097	568	0	-100	0	230	101300000	1000	0	0	-1	500
22138675	8087	569	0	-100	0	230	101300000	1000	0	0	-1	500
22151235	8094	569	0	-100	0	230	101300000	1000	0	0	-1	500
22163795	8093	563	0	-100	0	230	101300000	1000	0	0	-1	500
22176355	8090	570	0	-100	0	230	101300000	1000	0	0	-1	500
22188915	8100	566	0	-100	0	230	101300000	1000	0	0	-1	500
22201475	8090	569	0	-100	0	230	101300000	1000	0	0	-1	500
22214035	8097	568	0	-100	0	230	101300000	1000	0	0	-1	500
22226595	8090	568	0	-100	0	230	101300000	1000	0	0	-1	500
22239155	8085	573	0	-100	0	230	101300000	1000	0	0	-1	500
22251715	8111	571	0	-100	0	230	101300000	1000	0	0	-1	500
22264275	8088	568	0	-100	0	230	101300000	1000	0	0	-1	500
22276835	8083	570	0	-100	0	230	101300000	1000	0	0	-1	500
22289395	8092	569	0	-100	0	230	101300000	1000	0	0	-1	500
22301955	8090	566	0	-100	0	230	101300000	1000	0	0	-1	500
22314515	8090	570	0	-100	0	230	101300000	1000	0	0	-1	500
22327075	8102	566	0	-100	0	230	101300000	1000	0	0	-1	500
22339635	8090	569	0	-100	0	230	101300000	1000	0	0	-1	500
22352195	8092	570	0	-100	0	230	101300000	1000	0	0	-1	500
22364755	8098	567	0	-100	0	230	101300000	1000	0	0	-1	500
22377315	8107	572	0	-100	0	230	101300000	1000	0	0	-1	500
22389875	8094	567	0	-100	0	230	101300000	1000	0	0	-1	500
22402435	8095	568	0	-100	0	230	101300000	1000	0	0	-1	500
22414995	8095	569	0	-100	0	230	101300000	1000	0	0	-1	500
22427555	8092	569	0	-100	0	230	101300000	1000	0	0	-1	500
22440115	8090	572	0	-100	0	230	101300000	1000	0	0	-1	500
22452675	8092	570	0	-100	0	230	101300000	1000	0	0	-1	500
22465235	8097	569	0	-100	0	230	101300000	1000	0	0	-1	500
22477795	8095	571	0	-100	0	230	101300000	1000	0	0	-1	500
22490355	8095	561	0	-100	0	230	101300000	1000	0	0	-1	500
22502915	8092	571	0	-100	0	230	101300000	1000	0	0	-1	500
22515475	8105	569	0	-100	0	230	101300000	1000	0	0	-1	500
22528035	8102	566	0	-100	0	230	101300000	1000	0	0	-1	500
22540595	8090	570	0	-100	0	230	101300000	1000	0	0	-1	500
22553155	8102	569	0	-100	0	230	101300000	1000	0	0	-1	500
22565715	8088	565	0	-100	0	230	101300000	1000	0	0	-1	500
22578275	8085	569	0	-100	0	230	101300000	1000	0	0	-1	500
22590835	8092	570	0	-100	0	230	101300000	1000	0	0	-1	500
22603395	8088	565	0	-100	0	230	101300000	1000	0	0	-1	500
22615955	8100	567	0	-100	0	230	101300000	1000	0	0	-1	500
22628515	8088	570	0	-100	0	230	101300000	1000	0	0	-1	500
22641075	8090	570	0	-100	0	230	101300000	1000	0	0	-1	500
22653635	8100	569	0	-100	0	230	101300000	1000	0	0	-1	500
22666195	8090	568	0	-100	0	230	101300000	1000	0	0	-1	500
22678755	8090	572	0	-100	0	230	101300000	1000	0	0	-1	500
22691315	8100	567	0	-100	0	230	101300000	1000	0	0	-1	500
22703875	8085	567	0	-100	0	230	101300000	1000	0	0	-1	500
22741555	8107	567	0	-100	0	230	101300000	1000	0	0	-1	500
22754115	8090	573	0	-100	0	230	101300000	1000	0	0	-1	500
22766675	8092	573	0	-100	0	230	101300000	1000	0	0	-1	500
22779235	8088	566	0	-100	0	230	101300000	1000	0	0	-1	500
22791795	8085	571	0	-100	0	230	101300000	1000	0	0	-1	500
22804355	8107	568	0	-100	0	230	101300000	1000	0	0	-1	500
22816915	8090	572	0	-100	0	230	101300000	1000	0	0	-1	500
22829475	8100	571	0	-100	0	230	101300000	1000	0	0	-1	500
22842035	8095	567	0	-100	0	230	101300000	1000	0	0	-1	500
22854595	8095	573	0	-100	0	230	101300000	1000	0	0	-1	500
22867155	8104	571	0	-100	0	230	101300000	1000	0	0	-1	500
22879715	8088	570	0	-100	0	230	101300000	1000	0	0	-1	500
22942515	8088	570	0	-100	0	230	101300000	1000	0	0	-1	500
22955075	8097	567	0	-100	0	230	101300000	1000	0	0	-1	500
22967635	8097	572	0	-100	0	230	101300000	1000	0	0	-1	500
22980195	8095	565	0	-100	0	230	101300000	1000	0	0	-1	500
22992755	8083	569	0	-100	0	230	101300000	1000	0	0	-1	500
23005315	8097	570	0	-100	0	230	101300000	1000	0	0	-1	500
23017875	8100	572	0	-100	0	230	101300000	1000	0	0	-1	500
23030435	8095	569	0	-100	0	230	101300000	1000	0	0	-1	500
23042995	8100	569	0	-100	0	230	101300000	1000	0	0	-1	500
23055555	8094	571	0	-100	0	230	101300000	1000	0	0	-1	500
23068115	8100	568	0	-100	0	230	101300000	1000	0	0	-1	500
23080675	8102	566	0	-100	0	230	101300000	1000	0	0	-1	500
23130915	8088	568	0	-100	0	230	101300000	1000	0	0	-1	500
23143475	8092	570	0	-100	0	230	101300000	1000	0	0	-1	500
23156035	8092	570	0	-100	0	230	101300000	1000	0	0	-1	500
23168595	8097	572	0	-100	0	230	101300000	1000	0	0	-1	500
23181155	8100	566	0	-100	0	230	101300000	1000	0	0	-1	500
23193715	8090	569	0	-100	0	230	101300000	1000	0	0	-1	500
23206275	8092	570	0	-100	0	230	101300000	1000	0	0	-1	500
23218835	8083	569	0	-100	0	230	101300000	1000	0	0	-1	500
23231395	8095	567	0	-100	0	230	101300000	1000	0	0	-1	500
23243955	8088	569	0	-100	0	230	101300000	1000	0	0	-1	500
23256515	8090	573	0	-100	0	230	101300000	1000	0	0	-1	500
23269075	8092	569	0	-100	0	230	101300000	1000	0	0	-1	500
23281635	8090	569	0	-100	0	230	101300000	1000	0	0	-1	500
23294195	8092	574	0	-100	0	230	101300000	1000	0	0	-1	500
23306755	8087	570	0	-100	0	230	101300000	1000	0	0	-1	500
23319315	8095	569	0	-100	0	230	101300000	1000	0	0	-1	500
23331875	8087	566	0	-100	0	230	101300000	1000	0	0	-1	500
23344435	8093	570	0	-100	0	230	101300000	1000	0	0	-1	500
23356995	8090	571	0	-100	0	230	101300000	1000	0	0	-1	500
23369555	8088	564	0	-100	0	230	101300000	1000	0	0	-1	500
23382115	8095	567	0	-100	0	230	101300000	1000	0	0	-1	500
23394675	8076	564	0	-100	0	230	101300000	1000	0	0	-1	500
23407235	8092	565	0	-100	0	230	101300000	1000	0	0	-1	500
23419795	8104	569	0	-100	0	230	101300000	1000	0	0	-1	500
23432355	8090	574	0	-100	0	230	101300000	1000	0	0	-1	500
23444915	8090	569	0	-100	0	230	101300000	1000	0	0	-1	500
23457475	8097	567	0	-100	0	230	101300000	1000	0	0	-1	500
23470035	8092	573	0	-100	0	230	101300000	1000	0	0	-1	500
23482595	8097	570	0	-100	0	230	101300000	1000	0	0	-1	500
23495155	8092	575	0	-100	0	230	101300000	1000	0	0	-1	500
23507715	8088	569	0	-100	0	230	101300000	1000	0	0	-1	500
23520275	8080	573	0	-100	0	230	101300000	1000	0	0	-1	500
23532835	8097	571	0	-100	0	230	101300000	1000	0	0	-1	500
23545395	8100	569	0	-100	0	230	101300000	1000	0	0	-1	500
23557955	8092	569	0	-100	0	230	101300000	1000	0	0	-1	500
23570515	8095	573	0	-100	0	230	101300000	1000	0	0	-1	500
23583075	8090	567	0	-100	0	230	101300000	1000	0	0	-1	500
23595635	8090	567	0	-100	0	230	101300000	1000	0	0	-1	500
23608195	8088	572	0	-100	0	230	101300000	1000	0	0	-1	500
23620755	8081	573	0	-100	0	230	101300000	1000	0	0	-1	500
23633315	8102	570	0	-100	0	230	101300000	1000	0	0	-1	500
23645875	8088	569	0	-100	0	230	101300000	1000	0	0	-1	500
23658435	8085	575	0	-100	0	230	101300000	1000	0	0	-1	500
23670995	8085	567	0	-100	0	230	101300000	1000	0	0	-1	500
23683555	8099	570	0	-100	0	230	101300000	1000	0	0	-1	500
23696115	8097	569	0	-100	0	230	101300000	1000	0	0	-1	500
23708675	8093	568	0	-100	0	230	101300000	1000	0	0	-1	500
23721235	8102	572	0	-100	0	230	101300000	1000	0	0	-1	500
23733795	8092	569	0	-100	0	230	101300000	1000	0	0	-1	500
23746355	8090	572	0	-100	0	230	101300000	1000	0	0	-1	500
23758915	8092	569	0	-100	0	230	101300000	1000	0	0	-1	500
23771475	8095	568	0	-100	0	230	101300000	1000	0	0	-1	500
23784035	8083	565	0	-100	0	230	101300000	1000	0	0	-1	500
23796595	8090	574	0	-100	0	230	101300000	1000	0	0	-1	500
23809155	8097	573	0	-100	0	230	101300000	1000	0	0	-1	500
23821715	8097	570	0	-100	0	230	101300000	1000	0	0	-1	500
23834275	8080	570	0	-100	0	230	101300000	1000	0	0	-1	500
23846835	8097	569	0	-100	0	230	101300000	1000	0	0	-1	500
23859395	8085	571	0	-100	0	230	101300000	1000	0	0	-1	500
23871955	8095	570	0	-100	0	230	101300000	1000	0	0	-1	500
23884515	8090	558	0	-100	0	230	101300000	1000	0	0	-1	500
23897075	8092	574	0	-100	0	230	101300000	1000	0	0	-1	500
23909635	8088	573	0	-100	0	230	101300000	1000	0	0	-1	500
23922195	8090	573	0	-100	0	230	101300000	1000	0	0	-1	500
23934755	8088	571	0	-100	0	230	101300000	1000	0	0	-1	500
23947315	8085	568	0	-100	0	230	101300000	1000	0	0	-1	500
23959875	8092	566	0	-100	0	230	101300000	1000	0	0	-1	500
23972435	8087	567	0	-100	0	230	101300000	1000	0	0	-1	500
23984995	8092	566	0	-100	0	230	101300000	1000	0	0	-1	500
23997555	8090	565	0	-100	0	230	101300000	1000	0	0	-1	500
24010115	8095	568	0	-100	0	230	101300000	1000	0	0	-1	500
24022675	8093	568	0	-100	0	230	101300000	1000	0	0	-1	500
24035235	8100	568	0	-100	0	230	101300000	1000	0	0	-1	500
24047795	8102	569	0	-100	0	230	101300000	1000	0	0	-1	500
24060355	8102	569	0	-100	0	230	101300000	1000	0	0	-1	500
24072915	8105	573	0	-100	0	230	101300000	1000	0	0	-1	500
24085475	8088	565	0	-100	0	230	101300000	1000	0	0	-1	500
24098035	8097	575	0	-100	0	230	101300000	1000	0	0	-1	500
24110595	8098	571	0	-100	0	230	101300000	1000	0	0	-1	500
24123155	8088	567	0	-100	0	230	101300000	1000	0	0	-1	500
24135715	8095	568	0	-100	0	230	101300000	1000	0	0	-1	500
24148275	8100	566	0	-100	0	230	101300000	1000	0	0	-1	500
24160835	8102	571	0	-100	0	230	101300000	1000	0	0	-1	500
24173395	8092	569	0	-100	0	230	101300000	1000	0	0	-1	500
24185955	8090	573	0	-100	0	230	101300000	1000	0	0	-1	500
24198515	8100	574	0	-100	0	230	101300000	1000	0	0	-1	500
24211075	8090	573	0	-100	0	230	101300000	1000	0	0	-1	500
24223635	8097	571	0	-100	0	230	101300000	1000	0	0	-1	500
24236195	8095	575	0	-100	0	230	101300000	1000	0	0	-1	500
24248755	8097	571	0	-100	0	230	101300000	1000	0	0	-1	500
24261315	8097	569	0	-100	0	230	101300000	1000	0	0	-1	500
24273875	8091	571	0	-100	0	230	101300000	1000	0	0	-1	500
24286435	8095	568	0	-100	0	230	101300000	1000	0	0	-1	500
24298995	8112	574	0	-100	0	230	101300000	1000	0	0	-1	500
24311555	8102	573	0	-100	0	230	101300000	1000	0	0	-1	500
24324115	8100	567	0	-100	0	230	101300000	1000	0	0	-1	500
24336675	8101	571	0	-100	0	230	101300000	1000	0	0	-1	500
24349235	8095	570	0	-100	0	230	101300000	1000	0	0	-1	500
24361795	8085	573	0	-100	0	230	101300000	1000	0	0	-1	500
24374355	8092	566	0	-100	0	230	101300000	1000	0	0	-1	500
24386915	8100	560	0	-100	0	230	101300000	1000	0	0	-1	500
24399475	8095	568	0	-100	0	230	101300000	1000	0	0	-1	500
24412035	8090	569	0	-100	0	230	101300000	1000	0	0	-1	500
24424595	8102	571	0	-100	0	230	101300000	1000	0	0	-1	500
24437155	8093	548	0	-100	0	230	101300000	1000	0	0	-1	500
24449715	8085	569	0	-100	0	230	101300000	1000	0	0	-1	500
24462275	8092	571	0	-100	0	230	101300000	1000	0	0	-1	500
24474835	8085	569	0	-100	0	230	101300000	1000	0	0	-1	500
24487395	8102	570	0	-100	0	230	101300000	1000	0	0	-1	500
24499955	8100	574	0	-100	0	230	101300000	1000	0	0	-1	500
24512515	8085	575	0	-100	0	230	101300000	1000	0	0	-1	500
24525075	8090	575	0	-100	0	230	101300000	1000	0	0	-1	500
24537635	8097	571	0	-100	0	230	101300000	1000	0	0	-1	500
24550195	8095	571	0	-100	0	230	101300000	1000	0	0	-1	500
24562755	8097	574	0	-100	0	230	101300000	1000	0	0	-1	500
24575315	8085	556	0	-100	0	230	101300000	1000	0	0	-1	500
24587875	8092	570	0	-100	0	230	101300000	1000	0	0	-1	500
24600435	8097	570	0	-100	0	230	101300000	1000	0	0	-1	500
24612995	8104	571	0	-100	0	230	101300000	1000	0	0	-1	500
24625555	8098	573	0	-100	0	230	101300000	1000	0	0	-1	500
24638115	8100	569	0	-100	0	230	101300000	1000	0	0	-1	500
24650675	8088	567	0	-100	0	230	101300000	1000	0	0	-1	500
24663235	8102	570	0	-100	0	230	101300000	1000	0	0	-1	500
24675795	8088	569	0	-100	0	230	101300000	1000	0	0	-1	500
24688355	8105	567	0	-100	0	230	101300000	1000	0	0	-1	500
24700915	8102	569	0	-100	0	230	101300000	1000	0	0	-1	500
24713475	8090	568	0	-100	0	230	101300000	1000	0	0	-1	500
24726035	8095	569	0	-100	0	230	101300000	1000	0	0	-1	500
24738595	8090	574	0	-100	0	230	101300000	1000	0	0	-1	500
24751155	8095	571	0	-100	0	230	101300000	1000	0	0	-1	500
24763715	8102	571	0	-100	0	230	101300000	1000	0	0	-1	500
24776275	8095	566	0	-100	0	230	101300000	1000	0	0	-1	500
24788835	8095	566	0	-100	0	230	101300000	1000	0	0	-1	500
24801395	8105	568	0	-100	0	230	101300000	1000	0	0	-1	500
24813955	8100	569	0	-100	0	230	101300000	1000	0	0	-1	500
24826515	8114	573	0	-100	0	230	101300000	1000	0	0	-1	500
24839075	8090	571	0	-100	0	230	101300000	1000	0	0	-1	500
24851635	8100	567	0	-100	0	230	101300000	1000	0	0	-1	500
24864195	8085	565	0	-100	0	230	101300000	1000	0	0	-1	500
24876755	8093	569	0	-100	0	230	101300000	1000	0	0	-1	500
24889315	8087	563	0	-100	0	230	101300000	1000	0	0	-1	500
24901875	8093	569	0	-100	0	230	101300000	1000	0	0	-1	500
24914435	8093	568	0	-100	0	230	101300000	1000	0	0	-1	500
24926995	8085	566	0	-100	0	230	101300000	1000	0	0	-1	500
24939555	8083	570	0	-100	0	230	101300000	1000	0	0	-1	500
24952115	8093	569	0	-100	0	230	101300000	1000	0	0	-1	500
24964675	8107	572	0	-100	0	230	101300000	1000	0	0	-1	500
24977235	8083	566	0	-100	0	230	101300000	1000	0	0	-1	500
24989795	8095	573	0	-100	0	230	101300000	1000	0	0	-1	500
25002355	8102	574	0	-100	0	230	101300000	1000	0	0	-1	500
25014915	8085	571	0	-100	0	230	101300000	1000	0	0	-1	500
25027475	8092	548	0	-100	0	230	101300000	1000	0	0	-1	500
25040035	8102	570	0	-100	0	230	101300000	1000	0	0	-1	500
25052595	8100	571	0	-100	0	230	101300000	1000	0	0	-1	500
25065155	8088	575	0	-100	0	230	101300000	1000	0	0	-1	500
25077715	8100	575	0	-100	0	230	101300000	1000	0	0	-1	500
25090275	8099	571	0	-100	0	230	101300000	1000	0	0	-1	500
25102835	8090	566	0	-100	0	230	101300000	1000	0	0	-1	500
25115395	8100	566	0	-100	0	230	101300000	1000	0	0	-1	500
25127955	8100	562	0	-100	0	230	101300000	1000	0	0	-1	500
25140515	8093	571	0	-100	0	230	101300000	1000	0	0	-1	500
25153075	8097	569	0	-100	0	230	101300000	1000	0	0	-1	500
25165635	8095	578	0	-100	0	230	101300000	1000	0	0	-1	500
25178195	8091	569	0	-100	0	230	101300000	1000	0	0	-1	500
25190755	8093	575	0	-100	0	230	101300000	1000	0	0	-1	500
25203315	8090	572	0	-100	0	230	101300000	1000	0	0	-1	500
25215875	8092	573	0	-100	0	230	101300000	1000	0	0	-1	500
25228435	8095	573	0	-100	0	230	101300000	1000	0	0	-1	500
25240995	8095	573	0	-100	0	230	101300000	1000	0	0	-1	500
25253555	8083	572	0	-100	0	230	101300000	1000	0	0	-1	500
25266115	8087	571	0	-100	0	230	101300000	1000	0	0	-1	500
25278675	8098	567	0	-100	0	230	101300000	1000	0	0	-1	500
25291235	8090	574	0	-100	0	230	101300000	1000	0	0	-1	500
25303795	8085	570	0	-100	0	230	101300000	1000	0	0	-1	500
25316355	8100	567	0	-100	0	230	101300000	1000	0	0	-1	500
25328915	8086	566	0	-100	0	230	101300000	1000	0	0	-1	500
25341475	8092	567	0	-100	0	230	101300000	1000	0	0	-1	500
25354035	8090	566	0	-100	0	230	101300000	1000	0	0	-1	500
25366595	8085	569	0	-100	0	230	101300000	1000	0	0	-1	500
25379155	8097	571	0	-100	0	230	101300000	1000	0	0	-1	500
25391715	8090	566	0	-100	0	230	101300000	1000	0	0	-1	500
25404275	8093	569	0	-100	0	230	101300000	1000	0	0	-1	500
25416835	8100	569	0	-100	0	230	101300000	1000	0	0	-1	500
25429395	8097	569	0	-100	0	230	101300000	1000	0	0	-1	500
25441955	8093	565	0	-100	0	230	101300000	1000	0	0	-1	500
25454515	8085	566	0	-100	0	230	101300000	1000	0	0	-1	500
25467075	8091	563	0	-100	0	230	101300000	1000	0	0	-1	500
25479635	8100	567	0	-100	0	230	101300000	1000	0	0	-1	500
25492195	8083	568	0	-100	0	230	101300000	1000	0	0	-1	500
25504755	8097	569	0	-100	0	230	101300000	1000	0	0	-1	500
25517315	8102	569	0	-100	0	230	101300000	1000	0	0	-1	500
25529875	8085	570	0	-100	0	230	101300000	1000	0	0	-1	500
25542435	8087	573	0	-100	0	230	101300000	1000	0	0	-1	500
25554995	8090	572	0	-100	0	230	101300000	1000	0	0	-1	500
25567555	8100	569	0	-100	0	230	101300000	1000	0	0	-1	500
25580115	8088	571	0	-100	0	230	101300000	1000	0	0	-1	500
25592675	8085	569	0	-100	0	230	101300000	1000	0	0	-1	500
25605235	8092	566	0	-100	0	230	101300000	1000	0	0	-1	500
25617795	8102	566	0	-100	0	230	101300000	1000	0	0	-1	500
25630355	8092	573	0	-100	0	230	101300000	1000	0	0	-1	500
25642915	8092	570	0	-100	0	230	101300000	1000	0	0	-1	500
25655475	8095	567	0	-100	0	230	101300000	1000	0	0	-1	500
25668035	8083	568	0	-100	0	230	101300000	1000	0	0	-1	500
25680595	8097	567	0	-100	0	230	101300000	1000	0	0	-1	500
25693155	8100	568	0	-100	0	230	101300000	1000	0	0	-1	500
25705715	8088	568	0	-100	0	230	101300000	1000	0	0	-1	500
25718275	8083	571	0	-100	0	230	101300000	1000	0	0	-1	500
25730835	8093	567	0	-100	0	230	101300000	1000	0	0	-1	500
25743395	8097	571	0	-100	0	230	101300000	1000	0	0	-1	500
25755955	8104	568	0	-100	0	230	101300000	1000	0	0	-1	500
25768515	8088	569	0	-100	0	230	101300000	1000	0	0	-1	500
25781075	8102	570	0	-100	0	230	101300000	1000	0	0	-1	500
25793635	8083	576	0	-100	0	230	101300000	1000	0	0	-1	500
25806195	8097	570	0	-100	0	230	101300000	1000	0	0	-1	500
25868995	8078	568	0	-100	0	230	101300000	1000	0	0	-1	500
25881555	8092	569	0	-100	0	230	101300000	1000	0	0	-1	500
25894115	8092	567	0	-100	0	230	101300000	1000	0	0	-1	500
25906675	8097	569	0	-100	0	230	101300000	1000	0	0	-1	500
25919235	8097	563	0	-100	0	230	101300000	1000	0	0	-1	500
25931795	8088	566	0	-100	0	230	101300000	1000	0	0	-1	500
25944355	8087	570	0	-100	0	230	101300000	1000	0	0	-1	500
25956915	8092	567	0	-100	0	230	101300000	1000	0	0	-1	500
25969475	8085	568	0	-100	0	230	101300000	1000	0	0	-1	500
25982035	8085	574	0	-100	0	230	101300000	1000	0	0	-1	500
25994595	8100	566	0	-100	0	230	101300000	1000	0	0	-1	500
26007155	8097	569	0	-100	0	230	101300000	1000	0	0	-1	500
26082515	8095	575	0	-100	0	230	101300000	1000	0	0	-1	500
26095075	8104	569	0	-100	0	230	101300000	1000	0	0	-1	500
26107635	8100	568	0	-100	0	230	101300000	1000	0	0	-1	500
26120195	8107	570	0	-100	0	230	101300000	1000	0	0	-1	500
26132755	8090	568	0	-100	0	230	101300000	1000	0	0	-1	500
26145315	8097	571	0	-100	0	230	101300000	1000	0	0	-1	500
26157875	8101	573	0	-100	0	230	101300000	1000	0	0	-1	500
26170435	8097	567	0	-100	0	230	101300000	1000	0	0	-1	500
26182995	8088	568	0	-100	0	230	101300000	1000	0	0	-1	500
26195555	8097	571	0	-100	0	230	101300000	1000	0	0	-1	500
26208115	8100	574	0	-100	0	230	101300000	1000	0	0	-1	500
26220675	8081	569	0	-100	0	230	101300000	1000	0	0	-1	500
26233235	8095	573	0	-100	0	230	101300000	1000	0	0	-1	500
26245795	8092	574	0	-100	0	230	101300000	1000	0	0	-1	500
26258355	8102	568	0	-100	0	230	101300000	1000	0	0	-1	500
26270915	8097	563	0	-100	0	230	101300000	1000	0	0	-1	500
26283475	8109	568	0	-100	0	230	101300000	1000	0	0	-1	500
26296035	8085	574	0	-100	0	230	101300000	1000	0	0	-1	500
26308595	8085	570	0	-100	0	230	101300000	1000	0	0	-1	500
26321155	8092	567	0	-100	0	230	101300000	1000	0	0	-1	500
26333715	8093	567	0	-100	0	230	101300000	1000	0	0	-1	500
26346275	8088	571	0	-100	0	230	101300000	1000	0	0	-1	500
26358835	8100	571	0	-100	0	230	101300000	1000	0	0	-1	500
26371395	8104	568	0	-100	0	230	101300000	1000	0	0	-1	500
26383955	8093	566	0	-100	0	230	101300000	1000	0	0	-1	500
26396515	8090	572	0	-100	0	230	101300000	1000	0	0	-1	500
26409075	8092	576	0	-100	0	230	101300000	1000	0	0	-1	500
26421635	8107	569	0	-100	0	230	101300000	1000	0	0	-1	500
26434195	8097	569	0	-100	0	230	101300000	1000	0	0	-1	500
26446755	8090	565	0	-100	0	230	101300000	1000	0	0	-1	500
26459315	8099	571	0	-100	0	230	101300000	1000	0	0	-1	500
26471875	8107	571	0	-100	0	230	101300000	1000	0	0	-1	500
26484435	8102	568	0	-100	0	230	101300000	1000	0	0	-1	500
26496995	8078	571	0	-100	0	230	101300000	1000	0	0	-1	500
26509555	8095	569	0	-100	0	230	101300000	1000	0	0	-1	500
26522115	8095	570	0	-100	0	230	101300000	1000	0	0	-1	500
26534675	8097	561	0	-100	0	230	101300000	1000	0	0	-1	500
26547235	8078	565	0	-100	0	230	101300000	1000	0	0	-1	500
26559795	8090	570	0	-100	0	230	101300000	1000	0	0	-1	500
26572355	8099	570	0	-100	0	230	101300000	1000	0	0	-1	500
26584915	8098	568	0	-100	0	230	101300000	1000	0	0	-1	500
26597475	8090	575	0	-100	0	230	101300000	1000	0	0	-1	500
26610035	8097	570	0	-100	0	230	101300000	1000	0	0	-1	500
26622595	8087	571	0	-100	0	230	101300000	1000	0	0	-1	500
26635155	8090	568	0	-100	0	230	101300000	1000	0	0	-1	500
26647715	8095	569	0	-100	0	230	101300000	1000	0	0	-1	500
26660275	8092	568	0	-100	0	230	101300000	1000	0	0	-1	500
26672835	8093	574	0	-100	0	230	101300000	1000	0	0	-1	500
26685395	8097	572	0	-100	0	230	101300000	1000	0	0	-1	500
26697955	8085	569	0	-100	0	230	101300000	1000	0	0	-1	500
26710515	8102	567	0	-100	0	230	101300000	1000	0	0	-1	500
26723075	8095	569	0	-100	0	230	101300000	1000	0	0	-1	500
26735635	8088	569	0	-100	0	230	101300000	1000	0	0	-1	500
26748195	8085	569	0	-100	0	230	101300000	1000	0	0	-1	500
26760755	8100	567	0	-100	0	230	101300000	1000	0	0	-1	500
26773315	8092	568	0	-100	0	230	101300000	1000	0	0	-1	500
26785875	8090	566	0	-100	0	230	101300000	1000	0	0	-1	500
26798435	8085	571	0	-100	0	230	101300000	1000	0	0	-1	500
26810995	8092	572	0	-100	0	230	101300000	1000	0	0	-1	500
26823555	8095	568	0	-100	0	230	101300000	1000	0	0	-1	500
26836115	8083	570	0	-100	0	230	101300000	1000	0	0	-1	500
26848675	8088	560	0	-100	0	230	101300000	1000	0	0	-1	500
26861235	8102	570	0	-100	0	230	101300000	1000	0	0	-1	500
26873795	8097	566	0	-100	0	230	101300000	1000	0	0	-1	500
26886355	8085	571	0	-100	0	230	101300000	1000	0	0	-1	500
26898915	8099	571	0	-100	0	230	101300000	1000	0	0	-1	500
26911475	8090	568	0	-100	0	230	101300000	1000	0	0	-1	500
26924035	8092	574	0	-100	0	230	101300000	1000	0	0	-1	500
26936595	8088	569	0	-100	0	230	101300000	1000	0	0	-1	500
26949155	8094	566	0	-100	0	230	101300000	1000	0	0	-1	500
26961715	8097	566	0	-100	0	230	101300000	1000	0	0	-1	500
26974275	8102	570	0	-100	0	230	101300000	1000	0	0	-1	500
26986835	8083	567	0	-100	0	230	101300000	1000	0	0	-1	500
26999395	8085	569	0	-100	0	230	101300000	1000	0	0	-1	500
27011955	8088	564	0	-100	0	230	101300000	1000	0	0	-1	500
27024515	8090	565	0	-100	0	230	101300000	1000	0	0	-1	500
27037075	8102	573	0	-100	0	230	101300000	1000	0	0	-1	500
27049635	8092	573	0	-100	0	230	101300000	1000	0	0	-1	500
