timestamp	voltage	current	windSpeed	pitchAngle	rpm	temperature	ambientPressure	humidity	accelerationX	accelerationY	accelerationZ	currentSink
7040070	8527	0	0	-100	0	230	101300000	1000	0	0	-1	0
7047523	8529	0	0	-100	0	230	101300000	1000	0	0	-1	0
7060083	8519	3	0	-100	0	230	101300000	1000	0	0	-1	0
7072643	8527	0	0	-100	0	230	101300000	1000	0	0	-1	0
7085203	8527	0	0	-100	0	230	101300000	1000	0	0	-1	0
7097763	8534	0	0	-100	0	230	101300000	1000	0	0	-1	0
7110323	8524	0	0	-100	0	230	101300000	1000	0	0	-1	0
7122883	8531	0	0	-100	0	230	101300000	1000	0	0	-1	0
7135443	8524	0	0	-100	0	230	101300000	1000	0	0	-1	0
7148004	8531	0	0	-100	0	230	101300000	1000	0	0	-1	0
7160563	8527	0	0	-100	0	230	101300000	1000	0	0	-1	0
7173123	8529	0	0	-100	0	230	101300000	1000	0	0	-1	0
7185683	8529	2	0	-100	0	230	101300000	1000	0	0	-1	0
7198243	8532	0	0	-100	0	230	101300000	1000	0	0	-1	0
7210803	8522	0	0	-100	0	230	101300000	1000	0	0	-1	0
7223363	8531	3	0	-100	0	230	101300000	1000	0	0	-1	0
7235923	8529	0	0	-100	0	230	101300000	1000	0	0	-1	0
7248483	8529	0	0	-100	0	230	101300000	1000	0	0	-1	0
7261043	8522	1	0	-100	0	230	101300000	1000	0	0	-1	0
7273603	8524	1	0	-100	0	230	101300000	1000	0	0	-1	0
7286163	8524	0	0	-100	0	230	101300000	1000	0	0	-1	0
7298723	8529	0	0	-100	0	230	101300000	1000	0	0	-1	0
7311283	8529	0	0	-100	0	230	101300000	1000	0	0	-1	0
7323843	8531	0	0	-100	0	230	101300000	1000	0	0	-1	0
7336403	8534	0	0	-100	0	230	101300000	1000	0	0	-1	0
7348963	8527	0	0	-100	0	230	101300000	1000	0	0	-1	0
7694675	8007	633	0	-100	0	230	101300000	1000	0	0	-1	600
7707235	7996	636	0	-100	0	230	101300000	1000	0	0	-1	600
7719795	8012	633	0	-100	0	230	101300000	1000	0	0	-1	600
7732355	7991	638	0	-100	0	230	101300000	1000	0	0	-1	600
7744915	8005	627	0	-100	0	230	101300000	1000	0	0	-1	600
7757475	8009	635	0	-100	0	230	101300000	1000	0	0	-1	600
7770035	7992	638	0	-100	0	230	101300000	1000	0	0	-1	600
7782595	7998	633	0	-100	0	230	101300000	1000	0	0	-1	600
7795155	8001	633	0	-100	0	230	101300000	1000	0	0	-1	600
7807715	8005	637	0	-100	0	230	101300000	1000	0	0	-1	600
7820275	8019	635	0	-100	0	230	101300000	1000	0	0	-1	600
7832835	8010	632	0	-100	0	230	101300000	1000	0	0	-1	600
7845395	7998	633	0	-100	0	230	101300000	1000	0	0	-1	600
7857955	8002	638	0	-100	0	230	101300000	1000	0	0	-1	600
7870515	7995	638	0	-100	0	230	101300000	1000	0	0	-1	600
7883075	8002	635	0	-100	0	230	101300000	1000	0	0	-1	600
7895635	7995	637	0	-100	0	230	101300000	1000	0	0	-1	600
7908195	8000	639	0	-100	0	230	101300000	1000	0	0	-1	600
7920755	7995	635	0	-100	0	230	101300000	1000	0	0	-1	600
7933315	8002	638	0	-100	0	230	101300000	1000	0	0	-1	600
7945875	8007	630	0	-100	0	230	101300000	1000	0	0	-1	600
7958435	8009	636	0	-100	0	230	101300000	1000	0	0	-1	600
7970995	8002	633	0	-100	0	230	101300000	1000	0	0	-1	600
7983555	8002	630	0	-100	0	230	101300000	1000	0	0	-1	600
7996115	8010	632	0	-100	0	230	101300000	1000	0	0	-1	600
8008675	8012	639	0	-100	0	230	101300000	1000	0	0	-1	600
8021235	8012	633	0	-100	0	230	101300000	1000	0	0	-1	600
8033795	8005	636	0	-100	0	230	101300000	1000	0	0	-1	600
8046355	8009	634	0	-100	0	230	101300000	1000	0	0	-1	600
8058915	8012	637	0	-100	0	230	101300000	1000	0	0	-1	600
8071475	8005	640	0	-100	0	230	101300000	1000	0	0	-1	600
8084035	8000	637	0	-100	0	230	101300000	1000	0	0	-1	600
8096595	8026	634	0	-100	0	230	101300000	1000	0	0	-1	600
8109155	8015	637	0	-100	0	230	101300000	1000	0	0	-1	600
8121715	8007	638	0	-100	0	230	101300000	1000	0	0	-1	600
8134275	8007	637	0	-100	0	230	101300000	1000	0	0	-1	600
8146835	8006	636	0	-100	0	230	101300000	1000	0	0	-1	600
8159395	8007	634	0	-100	0	230	101300000	1000	0	0	-1	600
8171955	8012	630	0	-100	0	230	101300000	1000	0	0	-1	600
8184515	8008	634	0	-100	0	230	101300000	1000	0	0	-1	600
8197075	8007	634	0	-100	0	230	101300000	1000	0	0	-1	600
8209635	7998	635	0	-100	0	230	101300000	1000	0	0	-1	600
8222195	8005	637	0	-100	0	230	101300000	1000	0	0	-1	600
8234755	8007	638	0	-100	0	230	101300000	1000	0	0	-1	600
8247315	8012	638	0	-100	0	230	101300000	1000	0	0	-1	600
8259875	8000	634	0	-100	0	230	101300000	1000	0	0	-1	600
8272435	7995	634	0	-100	0	230	101300000	1000	0	0	-1	600
8284995	8017	634	0	-100	0	230	101300000	1000	0	0	-1	600
8297555	8014	638	0	-100	0	230	101300000	1000	0	0	-1	600
8310115	8010	638	0	-100	0	230	101300000	1000	0	0	-1	600
8322675	8012	635	0	-100	0	230	101300000	1000	0	0	-1	600
8335235	8015	634	0	-100	0	230	101300000	1000	0	0	-1	600
8347795	8008	640	0	-100	0	230	101300000	1000	0	0	-1	600
8360355	8004	639	0	-100	0	230	101300000	1000	0	0	-1	600
8372915	7995	635	0	-100	0	230	101300000	1000	0	0	-1	600
8385475	8012	634	0	-100	0	230	101300000	1000	0	0	-1	600
8398035	8010	640	0	-100	0	230	101300000	1000	0	0	-1	600
8410595	8015	636	0	-100	0	230	101300000	1000	0	0	-1	600
8423155	7998	628	0	-100	0	230	101300000	1000	0	0	-1	600
8435715	8000	638	0	-100	0	230	101300000	1000	0	0	-1	600
8448275	8005	634	0	-100	0	230	101300000	1000	0	0	-1	600
8460835	8017	637	0	-100	0	230	101300000	1000	0	0	-1	600
8473395	8019	632	0	-100	0	230	101300000	1000	0	0	-1	600
8485955	8016	640	0	-100	0	230	101300000	1000	0	0	-1	600
8498515	8003	639	0	-100	0	230	101300000	1000	0	0	-1	600
8511075	8002	638	0	-100	0	230	101300000	1000	0	0	-1	600
8523635	7996	640	0	-100	0	230	101300000	1000	0	0	-1	600
8536195	8008	639	0	-100	0	230	101300000	1000	0	0	-1	600
8548755	7995	642	0	-100	0	230	101300000	1000	0	0	-1	600
8561315	8007	636	0	-100	0	230	101300000	1000	0	0	-1	600
8573875	8000	634	0	-100	0	230	101300000	1000	0	0	-1	600
8586435	8011	634	0	-100	0	230	101300000	1000	0	0	-1	600
8598995	8022	635	0	-100	0	230	101300000	1000	0	0	-1	600
8611555	8005	634	0	-100	0	230	101300000	1000	0	0	-1	600
8624115	8015	633	0	-100	0	230	101300000	1000	0	0	-1	600
8636675	8019	635	0	-100	0	230	101300000	1000	0	0	-1	600
8649235	8015	632	0	-100	0	230	101300000	1000	0	0	-1	600
8661795	8019	633	0	-100	0	230	101300000	1000	0	0	-1	600
8674355	8022	632	0	-100	0	230	101300000	1000	0	0	-1	600
8686915	8020	628	0	-100	0	230	101300000	1000	0	0	-1	600
8699475	8012	633	0	-100	0	230	101300000	1000	0	0	-1	600
8712035	8010	634	0	-100	0	230	101300000	1000	0	0	-1	600
8724595	8016	615	0	-100	0	230	101300000	1000	0	0	-1	600
8737155	7996	635	0	-100	0	230	101300000	1000	0	0	-1	600
8749715	8005	638	0	-100	0	230	101300000	1000	0	0	-1	600
8762275	8005	634	0	-100	0	230	101300000	1000	0	0	-1	600
8774835	8005	633	0	-100	0	230	101300000	1000	0	0	-1	600
8787395	8005	632	0	-100	0	230	101300000	1000	0	0	-1	600
8799955	8016	622	0	-100	0	230	101300000	1000	0	0	-1	600
8812515	7997	640	0	-100	0	230	101300000	1000	0	0	-1	600
8825075	8005	641	0	-100	0	230	101300000	1000	0	0	-1	600
8837635	8007	638	0	-100	0	230	101300000	1000	0	0	-1	600
8850195	8017	638	0	-100	0	230	101300000	1000	0	0	-1	600
8862755	8010	637	0	-100	0	230	101300000	1000	0	0	-1	600
8875315	8017	633	0	-100	0	230	101300000	1000	0	0	-1	600
8887875	8003	636	0	-100	0	230	101300000	1000	0	0	-1	600
8900435	8015	637	0	-100	0	230	101300000	1000	0	0	-1	600
8912995	8005	635	0	-100	0	230	101300000	1000	0	0	-1	600
8925555	8010	637	0	-100	0	230	101300000	1000	0	0	-1	600
8938115	8002	639	0	-100	0	230	101300000	1000	0	0	-1	600
8950675	7998	637	0	-100	0	230	101300000	1000	0	0	-1	600
8963235	8012	637	0	-100	0	230	101300000	1000	0	0	-1	600
8975795	8010	636	0	-100	0	230	101300000	1000	0	0	-1	600
8988355	8020	635	0	-100	0	230	101300000	1000	0	0	-1	600
9000915	8003	633	0	-100	0	230	101300000	1000	0	0	-1	600
9013475	8010	635	0	-100	0	230	101300000	1000	0	0	-1	600
9026035	8008	639	0	-100	0	230	101300000	1000	0	0	-1	600
9038595	8008	635	0	-100	0	230	101300000	1000	0	0	-1	600
9051155	8011	631	0	-100	0	230	101300000	1000	0	0	-1	600
9063715	8007	639	0	-100	0	230	101300000	1000	0	0	-1	600
9076275	8000	638	0	-100	0	230	101300000	1000	0	0	-1	600
9088835	8019	636	0	-100	0	230	101300000	1000	0	0	-1	600
9101395	8010	637	0	-100	0	230	101300000	1000	0	0	-1	600
9113955	8011	631	0	-100	0	230	101300000	1000	0	0	-1	600
9126515	8017	632	0	-100	0	230	101300000	1000	0	0	-1	600
9139075	8010	639	0	-100	0	230	101300000	1000	0	0	-1	600
9151635	8000	636	0	-100	0	230	101300000	1000	0	0	-1	600
9164195	8003	636	0	-100	0	230	101300000	1000	0	0	-1	600
9176755	8005	638	0	-100	0	230	101300000	1000	0	0	-1	600
9189315	8000	641	0	-100	0	230	101300000	1000	0	0	-1	600
9201875	8003	638	0	-100	0	230	101300000	1000	0	0	-1	600
9214435	8008	637	0	-100	0	230	101300000	1000	0	0	-1	600
9226995	8014	631	0	-100	0	230	101300000	1000	0	0	-1	600
9239555	7993	639	0	-100	0	230	101300000	1000	0	0	-1	600
9252115	8000	637	0	-100	0	230	101300000	1000	0	0	-1	600
9264675	8002	638	0	-100	0	230	101300000	1000	0	0	-1	600
9277235	7998	636	0	-100	0	230	101300000	1000	0	0	-1	600
9289795	8002	640	0	-100	0	230	101300000	1000	0	0	-1	600
9302355	7996	634	0	-100	0	230	101300000	1000	0	0	-1	600
9314915	8015	632	0	-100	0	230	101300000	1000	0	0	-1	600
9327475	8007	638	0	-100	0	230	101300000	1000	0	0	-1	600
9340035	8007	634	0	-100	0	230	101300000	1000	0	0	-1	600
9352595	8014	636	0	-100	0	230	101300000	1000	0	0	-1	600
9365155	7986	636	0	-100	0	230	101300000	1000	0	0	-1	600
9377715	8005	640	0	-100	0	230	101300000	1000	0	0	-1	600
9390275	7995	638	0	-100	0	230	101300000	1000	0	0	-1	600
9402835	8014	639	0	-100	0	230	101300000	1000	0	0	-1	600
9415395	8000	636	0	-100	0	230	101300000	1000	0	0	-1	600
9427955	8002	635	0	-100	0	230	101300000	1000	0	0	-1	600
9440515	8000	637	0	-100	0	230	101300000	1000	0	0	-1	600
9453075	8009	635	0	-100	0	230	101300000	1000	0	0	-1	600
9465635	8005	627	0	-100	0	230	101300000	1000	0	0	-1	600
9478195	8012	635	0	-100	0	230	101300000	1000	0	0	-1	600
9490755	8010	636	0	-100	0	230	101300000	1000	0	0	-1	600
9503315	8005	636	0	-100	0	230	101300000	1000	0	0	-1	600
9515875	8002	637	0	-100	0	230	101300000	1000	0	0	-1	600
9528435	8012	636	0	-100	0	230	101300000	1000	0	0	-1	600
9540995	8005	635	0	-100	0	230	101300000	1000	0	0	-1	600
9553555	8007	634	0	-100	0	230	101300000	1000	0	0	-1	600
9566115	8010	633	0	-100	0	230	101300000	1000	0	0	-1	600
9578675	8000	634	0	-100	0	230	101300000	1000	0	0	-1	600
9591235	8001	636	0	-100	0	230	101300000	1000	0	0	-1	600
9603795	8006	637	0	-100	0	230	101300000	1000	0	0	-1	600
9616355	8003	630	0	-100	0	230	101300000	1000	0	0	-1	600
9628915	8031	638	0	-100	0	230	101300000	1000	0	0	-1	600
9641475	8010	636	0	-100	0	230	101300000	1000	0	0	-1	600
9654035	8007	637	0	-100	0	230	101300000	1000	0	0	-1	600
9666595	8010	640	0	-100	0	230	101300000	1000	0	0	-1	600
9679155	8003	632	0	-100	0	230	101300000	1000	0	0	-1	600
9691715	8005	633	0	-100	0	230	101300000	1000	0	0	-1	600
9704275	8012	635	0	-100	0	230	101300000	1000	0	0	-1	600
9716835	8012	636	0	-100	0	230	101300000	1000	0	0	-1	600
9729395	8009	639	0	-100	0	230	101300000	1000	0	0	-1	600
9741955	8002	642	0	-100	0	230	101300000	1000	0	0	-1	600
9754515	8002	636	0	-100	0	230	101300000	1000	0	0	-1	600
9767075	8000	642	0	-100	0	230	101300000	1000	0	0	-1	600
9779635	8007	638	0	-100	0	230	101300000	1000	0	0	-1	600
9792195	7993	640	0	-100	0	230	101300000	1000	0	0	-1	600
9804755	8022	631	0	-100	0	230	101300000	1000	0	0	-1	600
9817315	8017	636	0	-100	0	230	101300000	1000	0	0	-1	600
9829875	8010	639	0	-100	0	230	101300000	1000	0	0	-1	600
9842435	8013	636	0	-100	0	230	101300000	1000	0	0	-1	600
9854995	8003	635	0	-100	0	230	101300000	1000	0	0	-1	600
9867555	8012	637	0	-100	0	230	101300000	1000	0	0	-1	600
9880115	7998	639	0	-100	0	230	101300000	1000	0	0	-1	600
9892675	8002	638	0	-100	0	230	101300000	1000	0	0	-1	600
9905235	7993	639	0	-100	0	230	101300000	1000	0	0	-1	600
9917795	8005	636	0	-100	0	230	101300000	1000	0	0	-1	600
9930355	8014	633	0	-100	0	230	101300000	1000	0	0	-1	600
9942915	7998	638	0	-100	0	230	101300000	1000	0	0	-1	600
9955475	8003	633	0	-100	0	230	101300000	1000	0	0	-1	600
9968035	7996	637	0	-100	0	230	101300000	1000	0	0	-1	600
9980595	8005	635	0	-100	0	230	101300000	1000	0	0	-1	600
9993155	7998	630	0	-100	0	230	101300000	1000	0	0	-1	600
10005715	8002	633	0	-100	0	230	101300000	1000	0	0	-1	600
10018275	8012	634	0	-100	0	230	101300000	1000	0	0	-1	600
10030835	8012	633	0	-100	0	230	101300000	1000	0	0	-1	600
10043395	8007	638	0	-100	0	230	101300000	1000	0	0	-1	600
10055955	8007	637	0	-100	0	230	101300000	1000	0	0	-1	600
10068515	8005	639	0	-100	0	230	101300000	1000	0	0	-1	600
10081075	8008	637	0	-100	0	230	101300000	1000	0	0	-1	600
10093635	8004	635	0	-100	0	230	101300000	1000	0	0	-1	600
10106195	8019	634	0	-100	0	230	101300000	1000	0	0	-1	600
10118755	8005	633	0	-100	0	230	101300000	1000	0	0	-1	600
10131315	8015	632	0	-100	0	230	101300000	1000	0	0	-1	600
10143875	8012	637	0	-100	0	230	101300000	1000	0	0	-1	600
10156435	8010	632	0	-100	0	230	101300000	1000	0	0	-1	600
10168995	8015	632	0	-100	0	230	101300000	1000	0	0	-1	600
10181555	8000	638	0	-100	0	230	101300000	1000	0	0	-1	600
10194115	8014	634	0	-100	0	230	101300000	1000	0	0	-1	600
10206675	7998	638	0	-100	0	230	101300000	1000	0	0	-1	600
10219235	8014	637	0	-100	0	230	101300000	1000	0	0	-1	600
10231795	8005	633	0	-100	0	230	101300000	1000	0	0	-1	600
10244355	8015	633	0	-100	0	230	101300000	1000	0	0	-1	600
10256915	8002	639	0	-100	0	230	101300000	1000	0	0	-1	600
10269475	8008	632	0	-100	0	230	101300000	1000	0	0	-1	600
10282035	7998	635	0	-100	0	230	101300000	1000	0	0	-1	600
10294595	7993	632	0	-100	0	230	101300000	1000	0	0	-1	600
10307155	8010	634	0	-100	0	230	101300000	1000	0	0	-1	600
10319715	7991	637	0	-100	0	230	101300000	1000	0	0	-1	600
10332275	8012	633	0	-100	0	230	101300000	1000	0	0	-1	600
10344835	8010	635	0	-100	0	230	101300000	1000	0	0	-1	600
10357395	8010	635	0	-100	0	230	101300000	1000	0	0	-1	600
10369955	8010	633	0	-100	0	230	101300000	1000	0	0	-1	600
10382515	7997	638	0	-100	0	230	101300000	1000	0	0	-1	600
10395075	8017	638	0	-100	0	230	101300000	1000	0	0	-1	600
10407635	8008	632	0	-100	0	230	101300000	1000	0	0	-1	600
10420195	8012	633	0	-100	0	230	101300000	1000	0	0	-1	600
10432755	8012	636	0	-100	0	230	101300000	1000	0	0	-1	600
10445315	7998	633	0	-100	0	230	101300000	1000	0	0	-1	600
10457875	8012	637	0	-100	0	230	101300000	1000	0	0	-1	600
10470435	8007	643	0	-100	0	230	101300000	1000	0	0	-1	600
10482995	8010	635	0	-100	0	230	101300000	1000	0	0	-1	600
10495555	8017	636	0	-100	0	230	101300000	1000	0	0	-1	600
10508115	8009	632	0	-100	0	230	101300000	1000	0	0	-1	600
10520675	8013	631	0	-100	0	230	101300000	1000	0	0	-1	600
10533235	8003	633	0	-100	0	230	101300000	1000	0	0	-1	600
10545795	8008	636	0	-100	0	230	101300000	1000	0	0	-1	600
10558355	8008	634	0	-100	0	230	101300000	1000	0	0	-1	600
10570915	8009	636	0	-100	0	230	101300000	1000	0	0	-1	600
10583475	8010	635	0	-100	0	230	101300000	1000	0	0	-1	600
10596035	8010	640	0	-100	0	230	101300000	1000	0	0	-1	600
10608595	8017	636	0	-100	0	230	101300000	1000	0	0	-1	600
10621155	8003	634	0	-100	0	230	101300000	1000	0	0	-1	600
10633715	8012	636	0	-100	0	230	101300000	1000	0	0	-1	600
10646275	8024	641	0	-100	0	230	101300000	1000	0	0	-1	600
10658835	8015	638	0	-100	0	230	101300000	1000	0	0	-1	600
10671395	8015	632	0	-100	0	230	101300000	1000	0	0	-1	600
10683955	8015	634	0	-100	0	230	101300000	1000	0	0	-1	600
10696515	8013	632	0	-100	0	230	101300000	1000	0	0	-1	600
10709075	8012	633	0	-100	0	230	101300000	1000	0	0	-1	600
10721635	8003	635	0	-100	0	230	101300000	1000	0	0	-1	600
10734195	8002	637	0	-100	0	230	101300000	1000	0	0	-1	600
10746755	8014	640	0	-100	0	230	101300000	1000	0	0	-1	600
10759315	8012	637	0	-100	0	230	101300000	1000	0	0	-1	600
10771875	8017	637	0	-100	0	230	101300000	1000	0	0	-1	600
10784435	8017	637	0	-100	0	230	101300000	1000	0	0	-1	600
10796995	8013	635	0	-100	0	230	101300000	1000	0	0	-1	600
10809555	8008	633	0	-100	0	230	101300000	1000	0	0	-1	600
10822115	8012	631	0	-100	0	230	101300000	1000	0	0	-1	600
10834675	8003	634	0	-100	0	230	101300000	1000	0	0	-1	600
10847235	8008	638	0	-100	0	230	101300000	1000	0	0	-1	600
10859795	8003	636	0	-100	0	230	101300000	1000	0	0	-1	600
10872355	8012	638	0	-100	0	230	101300000	1000	0	0	-1	600
10884915	8014	636	0	-100	0	230	101300000	1000	0	0	-1	600
10897475	8005	638	0	-100	0	230	101300000	1000	0	0	-1	600
10910035	8012	640	0	-100	0	230	101300000	1000	0	0	-1	600
10922595	8007	635	0	-100	0	230	101300000	1000	0	0	-1	600
10935155	7994	635	0	-100	0	230	101300000	1000	0	0	-1	600
10947715	8012	635	0	-100	0	230	101300000	1000	0	0	-1	600
10960275	8003	637	0	-100	0	230	101300000	1000	0	0	-1	600
10972835	8002	636	0	-100	0	230	101300000	1000	0	0	-1	600
10985395	7998	636	0	-100	0	230	101300000	1000	0	0	-1	600
10997955	8005	637	0	-100	0	230	101300000	1000	0	0	-1	600
11010515	8016	635	0	-100	0	230	101300000	1000	0	0	-1	600
11023075	7998	638	0	-100	0	230	101300000	1000	0	0	-1	600
11035635	8007	638	0	-100	0	230	101300000	1000	0	0	-1	600
11048195	8014	639	0	-100	0	230	101300000	1000	0	0	-1	600
11060755	8009	637	0	-100	0	230	101300000	1000	0	0	-1	600
11073315	8010	637	0	-100	0	230	101300000	1000	0	0	-1	600
11085875	8000	637	0	-100	0	230	101300000	1000	0	0	-1	600
11098435	8004	636	0	-100	0	230	101300000	1000	0	0	-1	600
11110995	8014	637	0	-100	0	230	101300000	1000	0	0	-1	600
11123555	8003	633	0	-100	0	230	101300000	1000	0	0	-1	600
11136115	8015	634	0	-100	0	230	101300000	1000	0	0	-1	600
11148675	8008	633	0	-100	0	230	101300000	1000	0	0	-1	600
11161235	8000	637	0	-100	0	230	101300000	1000	0	0	-1	600
11173795	8015	634	0	-100	0	230	101300000	1000	0	0	-1	600
11186355	8002	638	0	-100	0	230	101300000	1000	0	0	-1	600
11198915	8001	635	0	-100	0	230	101300000	1000	0	0	-1	600
11211475	8014	640	0	-100	0	230	101300000	1000	0	0	-1	600
11224035	8008	635	0	-100	0	230	101300000	1000	0	0	-1	600
11236595	8005	632	0	-100	0	230	101300000	1000	0	0	-1	600
11249155	8006	637	0	-100	0	230	101300000	1000	0	0	-1	600
11261715	8000	634	0	-100	0	230	101300000	1000	0	0	-1	600
11274275	8009	634	0	-100	0	230	101300000	1000	0	0	-1	600
11286835	8006	633	0	-100	0	230	101300000	1000	0	0	-1	600
11299395	8010	632	0	-100	0	230	101300000	1000	0	0	-1	600
11311955	8012	633	0	-100	0	230	101300000	1000	0	0	-1	600
11324515	7995	637	0	-100	0	230	101300000	1000	0	0	-1	600
11337075	8000	637	0	-100	0	230	101300000	1000	0	0	-1	600
11349635	8007	638	0	-100	0	230	101300000	1000	0	0	-1	600
11362195	8007	634	0	-100	0	230	101300000	1000	0	0	-1	600
11374755	8000	637	0	-100	0	230	101300000	1000	0	0	-1	600
11387315	8007	638	0	-100	0	230	101300000	1000	0	0	-1	600
11399875	8005	636	0	-100	0	230	101300000	1000	0	0	-1	600
11412435	8009	634	0	-100	0	230	101300000	1000	0	0	-1	600
11424995	8021	638	0	-100	0	230	101300000	1000	0	0	-1	600
11437555	8012	633	0	-100	0	230	101300000	1000	0	0	-1	600
11450115	8014	635	0	-100	0	230	101300000	1000	0	0	-1	600
11462675	8017	634	0	-100	0	230	101300000	1000	0	0	-1	600
11475235	8007	632	0	-100	0	230	101300000	1000	0	0	-1	600
11487795	8010	641	0	-100	0	230	101300000	1000	0	0	-1	600
11500355	8008	637	0	-100	0	230	101300000	1000	0	0	-1	600
11512915	8012	640	0	-100	0	230	101300000	1000	0	0	-1	600
11525475	8007	638	0	-100	0	230	101300000	1000	0	0	-1	600
11538035	8000	641	0	-100	0	230	101300000	1000	0	0	-1	600
11550595	8017	641	0	-100	0	230	101300000	1000	0	0	-1	600
11563155	8001	634	0	-100	0	230	101300000	1000	0	0	-1	600
11575715	8005	638	0	-100	0	230	101300000	1000	0	0	-1	600
11588275	8012	637	0	-100	0	230	101300000	1000	0	0	-1	600
11600835	8014	621	0	-100	0	230	101300000	1000	0	0	-1	600
11613395	8015	632	0	-100	0	230	101300000	1000	0	0	-1	600
11625955	8015	638	0	-100	0	230	101300000	1000	0	0	-1	600
11638515	8012	633	0	-100	0	230	101300000	1000	0	0	-1	600
11651075	8007	642	0	-100	0	230	101300000	1000	0	0	-1	600
11663635	8017	635	0	-100	0	230	101300000	1000	0	0	-1	600
11676195	8003	633	0	-100	0	230	101300000	1000	0	0	-1	600
11688755	8009	634	0	-100	0	230	101300000	1000	0	0	-1	600
11701315	8003	636	0	-100	0	230	101300000	1000	0	0	-1	600
11713875	8014	644	0	-100	0	230	101300000	1000	0	0	-1	600
11726435	8005	636	0	-100	0	230	101300000	1000	0	0	-1	600
11738995	8011	635	0	-100	0	230	101300000	1000	0	0	-1	600
11751555	8015	640	0	-100	0	230	101300000	1000	0	0	-1	600
11764115	8012	639	0	-100	0	230	101300000	1000	0	0	-1	600
11776675	7994	635	0	-100	0	230	101300000	1000	0	0	-1	600
11789235	8021	635	0	-100	0	230	101300000	1000	0	0	-1	600
11801795	8005	634	0	-100	0	230	101300000	1000	0	0	-1	600
11814355	8000	636	0	-100	0	230	101300000	1000	0	0	-1	600
11826915	8009	635	0	-100	0	230	101300000	1000	0	0	-1	600
11839475	8008	642	0	-100	0	230	101300000	1000	0	0	-1	600
11852035	8010	632	0	-100	0	230	101300000	1000	0	0	-1	600
11864595	8015	638	0	-100	0	230	101300000	1000	0	0	-1	600
11877155	8011	635	0	-100	0	230	101300000	1000	0	0	-1	600
11889715	8005	635	0	-100	0	230	101300000	1000	0	0	-1	600
11902275	8017	642	0	-100	0	230	101300000	1000	0	0	-1	600
11914835	8003	633	0	-100	0	230	101300000	1000	0	0	-1	600
11927395	7998	638	0	-100	0	230	101300000	1000	0	0	-1	600
11939955	8015	635	0	-100	0	230	101300000	1000	0	0	-1	600
11952515	8012	637	0	-100	0	230	101300000	1000	0	0	-1	600
11965075	8015	633	0	-100	0	230	101300000	1000	0	0	-1	600
11977635	8010	637	0	-100	0	230	101300000	1000	0	0	-1	600
11990195	8005	639	0	-100	0	230	101300000	1000	0	0	-1	600
12002755	8013	634	0	-100	0	230	101300000	1000	0	0	-1	600
12015315	8016	638	0	-100	0	230	101300000	1000	0	0	-1	600
12027875	8014	636	0	-100	0	230	101300000	1000	0	0	-1	600
12040435	8017	639	0	-100	0	230	101300000	1000	0	0	-1	600
12052995	8008	633	0	-100	0	230	101300000	1000	0	0	-1	600
12065555	8010	636	0	-100	0	230	101300000	1000	0	0	-1	600
12078115	8000	634	0	-100	0	230	101300000	1000	0	0	-1	600
12090675	8019	631	0	-100	0	230	101300000	1000	0	0	-1	600
12103235	8014	638	0	-100	0	230	101300000	1000	0	0	-1	600
12115795	8018	619	0	-100	0	230	101300000	1000	0	0	-1	600
12128355	7995	640	0	-100	0	230	101300000	1000	0	0	-1	600
12140915	8010	641	0	-100	0	230	101300000	1000	0	0	-1	600
12153475	8010	629	0	-100	0	230	101300000	1000	0	0	-1	600
12166035	8012	635	0	-100	0	230	101300000	1000	0	0	-1	600
12178595	8010	640	0	-100	0	230	101300000	1000	0	0	-1	600
12191155	8008	635	0	-100	0	230	101300000	1000	0	0	-1	600
12203715	8007	635	0	-100	0	230	101300000	1000	0	0	-1	600
12216275	8019	637	0	-100	0	230	101300000	1000	0	0	-1	600
12228835	8016	638	0	-100	0	230	101300000	1000	0	0	-1	600
12241395	8015	642	0	-100	0	230	101300000	1000	0	0	-1	600
12253955	8007	637	0	-100	0	230	101300000	1000	0	0	-1	600
12266515	8010	634	0	-100	0	230	101300000	1000	0	0	-1	600
12279075	8010	640	0	-100	0	230	101300000	1000	0	0	-1	600
12291635	8013	633	0	-100	0	230	101300000	1000	0	0	-1	600
12304195	8011	637	0	-100	0	230	101300000	1000	0	0	-1	600
12316755	8010	637	0	-100	0	230	101300000	1000	0	0	-1	600
12329315	8005	636	0	-100	0	230	101300000	1000	0	0	-1	600
12341875	8005	637	0	-100	0	230	101300000	1000	0	0	-1	600
12354435	8012	633	0	-100	0	230	101300000	1000	0	0	-1	600
12366995	8014	634	0	-100	0	230	101300000	1000	0	0	-1	600
12379555	8022	639	0	-100	0	230	101300000	1000	0	0	-1	600
12392115	8011	635	0	-100	0	230	101300000	1000	0	0	-1	600
12404675	8022	625	0	-100	0	230	101300000	1000	0	0	-1	600
12417235	8008	636	0	-100	0	230	101300000	1000	0	0	-1	600
12429795	8002	633	0	-100	0	230	101300000	1000	0	0	-1	600
12442355	8010	637	0	-100	0	230	101300000	1000	0	0	-1	600
12454915	8015	638	0	-100	0	230	101300000	1000	0	0	-1	600
12467475	8003	636	0	-100	0	230	101300000	1000	0	0	-1	600
12480035	8013	633	0	-100	0	230	101300000	1000	0	0	-1	600
12492595	8010	642	0	-100	0	230	101300000	1000	0	0	-1	600
12505155	8015	629	0	-100	0	230	101300000	1000	0	0	-1	600
12517715	8000	634	0	-100	0	230	101300000	1000	0	0	-1	600
12530275	8012	637	0	-100	0	230	101300000	1000	0	0	-1	600
12542835	8012	636	0	-100	0	230	101300000	1000	0	0	-1	600
12555395	7995	641	0	-100	0	230	101300000	1000	0	0	-1	600
12567955	8015	637	0	-100	0	230	101300000	1000	0	0	-1	600
12580515	8012	641	0	-100	0	230	101300000	1000	0	0	-1	600
12593075	8009	640	0	-100	0	230	101300000	1000	0	0	-1	600
12605635	8020	633	0	-100	0	230	101300000	1000	0	0	-1	600
12618195	8015	638	0	-100	0	230	101300000	1000	0	0	-1	600
12630755	8008	640	0	-100	0	230	101300000	1000	0	0	-1	600
12643315	8019	638	0	-100	0	230	101300000	1000	0	0	-1	600
12655875	8016	638	0	-100	0	230	101300000	1000	0	0	-1	600
12668435	8020	635	0	-100	0	230	101300000	1000	0	0	-1	600
12680995	8010	638	0	-100	0	230	101300000	1000	0	0	-1	600
12693555	8010	638	0	-100	0	230	101300000	1000	0	0	-1	600
12706115	8008	641	0	-100	0	230	101300000	1000	0	0	-1	600
12718675	8009	640	0	-100	0	230	101300000	1000	0	0	-1	600
12731235	8012	636	0	-100	0	230	101300000	1000	0	0	-1	600
12743795	8000	638	0	-100	0	230	101300000	1000	0	0	-1	600
12756355	8012	635	0	-100	0	230	101300000	1000	0	0	-1	600
12768915	8005	637	0	-100	0	230	101300000	1000	0	0	-1	600
12781475	8017	635	0	-100	0	230	101300000	1000	0	0	-1	600
12794035	8017	638	0	-100	0	230	101300000	1000	0	0	-1	600
12806595	8007	636	0	-100	0	230	101300000	1000	0	0	-1	600
12819155	8001	634	0	-100	0	230	101300000	1000	0	0	-1	600
12831715	8017	637	0	-100	0	230	101300000	1000	0	0	-1	600
12844275	8005	641	0	-100	0	230	101300000	1000	0	0	-1	600
12856835	8016	633	0	-100	0	230	101300000	1000	0	0	-1	600
12869395	8003	635	0	-100	0	230	101300000	1000	0	0	-1	600
12881955	8009	639	0	-100	0	230	101300000	1000	0	0	-1	600
12894515	8020	637	0	-100	0	230	101300000	1000	0	0	-1	600
12907075	8007	638	0	-100	0	230	101300000	1000	0	0	-1	600
12919635	8019	635	0	-100	0	230	101300000	1000	0	0	-1	600
12932195	8014	632	0	-100	0	230	101300000	1000	0	0	-1	600
12944755	8002	638	0	-100	0	230	101300000	1000	0	0	-1	600
12957315	8005	639	0	-100	0	230	101300000	1000	0	0	-1	600
12969875	8005	633	0	-100	0	230	101300000	1000	0	0	-1	600
12982435	8012	641	0	-100	0	230	101300000	1000	0	0	-1	600
12994995	8019	635	0	-100	0	230	101300000	1000	0	0	-1	600
13007555	7996	638	0	-100	0	230	101300000	1000	0	0	-1	600
13020115	8015	633	0	-100	0	230	101300000	1000	0	0	-1	600
13032675	8012	634	0	-100	0	230	101300000	1000	0	0	-1	600
13045235	8012	641	0	-100	0	230	101300000	1000	0	0	-1	600
13057795	8020	632	0	-100	0	230	101300000	1000	0	0	-1	600
13070355	8012	642	0	-100	0	230	101300000	1000	0	0	-1	600
13082915	8015	632	0	-100	0	230	101300000	1000	0	0	-1	600
13095475	8015	633	0	-100	0	230	101300000	1000	0	0	-1	600
13108035	8008	638	0	-100	0	230	101300000	1000	0	0	-1	600
13120595	8007	637	0	-100	0	230	101300000	1000	0	0	-1	600
13133155	8000	636	0	-100	0	230	101300000	1000	0	0	-1	600
13145715	8017	633	0	-100	0	230	101300000	1000	0	0	-1	600
13158275	7998	640	0	-100	0	230	101300000	1000	0	0	-1	600
13170835	8010	637	0	-100	0	230	101300000	1000	0	0	-1	600
13183395	8022	640	0	-100	0	230	101300000	1000	0	0	-1	600
13195955	8007	637	0	-100	0	230	101300000	1000	0	0	-1	600
13208515	8015	636	0	-100	0	230	101300000	1000	0	0	-1	600
13221075	8005	642	0	-100	0	230	101300000	1000	0	0	-1	600
13233635	8015	635	0	-100	0	230	101300000	1000	0	0	-1	600
13246195	8005	639	0	-100	0	230	101300000	1000	0	0	-1	600
13258755	8019	636	0	-100	0	230	101300000	1000	0	0	-1	600
13271315	8022	634	0	-100	0	230	101300000	1000	0	0	-1	600
13283875	8003	635	0	-100	0	230	101300000	1000	0	0	-1	600
13296435	8010	638	0	-100	0	230	101300000	1000	0	0	-1	600
13308995	8015	633	0	-100	0	230	101300000	1000	0	0	-1	600
13321555	8003	637	0	-100	0	230	101300000	1000	0	0	-1	600
13334115	8005	638	0	-100	0	230	101300000	1000	0	0	-1	600
13346675	8017	639	0	-100	0	230	101300000	1000	0	0	-1	600
13359235	8007	636	0	-100	0	230	101300000	1000	0	0	-1	600
13371795	8017	640	0	-100	0	230	101300000	1000	0	0	-1	600
13384355	8010	636	0	-100	0	230	101300000	1000	0	0	-1	600
13396915	8012	638	0	-100	0	230	101300000	1000	0	0	-1	600
13409475	7996	640	0	-100	0	230	101300000	1000	0	0	-1	600
13422035	8026	636	0	-100	0	230	101300000	1000	0	0	-1	600
13434595	8012	635	0	-100	0	230	101300000	1000	0	0	-1	600
13447155	7995	633	0	-100	0	230	101300000	1000	0	0	-1	600
13459715	8017	633	0	-100	0	230	101300000	1000	0	0	-1	600
13472275	8008	638	0	-100	0	230	101300000	1000	0	0	-1	600
13484835	8015	633	0	-100	0	230	101300000	1000	0	0	-1	600
13497395	8012	637	0	-100	0	230	101300000	1000	0	0	-1	600
13509955	8016	638	0	-100	0	230	101300000	1000	0	0	-1	600
13522515	8015	631	0	-100	0	230	101300000	1000	0	0	-1	600
13535075	8005	636	0	-100	0	230	101300000	1000	0	0	-1	600
13547635	8001	632	0	-100	0	230	101300000	1000	0	0	-1	600
13560195	8008	638	0	-100	0	230	101300000	1000	0	0	-1	600
13572755	8012	635	0	-100	0	230	101300000	1000	0	0	-1	600
13585315	8005	633	0	-100	0	230	101300000	1000	0	0	-1	600
13597875	8017	638	0	-100	0	230	101300000	1000	0	0	-1	600
13610435	8003	636	0	-100	0	230	101300000	1000	0	0	-1	600
13622995	8012	638	0	-100	0	230	101300000	1000	0	0	-1	600
13635555	8010	641	0	-100	0	230	101300000	1000	0	0	-1	600
13648115	8022	634	0	-100	0	230	101300000	1000	0	0	-1	600
13660675	8006	635	0	-100	0	230	101300000	1000	0	0	-1	600
13673235	8009	634	0	-100	0	230	101300000	1000	0	0	-1	600
13685795	8012	638	0	-100	0	230	101300000	1000	0	0	-1	600
13698355	8017	638	0	-100	0	230	101300000	1000	0	0	-1	600
13710915	8012	633	0	-100	0	230	101300000	1000	0	0	-1	600
13723475	8007	635	0	-100	0	230	101300000	1000	0	0	-1	600
13736035	8012	637	0	-100	0	230	101300000	1000	0	0	-1	600
13748595	8005	636	0	-100	0	230	101300000	1000	0	0	-1	600
13761155	8008	634	0	-100	0	230	101300000	1000	0	0	-1	600
13773715	8007	639	0	-100	0	230	101300000	1000	0	0	-1	600
13786275	8010	637	0	-100	0	230	101300000	1000	0	0	-1	600
13798835	8002	640	0	-100	0	230	101300000	1000	0	0	-1	600
13811395	8017	638	0	-100	0	230	101300000	1000	0	0	-1	600
13823955	8010	642	0	-100	0	230	101300000	1000	0	0	-1	600
13836515	8010	638	0	-100	0	230	101300000	1000	0	0	-1	600
13849075	8012	636	0	-100	0	230	101300000	1000	0	0	-1	600
13861635	8013	634	0	-100	0	230	101300000	1000	0	0	-1	600
13874195	8015	634	0	-100	0	230	101300000	1000	0	0	-1	600
13886755	8013	632	0	-100	0	230	101300000	1000	0	0	-1	600
13899315	8012	636	0	-100	0	230	101300000	1000	0	0	-1	600
13911875	8019	634	0	-100	0	230	101300000	1000	0	0	-1	600
13924435	8010	634	0	-100	0	230	101300000	1000	0	0	-1	600
13936995	8008	636	0	-100	0	230	101300000	1000	0	0	-1	600
13949555	8019	620	0	-100	0	230	101300000	1000	0	0	-1	600
13962115	8005	637	0	-100	0	230	101300000	1000	0	0	-1	600
13974675	8012	638	0	-100	0	230	101300000	1000	0	0	-1	600
13987235	8010	637	0	-100	0	230	101300000	1000	0	0	-1	600
13999795	7998	638	0	-100	0	230	101300000	1000	0	0	-1	600
14012355	8015	633	0	-100	0	230	101300000	1000	0	0	-1	600
14024915	8015	638	0	-100	0	230	101300000	1000	0	0	-1	600
14037475	8001	638	0	-100	0	230	101300000	1000	0	0	-1	600
14050035	8017	632	0	-100	0	230	101300000	1000	0	0	-1	600
14062595	8012	641	0	-100	0	230	101300000	1000	0	0	-1	600
14075155	7998	636	0	-100	0	230	101300000	1000	0	0	-1	600
14087715	8019	635	0	-100	0	230	101300000	1000	0	0	-1	600
14100275	8012	635	0	-100	0	230	101300000	1000	0	0	-1	600
14112835	8022	634	0	-100	0	230	101300000	1000	0	0	-1	600
14125395	8009	640	0	-100	0	230	101300000	1000	0	0	-1	600
14137955	7993	636	0	-100	0	230	101300000	1000	0	0	-1	600
14150515	8019	640	0	-100	0	230	101300000	1000	0	0	-1	600
14163075	8010	639	0	-100	0	230	101300000	1000	0	0	-1	600
14175635	8017	634	0	-100	0	230	101300000	1000	0	0	-1	600
14188195	8000	641	0	-100	0	230	101300000	1000	0	0	-1	600
14200755	8007	637	0	-100	0	230	101300000	1000	0	0	-1	600
14213315	8012	638	0	-100	0	230	101300000	1000	0	0	-1	600
14225875	8015	636	0	-100	0	230	101300000	1000	0	0	-1	600
14238435	8024	636	0	-100	0	230	101300000	1000	0	0	-1	600
14250995	8015	638	0	-100	0	230	101300000	1000	0	0	-1	600
14263555	8012	642	0	-100	0	230	101300000	1000	0	0	-1	600
14276115	8011	638	0	-100	0	230	101300000	1000	0	0	-1	600
14288675	8012	639	0	-100	0	230	101300000	1000	0	0	-1	600
14301235	8002	637	0	-100	0	230	101300000	1000	0	0	-1	600
14313795	8008	632	0	-100	0	230	101300000	1000	0	0	-1	600
14326355	8008	631	0	-100	0	230	101300000	1000	0	0	-1	600
14338915	8010	636	0	-100	0	230	101300000	1000	0	0	-1	600
14351475	8002	637	0	-100	0	230	101300000	1000	0	0	-1	600
14364035	8008	633	0	-100	0	230	101300000	1000	0	0	-1	600
14376595	8008	641	0	-100	0	230	101300000	1000	0	0	-1	600
14389155	8010	635	0	-100	0	230	101300000	1000	0	0	-1	600
14401715	8013	634	0	-100	0	230	101300000	1000	0	0	-1	600
14414275	8003	638	0	-100	0	230	101300000	1000	0	0	-1	600
14426835	8010	638	0	-100	0	230	101300000	1000	0	0	-1	600
14439395	8022	633	0	-100	0	230	101300000	1000	0	0	-1	600
14451955	8007	637	0	-100	0	230	101300000	1000	0	0	-1	600
14464515	8007	638	0	-100	0	230	101300000	1000	0	0	-1	600
14477075	8026	638	0	-100	0	230	101300000	1000	0	0	-1	600
14489635	7994	633	0	-100	0	230	101300000	1000	0	0	-1	600
14502195	8015	637	0	-100	0	230	101300000	1000	0	0	-1	600
14514755	8012	638	0	-100	0	230	101300000	1000	0	0	-1	600
14527315	8017	633	0	-100	0	230	101300000	1000	0	0	-1	600
14539875	8020	634	0	-100	0	230	101300000	1000	0	0	-1	600
14552435	8008	641	0	-100	0	230	101300000	1000	0	0	-1	600
14564995	8008	637	0	-100	0	230	101300000	1000	0	0	-1	600
14577555	8002	640	0	-100	0	230	101300000	1000	0	0	-1	600
14590115	8019	639	0	-100	0	230	101300000	1000	0	0	-1	600
14602675	8012	638	0	-100	0	230	101300000	1000	0	0	-1	600
14615235	8024	639	0	-100	0	230	101300000	1000	0	0	-1	600
14627795	8013	636	0	-100	0	230	101300000	1000	0	0	-1	600
14640355	8005	636	0	-100	0	230	101300000	1000	0	0	-1	600
14652915	8003	636	0	-100	0	230	101300000	1000	0	0	-1	600
14665475	8010	634	0	-100	0	230	101300000	1000	0	0	-1	600
14678035	8002	635	0	-100	0	230	101300000	1000	0	0	-1	600
14690595	8012	638	0	-100	0	230	101300000	1000	0	0	-1	600
14703155	8005	638	0	-100	0	230	101300000	1000	0	0	-1	600
14715715	8015	640	0	-100	0	230	101300000	1000	0	0	-1	600
14728275	8010	639	0	-100	0	230	101300000	1000	0	0	-1	600
14740835	8016	638	0	-100	0	230	101300000	1000	0	0	-1	600
14753395	8010	640	0	-100	0	230	101300000	1000	0	0	-1	600
14765955	8022	640	0	-100	0	230	101300000	1000	0	0	-1	600
14778515	8012	637	0	-100	0	230	101300000	1000	0	0	-1	600
14791075	8007	636	0	-100	0	230	101300000	1000	0	0	-1	600
14803635	8012	637	0	-100	0	230	101300000	1000	0	0	-1	600
14816195	8012	639	0	-100	0	230	101300000	1000	0	0	-1	600
14828755	8013	636	0	-100	0	230	101300000	1000	0	0	-1	600
14841315	8007	642	0	-100	0	230	101300000	1000	0	0	-1	600
14853875	8009	641	0	-100	0	230	101300000	1000	0	0	-1	600
14866435	8012	640	0	-100	0	230	101300000	1000	0	0	-1	600
14878995	8005	632	0	-100	0	230	101300000	1000	0	0	-1	600
14891555	7998	637	0	-100	0	230	101300000	1000	0	0	-1	600
14904115	8019	634	0	-100	0	230	101300000	1000	0	0	-1	600
14916675	8012	635	0	-100	0	230	101300000	1000	0	0	-1	600
14929235	8021	632	0	-100	0	230	101300000	1000	0	0	-1	600
14941795	8007	634	0	-100	0	230	101300000	1000	0	0	-1	600
14954355	8019	635	0	-100	0	230	101300000	1000	0	0	-1	600
14966915	8022	633	0	-100	0	230	101300000	1000	0	0	-1	600
14979475	8007	640	0	-100	0	230	101300000	1000	0	0	-1	600
14992035	8010	638	0	-100	0	230	101300000	1000	0	0	-1	600
15004595	8015	638	0	-100	0	230	101300000	1000	0	0	-1	600
15017155	8003	639	0	-100	0	230	101300000	1000	0	0	-1	600
15029715	8024	635	0	-100	0	230	101300000	1000	0	0	-1	600
15042275	8007	612	0	-100	0	230	101300000	1000	0	0	-1	600
15054835	8012	640	0	-100	0	230	101300000	1000	0	0	-1	600
15067395	8022	638	0	-100	0	230	101300000	1000	0	0	-1	600
15079955	8014	638	0	-100	0	230	101300000	1000	0	0	-1	600
15092515	8010	638	0	-100	0	230	101300000	1000	0	0	-1	600
15105075	8010	634	0	-100	0	230	101300000	1000	0	0	-1	600
15117635	8012	640	0	-100	0	230	101300000	1000	0	0	-1	600
15130195	8015	633	0	-100	0	230	101300000	1000	0	0	-1	600
15142755	8019	642	0	-100	0	230	101300000	1000	0	0	-1	600
15155315	8013	630	0	-100	0	230	101300000	1000	0	0	-1	600
15167875	8007	639	0	-100	0	230	101300000	1000	0	0	-1	600
15180435	8022	638	0	-100	0	230	101300000	1000	0	0	-1	600
15192995	8005	637	0	-100	0	230	101300000	1000	0	0	-1	600
15205555	8017	639	0	-100	0	230	101300000	1000	0	0	-1	600
15218115	8010	643	0	-100	0	230	101300000	1000	0	0	-1	600
15230675	8020	637	0	-100	0	230	101300000	1000	0	0	-1	600
15243235	8010	637	0	-100	0	230	101300000	1000	0	0	-1	600
15255795	8015	639	0	-100	0	230	101300000	1000	0	0	-1	600
15268355	8020	640	0	-100	0	230	101300000	1000	0	0	-1	600
15280915	8019	631	0	-100	0	230	101300000	1000	0	0	-1	600
15293475	8012	634	0	-100	0	230	101300000	1000	0	0	-1	600
15306035	8000	635	0	-100	0	230	101300000	1000	0	0	-1	600
15318595	8010	634	0	-100	0	230	101300000	1000	0	0	-1	600
15331155	8008	639	0	-100	0	230	101300000	1000	0	0	-1	600
15343715	8024	638	0	-100	0	230	101300000	1000	0	0	-1	600
15356275	8010	633	0	-100	0	230	101300000	1000	0	0	-1	600
15368835	8010	636	0	-100	0	230	101300000	1000	0	0	-1	600
15381395	8012	634	0	-100	0	230	101300000	1000	0	0	-1	600
15393955	8012	636	0	-100	0	230	101300000	1000	0	0	-1	600
15406515	8010	635	0	-100	0	230	101300000	1000	0	0	-1	600
15419075	8009	637	0	-100	0	230	101300000	1000	0	0	-1	600
15431635	8005	634	0	-100	0	230	101300000	1000	0	0	-1	600
15444195	8000	639	0	-100	0	230	101300000	1000	0	0	-1	600
15456755	8014	634	0	-100	0	230	101300000	1000	0	0	-1	600
15469315	8009	636	0	-100	0	230	101300000	1000	0	0	-1	600
15481875	8015	633	0	-100	0	230	101300000	1000	0	0	-1	600
15494435	8010	640	0	-100	0	230	101300000	1000	0	0	-1	600
15506995	8005	635	0	-100	0	230	101300000	1000	0	0	-1	600
15519555	8008	642	0	-100	0	230	101300000	1000	0	0	-1	600
15532115	7998	637	0	-100	0	230	101300000	1000	0	0	-1	600
15544675	8012	637	0	-100	0	230	101300000	1000	0	0	-1	600
15557235	8015	634	0	-100	0	230	101300000	1000	0	0	-1	600
15569795	8005	636	0	-100	0	230	101300000	1000	0	0	-1	600
15582355	8012	641	0	-100	0	230	101300000	1000	0	0	-1	600
15594915	8010	638	0	-100	0	230	101300000	1000	0	0	-1	600
15607475	8009	642	0	-100	0	230	101300000	1000	0	0	-1	600
15620035	8015	637	0	-100	0	230	101300000	1000	0	0	-1	600
15632595	8017	638	0	-100	0	230	101300000	1000	0	0	-1	600
15645155	8003	632	0	-100	0	230	101300000	1000	0	0	-1	600
15657715	8010	639	0	-100	0	230	101300000	1000	0	0	-1	600
15670275	8003	636	0	-100	0	230	101300000	1000	0	0	-1	600
15682835	8008	640	0	-100	0	230	101300000	1000	0	0	-1	600
15695395	8024	636	0	-100	0	230	101300000	1000	0	0	-1	600
15707955	8008	637	0	-100	0	230	101300000	1000	0	0	-1	600
15720515	8019	638	0	-100	0	230	101300000	1000	0	0	-1	600
15733075	8024	640	0	-100	0	230	101300000	1000	0	0	-1	600
15745635	8012	638	0	-100	0	230	101300000	1000	0	0	-1	600
15758195	8017	637	0	-100	0	230	101300000	1000	0	0	-1	600
15770755	8010	636	0	-100	0	230	101300000	1000	0	0	-1	600
15783315	8005	638	0	-100	0	230	101300000	1000	0	0	-1	600
15795875	8019	638	0	-100	0	230	101300000	1000	0	0	-1	600
15808435	8012	639	0	-100	0	230	101300000	1000	0	0	-1	600
15820995	8010	635	0	-100	0	230	101300000	1000	0	0	-1	600
15833555	7994	640	0	-100	0	230	101300000	1000	0	0	-1	600
15846115	8012	640	0	-100	0	230	101300000	1000	0	0	-1	600
15858675	8010	635	0	-100	0	230	101300000	1000	0	0	-1	600
15871235	8017	636	0	-100	0	230	101300000	1000	0	0	-1	600
15883795	8017	637	0	-100	0	230	101300000	1000	0	0	-1	600
15896355	8007	638	0	-100	0	230	101300000	1000	0	0	-1	600
15908915	8024	639	0	-100	0	230	101300000	1000	0	0	-1	600
15921475	8010	629	0	-100	0	230	101300000	1000	0	0	-1	600
15934035	8002	633	0	-100	0	230	101300000	1000	0	0	-1	600
15946595	8005	635	0	-100	0	230	101300000	1000	0	0	-1	600
15959155	8006	628	0	-100	0	230	101300000	1000	0	0	-1	600
15971715	8005	636	0	-100	0	230	101300000	1000	0	0	-1	600
15984275	8015	641	0	-100	0	230	101300000	1000	0	0	-1	600
15996835	8016	635	0	-100	0	230	101300000	1000	0	0	-1	600
16009395	8015	637	0	-100	0	230	101300000	1000	0	0	-1	600
16021955	8000	638	0	-100	0	230	101300000	1000	0	0	-1	600
16034515	8019	636	0	-100	0	230	101300000	1000	0	0	-1	600
16047075	8019	634	0	-100	0	230	101300000	1000	0	0	-1	600
16059635	8005	638	0	-100	0	230	101300000	1000	0	0	-1	600
16072195	8010	641	0	-100	0	230	101300000	1000	0	0	-1	600
16084755	8003	641	0	-100	0	230	101300000	1000	0	0	-1	600
16097315	8015	636	0	-100	0	230	101300000	1000	0	0	-1	600
16109875	8022	637	0	-100	0	230	101300000	1000	0	0	-1	600
16122435	8017	643	0	-100	0	230	101300000	1000	0	0	-1	600
16134995	8019	633	0	-100	0	230	101300000	1000	0	0	-1	600
16147555	8008	638	0	-100	0	230	101300000	1000	0	0	-1	600
16160115	8014	635	0	-100	0	230	101300000	1000	0	0	-1	600
16172675	8018	635	0	-100	0	230	101300000	1000	0	0	-1	600
16185235	8015	635	0	-100	0	230	101300000	1000	0	0	-1	600
16197795	8019	635	0	-100	0	230	101300000	1000	0	0	-1	600
16210355	8010	635	0	-100	0	230	101300000	1000	0	0	-1	600
16222915	8005	636	0	-100	0	230	101300000	1000	0	0	-1	600
16235475	8015	634	0	-100	0	230	101300000	1000	0	0	-1	600
16248035	8005	616	0	-100	0	230	101300000	1000	0	0	-1	600
16260595	8017	638	0	-100	0	230	101300000	1000	0	0	-1	600
16273155	8006	636	0	-100	0	230	101300000	1000	0	0	-1	600
16285715	8007	640	0	-100	0	230	101300000	1000	0	0	-1	600
16298275	8017	637	0	-100	0	230	101300000	1000	0	0	-1	600
16310835	8012	637	0	-100	0	230	101300000	1000	0	0	-1	600
16323395	8003	633	0	-100	0	230	101300000	1000	0	0	-1	600
16335955	8005	640	0	-100	0	230	101300000	1000	0	0	-1	600
16348515	8024	639	0	-100	0	230	101300000	1000	0	0	-1	600
16361075	8019	638	0	-100	0	230	101300000	1000	0	0	-1	600
16373635	8002	641	0	-100	0	230	101300000	1000	0	0	-1	600
16386195	8017	634	0	-100	0	230	101300000	1000	0	0	-1	600
16398755	8007	638	0	-100	0	230	101300000	1000	0	0	-1	600
16411315	8018	636	0	-100	0	230	101300000	1000	0	0	-1	600
16423875	8011	639	0	-100	0	230	101300000	1000	0	0	-1	600
16436435	8015	636	0	-100	0	230	101300000	1000	0	0	-1	600
16448995	8014	634	0	-100	0	230	101300000	1000	0	0	-1	600
16461555	8019	638	0	-100	0	230	101300000	1000	0	0	-1	600
16474115	8000	638	0	-100	0	230	101300000	1000	0	0	-1	600
16486675	8008	633	0	-100	0	230	101300000	1000	0	0	-1	600
16499235	8018	637	0	-100	0	230	101300000	1000	0	0	-1	600
16511795	8000	638	0	-100	0	230	101300000	1000	0	0	-1	600
16524355	8022	636	0	-100	0	230	101300000	1000	0	0	-1	600
16536915	7997	634	0	-100	0	230	101300000	1000	0	0	-1	600
16549475	8014	631	0	-100	0	230	101300000	1000	0	0	-1	600
16562035	8017	638	0	-100	0	230	101300000	1000	0	0	-1	600
16574595	8012	632	0	-100	0	230	101300000	1000	0	0	-1	600
16587155	7996	627	0	-100	0	230	101300000	1000	0	0	-1	600
16599715	8005	639	0	-100	0	230	101300000	1000	0	0	-1	600
16612275	8012	643	0	-100	0	230	101300000	1000	0	0	-1	600
16624835	8008	641	0	-100	0	230	101300000	1000	0	0	-1	600
16637395	8017	638	0	-100	0	230	101300000	1000	0	0	-1	600
16649955	8022	633	0	-100	0	230	101300000	1000	0	0	-1	600
16662515	7998	636	0	-100	0	230	101300000	1000	0	0	-1	600
16675075	8002	637	0	-100	0	230	101300000	1000	0	0	-1	600
16687635	8000	637	0	-100	0	230	101300000	1000	0	0	-1	600
16700195	8003	636	0	-100	0	230	101300000	1000	0	0	-1	600
16712755	8003	635	0	-100	0	230	101300000	1000	0	0	-1	600
16725315	8000	640	0	-100	0	230	101300000	1000	0	0	-1	600
16737875	8013	638	0	-100	0	230	101300000	1000	0	0	-1	600
16750435	8003	640	0	-100	0	230	101300000	1000	0	0	-1	600
16762995	7993	638	0	-100	0	230	101300000	1000	0	0	-1	600
16775555	8008	640	0	-100	0	230	101300000	1000	0	0	-1	600
16788115	8008	640	0	-100	0	230	101300000	1000	0	0	-1	600
16800675	8015	634	0	-100	0	230	101300000	1000	0	0	-1	600
16813235	8001	635	0	-100	0	230	101300000	1000	0	0	-1	600
16825795	8012	637	0	-100	0	230	101300000	1000	0	0	-1	600
16838355	8012	641	0	-100	0	230	101300000	1000	0	0	-1	600
16850915	8012	637	0	-100	0	230	101300000	1000	0	0	-1	600
16863475	8005	642	0	-100	0	230	101300000	1000	0	0	-1	600
16876035	8025	634	0	-100	0	230	101300000	1000	0	0	-1	600
16888595	8015	636	0	-100	0	230	101300000	1000	0	0	-1	600
16901155	8013	635	0	-100	0	230	101300000	1000	0	0	-1	600
16913715	8005	638	0	-100	0	230	101300000	1000	0	0	-1	600
16926275	8013	633	0	-100	0	230	101300000	1000	0	0	-1	600
16938835	8008	641	0	-100	0	230	101300000	1000	0	0	-1	600
16951395	8020	641	0	-100	0	230	101300000	1000	0	0	-1	600
16963955	8012	643	0	-100	0	230	101300000	1000	0	0	-1	600
16976515	8010	638	0	-100	0	230	101300000	1000	0	0	-1	600
16989075	8015	641	0	-100	0	230	101300000	1000	0	0	-1	600
17001635	8019	637	0	-100	0	230	101300000	1000	0	0	-1	600
17014195	8019	633	0	-100	0	230	101300000	1000	0	0	-1	600
17026755	8008	639	0	-100	0	230	101300000	1000	0	0	-1	600
17039315	8019	636	0	-100	0	230	101300000	1000	0	0	-1	600
17051875	8007	637	0	-100	0	230	101300000	1000	0	0	-1	600
17064435	8009	641	0	-100	0	230	101300000	1000	0	0	-1	600
17076995	8003	639	0	-100	0	230	101300000	1000	0	0	-1	600
17089555	8010	639	0	-100	0	230	101300000	1000	0	0	-1	600
17102115	8010	637	0	-100	0	230	101300000	1000	0	0	-1	600
17114675	8005	640	0	-100	0	230	101300000	1000	0	0	-1	600
17127235	8017	639	0	-100	0	230	101300000	1000	0	0	-1	600
17139795	8010	637	0	-100	0	230	101300000	1000	0	0	-1	600
17152355	8015	635	0	-100	0	230	101300000	1000	0	0	-1	600
17164915	8020	637	0	-100	0	230	101300000	1000	0	0	-1	600
17177475	8020	636	0	-100	0	230	101300000	1000	0	0	-1	600
17190035	8000	639	0	-100	0	230	101300000	1000	0	0	-1	600
17202595	8007	635	0	-100	0	230	101300000	1000	0	0	-1	600
17215155	7994	634	0	-100	0	230	101300000	1000	0	0	-1	600
17227715	8010	638	0	-100	0	230	101300000	1000	0	0	-1	600
17240275	8005	612	0	-100	0	230	101300000	1000	0	0	-1	600
17252835	8022	634	0	-100	0	230	101300000	1000	0	0	-1	600
17265395	8022	638	0	-100	0	230	101300000	1000	0	0	-1	600
17277955	8014	638	0	-100	0	230	101300000	1000	0	0	-1	600
17290515	8012	639	0	-100	0	230	101300000	1000	0	0	-1	600
17303075	8003	640	0	-100	0	230	101300000	1000	0	0	-1	600
17315635	8008	640	0	-100	0	230	101300000	1000	0	0	-1	600
17328195	8005	643	0	-100	0	230	101300000	1000	0	0	-1	600
17340755	8017	639	0	-100	0	230	101300000	1000	0	0	-1	600
17353315	8016	640	0	-100	0	230	101300000	1000	0	0	-1	600
17365875	8024	638	0	-100	0	230	101300000	1000	0	0	-1	600
17378435	8015	634	0	-100	0	230	101300000	1000	0	0	-1	600
17390995	8024	634	0	-100	0	230	101300000	1000	0	0	-1	600
17403555	8007	638	0	-100	0	230	101300000	1000	0	0	-1	600
17416115	8007	638	0	-100	0	230	101300000	1000	0	0	-1	600
17428675	8019	641	0	-100	0	230	101300000	1000	0	0	-1	600
17441235	8010	633	0	-100	0	230	101300000	1000	0	0	-1	600
17453795	8008	637	0	-100	0	230	101300000	1000	0	0	-1	600
17466355	8005	636	0	-100	0	230	101300000	1000	0	0	-1	600
17478915	8006	633	0	-100	0	230	101300000	1000	0	0	-1	600
17491475	7995	637	0	-100	0	230	101300000	1000	0	0	-1	600
17504035	8012	637	0	-100	0	230	101300000	1000	0	0	-1	600
17516595	8024	632	0	-100	0	230	101300000	1000	0	0	-1	600
17529155	7997	633	0	-100	0	230	101300000	1000	0	0	-1	600
17541715	8012	633	0	-100	0	230	101300000	1000	0	0	-1	600
17554275	8012	614	0	-100	0	230	101300000	1000	0	0	-1	600
17566835	8026	635	0	-100	0	230	101300000	1000	0	0	-1	600
17579395	8012	634	0	-100	0	230	101300000	1000	0	0	-1	600
17591955	8017	635	0	-100	0	230	101300000	1000	0	0	-1	600
17604515	8003	637	0	-100	0	230	101300000	1000	0	0	-1	600
17617075	8003	638	0	-100	0	230	101300000	1000	0	0	-1	600
17629635	7997	638	0	-100	0	230	101300000	1000	0	0	-1	600
17642195	8015	634	0	-100	0	230	101300000	1000	0	0	-1	600
17654755	8019	637	0	-100	0	230	101300000	1000	0	0	-1	600
17667315	8007	637	0	-100	0	230	101300000	1000	0	0	-1	600
17679875	8012	634	0	-100	0	230	101300000	1000	0	0	-1	600
17692435	8005	637	0	-100	0	230	101300000	1000	0	0	-1	600
17704995	7998	637	0	-100	0	230	101300000	1000	0	0	-1	600
17717555	8017	638	0	-100	0	230	101300000	1000	0	0	-1	600
17730115	7998	637	0	-100	0	230	101300000	1000	0	0	-1	600
17742675	8009	639	0	-100	0	230	101300000	1000	0	0	-1	600
17755235	8007	640	0	-100	0	230	101300000	1000	0	0	-1	600
17767795	8010	638	0	-100	0	230	101300000	1000	0	0	-1	600
17780355	8008	638	0	-100	0	230	101300000	1000	0	0	-1	600
17792915	8002	639	0	-100	0	230	101300000	1000	0	0	-1	600
17805475	8014	636	0	-100	0	230	101300000	1000	0	0	-1	600
17818035	8012	637	0	-100	0	230	101300000	1000	0	0	-1	600
17830595	8012	635	0	-100	0	230	101300000	1000	0	0	-1	600
17843155	7996	639	0	-100	0	230	101300000	1000	0	0	-1	600
17855715	8002	638	0	-100	0	230	101300000	1000	0	0	-1	600
17868275	8008	630	0	-100	0	230	101300000	1000	0	0	-1	600
17880835	8010	636	0	-100	0	230	101300000	1000	0	0	-1	600
17893395	8019	638	0	-100	0	230	101300000	1000	0	0	-1	600
17905955	8009	640	0	-100	0	230	101300000	1000	0	0	-1	600
17918515	8012	640	0	-100	0	230	101300000	1000	0	0	-1	600
17931075	8015	633	0	-100	0	230	101300000	1000	0	0	-1	600
17943635	8015	633	0	-100	0	230	101300000	1000	0	0	-1	600
17956195	8013	641	0	-100	0	230	101300000	1000	0	0	-1	600
17968755	8016	638	0	-100	0	230	101300000	1000	0	0	-1	600
17981315	8019	633	0	-100	0	230	101300000	1000	0	0	-1	600
17993875	8015	630	0	-100	0	230	101300000	1000	0	0	-1	600
18006435	8019	634	0	-100	0	230	101300000	1000	0	0	-1	600
18018995	8007	635	0	-100	0	230	101300000	1000	0	0	-1	600
18031555	8011	636	0	-100	0	230	101300000	1000	0	0	-1	600
18044115	8002	638	0	-100	0	230	101300000	1000	0	0	-1	600
18056675	8012	638	0	-100	0	230	101300000	1000	0	0	-1	600
18069235	8015	634	0	-100	0	230	101300000	1000	0	0	-1	600
18081795	8000	638	0	-100	0	230	101300000	1000	0	0	-1	600
18094355	7998	632	0	-100	0	230	101300000	1000	0	0	-1	600
18106915	8012	638	0	-100	0	230	101300000	1000	0	0	-1	600
18119475	8012	637	0	-100	0	230	101300000	1000	0	0	-1	600
18132035	8017	635	0	-100	0	230	101300000	1000	0	0	-1	600
18144595	8010	636	0	-100	0	230	101300000	1000	0	0	-1	600
18157155	8013	632	0	-100	0	230	101300000	1000	0	0	-1	600
18169715	8015	639	0	-100	0	230	101300000	1000	0	0	-1	600
18182275	8015	641	0	-100	0	230	101300000	1000	0	0	-1	600
18194835	8012	638	0	-100	0	230	101300000	1000	0	0	-1	600
18207395	8017	638	0	-100	0	230	101300000	1000	0	0	-1	600
18219955	8015	635	0	-100	0	230	101300000	1000	0	0	-1	600
18232515	8007	634	0	-100	0	230	101300000	1000	0	0	-1	600
18245075	8012	637	0	-100	0	230	101300000	1000	0	0	-1	600
18257635	8014	640	0	-100	0	230	101300000	1000	0	0	-1	600
18270195	8010	638	0	-100	0	230	101300000	1000	0	0	-1	600
18282755	8007	638	0	-100	0	230	101300000	1000	0	0	-1	600
18295315	8010	637	0	-100	0	230	101300000	1000	0	0	-1	600
18307875	8013	636	0	-100	0	230	101300000	1000	0	0	-1	600
18320435	8001	634	0	-100	0	230	101300000	1000	0	0	-1	600
18332995	8010	634	0	-100	0	230	101300000	1000	0	0	-1	600
18345555	8007	640	0	-100	0	230	101300000	1000	0	0	-1	600
18358115	8015	638	0	-100	0	230	101300000	1000	0	0	-1	600
18370675	8005	638	0	-100	0	230	101300000	1000	0	0	-1	600
18383235	8017	641	0	-100	0	230	101300000	1000	0	0	-1	600
18395795	8012	640	0	-100	0	230	101300000	1000	0	0	-1	600
18408355	8015	638	0	-100	0	230	101300000	1000	0	0	-1	600
18420915	8009	634	0	-100	0	230	101300000	1000	0	0	-1	600
18433475	8012	633	0	-100	0	230	101300000	1000	0	0	-1	600
18446035	8020	635	0	-100	0	230	101300000	1000	0	0	-1	600
18458595	8015	637	0	-100	0	230	101300000	1000	0	0	-1	600
18471155	7998	632	0	-100	0	230	101300000	1000	0	0	-1	600
18483715	8009	638	0	-100	0	230	101300000	1000	0	0	-1	600
18496275	8015	638	0	-100	0	230	101300000	1000	0	0	-1	600
18508835	8015	633	0	-100	0	230	101300000	1000	0	0	-1	600
18521395	8017	635	0	-100	0	230	101300000	1000	0	0	-1	600
18533955	8014	639	0	-100	0	230	101300000	1000	0	0	-1	600
18546515	8012	637	0	-100	0	230	101300000	1000	0	0	-1	600
18559075	8011	634	0	-100	0	230	101300000	1000	0	0	-1	600
18571635	8009	634	0	-100	0	230	101300000	1000	0	0	-1	600
18584195	8017	641	0	-100	0	230	101300000	1000	0	0	-1	600
18596755	8008	635	0	-100	0	230	101300000	1000	0	0	-1	600
18609315	8005	634	0	-100	0	230	101300000	1000	0	0	-1	600
18621875	8017	638	0	-100	0	230	101300000	1000	0	0	-1	600
18634435	8010	635	0	-100	0	230	101300000	1000	0	0	-1	600
18646995	8012	632	0	-100	0	230	101300000	1000	0	0	-1	600
18659555	8014	638	0	-100	0	230	101300000	1000	0	0	-1	600
18672115	8015	632	0	-100	0	230	101300000	1000	0	0	-1	600
18684675	8012	634	0	-100	0	230	101300000	1000	0	0	-1	600
18697235	8001	639	0	-100	0	230	101300000	1000	0	0	-1	600
18709795	8008	638	0	-100	0	230	101300000	1000	0	0	-1	600
18722355	8032	638	0	-100	0	230	101300000	1000	0	0	-1	600
18734915	8011	633	0	-100	0	230	101300000	1000	0	0	-1	600
18747475	8015	633	0	-100	0	230	101300000	1000	0	0	-1	600
18760035	8012	634	0	-100	0	230	101300000	1000	0	0	-1	600
18772595	8010	639	0	-100	0	230	101300000	1000	0	0	-1	600
18785155	8010	637	0	-100	0	230	101300000	1000	0	0	-1	600
18797715	8008	638	0	-100	0	230	101300000	1000	0	0	-1	600
18810275	8010	639	0	-100	0	230	101300000	1000	0	0	-1	600
18822835	7998	638	0	-100	0	230	101300000	1000	0	0	-1	600
18835395	8022	634	0	-100	0	230	101300000	1000	0	0	-1	600
18847955	8006	642	0	-100	0	230	101300000	1000	0	0	-1	600
18860515	8015	637	0	-100	0	230	101300000	1000	0	0	-1	600
18873075	8015	633	0	-100	0	230	101300000	1000	0	0	-1	600
18885635	8008	636	0	-100	0	230	101300000	1000	0	0	-1	600
18898195	8013	637	0	-100	0	230	101300000	1000	0	0	-1	600
18910755	8020	637	0	-100	0	230	101300000	1000	0	0	-1	600
18923315	8010	635	0	-100	0	230	101300000	1000	0	0	-1	600
18935875	8009	641	0	-100	0	230	101300000	1000	0	0	-1	600
18948435	8024	640	0	-100	0	230	101300000	1000	0	0	-1	600
18960995	8015	637	0	-100	0	230	101300000	1000	0	0	-1	600
18973555	8013	637	0	-100	0	230	101300000	1000	0	0	-1	600
18986115	8019	637	0	-100	0	230	101300000	1000	0	0	-1	600
18998675	8006	631	0	-100	0	230	101300000	1000	0	0	-1	600
19011235	8010	637	0	-100	0	230	101300000	1000	0	0	-1	600
19023795	8010	631	0	-100	0	230	101300000	1000	0	0	-1	600
19036355	8014	637	0	-100	0	230	101300000	1000	0	0	-1	600
19048915	8000	640	0	-100	0	230	101300000	1000	0	0	-1	600
19061475	8012	637	0	-100	0	230	101300000	1000	0	0	-1	600
19074035	7997	638	0	-100	0	230	101300000	1000	0	0	-1	600
19086595	8010	638	0	-100	0	230	101300000	1000	0	0	-1	600
19099155	8008	635	0	-100	0	230	101300000	1000	0	0	-1	600
19111715	8012	635	0	-100	0	230	101300000	1000	0	0	-1	600
19124275	8017	634	0	-100	0	230	101300000	1000	0	0	-1	600
19136835	8012	637	0	-100	0	230	101300000	1000	0	0	-1	600
19149395	8012	635	0	-100	0	230	101300000	1000	0	0	-1	600
19161955	8009	640	0	-100	0	230	101300000	1000	0	0	-1	600
19174515	8019	635	0	-100	0	230	101300000	1000	0	0	-1	600
19187075	8010	638	0	-100	0	230	101300000	1000	0	0	-1	600
19199635	8005	636	0	-100	0	230	101300000	1000	0	0	-1	600
19212195	8004	637	0	-100	0	230	101300000	1000	0	0	-1	600
19224755	8012	638	0	-100	0	230	101300000	1000	0	0	-1	600
19237315	8019	636	0	-100	0	230	101300000	1000	0	0	-1	600
19249875	8019	638	0	-100	0	230	101300000	1000	0	0	-1	600
19262435	8005	637	0	-100	0	230	101300000	1000	0	0	-1	600
19274995	8009	635	0	-100	0	230	101300000	1000	0	0	-1	600
19287555	8018	634	0	-100	0	230	101300000	1000	0	0	-1	600
19300115	8012	635	0	-100	0	230	101300000	1000	0	0	-1	600
19312675	8014	638	0	-100	0	230	101300000	1000	0	0	-1	600
19325235	8001	635	0	-100	0	230	101300000	1000	0	0	-1	600
19337795	8015	637	0	-100	0	230	101300000	1000	0	0	-1	600
19350355	8016	643	0	-100	0	230	101300000	1000	0	0	-1	600
19362915	8021	636	0	-100	0	230	101300000	1000	0	0	-1	600
19375475	8008	638	0	-100	0	230	101300000	1000	0	0	-1	600
19388035	8022	644	0	-100	0	230	101300000	1000	0	0	-1	600
19400595	8005	641	0	-100	0	230	101300000	1000	0	0	-1	600
19413155	7996	638	0	-100	0	230	101300000	1000	0	0	-1	600
19425715	8015	637	0	-100	0	230	101300000	1000	0	0	-1	600
19438275	8027	641	0	-100	0	230	101300000	1000	0	0	-1	600
19450835	8005	635	0	-100	0	230	101300000	1000	0	0	-1	600
19463395	8003	638	0	-100	0	230	101300000	1000	0	0	-1	600
19475955	8016	644	0	-100	0	230	101300000	1000	0	0	-1	600
19488515	8022	635	0	-100	0	230	101300000	1000	0	0	-1	600
19501075	8013	634	0	-100	0	230	101300000	1000	0	0	-1	600
19513635	8012	636	0	-100	0	230	101300000	1000	0	0	-1	600
19526195	8005	633	0	-100	0	230	101300000	1000	0	0	-1	600
19538755	8012	636	0	-100	0	230	101300000	1000	0	0	-1	600
19551315	8014	639	0	-100	0	230	101300000	1000	0	0	-1	600
19563875	8010	635	0	-100	0	230	101300000	1000	0	0	-1	600
19576435	8008	637	0	-100	0	230	101300000	1000	0	0	-1	600
19588995	8007	633	0	-100	0	230	101300000	1000	0	0	-1	600
19601555	7998	639	0	-100	0	230	101300000	1000	0	0	-1	600
19614115	8010	637	0	-100	0	230	101300000	1000	0	0	-1	600
19626675	8012	635	0	-100	0	230	101300000	1000	0	0	-1	600
19639235	8012	637	0	-100	0	230	101300000	1000	0	0	-1	600
19651795	8019	639	0	-100	0	230	101300000	1000	0	0	-1	600
19664355	8010	638	0	-100	0	230	101300000	1000	0	0	-1	600
19676915	8000	636	0	-100	0	230	101300000	1000	0	0	-1	600
19689475	8022	639	0	-100	0	230	101300000	1000	0	0	-1	600
19702035	8008	634	0	-100	0	230	101300000	1000	0	0	-1	600
19714595	8015	635	0	-100	0	230	101300000	1000	0	0	-1	600
19727155	8008	638	0	-100	0	230	101300000	1000	0	0	-1	600
19739715	8015	642	0	-100	0	230	101300000	1000	0	0	-1	600
19752275	8010	641	0	-100	0	230	101300000	1000	0	0	-1	600
19764835	8003	637	0	-100	0	230	101300000	1000	0	0	-1	600
19777395	8022	633	0	-100	0	230	101300000	1000	0	0	-1	600
19789955	8017	637	0	-100	0	230	101300000	1000	0	0	-1	600
19802515	8005	639	0	-100	0	230	101300000	1000	0	0	-1	600
19815075	8012	638	0	-100	0	230	101300000	1000	0	0	-1	600
19827635	8014	643	0	-100	0	230	101300000	1000	0	0	-1	600
19840195	8024	636	0	-100	0	230	101300000	1000	0	0	-1	600
19852755	8015	639	0	-100	0	230	101300000	1000	0	0	-1	600
19865315	8015	632	0	-100	0	230	101300000	1000	0	0	-1	600
19877875	8012	614	0	-100	0	230	101300000	1000	0	0	-1	600
19890435	8012	633	0	-100	0	230	101300000	1000	0	0	-1	600
19902995	8015	632	0	-100	0	230	101300000	1000	0	0	-1	600
19915555	8003	640	0	-100	0	230	101300000	1000	0	0	-1	600
19928115	8017	638	0	-100	0	230	101300000	1000	0	0	-1	600
19940675	8015	631	0	-100	0	230	101300000	1000	0	0	-1	600
19953235	8026	643	0	-100	0	230	101300000	1000	0	0	-1	600
19965795	8010	639	0	-100	0	230	101300000	1000	0	0	-1	600
19978355	7998	635	0	-100	0	230	101300000	1000	0	0	-1	600
19990915	8007	638	0	-100	0	230	101300000	1000	0	0	-1	600
20003475	8017	638	0	-100	0	230	101300000	1000	0	0	-1	600
20016035	8020	633	0	-100	0	230	101300000	1000	0	0	-1	600
20028595	8000	637	0	-100	0	230	101300000	1000	0	0	-1	600
20041155	8006	631	0	-100	0	230	101300000	1000	0	0	-1	600
20053715	8017	640	0	-100	0	230	101300000	1000	0	0	-1	600
20066275	8008	639	0	-100	0	230	101300000	1000	0	0	-1	600
20078835	8008	637	0	-100	0	230	101300000	1000	0	0	-1	600
20091395	8007	634	0	-100	0	230	101300000	1000	0	0	-1	600
20103955	8014	638	0	-100	0	230	101300000	1000	0	0	-1	600
20116515	8010	634	0	-100	0	230	101300000	1000	0	0	-1	600
20129075	8001	636	0	-100	0	230	101300000	1000	0	0	-1	600
20141635	8014	640	0	-100	0	230	101300000	1000	0	0	-1	600
20154195	8020	636	0	-100	0	230	101300000	1000	0	0	-1	600
20166755	8001	637	0	-100	0	230	101300000	1000	0	0	-1	600
20179315	8019	634	0	-100	0	230	101300000	1000	0	0	-1	600
20191875	8003	637	0	-100	0	230	101300000	1000	0	0	-1	600
20204435	8017	643	0	-100	0	230	101300000	1000	0	0	-1	600
20216995	8017	632	0	-100	0	230	101300000	1000	0	0	-1	600
20229555	8003	637	0	-100	0	230	101300000	1000	0	0	-1	600
20242115	8015	641	0	-100	0	230	101300000	1000	0	0	-1	600
20254675	8017	638	0	-100	0	230	101300000	1000	0	0	-1	600
20267235	8008	635	0	-100	0	230	101300000	1000	0	0	-1	600
20279795	8012	636	0	-100	0	230	101300000	1000	0	0	-1	600
20292355	8017	642	0	-100	0	230	101300000	1000	0	0	-1	600
20304915	8012	635	0	-100	0	230	101300000	1000	0	0	-1	600
20317475	8019	638	0	-100	0	230	101300000	1000	0	0	-1	600
20330035	8018	637	0	-100	0	230	101300000	1000	0	0	-1	600
20342595	8006	639	0	-100	0	230	101300000	1000	0	0	-1	600
20355155	7991	634	0	-100	0	230	101300000	1000	0	0	-1	600
20367715	8010	639	0	-100	0	230	101300000	1000	0	0	-1	600
20380275	7995	637	0	-100	0	230	101300000	1000	0	0	-1	600
20392835	8017	636	0	-100	0	230	101300000	1000	0	0	-1	600
20405395	8020	638	0	-100	0	230	101300000	1000	0	0	-1	600
20417955	8012	636	0	-100	0	230	101300000	1000	0	0	-1	600
20430515	8016	639	0	-100	0	230	101300000	1000	0	0	-1	600
20443075	8018	636	0	-100	0	230	101300000	1000	0	0	-1	600
20455635	8005	638	0	-100	0	230	101300000	1000	0	0	-1	600
20468195	8012	638	0	-100	0	230	101300000	1000	0	0	-1	600
20480755	8022	640	0	-100	0	230	101300000	1000	0	0	-1	600
20493315	8003	640	0	-100	0	230	101300000	1000	0	0	-1	600
20505875	8017	632	0	-100	0	230	101300000	1000	0	0	-1	600
20518435	8015	622	0	-100	0	230	101300000	1000	0	0	-1	600
20530995	8012	631	0	-100	0	230	101300000	1000	0	0	-1	600
20543555	8007	642	0	-100	0	230	101300000	1000	0	0	-1	600
20556115	8000	637	0	-100	0	230	101300000	1000	0	0	-1	600
20568675	8005	642	0	-100	0	230	101300000	1000	0	0	-1	600
20581235	8012	635	0	-100	0	230	101300000	1000	0	0	-1	600
20593795	8005	636	0	-100	0	230	101300000	1000	0	0	-1	600
20606355	8008	634	0	-100	0	230	101300000	1000	0	0	-1	600
20618915	8010	637	0	-100	0	230	101300000	1000	0	0	-1	600
20631475	8005	638	0	-100	0	230	101300000	1000	0	0	-1	600
20644035	8012	637	0	-100	0	230	101300000	1000	0	0	-1	600
20656595	8020	632	0	-100	0	230	101300000	1000	0	0	-1	600
20669155	7998	634	0	-100	0	230	101300000	1000	0	0	-1	600
20681715	8014	639	0	-100	0	230	101300000	1000	0	0	-1	600
20694275	8019	642	0	-100	0	230	101300000	1000	0	0	-1	600
20706835	8002	639	0	-100	0	230	101300000	1000	0	0	-1	600
20719395	8003	639	0	-100	0	230	101300000	1000	0	0	-1	600
20731955	8018	633	0	-100	0	230	101300000	1000	0	0	-1	600
20744515	8010	634	0	-100	0	230	101300000	1000	0	0	-1	600
20757075	8009	638	0	-100	0	230	101300000	1000	0	0	-1	600
20769635	8015	635	0	-100	0	230	101300000	1000	0	0	-1	600
20782195	8010	634	0	-100	0	230	101300000	1000	0	0	-1	600
20794755	8007	640	0	-100	0	230	101300000	1000	0	0	-1	600
20807315	8012	635	0	-100	0	230	101300000	1000	0	0	-1	600
20819875	8014	639	0	-100	0	230	101300000	1000	0	0	-1	600
20832435	7998	640	0	-100	0	230	101300000	1000	0	0	-1	600
20844995	8005	636	0	-100	0	230	101300000	1000	0	0	-1	600
20857555	8017	633	0	-100	0	230	101300000	1000	0	0	-1	600
20870115	8008	643	0	-100	0	230	101300000	1000	0	0	-1	600
20882675	8007	644	0	-100	0	230	101300000	1000	0	0	-1	600
20895235	8012	633	0	-100	0	230	101300000	1000	0	0	-1	600
20907795	8000	623	0	-100	0	230	101300000	1000	0	0	-1	600
20920355	8013	638	0	-100	0	230	101300000	1000	0	0	-1	600
20932915	8020	633	0	-100	0	230	101300000	1000	0	0	-1	600
20945475	8010	640	0	-100	0	230	101300000	1000	0	0	-1	600
20958035	8019	635	0	-100	0	230	101300000	1000	0	0	-1	600
20970595	8008	638	0	-100	0	230	101300000	1000	0	0	-1	600
20983155	7998	634	0	-100	0	230	101300000	1000	0	0	-1	600
20995715	8015	638	0	-100	0	230	101300000	1000	0	0	-1	600
21008275	7998	636	0	-100	0	230	101300000	1000	0	0	-1	600
21020835	8015	638	0	-100	0	230	101300000	1000	0	0	-1	600
21033395	7998	637	0	-100	0	230	101300000	1000	0	0	-1	600
21045955	8013	631	0	-100	0	230	101300000	1000	0	0	-1	600
21058515	8024	636	0	-100	0	230	101300000	1000	0	0	-1	600
21071075	8008	638	0	-100	0	230	101300000	1000	0	0	-1	600
21083635	8019	639	0	-100	0	230	101300000	1000	0	0	-1	600
21096195	8013	637	0	-100	0	230	101300000	1000	0	0	-1	600
21108755	8005	640	0	-100	0	230	101300000	1000	0	0	-1	600
21121315	8013	632	0	-100	0	230	101300000	1000	0	0	-1	600
21133875	8000	638	0	-100	0	230	101300000	1000	0	0	-1	600
21146435	8019	640	0	-100	0	230	101300000	1000	0	0	-1	600
21158995	8017	635	0	-100	0	230	101300000	1000	0	0	-1	600
21171555	8012	638	0	-100	0	230	101300000	1000	0	0	-1	600
21184115	8005	636	0	-100	0	230	101300000	1000	0	0	-1	600
21196675	8015	632	0	-100	0	230	101300000	1000	0	0	-1	600
21209235	8005	638	0	-100	0	230	101300000	1000	0	0	-1	600
21221795	8012	639	0	-100	0	230	101300000	1000	0	0	-1	600
21234355	8017	632	0	-100	0	230	101300000	1000	0	0	-1	600
21246915	8025	636	0	-100	0	230	101300000	1000	0	0	-1	600
21259475	8024	635	0	-100	0	230	101300000	1000	0	0	-1	600
21272035	8012	635	0	-100	0	230	101300000	1000	0	0	-1	600
21284595	8005	637	0	-100	0	230	101300000	1000	0	0	-1	600
21297155	8001	633	0	-100	0	230	101300000	1000	0	0	-1	600
21309715	8020	641	0	-100	0	230	101300000	1000	0	0	-1	600
21322275	8017	637	0	-100	0	230	101300000	1000	0	0	-1	600
21334835	8010	614	0	-100	0	230	101300000	1000	0	0	-1	600
21347395	8012	636	0	-100	0	230	101300000	1000	0	0	-1	600
21359955	8013	627	0	-100	0	230	101300000	1000	0	0	-1	600
21372515	8007	638	0	-100	0	230	101300000	1000	0	0	-1	600
21385075	8012	638	0	-100	0	230	101300000	1000	0	0	-1	600
21397635	8005	637	0	-100	0	230	101300000	1000	0	0	-1	600
21410195	8005	636	0	-100	0	230	101300000	1000	0	0	-1	600
21422755	8017	632	0	-100	0	230	101300000	1000	0	0	-1	600
21435315	8010	638	0	-100	0	230	101300000	1000	0	0	-1	600
21447875	8012	632	0	-100	0	230	101300000	1000	0	0	-1	600
21460435	8007	636	0	-100	0	230	101300000	1000	0	0	-1	600
21472995	8022	630	0	-100	0	230	101300000	1000	0	0	-1	600
21485555	8024	638	0	-100	0	230	101300000	1000	0	0	-1	600
21498115	8002	633	0	-100	0	230	101300000	1000	0	0	-1	600
21510675	8009	641	0	-100	0	230	101300000	1000	0	0	-1	600
21523235	8019	636	0	-100	0	230	101300000	1000	0	0	-1	600
21535795	8022	630	0	-100	0	230	101300000	1000	0	0	-1	600
21548355	8000	641	0	-100	0	230	101300000	1000	0	0	-1	600
21560915	8000	637	0	-100	0	230	101300000	1000	0	0	-1	600
21573475	8022	635	0	-100	0	230	101300000	1000	0	0	-1	600
21586035	7998	640	0	-100	0	230	101300000	1000	0	0	-1	600
21598595	8014	639	0	-100	0	230	101300000	1000	0	0	-1	600
21611155	8018	635	0	-100	0	230	101300000	1000	0	0	-1	600
21623715	8015	637	0	-100	0	230	101300000	1000	0	0	-1	600
21636275	8010	636	0	-100	0	230	101300000	1000	0	0	-1	600
21648835	8008	629	0	-100	0	230	101300000	1000	0	0	-1	600
21661395	8012	635	0	-100	0	230	101300000	1000	0	0	-1	600
21673955	8007	636	0	-100	0	230	101300000	1000	0	0	-1	600
21686515	8017	636	0	-100	0	230	101300000	1000	0	0	-1	600
21699075	8010	640	0	-100	0	230	101300000	1000	0	0	-1	600
21711635	8012	640	0	-100	0	230	101300000	1000	0	0	-1	600
21724195	8008	637	0	-100	0	230	101300000	1000	0	0	-1	600
21736755	8020	633	0	-100	0	230	101300000	1000	0	0	-1	600
21749315	8005	637	0	-100	0	230	101300000	1000	0	0	-1	600
21761875	8010	639	0	-100	0	230	101300000	1000	0	0	-1	600
21774435	8012	635	0	-100	0	230	101300000	1000	0	0	-1	600
21786995	8012	636	0	-100	0	230	101300000	1000	0	0	-1	600
21799555	8017	637	0	-100	0	230	101300000	1000	0	0	-1	600
21812115	7998	636	0	-100	0	230	101300000	1000	0	0	-1	600
21824675	8027	639	0	-100	0	230	101300000	1000	0	0	-1	600
21837235	8008	634	0	-100	0	230	101300000	1000	0	0	-1	600
21849795	8017	640	0	-100	0	230	101300000	1000	0	0	-1	600
21862355	8015	637	0	-100	0	230	101300000	1000	0	0	-1	600
21874915	8017	638	0	-100	0	230	101300000	1000	0	0	-1	600
21887475	8027	632	0	-100	0	230	101300000	1000	0	0	-1	600
21900035	8011	638	0	-100	0	230	101300000	1000	0	0	-1	600
21912595	8015	635	0	-100	0	230	101300000	1000	0	0	-1	600
21925155	8003	633	0	-100	0	230	101300000	1000	0	0	-1	600
21937715	7993	638	0	-100	0	230	101300000	1000	0	0	-1	600
21950275	8001	636	0	-100	0	230	101300000	1000	0	0	-1	600
21962835	8012	639	0	-100	0	230	101300000	1000	0	0	-1	600
21975395	8007	640	0	-100	0	230	101300000	1000	0	0	-1	600
21987955	8019	638	0	-100	0	230	101300000	1000	0	0	-1	600
22000515	8015	633	0	-100	0	230	101300000	1000	0	0	-1	600
22013075	8015	638	0	-100	0	230	101300000	1000	0	0	-1	600
22025635	8010	637	0	-100	0	230	101300000	1000	0	0	-1	600
22038195	8005	636	0	-100	0	230	101300000	1000	0	0	-1	600
22050755	8007	636	0	-100	0	230	101300000	1000	0	0	-1	600
22063315	8003	637	0	-100	0	230	101300000	1000	0	0	-1	600
22075875	8017	633	0	-100	0	230	101300000	1000	0	0	-1	600
22088435	8022	638	0	-100	0	230	101300000	1000	0	0	-1	600
22100995	8012	637	0	-100	0	230	101300000	1000	0	0	-1	600
22113555	8012	640	0	-100	0	230	101300000	1000	0	0	-1	600
22126115	8012	641	0	-100	0	230	101300000	1000	0	0	-1	600
22138675	8024	634	0	-100	0	230	101300000	1000	0	0	-1	600
22151235	8034	639	0	-100	0	230	101300000	1000	0	0	-1	600
22163795	8017	633	0	-100	0	230	101300000	1000	0	0	-1	600
22176355	8010	637	0	-100	0	230	101300000	1000	0	0	-1	600
22188915	8013	637	0	-100	0	230	101300000	1000	0	0	-1	600
22201475	8012	640	0	-100	0	230	101300000	1000	0	0	-1	600
22214035	8002	634	0	-100	0	230	101300000	1000	0	0	-1	600
22226595	8025	640	0	-100	0	230	101300000	1000	0	0	-1	600
22239155	8005	633	0	-100	0	230	101300000	1000	0	0	-1	600
22251715	8007	639	0	-100	0	230	101300000	1000	0	0	-1	600
22264275	8001	639	0	-100	0	230	101300000	1000	0	0	-1	600
22276835	8008	639	0	-100	0	230	101300000	1000	0	0	-1	600
22289395	8019	637	0	-100	0	230	101300000	1000	0	0	-1	600
22301955	7998	637	0	-100	0	230	101300000	1000	0	0	-1	600
22314515	8022	635	0	-100	0	230	101300000	1000	0	0	-1	600
22327075	8010	638	0	-100	0	230	101300000	1000	0	0	-1	600
22339635	8017	639	0	-100	0	230	101300000	1000	0	0	-1	600
22352195	8010	638	0	-100	0	230	101300000	1000	0	0	-1	600
22364755	8005	636	0	-100	0	230	101300000	1000	0	0	-1	600
22377315	8018	638	0	-100	0	230	101300000	1000	0	0	-1	600
22389875	8008	637	0	-100	0	230	101300000	1000	0	0	-1	600
22402435	8003	633	0	-100	0	230	101300000	1000	0	0	-1	600
22414995	8007	632	0	-100	0	230	101300000	1000	0	0	-1	600
22427555	8009	636	0	-100	0	230	101300000	1000	0	0	-1	600
22440115	8008	638	0	-100	0	230	101300000	1000	0	0	-1	600
22452675	8017	639	0	-100	0	230	101300000	1000	0	0	-1	600
22465235	8015	635	0	-100	0	230	101300000	1000	0	0	-1	600
22477795	8010	639	0	-100	0	230	101300000	1000	0	0	-1	600
22490355	8015	636	0	-100	0	230	101300000	1000	0	0	-1	600
22502915	8008	639	0	-100	0	230	101300000	1000	0	0	-1	600
22515475	7995	612	0	-100	0	230	101300000	1000	0	0	-1	600
22528035	8014	640	0	-100	0	230	101300000	1000	0	0	-1	600
22540595	8015	632	0	-100	0	230	101300000	1000	0	0	-1	600
22553155	8013	635	0	-100	0	230	101300000	1000	0	0	-1	600
22565715	8012	637	0	-100	0	230	101300000	1000	0	0	-1	600
22578275	8017	641	0	-100	0	230	101300000	1000	0	0	-1	600
22590835	8010	634	0	-100	0	230	101300000	1000	0	0	-1	600
22603395	8010	636	0	-100	0	230	101300000	1000	0	0	-1	600
22615955	8005	639	0	-100	0	230	101300000	1000	0	0	-1	600
22628515	8009	637	0	-100	0	230	101300000	1000	0	0	-1	600
22641075	8019	636	0	-100	0	230	101300000	1000	0	0	-1	600
22653635	8014	611	0	-100	0	230	101300000	1000	0	0	-1	600
22666195	8029	636	0	-100	0	230	101300000	1000	0	0	-1	600
22678755	8017	640	0	-100	0	230	101300000	1000	0	0	-1	600
22691315	8019	639	0	-100	0	230	101300000	1000	0	0	-1	600
22703875	8015	637	0	-100	0	230	101300000	1000	0	0	-1	600
22716435	8013	634	0	-100	0	230	101300000	1000	0	0	-1	600
22728995	8012	637	0	-100	0	230	101300000	1000	0	0	-1	600
22741555	8014	635	0	-100	0	230	101300000	1000	0	0	-1	600
22754115	8027	632	0	-100	0	230	101300000	1000	0	0	-1	600
22766675	8022	631	0	-100	0	230	101300000	1000	0	0	-1	600
22779235	8015	636	0	-100	0	230	101300000	1000	0	0	-1	600
22791795	8008	637	0	-100	0	230	101300000	1000	0	0	-1	600
22804355	8005	634	0	-100	0	230	101300000	1000	0	0	-1	600
22816915	8008	637	0	-100	0	230	101300000	1000	0	0	-1	600
22829475	8007	636	0	-100	0	230	101300000	1000	0	0	-1	600
22842035	8017	638	0	-100	0	230	101300000	1000	0	0	-1	600
22854595	8000	641	0	-100	0	230	101300000	1000	0	0	-1	600
22867155	8013	637	0	-100	0	230	101300000	1000	0	0	-1	600
22879715	8008	636	0	-100	0	230	101300000	1000	0	0	-1	600
22892275	8017	638	0	-100	0	230	101300000	1000	0	0	-1	600
22904835	8008	632	0	-100	0	230	101300000	1000	0	0	-1	600
22917395	8005	637	0	-100	0	230	101300000	1000	0	0	-1	600
22929955	8004	613	0	-100	0	230	101300000	1000	0	0	-1	600
22942515	8023	633	0	-100	0	230	101300000	1000	0	0	-1	600
22955075	8015	633	0	-100	0	230	101300000	1000	0	0	-1	600
22967635	8002	638	0	-100	0	230	101300000	1000	0	0	-1	600
22980195	8009	639	0	-100	0	230	101300000	1000	0	0	-1	600
22992755	8009	639	0	-100	0	230	101300000	1000	0	0	-1	600
23005315	8022	644	0	-100	0	230	101300000	1000	0	0	-1	600
23017875	8015	639	0	-100	0	230	101300000	1000	0	0	-1	600
23030435	8012	640	0	-100	0	230	101300000	1000	0	0	-1	600
23042995	8003	637	0	-100	0	230	101300000	1000	0	0	-1	600
23055555	8008	639	0	-100	0	230	101300000	1000	0	0	-1	600
23068115	8015	641	0	-100	0	230	101300000	1000	0	0	-1	600
23080675	8012	634	0	-100	0	230	101300000	1000	0	0	-1	600
23093235	8016	636	0	-100	0	230	101300000	1000	0	0	-1	600
23105795	8010	638	0	-100	0	230	101300000	1000	0	0	-1	600
23118355	8015	636	0	-100	0	230	101300000	1000	0	0	-1	600
23130915	8015	641	0	-100	0	230	101300000	1000	0	0	-1	600
23143475	8012	637	0	-100	0	230	101300000	1000	0	0	-1	600
23156035	8012	635	0	-100	0	230	101300000	1000	0	0	-1	600
23168595	8015	637	0	-100	0	230	101300000	1000	0	0	-1	600
23181155	8005	633	0	-100	0	230	101300000	1000	0	0	-1	600
23193715	8012	640	0	-100	0	230	101300000	1000	0	0	-1	600
23206275	8012	632	0	-100	0	230	101300000	1000	0	0	-1	600
23218835	8019	637	0	-100	0	230	101300000	1000	0	0	-1	600
23231395	8012	639	0	-100	0	230	101300000	1000	0	0	-1	600
23243955	8005	637	0	-100	0	230	101300000	1000	0	0	-1	600
23256515	8010	640	0	-100	0	230	101300000	1000	0	0	-1	600
23269075	8022	638	0	-100	0	230	101300000	1000	0	0	-1	600
23281635	8012	640	0	-100	0	230	101300000	1000	0	0	-1	600
23294195	8015	638	0	-100	0	230	101300000	1000	0	0	-1	600
23306755	8015	634	0	-100	0	230	101300000	1000	0	0	-1	600
23319315	8005	614	0	-100	0	230	101300000	1000	0	0	-1	600
23331875	8012	639	0	-100	0	230	101300000	1000	0	0	-1	600
23344435	8010	634	0	-100	0	230	101300000	1000	0	0	-1	600
23356995	8003	638	0	-100	0	230	101300000	1000	0	0	-1	600
23369555	8005	636	0	-100	0	230	101300000	1000	0	0	-1	600
23382115	8015	641	0	-100	0	230	101300000	1000	0	0	-1	600
23394675	8022	641	0	-100	0	230	101300000	1000	0	0	-1	600
23407235	8010	638	0	-100	0	230	101300000	1000	0	0	-1	600
23419795	8017	637	0	-100	0	230	101300000	1000	0	0	-1	600
23432355	8012	638	0	-100	0	230	101300000	1000	0	0	-1	600
23444915	8009	638	0	-100	0	230	101300000	1000	0	0	-1	600
23457475	8007	637	0	-100	0	230	101300000	1000	0	0	-1	600
23470035	8000	638	0	-100	0	230	101300000	1000	0	0	-1	600
23482595	8010	633	0	-100	0	230	101300000	1000	0	0	-1	600
23495155	7991	635	0	-100	0	230	101300000	1000	0	0	-1	600
23507715	8008	638	0	-100	0	230	101300000	1000	0	0	-1	600
23520275	8012	638	0	-100	0	230	101300000	1000	0	0	-1	600
23532835	8024	637	0	-100	0	230	101300000	1000	0	0	-1	600
23545395	8008	633	0	-100	0	230	101300000	1000	0	0	-1	600
23557955	8010	637	0	-100	0	230	101300000	1000	0	0	-1	600
23570515	8015	641	0	-100	0	230	101300000	1000	0	0	-1	600
23583075	8009	640	0	-100	0	230	101300000	1000	0	0	-1	600
23595635	8014	638	0	-100	0	230	101300000	1000	0	0	-1	600
23608195	8008	637	0	-100	0	230	101300000	1000	0	0	-1	600
23620755	8019	632	0	-100	0	230	101300000	1000	0	0	-1	600
23633315	8005	635	0	-100	0	230	101300000	1000	0	0	-1	600
23645875	8016	635	0	-100	0	230	101300000	1000	0	0	-1	600
23658435	8017	635	0	-100	0	230	101300000	1000	0	0	-1	600
23670995	8010	637	0	-100	0	230	101300000	1000	0	0	-1	600
23683555	8008	637	0	-100	0	230	101300000	1000	0	0	-1	600
23696115	8010	640	0	-100	0	230	101300000	1000	0	0	-1	600
23708675	8019	637	0	-100	0	230	101300000	1000	0	0	-1	600
23721235	8022	635	0	-100	0	230	101300000	1000	0	0	-1	600
23733795	8008	638	0	-100	0	230	101300000	1000	0	0	-1	600
23746355	8003	640	0	-100	0	230	101300000	1000	0	0	-1	600
23758915	8009	638	0	-100	0	230	101300000	1000	0	0	-1	600
23771475	8019	634	0	-100	0	230	101300000	1000	0	0	-1	600
23784035	8019	636	0	-100	0	230	101300000	1000	0	0	-1	600
23796595	8008	640	0	-100	0	230	101300000	1000	0	0	-1	600
23809155	7996	632	0	-100	0	230	101300000	1000	0	0	-1	600
23821715	7998	635	0	-100	0	230	101300000	1000	0	0	-1	600
23834275	8010	640	0	-100	0	230	101300000	1000	0	0	-1	600
23846835	8012	629	0	-100	0	230	101300000	1000	0	0	-1	600
23859395	8009	636	0	-100	0	230	101300000	1000	0	0	-1	600
23871955	8005	638	0	-100	0	230	101300000	1000	0	0	-1	600
23884515	8012	637	0	-100	0	230	101300000	1000	0	0	-1	600
23897075	8019	633	0	-100	0	230	101300000	1000	0	0	-1	600
23909635	8022	636	0	-100	0	230	101300000	1000	0	0	-1	600
23922195	8009	637	0	-100	0	230	101300000	1000	0	0	-1	600
23934755	8020	638	0	-100	0	230	101300000	1000	0	0	-1	600
23947315	8005	637	0	-100	0	230	101300000	1000	0	0	-1	600
23959875	8019	637	0	-100	0	230	101300000	1000	0	0	-1	600
23972435	8005	639	0	-100	0	230	101300000	1000	0	0	-1	600
23984995	8010	626	0	-100	0	230	101300000	1000	0	0	-1	600
23997555	8019	631	0	-100	0	230	101300000	1000	0	0	-1	600
24010115	8017	639	0	-100	0	230	101300000	1000	0	0	-1	600
24022675	8015	639	0	-100	0	230	101300000	1000	0	0	-1	600
24035235	8015	638	0	-100	0	230	101300000	1000	0	0	-1	600
24047795	8010	635	0	-100	0	230	101300000	1000	0	0	-1	600
24060355	8007	634	0	-100	0	230	101300000	1000	0	0	-1	600
24072915	8012	633	0	-100	0	230	101300000	1000	0	0	-1	600
24085475	8007	639	0	-100	0	230	101300000	1000	0	0	-1	600
24098035	7995	637	0	-100	0	230	101300000	1000	0	0	-1	600
24110595	8012	641	0	-100	0	230	101300000	1000	0	0	-1	600
24123155	7994	638	0	-100	0	230	101300000	1000	0	0	-1	600
24135715	8010	640	0	-100	0	230	101300000	1000	0	0	-1	600
24148275	8019	640	0	-100	0	230	101300000	1000	0	0	-1	600
24160835	8017	637	0	-100	0	230	101300000	1000	0	0	-1	600
24173395	8018	640	0	-100	0	230	101300000	1000	0	0	-1	600
24185955	8007	637	0	-100	0	230	101300000	1000	0	0	-1	600
24198515	8000	638	0	-100	0	230	101300000	1000	0	0	-1	600
24211075	8008	639	0	-100	0	230	101300000	1000	0	0	-1	600
24223635	8005	634	0	-100	0	230	101300000	1000	0	0	-1	600
24236195	8017	638	0	-100	0	230	101300000	1000	0	0	-1	600
24248755	8022	637	0	-100	0	230	101300000	1000	0	0	-1	600
24261315	8007	638	0	-100	0	230	101300000	1000	0	0	-1	600
24273875	8003	644	0	-100	0	230	101300000	1000	0	0	-1	600
24286435	8012	638	0	-100	0	230	101300000	1000	0	0	-1	600
24298995	8005	631	0	-100	0	230	101300000	1000	0	0	-1	600
24311555	8012	639	0	-100	0	230	101300000	1000	0	0	-1	600
24324115	8016	637	0	-100	0	230	101300000	1000	0	0	-1	600
24336675	8015	634	0	-100	0	230	101300000	1000	0	0	-1	600
24349235	8022	638	0	-100	0	230	101300000	1000	0	0	-1	600
24361795	8012	636	0	-100	0	230	101300000	1000	0	0	-1	600
24374355	8005	637	0	-100	0	230	101300000	1000	0	0	-1	600
24386915	8014	634	0	-100	0	230	101300000	1000	0	0	-1	600
24399475	8014	637	0	-100	0	230	101300000	1000	0	0	-1	600
24412035	8020	639	0	-100	0	230	101300000	1000	0	0	-1	600
24424595	8012	634	0	-100	0	230	101300000	1000	0	0	-1	600
24437155	8006	631	0	-100	0	230	101300000	1000	0	0	-1	600
24449715	8015	635	0	-100	0	230	101300000	1000	0	0	-1	600
24462275	8010	637	0	-100	0	230	101300000	1000	0	0	-1	600
24474835	8012	638	0	-100	0	230	101300000	1000	0	0	-1	600
24487395	8014	636	0	-100	0	230	101300000	1000	0	0	-1	600
24499955	8017	644	0	-100	0	230	101300000	1000	0	0	-1	600
24512515	8010	638	0	-100	0	230	101300000	1000	0	0	-1	600
24525075	8008	639	0	-100	0	230	101300000	1000	0	0	-1	600
24537635	8017	637	0	-100	0	230	101300000	1000	0	0	-1	600
24550195	8010	631	0	-100	0	230	101300000	1000	0	0	-1	600
24562755	8024	639	0	-100	0	230	101300000	1000	0	0	-1	600
24575315	8014	638	0	-100	0	230	101300000	1000	0	0	-1	600
24587875	8012	641	0	-100	0	230	101300000	1000	0	0	-1	600
24600435	8026	639	0	-100	0	230	101300000	1000	0	0	-1	600
24612995	8019	630	0	-100	0	230	101300000	1000	0	0	-1	600
24625555	8017	633	0	-100	0	230	101300000	1000	0	0	-1	600
24638115	8007	640	0	-100	0	230	101300000	1000	0	0	-1	600
24650675	8017	637	0	-100	0	230	101300000	1000	0	0	-1	600
24663235	8005	635	0	-100	0	230	101300000	1000	0	0	-1	600
24675795	8012	630	0	-100	0	230	101300000	1000	0	0	-1	600
24688355	7996	635	0	-100	0	230	101300000	1000	0	0	-1	600
24700915	8005	632	0	-100	0	230	101300000	1000	0	0	-1	600
24713475	8007	638	0	-100	0	230	101300000	1000	0	0	-1	600
24726035	8009	636	0	-100	0	230	101300000	1000	0	0	-1	600
24738595	8013	634	0	-100	0	230	101300000	1000	0	0	-1	600
24751155	8011	636	0	-100	0	230	101300000	1000	0	0	-1	600
24763715	8022	635	0	-100	0	230	101300000	1000	0	0	-1	600
24776275	8017	635	0	-100	0	230	101300000	1000	0	0	-1	600
24788835	8012	641	0	-100	0	230	101300000	1000	0	0	-1	600
24801395	8005	638	0	-100	0	230	101300000	1000	0	0	-1	600
24813955	8001	642	0	-100	0	230	101300000	1000	0	0	-1	600
24826515	8005	640	0	-100	0	230	101300000	1000	0	0	-1	600
24839075	8020	640	0	-100	0	230	101300000	1000	0	0	-1	600
24851635	8009	637	0	-100	0	230	101300000	1000	0	0	-1	600
24864195	8007	638	0	-100	0	230	101300000	1000	0	0	-1	600
24876755	8009	640	0	-100	0	230	101300000	1000	0	0	-1	600
24889315	8007	633	0	-100	0	230	101300000	1000	0	0	-1	600
24901875	8003	633	0	-100	0	230	101300000	1000	0	0	-1	600
24914435	8007	637	0	-100	0	230	101300000	1000	0	0	-1	600
24926995	8021	633	0	-100	0	230	101300000	1000	0	0	-1	600
24939555	8005	637	0	-100	0	230	101300000	1000	0	0	-1	600
24952115	8010	634	0	-100	0	230	101300000	1000	0	0	-1	600
24964675	8015	637	0	-100	0	230	101300000	1000	0	0	-1	600
24977235	8002	634	0	-100	0	230	101300000	1000	0	0	-1	600
24989795	8017	635	0	-100	0	230	101300000	1000	0	0	-1	600
25002355	8006	636	0	-100	0	230	101300000	1000	0	0	-1	600
25014915	8003	637	0	-100	0	230	101300000	1000	0	0	-1	600
25027475	8002	637	0	-100	0	230	101300000	1000	0	0	-1	600
25040035	8010	637	0	-100	0	230	101300000	1000	0	0	-1	600
25052595	8002	637	0	-100	0	230	101300000	1000	0	0	-1	600
25065155	7998	635	0	-100	0	230	101300000	1000	0	0	-1	600
25077715	8009	635	0	-100	0	230	101300000	1000	0	0	-1	600
25090275	8018	636	0	-100	0	230	101300000	1000	0	0	-1	600
25102835	7991	635	0	-100	0	230	101300000	1000	0	0	-1	600
25115395	8018	635	0	-100	0	230	101300000	1000	0	0	-1	600
25127955	8015	635	0	-100	0	230	101300000	1000	0	0	-1	600
25140515	8015	633	0	-100	0	230	101300000	1000	0	0	-1	600
25153075	8017	636	0	-100	0	230	101300000	1000	0	0	-1	600
25165635	8010	637	0	-100	0	230	101300000	1000	0	0	-1	600
25178195	7993	640	0	-100	0	230	101300000	1000	0	0	-1	600
25190755	8014	635	0	-100	0	230	101300000	1000	0	0	-1	600
25203315	8020	637	0	-100	0	230	101300000	1000	0	0	-1	600
25215875	8017	633	0	-100	0	230	101300000	1000	0	0	-1	600
25228435	8010	637	0	-100	0	230	101300000	1000	0	0	-1	600
25240995	8009	632	0	-100	0	230	101300000	1000	0	0	-1	600
25253555	8017	633	0	-100	0	230	101300000	1000	0	0	-1	600
25266115	8012	637	0	-100	0	230	101300000	1000	0	0	-1	600
25278675	8000	637	0	-100	0	230	101300000	1000	0	0	-1	600
25291235	8001	634	0	-100	0	230	101300000	1000	0	0	-1	600
25303795	8012	633	0	-100	0	230	101300000	1000	0	0	-1	600
25316355	8015	637	0	-100	0	230	101300000	1000	0	0	-1	600
25328915	8012	638	0	-100	0	230	101300000	1000	0	0	-1	600
25341475	8022	640	0	-100	0	230	101300000	1000	0	0	-1	600
25354035	8005	637	0	-100	0	230	101300000	1000	0	0	-1	600
25366595	8012	640	0	-100	0	230	101300000	1000	0	0	-1	600
25379155	8010	634	0	-100	0	230	101300000	1000	0	0	-1	600
25391715	8010	636	0	-100	0	230	101300000	1000	0	0	-1	600
25404275	8000	642	0	-100	0	230	101300000	1000	0	0	-1	600
25416835	8019	639	0	-100	0	230	101300000	1000	0	0	-1	600
25429395	8008	636	0	-100	0	230	101300000	1000	0	0	-1	600
25441955	8005	639	0	-100	0	230	101300000	1000	0	0	-1	600
25454515	8017	644	0	-100	0	230	101300000	1000	0	0	-1	600
25467075	8015	634	0	-100	0	230	101300000	1000	0	0	-1	600
25479635	8010	636	0	-100	0	230	101300000	1000	0	0	-1	600
25492195	8015	636	0	-100	0	230	101300000	1000	0	0	-1	600
25504755	8000	638	0	-100	0	230	101300000	1000	0	0	-1	600
25517315	8013	636	0	-100	0	230	101300000	1000	0	0	-1	600
25529875	8019	633	0	-100	0	230	101300000	1000	0	0	-1	600
25542435	7995	634	0	-100	0	230	101300000	1000	0	0	-1	600
25554995	8014	634	0	-100	0	230	101300000	1000	0	0	-1	600
25567555	8021	639	0	-100	0	230	101300000	1000	0	0	-1	600
25580115	8024	633	0	-100	0	230	101300000	1000	0	0	-1	600
25592675	8010	638	0	-100	0	230	101300000	1000	0	0	-1	600
25605235	7998	637	0	-100	0	230	101300000	1000	0	0	-1	600
25617795	8019	636	0	-100	0	230	101300000	1000	0	0	-1	600
25630355	8016	641	0	-100	0	230	101300000	1000	0	0	-1	600
25642915	8024	638	0	-100	0	230	101300000	1000	0	0	-1	600
25655475	8010	633	0	-100	0	230	101300000	1000	0	0	-1	600
25668035	8002	638	0	-100	0	230	101300000	1000	0	0	-1	600
25680595	8000	636	0	-100	0	230	101300000	1000	0	0	-1	600
25693155	8015	637	0	-100	0	230	101300000	1000	0	0	-1	600
25705715	8005	640	0	-100	0	230	101300000	1000	0	0	-1	600
25718275	8005	639	0	-100	0	230	101300000	1000	0	0	-1	600
25730835	8005	636	0	-100	0	230	101300000	1000	0	0	-1	600
25743395	8010	634	0	-100	0	230	101300000	1000	0	0	-1	600
25755955	8015	637	0	-100	0	230	101300000	1000	0	0	-1	600
25768515	8010	631	0	-100	0	230	101300000	1000	0	0	-1	600
25781075	8012	634	0	-100	0	230	101300000	1000	0	0	-1	600
25793635	8015	639	0	-100	0	230	101300000	1000	0	0	-1	600
25806195	8002	640	0	-100	0	230	101300000	1000	0	0	-1	600
25818755	8017	637	0	-100	0	230	101300000	1000	0	0	-1	600
25831315	8012	637	0	-100	0	230	101300000	1000	0	0	-1	600
25843875	8010	640	0	-100	0	230	101300000	1000	0	0	-1	600
25856435	8029	640	0	-100	0	230	101300000	1000	0	0	-1	600
25868995	8015	638	0	-100	0	230	101300000	1000	0	0	-1	600
25881555	8008	645	0	-100	0	230	101300000	1000	0	0	-1	600
25894115	8019	638	0	-100	0	230	101300000	1000	0	0	-1	600
25906675	8008	636	0	-100	0	230	101300000	1000	0	0	-1	600
25919235	8012	637	0	-100	0	230	101300000	1000	0	0	-1	600
25931795	8023	635	0	-100	0	230	101300000	1000	0	0	-1	600
25944355	8005	641	0	-100	0	230	101300000	1000	0	0	-1	600
25956915	8010	639	0	-100	0	230	101300000	1000	0	0	-1	600
25969475	8015	638	0	-100	0	230	101300000	1000	0	0	-1	600
25982035	8014	634	0	-100	0	230	101300000	1000	0	0	-1	600
25994595	8007	640	0	-100	0	230	101300000	1000	0	0	-1	600
26007155	7996	637	0	-100	0	230	101300000	1000	0	0	-1	600
26019715	8025	632	0	-100	0	230	101300000	1000	0	0	-1	600
26032275	8017	636	0	-100	0	230	101300000	1000	0	0	-1	600
26044835	8014	639	0	-100	0	230	101300000	1000	0	0	-1	600
26057395	8034	638	0	-100	0	230	101300000	1000	0	0	-1	600
26069955	8005	635	0	-100	0	230	101300000	1000	0	0	-1	600
26082515	8010	639	0	-100	0	230	101300000	1000	0	0	-1	600
26095075	8019	634	0	-100	0	230	101300000	1000	0	0	-1	600
26107635	8018	633	0	-100	0	230	101300000	1000	0	0	-1	600
26120195	8010	636	0	-100	0	230	101300000	1000	0	0	-1	600
26132755	8008	635	0	-100	0	230	101300000	1000	0	0	-1	600
26145315	8012	641	0	-100	0	230	101300000	1000	0	0	-1	600
26157875	8026	639	0	-100	0	230	101300000	1000	0	0	-1	600
26170435	8017	634	0	-100	0	230	101300000	1000	0	0	-1	600
26182995	8010	632	0	-100	0	230	101300000	1000	0	0	-1	600
26195555	8009	637	0	-100	0	230	101300000	1000	0	0	-1	600
26208115	8026	621	0	-100	0	230	101300000	1000	0	0	-1	600
26220675	8010	640	0	-100	0	230	101300000	1000	0	0	-1	600
26233235	8010	638	0	-100	0	230	101300000	1000	0	0	-1	600
26245795	8014	637	0	-100	0	230	101300000	1000	0	0	-1	600
26258355	8010	636	0	-100	0	230	101300000	1000	0	0	-1	600
26270915	8019	636	0	-100	0	230	101300000	1000	0	0	-1	600
26283475	8012	636	0	-100	0	230	101300000	1000	0	0	-1	600
26296035	8010	637	0	-100	0	230	101300000	1000	0	0	-1	600
26308595	8007	636	0	-100	0	230	101300000	1000	0	0	-1	600
26321155	7999	634	0	-100	0	230	101300000	1000	0	0	-1	600
26333715	8015	635	0	-100	0	230	101300000	1000	0	0	-1	600
26346275	7998	633	0	-100	0	230	101300000	1000	0	0	-1	600
26358835	8022	638	0	-100	0	230	101300000	1000	0	0	-1	600
26371395	8008	611	0	-100	0	230	101300000	1000	0	0	-1	600
26383955	8008	635	0	-100	0	230	101300000	1000	0	0	-1	600
26396515	8010	633	0	-100	0	230	101300000	1000	0	0	-1	600
26409075	8017	639	0	-100	0	230	101300000	1000	0	0	-1	600
26421635	8012	636	0	-100	0	230	101300000	1000	0	0	-1	600
26434195	8017	633	0	-100	0	230	101300000	1000	0	0	-1	600
26446755	8019	638	0	-100	0	230	101300000	1000	0	0	-1	600
26459315	8019	638	0	-100	0	230	101300000	1000	0	0	-1	600
26471875	8001	635	0	-100	0	230	101300000	1000	0	0	-1	600
26484435	8017	637	0	-100	0	230	101300000	1000	0	0	-1	600
26496995	8013	633	0	-100	0	230	101300000	1000	0	0	-1	600
26509555	8005	638	0	-100	0	230	101300000	1000	0	0	-1	600
26522115	8022	637	0	-100	0	230	101300000	1000	0	0	-1	600
26534675	8010	638	0	-100	0	230	101300000	1000	0	0	-1	600
26547235	8020	636	0	-100	0	230	101300000	1000	0	0	-1	600
26559795	8019	640	0	-100	0	230	101300000	1000	0	0	-1	600
26572355	8015	639	0	-100	0	230	101300000	1000	0	0	-1	600
26584915	8002	640	0	-100	0	230	101300000	1000	0	0	-1	600
26597475	8015	639	0	-100	0	230	101300000	1000	0	0	-1	600
26610035	8017	642	0	-100	0	230	101300000	1000	0	0	-1	600
26622595	8012	642	0	-100	0	230	101300000	1000	0	0	-1	600
26635155	8008	632	0	-100	0	230	101300000	1000	0	0	-1	600
26647715	8010	637	0	-100	0	230	101300000	1000	0	0	-1	600
26660275	8018	634	0	-100	0	230	101300000	1000	0	0	-1	600
26672835	8008	637	0	-100	0	230	101300000	1000	0	0	-1	600
26685395	8007	636	0	-100	0	230	101300000	1000	0	0	-1	600
26697955	8008	637	0	-100	0	230	101300000	1000	0	0	-1	600
26710515	8010	625	0	-100	0	230	101300000	1000	0	0	-1	600
26723075	8007	636	0	-100	0	230	101300000	1000	0	0	-1	600
26735635	8008	637	0	-100	0	230	101300000	1000	0	0	-1	600
26748195	8014	634	0	-100	0	230	101300000	1000	0	0	-1	600
26760755	8015	634	0	-100	0	230	101300000	1000	0	0	-1	600
26773315	8004	638	0	-100	0	230	101300000	1000	0	0	-1	600
26785875	8012	632	0	-100	0	230	101300000	1000	0	0	-1	600
26798435	8013	635	0	-100	0	230	101300000	1000	0	0	-1	600
26810995	8010	637	0	-100	0	230	101300000	1000	0	0	-1	600
26823555	8022	639	0	-100	0	230	101300000	1000	0	0	-1	600
26836115	8010	632	0	-100	0	230	101300000	1000	0	0	-1	600
26848675	8010	640	0	-100	0	230	101300000	1000	0	0	-1	600
26861235	8007	639	0	-100	0	230	101300000	1000	0	0	-1	600
26873795	8022	637	0	-100	0	230	101300000	1000	0	0	-1	600
26886355	8008	637	0	-100	0	230	101300000	1000	0	0	-1	600
26898915	8014	635	0	-100	0	230	101300000	1000	0	0	-1	600
26911475	8019	636	0	-100	0	230	101300000	1000	0	0	-1	600
26924035	8001	632	0	-100	0	230	101300000	1000	0	0	-1	600
26936595	8005	637	0	-100	0	230	101300000	1000	0	0	-1	600
26949155	8003	635	0	-100	0	230	101300000	1000	0	0	-1	600
26961715	8008	632	0	-100	0	230	101300000	1000	0	0	-1	600
26974275	8014	638	0	-100	0	230	101300000	1000	0	0	-1	600
26986835	8009	640	0	-100	0	230	101300000	1000	0	0	-1	600
26999395	8001	635	0	-100	0	230	101300000	1000	0	0	-1	600
27011955	8010	641	0	-100	0	230	101300000	1000	0	0	-1	600
27024515	8003	634	0	-100	0	230	101300000	1000	0	0	-1	600
27037075	8017	634	0	-100	0	230	101300000	1000	0	0	-1	600
27049635	8010	637	0	-100	0	230	101300000	1000	0	0	-1	600
