timestamp	voltage	current	windSpeed	pitchAngle	rpm	temperature	ambientPressure	humidity	accelerationX	accelerationY	accelerationZ	currentSink
7039070	8520	2	0	-100	0	230	101300000	1000	0	0	-1	0
7046523	8522	1	0	-100	0	230	101300000	1000	0	0	-1	0
7059083	8531	0	0	-100	0	230	101300000	1000	0	0	-1	0
7071643	8522	0	0	-100	0	230	101300000	1000	0	0	-1	0
7084203	8517	4	0	-100	0	230	101300000	1000	0	0	-1	0
7096763	8524	0	0	-100	0	230	101300000	1000	0	0	-1	0
7109323	8522	0	0	-100	0	230	101300000	1000	0	0	-1	0
7121883	8517	2	0	-100	0	230	101300000	1000	0	0	-1	0
7134443	8515	2	0	-100	0	230	101300000	1000	0	0	-1	0
7147004	8524	4	0	-100	0	230	101300000	1000	0	0	-1	0
7159563	8522	0	0	-100	0	230	101300000	1000	0	0	-1	0
7172123	8513	0	0	-100	0	230	101300000	1000	0	0	-1	0
7184683	8522	2	0	-100	0	230	101300000	1000	0	0	-1	0
7197243	8524	0	0	-100	0	230	101300000	1000	0	0	-1	0
7209803	8522	0	0	-100	0	230	101300000	1000	0	0	-1	0
7222363	8513	0	0	-100	0	230	101300000	1000	0	0	-1	0
7234923	8515	4	0	-100	0	230	101300000	1000	0	0	-1	0
7247483	8524	0	0	-100	0	230	101300000	1000	0	0	-1	0
7260043	8524	0	0	-100	0	230	101300000	1000	0	0	-1	0
7272603	8522	0	0	-100	0	230	101300000	1000	0	0	-1	0
7285163	8527	4	0	-100	0	230	101300000	1000	0	0	-1	0
7297723	8522	0	0	-100	0	230	101300000	1000	0	0	-1	0
7310283	8527	0	0	-100	0	230	101300000	1000	0	0	-1	0
7322843	8517	0	0	-100	0	230	101300000	1000	0	0	-1	0
7335403	8515	0	0	-100	0	230	101300000	1000	0	0	-1	0
7347963	8522	4	0	-100	0	230	101300000	1000	0	0	-1	0
7706235	7933	707	0	-100	0	230	101300000	1000	0	0	-1	700
7718795	7908	707	0	-100	0	230	101300000	1000	0	0	-1	700
7731355	7949	704	0	-100	0	230	101300000	1000	0	0	-1	700
7743915	7928	704	0	-100	0	230	101300000	1000	0	0	-1	700
7756475	7928	707	0	-100	0	230	101300000	1000	0	0	-1	700
7769035	7940	687	0	-100	0	230	101300000	1000	0	0	-1	700
7781595	7940	703	0	-100	0	230	101300000	1000	0	0	-1	700
7794155	7940	702	0	-100	0	230	101300000	1000	0	0	-1	700
7806715	7932	710	0	-100	0	230	101300000	1000	0	0	-1	700
7819275	7940	708	0	-100	0	230	101300000	1000	0	0	-1	700
7831835	7938	708	0	-100	0	230	101300000	1000	0	0	-1	700
7844395	7938	707	0	-100	0	230	101300000	1000	0	0	-1	700
7856955	7932	709	0	-100	0	230	101300000	1000	0	0	-1	700
7869515	7942	707	0	-100	0	230	101300000	1000	0	0	-1	700
7882075	7957	707	0	-100	0	230	101300000	1000	0	0	-1	700
7894635	7935	709	0	-100	0	230	101300000	1000	0	0	-1	700
7907195	7938	707	0	-100	0	230	101300000	1000	0	0	-1	700
7919755	7943	705	0	-100	0	230	101300000	1000	0	0	-1	700
7932315	7947	708	0	-100	0	230	101300000	1000	0	0	-1	700
7944875	7926	706	0	-100	0	230	101300000	1000	0	0	-1	700
7957435	7932	710	0	-100	0	230	101300000	1000	0	0	-1	700
7969995	7918	708	0	-100	0	230	101300000	1000	0	0	-1	700
7982555	7929	700	0	-100	0	230	101300000	1000	0	0	-1	700
7995115	7957	691	0	-100	0	230	101300000	1000	0	0	-1	700
8007675	7947	708	0	-100	0	230	101300000	1000	0	0	-1	700
8020235	7952	704	0	-100	0	230	101300000	1000	0	0	-1	700
8032795	7937	706	0	-100	0	230	101300000	1000	0	0	-1	700
8045355	7937	707	0	-100	0	230	101300000	1000	0	0	-1	700
8057915	7945	702	0	-100	0	230	101300000	1000	0	0	-1	700
8070475	7936	705	0	-100	0	230	101300000	1000	0	0	-1	700
8083035	7944	706	0	-100	0	230	101300000	1000	0	0	-1	700
8095595	7938	706	0	-100	0	230	101300000	1000	0	0	-1	700
8108155	7945	706	0	-100	0	230	101300000	1000	0	0	-1	700
8120715	7937	708	0	-100	0	230	101300000	1000	0	0	-1	700
8133275	7937	711	0	-100	0	230	101300000	1000	0	0	-1	700
8145835	7938	707	0	-100	0	230	101300000	1000	0	0	-1	700
8158395	7937	708	0	-100	0	230	101300000	1000	0	0	-1	700
8170955	7935	707	0	-100	0	230	101300000	1000	0	0	-1	700
8183515	7945	709	0	-100	0	230	101300000	1000	0	0	-1	700
8196075	7939	706	0	-100	0	230	101300000	1000	0	0	-1	700
8208635	7943	710	0	-100	0	230	101300000	1000	0	0	-1	700
8221195	7959	707	0	-100	0	230	101300000	1000	0	0	-1	700
8233755	7945	704	0	-100	0	230	101300000	1000	0	0	-1	700
8246315	7945	706	0	-100	0	230	101300000	1000	0	0	-1	700
8258875	7926	710	0	-100	0	230	101300000	1000	0	0	-1	700
8271435	7943	706	0	-100	0	230	101300000	1000	0	0	-1	700
8283995	7925	708	0	-100	0	230	101300000	1000	0	0	-1	700
8296555	7947	709	0	-100	0	230	101300000	1000	0	0	-1	700
8309115	7930	713	0	-100	0	230	101300000	1000	0	0	-1	700
8321675	7911	708	0	-100	0	230	101300000	1000	0	0	-1	700
8334235	7935	708	0	-100	0	230	101300000	1000	0	0	-1	700
8346795	7942	707	0	-100	0	230	101300000	1000	0	0	-1	700
8359355	7938	703	0	-100	0	230	101300000	1000	0	0	-1	700
8371915	7962	707	0	-100	0	230	101300000	1000	0	0	-1	700
8384475	7955	705	0	-100	0	230	101300000	1000	0	0	-1	700
8397035	7931	705	0	-100	0	230	101300000	1000	0	0	-1	700
8409595	7945	710	0	-100	0	230	101300000	1000	0	0	-1	700
8422155	7916	712	0	-100	0	230	101300000	1000	0	0	-1	700
8434715	7928	706	0	-100	0	230	101300000	1000	0	0	-1	700
8447275	7940	711	0	-100	0	230	101300000	1000	0	0	-1	700
8459835	7937	710	0	-100	0	230	101300000	1000	0	0	-1	700
8472395	7932	710	0	-100	0	230	101300000	1000	0	0	-1	700
8484955	7952	706	0	-100	0	230	101300000	1000	0	0	-1	700
8497515	7940	709	0	-100	0	230	101300000	1000	0	0	-1	700
8510075	7938	705	0	-100	0	230	101300000	1000	0	0	-1	700
8522635	7930	709	0	-100	0	230	101300000	1000	0	0	-1	700
8535195	7938	709	0	-100	0	230	101300000	1000	0	0	-1	700
8547755	7942	714	0	-100	0	230	101300000	1000	0	0	-1	700
8560315	7935	706	0	-100	0	230	101300000	1000	0	0	-1	700
8572875	7930	706	0	-100	0	230	101300000	1000	0	0	-1	700
8585435	7938	706	0	-100	0	230	101300000	1000	0	0	-1	700
8597995	7938	706	0	-100	0	230	101300000	1000	0	0	-1	700
8610555	7938	707	0	-100	0	230	101300000	1000	0	0	-1	700
8623115	7921	708	0	-100	0	230	101300000	1000	0	0	-1	700
8635675	7954	709	0	-100	0	230	101300000	1000	0	0	-1	700
8648235	7935	707	0	-100	0	230	101300000	1000	0	0	-1	700
8660795	7953	708	0	-100	0	230	101300000	1000	0	0	-1	700
8673355	7935	710	0	-100	0	230	101300000	1000	0	0	-1	700
8685915	7954	710	0	-100	0	230	101300000	1000	0	0	-1	700
8698475	7925	712	0	-100	0	230	101300000	1000	0	0	-1	700
8711035	7926	712	0	-100	0	230	101300000	1000	0	0	-1	700
8723595	7938	705	0	-100	0	230	101300000	1000	0	0	-1	700
8736155	7952	708	0	-100	0	230	101300000	1000	0	0	-1	700
8748715	7930	711	0	-100	0	230	101300000	1000	0	0	-1	700
8761275	7954	705	0	-100	0	230	101300000	1000	0	0	-1	700
8773835	7957	708	0	-100	0	230	101300000	1000	0	0	-1	700
8786395	7953	705	0	-100	0	230	101300000	1000	0	0	-1	700
8798955	7952	708	0	-100	0	230	101300000	1000	0	0	-1	700
8811515	7926	709	0	-100	0	230	101300000	1000	0	0	-1	700
8824075	7938	708	0	-100	0	230	101300000	1000	0	0	-1	700
8836635	7931	711	0	-100	0	230	101300000	1000	0	0	-1	700
8849195	7940	712	0	-100	0	230	101300000	1000	0	0	-1	700
8861755	7937	704	0	-100	0	230	101300000	1000	0	0	-1	700
8874315	7931	704	0	-100	0	230	101300000	1000	0	0	-1	700
8886875	7940	705	0	-100	0	230	101300000	1000	0	0	-1	700
8899435	7942	704	0	-100	0	230	101300000	1000	0	0	-1	700
8911995	7944	706	0	-100	0	230	101300000	1000	0	0	-1	700
8924555	7935	706	0	-100	0	230	101300000	1000	0	0	-1	700
8937115	7931	707	0	-100	0	230	101300000	1000	0	0	-1	700
8949675	7948	705	0	-100	0	230	101300000	1000	0	0	-1	700
8962235	7950	706	0	-100	0	230	101300000	1000	0	0	-1	700
8974795	7923	713	0	-100	0	230	101300000	1000	0	0	-1	700
8987355	7950	711	0	-100	0	230	101300000	1000	0	0	-1	700
8999915	7942	705	0	-100	0	230	101300000	1000	0	0	-1	700
9012475	7940	707	0	-100	0	230	101300000	1000	0	0	-1	700
9025035	7945	711	0	-100	0	230	101300000	1000	0	0	-1	700
9037595	7938	703	0	-100	0	230	101300000	1000	0	0	-1	700
9050155	7951	706	0	-100	0	230	101300000	1000	0	0	-1	700
9062715	7926	709	0	-100	0	230	101300000	1000	0	0	-1	700
9075275	7942	708	0	-100	0	230	101300000	1000	0	0	-1	700
9087835	7952	702	0	-100	0	230	101300000	1000	0	0	-1	700
9100395	7930	714	0	-100	0	230	101300000	1000	0	0	-1	700
9112955	7942	707	0	-100	0	230	101300000	1000	0	0	-1	700
9125515	7943	708	0	-100	0	230	101300000	1000	0	0	-1	700
9138075	7933	712	0	-100	0	230	101300000	1000	0	0	-1	700
9150635	7942	709	0	-100	0	230	101300000	1000	0	0	-1	700
9163195	7941	704	0	-100	0	230	101300000	1000	0	0	-1	700
9175755	7931	711	0	-100	0	230	101300000	1000	0	0	-1	700
9188315	7938	709	0	-100	0	230	101300000	1000	0	0	-1	700
9200875	7945	708	0	-100	0	230	101300000	1000	0	0	-1	700
9213435	7935	709	0	-100	0	230	101300000	1000	0	0	-1	700
9225995	7945	708	0	-100	0	230	101300000	1000	0	0	-1	700
9238555	7947	710	0	-100	0	230	101300000	1000	0	0	-1	700
9251115	7925	708	0	-100	0	230	101300000	1000	0	0	-1	700
9263675	7940	710	0	-100	0	230	101300000	1000	0	0	-1	700
9313915	7961	709	0	-100	0	230	101300000	1000	0	0	-1	700
9326475	7947	707	0	-100	0	230	101300000	1000	0	0	-1	700
9339035	7932	707	0	-100	0	230	101300000	1000	0	0	-1	700
9351595	7928	708	0	-100	0	230	101300000	1000	0	0	-1	700
9364155	7945	708	0	-100	0	230	101300000	1000	0	0	-1	700
9376715	7918	708	0	-100	0	230	101300000	1000	0	0	-1	700
9389275	7930	705	0	-100	0	230	101300000	1000	0	0	-1	700
9401835	7954	708	0	-100	0	230	101300000	1000	0	0	-1	700
9414395	7923	708	0	-100	0	230	101300000	1000	0	0	-1	700
9426955	7938	711	0	-100	0	230	101300000	1000	0	0	-1	700
9439515	7961	709	0	-100	0	230	101300000	1000	0	0	-1	700
9514875	7935	712	0	-100	0	230	101300000	1000	0	0	-1	700
9527435	7949	709	0	-100	0	230	101300000	1000	0	0	-1	700
9539995	7940	706	0	-100	0	230	101300000	1000	0	0	-1	700
9552555	7948	711	0	-100	0	230	101300000	1000	0	0	-1	700
9565115	7954	711	0	-100	0	230	101300000	1000	0	0	-1	700
9577675	7940	706	0	-100	0	230	101300000	1000	0	0	-1	700
9590235	7933	713	0	-100	0	230	101300000	1000	0	0	-1	700
9602795	7947	704	0	-100	0	230	101300000	1000	0	0	-1	700
9615355	7935	707	0	-100	0	230	101300000	1000	0	0	-1	700
9627915	7908	707	0	-100	0	230	101300000	1000	0	0	-1	700
9640475	7941	705	0	-100	0	230	101300000	1000	0	0	-1	700
9653035	7931	712	0	-100	0	230	101300000	1000	0	0	-1	700
9678155	7952	708	0	-100	0	230	101300000	1000	0	0	-1	700
9690715	7941	705	0	-100	0	230	101300000	1000	0	0	-1	700
9703275	7945	707	0	-100	0	230	101300000	1000	0	0	-1	700
9715835	7928	709	0	-100	0	230	101300000	1000	0	0	-1	700
9728395	7908	709	0	-100	0	230	101300000	1000	0	0	-1	700
9740955	7942	708	0	-100	0	230	101300000	1000	0	0	-1	700
9753515	7938	707	0	-100	0	230	101300000	1000	0	0	-1	700
9766075	7957	708	0	-100	0	230	101300000	1000	0	0	-1	700
9778635	7940	707	0	-100	0	230	101300000	1000	0	0	-1	700
9791195	7940	707	0	-100	0	230	101300000	1000	0	0	-1	700
9803755	7944	714	0	-100	0	230	101300000	1000	0	0	-1	700
9816315	7945	703	0	-100	0	230	101300000	1000	0	0	-1	700
9828875	7935	705	0	-100	0	230	101300000	1000	0	0	-1	700
9841435	7928	711	0	-100	0	230	101300000	1000	0	0	-1	700
9853995	7952	707	0	-100	0	230	101300000	1000	0	0	-1	700
9866555	7947	711	0	-100	0	230	101300000	1000	0	0	-1	700
9879115	7950	713	0	-100	0	230	101300000	1000	0	0	-1	700
9891675	7933	712	0	-100	0	230	101300000	1000	0	0	-1	700
9904235	7940	710	0	-100	0	230	101300000	1000	0	0	-1	700
9916795	7945	706	0	-100	0	230	101300000	1000	0	0	-1	700
9929355	7945	704	0	-100	0	230	101300000	1000	0	0	-1	700
9941915	7940	708	0	-100	0	230	101300000	1000	0	0	-1	700
9954475	7938	710	0	-100	0	230	101300000	1000	0	0	-1	700
9967035	7934	706	0	-100	0	230	101300000	1000	0	0	-1	700
9979595	7947	707	0	-100	0	230	101300000	1000	0	0	-1	700
9992155	7945	707	0	-100	0	230	101300000	1000	0	0	-1	700
10004715	7930	714	0	-100	0	230	101300000	1000	0	0	-1	700
10017275	7940	711	0	-100	0	230	101300000	1000	0	0	-1	700
10029835	7948	708	0	-100	0	230	101300000	1000	0	0	-1	700
10042395	7932	709	0	-100	0	230	101300000	1000	0	0	-1	700
10054955	7935	709	0	-100	0	230	101300000	1000	0	0	-1	700
10067515	7933	707	0	-100	0	230	101300000	1000	0	0	-1	700
10080075	7934	705	0	-100	0	230	101300000	1000	0	0	-1	700
10092635	7931	708	0	-100	0	230	101300000	1000	0	0	-1	700
10105195	7940	708	0	-100	0	230	101300000	1000	0	0	-1	700
10117755	7935	714	0	-100	0	230	101300000	1000	0	0	-1	700
10130315	7957	696	0	-100	0	230	101300000	1000	0	0	-1	700
10142875	7931	700	0	-100	0	230	101300000	1000	0	0	-1	700
10155435	7949	709	0	-100	0	230	101300000	1000	0	0	-1	700
10167995	7938	707	0	-100	0	230	101300000	1000	0	0	-1	700
10180555	7942	713	0	-100	0	230	101300000	1000	0	0	-1	700
10193115	7948	708	0	-100	0	230	101300000	1000	0	0	-1	700
10205675	7952	704	0	-100	0	230	101300000	1000	0	0	-1	700
10218235	7948	711	0	-100	0	230	101300000	1000	0	0	-1	700
10230795	7926	705	0	-100	0	230	101300000	1000	0	0	-1	700
10243355	7949	711	0	-100	0	230	101300000	1000	0	0	-1	700
10255915	7966	713	0	-100	0	230	101300000	1000	0	0	-1	700
10268475	7912	710	0	-100	0	230	101300000	1000	0	0	-1	700
10281035	7931	713	0	-100	0	230	101300000	1000	0	0	-1	700
10293595	7926	714	0	-100	0	230	101300000	1000	0	0	-1	700
10306155	7959	706	0	-100	0	230	101300000	1000	0	0	-1	700
10318715	7952	706	0	-100	0	230	101300000	1000	0	0	-1	700
10331275	7940	713	0	-100	0	230	101300000	1000	0	0	-1	700
10343835	7945	711	0	-100	0	230	101300000	1000	0	0	-1	700
10356395	7914	713	0	-100	0	230	101300000	1000	0	0	-1	700
10368955	7937	704	0	-100	0	230	101300000	1000	0	0	-1	700
10381515	7945	708	0	-100	0	230	101300000	1000	0	0	-1	700
10394075	7957	703	0	-100	0	230	101300000	1000	0	0	-1	700
10406635	7954	707	0	-100	0	230	101300000	1000	0	0	-1	700
10419195	7945	712	0	-100	0	230	101300000	1000	0	0	-1	700
10431755	7957	708	0	-100	0	230	101300000	1000	0	0	-1	700
10444315	7943	706	0	-100	0	230	101300000	1000	0	0	-1	700
10456875	7938	714	0	-100	0	230	101300000	1000	0	0	-1	700
10469435	7945	707	0	-100	0	230	101300000	1000	0	0	-1	700
10481995	7936	708	0	-100	0	230	101300000	1000	0	0	-1	700
10494555	7940	708	0	-100	0	230	101300000	1000	0	0	-1	700
10507115	7938	714	0	-100	0	230	101300000	1000	0	0	-1	700
10519675	7913	715	0	-100	0	230	101300000	1000	0	0	-1	700
10532235	7933	694	0	-100	0	230	101300000	1000	0	0	-1	700
10544795	7957	707	0	-100	0	230	101300000	1000	0	0	-1	700
10557355	7942	710	0	-100	0	230	101300000	1000	0	0	-1	700
10569915	7935	690	0	-100	0	230	101300000	1000	0	0	-1	700
10582475	7941	706	0	-100	0	230	101300000	1000	0	0	-1	700
10595035	7938	713	0	-100	0	230	101300000	1000	0	0	-1	700
10607595	7926	713	0	-100	0	230	101300000	1000	0	0	-1	700
10620155	7944	710	0	-100	0	230	101300000	1000	0	0	-1	700
10632715	7947	705	0	-100	0	230	101300000	1000	0	0	-1	700
10645275	7945	707	0	-100	0	230	101300000	1000	0	0	-1	700
10657835	7947	710	0	-100	0	230	101300000	1000	0	0	-1	700
10670395	7942	706	0	-100	0	230	101300000	1000	0	0	-1	700
10682955	7947	710	0	-100	0	230	101300000	1000	0	0	-1	700
10695515	7931	709	0	-100	0	230	101300000	1000	0	0	-1	700
10708075	7950	713	0	-100	0	230	101300000	1000	0	0	-1	700
10720635	7935	713	0	-100	0	230	101300000	1000	0	0	-1	700
10733195	7957	708	0	-100	0	230	101300000	1000	0	0	-1	700
10745755	7952	702	0	-100	0	230	101300000	1000	0	0	-1	700
10758315	7948	710	0	-100	0	230	101300000	1000	0	0	-1	700
10770875	7911	709	0	-100	0	230	101300000	1000	0	0	-1	700
10783435	7942	709	0	-100	0	230	101300000	1000	0	0	-1	700
10795995	7942	710	0	-100	0	230	101300000	1000	0	0	-1	700
10808555	7958	708	0	-100	0	230	101300000	1000	0	0	-1	700
10821115	7957	711	0	-100	0	230	101300000	1000	0	0	-1	700
10833675	7916	711	0	-100	0	230	101300000	1000	0	0	-1	700
10846235	7957	710	0	-100	0	230	101300000	1000	0	0	-1	700
10858795	7943	708	0	-100	0	230	101300000	1000	0	0	-1	700
10871355	7942	713	0	-100	0	230	101300000	1000	0	0	-1	700
10883915	7959	713	0	-100	0	230	101300000	1000	0	0	-1	700
10896475	7945	706	0	-100	0	230	101300000	1000	0	0	-1	700
10909035	7947	709	0	-100	0	230	101300000	1000	0	0	-1	700
10921595	7947	707	0	-100	0	230	101300000	1000	0	0	-1	700
10934155	7959	710	0	-100	0	230	101300000	1000	0	0	-1	700
10946715	7940	707	0	-100	0	230	101300000	1000	0	0	-1	700
10959275	7950	714	0	-100	0	230	101300000	1000	0	0	-1	700
10971835	7954	708	0	-100	0	230	101300000	1000	0	0	-1	700
10984395	7929	707	0	-100	0	230	101300000	1000	0	0	-1	700
10996955	7947	712	0	-100	0	230	101300000	1000	0	0	-1	700
11009515	7944	710	0	-100	0	230	101300000	1000	0	0	-1	700
11022075	7950	704	0	-100	0	230	101300000	1000	0	0	-1	700
11034635	7945	707	0	-100	0	230	101300000	1000	0	0	-1	700
11047195	7940	711	0	-100	0	230	101300000	1000	0	0	-1	700
11059755	7931	711	0	-100	0	230	101300000	1000	0	0	-1	700
11072315	7945	709	0	-100	0	230	101300000	1000	0	0	-1	700
11084875	7950	712	0	-100	0	230	101300000	1000	0	0	-1	700
11097435	7955	711	0	-100	0	230	101300000	1000	0	0	-1	700
11109995	7945	703	0	-100	0	230	101300000	1000	0	0	-1	700
11122555	7930	707	0	-100	0	230	101300000	1000	0	0	-1	700
11135115	7942	711	0	-100	0	230	101300000	1000	0	0	-1	700
11147675	7940	711	0	-100	0	230	101300000	1000	0	0	-1	700
11160235	7954	709	0	-100	0	230	101300000	1000	0	0	-1	700
11172795	7931	706	0	-100	0	230	101300000	1000	0	0	-1	700
11185355	7942	710	0	-100	0	230	101300000	1000	0	0	-1	700
11197915	7937	707	0	-100	0	230	101300000	1000	0	0	-1	700
11210475	7947	710	0	-100	0	230	101300000	1000	0	0	-1	700
11223035	7933	709	0	-100	0	230	101300000	1000	0	0	-1	700
11235595	7955	709	0	-100	0	230	101300000	1000	0	0	-1	700
11248155	7944	714	0	-100	0	230	101300000	1000	0	0	-1	700
11260715	7931	706	0	-100	0	230	101300000	1000	0	0	-1	700
11273275	7933	712	0	-100	0	230	101300000	1000	0	0	-1	700
11285835	7940	708	0	-100	0	230	101300000	1000	0	0	-1	700
11298395	7940	709	0	-100	0	230	101300000	1000	0	0	-1	700
11310955	7945	708	0	-100	0	230	101300000	1000	0	0	-1	700
11323515	7943	711	0	-100	0	230	101300000	1000	0	0	-1	700
11336075	7945	694	0	-100	0	230	101300000	1000	0	0	-1	700
11348635	7933	707	0	-100	0	230	101300000	1000	0	0	-1	700
11361195	7945	711	0	-100	0	230	101300000	1000	0	0	-1	700
11373755	7950	709	0	-100	0	230	101300000	1000	0	0	-1	700
11386315	7930	712	0	-100	0	230	101300000	1000	0	0	-1	700
11398875	7952	712	0	-100	0	230	101300000	1000	0	0	-1	700
11411435	7940	706	0	-100	0	230	101300000	1000	0	0	-1	700
11423995	7942	704	0	-100	0	230	101300000	1000	0	0	-1	700
11436555	7955	708	0	-100	0	230	101300000	1000	0	0	-1	700
11449115	7928	706	0	-100	0	230	101300000	1000	0	0	-1	700
11461675	7928	710	0	-100	0	230	101300000	1000	0	0	-1	700
11474235	7943	711	0	-100	0	230	101300000	1000	0	0	-1	700
11486795	7943	713	0	-100	0	230	101300000	1000	0	0	-1	700
11499355	7941	709	0	-100	0	230	101300000	1000	0	0	-1	700
11511915	7952	711	0	-100	0	230	101300000	1000	0	0	-1	700
11524475	7938	708	0	-100	0	230	101300000	1000	0	0	-1	700
11537035	7950	709	0	-100	0	230	101300000	1000	0	0	-1	700
11549595	7935	706	0	-100	0	230	101300000	1000	0	0	-1	700
11562155	7942	714	0	-100	0	230	101300000	1000	0	0	-1	700
11574715	7950	715	0	-100	0	230	101300000	1000	0	0	-1	700
11587275	7950	706	0	-100	0	230	101300000	1000	0	0	-1	700
11599835	7942	712	0	-100	0	230	101300000	1000	0	0	-1	700
11612395	7945	706	0	-100	0	230	101300000	1000	0	0	-1	700
11624955	7938	710	0	-100	0	230	101300000	1000	0	0	-1	700
11637515	7950	709	0	-100	0	230	101300000	1000	0	0	-1	700
11650075	7935	710	0	-100	0	230	101300000	1000	0	0	-1	700
11662635	7948	710	0	-100	0	230	101300000	1000	0	0	-1	700
11675195	7937	709	0	-100	0	230	101300000	1000	0	0	-1	700
11687755	7956	708	0	-100	0	230	101300000	1000	0	0	-1	700
11700315	7940	707	0	-100	0	230	101300000	1000	0	0	-1	700
11712875	7943	709	0	-100	0	230	101300000	1000	0	0	-1	700
11725435	7938	710	0	-100	0	230	101300000	1000	0	0	-1	700
11737995	7945	711	0	-100	0	230	101300000	1000	0	0	-1	700
11750555	7938	709	0	-100	0	230	101300000	1000	0	0	-1	700
11763115	7945	713	0	-100	0	230	101300000	1000	0	0	-1	700
11775675	7947	707	0	-100	0	230	101300000	1000	0	0	-1	700
11788235	7941	707	0	-100	0	230	101300000	1000	0	0	-1	700
11800795	7942	707	0	-100	0	230	101300000	1000	0	0	-1	700
11813355	7940	709	0	-100	0	230	101300000	1000	0	0	-1	700
11825915	7940	713	0	-100	0	230	101300000	1000	0	0	-1	700
11838475	7935	716	0	-100	0	230	101300000	1000	0	0	-1	700
11851035	7939	711	0	-100	0	230	101300000	1000	0	0	-1	700
11863595	7931	705	0	-100	0	230	101300000	1000	0	0	-1	700
11876155	7954	711	0	-100	0	230	101300000	1000	0	0	-1	700
11888715	7933	691	0	-100	0	230	101300000	1000	0	0	-1	700
11901275	7950	707	0	-100	0	230	101300000	1000	0	0	-1	700
11913835	7933	709	0	-100	0	230	101300000	1000	0	0	-1	700
11926395	7935	712	0	-100	0	230	101300000	1000	0	0	-1	700
11938955	7932	713	0	-100	0	230	101300000	1000	0	0	-1	700
11951515	7938	711	0	-100	0	230	101300000	1000	0	0	-1	700
11964075	7939	709	0	-100	0	230	101300000	1000	0	0	-1	700
11976635	7938	707	0	-100	0	230	101300000	1000	0	0	-1	700
11989195	7935	708	0	-100	0	230	101300000	1000	0	0	-1	700
12001755	7933	709	0	-100	0	230	101300000	1000	0	0	-1	700
12014315	7954	711	0	-100	0	230	101300000	1000	0	0	-1	700
12026875	7936	709	0	-100	0	230	101300000	1000	0	0	-1	700
12039435	7959	709	0	-100	0	230	101300000	1000	0	0	-1	700
12051995	7941	710	0	-100	0	230	101300000	1000	0	0	-1	700
12064555	7947	710	0	-100	0	230	101300000	1000	0	0	-1	700
12077115	7941	703	0	-100	0	230	101300000	1000	0	0	-1	700
12089675	7923	709	0	-100	0	230	101300000	1000	0	0	-1	700
12102235	7923	709	0	-100	0	230	101300000	1000	0	0	-1	700
12114795	7945	711	0	-100	0	230	101300000	1000	0	0	-1	700
12127355	7935	709	0	-100	0	230	101300000	1000	0	0	-1	700
12139915	7923	710	0	-100	0	230	101300000	1000	0	0	-1	700
12152475	7935	707	0	-100	0	230	101300000	1000	0	0	-1	700
12165035	7945	710	0	-100	0	230	101300000	1000	0	0	-1	700
12177595	7937	708	0	-100	0	230	101300000	1000	0	0	-1	700
12190155	7945	711	0	-100	0	230	101300000	1000	0	0	-1	700
12202715	7951	711	0	-100	0	230	101300000	1000	0	0	-1	700
12215275	7935	712	0	-100	0	230	101300000	1000	0	0	-1	700
12227835	7939	714	0	-100	0	230	101300000	1000	0	0	-1	700
12240395	7943	707	0	-100	0	230	101300000	1000	0	0	-1	700
12252955	7937	709	0	-100	0	230	101300000	1000	0	0	-1	700
12265515	7942	708	0	-100	0	230	101300000	1000	0	0	-1	700
12278075	7949	710	0	-100	0	230	101300000	1000	0	0	-1	700
12290635	7938	711	0	-100	0	230	101300000	1000	0	0	-1	700
12303195	7953	707	0	-100	0	230	101300000	1000	0	0	-1	700
12315755	7948	708	0	-100	0	230	101300000	1000	0	0	-1	700
12328315	7950	712	0	-100	0	230	101300000	1000	0	0	-1	700
12340875	7938	706	0	-100	0	230	101300000	1000	0	0	-1	700
12353435	7936	707	0	-100	0	230	101300000	1000	0	0	-1	700
12441355	7950	711	0	-100	0	230	101300000	1000	0	0	-1	700
12453915	7952	711	0	-100	0	230	101300000	1000	0	0	-1	700
12466475	7940	710	0	-100	0	230	101300000	1000	0	0	-1	700
12479035	7947	706	0	-100	0	230	101300000	1000	0	0	-1	700
12491595	7940	709	0	-100	0	230	101300000	1000	0	0	-1	700
12504155	7945	709	0	-100	0	230	101300000	1000	0	0	-1	700
12516715	7945	708	0	-100	0	230	101300000	1000	0	0	-1	700
12529275	7938	709	0	-100	0	230	101300000	1000	0	0	-1	700
12541835	7940	706	0	-100	0	230	101300000	1000	0	0	-1	700
12554395	7946	712	0	-100	0	230	101300000	1000	0	0	-1	700
12566955	7949	714	0	-100	0	230	101300000	1000	0	0	-1	700
12629755	7942	709	0	-100	0	230	101300000	1000	0	0	-1	700
12642315	7938	708	0	-100	0	230	101300000	1000	0	0	-1	700
12654875	7947	709	0	-100	0	230	101300000	1000	0	0	-1	700
12667435	7928	707	0	-100	0	230	101300000	1000	0	0	-1	700
12679995	7935	710	0	-100	0	230	101300000	1000	0	0	-1	700
12692555	7950	712	0	-100	0	230	101300000	1000	0	0	-1	700
12705115	7942	709	0	-100	0	230	101300000	1000	0	0	-1	700
12717675	7935	708	0	-100	0	230	101300000	1000	0	0	-1	700
12730235	7942	706	0	-100	0	230	101300000	1000	0	0	-1	700
12742795	7949	712	0	-100	0	230	101300000	1000	0	0	-1	700
12755355	7937	711	0	-100	0	230	101300000	1000	0	0	-1	700
12767915	7959	709	0	-100	0	230	101300000	1000	0	0	-1	700
12780475	7926	711	0	-100	0	230	101300000	1000	0	0	-1	700
12793035	7942	710	0	-100	0	230	101300000	1000	0	0	-1	700
12805595	7950	705	0	-100	0	230	101300000	1000	0	0	-1	700
12818155	7935	711	0	-100	0	230	101300000	1000	0	0	-1	700
12830715	7947	707	0	-100	0	230	101300000	1000	0	0	-1	700
12843275	7942	708	0	-100	0	230	101300000	1000	0	0	-1	700
12855835	7938	710	0	-100	0	230	101300000	1000	0	0	-1	700
12868395	7954	710	0	-100	0	230	101300000	1000	0	0	-1	700
12880955	7949	711	0	-100	0	230	101300000	1000	0	0	-1	700
12893515	7928	711	0	-100	0	230	101300000	1000	0	0	-1	700
12906075	7938	707	0	-100	0	230	101300000	1000	0	0	-1	700
12918635	7955	709	0	-100	0	230	101300000	1000	0	0	-1	700
12931195	7925	709	0	-100	0	230	101300000	1000	0	0	-1	700
12943755	7945	707	0	-100	0	230	101300000	1000	0	0	-1	700
12956315	7938	711	0	-100	0	230	101300000	1000	0	0	-1	700
12968875	7940	710	0	-100	0	230	101300000	1000	0	0	-1	700
12981435	7940	705	0	-100	0	230	101300000	1000	0	0	-1	700
12993995	7942	705	0	-100	0	230	101300000	1000	0	0	-1	700
13006555	7938	709	0	-100	0	230	101300000	1000	0	0	-1	700
13019115	7947	698	0	-100	0	230	101300000	1000	0	0	-1	700
13031675	7938	710	0	-100	0	230	101300000	1000	0	0	-1	700
13044235	7928	713	0	-100	0	230	101300000	1000	0	0	-1	700
13056795	7935	709	0	-100	0	230	101300000	1000	0	0	-1	700
13069355	7942	709	0	-100	0	230	101300000	1000	0	0	-1	700
13081915	7940	706	0	-100	0	230	101300000	1000	0	0	-1	700
13094475	7940	711	0	-100	0	230	101300000	1000	0	0	-1	700
13107035	7945	708	0	-100	0	230	101300000	1000	0	0	-1	700
13119595	7943	710	0	-100	0	230	101300000	1000	0	0	-1	700
13132155	7939	705	0	-100	0	230	101300000	1000	0	0	-1	700
13144715	7949	710	0	-100	0	230	101300000	1000	0	0	-1	700
13157275	7947	709	0	-100	0	230	101300000	1000	0	0	-1	700
13169835	7902	710	0	-100	0	230	101300000	1000	0	0	-1	700
13182395	7945	710	0	-100	0	230	101300000	1000	0	0	-1	700
13194955	7938	710	0	-100	0	230	101300000	1000	0	0	-1	700
13207515	7940	710	0	-100	0	230	101300000	1000	0	0	-1	700
13220075	7942	710	0	-100	0	230	101300000	1000	0	0	-1	700
13232635	7947	712	0	-100	0	230	101300000	1000	0	0	-1	700
13245195	7903	700	0	-100	0	230	101300000	1000	0	0	-1	700
13257755	7950	710	0	-100	0	230	101300000	1000	0	0	-1	700
13270315	7930	709	0	-100	0	230	101300000	1000	0	0	-1	700
13282875	7949	708	0	-100	0	230	101300000	1000	0	0	-1	700
13295435	7943	711	0	-100	0	230	101300000	1000	0	0	-1	700
13307995	7950	707	0	-100	0	230	101300000	1000	0	0	-1	700
13320555	7940	712	0	-100	0	230	101300000	1000	0	0	-1	700
13333115	7945	710	0	-100	0	230	101300000	1000	0	0	-1	700
13345675	7941	707	0	-100	0	230	101300000	1000	0	0	-1	700
13358235	7956	711	0	-100	0	230	101300000	1000	0	0	-1	700
13370795	7955	708	0	-100	0	230	101300000	1000	0	0	-1	700
13383355	7945	707	0	-100	0	230	101300000	1000	0	0	-1	700
13395915	7942	711	0	-100	0	230	101300000	1000	0	0	-1	700
13408475	7921	707	0	-100	0	230	101300000	1000	0	0	-1	700
13421035	7949	713	0	-100	0	230	101300000	1000	0	0	-1	700
13433595	7947	707	0	-100	0	230	101300000	1000	0	0	-1	700
13446155	7925	708	0	-100	0	230	101300000	1000	0	0	-1	700
13458715	7948	711	0	-100	0	230	101300000	1000	0	0	-1	700
13471275	7933	710	0	-100	0	230	101300000	1000	0	0	-1	700
13483835	7952	711	0	-100	0	230	101300000	1000	0	0	-1	700
13496395	7942	712	0	-100	0	230	101300000	1000	0	0	-1	700
13508955	7955	702	0	-100	0	230	101300000	1000	0	0	-1	700
13521515	7952	713	0	-100	0	230	101300000	1000	0	0	-1	700
13534075	7957	707	0	-100	0	230	101300000	1000	0	0	-1	700
13546635	7940	707	0	-100	0	230	101300000	1000	0	0	-1	700
13559195	7948	707	0	-100	0	230	101300000	1000	0	0	-1	700
13571755	7952	697	0	-100	0	230	101300000	1000	0	0	-1	700
13584315	7938	706	0	-100	0	230	101300000	1000	0	0	-1	700
13596875	7940	711	0	-100	0	230	101300000	1000	0	0	-1	700
13609435	7940	702	0	-100	0	230	101300000	1000	0	0	-1	700
13621995	7933	706	0	-100	0	230	101300000	1000	0	0	-1	700
13634555	7959	714	0	-100	0	230	101300000	1000	0	0	-1	700
13647115	7944	714	0	-100	0	230	101300000	1000	0	0	-1	700
13659675	7948	716	0	-100	0	230	101300000	1000	0	0	-1	700
13672235	7937	715	0	-100	0	230	101300000	1000	0	0	-1	700
13684795	7906	707	0	-100	0	230	101300000	1000	0	0	-1	700
13697355	7947	709	0	-100	0	230	101300000	1000	0	0	-1	700
13709915	7952	708	0	-100	0	230	101300000	1000	0	0	-1	700
13722475	7904	711	0	-100	0	230	101300000	1000	0	0	-1	700
13735035	7926	709	0	-100	0	230	101300000	1000	0	0	-1	700
13747595	7952	710	0	-100	0	230	101300000	1000	0	0	-1	700
13760155	7950	692	0	-100	0	230	101300000	1000	0	0	-1	700
13772715	7937	710	0	-100	0	230	101300000	1000	0	0	-1	700
13785275	7950	709	0	-100	0	230	101300000	1000	0	0	-1	700
13797835	7945	708	0	-100	0	230	101300000	1000	0	0	-1	700
13810395	7947	709	0	-100	0	230	101300000	1000	0	0	-1	700
13822955	7950	711	0	-100	0	230	101300000	1000	0	0	-1	700
13835515	7937	713	0	-100	0	230	101300000	1000	0	0	-1	700
13848075	7940	712	0	-100	0	230	101300000	1000	0	0	-1	700
13860635	7934	713	0	-100	0	230	101300000	1000	0	0	-1	700
13873195	7945	713	0	-100	0	230	101300000	1000	0	0	-1	700
13885755	7948	710	0	-100	0	230	101300000	1000	0	0	-1	700
13898315	7937	711	0	-100	0	230	101300000	1000	0	0	-1	700
13910875	7947	711	0	-100	0	230	101300000	1000	0	0	-1	700
13923435	7950	709	0	-100	0	230	101300000	1000	0	0	-1	700
13935995	7955	712	0	-100	0	230	101300000	1000	0	0	-1	700
13948555	7942	713	0	-100	0	230	101300000	1000	0	0	-1	700
13961115	7943	709	0	-100	0	230	101300000	1000	0	0	-1	700
13973675	7952	710	0	-100	0	230	101300000	1000	0	0	-1	700
13986235	7955	706	0	-100	0	230	101300000	1000	0	0	-1	700
13998795	7945	712	0	-100	0	230	101300000	1000	0	0	-1	700
14011355	7952	708	0	-100	0	230	101300000	1000	0	0	-1	700
14023915	7919	712	0	-100	0	230	101300000	1000	0	0	-1	700
14036475	7940	707	0	-100	0	230	101300000	1000	0	0	-1	700
14049035	7947	712	0	-100	0	230	101300000	1000	0	0	-1	700
14061595	7939	712	0	-100	0	230	101300000	1000	0	0	-1	700
14074155	7957	706	0	-100	0	230	101300000	1000	0	0	-1	700
14086715	7955	712	0	-100	0	230	101300000	1000	0	0	-1	700
14099275	7921	710	0	-100	0	230	101300000	1000	0	0	-1	700
14111835	7941	710	0	-100	0	230	101300000	1000	0	0	-1	700
14124395	7957	717	0	-100	0	230	101300000	1000	0	0	-1	700
14136955	7952	712	0	-100	0	230	101300000	1000	0	0	-1	700
14149515	7926	710	0	-100	0	230	101300000	1000	0	0	-1	700
14162075	7950	710	0	-100	0	230	101300000	1000	0	0	-1	700
14174635	7927	711	0	-100	0	230	101300000	1000	0	0	-1	700
14187195	7942	706	0	-100	0	230	101300000	1000	0	0	-1	700
14199755	7943	710	0	-100	0	230	101300000	1000	0	0	-1	700
14212315	7947	708	0	-100	0	230	101300000	1000	0	0	-1	700
14224875	7954	707	0	-100	0	230	101300000	1000	0	0	-1	700
14237435	7944	712	0	-100	0	230	101300000	1000	0	0	-1	700
14249995	7940	709	0	-100	0	230	101300000	1000	0	0	-1	700
14262555	7942	704	0	-100	0	230	101300000	1000	0	0	-1	700
14275115	7945	709	0	-100	0	230	101300000	1000	0	0	-1	700
14287675	7938	713	0	-100	0	230	101300000	1000	0	0	-1	700
14300235	7948	706	0	-100	0	230	101300000	1000	0	0	-1	700
14312795	7940	712	0	-100	0	230	101300000	1000	0	0	-1	700
14325355	7942	708	0	-100	0	230	101300000	1000	0	0	-1	700
14337915	7945	706	0	-100	0	230	101300000	1000	0	0	-1	700
14350475	7925	710	0	-100	0	230	101300000	1000	0	0	-1	700
14363035	7948	709	0	-100	0	230	101300000	1000	0	0	-1	700
14375595	7937	713	0	-100	0	230	101300000	1000	0	0	-1	700
14388155	7962	709	0	-100	0	230	101300000	1000	0	0	-1	700
14400715	7935	709	0	-100	0	230	101300000	1000	0	0	-1	700
14413275	7945	709	0	-100	0	230	101300000	1000	0	0	-1	700
14425835	7957	714	0	-100	0	230	101300000	1000	0	0	-1	700
14438395	7945	711	0	-100	0	230	101300000	1000	0	0	-1	700
14450955	7947	712	0	-100	0	230	101300000	1000	0	0	-1	700
14463515	7940	712	0	-100	0	230	101300000	1000	0	0	-1	700
14476075	7940	711	0	-100	0	230	101300000	1000	0	0	-1	700
14488635	7932	712	0	-100	0	230	101300000	1000	0	0	-1	700
14501195	7955	707	0	-100	0	230	101300000	1000	0	0	-1	700
14513755	7940	705	0	-100	0	230	101300000	1000	0	0	-1	700
14526315	7956	709	0	-100	0	230	101300000	1000	0	0	-1	700
14538875	7935	716	0	-100	0	230	101300000	1000	0	0	-1	700
14551435	7935	712	0	-100	0	230	101300000	1000	0	0	-1	700
14563995	7943	710	0	-100	0	230	101300000	1000	0	0	-1	700
14576555	7957	713	0	-100	0	230	101300000	1000	0	0	-1	700
14589115	7933	711	0	-100	0	230	101300000	1000	0	0	-1	700
14601675	7945	710	0	-100	0	230	101300000	1000	0	0	-1	700
14614235	7957	708	0	-100	0	230	101300000	1000	0	0	-1	700
14626795	7948	716	0	-100	0	230	101300000	1000	0	0	-1	700
14639355	7959	711	0	-100	0	230	101300000	1000	0	0	-1	700
14651915	7956	713	0	-100	0	230	101300000	1000	0	0	-1	700
14664475	7940	709	0	-100	0	230	101300000	1000	0	0	-1	700
14677035	7945	710	0	-100	0	230	101300000	1000	0	0	-1	700
14689595	7952	713	0	-100	0	230	101300000	1000	0	0	-1	700
14702155	7957	713	0	-100	0	230	101300000	1000	0	0	-1	700
14714715	7938	709	0	-100	0	230	101300000	1000	0	0	-1	700
14727275	7957	710	0	-100	0	230	101300000	1000	0	0	-1	700
14739835	7928	705	0	-100	0	230	101300000	1000	0	0	-1	700
14752395	7945	710	0	-100	0	230	101300000	1000	0	0	-1	700
14764955	7931	712	0	-100	0	230	101300000	1000	0	0	-1	700
14777515	7921	709	0	-100	0	230	101300000	1000	0	0	-1	700
14790075	7954	718	0	-100	0	230	101300000	1000	0	0	-1	700
14802635	7942	713	0	-100	0	230	101300000	1000	0	0	-1	700
14815195	7933	711	0	-100	0	230	101300000	1000	0	0	-1	700
14827755	7940	718	0	-100	0	230	101300000	1000	0	0	-1	700
14840315	7954	708	0	-100	0	230	101300000	1000	0	0	-1	700
14852875	7952	709	0	-100	0	230	101300000	1000	0	0	-1	700
14865435	7898	710	0	-100	0	230	101300000	1000	0	0	-1	700
14877995	7942	709	0	-100	0	230	101300000	1000	0	0	-1	700
14890555	7940	710	0	-100	0	230	101300000	1000	0	0	-1	700
14903115	7947	705	0	-100	0	230	101300000	1000	0	0	-1	700
14915675	7937	708	0	-100	0	230	101300000	1000	0	0	-1	700
14928235	7945	709	0	-100	0	230	101300000	1000	0	0	-1	700
14940795	7947	711	0	-100	0	230	101300000	1000	0	0	-1	700
14953355	7923	710	0	-100	0	230	101300000	1000	0	0	-1	700
14965915	7918	709	0	-100	0	230	101300000	1000	0	0	-1	700
14978475	7941	707	0	-100	0	230	101300000	1000	0	0	-1	700
14991035	7940	711	0	-100	0	230	101300000	1000	0	0	-1	700
15003595	7911	709	0	-100	0	230	101300000	1000	0	0	-1	700
15016155	7940	710	0	-100	0	230	101300000	1000	0	0	-1	700
15028715	7932	713	0	-100	0	230	101300000	1000	0	0	-1	700
15041275	7954	712	0	-100	0	230	101300000	1000	0	0	-1	700
15053835	7943	706	0	-100	0	230	101300000	1000	0	0	-1	700
15066395	7942	706	0	-100	0	230	101300000	1000	0	0	-1	700
15078955	7947	710	0	-100	0	230	101300000	1000	0	0	-1	700
15091515	7950	713	0	-100	0	230	101300000	1000	0	0	-1	700
15104075	7942	712	0	-100	0	230	101300000	1000	0	0	-1	700
15116635	7924	705	0	-100	0	230	101300000	1000	0	0	-1	700
15129195	7935	710	0	-100	0	230	101300000	1000	0	0	-1	700
15141755	7940	710	0	-100	0	230	101300000	1000	0	0	-1	700
15154315	7930	711	0	-100	0	230	101300000	1000	0	0	-1	700
15166875	7941	710	0	-100	0	230	101300000	1000	0	0	-1	700
15179435	7947	707	0	-100	0	230	101300000	1000	0	0	-1	700
15191995	7940	711	0	-100	0	230	101300000	1000	0	0	-1	700
15204555	7954	708	0	-100	0	230	101300000	1000	0	0	-1	700
15217115	7938	712	0	-100	0	230	101300000	1000	0	0	-1	700
15229675	7936	713	0	-100	0	230	101300000	1000	0	0	-1	700
15242235	7940	712	0	-100	0	230	101300000	1000	0	0	-1	700
15254795	7945	713	0	-100	0	230	101300000	1000	0	0	-1	700
15267355	7928	713	0	-100	0	230	101300000	1000	0	0	-1	700
15279915	7949	711	0	-100	0	230	101300000	1000	0	0	-1	700
15292475	7945	712	0	-100	0	230	101300000	1000	0	0	-1	700
15305035	7945	709	0	-100	0	230	101300000	1000	0	0	-1	700
15342715	7947	712	0	-100	0	230	101300000	1000	0	0	-1	700
15355275	7947	707	0	-100	0	230	101300000	1000	0	0	-1	700
15367835	7945	711	0	-100	0	230	101300000	1000	0	0	-1	700
15380395	7947	714	0	-100	0	230	101300000	1000	0	0	-1	700
15392955	7945	713	0	-100	0	230	101300000	1000	0	0	-1	700
15405515	7947	715	0	-100	0	230	101300000	1000	0	0	-1	700
15418075	7940	716	0	-100	0	230	101300000	1000	0	0	-1	700
15430635	7945	706	0	-100	0	230	101300000	1000	0	0	-1	700
15443195	7955	708	0	-100	0	230	101300000	1000	0	0	-1	700
15455755	7935	708	0	-100	0	230	101300000	1000	0	0	-1	700
15468315	7945	708	0	-100	0	230	101300000	1000	0	0	-1	700
15480875	7948	709	0	-100	0	230	101300000	1000	0	0	-1	700
15543675	7954	708	0	-100	0	230	101300000	1000	0	0	-1	700
15556235	7952	706	0	-100	0	230	101300000	1000	0	0	-1	700
15568795	7947	705	0	-100	0	230	101300000	1000	0	0	-1	700
15581355	7952	712	0	-100	0	230	101300000	1000	0	0	-1	700
15593915	7935	714	0	-100	0	230	101300000	1000	0	0	-1	700
15606475	7942	714	0	-100	0	230	101300000	1000	0	0	-1	700
15619035	7949	711	0	-100	0	230	101300000	1000	0	0	-1	700
15631595	7942	708	0	-100	0	230	101300000	1000	0	0	-1	700
15644155	7966	710	0	-100	0	230	101300000	1000	0	0	-1	700
15656715	7947	713	0	-100	0	230	101300000	1000	0	0	-1	700
15669275	7952	709	0	-100	0	230	101300000	1000	0	0	-1	700
15681835	7943	707	0	-100	0	230	101300000	1000	0	0	-1	700
15694395	7945	708	0	-100	0	230	101300000	1000	0	0	-1	700
15706955	7924	709	0	-100	0	230	101300000	1000	0	0	-1	700
15719515	7956	715	0	-100	0	230	101300000	1000	0	0	-1	700
15732075	7935	712	0	-100	0	230	101300000	1000	0	0	-1	700
15744635	7949	710	0	-100	0	230	101300000	1000	0	0	-1	700
15757195	7943	705	0	-100	0	230	101300000	1000	0	0	-1	700
15769755	7940	708	0	-100	0	230	101300000	1000	0	0	-1	700
15782315	7911	713	0	-100	0	230	101300000	1000	0	0	-1	700
15794875	7938	705	0	-100	0	230	101300000	1000	0	0	-1	700
15807435	7952	710	0	-100	0	230	101300000	1000	0	0	-1	700
15819995	7948	704	0	-100	0	230	101300000	1000	0	0	-1	700
15832555	7943	706	0	-100	0	230	101300000	1000	0	0	-1	700
15845115	7935	707	0	-100	0	230	101300000	1000	0	0	-1	700
15857675	7938	711	0	-100	0	230	101300000	1000	0	0	-1	700
15870235	7936	708	0	-100	0	230	101300000	1000	0	0	-1	700
15882795	7950	707	0	-100	0	230	101300000	1000	0	0	-1	700
15895355	7931	705	0	-100	0	230	101300000	1000	0	0	-1	700
15907915	7935	712	0	-100	0	230	101300000	1000	0	0	-1	700
15920475	7952	712	0	-100	0	230	101300000	1000	0	0	-1	700
15933035	7940	708	0	-100	0	230	101300000	1000	0	0	-1	700
15945595	7948	686	0	-100	0	230	101300000	1000	0	0	-1	700
15958155	7956	703	0	-100	0	230	101300000	1000	0	0	-1	700
15970715	7947	709	0	-100	0	230	101300000	1000	0	0	-1	700
15983275	7950	709	0	-100	0	230	101300000	1000	0	0	-1	700
15995835	7921	714	0	-100	0	230	101300000	1000	0	0	-1	700
16008395	7957	709	0	-100	0	230	101300000	1000	0	0	-1	700
16020955	7955	713	0	-100	0	230	101300000	1000	0	0	-1	700
16033515	7940	711	0	-100	0	230	101300000	1000	0	0	-1	700
16046075	7943	710	0	-100	0	230	101300000	1000	0	0	-1	700
16058635	7949	717	0	-100	0	230	101300000	1000	0	0	-1	700
16071195	7947	710	0	-100	0	230	101300000	1000	0	0	-1	700
16083755	7945	709	0	-100	0	230	101300000	1000	0	0	-1	700
16096315	7933	709	0	-100	0	230	101300000	1000	0	0	-1	700
16108875	7938	711	0	-100	0	230	101300000	1000	0	0	-1	700
16121435	7931	711	0	-100	0	230	101300000	1000	0	0	-1	700
16133995	7955	713	0	-100	0	230	101300000	1000	0	0	-1	700
16146555	7947	712	0	-100	0	230	101300000	1000	0	0	-1	700
16159115	7940	712	0	-100	0	230	101300000	1000	0	0	-1	700
16171675	7945	711	0	-100	0	230	101300000	1000	0	0	-1	700
16184235	7943	712	0	-100	0	230	101300000	1000	0	0	-1	700
16196795	7945	711	0	-100	0	230	101300000	1000	0	0	-1	700
16209355	7957	708	0	-100	0	230	101300000	1000	0	0	-1	700
16221915	7957	707	0	-100	0	230	101300000	1000	0	0	-1	700
16234475	7950	706	0	-100	0	230	101300000	1000	0	0	-1	700
16247035	7930	711	0	-100	0	230	101300000	1000	0	0	-1	700
16259595	7933	707	0	-100	0	230	101300000	1000	0	0	-1	700
16272155	7952	709	0	-100	0	230	101300000	1000	0	0	-1	700
16284715	7935	710	0	-100	0	230	101300000	1000	0	0	-1	700
16297275	7948	711	0	-100	0	230	101300000	1000	0	0	-1	700
16309835	7957	707	0	-100	0	230	101300000	1000	0	0	-1	700
16322395	7945	710	0	-100	0	230	101300000	1000	0	0	-1	700
16334955	7937	711	0	-100	0	230	101300000	1000	0	0	-1	700
16347515	7949	713	0	-100	0	230	101300000	1000	0	0	-1	700
16360075	7940	710	0	-100	0	230	101300000	1000	0	0	-1	700
16372635	7955	707	0	-100	0	230	101300000	1000	0	0	-1	700
16385195	7944	715	0	-100	0	230	101300000	1000	0	0	-1	700
16397755	7932	712	0	-100	0	230	101300000	1000	0	0	-1	700
16410315	7952	710	0	-100	0	230	101300000	1000	0	0	-1	700
16422875	7940	714	0	-100	0	230	101300000	1000	0	0	-1	700
16435435	7923	710	0	-100	0	230	101300000	1000	0	0	-1	700
16447995	7940	707	0	-100	0	230	101300000	1000	0	0	-1	700
16460555	7938	714	0	-100	0	230	101300000	1000	0	0	-1	700
16473115	7947	712	0	-100	0	230	101300000	1000	0	0	-1	700
16485675	7947	715	0	-100	0	230	101300000	1000	0	0	-1	700
16498235	7959	713	0	-100	0	230	101300000	1000	0	0	-1	700
16510795	7935	712	0	-100	0	230	101300000	1000	0	0	-1	700
16523355	7944	708	0	-100	0	230	101300000	1000	0	0	-1	700
16535915	7955	710	0	-100	0	230	101300000	1000	0	0	-1	700
16548475	7950	708	0	-100	0	230	101300000	1000	0	0	-1	700
16561035	7949	708	0	-100	0	230	101300000	1000	0	0	-1	700
16573595	7947	713	0	-100	0	230	101300000	1000	0	0	-1	700
16586155	7959	717	0	-100	0	230	101300000	1000	0	0	-1	700
16598715	7924	713	0	-100	0	230	101300000	1000	0	0	-1	700
16611275	7954	711	0	-100	0	230	101300000	1000	0	0	-1	700
16623835	7940	710	0	-100	0	230	101300000	1000	0	0	-1	700
16636395	7957	712	0	-100	0	230	101300000	1000	0	0	-1	700
16648955	7948	706	0	-100	0	230	101300000	1000	0	0	-1	700
16661515	7940	710	0	-100	0	230	101300000	1000	0	0	-1	700
16674075	7940	713	0	-100	0	230	101300000	1000	0	0	-1	700
16686635	7945	711	0	-100	0	230	101300000	1000	0	0	-1	700
16699195	7953	713	0	-100	0	230	101300000	1000	0	0	-1	700
16711755	7952	716	0	-100	0	230	101300000	1000	0	0	-1	700
16724315	7949	712	0	-100	0	230	101300000	1000	0	0	-1	700
16736875	7947	706	0	-100	0	230	101300000	1000	0	0	-1	700
16749435	7950	710	0	-100	0	230	101300000	1000	0	0	-1	700
16761995	7955	709	0	-100	0	230	101300000	1000	0	0	-1	700
16774555	7952	708	0	-100	0	230	101300000	1000	0	0	-1	700
16787115	7938	712	0	-100	0	230	101300000	1000	0	0	-1	700
16799675	7962	711	0	-100	0	230	101300000	1000	0	0	-1	700
16812235	7954	707	0	-100	0	230	101300000	1000	0	0	-1	700
16824795	7942	709	0	-100	0	230	101300000	1000	0	0	-1	700
16837355	7940	716	0	-100	0	230	101300000	1000	0	0	-1	700
16849915	7950	714	0	-100	0	230	101300000	1000	0	0	-1	700
16862475	7945	711	0	-100	0	230	101300000	1000	0	0	-1	700
16875035	7959	710	0	-100	0	230	101300000	1000	0	0	-1	700
16887595	7952	714	0	-100	0	230	101300000	1000	0	0	-1	700
16900155	7952	714	0	-100	0	230	101300000	1000	0	0	-1	700
16912715	7945	706	0	-100	0	230	101300000	1000	0	0	-1	700
16925275	7947	714	0	-100	0	230	101300000	1000	0	0	-1	700
16937835	7940	715	0	-100	0	230	101300000	1000	0	0	-1	700
16950395	7947	696	0	-100	0	230	101300000	1000	0	0	-1	700
16962955	7952	717	0	-100	0	230	101300000	1000	0	0	-1	700
16975515	7942	712	0	-100	0	230	101300000	1000	0	0	-1	700
16988075	7952	712	0	-100	0	230	101300000	1000	0	0	-1	700
17000635	7947	712	0	-100	0	230	101300000	1000	0	0	-1	700
17013195	7959	713	0	-100	0	230	101300000	1000	0	0	-1	700
17025755	7959	713	0	-100	0	230	101300000	1000	0	0	-1	700
17038315	7948	709	0	-100	0	230	101300000	1000	0	0	-1	700
17050875	7942	711	0	-100	0	230	101300000	1000	0	0	-1	700
17063435	7942	715	0	-100	0	230	101300000	1000	0	0	-1	700
17075995	7955	710	0	-100	0	230	101300000	1000	0	0	-1	700
17088555	7954	709	0	-100	0	230	101300000	1000	0	0	-1	700
17101115	7950	709	0	-100	0	230	101300000	1000	0	0	-1	700
17113675	7957	706	0	-100	0	230	101300000	1000	0	0	-1	700
17126235	7945	711	0	-100	0	230	101300000	1000	0	0	-1	700
17138795	7940	711	0	-100	0	230	101300000	1000	0	0	-1	700
17151355	7945	709	0	-100	0	230	101300000	1000	0	0	-1	700
17163915	7940	712	0	-100	0	230	101300000	1000	0	0	-1	700
17176475	7938	712	0	-100	0	230	101300000	1000	0	0	-1	700
17189035	7954	713	0	-100	0	230	101300000	1000	0	0	-1	700
17201595	7947	712	0	-100	0	230	101300000	1000	0	0	-1	700
17214155	7947	713	0	-100	0	230	101300000	1000	0	0	-1	700
17226715	7957	706	0	-100	0	230	101300000	1000	0	0	-1	700
17239275	7957	705	0	-100	0	230	101300000	1000	0	0	-1	700
17251835	7952	708	0	-100	0	230	101300000	1000	0	0	-1	700
17264395	7947	713	0	-100	0	230	101300000	1000	0	0	-1	700
17276955	7950	711	0	-100	0	230	101300000	1000	0	0	-1	700
17289515	7964	712	0	-100	0	230	101300000	1000	0	0	-1	700
17302075	7940	711	0	-100	0	230	101300000	1000	0	0	-1	700
17314635	7940	718	0	-100	0	230	101300000	1000	0	0	-1	700
17327195	7925	718	0	-100	0	230	101300000	1000	0	0	-1	700
17339755	7928	710	0	-100	0	230	101300000	1000	0	0	-1	700
17352315	7953	705	0	-100	0	230	101300000	1000	0	0	-1	700
17364875	7954	713	0	-100	0	230	101300000	1000	0	0	-1	700
17377435	7945	710	0	-100	0	230	101300000	1000	0	0	-1	700
17389995	7928	708	0	-100	0	230	101300000	1000	0	0	-1	700
17402555	7933	690	0	-100	0	230	101300000	1000	0	0	-1	700
17415115	7942	713	0	-100	0	230	101300000	1000	0	0	-1	700
17427675	7954	714	0	-100	0	230	101300000	1000	0	0	-1	700
17440235	7950	710	0	-100	0	230	101300000	1000	0	0	-1	700
17452795	7955	709	0	-100	0	230	101300000	1000	0	0	-1	700
17465355	7955	708	0	-100	0	230	101300000	1000	0	0	-1	700
17477915	7952	709	0	-100	0	230	101300000	1000	0	0	-1	700
17490475	7947	712	0	-100	0	230	101300000	1000	0	0	-1	700
17503035	7945	707	0	-100	0	230	101300000	1000	0	0	-1	700
17515595	7956	715	0	-100	0	230	101300000	1000	0	0	-1	700
17528155	7945	711	0	-100	0	230	101300000	1000	0	0	-1	700
17540715	7955	713	0	-100	0	230	101300000	1000	0	0	-1	700
17553275	7964	711	0	-100	0	230	101300000	1000	0	0	-1	700
17565835	7948	708	0	-100	0	230	101300000	1000	0	0	-1	700
17578395	7954	713	0	-100	0	230	101300000	1000	0	0	-1	700
17590955	7948	701	0	-100	0	230	101300000	1000	0	0	-1	700
17603515	7920	710	0	-100	0	230	101300000	1000	0	0	-1	700
17616075	7957	713	0	-100	0	230	101300000	1000	0	0	-1	700
17628635	7942	713	0	-100	0	230	101300000	1000	0	0	-1	700
17641195	7926	710	0	-100	0	230	101300000	1000	0	0	-1	700
17653755	7924	712	0	-100	0	230	101300000	1000	0	0	-1	700
17666315	7942	712	0	-100	0	230	101300000	1000	0	0	-1	700
17678875	7962	710	0	-100	0	230	101300000	1000	0	0	-1	700
17691435	7952	711	0	-100	0	230	101300000	1000	0	0	-1	700
17703995	7950	708	0	-100	0	230	101300000	1000	0	0	-1	700
17716555	7938	712	0	-100	0	230	101300000	1000	0	0	-1	700
17729115	7945	711	0	-100	0	230	101300000	1000	0	0	-1	700
17741675	7938	708	0	-100	0	230	101300000	1000	0	0	-1	700
17754235	7935	708	0	-100	0	230	101300000	1000	0	0	-1	700
17766795	7947	709	0	-100	0	230	101300000	1000	0	0	-1	700
17779355	7938	713	0	-100	0	230	101300000	1000	0	0	-1	700
17791915	7914	714	0	-100	0	230	101300000	1000	0	0	-1	700
17804475	7940	713	0	-100	0	230	101300000	1000	0	0	-1	700
17817035	7926	715	0	-100	0	230	101300000	1000	0	0	-1	700
17829595	7952	710	0	-100	0	230	101300000	1000	0	0	-1	700
17842155	7966	714	0	-100	0	230	101300000	1000	0	0	-1	700
17854715	7950	714	0	-100	0	230	101300000	1000	0	0	-1	700
17867275	7947	712	0	-100	0	230	101300000	1000	0	0	-1	700
17879835	7944	714	0	-100	0	230	101300000	1000	0	0	-1	700
17892395	7945	713	0	-100	0	230	101300000	1000	0	0	-1	700
17904955	7940	711	0	-100	0	230	101300000	1000	0	0	-1	700
17917515	7950	713	0	-100	0	230	101300000	1000	0	0	-1	700
17930075	7945	710	0	-100	0	230	101300000	1000	0	0	-1	700
17942635	7945	714	0	-100	0	230	101300000	1000	0	0	-1	700
17955195	7940	711	0	-100	0	230	101300000	1000	0	0	-1	700
17967755	7935	708	0	-100	0	230	101300000	1000	0	0	-1	700
17980315	7957	711	0	-100	0	230	101300000	1000	0	0	-1	700
17992875	7950	706	0	-100	0	230	101300000	1000	0	0	-1	700
18005435	7954	712	0	-100	0	230	101300000	1000	0	0	-1	700
18017995	7942	710	0	-100	0	230	101300000	1000	0	0	-1	700
18030555	7941	716	0	-100	0	230	101300000	1000	0	0	-1	700
18043115	7940	710	0	-100	0	230	101300000	1000	0	0	-1	700
18055675	7920	713	0	-100	0	230	101300000	1000	0	0	-1	700
18068235	7954	713	0	-100	0	230	101300000	1000	0	0	-1	700
18080795	7933	711	0	-100	0	230	101300000	1000	0	0	-1	700
18093355	7943	712	0	-100	0	230	101300000	1000	0	0	-1	700
18105915	7938	712	0	-100	0	230	101300000	1000	0	0	-1	700
18118475	7940	712	0	-100	0	230	101300000	1000	0	0	-1	700
18131035	7934	711	0	-100	0	230	101300000	1000	0	0	-1	700
18143595	7955	710	0	-100	0	230	101300000	1000	0	0	-1	700
18156155	7966	709	0	-100	0	230	101300000	1000	0	0	-1	700
18168715	7942	715	0	-100	0	230	101300000	1000	0	0	-1	700
18181275	7943	712	0	-100	0	230	101300000	1000	0	0	-1	700
18193835	7962	705	0	-100	0	230	101300000	1000	0	0	-1	700
18206395	7954	713	0	-100	0	230	101300000	1000	0	0	-1	700
18218955	7952	708	0	-100	0	230	101300000	1000	0	0	-1	700
18244075	7957	710	0	-100	0	230	101300000	1000	0	0	-1	700
18256635	7952	714	0	-100	0	230	101300000	1000	0	0	-1	700
18269195	7954	711	0	-100	0	230	101300000	1000	0	0	-1	700
18281755	7952	712	0	-100	0	230	101300000	1000	0	0	-1	700
18294315	7943	711	0	-100	0	230	101300000	1000	0	0	-1	700
18306875	7955	701	0	-100	0	230	101300000	1000	0	0	-1	700
18319435	7954	710	0	-100	0	230	101300000	1000	0	0	-1	700
18331995	7947	710	0	-100	0	230	101300000	1000	0	0	-1	700
18344555	7940	709	0	-100	0	230	101300000	1000	0	0	-1	700
18357115	7948	711	0	-100	0	230	101300000	1000	0	0	-1	700
18369675	7945	708	0	-100	0	230	101300000	1000	0	0	-1	700
18382235	7930	712	0	-100	0	230	101300000	1000	0	0	-1	700
18457595	7948	713	0	-100	0	230	101300000	1000	0	0	-1	700
18470155	7950	711	0	-100	0	230	101300000	1000	0	0	-1	700
18482715	7942	715	0	-100	0	230	101300000	1000	0	0	-1	700
18495275	7949	713	0	-100	0	230	101300000	1000	0	0	-1	700
18507835	7933	716	0	-100	0	230	101300000	1000	0	0	-1	700
18520395	7948	710	0	-100	0	230	101300000	1000	0	0	-1	700
18532955	7928	709	0	-100	0	230	101300000	1000	0	0	-1	700
18545515	7963	713	0	-100	0	230	101300000	1000	0	0	-1	700
18558075	7941	715	0	-100	0	230	101300000	1000	0	0	-1	700
18570635	7956	711	0	-100	0	230	101300000	1000	0	0	-1	700
18583195	7959	707	0	-100	0	230	101300000	1000	0	0	-1	700
18620875	7949	714	0	-100	0	230	101300000	1000	0	0	-1	700
18633435	7949	717	0	-100	0	230	101300000	1000	0	0	-1	700
18645995	7938	710	0	-100	0	230	101300000	1000	0	0	-1	700
18658555	7928	716	0	-100	0	230	101300000	1000	0	0	-1	700
18671115	7959	703	0	-100	0	230	101300000	1000	0	0	-1	700
18683675	7942	712	0	-100	0	230	101300000	1000	0	0	-1	700
18696235	7947	716	0	-100	0	230	101300000	1000	0	0	-1	700
18708795	7935	715	0	-100	0	230	101300000	1000	0	0	-1	700
18721355	7954	708	0	-100	0	230	101300000	1000	0	0	-1	700
18733915	7956	714	0	-100	0	230	101300000	1000	0	0	-1	700
18746475	7922	715	0	-100	0	230	101300000	1000	0	0	-1	700
18759035	7940	714	0	-100	0	230	101300000	1000	0	0	-1	700
18771595	7957	712	0	-100	0	230	101300000	1000	0	0	-1	700
18784155	7954	713	0	-100	0	230	101300000	1000	0	0	-1	700
18796715	7945	708	0	-100	0	230	101300000	1000	0	0	-1	700
18809275	7957	711	0	-100	0	230	101300000	1000	0	0	-1	700
18821835	7942	710	0	-100	0	230	101300000	1000	0	0	-1	700
18834395	7932	711	0	-100	0	230	101300000	1000	0	0	-1	700
18846955	7954	711	0	-100	0	230	101300000	1000	0	0	-1	700
18859515	7936	712	0	-100	0	230	101300000	1000	0	0	-1	700
18872075	7938	707	0	-100	0	230	101300000	1000	0	0	-1	700
18884635	7952	713	0	-100	0	230	101300000	1000	0	0	-1	700
18897195	7956	710	0	-100	0	230	101300000	1000	0	0	-1	700
18909755	7950	713	0	-100	0	230	101300000	1000	0	0	-1	700
18922315	7952	715	0	-100	0	230	101300000	1000	0	0	-1	700
18934875	7933	707	0	-100	0	230	101300000	1000	0	0	-1	700
18947435	7964	712	0	-100	0	230	101300000	1000	0	0	-1	700
18959995	7948	709	0	-100	0	230	101300000	1000	0	0	-1	700
18972555	7954	716	0	-100	0	230	101300000	1000	0	0	-1	700
18985115	7948	711	0	-100	0	230	101300000	1000	0	0	-1	700
18997675	7950	707	0	-100	0	230	101300000	1000	0	0	-1	700
19010235	7952	712	0	-100	0	230	101300000	1000	0	0	-1	700
19022795	7940	712	0	-100	0	230	101300000	1000	0	0	-1	700
19035355	7930	712	0	-100	0	230	101300000	1000	0	0	-1	700
19047915	7960	711	0	-100	0	230	101300000	1000	0	0	-1	700
19060475	7950	712	0	-100	0	230	101300000	1000	0	0	-1	700
19073035	7933	716	0	-100	0	230	101300000	1000	0	0	-1	700
19085595	7947	712	0	-100	0	230	101300000	1000	0	0	-1	700
19098155	7961	711	0	-100	0	230	101300000	1000	0	0	-1	700
19110715	7938	706	0	-100	0	230	101300000	1000	0	0	-1	700
19123275	7948	706	0	-100	0	230	101300000	1000	0	0	-1	700
19135835	7939	709	0	-100	0	230	101300000	1000	0	0	-1	700
19148395	7955	708	0	-100	0	230	101300000	1000	0	0	-1	700
19160955	7957	706	0	-100	0	230	101300000	1000	0	0	-1	700
19173515	7950	712	0	-100	0	230	101300000	1000	0	0	-1	700
19186075	7948	714	0	-100	0	230	101300000	1000	0	0	-1	700
19198635	7964	706	0	-100	0	230	101300000	1000	0	0	-1	700
19211195	7940	718	0	-100	0	230	101300000	1000	0	0	-1	700
19223755	7940	710	0	-100	0	230	101300000	1000	0	0	-1	700
19236315	7948	710	0	-100	0	230	101300000	1000	0	0	-1	700
19248875	7942	710	0	-100	0	230	101300000	1000	0	0	-1	700
19261435	7933	711	0	-100	0	230	101300000	1000	0	0	-1	700
19273995	7946	713	0	-100	0	230	101300000	1000	0	0	-1	700
19286555	7947	709	0	-100	0	230	101300000	1000	0	0	-1	700
19299115	7959	713	0	-100	0	230	101300000	1000	0	0	-1	700
19311675	7940	712	0	-100	0	230	101300000	1000	0	0	-1	700
19324235	7952	713	0	-100	0	230	101300000	1000	0	0	-1	700
19336795	7955	712	0	-100	0	230	101300000	1000	0	0	-1	700
19349355	7933	714	0	-100	0	230	101300000	1000	0	0	-1	700
19361915	7943	711	0	-100	0	230	101300000	1000	0	0	-1	700
19374475	7954	714	0	-100	0	230	101300000	1000	0	0	-1	700
19387035	7947	716	0	-100	0	230	101300000	1000	0	0	-1	700
19399595	7938	719	0	-100	0	230	101300000	1000	0	0	-1	700
19412155	7964	712	0	-100	0	230	101300000	1000	0	0	-1	700
19424715	7949	717	0	-100	0	230	101300000	1000	0	0	-1	700
19437275	7945	708	0	-100	0	230	101300000	1000	0	0	-1	700
19449835	7940	712	0	-100	0	230	101300000	1000	0	0	-1	700
19462395	7940	714	0	-100	0	230	101300000	1000	0	0	-1	700
19474955	7945	713	0	-100	0	230	101300000	1000	0	0	-1	700
19487515	7938	712	0	-100	0	230	101300000	1000	0	0	-1	700
19500075	7942	713	0	-100	0	230	101300000	1000	0	0	-1	700
19512635	7957	707	0	-100	0	230	101300000	1000	0	0	-1	700
19525195	7953	703	0	-100	0	230	101300000	1000	0	0	-1	700
19537755	7947	713	0	-100	0	230	101300000	1000	0	0	-1	700
19550315	7938	711	0	-100	0	230	101300000	1000	0	0	-1	700
19562875	7950	709	0	-100	0	230	101300000	1000	0	0	-1	700
19575435	7943	711	0	-100	0	230	101300000	1000	0	0	-1	700
19587995	7942	708	0	-100	0	230	101300000	1000	0	0	-1	700
19600555	7952	709	0	-100	0	230	101300000	1000	0	0	-1	700
19613115	7952	713	0	-100	0	230	101300000	1000	0	0	-1	700
19625675	7952	709	0	-100	0	230	101300000	1000	0	0	-1	700
19638235	7933	711	0	-100	0	230	101300000	1000	0	0	-1	700
19650795	7935	709	0	-100	0	230	101300000	1000	0	0	-1	700
19663355	7947	714	0	-100	0	230	101300000	1000	0	0	-1	700
19675915	7938	711	0	-100	0	230	101300000	1000	0	0	-1	700
19688475	7943	708	0	-100	0	230	101300000	1000	0	0	-1	700
19701035	7955	710	0	-100	0	230	101300000	1000	0	0	-1	700
19713595	7940	708	0	-100	0	230	101300000	1000	0	0	-1	700
19726155	7961	710	0	-100	0	230	101300000	1000	0	0	-1	700
19738715	7938	714	0	-100	0	230	101300000	1000	0	0	-1	700
19751275	7945	708	0	-100	0	230	101300000	1000	0	0	-1	700
19763835	7959	692	0	-100	0	230	101300000	1000	0	0	-1	700
19776395	7949	714	0	-100	0	230	101300000	1000	0	0	-1	700
19788955	7945	716	0	-100	0	230	101300000	1000	0	0	-1	700
19801515	7952	708	0	-100	0	230	101300000	1000	0	0	-1	700
19814075	7950	711	0	-100	0	230	101300000	1000	0	0	-1	700
19826635	7938	709	0	-100	0	230	101300000	1000	0	0	-1	700
19839195	7947	712	0	-100	0	230	101300000	1000	0	0	-1	700
19851755	7941	705	0	-100	0	230	101300000	1000	0	0	-1	700
19864315	7955	713	0	-100	0	230	101300000	1000	0	0	-1	700
19876875	7959	714	0	-100	0	230	101300000	1000	0	0	-1	700
19889435	7952	712	0	-100	0	230	101300000	1000	0	0	-1	700
19901995	7945	712	0	-100	0	230	101300000	1000	0	0	-1	700
19914555	7950	710	0	-100	0	230	101300000	1000	0	0	-1	700
19927115	7935	712	0	-100	0	230	101300000	1000	0	0	-1	700
19939675	7947	713	0	-100	0	230	101300000	1000	0	0	-1	700
19952235	7943	711	0	-100	0	230	101300000	1000	0	0	-1	700
19964795	7923	711	0	-100	0	230	101300000	1000	0	0	-1	700
19977355	7945	710	0	-100	0	230	101300000	1000	0	0	-1	700
19989915	7938	707	0	-100	0	230	101300000	1000	0	0	-1	700
20002475	7928	710	0	-100	0	230	101300000	1000	0	0	-1	700
20015035	7949	708	0	-100	0	230	101300000	1000	0	0	-1	700
20027595	7938	711	0	-100	0	230	101300000	1000	0	0	-1	700
20040155	7950	709	0	-100	0	230	101300000	1000	0	0	-1	700
20052715	7964	708	0	-100	0	230	101300000	1000	0	0	-1	700
20065275	7943	696	0	-100	0	230	101300000	1000	0	0	-1	700
20077835	7935	716	0	-100	0	230	101300000	1000	0	0	-1	700
20090395	7925	713	0	-100	0	230	101300000	1000	0	0	-1	700
20102955	7949	709	0	-100	0	230	101300000	1000	0	0	-1	700
20115515	7950	708	0	-100	0	230	101300000	1000	0	0	-1	700
20128075	7952	709	0	-100	0	230	101300000	1000	0	0	-1	700
20140635	7940	712	0	-100	0	230	101300000	1000	0	0	-1	700
20153195	7949	713	0	-100	0	230	101300000	1000	0	0	-1	700
20165755	7940	718	0	-100	0	230	101300000	1000	0	0	-1	700
20178315	7947	719	0	-100	0	230	101300000	1000	0	0	-1	700
20190875	7937	717	0	-100	0	230	101300000	1000	0	0	-1	700
20203435	7957	716	0	-100	0	230	101300000	1000	0	0	-1	700
20215995	7930	711	0	-100	0	230	101300000	1000	0	0	-1	700
20228555	7935	717	0	-100	0	230	101300000	1000	0	0	-1	700
20241115	7945	712	0	-100	0	230	101300000	1000	0	0	-1	700
20253675	7956	709	0	-100	0	230	101300000	1000	0	0	-1	700
20266235	7949	709	0	-100	0	230	101300000	1000	0	0	-1	700
20278795	7938	707	0	-100	0	230	101300000	1000	0	0	-1	700
20291355	7947	712	0	-100	0	230	101300000	1000	0	0	-1	700
20303915	7950	713	0	-100	0	230	101300000	1000	0	0	-1	700
20316475	7957	711	0	-100	0	230	101300000	1000	0	0	-1	700
20329035	7947	711	0	-100	0	230	101300000	1000	0	0	-1	700
20341595	7945	711	0	-100	0	230	101300000	1000	0	0	-1	700
20354155	7959	713	0	-100	0	230	101300000	1000	0	0	-1	700
20366715	7947	711	0	-100	0	230	101300000	1000	0	0	-1	700
20379275	7956	708	0	-100	0	230	101300000	1000	0	0	-1	700
20391835	7938	709	0	-100	0	230	101300000	1000	0	0	-1	700
20404395	7957	711	0	-100	0	230	101300000	1000	0	0	-1	700
20416955	7962	709	0	-100	0	230	101300000	1000	0	0	-1	700
20429515	7940	706	0	-100	0	230	101300000	1000	0	0	-1	700
20442075	7945	713	0	-100	0	230	101300000	1000	0	0	-1	700
20454635	7940	708	0	-100	0	230	101300000	1000	0	0	-1	700
20467195	7943	707	0	-100	0	230	101300000	1000	0	0	-1	700
20479755	7945	709	0	-100	0	230	101300000	1000	0	0	-1	700
20492315	7914	712	0	-100	0	230	101300000	1000	0	0	-1	700
20504875	7935	713	0	-100	0	230	101300000	1000	0	0	-1	700
20517435	7945	713	0	-100	0	230	101300000	1000	0	0	-1	700
20529995	7937	704	0	-100	0	230	101300000	1000	0	0	-1	700
20542555	7950	710	0	-100	0	230	101300000	1000	0	0	-1	700
20555115	7950	714	0	-100	0	230	101300000	1000	0	0	-1	700
20567675	7942	711	0	-100	0	230	101300000	1000	0	0	-1	700
20580235	7931	710	0	-100	0	230	101300000	1000	0	0	-1	700
20592795	7951	717	0	-100	0	230	101300000	1000	0	0	-1	700
20605355	7946	708	0	-100	0	230	101300000	1000	0	0	-1	700
20617915	7964	709	0	-100	0	230	101300000	1000	0	0	-1	700
20630475	7940	709	0	-100	0	230	101300000	1000	0	0	-1	700
20643035	7945	710	0	-100	0	230	101300000	1000	0	0	-1	700
20655595	7940	711	0	-100	0	230	101300000	1000	0	0	-1	700
20668155	7949	712	0	-100	0	230	101300000	1000	0	0	-1	700
20680715	7942	713	0	-100	0	230	101300000	1000	0	0	-1	700
20693275	7945	691	0	-100	0	230	101300000	1000	0	0	-1	700
20705835	7959	711	0	-100	0	230	101300000	1000	0	0	-1	700
20718395	7957	716	0	-100	0	230	101300000	1000	0	0	-1	700
20730955	7942	709	0	-100	0	230	101300000	1000	0	0	-1	700
20743515	7938	716	0	-100	0	230	101300000	1000	0	0	-1	700
20756075	7940	712	0	-100	0	230	101300000	1000	0	0	-1	700
20768635	7928	711	0	-100	0	230	101300000	1000	0	0	-1	700
20781195	7931	706	0	-100	0	230	101300000	1000	0	0	-1	700
20793755	7939	712	0	-100	0	230	101300000	1000	0	0	-1	700
20806315	7925	709	0	-100	0	230	101300000	1000	0	0	-1	700
20818875	7959	708	0	-100	0	230	101300000	1000	0	0	-1	700
20831435	7959	712	0	-100	0	230	101300000	1000	0	0	-1	700
20843995	7943	708	0	-100	0	230	101300000	1000	0	0	-1	700
20856555	7945	712	0	-100	0	230	101300000	1000	0	0	-1	700
20869115	7942	710	0	-100	0	230	101300000	1000	0	0	-1	700
20881675	7954	711	0	-100	0	230	101300000	1000	0	0	-1	700
20894235	7937	712	0	-100	0	230	101300000	1000	0	0	-1	700
20906795	7930	709	0	-100	0	230	101300000	1000	0	0	-1	700
20919355	7954	714	0	-100	0	230	101300000	1000	0	0	-1	700
20931915	7957	713	0	-100	0	230	101300000	1000	0	0	-1	700
20944475	7962	708	0	-100	0	230	101300000	1000	0	0	-1	700
20957035	7953	713	0	-100	0	230	101300000	1000	0	0	-1	700
20969595	7925	713	0	-100	0	230	101300000	1000	0	0	-1	700
20982155	7952	709	0	-100	0	230	101300000	1000	0	0	-1	700
20994715	7940	707	0	-100	0	230	101300000	1000	0	0	-1	700
21007275	7957	707	0	-100	0	230	101300000	1000	0	0	-1	700
21019835	7945	701	0	-100	0	230	101300000	1000	0	0	-1	700
21032395	7945	711	0	-100	0	230	101300000	1000	0	0	-1	700
21044955	7942	709	0	-100	0	230	101300000	1000	0	0	-1	700
21057515	7945	708	0	-100	0	230	101300000	1000	0	0	-1	700
21070075	7949	712	0	-100	0	230	101300000	1000	0	0	-1	700
21082635	7940	710	0	-100	0	230	101300000	1000	0	0	-1	700
21095195	7948	709	0	-100	0	230	101300000	1000	0	0	-1	700
21107755	7950	714	0	-100	0	230	101300000	1000	0	0	-1	700
21120315	7949	712	0	-100	0	230	101300000	1000	0	0	-1	700
21132875	7950	708	0	-100	0	230	101300000	1000	0	0	-1	700
21145435	7945	712	0	-100	0	230	101300000	1000	0	0	-1	700
21157995	7942	711	0	-100	0	230	101300000	1000	0	0	-1	700
21170555	7942	712	0	-100	0	230	101300000	1000	0	0	-1	700
21183115	7938	709	0	-100	0	230	101300000	1000	0	0	-1	700
21195675	7942	711	0	-100	0	230	101300000	1000	0	0	-1	700
21208235	7945	707	0	-100	0	230	101300000	1000	0	0	-1	700
21220795	7940	712	0	-100	0	230	101300000	1000	0	0	-1	700
21233355	7945	709	0	-100	0	230	101300000	1000	0	0	-1	700
21245915	7950	710	0	-100	0	230	101300000	1000	0	0	-1	700
21258475	7947	713	0	-100	0	230	101300000	1000	0	0	-1	700
21271035	7921	712	0	-100	0	230	101300000	1000	0	0	-1	700
21283595	7945	711	0	-100	0	230	101300000	1000	0	0	-1	700
21296155	7962	710	0	-100	0	230	101300000	1000	0	0	-1	700
21308715	7938	709	0	-100	0	230	101300000	1000	0	0	-1	700
21321275	7932	714	0	-100	0	230	101300000	1000	0	0	-1	700
21333835	7956	709	0	-100	0	230	101300000	1000	0	0	-1	700
21346395	7940	710	0	-100	0	230	101300000	1000	0	0	-1	700
21358955	7947	706	0	-100	0	230	101300000	1000	0	0	-1	700
21371515	7955	691	0	-100	0	230	101300000	1000	0	0	-1	700
21384075	7957	704	0	-100	0	230	101300000	1000	0	0	-1	700
21396635	7946	712	0	-100	0	230	101300000	1000	0	0	-1	700
21409195	7921	714	0	-100	0	230	101300000	1000	0	0	-1	700
21421755	7949	714	0	-100	0	230	101300000	1000	0	0	-1	700
21434315	7939	714	0	-100	0	230	101300000	1000	0	0	-1	700
21446875	7957	713	0	-100	0	230	101300000	1000	0	0	-1	700
21459435	7940	711	0	-100	0	230	101300000	1000	0	0	-1	700
21471995	7945	709	0	-100	0	230	101300000	1000	0	0	-1	700
21484555	7943	709	0	-100	0	230	101300000	1000	0	0	-1	700
21497115	7936	710	0	-100	0	230	101300000	1000	0	0	-1	700
21509675	7938	709	0	-100	0	230	101300000	1000	0	0	-1	700
21522235	7940	712	0	-100	0	230	101300000	1000	0	0	-1	700
21534795	7945	708	0	-100	0	230	101300000	1000	0	0	-1	700
21547355	7933	710	0	-100	0	230	101300000	1000	0	0	-1	700
21559915	7950	707	0	-100	0	230	101300000	1000	0	0	-1	700
21572475	7966	712	0	-100	0	230	101300000	1000	0	0	-1	700
21585035	7952	715	0	-100	0	230	101300000	1000	0	0	-1	700
21597595	7950	710	0	-100	0	230	101300000	1000	0	0	-1	700
21610155	7959	713	0	-100	0	230	101300000	1000	0	0	-1	700
21622715	7952	711	0	-100	0	230	101300000	1000	0	0	-1	700
21635275	7952	713	0	-100	0	230	101300000	1000	0	0	-1	700
21647835	7959	707	0	-100	0	230	101300000	1000	0	0	-1	700
21660395	7943	707	0	-100	0	230	101300000	1000	0	0	-1	700
21672955	7945	706	0	-100	0	230	101300000	1000	0	0	-1	700
21685515	7931	706	0	-100	0	230	101300000	1000	0	0	-1	700
21698075	7952	715	0	-100	0	230	101300000	1000	0	0	-1	700
21710635	7945	711	0	-100	0	230	101300000	1000	0	0	-1	700
21723195	7950	712	0	-100	0	230	101300000	1000	0	0	-1	700
21735755	7949	712	0	-100	0	230	101300000	1000	0	0	-1	700
21748315	7930	712	0	-100	0	230	101300000	1000	0	0	-1	700
21760875	7931	715	0	-100	0	230	101300000	1000	0	0	-1	700
21773435	7952	716	0	-100	0	230	101300000	1000	0	0	-1	700
21785995	7943	710	0	-100	0	230	101300000	1000	0	0	-1	700
21798555	7935	717	0	-100	0	230	101300000	1000	0	0	-1	700
21811115	7947	712	0	-100	0	230	101300000	1000	0	0	-1	700
21823675	7944	709	0	-100	0	230	101300000	1000	0	0	-1	700
21836235	7947	715	0	-100	0	230	101300000	1000	0	0	-1	700
21848795	7942	713	0	-100	0	230	101300000	1000	0	0	-1	700
21861355	7935	713	0	-100	0	230	101300000	1000	0	0	-1	700
21873915	7933	711	0	-100	0	230	101300000	1000	0	0	-1	700
21886475	7942	710	0	-100	0	230	101300000	1000	0	0	-1	700
21899035	7942	707	0	-100	0	230	101300000	1000	0	0	-1	700
21911595	7935	708	0	-100	0	230	101300000	1000	0	0	-1	700
21924155	7947	713	0	-100	0	230	101300000	1000	0	0	-1	700
21936715	7935	717	0	-100	0	230	101300000	1000	0	0	-1	700
21949275	7945	714	0	-100	0	230	101300000	1000	0	0	-1	700
21961835	7923	711	0	-100	0	230	101300000	1000	0	0	-1	700
21974395	7923	714	0	-100	0	230	101300000	1000	0	0	-1	700
21986955	7952	711	0	-100	0	230	101300000	1000	0	0	-1	700
21999515	7943	710	0	-100	0	230	101300000	1000	0	0	-1	700
22012075	7945	711	0	-100	0	230	101300000	1000	0	0	-1	700
22024635	7955	712	0	-100	0	230	101300000	1000	0	0	-1	700
22037195	7952	711	0	-100	0	230	101300000	1000	0	0	-1	700
22049755	7945	710	0	-100	0	230	101300000	1000	0	0	-1	700
22062315	7949	710	0	-100	0	230	101300000	1000	0	0	-1	700
22074875	7938	710	0	-100	0	230	101300000	1000	0	0	-1	700
22087435	7947	707	0	-100	0	230	101300000	1000	0	0	-1	700
22099995	7955	714	0	-100	0	230	101300000	1000	0	0	-1	700
22112555	7954	709	0	-100	0	230	101300000	1000	0	0	-1	700
22125115	7952	711	0	-100	0	230	101300000	1000	0	0	-1	700
22137675	7945	709	0	-100	0	230	101300000	1000	0	0	-1	700
22150235	7944	710	0	-100	0	230	101300000	1000	0	0	-1	700
22162795	7938	710	0	-100	0	230	101300000	1000	0	0	-1	700
22175355	7915	712	0	-100	0	230	101300000	1000	0	0	-1	700
22187915	7952	710	0	-100	0	230	101300000	1000	0	0	-1	700
22200475	7938	711	0	-100	0	230	101300000	1000	0	0	-1	700
22213035	7943	709	0	-100	0	230	101300000	1000	0	0	-1	700
22225595	7945	710	0	-100	0	230	101300000	1000	0	0	-1	700
22238155	7938	707	0	-100	0	230	101300000	1000	0	0	-1	700
22250715	7947	715	0	-100	0	230	101300000	1000	0	0	-1	700
22263275	7932	714	0	-100	0	230	101300000	1000	0	0	-1	700
22275835	7940	714	0	-100	0	230	101300000	1000	0	0	-1	700
22288395	7942	711	0	-100	0	230	101300000	1000	0	0	-1	700
22300955	7942	709	0	-100	0	230	101300000	1000	0	0	-1	700
22313515	7932	710	0	-100	0	230	101300000	1000	0	0	-1	700
22326075	7938	709	0	-100	0	230	101300000	1000	0	0	-1	700
22338635	7952	711	0	-100	0	230	101300000	1000	0	0	-1	700
22351195	7926	707	0	-100	0	230	101300000	1000	0	0	-1	700
22363755	7947	707	0	-100	0	230	101300000	1000	0	0	-1	700
22376315	7945	709	0	-100	0	230	101300000	1000	0	0	-1	700
22388875	7945	709	0	-100	0	230	101300000	1000	0	0	-1	700
22401435	7940	709	0	-100	0	230	101300000	1000	0	0	-1	700
22413995	7950	713	0	-100	0	230	101300000	1000	0	0	-1	700
22426555	7942	707	0	-100	0	230	101300000	1000	0	0	-1	700
22439115	7935	710	0	-100	0	230	101300000	1000	0	0	-1	700
22451675	7945	713	0	-100	0	230	101300000	1000	0	0	-1	700
22464235	7931	710	0	-100	0	230	101300000	1000	0	0	-1	700
22476795	7943	715	0	-100	0	230	101300000	1000	0	0	-1	700
22489355	7935	715	0	-100	0	230	101300000	1000	0	0	-1	700
22501915	7926	715	0	-100	0	230	101300000	1000	0	0	-1	700
22514475	7948	711	0	-100	0	230	101300000	1000	0	0	-1	700
22527035	7932	713	0	-100	0	230	101300000	1000	0	0	-1	700
22539595	7947	716	0	-100	0	230	101300000	1000	0	0	-1	700
22552155	7945	713	0	-100	0	230	101300000	1000	0	0	-1	700
22564715	7940	708	0	-100	0	230	101300000	1000	0	0	-1	700
22577275	7938	716	0	-100	0	230	101300000	1000	0	0	-1	700
22589835	7962	708	0	-100	0	230	101300000	1000	0	0	-1	700
22602395	7950	709	0	-100	0	230	101300000	1000	0	0	-1	700
22614955	7940	708	0	-100	0	230	101300000	1000	0	0	-1	700
22627515	7957	709	0	-100	0	230	101300000	1000	0	0	-1	700
22640075	7925	709	0	-100	0	230	101300000	1000	0	0	-1	700
22652635	7952	710	0	-100	0	230	101300000	1000	0	0	-1	700
22665195	7938	713	0	-100	0	230	101300000	1000	0	0	-1	700
22677755	7948	709	0	-100	0	230	101300000	1000	0	0	-1	700
22690315	7940	712	0	-100	0	230	101300000	1000	0	0	-1	700
22702875	7955	711	0	-100	0	230	101300000	1000	0	0	-1	700
22715435	7928	713	0	-100	0	230	101300000	1000	0	0	-1	700
22727995	7916	703	0	-100	0	230	101300000	1000	0	0	-1	700
22740555	7945	710	0	-100	0	230	101300000	1000	0	0	-1	700
22753115	7940	713	0	-100	0	230	101300000	1000	0	0	-1	700
22765675	7950	712	0	-100	0	230	101300000	1000	0	0	-1	700
22778235	7952	694	0	-100	0	230	101300000	1000	0	0	-1	700
22790795	7945	716	0	-100	0	230	101300000	1000	0	0	-1	700
22803355	7947	716	0	-100	0	230	101300000	1000	0	0	-1	700
22815915	7927	712	0	-100	0	230	101300000	1000	0	0	-1	700
22828475	7937	710	0	-100	0	230	101300000	1000	0	0	-1	700
22841035	7952	711	0	-100	0	230	101300000	1000	0	0	-1	700
22853595	7957	715	0	-100	0	230	101300000	1000	0	0	-1	700
22866155	7932	711	0	-100	0	230	101300000	1000	0	0	-1	700
22878715	7942	709	0	-100	0	230	101300000	1000	0	0	-1	700
22891275	7949	708	0	-100	0	230	101300000	1000	0	0	-1	700
22903835	7940	711	0	-100	0	230	101300000	1000	0	0	-1	700
22916395	7931	711	0	-100	0	230	101300000	1000	0	0	-1	700
22928955	7948	710	0	-100	0	230	101300000	1000	0	0	-1	700
22941515	7950	710	0	-100	0	230	101300000	1000	0	0	-1	700
22954075	7948	711	0	-100	0	230	101300000	1000	0	0	-1	700
22966635	7957	712	0	-100	0	230	101300000	1000	0	0	-1	700
22979195	7945	712	0	-100	0	230	101300000	1000	0	0	-1	700
22991755	7930	711	0	-100	0	230	101300000	1000	0	0	-1	700
23004315	7956	710	0	-100	0	230	101300000	1000	0	0	-1	700
23016875	7943	710	0	-100	0	230	101300000	1000	0	0	-1	700
23029435	7945	707	0	-100	0	230	101300000	1000	0	0	-1	700
23041995	7950	708	0	-100	0	230	101300000	1000	0	0	-1	700
23054555	7957	715	0	-100	0	230	101300000	1000	0	0	-1	700
23067115	7938	711	0	-100	0	230	101300000	1000	0	0	-1	700
23079675	7948	706	0	-100	0	230	101300000	1000	0	0	-1	700
23092235	7942	715	0	-100	0	230	101300000	1000	0	0	-1	700
23104795	7931	712	0	-100	0	230	101300000	1000	0	0	-1	700
23117355	7926	711	0	-100	0	230	101300000	1000	0	0	-1	700
23129915	7938	713	0	-100	0	230	101300000	1000	0	0	-1	700
23142475	7938	713	0	-100	0	230	101300000	1000	0	0	-1	700
23155035	7932	710	0	-100	0	230	101300000	1000	0	0	-1	700
23167595	7940	710	0	-100	0	230	101300000	1000	0	0	-1	700
23180155	7937	713	0	-100	0	230	101300000	1000	0	0	-1	700
23192715	7948	706	0	-100	0	230	101300000	1000	0	0	-1	700
23205275	7936	709	0	-100	0	230	101300000	1000	0	0	-1	700
23217835	7956	711	0	-100	0	230	101300000	1000	0	0	-1	700
23230395	7960	711	0	-100	0	230	101300000	1000	0	0	-1	700
23242955	7955	709	0	-100	0	230	101300000	1000	0	0	-1	700
23255515	7938	712	0	-100	0	230	101300000	1000	0	0	-1	700
23268075	7949	711	0	-100	0	230	101300000	1000	0	0	-1	700
23280635	7952	709	0	-100	0	230	101300000	1000	0	0	-1	700
23293195	7935	711	0	-100	0	230	101300000	1000	0	0	-1	700
23305755	7936	711	0	-100	0	230	101300000	1000	0	0	-1	700
23318315	7945	709	0	-100	0	230	101300000	1000	0	0	-1	700
23330875	7950	707	0	-100	0	230	101300000	1000	0	0	-1	700
23343435	7957	708	0	-100	0	230	101300000	1000	0	0	-1	700
23355995	7950	709	0	-100	0	230	101300000	1000	0	0	-1	700
23368555	7928	716	0	-100	0	230	101300000	1000	0	0	-1	700
23381115	7954	713	0	-100	0	230	101300000	1000	0	0	-1	700
23393675	7933	713	0	-100	0	230	101300000	1000	0	0	-1	700
23406235	7950	708	0	-100	0	230	101300000	1000	0	0	-1	700
23418795	7947	709	0	-100	0	230	101300000	1000	0	0	-1	700
23431355	7943	711	0	-100	0	230	101300000	1000	0	0	-1	700
23443915	7945	713	0	-100	0	230	101300000	1000	0	0	-1	700
23456475	7924	709	0	-100	0	230	101300000	1000	0	0	-1	700
23469035	7940	707	0	-100	0	230	101300000	1000	0	0	-1	700
23481595	7943	708	0	-100	0	230	101300000	1000	0	0	-1	700
23494155	7950	706	0	-100	0	230	101300000	1000	0	0	-1	700
23506715	7950	715	0	-100	0	230	101300000	1000	0	0	-1	700
23519275	7952	714	0	-100	0	230	101300000	1000	0	0	-1	700
23531835	7957	712	0	-100	0	230	101300000	1000	0	0	-1	700
23544395	7935	709	0	-100	0	230	101300000	1000	0	0	-1	700
23556955	7955	711	0	-100	0	230	101300000	1000	0	0	-1	700
23569515	7946	710	0	-100	0	230	101300000	1000	0	0	-1	700
23582075	7945	712	0	-100	0	230	101300000	1000	0	0	-1	700
23594635	7947	713	0	-100	0	230	101300000	1000	0	0	-1	700
23607195	7943	712	0	-100	0	230	101300000	1000	0	0	-1	700
23619755	7940	714	0	-100	0	230	101300000	1000	0	0	-1	700
23632315	7945	715	0	-100	0	230	101300000	1000	0	0	-1	700
23644875	7952	710	0	-100	0	230	101300000	1000	0	0	-1	700
23657435	7935	707	0	-100	0	230	101300000	1000	0	0	-1	700
23669995	7942	707	0	-100	0	230	101300000	1000	0	0	-1	700
23682555	7948	706	0	-100	0	230	101300000	1000	0	0	-1	700
23695115	7935	706	0	-100	0	230	101300000	1000	0	0	-1	700
23707675	7945	709	0	-100	0	230	101300000	1000	0	0	-1	700
23720235	7942	709	0	-100	0	230	101300000	1000	0	0	-1	700
23732795	7942	709	0	-100	0	230	101300000	1000	0	0	-1	700
23745355	7937	715	0	-100	0	230	101300000	1000	0	0	-1	700
23757915	7940	710	0	-100	0	230	101300000	1000	0	0	-1	700
23770475	7940	715	0	-100	0	230	101300000	1000	0	0	-1	700
23783035	7938	711	0	-100	0	230	101300000	1000	0	0	-1	700
23795595	7935	707	0	-100	0	230	101300000	1000	0	0	-1	700
23808155	7967	711	0	-100	0	230	101300000	1000	0	0	-1	700
23820715	7936	709	0	-100	0	230	101300000	1000	0	0	-1	700
23833275	7945	711	0	-100	0	230	101300000	1000	0	0	-1	700
23845835	7935	712	0	-100	0	230	101300000	1000	0	0	-1	700
23858395	7949	713	0	-100	0	230	101300000	1000	0	0	-1	700
23870955	7952	712	0	-100	0	230	101300000	1000	0	0	-1	700
23883515	7938	710	0	-100	0	230	101300000	1000	0	0	-1	700
23896075	7942	711	0	-100	0	230	101300000	1000	0	0	-1	700
23908635	7919	717	0	-100	0	230	101300000	1000	0	0	-1	700
23921195	7948	711	0	-100	0	230	101300000	1000	0	0	-1	700
23933755	7950	710	0	-100	0	230	101300000	1000	0	0	-1	700
23946315	7933	712	0	-100	0	230	101300000	1000	0	0	-1	700
23958875	7945	710	0	-100	0	230	101300000	1000	0	0	-1	700
23971435	7933	706	0	-100	0	230	101300000	1000	0	0	-1	700
23983995	7945	712	0	-100	0	230	101300000	1000	0	0	-1	700
23996555	7947	708	0	-100	0	230	101300000	1000	0	0	-1	700
24009115	7942	712	0	-100	0	230	101300000	1000	0	0	-1	700
24021675	7949	711	0	-100	0	230	101300000	1000	0	0	-1	700
24034235	7952	712	0	-100	0	230	101300000	1000	0	0	-1	700
24046795	7943	712	0	-100	0	230	101300000	1000	0	0	-1	700
24059355	7950	711	0	-100	0	230	101300000	1000	0	0	-1	700
24071915	7940	706	0	-100	0	230	101300000	1000	0	0	-1	700
24084475	7949	713	0	-100	0	230	101300000	1000	0	0	-1	700
24097035	7941	707	0	-100	0	230	101300000	1000	0	0	-1	700
24109595	7945	715	0	-100	0	230	101300000	1000	0	0	-1	700
24122155	7959	715	0	-100	0	230	101300000	1000	0	0	-1	700
24134715	7921	710	0	-100	0	230	101300000	1000	0	0	-1	700
24147275	7941	708	0	-100	0	230	101300000	1000	0	0	-1	700
24159835	7942	708	0	-100	0	230	101300000	1000	0	0	-1	700
24172395	7947	707	0	-100	0	230	101300000	1000	0	0	-1	700
24184955	7959	707	0	-100	0	230	101300000	1000	0	0	-1	700
24197515	7946	714	0	-100	0	230	101300000	1000	0	0	-1	700
24210075	7952	713	0	-100	0	230	101300000	1000	0	0	-1	700
24222635	7950	710	0	-100	0	230	101300000	1000	0	0	-1	700
24235195	7935	711	0	-100	0	230	101300000	1000	0	0	-1	700
24247755	7938	708	0	-100	0	230	101300000	1000	0	0	-1	700
24260315	7955	711	0	-100	0	230	101300000	1000	0	0	-1	700
24272875	7944	714	0	-100	0	230	101300000	1000	0	0	-1	700
24285435	7938	713	0	-100	0	230	101300000	1000	0	0	-1	700
24297995	7935	709	0	-100	0	230	101300000	1000	0	0	-1	700
24310555	7947	715	0	-100	0	230	101300000	1000	0	0	-1	700
24323115	7935	709	0	-100	0	230	101300000	1000	0	0	-1	700
24335675	7949	713	0	-100	0	230	101300000	1000	0	0	-1	700
24348235	7947	714	0	-100	0	230	101300000	1000	0	0	-1	700
24360795	7945	713	0	-100	0	230	101300000	1000	0	0	-1	700
24373355	7941	707	0	-100	0	230	101300000	1000	0	0	-1	700
24385915	7943	713	0	-100	0	230	101300000	1000	0	0	-1	700
24398475	7943	712	0	-100	0	230	101300000	1000	0	0	-1	700
24411035	7947	712	0	-100	0	230	101300000	1000	0	0	-1	700
24423595	7961	708	0	-100	0	230	101300000	1000	0	0	-1	700
24436155	7968	711	0	-100	0	230	101300000	1000	0	0	-1	700
24448715	7945	708	0	-100	0	230	101300000	1000	0	0	-1	700
24461275	7923	715	0	-100	0	230	101300000	1000	0	0	-1	700
24473835	7942	713	0	-100	0	230	101300000	1000	0	0	-1	700
24486395	7940	710	0	-100	0	230	101300000	1000	0	0	-1	700
24498955	7941	709	0	-100	0	230	101300000	1000	0	0	-1	700
24511515	7904	712	0	-100	0	230	101300000	1000	0	0	-1	700
24524075	7947	709	0	-100	0	230	101300000	1000	0	0	-1	700
24536635	7942	710	0	-100	0	230	101300000	1000	0	0	-1	700
24549195	7948	710	0	-100	0	230	101300000	1000	0	0	-1	700
24561755	7942	712	0	-100	0	230	101300000	1000	0	0	-1	700
24574315	7947	713	0	-100	0	230	101300000	1000	0	0	-1	700
24586875	7948	708	0	-100	0	230	101300000	1000	0	0	-1	700
24599435	7942	708	0	-100	0	230	101300000	1000	0	0	-1	700
24611995	7930	709	0	-100	0	230	101300000	1000	0	0	-1	700
24624555	7955	711	0	-100	0	230	101300000	1000	0	0	-1	700
24637115	7950	709	0	-100	0	230	101300000	1000	0	0	-1	700
24649675	7938	708	0	-100	0	230	101300000	1000	0	0	-1	700
24662235	7950	712	0	-100	0	230	101300000	1000	0	0	-1	700
24674795	7944	714	0	-100	0	230	101300000	1000	0	0	-1	700
24687355	7942	715	0	-100	0	230	101300000	1000	0	0	-1	700
24699915	7945	711	0	-100	0	230	101300000	1000	0	0	-1	700
24712475	7935	708	0	-100	0	230	101300000	1000	0	0	-1	700
24725035	7931	707	0	-100	0	230	101300000	1000	0	0	-1	700
24737595	7942	710	0	-100	0	230	101300000	1000	0	0	-1	700
24750155	7959	717	0	-100	0	230	101300000	1000	0	0	-1	700
24762715	7930	710	0	-100	0	230	101300000	1000	0	0	-1	700
24775275	7948	711	0	-100	0	230	101300000	1000	0	0	-1	700
24787835	7940	709	0	-100	0	230	101300000	1000	0	0	-1	700
24800395	7957	707	0	-100	0	230	101300000	1000	0	0	-1	700
24812955	7923	715	0	-100	0	230	101300000	1000	0	0	-1	700
24825515	7947	715	0	-100	0	230	101300000	1000	0	0	-1	700
24838075	7945	712	0	-100	0	230	101300000	1000	0	0	-1	700
24850635	7936	706	0	-100	0	230	101300000	1000	0	0	-1	700
24863195	7952	711	0	-100	0	230	101300000	1000	0	0	-1	700
24875755	7950	712	0	-100	0	230	101300000	1000	0	0	-1	700
24888315	7957	712	0	-100	0	230	101300000	1000	0	0	-1	700
24900875	7942	711	0	-100	0	230	101300000	1000	0	0	-1	700
24913435	7949	713	0	-100	0	230	101300000	1000	0	0	-1	700
24925995	7947	712	0	-100	0	230	101300000	1000	0	0	-1	700
24938555	7938	710	0	-100	0	230	101300000	1000	0	0	-1	700
24951115	7952	708	0	-100	0	230	101300000	1000	0	0	-1	700
24963675	7936	714	0	-100	0	230	101300000	1000	0	0	-1	700
24976235	7940	716	0	-100	0	230	101300000	1000	0	0	-1	700
24988795	7952	711	0	-100	0	230	101300000	1000	0	0	-1	700
25001355	7947	708	0	-100	0	230	101300000	1000	0	0	-1	700
25013915	7921	712	0	-100	0	230	101300000	1000	0	0	-1	700
25026475	7935	714	0	-100	0	230	101300000	1000	0	0	-1	700
25039035	7931	713	0	-100	0	230	101300000	1000	0	0	-1	700
25051595	7964	709	0	-100	0	230	101300000	1000	0	0	-1	700
25064155	7957	711	0	-100	0	230	101300000	1000	0	0	-1	700
25076715	7941	710	0	-100	0	230	101300000	1000	0	0	-1	700
25089275	7950	707	0	-100	0	230	101300000	1000	0	0	-1	700
25101835	7945	711	0	-100	0	230	101300000	1000	0	0	-1	700
25114395	7944	718	0	-100	0	230	101300000	1000	0	0	-1	700
25126955	7947	714	0	-100	0	230	101300000	1000	0	0	-1	700
25139515	7935	707	0	-100	0	230	101300000	1000	0	0	-1	700
25152075	7956	709	0	-100	0	230	101300000	1000	0	0	-1	700
25164635	7945	711	0	-100	0	230	101300000	1000	0	0	-1	700
25177195	7932	712	0	-100	0	230	101300000	1000	0	0	-1	700
25189755	7954	713	0	-100	0	230	101300000	1000	0	0	-1	700
25202315	7950	718	0	-100	0	230	101300000	1000	0	0	-1	700
25214875	7943	715	0	-100	0	230	101300000	1000	0	0	-1	700
25227435	7935	711	0	-100	0	230	101300000	1000	0	0	-1	700
25239995	7942	712	0	-100	0	230	101300000	1000	0	0	-1	700
25252555	7954	709	0	-100	0	230	101300000	1000	0	0	-1	700
25265115	7947	708	0	-100	0	230	101300000	1000	0	0	-1	700
25277675	7948	708	0	-100	0	230	101300000	1000	0	0	-1	700
25290235	7955	706	0	-100	0	230	101300000	1000	0	0	-1	700
25302795	7947	710	0	-100	0	230	101300000	1000	0	0	-1	700
25315355	7928	714	0	-100	0	230	101300000	1000	0	0	-1	700
25327915	7947	707	0	-100	0	230	101300000	1000	0	0	-1	700
25340475	7935	713	0	-100	0	230	101300000	1000	0	0	-1	700
25353035	7959	712	0	-100	0	230	101300000	1000	0	0	-1	700
25365595	7930	714	0	-100	0	230	101300000	1000	0	0	-1	700
25378155	7942	710	0	-100	0	230	101300000	1000	0	0	-1	700
25390715	7942	713	0	-100	0	230	101300000	1000	0	0	-1	700
25403275	7957	707	0	-100	0	230	101300000	1000	0	0	-1	700
25415835	7945	701	0	-100	0	230	101300000	1000	0	0	-1	700
25428395	7938	720	0	-100	0	230	101300000	1000	0	0	-1	700
25440955	7945	715	0	-100	0	230	101300000	1000	0	0	-1	700
25453515	7954	712	0	-100	0	230	101300000	1000	0	0	-1	700
25466075	7933	712	0	-100	0	230	101300000	1000	0	0	-1	700
25478635	7947	712	0	-100	0	230	101300000	1000	0	0	-1	700
25491195	7928	710	0	-100	0	230	101300000	1000	0	0	-1	700
25503755	7937	711	0	-100	0	230	101300000	1000	0	0	-1	700
25516315	7942	713	0	-100	0	230	101300000	1000	0	0	-1	700
25528875	7947	711	0	-100	0	230	101300000	1000	0	0	-1	700
25541435	7952	709	0	-100	0	230	101300000	1000	0	0	-1	700
25553995	7948	710	0	-100	0	230	101300000	1000	0	0	-1	700
25566555	7949	709	0	-100	0	230	101300000	1000	0	0	-1	700
25579115	7942	714	0	-100	0	230	101300000	1000	0	0	-1	700
25591675	7928	711	0	-100	0	230	101300000	1000	0	0	-1	700
25604235	7935	708	0	-100	0	230	101300000	1000	0	0	-1	700
25616795	7952	708	0	-100	0	230	101300000	1000	0	0	-1	700
25629355	7957	708	0	-100	0	230	101300000	1000	0	0	-1	700
25641915	7914	714	0	-100	0	230	101300000	1000	0	0	-1	700
25654475	7940	715	0	-100	0	230	101300000	1000	0	0	-1	700
25667035	7933	713	0	-100	0	230	101300000	1000	0	0	-1	700
25679595	7933	706	0	-100	0	230	101300000	1000	0	0	-1	700
25692155	7980	710	0	-100	0	230	101300000	1000	0	0	-1	700
25704715	7940	710	0	-100	0	230	101300000	1000	0	0	-1	700
25717275	7942	712	0	-100	0	230	101300000	1000	0	0	-1	700
25729835	7940	711	0	-100	0	230	101300000	1000	0	0	-1	700
25742395	7940	713	0	-100	0	230	101300000	1000	0	0	-1	700
25754955	7925	715	0	-100	0	230	101300000	1000	0	0	-1	700
25767515	7945	710	0	-100	0	230	101300000	1000	0	0	-1	700
25780075	7942	714	0	-100	0	230	101300000	1000	0	0	-1	700
25792635	7949	715	0	-100	0	230	101300000	1000	0	0	-1	700
25805195	7935	711	0	-100	0	230	101300000	1000	0	0	-1	700
25817755	7938	710	0	-100	0	230	101300000	1000	0	0	-1	700
25830315	7938	711	0	-100	0	230	101300000	1000	0	0	-1	700
25842875	7952	709	0	-100	0	230	101300000	1000	0	0	-1	700
25855435	7947	710	0	-100	0	230	101300000	1000	0	0	-1	700
25867995	7935	712	0	-100	0	230	101300000	1000	0	0	-1	700
25880555	7938	711	0	-100	0	230	101300000	1000	0	0	-1	700
25893115	7971	708	0	-100	0	230	101300000	1000	0	0	-1	700
25905675	7957	711	0	-100	0	230	101300000	1000	0	0	-1	700
25918235	7955	712	0	-100	0	230	101300000	1000	0	0	-1	700
25930795	7947	707	0	-100	0	230	101300000	1000	0	0	-1	700
25943355	7957	711	0	-100	0	230	101300000	1000	0	0	-1	700
25955915	7945	706	0	-100	0	230	101300000	1000	0	0	-1	700
25968475	7959	708	0	-100	0	230	101300000	1000	0	0	-1	700
25981035	7952	712	0	-100	0	230	101300000	1000	0	0	-1	700
25993595	7936	711	0	-100	0	230	101300000	1000	0	0	-1	700
26006155	7961	705	0	-100	0	230	101300000	1000	0	0	-1	700
26018715	7942	707	0	-100	0	230	101300000	1000	0	0	-1	700
26031275	7957	711	0	-100	0	230	101300000	1000	0	0	-1	700
26043835	7964	713	0	-100	0	230	101300000	1000	0	0	-1	700
26056395	7950	706	0	-100	0	230	101300000	1000	0	0	-1	700
26068955	7947	708	0	-100	0	230	101300000	1000	0	0	-1	700
26081515	7969	716	0	-100	0	230	101300000	1000	0	0	-1	700
26094075	7954	710	0	-100	0	230	101300000	1000	0	0	-1	700
26106635	7957	706	0	-100	0	230	101300000	1000	0	0	-1	700
26119195	7935	713	0	-100	0	230	101300000	1000	0	0	-1	700
26131755	7924	712	0	-100	0	230	101300000	1000	0	0	-1	700
26144315	7945	711	0	-100	0	230	101300000	1000	0	0	-1	700
26156875	7943	708	0	-100	0	230	101300000	1000	0	0	-1	700
26169435	7933	712	0	-100	0	230	101300000	1000	0	0	-1	700
26181995	7950	712	0	-100	0	230	101300000	1000	0	0	-1	700
26194555	7961	712	0	-100	0	230	101300000	1000	0	0	-1	700
26207115	7942	714	0	-100	0	230	101300000	1000	0	0	-1	700
26219675	7942	713	0	-100	0	230	101300000	1000	0	0	-1	700
26232235	7940	707	0	-100	0	230	101300000	1000	0	0	-1	700
26244795	7959	709	0	-100	0	230	101300000	1000	0	0	-1	700
26257355	7932	710	0	-100	0	230	101300000	1000	0	0	-1	700
26269915	7932	714	0	-100	0	230	101300000	1000	0	0	-1	700
26282475	7945	708	0	-100	0	230	101300000	1000	0	0	-1	700
26295035	7952	712	0	-100	0	230	101300000	1000	0	0	-1	700
26307595	7952	692	0	-100	0	230	101300000	1000	0	0	-1	700
26320155	7942	715	0	-100	0	230	101300000	1000	0	0	-1	700
26332715	7940	709	0	-100	0	230	101300000	1000	0	0	-1	700
26345275	7937	708	0	-100	0	230	101300000	1000	0	0	-1	700
26357835	7954	711	0	-100	0	230	101300000	1000	0	0	-1	700
26370395	7947	716	0	-100	0	230	101300000	1000	0	0	-1	700
26382955	7944	709	0	-100	0	230	101300000	1000	0	0	-1	700
26395515	7948	710	0	-100	0	230	101300000	1000	0	0	-1	700
26408075	7948	709	0	-100	0	230	101300000	1000	0	0	-1	700
26420635	7955	712	0	-100	0	230	101300000	1000	0	0	-1	700
26433195	7950	711	0	-100	0	230	101300000	1000	0	0	-1	700
26445755	7941	709	0	-100	0	230	101300000	1000	0	0	-1	700
26458315	7940	708	0	-100	0	230	101300000	1000	0	0	-1	700
26470875	7935	716	0	-100	0	230	101300000	1000	0	0	-1	700
26483435	7948	702	0	-100	0	230	101300000	1000	0	0	-1	700
26495995	7938	711	0	-100	0	230	101300000	1000	0	0	-1	700
26508555	7943	711	0	-100	0	230	101300000	1000	0	0	-1	700
26521115	7950	709	0	-100	0	230	101300000	1000	0	0	-1	700
26533675	7949	710	0	-100	0	230	101300000	1000	0	0	-1	700
26546235	7956	714	0	-100	0	230	101300000	1000	0	0	-1	700
26558795	7956	707	0	-100	0	230	101300000	1000	0	0	-1	700
26571355	7938	708	0	-100	0	230	101300000	1000	0	0	-1	700
26583915	7948	711	0	-100	0	230	101300000	1000	0	0	-1	700
26596475	7950	705	0	-100	0	230	101300000	1000	0	0	-1	700
26609035	7945	710	0	-100	0	230	101300000	1000	0	0	-1	700
26621595	7925	712	0	-100	0	230	101300000	1000	0	0	-1	700
26634155	7956	715	0	-100	0	230	101300000	1000	0	0	-1	700
26646715	7930	712	0	-100	0	230	101300000	1000	0	0	-1	700
26659275	7950	713	0	-100	0	230	101300000	1000	0	0	-1	700
26671835	7950	709	0	-100	0	230	101300000	1000	0	0	-1	700
26684395	7945	708	0	-100	0	230	101300000	1000	0	0	-1	700
26696955	7949	713	0	-100	0	230	101300000	1000	0	0	-1	700
26709515	7928	709	0	-100	0	230	101300000	1000	0	0	-1	700
26722075	7942	712	0	-100	0	230	101300000	1000	0	0	-1	700
26734635	7941	709	0	-100	0	230	101300000	1000	0	0	-1	700
26747195	7954	709	0	-100	0	230	101300000	1000	0	0	-1	700
26759755	7943	713	0	-100	0	230	101300000	1000	0	0	-1	700
26772315	7957	711	0	-100	0	230	101300000	1000	0	0	-1	700
26784875	7945	708	0	-100	0	230	101300000	1000	0	0	-1	700
26797435	7949	714	0	-100	0	230	101300000	1000	0	0	-1	700
26809995	7947	710	0	-100	0	230	101300000	1000	0	0	-1	700
26822555	7940	711	0	-100	0	230	101300000	1000	0	0	-1	700
26835115	7928	713	0	-100	0	230	101300000	1000	0	0	-1	700
26847675	7935	711	0	-100	0	230	101300000	1000	0	0	-1	700
26860235	7940	708	0	-100	0	230	101300000	1000	0	0	-1	700
26872795	7949	708	0	-100	0	230	101300000	1000	0	0	-1	700
26885355	7930	711	0	-100	0	230	101300000	1000	0	0	-1	700
26897915	7933	711	0	-100	0	230	101300000	1000	0	0	-1	700
26910475	7955	715	0	-100	0	230	101300000	1000	0	0	-1	700
26923035	7952	712	0	-100	0	230	101300000	1000	0	0	-1	700
26935595	7947	712	0	-100	0	230	101300000	1000	0	0	-1	700
26948155	7962	708	0	-100	0	230	101300000	1000	0	0	-1	700
26960715	7933	710	0	-100	0	230	101300000	1000	0	0	-1	700
26973275	7937	708	0	-100	0	230	101300000	1000	0	0	-1	700
26985835	7928	713	0	-100	0	230	101300000	1000	0	0	-1	700
26998395	7945	710	0	-100	0	230	101300000	1000	0	0	-1	700
27010955	7955	709	0	-100	0	230	101300000	1000	0	0	-1	700
27023515	7950	710	0	-100	0	230	101300000	1000	0	0	-1	700
27036075	7955	708	0	-100	0	230	101300000	1000	0	0	-1	700
27048635	7952	707	0	-100	0	230	101300000	1000	0	0	-1	700
