timestamp	voltage	current	windSpeed	pitchAngle	rpm	temperature	ambientPressure	humidity	accelerationX	accelerationY	accelerationZ	currentSink
7040070	8522	0	0	-100	0	230	101300000	1000	0	0	-1	0
7047523	8519	4	0	-100	0	230	101300000	1000	0	0	-1	0
7060083	8520	0	0	-100	0	230	101300000	1000	0	0	-1	0
7072643	8522	0	0	-100	0	230	101300000	1000	0	0	-1	0
7085203	8519	0	0	-100	0	230	101300000	1000	0	0	-1	0
7097763	8520	5	0	-100	0	230	101300000	1000	0	0	-1	0
7110323	8517	2	0	-100	0	230	101300000	1000	0	0	-1	0
7122883	8522	0	0	-100	0	230	101300000	1000	0	0	-1	0
7135443	8517	0	0	-100	0	230	101300000	1000	0	0	-1	0
7148004	8519	0	0	-100	0	230	101300000	1000	0	0	-1	0
7160563	8529	0	0	-100	0	230	101300000	1000	0	0	-1	0
7173123	8527	0	0	-100	0	230	101300000	1000	0	0	-1	0
7185683	8515	0	0	-100	0	230	101300000	1000	0	0	-1	0
7198243	8517	2	0	-100	0	230	101300000	1000	0	0	-1	0
7210803	8520	0	0	-100	0	230	101300000	1000	0	0	-1	0
7223363	8515	0	0	-100	0	230	101300000	1000	0	0	-1	0
7235923	8522	4	0	-100	0	230	101300000	1000	0	0	-1	0
7248483	8519	2	0	-100	0	230	101300000	1000	0	0	-1	0
7261043	8529	0	0	-100	0	230	101300000	1000	0	0	-1	0
7273603	8522	0	0	-100	0	230	101300000	1000	0	0	-1	0
7286163	8517	0	0	-100	0	230	101300000	1000	0	0	-1	0
7298723	8515	0	0	-100	0	230	101300000	1000	0	0	-1	0
7311283	8517	6	0	-100	0	230	101300000	1000	0	0	-1	0
7323843	8515	3	0	-100	0	230	101300000	1000	0	0	-1	0
7336403	8527	0	0	-100	0	230	101300000	1000	0	0	-1	0
7348963	8522	0	0	-100	0	230	101300000	1000	0	0	-1	0
7719795	7902	786	0	-100	0	230	101300000	1000	0	0	-1	800
7732355	7889	786	0	-100	0	230	101300000	1000	0	0	-1	800
7744915	7894	783	0	-100	0	230	101300000	1000	0	0	-1	800
7757475	7897	784	0	-100	0	230	101300000	1000	0	0	-1	800
7770035	7891	778	0	-100	0	230	101300000	1000	0	0	-1	800
7782595	7899	783	0	-100	0	230	101300000	1000	0	0	-1	800
7795155	7911	784	0	-100	0	230	101300000	1000	0	0	-1	800
7807715	7909	782	0	-100	0	230	101300000	1000	0	0	-1	800
7820275	7911	786	0	-100	0	230	101300000	1000	0	0	-1	800
7832835	7897	784	0	-100	0	230	101300000	1000	0	0	-1	800
7845395	7904	783	0	-100	0	230	101300000	1000	0	0	-1	800
7857955	7891	784	0	-100	0	230	101300000	1000	0	0	-1	800
7870515	7890	785	0	-100	0	230	101300000	1000	0	0	-1	800
7883075	7901	780	0	-100	0	230	101300000	1000	0	0	-1	800
7895635	7913	787	0	-100	0	230	101300000	1000	0	0	-1	800
7908195	7900	780	0	-100	0	230	101300000	1000	0	0	-1	800
7920755	7903	788	0	-100	0	230	101300000	1000	0	0	-1	800
7933315	7914	785	0	-100	0	230	101300000	1000	0	0	-1	800
7945875	7906	778	0	-100	0	230	101300000	1000	0	0	-1	800
7958435	7894	782	0	-100	0	230	101300000	1000	0	0	-1	800
7970995	7894	784	0	-100	0	230	101300000	1000	0	0	-1	800
7983555	7906	783	0	-100	0	230	101300000	1000	0	0	-1	800
7996115	7894	785	0	-100	0	230	101300000	1000	0	0	-1	800
8008675	7891	789	0	-100	0	230	101300000	1000	0	0	-1	800
8021235	7892	782	0	-100	0	230	101300000	1000	0	0	-1	800
8033795	7894	792	0	-100	0	230	101300000	1000	0	0	-1	800
8046355	7913	787	0	-100	0	230	101300000	1000	0	0	-1	800
8058915	7907	789	0	-100	0	230	101300000	1000	0	0	-1	800
8071475	7906	791	0	-100	0	230	101300000	1000	0	0	-1	800
8084035	7909	782	0	-100	0	230	101300000	1000	0	0	-1	800
8096595	7896	787	0	-100	0	230	101300000	1000	0	0	-1	800
8109155	7925	784	0	-100	0	230	101300000	1000	0	0	-1	800
8121715	7877	788	0	-100	0	230	101300000	1000	0	0	-1	800
8134275	7894	786	0	-100	0	230	101300000	1000	0	0	-1	800
8146835	7913	790	0	-100	0	230	101300000	1000	0	0	-1	800
8159395	7882	787	0	-100	0	230	101300000	1000	0	0	-1	800
8171955	7899	787	0	-100	0	230	101300000	1000	0	0	-1	800
8184515	7908	787	0	-100	0	230	101300000	1000	0	0	-1	800
8197075	7863	784	0	-100	0	230	101300000	1000	0	0	-1	800
8209635	7893	789	0	-100	0	230	101300000	1000	0	0	-1	800
8222195	7894	786	0	-100	0	230	101300000	1000	0	0	-1	800
8234755	7911	787	0	-100	0	230	101300000	1000	0	0	-1	800
8247315	7887	786	0	-100	0	230	101300000	1000	0	0	-1	800
8259875	7879	788	0	-100	0	230	101300000	1000	0	0	-1	800
8272435	7901	785	0	-100	0	230	101300000	1000	0	0	-1	800
8284995	7911	791	0	-100	0	230	101300000	1000	0	0	-1	800
8297555	7897	793	0	-100	0	230	101300000	1000	0	0	-1	800
8310115	7904	788	0	-100	0	230	101300000	1000	0	0	-1	800
8322675	7920	789	0	-100	0	230	101300000	1000	0	0	-1	800
8335235	7897	788	0	-100	0	230	101300000	1000	0	0	-1	800
8347795	7902	788	0	-100	0	230	101300000	1000	0	0	-1	800
8360355	7904	788	0	-100	0	230	101300000	1000	0	0	-1	800
8372915	7894	791	0	-100	0	230	101300000	1000	0	0	-1	800
8385475	7902	787	0	-100	0	230	101300000	1000	0	0	-1	800
8398035	7896	791	0	-100	0	230	101300000	1000	0	0	-1	800
8410595	7889	789	0	-100	0	230	101300000	1000	0	0	-1	800
8423155	7904	786	0	-100	0	230	101300000	1000	0	0	-1	800
8435715	7911	790	0	-100	0	230	101300000	1000	0	0	-1	800
8448275	7892	786	0	-100	0	230	101300000	1000	0	0	-1	800
8460835	7897	789	0	-100	0	230	101300000	1000	0	0	-1	800
8473395	7911	788	0	-100	0	230	101300000	1000	0	0	-1	800
8485955	7896	789	0	-100	0	230	101300000	1000	0	0	-1	800
8498515	7892	786	0	-100	0	230	101300000	1000	0	0	-1	800
8511075	7901	786	0	-100	0	230	101300000	1000	0	0	-1	800
8523635	7897	787	0	-100	0	230	101300000	1000	0	0	-1	800
8536195	7913	793	0	-100	0	230	101300000	1000	0	0	-1	800
8548755	7909	790	0	-100	0	230	101300000	1000	0	0	-1	800
8561315	7925	782	0	-100	0	230	101300000	1000	0	0	-1	800
8573875	7892	786	0	-100	0	230	101300000	1000	0	0	-1	800
8586435	7896	781	0	-100	0	230	101300000	1000	0	0	-1	800
8598995	7892	781	0	-100	0	230	101300000	1000	0	0	-1	800
8611555	7903	789	0	-100	0	230	101300000	1000	0	0	-1	800
8624115	7908	790	0	-100	0	230	101300000	1000	0	0	-1	800
8636675	7901	787	0	-100	0	230	101300000	1000	0	0	-1	800
8649235	7894	787	0	-100	0	230	101300000	1000	0	0	-1	800
8661795	7904	787	0	-100	0	230	101300000	1000	0	0	-1	800
8674355	7875	789	0	-100	0	230	101300000	1000	0	0	-1	800
8686915	7892	779	0	-100	0	230	101300000	1000	0	0	-1	800
8699475	7904	790	0	-100	0	230	101300000	1000	0	0	-1	800
8712035	7894	784	0	-100	0	230	101300000	1000	0	0	-1	800
8724595	7904	787	0	-100	0	230	101300000	1000	0	0	-1	800
8737155	7904	786	0	-100	0	230	101300000	1000	0	0	-1	800
8749715	7901	788	0	-100	0	230	101300000	1000	0	0	-1	800
8762275	7913	791	0	-100	0	230	101300000	1000	0	0	-1	800
8774835	7913	788	0	-100	0	230	101300000	1000	0	0	-1	800
8787395	7894	787	0	-100	0	230	101300000	1000	0	0	-1	800
8799955	7911	787	0	-100	0	230	101300000	1000	0	0	-1	800
8812515	7904	790	0	-100	0	230	101300000	1000	0	0	-1	800
8825075	7911	786	0	-100	0	230	101300000	1000	0	0	-1	800
8837635	7906	788	0	-100	0	230	101300000	1000	0	0	-1	800
8850195	7918	785	0	-100	0	230	101300000	1000	0	0	-1	800
8862755	7899	785	0	-100	0	230	101300000	1000	0	0	-1	800
8875315	7907	784	0	-100	0	230	101300000	1000	0	0	-1	800
8887875	7889	795	0	-100	0	230	101300000	1000	0	0	-1	800
8900435	7911	786	0	-100	0	230	101300000	1000	0	0	-1	800
8912995	7895	783	0	-100	0	230	101300000	1000	0	0	-1	800
8925555	7897	790	0	-100	0	230	101300000	1000	0	0	-1	800
8938115	7915	790	0	-100	0	230	101300000	1000	0	0	-1	800
8950675	7897	788	0	-100	0	230	101300000	1000	0	0	-1	800
8963235	7896	787	0	-100	0	230	101300000	1000	0	0	-1	800
8975795	7911	788	0	-100	0	230	101300000	1000	0	0	-1	800
8988355	7882	788	0	-100	0	230	101300000	1000	0	0	-1	800
9000915	7913	788	0	-100	0	230	101300000	1000	0	0	-1	800
9013475	7892	782	0	-100	0	230	101300000	1000	0	0	-1	800
9026035	7911	790	0	-100	0	230	101300000	1000	0	0	-1	800
9038595	7904	782	0	-100	0	230	101300000	1000	0	0	-1	800
9051155	7911	776	0	-100	0	230	101300000	1000	0	0	-1	800
9063715	7911	786	0	-100	0	230	101300000	1000	0	0	-1	800
9076275	7913	783	0	-100	0	230	101300000	1000	0	0	-1	800
9088835	7904	787	0	-100	0	230	101300000	1000	0	0	-1	800
9101395	7901	784	0	-100	0	230	101300000	1000	0	0	-1	800
9113955	7906	788	0	-100	0	230	101300000	1000	0	0	-1	800
9126515	7889	787	0	-100	0	230	101300000	1000	0	0	-1	800
9139075	7899	790	0	-100	0	230	101300000	1000	0	0	-1	800
9151635	7915	789	0	-100	0	230	101300000	1000	0	0	-1	800
9164195	7882	781	0	-100	0	230	101300000	1000	0	0	-1	800
9176755	7915	789	0	-100	0	230	101300000	1000	0	0	-1	800
9189315	7913	782	0	-100	0	230	101300000	1000	0	0	-1	800
9201875	7901	785	0	-100	0	230	101300000	1000	0	0	-1	800
9214435	7896	787	0	-100	0	230	101300000	1000	0	0	-1	800
9226995	7915	787	0	-100	0	230	101300000	1000	0	0	-1	800
9239555	7890	790	0	-100	0	230	101300000	1000	0	0	-1	800
9252115	7901	791	0	-100	0	230	101300000	1000	0	0	-1	800
9264675	7913	789	0	-100	0	230	101300000	1000	0	0	-1	800
9277235	7908	791	0	-100	0	230	101300000	1000	0	0	-1	800
9289795	7906	788	0	-100	0	230	101300000	1000	0	0	-1	800
9302355	7913	785	0	-100	0	230	101300000	1000	0	0	-1	800
9314915	7891	789	0	-100	0	230	101300000	1000	0	0	-1	800
9327475	7911	789	0	-100	0	230	101300000	1000	0	0	-1	800
9340035	7901	792	0	-100	0	230	101300000	1000	0	0	-1	800
9352595	7904	788	0	-100	0	230	101300000	1000	0	0	-1	800
9365155	7889	791	0	-100	0	230	101300000	1000	0	0	-1	800
9377715	7892	788	0	-100	0	230	101300000	1000	0	0	-1	800
9390275	7910	787	0	-100	0	230	101300000	1000	0	0	-1	800
9402835	7901	787	0	-100	0	230	101300000	1000	0	0	-1	800
9415395	7913	783	0	-100	0	230	101300000	1000	0	0	-1	800
9427955	7889	791	0	-100	0	230	101300000	1000	0	0	-1	800
9440515	7903	789	0	-100	0	230	101300000	1000	0	0	-1	800
9453075	7908	790	0	-100	0	230	101300000	1000	0	0	-1	800
9465635	7911	795	0	-100	0	230	101300000	1000	0	0	-1	800
9478195	7908	793	0	-100	0	230	101300000	1000	0	0	-1	800
9490755	7911	786	0	-100	0	230	101300000	1000	0	0	-1	800
9503315	7897	788	0	-100	0	230	101300000	1000	0	0	-1	800
9515875	7906	789	0	-100	0	230	101300000	1000	0	0	-1	800
9528435	7904	793	0	-100	0	230	101300000	1000	0	0	-1	800
9540995	7891	794	0	-100	0	230	101300000	1000	0	0	-1	800
9553555	7882	791	0	-100	0	230	101300000	1000	0	0	-1	800
9566115	7913	787	0	-100	0	230	101300000	1000	0	0	-1	800
9578675	7911	789	0	-100	0	230	101300000	1000	0	0	-1	800
9591235	7916	783	0	-100	0	230	101300000	1000	0	0	-1	800
9603795	7908	786	0	-100	0	230	101300000	1000	0	0	-1	800
9616355	7911	786	0	-100	0	230	101300000	1000	0	0	-1	800
9628915	7887	789	0	-100	0	230	101300000	1000	0	0	-1	800
9641475	7918	790	0	-100	0	230	101300000	1000	0	0	-1	800
9654035	7891	784	0	-100	0	230	101300000	1000	0	0	-1	800
9666595	7908	782	0	-100	0	230	101300000	1000	0	0	-1	800
9679155	7877	786	0	-100	0	230	101300000	1000	0	0	-1	800
9691715	7916	785	0	-100	0	230	101300000	1000	0	0	-1	800
9704275	7894	792	0	-100	0	230	101300000	1000	0	0	-1	800
9716835	7926	791	0	-100	0	230	101300000	1000	0	0	-1	800
9729395	7916	787	0	-100	0	230	101300000	1000	0	0	-1	800
9741955	7901	791	0	-100	0	230	101300000	1000	0	0	-1	800
9754515	7907	785	0	-100	0	230	101300000	1000	0	0	-1	800
9767075	7906	796	0	-100	0	230	101300000	1000	0	0	-1	800
9779635	7906	788	0	-100	0	230	101300000	1000	0	0	-1	800
9792195	7907	787	0	-100	0	230	101300000	1000	0	0	-1	800
9804755	7886	792	0	-100	0	230	101300000	1000	0	0	-1	800
9817315	7906	785	0	-100	0	230	101300000	1000	0	0	-1	800
9829875	7894	787	0	-100	0	230	101300000	1000	0	0	-1	800
9842435	7882	794	0	-100	0	230	101300000	1000	0	0	-1	800
9854995	7911	788	0	-100	0	230	101300000	1000	0	0	-1	800
9867555	7907	785	0	-100	0	230	101300000	1000	0	0	-1	800
9880115	7900	787	0	-100	0	230	101300000	1000	0	0	-1	800
9892675	7911	788	0	-100	0	230	101300000	1000	0	0	-1	800
9905235	7906	791	0	-100	0	230	101300000	1000	0	0	-1	800
9917795	7911	786	0	-100	0	230	101300000	1000	0	0	-1	800
9930355	7913	793	0	-100	0	230	101300000	1000	0	0	-1	800
9942915	7906	788	0	-100	0	230	101300000	1000	0	0	-1	800
9955475	7899	785	0	-100	0	230	101300000	1000	0	0	-1	800
9968035	7892	783	0	-100	0	230	101300000	1000	0	0	-1	800
9980595	7904	787	0	-100	0	230	101300000	1000	0	0	-1	800
9993155	7913	789	0	-100	0	230	101300000	1000	0	0	-1	800
10005715	7916	780	0	-100	0	230	101300000	1000	0	0	-1	800
10018275	7911	788	0	-100	0	230	101300000	1000	0	0	-1	800
10030835	7903	790	0	-100	0	230	101300000	1000	0	0	-1	800
10043395	7901	786	0	-100	0	230	101300000	1000	0	0	-1	800
10055955	7907	785	0	-100	0	230	101300000	1000	0	0	-1	800
10068515	7907	785	0	-100	0	230	101300000	1000	0	0	-1	800
10081075	7915	794	0	-100	0	230	101300000	1000	0	0	-1	800
10093635	7908	793	0	-100	0	230	101300000	1000	0	0	-1	800
10106195	7918	789	0	-100	0	230	101300000	1000	0	0	-1	800
10118755	7904	785	0	-100	0	230	101300000	1000	0	0	-1	800
10131315	7892	782	0	-100	0	230	101300000	1000	0	0	-1	800
10143875	7892	786	0	-100	0	230	101300000	1000	0	0	-1	800
10156435	7899	793	0	-100	0	230	101300000	1000	0	0	-1	800
10168995	7904	789	0	-100	0	230	101300000	1000	0	0	-1	800
10181555	7911	784	0	-100	0	230	101300000	1000	0	0	-1	800
10194115	7909	786	0	-100	0	230	101300000	1000	0	0	-1	800
10206675	7902	789	0	-100	0	230	101300000	1000	0	0	-1	800
10219235	7911	786	0	-100	0	230	101300000	1000	0	0	-1	800
10231795	7907	787	0	-100	0	230	101300000	1000	0	0	-1	800
10244355	7906	789	0	-100	0	230	101300000	1000	0	0	-1	800
10256915	7903	792	0	-100	0	230	101300000	1000	0	0	-1	800
10269475	7901	790	0	-100	0	230	101300000	1000	0	0	-1	800
10282035	7892	789	0	-100	0	230	101300000	1000	0	0	-1	800
10294595	7885	788	0	-100	0	230	101300000	1000	0	0	-1	800
10307155	7904	792	0	-100	0	230	101300000	1000	0	0	-1	800
10319715	7913	787	0	-100	0	230	101300000	1000	0	0	-1	800
10332275	7904	789	0	-100	0	230	101300000	1000	0	0	-1	800
10344835	7909	782	0	-100	0	230	101300000	1000	0	0	-1	800
10357395	7880	788	0	-100	0	230	101300000	1000	0	0	-1	800
10369955	7894	787	0	-100	0	230	101300000	1000	0	0	-1	800
10382515	7904	788	0	-100	0	230	101300000	1000	0	0	-1	800
10395075	7915	782	0	-100	0	230	101300000	1000	0	0	-1	800
10407635	7880	786	0	-100	0	230	101300000	1000	0	0	-1	800
10420195	7906	788	0	-100	0	230	101300000	1000	0	0	-1	800
10432755	7898	789	0	-100	0	230	101300000	1000	0	0	-1	800
10445315	7911	785	0	-100	0	230	101300000	1000	0	0	-1	800
10457875	7913	787	0	-100	0	230	101300000	1000	0	0	-1	800
10470435	7909	789	0	-100	0	230	101300000	1000	0	0	-1	800
10482995	7899	789	0	-100	0	230	101300000	1000	0	0	-1	800
10495555	7899	784	0	-100	0	230	101300000	1000	0	0	-1	800
10508115	7908	789	0	-100	0	230	101300000	1000	0	0	-1	800
10520675	7894	792	0	-100	0	230	101300000	1000	0	0	-1	800
10533235	7916	785	0	-100	0	230	101300000	1000	0	0	-1	800
10545795	7906	789	0	-100	0	230	101300000	1000	0	0	-1	800
10558355	7909	797	0	-100	0	230	101300000	1000	0	0	-1	800
10570915	7915	787	0	-100	0	230	101300000	1000	0	0	-1	800
10583475	7911	790	0	-100	0	230	101300000	1000	0	0	-1	800
10596035	7894	787	0	-100	0	230	101300000	1000	0	0	-1	800
10608595	7916	788	0	-100	0	230	101300000	1000	0	0	-1	800
10621155	7903	789	0	-100	0	230	101300000	1000	0	0	-1	800
10633715	7908	787	0	-100	0	230	101300000	1000	0	0	-1	800
10646275	7911	783	0	-100	0	230	101300000	1000	0	0	-1	800
10658835	7891	796	0	-100	0	230	101300000	1000	0	0	-1	800
10671395	7904	794	0	-100	0	230	101300000	1000	0	0	-1	800
10683955	7894	783	0	-100	0	230	101300000	1000	0	0	-1	800
10696515	7873	790	0	-100	0	230	101300000	1000	0	0	-1	800
10709075	7918	788	0	-100	0	230	101300000	1000	0	0	-1	800
10721635	7923	788	0	-100	0	230	101300000	1000	0	0	-1	800
10734195	7894	790	0	-100	0	230	101300000	1000	0	0	-1	800
10746755	7918	790	0	-100	0	230	101300000	1000	0	0	-1	800
10759315	7889	789	0	-100	0	230	101300000	1000	0	0	-1	800
10771875	7909	786	0	-100	0	230	101300000	1000	0	0	-1	800
10784435	7923	793	0	-100	0	230	101300000	1000	0	0	-1	800
10796995	7916	789	0	-100	0	230	101300000	1000	0	0	-1	800
10809555	7911	786	0	-100	0	230	101300000	1000	0	0	-1	800
10822115	7913	789	0	-100	0	230	101300000	1000	0	0	-1	800
10834675	7906	787	0	-100	0	230	101300000	1000	0	0	-1	800
10847235	7894	786	0	-100	0	230	101300000	1000	0	0	-1	800
10859795	7901	787	0	-100	0	230	101300000	1000	0	0	-1	800
10872355	7906	787	0	-100	0	230	101300000	1000	0	0	-1	800
10884915	7904	790	0	-100	0	230	101300000	1000	0	0	-1	800
10897475	7913	792	0	-100	0	230	101300000	1000	0	0	-1	800
10910035	7909	788	0	-100	0	230	101300000	1000	0	0	-1	800
10922595	7902	789	0	-100	0	230	101300000	1000	0	0	-1	800
10935155	7898	792	0	-100	0	230	101300000	1000	0	0	-1	800
10947715	7911	785	0	-100	0	230	101300000	1000	0	0	-1	800
10960275	7897	797	0	-100	0	230	101300000	1000	0	0	-1	800
10972835	7911	787	0	-100	0	230	101300000	1000	0	0	-1	800
10985395	7904	791	0	-100	0	230	101300000	1000	0	0	-1	800
10997955	7891	793	0	-100	0	230	101300000	1000	0	0	-1	800
11010515	7906	786	0	-100	0	230	101300000	1000	0	0	-1	800
11023075	7906	790	0	-100	0	230	101300000	1000	0	0	-1	800
11035635	7897	791	0	-100	0	230	101300000	1000	0	0	-1	800
11048195	7927	792	0	-100	0	230	101300000	1000	0	0	-1	800
11060755	7887	788	0	-100	0	230	101300000	1000	0	0	-1	800
11073315	7899	792	0	-100	0	230	101300000	1000	0	0	-1	800
11085875	7911	791	0	-100	0	230	101300000	1000	0	0	-1	800
11098435	7887	794	0	-100	0	230	101300000	1000	0	0	-1	800
11110995	7904	788	0	-100	0	230	101300000	1000	0	0	-1	800
11123555	7923	788	0	-100	0	230	101300000	1000	0	0	-1	800
11136115	7902	788	0	-100	0	230	101300000	1000	0	0	-1	800
11148675	7899	790	0	-100	0	230	101300000	1000	0	0	-1	800
11161235	7913	786	0	-100	0	230	101300000	1000	0	0	-1	800
11173795	7911	782	0	-100	0	230	101300000	1000	0	0	-1	800
11186355	7916	787	0	-100	0	230	101300000	1000	0	0	-1	800
11198915	7901	789	0	-100	0	230	101300000	1000	0	0	-1	800
11211475	7908	786	0	-100	0	230	101300000	1000	0	0	-1	800
11224035	7892	790	0	-100	0	230	101300000	1000	0	0	-1	800
11236595	7906	793	0	-100	0	230	101300000	1000	0	0	-1	800
11249155	7908	795	0	-100	0	230	101300000	1000	0	0	-1	800
11261715	7898	792	0	-100	0	230	101300000	1000	0	0	-1	800
11274275	7901	792	0	-100	0	230	101300000	1000	0	0	-1	800
11286835	7889	792	0	-100	0	230	101300000	1000	0	0	-1	800
11299395	7877	795	0	-100	0	230	101300000	1000	0	0	-1	800
11311955	7902	789	0	-100	0	230	101300000	1000	0	0	-1	800
11324515	7906	786	0	-100	0	230	101300000	1000	0	0	-1	800
11337075	7900	788	0	-100	0	230	101300000	1000	0	0	-1	800
11349635	7875	786	0	-100	0	230	101300000	1000	0	0	-1	800
11362195	7904	785	0	-100	0	230	101300000	1000	0	0	-1	800
11374755	7885	790	0	-100	0	230	101300000	1000	0	0	-1	800
11387315	7904	791	0	-100	0	230	101300000	1000	0	0	-1	800
11399875	7909	790	0	-100	0	230	101300000	1000	0	0	-1	800
11412435	7904	792	0	-100	0	230	101300000	1000	0	0	-1	800
11424995	7908	798	0	-100	0	230	101300000	1000	0	0	-1	800
11437555	7906	790	0	-100	0	230	101300000	1000	0	0	-1	800
11450115	7906	789	0	-100	0	230	101300000	1000	0	0	-1	800
11462675	7909	786	0	-100	0	230	101300000	1000	0	0	-1	800
11475235	7899	785	0	-100	0	230	101300000	1000	0	0	-1	800
11487795	7882	792	0	-100	0	230	101300000	1000	0	0	-1	800
11500355	7887	794	0	-100	0	230	101300000	1000	0	0	-1	800
11512915	7887	793	0	-100	0	230	101300000	1000	0	0	-1	800
11525475	7904	791	0	-100	0	230	101300000	1000	0	0	-1	800
11538035	7921	784	0	-100	0	230	101300000	1000	0	0	-1	800
11550595	7897	787	0	-100	0	230	101300000	1000	0	0	-1	800
11563155	7896	797	0	-100	0	230	101300000	1000	0	0	-1	800
11575715	7898	791	0	-100	0	230	101300000	1000	0	0	-1	800
11588275	7891	789	0	-100	0	230	101300000	1000	0	0	-1	800
11600835	7906	787	0	-100	0	230	101300000	1000	0	0	-1	800
11613395	7904	792	0	-100	0	230	101300000	1000	0	0	-1	800
11625955	7921	795	0	-100	0	230	101300000	1000	0	0	-1	800
11638515	7875	794	0	-100	0	230	101300000	1000	0	0	-1	800
11651075	7890	790	0	-100	0	230	101300000	1000	0	0	-1	800
11663635	7892	788	0	-100	0	230	101300000	1000	0	0	-1	800
11676195	7913	789	0	-100	0	230	101300000	1000	0	0	-1	800
11688755	7918	793	0	-100	0	230	101300000	1000	0	0	-1	800
11701315	7915	791	0	-100	0	230	101300000	1000	0	0	-1	800
11713875	7908	787	0	-100	0	230	101300000	1000	0	0	-1	800
11726435	7908	787	0	-100	0	230	101300000	1000	0	0	-1	800
11738995	7916	788	0	-100	0	230	101300000	1000	0	0	-1	800
11751555	7907	784	0	-100	0	230	101300000	1000	0	0	-1	800
11764115	7921	780	0	-100	0	230	101300000	1000	0	0	-1	800
11776675	7888	790	0	-100	0	230	101300000	1000	0	0	-1	800
11789235	7887	786	0	-100	0	230	101300000	1000	0	0	-1	800
11801795	7908	789	0	-100	0	230	101300000	1000	0	0	-1	800
11814355	7903	789	0	-100	0	230	101300000	1000	0	0	-1	800
11826915	7904	792	0	-100	0	230	101300000	1000	0	0	-1	800
11839475	7901	794	0	-100	0	230	101300000	1000	0	0	-1	800
11852035	7911	794	0	-100	0	230	101300000	1000	0	0	-1	800
11864595	7904	788	0	-100	0	230	101300000	1000	0	0	-1	800
11877155	7901	793	0	-100	0	230	101300000	1000	0	0	-1	800
11889715	7904	788	0	-100	0	230	101300000	1000	0	0	-1	800
11902275	7904	787	0	-100	0	230	101300000	1000	0	0	-1	800
11914835	7894	788	0	-100	0	230	101300000	1000	0	0	-1	800
11927395	7909	791	0	-100	0	230	101300000	1000	0	0	-1	800
11939955	7907	787	0	-100	0	230	101300000	1000	0	0	-1	800
11952515	7906	791	0	-100	0	230	101300000	1000	0	0	-1	800
11965075	7911	788	0	-100	0	230	101300000	1000	0	0	-1	800
11977635	7909	792	0	-100	0	230	101300000	1000	0	0	-1	800
11990195	7916	784	0	-100	0	230	101300000	1000	0	0	-1	800
12002755	7911	786	0	-100	0	230	101300000	1000	0	0	-1	800
12015315	7911	787	0	-100	0	230	101300000	1000	0	0	-1	800
12027875	7897	780	0	-100	0	230	101300000	1000	0	0	-1	800
12040435	7899	792	0	-100	0	230	101300000	1000	0	0	-1	800
12052995	7911	787	0	-100	0	230	101300000	1000	0	0	-1	800
12065555	7892	791	0	-100	0	230	101300000	1000	0	0	-1	800
12078115	7904	793	0	-100	0	230	101300000	1000	0	0	-1	800
12090675	7896	788	0	-100	0	230	101300000	1000	0	0	-1	800
12103235	7911	789	0	-100	0	230	101300000	1000	0	0	-1	800
12115795	7916	786	0	-100	0	230	101300000	1000	0	0	-1	800
12128355	7889	790	0	-100	0	230	101300000	1000	0	0	-1	800
12140915	7906	788	0	-100	0	230	101300000	1000	0	0	-1	800
12153475	7904	786	0	-100	0	230	101300000	1000	0	0	-1	800
12166035	7906	789	0	-100	0	230	101300000	1000	0	0	-1	800
12178595	7906	787	0	-100	0	230	101300000	1000	0	0	-1	800
12191155	7889	787	0	-100	0	230	101300000	1000	0	0	-1	800
12203715	7904	789	0	-100	0	230	101300000	1000	0	0	-1	800
12216275	7904	790	0	-100	0	230	101300000	1000	0	0	-1	800
12228835	7911	789	0	-100	0	230	101300000	1000	0	0	-1	800
12241395	7906	787	0	-100	0	230	101300000	1000	0	0	-1	800
12253955	7909	788	0	-100	0	230	101300000	1000	0	0	-1	800
12266515	7911	785	0	-100	0	230	101300000	1000	0	0	-1	800
12279075	7916	785	0	-100	0	230	101300000	1000	0	0	-1	800
12291635	7916	786	0	-100	0	230	101300000	1000	0	0	-1	800
12304195	7896	786	0	-100	0	230	101300000	1000	0	0	-1	800
12316755	7901	785	0	-100	0	230	101300000	1000	0	0	-1	800
12329315	7896	793	0	-100	0	230	101300000	1000	0	0	-1	800
12341875	7911	792	0	-100	0	230	101300000	1000	0	0	-1	800
12354435	7906	795	0	-100	0	230	101300000	1000	0	0	-1	800
12366995	7887	788	0	-100	0	230	101300000	1000	0	0	-1	800
12379555	7882	789	0	-100	0	230	101300000	1000	0	0	-1	800
12392115	7903	792	0	-100	0	230	101300000	1000	0	0	-1	800
12404675	7901	787	0	-100	0	230	101300000	1000	0	0	-1	800
12417235	7916	786	0	-100	0	230	101300000	1000	0	0	-1	800
12429795	7892	789	0	-100	0	230	101300000	1000	0	0	-1	800
12442355	7906	791	0	-100	0	230	101300000	1000	0	0	-1	800
12454915	7901	790	0	-100	0	230	101300000	1000	0	0	-1	800
12467475	7904	789	0	-100	0	230	101300000	1000	0	0	-1	800
12480035	7894	787	0	-100	0	230	101300000	1000	0	0	-1	800
12492595	7902	794	0	-100	0	230	101300000	1000	0	0	-1	800
12505155	7899	792	0	-100	0	230	101300000	1000	0	0	-1	800
12517715	7882	793	0	-100	0	230	101300000	1000	0	0	-1	800
12530275	7901	795	0	-100	0	230	101300000	1000	0	0	-1	800
12542835	7909	791	0	-100	0	230	101300000	1000	0	0	-1	800
12555395	7903	786	0	-100	0	230	101300000	1000	0	0	-1	800
12567955	7894	784	0	-100	0	230	101300000	1000	0	0	-1	800
12580515	7909	790	0	-100	0	230	101300000	1000	0	0	-1	800
12593075	7916	792	0	-100	0	230	101300000	1000	0	0	-1	800
12605635	7908	790	0	-100	0	230	101300000	1000	0	0	-1	800
12618195	7887	791	0	-100	0	230	101300000	1000	0	0	-1	800
12630755	7894	788	0	-100	0	230	101300000	1000	0	0	-1	800
12643315	7894	790	0	-100	0	230	101300000	1000	0	0	-1	800
12655875	7904	787	0	-100	0	230	101300000	1000	0	0	-1	800
12668435	7923	787	0	-100	0	230	101300000	1000	0	0	-1	800
12680995	7909	790	0	-100	0	230	101300000	1000	0	0	-1	800
12693555	7911	790	0	-100	0	230	101300000	1000	0	0	-1	800
12706115	7897	790	0	-100	0	230	101300000	1000	0	0	-1	800
12718675	7911	788	0	-100	0	230	101300000	1000	0	0	-1	800
12731235	7918	790	0	-100	0	230	101300000	1000	0	0	-1	800
12743795	7903	789	0	-100	0	230	101300000	1000	0	0	-1	800
12756355	7915	788	0	-100	0	230	101300000	1000	0	0	-1	800
12768915	7892	789	0	-100	0	230	101300000	1000	0	0	-1	800
12781475	7899	788	0	-100	0	230	101300000	1000	0	0	-1	800
12794035	7911	788	0	-100	0	230	101300000	1000	0	0	-1	800
12806595	7899	787	0	-100	0	230	101300000	1000	0	0	-1	800
12819155	7911	790	0	-100	0	230	101300000	1000	0	0	-1	800
12831715	7894	787	0	-100	0	230	101300000	1000	0	0	-1	800
12844275	7913	792	0	-100	0	230	101300000	1000	0	0	-1	800
12856835	7901	787	0	-100	0	230	101300000	1000	0	0	-1	800
12869395	7908	792	0	-100	0	230	101300000	1000	0	0	-1	800
12881955	7906	793	0	-100	0	230	101300000	1000	0	0	-1	800
12894515	7916	788	0	-100	0	230	101300000	1000	0	0	-1	800
12907075	7918	788	0	-100	0	230	101300000	1000	0	0	-1	800
12919635	7909	794	0	-100	0	230	101300000	1000	0	0	-1	800
12932195	7899	790	0	-100	0	230	101300000	1000	0	0	-1	800
12944755	7908	787	0	-100	0	230	101300000	1000	0	0	-1	800
12957315	7899	789	0	-100	0	230	101300000	1000	0	0	-1	800
12969875	7913	791	0	-100	0	230	101300000	1000	0	0	-1	800
12982435	7918	790	0	-100	0	230	101300000	1000	0	0	-1	800
12994995	7882	793	0	-100	0	230	101300000	1000	0	0	-1	800
13007555	7906	793	0	-100	0	230	101300000	1000	0	0	-1	800
13020115	7916	782	0	-100	0	230	101300000	1000	0	0	-1	800
13032675	7909	790	0	-100	0	230	101300000	1000	0	0	-1	800
13045235	7891	792	0	-100	0	230	101300000	1000	0	0	-1	800
13057795	7896	790	0	-100	0	230	101300000	1000	0	0	-1	800
13070355	7894	781	0	-100	0	230	101300000	1000	0	0	-1	800
13082915	7894	788	0	-100	0	230	101300000	1000	0	0	-1	800
13095475	7911	789	0	-100	0	230	101300000	1000	0	0	-1	800
13108035	7904	790	0	-100	0	230	101300000	1000	0	0	-1	800
13120595	7908	789	0	-100	0	230	101300000	1000	0	0	-1	800
13133155	7913	790	0	-100	0	230	101300000	1000	0	0	-1	800
13145715	7906	791	0	-100	0	230	101300000	1000	0	0	-1	800
13158275	7887	787	0	-100	0	230	101300000	1000	0	0	-1	800
13170835	7897	796	0	-100	0	230	101300000	1000	0	0	-1	800
13183395	7895	793	0	-100	0	230	101300000	1000	0	0	-1	800
13195955	7909	792	0	-100	0	230	101300000	1000	0	0	-1	800
13208515	7897	789	0	-100	0	230	101300000	1000	0	0	-1	800
13221075	7904	788	0	-100	0	230	101300000	1000	0	0	-1	800
13233635	7901	791	0	-100	0	230	101300000	1000	0	0	-1	800
13246195	7891	791	0	-100	0	230	101300000	1000	0	0	-1	800
13258755	7916	788	0	-100	0	230	101300000	1000	0	0	-1	800
13271315	7894	791	0	-100	0	230	101300000	1000	0	0	-1	800
13283875	7911	787	0	-100	0	230	101300000	1000	0	0	-1	800
13296435	7887	789	0	-100	0	230	101300000	1000	0	0	-1	800
13308995	7918	792	0	-100	0	230	101300000	1000	0	0	-1	800
13321555	7911	788	0	-100	0	230	101300000	1000	0	0	-1	800
13334115	7897	788	0	-100	0	230	101300000	1000	0	0	-1	800
13346675	7914	780	0	-100	0	230	101300000	1000	0	0	-1	800
13359235	7899	789	0	-100	0	230	101300000	1000	0	0	-1	800
13371795	7908	792	0	-100	0	230	101300000	1000	0	0	-1	800
13384355	7892	788	0	-100	0	230	101300000	1000	0	0	-1	800
13396915	7903	793	0	-100	0	230	101300000	1000	0	0	-1	800
13409475	7904	792	0	-100	0	230	101300000	1000	0	0	-1	800
13422035	7911	787	0	-100	0	230	101300000	1000	0	0	-1	800
13434595	7911	786	0	-100	0	230	101300000	1000	0	0	-1	800
13447155	7916	786	0	-100	0	230	101300000	1000	0	0	-1	800
13459715	7911	785	0	-100	0	230	101300000	1000	0	0	-1	800
13472275	7892	786	0	-100	0	230	101300000	1000	0	0	-1	800
13484835	7922	787	0	-100	0	230	101300000	1000	0	0	-1	800
13497395	7880	788	0	-100	0	230	101300000	1000	0	0	-1	800
13509955	7901	796	0	-100	0	230	101300000	1000	0	0	-1	800
13522515	7907	784	0	-100	0	230	101300000	1000	0	0	-1	800
13535075	7909	793	0	-100	0	230	101300000	1000	0	0	-1	800
13547635	7913	784	0	-100	0	230	101300000	1000	0	0	-1	800
13560195	7914	790	0	-100	0	230	101300000	1000	0	0	-1	800
13572755	7901	792	0	-100	0	230	101300000	1000	0	0	-1	800
13585315	7896	791	0	-100	0	230	101300000	1000	0	0	-1	800
13597875	7909	787	0	-100	0	230	101300000	1000	0	0	-1	800
13610435	7899	790	0	-100	0	230	101300000	1000	0	0	-1	800
13622995	7909	789	0	-100	0	230	101300000	1000	0	0	-1	800
13635555	7889	791	0	-100	0	230	101300000	1000	0	0	-1	800
13648115	7906	790	0	-100	0	230	101300000	1000	0	0	-1	800
13660675	7922	787	0	-100	0	230	101300000	1000	0	0	-1	800
13673235	7921	787	0	-100	0	230	101300000	1000	0	0	-1	800
13685795	7906	790	0	-100	0	230	101300000	1000	0	0	-1	800
13698355	7902	791	0	-100	0	230	101300000	1000	0	0	-1	800
13710915	7898	788	0	-100	0	230	101300000	1000	0	0	-1	800
13723475	7897	796	0	-100	0	230	101300000	1000	0	0	-1	800
13736035	7911	792	0	-100	0	230	101300000	1000	0	0	-1	800
13748595	7901	787	0	-100	0	230	101300000	1000	0	0	-1	800
13761155	7913	791	0	-100	0	230	101300000	1000	0	0	-1	800
13773715	7903	796	0	-100	0	230	101300000	1000	0	0	-1	800
13786275	7899	793	0	-100	0	230	101300000	1000	0	0	-1	800
13798835	7906	792	0	-100	0	230	101300000	1000	0	0	-1	800
13811395	7897	792	0	-100	0	230	101300000	1000	0	0	-1	800
13823955	7901	791	0	-100	0	230	101300000	1000	0	0	-1	800
13836515	7916	789	0	-100	0	230	101300000	1000	0	0	-1	800
13849075	7904	792	0	-100	0	230	101300000	1000	0	0	-1	800
13861635	7904	795	0	-100	0	230	101300000	1000	0	0	-1	800
13874195	7921	792	0	-100	0	230	101300000	1000	0	0	-1	800
13886755	7909	789	0	-100	0	230	101300000	1000	0	0	-1	800
13899315	7897	788	0	-100	0	230	101300000	1000	0	0	-1	800
13911875	7911	788	0	-100	0	230	101300000	1000	0	0	-1	800
13924435	7915	786	0	-100	0	230	101300000	1000	0	0	-1	800
13936995	7918	785	0	-100	0	230	101300000	1000	0	0	-1	800
13949555	7872	791	0	-100	0	230	101300000	1000	0	0	-1	800
13962115	7908	788	0	-100	0	230	101300000	1000	0	0	-1	800
13974675	7906	793	0	-100	0	230	101300000	1000	0	0	-1	800
13987235	7908	792	0	-100	0	230	101300000	1000	0	0	-1	800
13999795	7904	797	0	-100	0	230	101300000	1000	0	0	-1	800
14012355	7908	789	0	-100	0	230	101300000	1000	0	0	-1	800
14024915	7906	790	0	-100	0	230	101300000	1000	0	0	-1	800
14037475	7907	786	0	-100	0	230	101300000	1000	0	0	-1	800
14050035	7907	786	0	-100	0	230	101300000	1000	0	0	-1	800
14062595	7926	789	0	-100	0	230	101300000	1000	0	0	-1	800
14075155	7897	787	0	-100	0	230	101300000	1000	0	0	-1	800
14087715	7894	790	0	-100	0	230	101300000	1000	0	0	-1	800
14100275	7908	793	0	-100	0	230	101300000	1000	0	0	-1	800
14112835	7916	794	0	-100	0	230	101300000	1000	0	0	-1	800
14125395	7921	794	0	-100	0	230	101300000	1000	0	0	-1	800
14137955	7911	785	0	-100	0	230	101300000	1000	0	0	-1	800
14150515	7897	789	0	-100	0	230	101300000	1000	0	0	-1	800
14163075	7909	787	0	-100	0	230	101300000	1000	0	0	-1	800
14175635	7898	789	0	-100	0	230	101300000	1000	0	0	-1	800
14188195	7901	791	0	-100	0	230	101300000	1000	0	0	-1	800
14200755	7908	792	0	-100	0	230	101300000	1000	0	0	-1	800
14213315	7903	793	0	-100	0	230	101300000	1000	0	0	-1	800
14225875	7901	790	0	-100	0	230	101300000	1000	0	0	-1	800
14238435	7906	789	0	-100	0	230	101300000	1000	0	0	-1	800
14250995	7912	771	0	-100	0	230	101300000	1000	0	0	-1	800
14263555	7925	785	0	-100	0	230	101300000	1000	0	0	-1	800
14276115	7911	793	0	-100	0	230	101300000	1000	0	0	-1	800
14288675	7909	789	0	-100	0	230	101300000	1000	0	0	-1	800
14301235	7897	791	0	-100	0	230	101300000	1000	0	0	-1	800
14313795	7901	795	0	-100	0	230	101300000	1000	0	0	-1	800
14326355	7882	789	0	-100	0	230	101300000	1000	0	0	-1	800
14338915	7915	793	0	-100	0	230	101300000	1000	0	0	-1	800
14351475	7897	789	0	-100	0	230	101300000	1000	0	0	-1	800
14364035	7911	796	0	-100	0	230	101300000	1000	0	0	-1	800
14376595	7913	791	0	-100	0	230	101300000	1000	0	0	-1	800
14389155	7923	791	0	-100	0	230	101300000	1000	0	0	-1	800
14401715	7911	789	0	-100	0	230	101300000	1000	0	0	-1	800
14414275	7921	787	0	-100	0	230	101300000	1000	0	0	-1	800
14426835	7921	784	0	-100	0	230	101300000	1000	0	0	-1	800
14439395	7887	793	0	-100	0	230	101300000	1000	0	0	-1	800
14451955	7902	790	0	-100	0	230	101300000	1000	0	0	-1	800
14464515	7902	791	0	-100	0	230	101300000	1000	0	0	-1	800
14477075	7921	788	0	-100	0	230	101300000	1000	0	0	-1	800
14489635	7909	790	0	-100	0	230	101300000	1000	0	0	-1	800
14502195	7899	788	0	-100	0	230	101300000	1000	0	0	-1	800
14514755	7904	794	0	-100	0	230	101300000	1000	0	0	-1	800
14527315	7899	791	0	-100	0	230	101300000	1000	0	0	-1	800
14539875	7896	789	0	-100	0	230	101300000	1000	0	0	-1	800
14552435	7911	787	0	-100	0	230	101300000	1000	0	0	-1	800
14564995	7908	791	0	-100	0	230	101300000	1000	0	0	-1	800
14577555	7909	788	0	-100	0	230	101300000	1000	0	0	-1	800
14590115	7907	784	0	-100	0	230	101300000	1000	0	0	-1	800
14602675	7913	788	0	-100	0	230	101300000	1000	0	0	-1	800
14615235	7899	787	0	-100	0	230	101300000	1000	0	0	-1	800
14627795	7913	790	0	-100	0	230	101300000	1000	0	0	-1	800
14640355	7911	787	0	-100	0	230	101300000	1000	0	0	-1	800
14652915	7911	792	0	-100	0	230	101300000	1000	0	0	-1	800
14665475	7918	793	0	-100	0	230	101300000	1000	0	0	-1	800
14678035	7904	792	0	-100	0	230	101300000	1000	0	0	-1	800
14690595	7911	788	0	-100	0	230	101300000	1000	0	0	-1	800
14703155	7897	791	0	-100	0	230	101300000	1000	0	0	-1	800
14715715	7912	791	0	-100	0	230	101300000	1000	0	0	-1	800
14728275	7904	786	0	-100	0	230	101300000	1000	0	0	-1	800
14740835	7911	787	0	-100	0	230	101300000	1000	0	0	-1	800
14753395	7906	787	0	-100	0	230	101300000	1000	0	0	-1	800
14765955	7915	791	0	-100	0	230	101300000	1000	0	0	-1	800
14778515	7908	794	0	-100	0	230	101300000	1000	0	0	-1	800
14791075	7916	794	0	-100	0	230	101300000	1000	0	0	-1	800
14803635	7903	795	0	-100	0	230	101300000	1000	0	0	-1	800
14816195	7906	790	0	-100	0	230	101300000	1000	0	0	-1	800
14828755	7904	790	0	-100	0	230	101300000	1000	0	0	-1	800
14841315	7899	785	0	-100	0	230	101300000	1000	0	0	-1	800
14853875	7884	792	0	-100	0	230	101300000	1000	0	0	-1	800
14866435	7909	795	0	-100	0	230	101300000	1000	0	0	-1	800
14878995	7908	792	0	-100	0	230	101300000	1000	0	0	-1	800
14891555	7913	791	0	-100	0	230	101300000	1000	0	0	-1	800
14904115	7902	792	0	-100	0	230	101300000	1000	0	0	-1	800
14916675	7906	792	0	-100	0	230	101300000	1000	0	0	-1	800
14929235	7917	789	0	-100	0	230	101300000	1000	0	0	-1	800
14941795	7898	795	0	-100	0	230	101300000	1000	0	0	-1	800
14954355	7903	789	0	-100	0	230	101300000	1000	0	0	-1	800
14966915	7908	788	0	-100	0	230	101300000	1000	0	0	-1	800
14979475	7904	792	0	-100	0	230	101300000	1000	0	0	-1	800
14992035	7913	791	0	-100	0	230	101300000	1000	0	0	-1	800
15004595	7899	795	0	-100	0	230	101300000	1000	0	0	-1	800
15017155	7909	790	0	-100	0	230	101300000	1000	0	0	-1	800
15029715	7913	787	0	-100	0	230	101300000	1000	0	0	-1	800
15042275	7901	792	0	-100	0	230	101300000	1000	0	0	-1	800
15054835	7911	790	0	-100	0	230	101300000	1000	0	0	-1	800
15067395	7895	793	0	-100	0	230	101300000	1000	0	0	-1	800
15079955	7890	792	0	-100	0	230	101300000	1000	0	0	-1	800
15092515	7916	786	0	-100	0	230	101300000	1000	0	0	-1	800
15105075	7911	792	0	-100	0	230	101300000	1000	0	0	-1	800
15117635	7908	793	0	-100	0	230	101300000	1000	0	0	-1	800
15130195	7911	791	0	-100	0	230	101300000	1000	0	0	-1	800
15142755	7918	787	0	-100	0	230	101300000	1000	0	0	-1	800
15155315	7917	790	0	-100	0	230	101300000	1000	0	0	-1	800
15167875	7906	787	0	-100	0	230	101300000	1000	0	0	-1	800
15180435	7892	786	0	-100	0	230	101300000	1000	0	0	-1	800
15192995	7895	790	0	-100	0	230	101300000	1000	0	0	-1	800
15205555	7913	794	0	-100	0	230	101300000	1000	0	0	-1	800
15218115	7913	789	0	-100	0	230	101300000	1000	0	0	-1	800
15230675	7894	792	0	-100	0	230	101300000	1000	0	0	-1	800
15243235	7894	791	0	-100	0	230	101300000	1000	0	0	-1	800
15255795	7901	791	0	-100	0	230	101300000	1000	0	0	-1	800
15268355	7907	789	0	-100	0	230	101300000	1000	0	0	-1	800
15280915	7891	791	0	-100	0	230	101300000	1000	0	0	-1	800
15293475	7902	789	0	-100	0	230	101300000	1000	0	0	-1	800
15306035	7890	789	0	-100	0	230	101300000	1000	0	0	-1	800
15318595	7899	793	0	-100	0	230	101300000	1000	0	0	-1	800
15331155	7911	792	0	-100	0	230	101300000	1000	0	0	-1	800
15343715	7906	793	0	-100	0	230	101300000	1000	0	0	-1	800
15356275	7904	787	0	-100	0	230	101300000	1000	0	0	-1	800
15368835	7908	788	0	-100	0	230	101300000	1000	0	0	-1	800
15381395	7908	792	0	-100	0	230	101300000	1000	0	0	-1	800
15393955	7897	791	0	-100	0	230	101300000	1000	0	0	-1	800
15406515	7916	789	0	-100	0	230	101300000	1000	0	0	-1	800
15419075	7913	790	0	-100	0	230	101300000	1000	0	0	-1	800
15431635	7901	787	0	-100	0	230	101300000	1000	0	0	-1	800
15444195	7916	789	0	-100	0	230	101300000	1000	0	0	-1	800
15456755	7918	786	0	-100	0	230	101300000	1000	0	0	-1	800
15469315	7915	787	0	-100	0	230	101300000	1000	0	0	-1	800
15481875	7906	789	0	-100	0	230	101300000	1000	0	0	-1	800
15494435	7899	791	0	-100	0	230	101300000	1000	0	0	-1	800
15506995	7908	787	0	-100	0	230	101300000	1000	0	0	-1	800
15519555	7894	791	0	-100	0	230	101300000	1000	0	0	-1	800
15532115	7901	792	0	-100	0	230	101300000	1000	0	0	-1	800
15544675	7894	792	0	-100	0	230	101300000	1000	0	0	-1	800
15557235	7916	791	0	-100	0	230	101300000	1000	0	0	-1	800
15569795	7923	789	0	-100	0	230	101300000	1000	0	0	-1	800
15582355	7913	792	0	-100	0	230	101300000	1000	0	0	-1	800
15594915	7911	789	0	-100	0	230	101300000	1000	0	0	-1	800
15607475	7899	790	0	-100	0	230	101300000	1000	0	0	-1	800
15620035	7897	796	0	-100	0	230	101300000	1000	0	0	-1	800
15632595	7896	796	0	-100	0	230	101300000	1000	0	0	-1	800
15645155	7916	791	0	-100	0	230	101300000	1000	0	0	-1	800
15657715	7904	795	0	-100	0	230	101300000	1000	0	0	-1	800
15670275	7916	792	0	-100	0	230	101300000	1000	0	0	-1	800
15682835	7906	793	0	-100	0	230	101300000	1000	0	0	-1	800
15695395	7906	792	0	-100	0	230	101300000	1000	0	0	-1	800
15707955	7895	789	0	-100	0	230	101300000	1000	0	0	-1	800
15720515	7894	792	0	-100	0	230	101300000	1000	0	0	-1	800
15733075	7894	792	0	-100	0	230	101300000	1000	0	0	-1	800
15745635	7915	792	0	-100	0	230	101300000	1000	0	0	-1	800
15758195	7892	785	0	-100	0	230	101300000	1000	0	0	-1	800
15770755	7868	785	0	-100	0	230	101300000	1000	0	0	-1	800
15783315	7912	788	0	-100	0	230	101300000	1000	0	0	-1	800
15795875	7901	795	0	-100	0	230	101300000	1000	0	0	-1	800
15808435	7897	791	0	-100	0	230	101300000	1000	0	0	-1	800
15820995	7889	792	0	-100	0	230	101300000	1000	0	0	-1	800
15833555	7904	792	0	-100	0	230	101300000	1000	0	0	-1	800
15846115	7903	787	0	-100	0	230	101300000	1000	0	0	-1	800
15858675	7896	787	0	-100	0	230	101300000	1000	0	0	-1	800
15871235	7921	788	0	-100	0	230	101300000	1000	0	0	-1	800
15883795	7910	786	0	-100	0	230	101300000	1000	0	0	-1	800
15896355	7907	789	0	-100	0	230	101300000	1000	0	0	-1	800
15908915	7913	788	0	-100	0	230	101300000	1000	0	0	-1	800
15921475	7906	792	0	-100	0	230	101300000	1000	0	0	-1	800
15934035	7892	789	0	-100	0	230	101300000	1000	0	0	-1	800
15946595	7875	791	0	-100	0	230	101300000	1000	0	0	-1	800
15959155	7908	771	0	-100	0	230	101300000	1000	0	0	-1	800
15971715	7913	789	0	-100	0	230	101300000	1000	0	0	-1	800
15984275	7906	790	0	-100	0	230	101300000	1000	0	0	-1	800
15996835	7897	792	0	-100	0	230	101300000	1000	0	0	-1	800
16009395	7894	791	0	-100	0	230	101300000	1000	0	0	-1	800
16021955	7898	787	0	-100	0	230	101300000	1000	0	0	-1	800
16034515	7901	786	0	-100	0	230	101300000	1000	0	0	-1	800
16047075	7901	783	0	-100	0	230	101300000	1000	0	0	-1	800
16059635	7911	792	0	-100	0	230	101300000	1000	0	0	-1	800
16072195	7897	785	0	-100	0	230	101300000	1000	0	0	-1	800
16084755	7899	792	0	-100	0	230	101300000	1000	0	0	-1	800
16097315	7901	793	0	-100	0	230	101300000	1000	0	0	-1	800
16109875	7916	789	0	-100	0	230	101300000	1000	0	0	-1	800
16122435	7908	795	0	-100	0	230	101300000	1000	0	0	-1	800
16134995	7901	793	0	-100	0	230	101300000	1000	0	0	-1	800
16147555	7909	790	0	-100	0	230	101300000	1000	0	0	-1	800
16160115	7887	791	0	-100	0	230	101300000	1000	0	0	-1	800
16172675	7916	792	0	-100	0	230	101300000	1000	0	0	-1	800
16185235	7921	790	0	-100	0	230	101300000	1000	0	0	-1	800
16197795	7904	791	0	-100	0	230	101300000	1000	0	0	-1	800
16210355	7890	790	0	-100	0	230	101300000	1000	0	0	-1	800
16222915	7917	786	0	-100	0	230	101300000	1000	0	0	-1	800
16235475	7897	789	0	-100	0	230	101300000	1000	0	0	-1	800
16248035	7907	789	0	-100	0	230	101300000	1000	0	0	-1	800
16260595	7911	796	0	-100	0	230	101300000	1000	0	0	-1	800
16273155	7894	792	0	-100	0	230	101300000	1000	0	0	-1	800
16285715	7908	792	0	-100	0	230	101300000	1000	0	0	-1	800
16298275	7904	788	0	-100	0	230	101300000	1000	0	0	-1	800
16310835	7911	793	0	-100	0	230	101300000	1000	0	0	-1	800
16323395	7904	792	0	-100	0	230	101300000	1000	0	0	-1	800
16335955	7906	790	0	-100	0	230	101300000	1000	0	0	-1	800
16348515	7897	788	0	-100	0	230	101300000	1000	0	0	-1	800
16361075	7890	787	0	-100	0	230	101300000	1000	0	0	-1	800
16373635	7907	789	0	-100	0	230	101300000	1000	0	0	-1	800
16386195	7904	789	0	-100	0	230	101300000	1000	0	0	-1	800
16398755	7906	786	0	-100	0	230	101300000	1000	0	0	-1	800
16411315	7906	794	0	-100	0	230	101300000	1000	0	0	-1	800
16423875	7896	787	0	-100	0	230	101300000	1000	0	0	-1	800
16436435	7906	791	0	-100	0	230	101300000	1000	0	0	-1	800
16448995	7891	791	0	-100	0	230	101300000	1000	0	0	-1	800
16461555	7906	792	0	-100	0	230	101300000	1000	0	0	-1	800
16474115	7909	769	0	-100	0	230	101300000	1000	0	0	-1	800
16486675	7892	789	0	-100	0	230	101300000	1000	0	0	-1	800
16499235	7906	787	0	-100	0	230	101300000	1000	0	0	-1	800
16511795	7903	797	0	-100	0	230	101300000	1000	0	0	-1	800
16524355	7908	794	0	-100	0	230	101300000	1000	0	0	-1	800
16536915	7911	793	0	-100	0	230	101300000	1000	0	0	-1	800
16549475	7914	788	0	-100	0	230	101300000	1000	0	0	-1	800
16562035	7904	793	0	-100	0	230	101300000	1000	0	0	-1	800
16574595	7896	792	0	-100	0	230	101300000	1000	0	0	-1	800
16587155	7904	790	0	-100	0	230	101300000	1000	0	0	-1	800
16599715	7899	787	0	-100	0	230	101300000	1000	0	0	-1	800
16612275	7911	783	0	-100	0	230	101300000	1000	0	0	-1	800
16624835	7908	793	0	-100	0	230	101300000	1000	0	0	-1	800
16637395	7899	789	0	-100	0	230	101300000	1000	0	0	-1	800
16649955	7899	792	0	-100	0	230	101300000	1000	0	0	-1	800
16662515	7901	794	0	-100	0	230	101300000	1000	0	0	-1	800
16675075	7908	792	0	-100	0	230	101300000	1000	0	0	-1	800
16687635	7906	792	0	-100	0	230	101300000	1000	0	0	-1	800
16700195	7921	786	0	-100	0	230	101300000	1000	0	0	-1	800
16712755	7894	792	0	-100	0	230	101300000	1000	0	0	-1	800
16725315	7908	789	0	-100	0	230	101300000	1000	0	0	-1	800
16737875	7899	785	0	-100	0	230	101300000	1000	0	0	-1	800
16750435	7904	792	0	-100	0	230	101300000	1000	0	0	-1	800
16762995	7881	790	0	-100	0	230	101300000	1000	0	0	-1	800
16775555	7911	791	0	-100	0	230	101300000	1000	0	0	-1	800
16788115	7904	787	0	-100	0	230	101300000	1000	0	0	-1	800
16800675	7914	788	0	-100	0	230	101300000	1000	0	0	-1	800
16813235	7897	793	0	-100	0	230	101300000	1000	0	0	-1	800
16825795	7899	792	0	-100	0	230	101300000	1000	0	0	-1	800
16838355	7904	786	0	-100	0	230	101300000	1000	0	0	-1	800
16850915	7911	791	0	-100	0	230	101300000	1000	0	0	-1	800
16863475	7909	792	0	-100	0	230	101300000	1000	0	0	-1	800
16876035	7921	789	0	-100	0	230	101300000	1000	0	0	-1	800
16888595	7908	795	0	-100	0	230	101300000	1000	0	0	-1	800
16901155	7905	791	0	-100	0	230	101300000	1000	0	0	-1	800
16913715	7901	776	0	-100	0	230	101300000	1000	0	0	-1	800
16926275	7911	792	0	-100	0	230	101300000	1000	0	0	-1	800
16938835	7906	786	0	-100	0	230	101300000	1000	0	0	-1	800
16951395	7907	790	0	-100	0	230	101300000	1000	0	0	-1	800
16963955	7899	786	0	-100	0	230	101300000	1000	0	0	-1	800
16976515	7916	790	0	-100	0	230	101300000	1000	0	0	-1	800
16989075	7904	786	0	-100	0	230	101300000	1000	0	0	-1	800
17001635	7894	789	0	-100	0	230	101300000	1000	0	0	-1	800
17014195	7916	787	0	-100	0	230	101300000	1000	0	0	-1	800
17026755	7921	792	0	-100	0	230	101300000	1000	0	0	-1	800
17039315	7906	791	0	-100	0	230	101300000	1000	0	0	-1	800
17051875	7915	793	0	-100	0	230	101300000	1000	0	0	-1	800
17064435	7889	791	0	-100	0	230	101300000	1000	0	0	-1	800
17076995	7911	791	0	-100	0	230	101300000	1000	0	0	-1	800
17089555	7913	786	0	-100	0	230	101300000	1000	0	0	-1	800
17102115	7911	787	0	-100	0	230	101300000	1000	0	0	-1	800
17114675	7909	794	0	-100	0	230	101300000	1000	0	0	-1	800
17127235	7906	793	0	-100	0	230	101300000	1000	0	0	-1	800
17139795	7908	795	0	-100	0	230	101300000	1000	0	0	-1	800
17152355	7911	791	0	-100	0	230	101300000	1000	0	0	-1	800
17164915	7907	791	0	-100	0	230	101300000	1000	0	0	-1	800
17177475	7892	787	0	-100	0	230	101300000	1000	0	0	-1	800
17190035	7906	791	0	-100	0	230	101300000	1000	0	0	-1	800
17202595	7921	786	0	-100	0	230	101300000	1000	0	0	-1	800
17215155	7898	794	0	-100	0	230	101300000	1000	0	0	-1	800
17227715	7909	790	0	-100	0	230	101300000	1000	0	0	-1	800
17240275	7916	787	0	-100	0	230	101300000	1000	0	0	-1	800
17252835	7887	790	0	-100	0	230	101300000	1000	0	0	-1	800
17265395	7923	789	0	-100	0	230	101300000	1000	0	0	-1	800
17277955	7913	790	0	-100	0	230	101300000	1000	0	0	-1	800
17290515	7896	794	0	-100	0	230	101300000	1000	0	0	-1	800
17303075	7907	794	0	-100	0	230	101300000	1000	0	0	-1	800
17315635	7911	792	0	-100	0	230	101300000	1000	0	0	-1	800
17328195	7909	783	0	-100	0	230	101300000	1000	0	0	-1	800
17340755	7904	785	0	-100	0	230	101300000	1000	0	0	-1	800
17353315	7909	789	0	-100	0	230	101300000	1000	0	0	-1	800
17365875	7908	796	0	-100	0	230	101300000	1000	0	0	-1	800
17378435	7916	791	0	-100	0	230	101300000	1000	0	0	-1	800
17390995	7908	790	0	-100	0	230	101300000	1000	0	0	-1	800
17403555	7922	791	0	-100	0	230	101300000	1000	0	0	-1	800
17416115	7904	792	0	-100	0	230	101300000	1000	0	0	-1	800
17428675	7907	795	0	-100	0	230	101300000	1000	0	0	-1	800
17441235	7897	791	0	-100	0	230	101300000	1000	0	0	-1	800
17453795	7901	788	0	-100	0	230	101300000	1000	0	0	-1	800
17466355	7899	792	0	-100	0	230	101300000	1000	0	0	-1	800
17478915	7908	792	0	-100	0	230	101300000	1000	0	0	-1	800
17491475	7897	792	0	-100	0	230	101300000	1000	0	0	-1	800
17504035	7892	792	0	-100	0	230	101300000	1000	0	0	-1	800
17516595	7911	794	0	-100	0	230	101300000	1000	0	0	-1	800
17529155	7911	791	0	-100	0	230	101300000	1000	0	0	-1	800
17541715	7906	792	0	-100	0	230	101300000	1000	0	0	-1	800
17554275	7913	788	0	-100	0	230	101300000	1000	0	0	-1	800
17566835	7914	784	0	-100	0	230	101300000	1000	0	0	-1	800
17579395	7902	786	0	-100	0	230	101300000	1000	0	0	-1	800
17591955	7914	789	0	-100	0	230	101300000	1000	0	0	-1	800
17604515	7908	793	0	-100	0	230	101300000	1000	0	0	-1	800
17617075	7894	785	0	-100	0	230	101300000	1000	0	0	-1	800
17629635	7907	789	0	-100	0	230	101300000	1000	0	0	-1	800
17642195	7918	787	0	-100	0	230	101300000	1000	0	0	-1	800
17654755	7921	790	0	-100	0	230	101300000	1000	0	0	-1	800
17667315	7894	794	0	-100	0	230	101300000	1000	0	0	-1	800
17679875	7921	794	0	-100	0	230	101300000	1000	0	0	-1	800
17692435	7908	794	0	-100	0	230	101300000	1000	0	0	-1	800
17704995	7903	793	0	-100	0	230	101300000	1000	0	0	-1	800
17717555	7877	791	0	-100	0	230	101300000	1000	0	0	-1	800
17730115	7913	792	0	-100	0	230	101300000	1000	0	0	-1	800
17742675	7921	792	0	-100	0	230	101300000	1000	0	0	-1	800
17755235	7913	793	0	-100	0	230	101300000	1000	0	0	-1	800
17767795	7901	788	0	-100	0	230	101300000	1000	0	0	-1	800
17780355	7916	793	0	-100	0	230	101300000	1000	0	0	-1	800
17792915	7901	791	0	-100	0	230	101300000	1000	0	0	-1	800
17805475	7912	788	0	-100	0	230	101300000	1000	0	0	-1	800
17818035	7894	786	0	-100	0	230	101300000	1000	0	0	-1	800
17830595	7882	792	0	-100	0	230	101300000	1000	0	0	-1	800
17843155	7906	789	0	-100	0	230	101300000	1000	0	0	-1	800
17855715	7899	791	0	-100	0	230	101300000	1000	0	0	-1	800
17868275	7919	791	0	-100	0	230	101300000	1000	0	0	-1	800
17880835	7904	783	0	-100	0	230	101300000	1000	0	0	-1	800
17893395	7914	794	0	-100	0	230	101300000	1000	0	0	-1	800
17905955	7911	788	0	-100	0	230	101300000	1000	0	0	-1	800
17918515	7911	786	0	-100	0	230	101300000	1000	0	0	-1	800
17931075	7911	787	0	-100	0	230	101300000	1000	0	0	-1	800
17943635	7914	789	0	-100	0	230	101300000	1000	0	0	-1	800
17956195	7904	793	0	-100	0	230	101300000	1000	0	0	-1	800
17968755	7901	791	0	-100	0	230	101300000	1000	0	0	-1	800
17981315	7911	793	0	-100	0	230	101300000	1000	0	0	-1	800
17993875	7922	790	0	-100	0	230	101300000	1000	0	0	-1	800
18006435	7896	796	0	-100	0	230	101300000	1000	0	0	-1	800
18018995	7899	791	0	-100	0	230	101300000	1000	0	0	-1	800
18031555	7911	791	0	-100	0	230	101300000	1000	0	0	-1	800
18044115	7906	792	0	-100	0	230	101300000	1000	0	0	-1	800
18056675	7906	793	0	-100	0	230	101300000	1000	0	0	-1	800
18069235	7911	794	0	-100	0	230	101300000	1000	0	0	-1	800
18081795	7911	794	0	-100	0	230	101300000	1000	0	0	-1	800
18094355	7901	792	0	-100	0	230	101300000	1000	0	0	-1	800
18106915	7884	789	0	-100	0	230	101300000	1000	0	0	-1	800
18119475	7904	793	0	-100	0	230	101300000	1000	0	0	-1	800
18132035	7918	794	0	-100	0	230	101300000	1000	0	0	-1	800
18144595	7909	788	0	-100	0	230	101300000	1000	0	0	-1	800
18157155	7923	787	0	-100	0	230	101300000	1000	0	0	-1	800
18169715	7904	793	0	-100	0	230	101300000	1000	0	0	-1	800
18182275	7904	793	0	-100	0	230	101300000	1000	0	0	-1	800
18194835	7897	794	0	-100	0	230	101300000	1000	0	0	-1	800
18207395	7916	791	0	-100	0	230	101300000	1000	0	0	-1	800
18219955	7905	787	0	-100	0	230	101300000	1000	0	0	-1	800
18232515	7911	789	0	-100	0	230	101300000	1000	0	0	-1	800
18245075	7907	784	0	-100	0	230	101300000	1000	0	0	-1	800
18257635	7906	788	0	-100	0	230	101300000	1000	0	0	-1	800
18270195	7889	793	0	-100	0	230	101300000	1000	0	0	-1	800
18282755	7894	792	0	-100	0	230	101300000	1000	0	0	-1	800
18295315	7897	794	0	-100	0	230	101300000	1000	0	0	-1	800
18307875	7900	788	0	-100	0	230	101300000	1000	0	0	-1	800
18320435	7896	795	0	-100	0	230	101300000	1000	0	0	-1	800
18332995	7903	789	0	-100	0	230	101300000	1000	0	0	-1	800
18345555	7913	788	0	-100	0	230	101300000	1000	0	0	-1	800
18358115	7913	792	0	-100	0	230	101300000	1000	0	0	-1	800
18370675	7897	789	0	-100	0	230	101300000	1000	0	0	-1	800
18383235	7887	790	0	-100	0	230	101300000	1000	0	0	-1	800
18395795	7901	793	0	-100	0	230	101300000	1000	0	0	-1	800
18408355	7908	790	0	-100	0	230	101300000	1000	0	0	-1	800
18420915	7911	788	0	-100	0	230	101300000	1000	0	0	-1	800
18433475	7902	791	0	-100	0	230	101300000	1000	0	0	-1	800
18446035	7901	791	0	-100	0	230	101300000	1000	0	0	-1	800
18458595	7918	796	0	-100	0	230	101300000	1000	0	0	-1	800
18471155	7911	797	0	-100	0	230	101300000	1000	0	0	-1	800
18483715	7901	790	0	-100	0	230	101300000	1000	0	0	-1	800
18496275	7916	789	0	-100	0	230	101300000	1000	0	0	-1	800
18508835	7891	790	0	-100	0	230	101300000	1000	0	0	-1	800
18521395	7904	790	0	-100	0	230	101300000	1000	0	0	-1	800
18533955	7918	787	0	-100	0	230	101300000	1000	0	0	-1	800
18546515	7914	794	0	-100	0	230	101300000	1000	0	0	-1	800
18559075	7901	791	0	-100	0	230	101300000	1000	0	0	-1	800
18571635	7901	789	0	-100	0	230	101300000	1000	0	0	-1	800
18584195	7913	792	0	-100	0	230	101300000	1000	0	0	-1	800
18596755	7894	792	0	-100	0	230	101300000	1000	0	0	-1	800
18609315	7911	794	0	-100	0	230	101300000	1000	0	0	-1	800
18621875	7896	790	0	-100	0	230	101300000	1000	0	0	-1	800
18634435	7901	791	0	-100	0	230	101300000	1000	0	0	-1	800
18646995	7909	793	0	-100	0	230	101300000	1000	0	0	-1	800
18659555	7911	787	0	-100	0	230	101300000	1000	0	0	-1	800
18672115	7904	793	0	-100	0	230	101300000	1000	0	0	-1	800
18684675	7902	786	0	-100	0	230	101300000	1000	0	0	-1	800
18697235	7925	789	0	-100	0	230	101300000	1000	0	0	-1	800
18709795	7906	792	0	-100	0	230	101300000	1000	0	0	-1	800
18722355	7892	791	0	-100	0	230	101300000	1000	0	0	-1	800
18734915	7901	790	0	-100	0	230	101300000	1000	0	0	-1	800
18747475	7913	789	0	-100	0	230	101300000	1000	0	0	-1	800
18760035	7899	796	0	-100	0	230	101300000	1000	0	0	-1	800
18772595	7908	791	0	-100	0	230	101300000	1000	0	0	-1	800
18785155	7904	790	0	-100	0	230	101300000	1000	0	0	-1	800
18797715	7911	794	0	-100	0	230	101300000	1000	0	0	-1	800
18810275	7921	791	0	-100	0	230	101300000	1000	0	0	-1	800
18822835	7899	787	0	-100	0	230	101300000	1000	0	0	-1	800
18835395	7908	791	0	-100	0	230	101300000	1000	0	0	-1	800
18847955	7904	790	0	-100	0	230	101300000	1000	0	0	-1	800
18860515	7908	787	0	-100	0	230	101300000	1000	0	0	-1	800
18873075	7899	791	0	-100	0	230	101300000	1000	0	0	-1	800
18885635	7908	790	0	-100	0	230	101300000	1000	0	0	-1	800
18898195	7912	788	0	-100	0	230	101300000	1000	0	0	-1	800
18910755	7903	790	0	-100	0	230	101300000	1000	0	0	-1	800
18923315	7909	790	0	-100	0	230	101300000	1000	0	0	-1	800
18935875	7896	795	0	-100	0	230	101300000	1000	0	0	-1	800
18948435	7885	791	0	-100	0	230	101300000	1000	0	0	-1	800
18960995	7908	789	0	-100	0	230	101300000	1000	0	0	-1	800
18973555	7909	791	0	-100	0	230	101300000	1000	0	0	-1	800
18986115	7904	795	0	-100	0	230	101300000	1000	0	0	-1	800
18998675	7892	793	0	-100	0	230	101300000	1000	0	0	-1	800
19011235	7889	792	0	-100	0	230	101300000	1000	0	0	-1	800
19023795	7911	787	0	-100	0	230	101300000	1000	0	0	-1	800
19036355	7904	791	0	-100	0	230	101300000	1000	0	0	-1	800
19048915	7906	796	0	-100	0	230	101300000	1000	0	0	-1	800
19061475	7907	789	0	-100	0	230	101300000	1000	0	0	-1	800
19074035	7899	781	0	-100	0	230	101300000	1000	0	0	-1	800
19086595	7909	778	0	-100	0	230	101300000	1000	0	0	-1	800
19099155	7911	790	0	-100	0	230	101300000	1000	0	0	-1	800
19111715	7906	788	0	-100	0	230	101300000	1000	0	0	-1	800
19124275	7921	789	0	-100	0	230	101300000	1000	0	0	-1	800
19136835	7916	793	0	-100	0	230	101300000	1000	0	0	-1	800
19149395	7906	786	0	-100	0	230	101300000	1000	0	0	-1	800
19161955	7914	788	0	-100	0	230	101300000	1000	0	0	-1	800
19174515	7885	791	0	-100	0	230	101300000	1000	0	0	-1	800
19187075	7909	791	0	-100	0	230	101300000	1000	0	0	-1	800
19199635	7925	794	0	-100	0	230	101300000	1000	0	0	-1	800
19212195	7899	798	0	-100	0	230	101300000	1000	0	0	-1	800
19224755	7906	792	0	-100	0	230	101300000	1000	0	0	-1	800
19237315	7901	793	0	-100	0	230	101300000	1000	0	0	-1	800
19249875	7913	792	0	-100	0	230	101300000	1000	0	0	-1	800
19262435	7896	794	0	-100	0	230	101300000	1000	0	0	-1	800
19274995	7901	794	0	-100	0	230	101300000	1000	0	0	-1	800
19287555	7901	795	0	-100	0	230	101300000	1000	0	0	-1	800
19300115	7901	792	0	-100	0	230	101300000	1000	0	0	-1	800
19312675	7896	795	0	-100	0	230	101300000	1000	0	0	-1	800
19325235	7908	792	0	-100	0	230	101300000	1000	0	0	-1	800
19337795	7903	793	0	-100	0	230	101300000	1000	0	0	-1	800
19350355	7904	792	0	-100	0	230	101300000	1000	0	0	-1	800
19362915	7908	792	0	-100	0	230	101300000	1000	0	0	-1	800
19375475	7911	789	0	-100	0	230	101300000	1000	0	0	-1	800
19388035	7904	786	0	-100	0	230	101300000	1000	0	0	-1	800
19400595	7916	792	0	-100	0	230	101300000	1000	0	0	-1	800
19413155	7915	794	0	-100	0	230	101300000	1000	0	0	-1	800
19425715	7930	790	0	-100	0	230	101300000	1000	0	0	-1	800
19438275	7914	789	0	-100	0	230	101300000	1000	0	0	-1	800
19450835	7911	785	0	-100	0	230	101300000	1000	0	0	-1	800
19463395	7908	786	0	-100	0	230	101300000	1000	0	0	-1	800
19475955	7897	789	0	-100	0	230	101300000	1000	0	0	-1	800
19488515	7918	789	0	-100	0	230	101300000	1000	0	0	-1	800
19501075	7906	789	0	-100	0	230	101300000	1000	0	0	-1	800
19513635	7913	786	0	-100	0	230	101300000	1000	0	0	-1	800
19526195	7897	790	0	-100	0	230	101300000	1000	0	0	-1	800
19538755	7914	791	0	-100	0	230	101300000	1000	0	0	-1	800
19551315	7907	794	0	-100	0	230	101300000	1000	0	0	-1	800
19563875	7913	794	0	-100	0	230	101300000	1000	0	0	-1	800
19576435	7908	792	0	-100	0	230	101300000	1000	0	0	-1	800
19588995	7911	792	0	-100	0	230	101300000	1000	0	0	-1	800
19601555	7899	792	0	-100	0	230	101300000	1000	0	0	-1	800
19614115	7892	795	0	-100	0	230	101300000	1000	0	0	-1	800
19626675	7884	796	0	-100	0	230	101300000	1000	0	0	-1	800
19639235	7911	793	0	-100	0	230	101300000	1000	0	0	-1	800
19651795	7915	790	0	-100	0	230	101300000	1000	0	0	-1	800
19664355	7901	791	0	-100	0	230	101300000	1000	0	0	-1	800
19676915	7908	792	0	-100	0	230	101300000	1000	0	0	-1	800
19689475	7911	793	0	-100	0	230	101300000	1000	0	0	-1	800
19702035	7909	788	0	-100	0	230	101300000	1000	0	0	-1	800
19714595	7900	788	0	-100	0	230	101300000	1000	0	0	-1	800
19727155	7911	796	0	-100	0	230	101300000	1000	0	0	-1	800
19739715	7913	791	0	-100	0	230	101300000	1000	0	0	-1	800
19752275	7911	794	0	-100	0	230	101300000	1000	0	0	-1	800
19764835	7906	794	0	-100	0	230	101300000	1000	0	0	-1	800
19777395	7901	791	0	-100	0	230	101300000	1000	0	0	-1	800
19789955	7913	795	0	-100	0	230	101300000	1000	0	0	-1	800
19802515	7914	791	0	-100	0	230	101300000	1000	0	0	-1	800
19815075	7914	794	0	-100	0	230	101300000	1000	0	0	-1	800
19827635	7909	786	0	-100	0	230	101300000	1000	0	0	-1	800
19840195	7896	792	0	-100	0	230	101300000	1000	0	0	-1	800
19852755	7901	789	0	-100	0	230	101300000	1000	0	0	-1	800
19865315	7907	788	0	-100	0	230	101300000	1000	0	0	-1	800
19877875	7899	785	0	-100	0	230	101300000	1000	0	0	-1	800
19890435	7901	792	0	-100	0	230	101300000	1000	0	0	-1	800
19902995	7909	792	0	-100	0	230	101300000	1000	0	0	-1	800
19915555	7904	800	0	-100	0	230	101300000	1000	0	0	-1	800
19928115	7909	793	0	-100	0	230	101300000	1000	0	0	-1	800
19940675	7906	795	0	-100	0	230	101300000	1000	0	0	-1	800
19953235	7889	788	0	-100	0	230	101300000	1000	0	0	-1	800
19965795	7890	796	0	-100	0	230	101300000	1000	0	0	-1	800
19978355	7892	790	0	-100	0	230	101300000	1000	0	0	-1	800
19990915	7906	789	0	-100	0	230	101300000	1000	0	0	-1	800
20003475	7908	786	0	-100	0	230	101300000	1000	0	0	-1	800
20016035	7918	790	0	-100	0	230	101300000	1000	0	0	-1	800
20028595	7906	788	0	-100	0	230	101300000	1000	0	0	-1	800
20041155	7902	795	0	-100	0	230	101300000	1000	0	0	-1	800
20053715	7915	794	0	-100	0	230	101300000	1000	0	0	-1	800
20066275	7908	789	0	-100	0	230	101300000	1000	0	0	-1	800
20078835	7897	793	0	-100	0	230	101300000	1000	0	0	-1	800
20091395	7911	791	0	-100	0	230	101300000	1000	0	0	-1	800
20103955	7897	791	0	-100	0	230	101300000	1000	0	0	-1	800
20116515	7904	791	0	-100	0	230	101300000	1000	0	0	-1	800
20129075	7914	790	0	-100	0	230	101300000	1000	0	0	-1	800
20141635	7899	792	0	-100	0	230	101300000	1000	0	0	-1	800
20154195	7899	793	0	-100	0	230	101300000	1000	0	0	-1	800
20166755	7904	786	0	-100	0	230	101300000	1000	0	0	-1	800
20179315	7885	781	0	-100	0	230	101300000	1000	0	0	-1	800
20191875	7903	797	0	-100	0	230	101300000	1000	0	0	-1	800
20204435	7909	769	0	-100	0	230	101300000	1000	0	0	-1	800
20216995	7916	791	0	-100	0	230	101300000	1000	0	0	-1	800
20229555	7896	790	0	-100	0	230	101300000	1000	0	0	-1	800
20242115	7911	789	0	-100	0	230	101300000	1000	0	0	-1	800
20254675	7915	786	0	-100	0	230	101300000	1000	0	0	-1	800
20267235	7907	791	0	-100	0	230	101300000	1000	0	0	-1	800
20279795	7903	795	0	-100	0	230	101300000	1000	0	0	-1	800
20292355	7914	777	0	-100	0	230	101300000	1000	0	0	-1	800
20304915	7894	794	0	-100	0	230	101300000	1000	0	0	-1	800
20317475	7905	792	0	-100	0	230	101300000	1000	0	0	-1	800
20330035	7916	788	0	-100	0	230	101300000	1000	0	0	-1	800
20342595	7890	791	0	-100	0	230	101300000	1000	0	0	-1	800
20355155	7897	789	0	-100	0	230	101300000	1000	0	0	-1	800
20367715	7911	792	0	-100	0	230	101300000	1000	0	0	-1	800
20380275	7903	790	0	-100	0	230	101300000	1000	0	0	-1	800
20392835	7906	791	0	-100	0	230	101300000	1000	0	0	-1	800
20405395	7913	792	0	-100	0	230	101300000	1000	0	0	-1	800
20417955	7904	784	0	-100	0	230	101300000	1000	0	0	-1	800
20430515	7899	788	0	-100	0	230	101300000	1000	0	0	-1	800
20443075	7906	787	0	-100	0	230	101300000	1000	0	0	-1	800
20455635	7899	792	0	-100	0	230	101300000	1000	0	0	-1	800
20468195	7911	799	0	-100	0	230	101300000	1000	0	0	-1	800
20480755	7913	793	0	-100	0	230	101300000	1000	0	0	-1	800
20493315	7908	796	0	-100	0	230	101300000	1000	0	0	-1	800
20505875	7901	796	0	-100	0	230	101300000	1000	0	0	-1	800
20518435	7897	799	0	-100	0	230	101300000	1000	0	0	-1	800
20530995	7901	787	0	-100	0	230	101300000	1000	0	0	-1	800
20543555	7907	786	0	-100	0	230	101300000	1000	0	0	-1	800
20556115	7890	790	0	-100	0	230	101300000	1000	0	0	-1	800
20568675	7909	793	0	-100	0	230	101300000	1000	0	0	-1	800
20581235	7906	791	0	-100	0	230	101300000	1000	0	0	-1	800
20593795	7897	791	0	-100	0	230	101300000	1000	0	0	-1	800
20606355	7909	792	0	-100	0	230	101300000	1000	0	0	-1	800
20618915	7911	795	0	-100	0	230	101300000	1000	0	0	-1	800
20631475	7899	790	0	-100	0	230	101300000	1000	0	0	-1	800
20644035	7908	789	0	-100	0	230	101300000	1000	0	0	-1	800
20656595	7899	788	0	-100	0	230	101300000	1000	0	0	-1	800
20669155	7904	791	0	-100	0	230	101300000	1000	0	0	-1	800
20681715	7902	794	0	-100	0	230	101300000	1000	0	0	-1	800
20694275	7902	789	0	-100	0	230	101300000	1000	0	0	-1	800
20706835	7922	794	0	-100	0	230	101300000	1000	0	0	-1	800
20719395	7901	792	0	-100	0	230	101300000	1000	0	0	-1	800
20731955	7904	792	0	-100	0	230	101300000	1000	0	0	-1	800
20744515	7907	789	0	-100	0	230	101300000	1000	0	0	-1	800
20757075	7906	791	0	-100	0	230	101300000	1000	0	0	-1	800
20769635	7894	788	0	-100	0	230	101300000	1000	0	0	-1	800
20782195	7906	791	0	-100	0	230	101300000	1000	0	0	-1	800
20794755	7904	790	0	-100	0	230	101300000	1000	0	0	-1	800
20807315	7897	786	0	-100	0	230	101300000	1000	0	0	-1	800
20819875	7896	795	0	-100	0	230	101300000	1000	0	0	-1	800
20832435	7911	792	0	-100	0	230	101300000	1000	0	0	-1	800
20844995	7897	791	0	-100	0	230	101300000	1000	0	0	-1	800
20857555	7916	789	0	-100	0	230	101300000	1000	0	0	-1	800
20870115	7906	781	0	-100	0	230	101300000	1000	0	0	-1	800
20882675	7899	788	0	-100	0	230	101300000	1000	0	0	-1	800
20895235	7921	789	0	-100	0	230	101300000	1000	0	0	-1	800
20907795	7901	797	0	-100	0	230	101300000	1000	0	0	-1	800
20920355	7918	791	0	-100	0	230	101300000	1000	0	0	-1	800
20932915	7902	786	0	-100	0	230	101300000	1000	0	0	-1	800
20945475	7894	795	0	-100	0	230	101300000	1000	0	0	-1	800
20958035	7918	790	0	-100	0	230	101300000	1000	0	0	-1	800
20970595	7916	795	0	-100	0	230	101300000	1000	0	0	-1	800
20983155	7904	788	0	-100	0	230	101300000	1000	0	0	-1	800
20995715	7887	795	0	-100	0	230	101300000	1000	0	0	-1	800
21008275	7896	795	0	-100	0	230	101300000	1000	0	0	-1	800
21020835	7906	791	0	-100	0	230	101300000	1000	0	0	-1	800
21033395	7901	793	0	-100	0	230	101300000	1000	0	0	-1	800
21045955	7906	786	0	-100	0	230	101300000	1000	0	0	-1	800
21058515	7899	795	0	-100	0	230	101300000	1000	0	0	-1	800
21071075	7918	790	0	-100	0	230	101300000	1000	0	0	-1	800
21083635	7897	797	0	-100	0	230	101300000	1000	0	0	-1	800
21096195	7911	789	0	-100	0	230	101300000	1000	0	0	-1	800
21108755	7904	790	0	-100	0	230	101300000	1000	0	0	-1	800
21121315	7894	793	0	-100	0	230	101300000	1000	0	0	-1	800
21133875	7912	789	0	-100	0	230	101300000	1000	0	0	-1	800
21146435	7909	795	0	-100	0	230	101300000	1000	0	0	-1	800
21158995	7906	791	0	-100	0	230	101300000	1000	0	0	-1	800
21171555	7904	789	0	-100	0	230	101300000	1000	0	0	-1	800
21184115	7903	795	0	-100	0	230	101300000	1000	0	0	-1	800
21196675	7898	794	0	-100	0	230	101300000	1000	0	0	-1	800
21209235	7918	788	0	-100	0	230	101300000	1000	0	0	-1	800
21221795	7904	794	0	-100	0	230	101300000	1000	0	0	-1	800
21234355	7916	794	0	-100	0	230	101300000	1000	0	0	-1	800
21246915	7911	788	0	-100	0	230	101300000	1000	0	0	-1	800
21259475	7911	793	0	-100	0	230	101300000	1000	0	0	-1	800
21272035	7903	789	0	-100	0	230	101300000	1000	0	0	-1	800
21284595	7908	793	0	-100	0	230	101300000	1000	0	0	-1	800
21297155	7914	787	0	-100	0	230	101300000	1000	0	0	-1	800
21309715	7912	789	0	-100	0	230	101300000	1000	0	0	-1	800
21322275	7899	789	0	-100	0	230	101300000	1000	0	0	-1	800
21334835	7904	794	0	-100	0	230	101300000	1000	0	0	-1	800
21347395	7901	793	0	-100	0	230	101300000	1000	0	0	-1	800
21359955	7904	794	0	-100	0	230	101300000	1000	0	0	-1	800
21372515	7912	791	0	-100	0	230	101300000	1000	0	0	-1	800
21385075	7892	784	0	-100	0	230	101300000	1000	0	0	-1	800
21397635	7907	795	0	-100	0	230	101300000	1000	0	0	-1	800
21410195	7902	798	0	-100	0	230	101300000	1000	0	0	-1	800
21422755	7887	792	0	-100	0	230	101300000	1000	0	0	-1	800
21435315	7899	792	0	-100	0	230	101300000	1000	0	0	-1	800
21447875	7902	788	0	-100	0	230	101300000	1000	0	0	-1	800
21460435	7890	791	0	-100	0	230	101300000	1000	0	0	-1	800
21472995	7906	789	0	-100	0	230	101300000	1000	0	0	-1	800
21485555	7903	793	0	-100	0	230	101300000	1000	0	0	-1	800
21498115	7915	789	0	-100	0	230	101300000	1000	0	0	-1	800
21510675	7904	786	0	-100	0	230	101300000	1000	0	0	-1	800
21523235	7904	789	0	-100	0	230	101300000	1000	0	0	-1	800
21535795	7908	794	0	-100	0	230	101300000	1000	0	0	-1	800
21548355	7923	788	0	-100	0	230	101300000	1000	0	0	-1	800
21560915	7897	793	0	-100	0	230	101300000	1000	0	0	-1	800
21573475	7884	797	0	-100	0	230	101300000	1000	0	0	-1	800
21586035	7916	791	0	-100	0	230	101300000	1000	0	0	-1	800
21598595	7880	795	0	-100	0	230	101300000	1000	0	0	-1	800
21611155	7923	793	0	-100	0	230	101300000	1000	0	0	-1	800
21623715	7892	791	0	-100	0	230	101300000	1000	0	0	-1	800
21636275	7900	791	0	-100	0	230	101300000	1000	0	0	-1	800
21648835	7907	795	0	-100	0	230	101300000	1000	0	0	-1	800
21661395	7898	795	0	-100	0	230	101300000	1000	0	0	-1	800
21673955	7914	792	0	-100	0	230	101300000	1000	0	0	-1	800
21686515	7898	791	0	-100	0	230	101300000	1000	0	0	-1	800
21699075	7906	795	0	-100	0	230	101300000	1000	0	0	-1	800
21711635	7916	787	0	-100	0	230	101300000	1000	0	0	-1	800
21724195	7904	792	0	-100	0	230	101300000	1000	0	0	-1	800
21736755	7913	788	0	-100	0	230	101300000	1000	0	0	-1	800
21749315	7896	792	0	-100	0	230	101300000	1000	0	0	-1	800
21761875	7908	788	0	-100	0	230	101300000	1000	0	0	-1	800
21774435	7904	786	0	-100	0	230	101300000	1000	0	0	-1	800
21786995	7912	788	0	-100	0	230	101300000	1000	0	0	-1	800
21799555	7889	789	0	-100	0	230	101300000	1000	0	0	-1	800
21812115	7902	792	0	-100	0	230	101300000	1000	0	0	-1	800
21824675	7901	793	0	-100	0	230	101300000	1000	0	0	-1	800
21837235	7892	787	0	-100	0	230	101300000	1000	0	0	-1	800
21849795	7885	787	0	-100	0	230	101300000	1000	0	0	-1	800
21862355	7906	792	0	-100	0	230	101300000	1000	0	0	-1	800
21874915	7904	787	0	-100	0	230	101300000	1000	0	0	-1	800
21887475	7911	787	0	-100	0	230	101300000	1000	0	0	-1	800
21900035	7904	787	0	-100	0	230	101300000	1000	0	0	-1	800
21912595	7904	787	0	-100	0	230	101300000	1000	0	0	-1	800
21925155	7898	788	0	-100	0	230	101300000	1000	0	0	-1	800
21937715	7894	789	0	-100	0	230	101300000	1000	0	0	-1	800
21950275	7885	791	0	-100	0	230	101300000	1000	0	0	-1	800
21962835	7894	788	0	-100	0	230	101300000	1000	0	0	-1	800
21975395	7899	790	0	-100	0	230	101300000	1000	0	0	-1	800
21987955	7899	790	0	-100	0	230	101300000	1000	0	0	-1	800
22000515	7906	792	0	-100	0	230	101300000	1000	0	0	-1	800
22013075	7907	791	0	-100	0	230	101300000	1000	0	0	-1	800
22025635	7906	795	0	-100	0	230	101300000	1000	0	0	-1	800
22038195	7908	793	0	-100	0	230	101300000	1000	0	0	-1	800
22050755	7906	791	0	-100	0	230	101300000	1000	0	0	-1	800
22063315	7888	793	0	-100	0	230	101300000	1000	0	0	-1	800
22075875	7906	789	0	-100	0	230	101300000	1000	0	0	-1	800
22088435	7911	791	0	-100	0	230	101300000	1000	0	0	-1	800
22100995	7911	796	0	-100	0	230	101300000	1000	0	0	-1	800
22113555	7907	787	0	-100	0	230	101300000	1000	0	0	-1	800
22126115	7906	790	0	-100	0	230	101300000	1000	0	0	-1	800
22138675	7899	797	0	-100	0	230	101300000	1000	0	0	-1	800
22151235	7921	792	0	-100	0	230	101300000	1000	0	0	-1	800
22163795	7918	788	0	-100	0	230	101300000	1000	0	0	-1	800
22176355	7896	791	0	-100	0	230	101300000	1000	0	0	-1	800
22188915	7906	798	0	-100	0	230	101300000	1000	0	0	-1	800
22201475	7894	792	0	-100	0	230	101300000	1000	0	0	-1	800
22214035	7885	792	0	-100	0	230	101300000	1000	0	0	-1	800
22226595	7906	791	0	-100	0	230	101300000	1000	0	0	-1	800
22239155	7903	792	0	-100	0	230	101300000	1000	0	0	-1	800
22251715	7906	792	0	-100	0	230	101300000	1000	0	0	-1	800
22264275	7906	792	0	-100	0	230	101300000	1000	0	0	-1	800
22276835	7904	789	0	-100	0	230	101300000	1000	0	0	-1	800
22289395	7916	788	0	-100	0	230	101300000	1000	0	0	-1	800
22301955	7914	789	0	-100	0	230	101300000	1000	0	0	-1	800
22314515	7889	792	0	-100	0	230	101300000	1000	0	0	-1	800
22327075	7904	789	0	-100	0	230	101300000	1000	0	0	-1	800
22339635	7906	789	0	-100	0	230	101300000	1000	0	0	-1	800
22352195	7889	794	0	-100	0	230	101300000	1000	0	0	-1	800
22364755	7889	796	0	-100	0	230	101300000	1000	0	0	-1	800
22377315	7904	792	0	-100	0	230	101300000	1000	0	0	-1	800
22389875	7904	788	0	-100	0	230	101300000	1000	0	0	-1	800
22402435	7911	787	0	-100	0	230	101300000	1000	0	0	-1	800
22414995	7911	792	0	-100	0	230	101300000	1000	0	0	-1	800
22427555	7913	788	0	-100	0	230	101300000	1000	0	0	-1	800
22440115	7913	790	0	-100	0	230	101300000	1000	0	0	-1	800
22452675	7916	789	0	-100	0	230	101300000	1000	0	0	-1	800
22465235	7916	790	0	-100	0	230	101300000	1000	0	0	-1	800
22477795	7902	789	0	-100	0	230	101300000	1000	0	0	-1	800
22490355	7890	790	0	-100	0	230	101300000	1000	0	0	-1	800
22502915	7915	797	0	-100	0	230	101300000	1000	0	0	-1	800
22515475	7901	789	0	-100	0	230	101300000	1000	0	0	-1	800
22528035	7904	795	0	-100	0	230	101300000	1000	0	0	-1	800
22540595	7904	792	0	-100	0	230	101300000	1000	0	0	-1	800
22553155	7906	793	0	-100	0	230	101300000	1000	0	0	-1	800
22565715	7898	789	0	-100	0	230	101300000	1000	0	0	-1	800
22578275	7916	790	0	-100	0	230	101300000	1000	0	0	-1	800
22590835	7911	791	0	-100	0	230	101300000	1000	0	0	-1	800
22603395	7906	795	0	-100	0	230	101300000	1000	0	0	-1	800
22615955	7904	793	0	-100	0	230	101300000	1000	0	0	-1	800
22628515	7911	796	0	-100	0	230	101300000	1000	0	0	-1	800
22641075	7908	793	0	-100	0	230	101300000	1000	0	0	-1	800
22653635	7890	794	0	-100	0	230	101300000	1000	0	0	-1	800
22666195	7895	793	0	-100	0	230	101300000	1000	0	0	-1	800
22678755	7912	790	0	-100	0	230	101300000	1000	0	0	-1	800
22691315	7899	788	0	-100	0	230	101300000	1000	0	0	-1	800
22703875	7901	792	0	-100	0	230	101300000	1000	0	0	-1	800
22716435	7909	794	0	-100	0	230	101300000	1000	0	0	-1	800
22728995	7910	794	0	-100	0	230	101300000	1000	0	0	-1	800
22741555	7914	792	0	-100	0	230	101300000	1000	0	0	-1	800
22754115	7906	793	0	-100	0	230	101300000	1000	0	0	-1	800
22766675	7918	792	0	-100	0	230	101300000	1000	0	0	-1	800
22779235	7911	790	0	-100	0	230	101300000	1000	0	0	-1	800
22791795	7894	795	0	-100	0	230	101300000	1000	0	0	-1	800
22804355	7911	788	0	-100	0	230	101300000	1000	0	0	-1	800
22816915	7897	796	0	-100	0	230	101300000	1000	0	0	-1	800
22829475	7899	793	0	-100	0	230	101300000	1000	0	0	-1	800
22842035	7921	794	0	-100	0	230	101300000	1000	0	0	-1	800
22854595	7911	796	0	-100	0	230	101300000	1000	0	0	-1	800
22867155	7901	791	0	-100	0	230	101300000	1000	0	0	-1	800
22879715	7902	793	0	-100	0	230	101300000	1000	0	0	-1	800
22892275	7901	796	0	-100	0	230	101300000	1000	0	0	-1	800
22904835	7911	793	0	-100	0	230	101300000	1000	0	0	-1	800
22917395	7918	786	0	-100	0	230	101300000	1000	0	0	-1	800
22929955	7909	789	0	-100	0	230	101300000	1000	0	0	-1	800
22942515	7911	792	0	-100	0	230	101300000	1000	0	0	-1	800
22955075	7914	792	0	-100	0	230	101300000	1000	0	0	-1	800
22967635	7909	790	0	-100	0	230	101300000	1000	0	0	-1	800
22980195	7901	795	0	-100	0	230	101300000	1000	0	0	-1	800
22992755	7911	794	0	-100	0	230	101300000	1000	0	0	-1	800
23005315	7899	788	0	-100	0	230	101300000	1000	0	0	-1	800
23017875	7906	781	0	-100	0	230	101300000	1000	0	0	-1	800
23030435	7914	793	0	-100	0	230	101300000	1000	0	0	-1	800
23042995	7909	786	0	-100	0	230	101300000	1000	0	0	-1	800
23055555	7918	787	0	-100	0	230	101300000	1000	0	0	-1	800
23068115	7916	786	0	-100	0	230	101300000	1000	0	0	-1	800
23080675	7916	794	0	-100	0	230	101300000	1000	0	0	-1	800
23093235	7888	790	0	-100	0	230	101300000	1000	0	0	-1	800
23105795	7917	792	0	-100	0	230	101300000	1000	0	0	-1	800
23118355	7904	787	0	-100	0	230	101300000	1000	0	0	-1	800
23130915	7904	794	0	-100	0	230	101300000	1000	0	0	-1	800
23143475	7913	791	0	-100	0	230	101300000	1000	0	0	-1	800
23156035	7909	783	0	-100	0	230	101300000	1000	0	0	-1	800
23168595	7914	789	0	-100	0	230	101300000	1000	0	0	-1	800
23181155	7911	793	0	-100	0	230	101300000	1000	0	0	-1	800
23193715	7913	789	0	-100	0	230	101300000	1000	0	0	-1	800
23206275	7902	791	0	-100	0	230	101300000	1000	0	0	-1	800
23218835	7911	791	0	-100	0	230	101300000	1000	0	0	-1	800
23231395	7918	789	0	-100	0	230	101300000	1000	0	0	-1	800
23243955	7888	788	0	-100	0	230	101300000	1000	0	0	-1	800
23256515	7909	790	0	-100	0	230	101300000	1000	0	0	-1	800
23269075	7889	789	0	-100	0	230	101300000	1000	0	0	-1	800
23281635	7911	786	0	-100	0	230	101300000	1000	0	0	-1	800
23294195	7885	790	0	-100	0	230	101300000	1000	0	0	-1	800
23306755	7896	794	0	-100	0	230	101300000	1000	0	0	-1	800
23319315	7892	791	0	-100	0	230	101300000	1000	0	0	-1	800
23331875	7918	792	0	-100	0	230	101300000	1000	0	0	-1	800
23344435	7907	789	0	-100	0	230	101300000	1000	0	0	-1	800
23356995	7909	785	0	-100	0	230	101300000	1000	0	0	-1	800
23369555	7905	785	0	-100	0	230	101300000	1000	0	0	-1	800
23382115	7911	794	0	-100	0	230	101300000	1000	0	0	-1	800
23394675	7909	791	0	-100	0	230	101300000	1000	0	0	-1	800
23407235	7882	792	0	-100	0	230	101300000	1000	0	0	-1	800
23419795	7918	789	0	-100	0	230	101300000	1000	0	0	-1	800
23432355	7908	796	0	-100	0	230	101300000	1000	0	0	-1	800
23444915	7918	791	0	-100	0	230	101300000	1000	0	0	-1	800
23457475	7918	792	0	-100	0	230	101300000	1000	0	0	-1	800
23470035	7901	791	0	-100	0	230	101300000	1000	0	0	-1	800
23482595	7901	795	0	-100	0	230	101300000	1000	0	0	-1	800
23495155	7908	791	0	-100	0	230	101300000	1000	0	0	-1	800
23507715	7897	788	0	-100	0	230	101300000	1000	0	0	-1	800
23520275	7906	789	0	-100	0	230	101300000	1000	0	0	-1	800
23532835	7904	794	0	-100	0	230	101300000	1000	0	0	-1	800
23545395	7908	768	0	-100	0	230	101300000	1000	0	0	-1	800
23557955	7897	780	0	-100	0	230	101300000	1000	0	0	-1	800
23570515	7899	787	0	-100	0	230	101300000	1000	0	0	-1	800
23583075	7908	788	0	-100	0	230	101300000	1000	0	0	-1	800
23595635	7916	789	0	-100	0	230	101300000	1000	0	0	-1	800
23608195	7908	795	0	-100	0	230	101300000	1000	0	0	-1	800
23620755	7875	793	0	-100	0	230	101300000	1000	0	0	-1	800
23633315	7909	788	0	-100	0	230	101300000	1000	0	0	-1	800
23645875	7906	791	0	-100	0	230	101300000	1000	0	0	-1	800
23658435	7897	790	0	-100	0	230	101300000	1000	0	0	-1	800
23670995	7903	794	0	-100	0	230	101300000	1000	0	0	-1	800
23683555	7911	800	0	-100	0	230	101300000	1000	0	0	-1	800
23696115	7908	792	0	-100	0	230	101300000	1000	0	0	-1	800
23708675	7916	792	0	-100	0	230	101300000	1000	0	0	-1	800
23721235	7913	796	0	-100	0	230	101300000	1000	0	0	-1	800
23733795	7916	786	0	-100	0	230	101300000	1000	0	0	-1	800
23746355	7897	789	0	-100	0	230	101300000	1000	0	0	-1	800
23758915	7914	790	0	-100	0	230	101300000	1000	0	0	-1	800
23771475	7920	788	0	-100	0	230	101300000	1000	0	0	-1	800
23784035	7904	788	0	-100	0	230	101300000	1000	0	0	-1	800
23796595	7899	791	0	-100	0	230	101300000	1000	0	0	-1	800
23809155	7913	794	0	-100	0	230	101300000	1000	0	0	-1	800
23821715	7911	788	0	-100	0	230	101300000	1000	0	0	-1	800
23834275	7906	793	0	-100	0	230	101300000	1000	0	0	-1	800
23846835	7906	790	0	-100	0	230	101300000	1000	0	0	-1	800
23859395	7906	787	0	-100	0	230	101300000	1000	0	0	-1	800
23871955	7897	792	0	-100	0	230	101300000	1000	0	0	-1	800
23884515	7916	792	0	-100	0	230	101300000	1000	0	0	-1	800
23897075	7890	791	0	-100	0	230	101300000	1000	0	0	-1	800
23909635	7916	791	0	-100	0	230	101300000	1000	0	0	-1	800
23922195	7911	787	0	-100	0	230	101300000	1000	0	0	-1	800
23934755	7878	795	0	-100	0	230	101300000	1000	0	0	-1	800
23947315	7911	789	0	-100	0	230	101300000	1000	0	0	-1	800
23959875	7908	788	0	-100	0	230	101300000	1000	0	0	-1	800
23972435	7899	789	0	-100	0	230	101300000	1000	0	0	-1	800
23984995	7897	788	0	-100	0	230	101300000	1000	0	0	-1	800
23997555	7914	791	0	-100	0	230	101300000	1000	0	0	-1	800
24010115	7907	797	0	-100	0	230	101300000	1000	0	0	-1	800
24022675	7903	794	0	-100	0	230	101300000	1000	0	0	-1	800
24035235	7911	793	0	-100	0	230	101300000	1000	0	0	-1	800
24047795	7909	790	0	-100	0	230	101300000	1000	0	0	-1	800
24060355	7896	793	0	-100	0	230	101300000	1000	0	0	-1	800
24072915	7894	794	0	-100	0	230	101300000	1000	0	0	-1	800
24085475	7914	792	0	-100	0	230	101300000	1000	0	0	-1	800
24098035	7914	789	0	-100	0	230	101300000	1000	0	0	-1	800
24110595	7913	792	0	-100	0	230	101300000	1000	0	0	-1	800
24123155	7911	790	0	-100	0	230	101300000	1000	0	0	-1	800
24135715	7881	791	0	-100	0	230	101300000	1000	0	0	-1	800
24148275	7928	797	0	-100	0	230	101300000	1000	0	0	-1	800
24160835	7914	790	0	-100	0	230	101300000	1000	0	0	-1	800
24173395	7906	793	0	-100	0	230	101300000	1000	0	0	-1	800
24185955	7914	789	0	-100	0	230	101300000	1000	0	0	-1	800
24198515	7899	794	0	-100	0	230	101300000	1000	0	0	-1	800
24211075	7913	790	0	-100	0	230	101300000	1000	0	0	-1	800
24223635	7926	786	0	-100	0	230	101300000	1000	0	0	-1	800
24236195	7891	792	0	-100	0	230	101300000	1000	0	0	-1	800
24248755	7920	788	0	-100	0	230	101300000	1000	0	0	-1	800
24261315	7909	788	0	-100	0	230	101300000	1000	0	0	-1	800
24273875	7897	796	0	-100	0	230	101300000	1000	0	0	-1	800
24286435	7925	791	0	-100	0	230	101300000	1000	0	0	-1	800
24298995	7916	791	0	-100	0	230	101300000	1000	0	0	-1	800
24311555	7918	794	0	-100	0	230	101300000	1000	0	0	-1	800
24324115	7923	794	0	-100	0	230	101300000	1000	0	0	-1	800
24336675	7911	791	0	-100	0	230	101300000	1000	0	0	-1	800
24349235	7915	790	0	-100	0	230	101300000	1000	0	0	-1	800
24361795	7889	794	0	-100	0	230	101300000	1000	0	0	-1	800
24374355	7920	792	0	-100	0	230	101300000	1000	0	0	-1	800
24386915	7904	788	0	-100	0	230	101300000	1000	0	0	-1	800
24399475	7899	789	0	-100	0	230	101300000	1000	0	0	-1	800
24412035	7901	794	0	-100	0	230	101300000	1000	0	0	-1	800
24424595	7911	791	0	-100	0	230	101300000	1000	0	0	-1	800
24437155	7904	785	0	-100	0	230	101300000	1000	0	0	-1	800
24449715	7903	789	0	-100	0	230	101300000	1000	0	0	-1	800
24462275	7906	797	0	-100	0	230	101300000	1000	0	0	-1	800
24474835	7911	789	0	-100	0	230	101300000	1000	0	0	-1	800
24487395	7904	791	0	-100	0	230	101300000	1000	0	0	-1	800
24499955	7901	795	0	-100	0	230	101300000	1000	0	0	-1	800
24512515	7921	796	0	-100	0	230	101300000	1000	0	0	-1	800
24525075	7916	790	0	-100	0	230	101300000	1000	0	0	-1	800
24537635	7900	788	0	-100	0	230	101300000	1000	0	0	-1	800
24550195	7901	792	0	-100	0	230	101300000	1000	0	0	-1	800
24562755	7900	791	0	-100	0	230	101300000	1000	0	0	-1	800
24575315	7906	793	0	-100	0	230	101300000	1000	0	0	-1	800
24587875	7921	787	0	-100	0	230	101300000	1000	0	0	-1	800
24600435	7907	789	0	-100	0	230	101300000	1000	0	0	-1	800
24612995	7904	789	0	-100	0	230	101300000	1000	0	0	-1	800
24625555	7896	797	0	-100	0	230	101300000	1000	0	0	-1	800
24638115	7894	789	0	-100	0	230	101300000	1000	0	0	-1	800
24650675	7912	790	0	-100	0	230	101300000	1000	0	0	-1	800
24663235	7914	793	0	-100	0	230	101300000	1000	0	0	-1	800
24675795	7921	786	0	-100	0	230	101300000	1000	0	0	-1	800
24688355	7923	791	0	-100	0	230	101300000	1000	0	0	-1	800
24700915	7925	792	0	-100	0	230	101300000	1000	0	0	-1	800
24713475	7906	792	0	-100	0	230	101300000	1000	0	0	-1	800
24726035	7908	793	0	-100	0	230	101300000	1000	0	0	-1	800
24738595	7892	789	0	-100	0	230	101300000	1000	0	0	-1	800
24751155	7897	788	0	-100	0	230	101300000	1000	0	0	-1	800
24763715	7916	791	0	-100	0	230	101300000	1000	0	0	-1	800
24776275	7911	794	0	-100	0	230	101300000	1000	0	0	-1	800
24788835	7901	793	0	-100	0	230	101300000	1000	0	0	-1	800
24801395	7904	795	0	-100	0	230	101300000	1000	0	0	-1	800
24813955	7906	792	0	-100	0	230	101300000	1000	0	0	-1	800
24826515	7899	792	0	-100	0	230	101300000	1000	0	0	-1	800
24839075	7911	792	0	-100	0	230	101300000	1000	0	0	-1	800
24851635	7899	789	0	-100	0	230	101300000	1000	0	0	-1	800
24864195	7897	787	0	-100	0	230	101300000	1000	0	0	-1	800
24876755	7914	785	0	-100	0	230	101300000	1000	0	0	-1	800
24889315	7913	792	0	-100	0	230	101300000	1000	0	0	-1	800
24901875	7896	798	0	-100	0	230	101300000	1000	0	0	-1	800
24914435	7904	793	0	-100	0	230	101300000	1000	0	0	-1	800
24926995	7921	791	0	-100	0	230	101300000	1000	0	0	-1	800
24939555	7894	792	0	-100	0	230	101300000	1000	0	0	-1	800
24952115	7899	794	0	-100	0	230	101300000	1000	0	0	-1	800
24964675	7908	792	0	-100	0	230	101300000	1000	0	0	-1	800
24977235	7918	790	0	-100	0	230	101300000	1000	0	0	-1	800
24989795	7899	792	0	-100	0	230	101300000	1000	0	0	-1	800
25002355	7901	792	0	-100	0	230	101300000	1000	0	0	-1	800
25014915	7914	786	0	-100	0	230	101300000	1000	0	0	-1	800
25027475	7906	791	0	-100	0	230	101300000	1000	0	0	-1	800
25040035	7913	789	0	-100	0	230	101300000	1000	0	0	-1	800
25052595	7904	792	0	-100	0	230	101300000	1000	0	0	-1	800
25065155	7877	791	0	-100	0	230	101300000	1000	0	0	-1	800
25077715	7901	789	0	-100	0	230	101300000	1000	0	0	-1	800
25090275	7904	790	0	-100	0	230	101300000	1000	0	0	-1	800
25102835	7902	793	0	-100	0	230	101300000	1000	0	0	-1	800
25115395	7911	789	0	-100	0	230	101300000	1000	0	0	-1	800
25127955	7906	791	0	-100	0	230	101300000	1000	0	0	-1	800
25140515	7914	789	0	-100	0	230	101300000	1000	0	0	-1	800
25153075	7915	790	0	-100	0	230	101300000	1000	0	0	-1	800
25165635	7916	794	0	-100	0	230	101300000	1000	0	0	-1	800
25178195	7906	793	0	-100	0	230	101300000	1000	0	0	-1	800
25190755	7897	791	0	-100	0	230	101300000	1000	0	0	-1	800
25203315	7894	797	0	-100	0	230	101300000	1000	0	0	-1	800
25215875	7894	794	0	-100	0	230	101300000	1000	0	0	-1	800
25228435	7887	794	0	-100	0	230	101300000	1000	0	0	-1	800
25240995	7890	792	0	-100	0	230	101300000	1000	0	0	-1	800
25253555	7896	793	0	-100	0	230	101300000	1000	0	0	-1	800
25266115	7909	794	0	-100	0	230	101300000	1000	0	0	-1	800
25278675	7897	794	0	-100	0	230	101300000	1000	0	0	-1	800
25291235	7918	793	0	-100	0	230	101300000	1000	0	0	-1	800
25303795	7916	798	0	-100	0	230	101300000	1000	0	0	-1	800
25316355	7899	789	0	-100	0	230	101300000	1000	0	0	-1	800
25328915	7911	796	0	-100	0	230	101300000	1000	0	0	-1	800
25341475	7899	791	0	-100	0	230	101300000	1000	0	0	-1	800
25354035	7916	792	0	-100	0	230	101300000	1000	0	0	-1	800
25366595	7906	792	0	-100	0	230	101300000	1000	0	0	-1	800
25379155	7899	789	0	-100	0	230	101300000	1000	0	0	-1	800
25391715	7907	788	0	-100	0	230	101300000	1000	0	0	-1	800
25404275	7920	789	0	-100	0	230	101300000	1000	0	0	-1	800
25416835	7911	797	0	-100	0	230	101300000	1000	0	0	-1	800
25429395	7896	793	0	-100	0	230	101300000	1000	0	0	-1	800
25441955	7907	787	0	-100	0	230	101300000	1000	0	0	-1	800
25454515	7892	788	0	-100	0	230	101300000	1000	0	0	-1	800
25467075	7910	798	0	-100	0	230	101300000	1000	0	0	-1	800
25479635	7910	790	0	-100	0	230	101300000	1000	0	0	-1	800
25492195	7915	789	0	-100	0	230	101300000	1000	0	0	-1	800
25504755	7909	790	0	-100	0	230	101300000	1000	0	0	-1	800
25517315	7919	789	0	-100	0	230	101300000	1000	0	0	-1	800
25529875	7911	793	0	-100	0	230	101300000	1000	0	0	-1	800
25542435	7918	796	0	-100	0	230	101300000	1000	0	0	-1	800
25554995	7911	792	0	-100	0	230	101300000	1000	0	0	-1	800
25567555	7906	788	0	-100	0	230	101300000	1000	0	0	-1	800
25580115	7894	790	0	-100	0	230	101300000	1000	0	0	-1	800
25592675	7908	792	0	-100	0	230	101300000	1000	0	0	-1	800
25605235	7906	791	0	-100	0	230	101300000	1000	0	0	-1	800
25617795	7908	792	0	-100	0	230	101300000	1000	0	0	-1	800
25630355	7909	790	0	-100	0	230	101300000	1000	0	0	-1	800
25642915	7911	784	0	-100	0	230	101300000	1000	0	0	-1	800
25655475	7899	792	0	-100	0	230	101300000	1000	0	0	-1	800
25668035	7914	792	0	-100	0	230	101300000	1000	0	0	-1	800
25680595	7911	792	0	-100	0	230	101300000	1000	0	0	-1	800
25693155	7911	792	0	-100	0	230	101300000	1000	0	0	-1	800
25705715	7899	793	0	-100	0	230	101300000	1000	0	0	-1	800
25718275	7913	792	0	-100	0	230	101300000	1000	0	0	-1	800
25730835	7911	789	0	-100	0	230	101300000	1000	0	0	-1	800
25743395	7906	792	0	-100	0	230	101300000	1000	0	0	-1	800
25755955	7907	788	0	-100	0	230	101300000	1000	0	0	-1	800
25768515	7906	790	0	-100	0	230	101300000	1000	0	0	-1	800
25781075	7911	795	0	-100	0	230	101300000	1000	0	0	-1	800
25793635	7918	792	0	-100	0	230	101300000	1000	0	0	-1	800
25806195	7914	791	0	-100	0	230	101300000	1000	0	0	-1	800
25818755	7909	787	0	-100	0	230	101300000	1000	0	0	-1	800
25831315	7889	789	0	-100	0	230	101300000	1000	0	0	-1	800
25843875	7908	788	0	-100	0	230	101300000	1000	0	0	-1	800
25856435	7918	790	0	-100	0	230	101300000	1000	0	0	-1	800
25868995	7918	786	0	-100	0	230	101300000	1000	0	0	-1	800
25881555	7908	793	0	-100	0	230	101300000	1000	0	0	-1	800
25894115	7885	790	0	-100	0	230	101300000	1000	0	0	-1	800
25906675	7916	791	0	-100	0	230	101300000	1000	0	0	-1	800
25919235	7914	790	0	-100	0	230	101300000	1000	0	0	-1	800
25931795	7906	792	0	-100	0	230	101300000	1000	0	0	-1	800
25944355	7911	794	0	-100	0	230	101300000	1000	0	0	-1	800
25956915	7903	789	0	-100	0	230	101300000	1000	0	0	-1	800
25969475	7892	792	0	-100	0	230	101300000	1000	0	0	-1	800
25982035	7906	790	0	-100	0	230	101300000	1000	0	0	-1	800
25994595	7894	791	0	-100	0	230	101300000	1000	0	0	-1	800
26007155	7904	791	0	-100	0	230	101300000	1000	0	0	-1	800
26019715	7907	792	0	-100	0	230	101300000	1000	0	0	-1	800
26032275	7893	791	0	-100	0	230	101300000	1000	0	0	-1	800
26044835	7911	792	0	-100	0	230	101300000	1000	0	0	-1	800
26057395	7904	795	0	-100	0	230	101300000	1000	0	0	-1	800
26069955	7911	791	0	-100	0	230	101300000	1000	0	0	-1	800
26082515	7918	796	0	-100	0	230	101300000	1000	0	0	-1	800
26095075	7909	784	0	-100	0	230	101300000	1000	0	0	-1	800
26107635	7901	787	0	-100	0	230	101300000	1000	0	0	-1	800
26120195	7884	792	0	-100	0	230	101300000	1000	0	0	-1	800
26132755	7904	794	0	-100	0	230	101300000	1000	0	0	-1	800
26145315	7893	792	0	-100	0	230	101300000	1000	0	0	-1	800
26157875	7901	790	0	-100	0	230	101300000	1000	0	0	-1	800
26170435	7888	790	0	-100	0	230	101300000	1000	0	0	-1	800
26182995	7904	794	0	-100	0	230	101300000	1000	0	0	-1	800
26195555	7913	790	0	-100	0	230	101300000	1000	0	0	-1	800
26208115	7909	791	0	-100	0	230	101300000	1000	0	0	-1	800
26220675	7906	794	0	-100	0	230	101300000	1000	0	0	-1	800
26233235	7914	791	0	-100	0	230	101300000	1000	0	0	-1	800
26245795	7928	789	0	-100	0	230	101300000	1000	0	0	-1	800
26258355	7916	785	0	-100	0	230	101300000	1000	0	0	-1	800
26270915	7901	792	0	-100	0	230	101300000	1000	0	0	-1	800
26283475	7908	769	0	-100	0	230	101300000	1000	0	0	-1	800
26296035	7890	787	0	-100	0	230	101300000	1000	0	0	-1	800
26308595	7916	790	0	-100	0	230	101300000	1000	0	0	-1	800
26321155	7911	791	0	-100	0	230	101300000	1000	0	0	-1	800
26333715	7890	788	0	-100	0	230	101300000	1000	0	0	-1	800
26346275	7894	792	0	-100	0	230	101300000	1000	0	0	-1	800
26358835	7901	794	0	-100	0	230	101300000	1000	0	0	-1	800
26371395	7914	772	0	-100	0	230	101300000	1000	0	0	-1	800
26383955	7913	795	0	-100	0	230	101300000	1000	0	0	-1	800
26396515	7909	793	0	-100	0	230	101300000	1000	0	0	-1	800
26409075	7897	791	0	-100	0	230	101300000	1000	0	0	-1	800
26421635	7911	790	0	-100	0	230	101300000	1000	0	0	-1	800
26434195	7916	791	0	-100	0	230	101300000	1000	0	0	-1	800
26446755	7906	795	0	-100	0	230	101300000	1000	0	0	-1	800
26459315	7891	796	0	-100	0	230	101300000	1000	0	0	-1	800
26471875	7908	793	0	-100	0	230	101300000	1000	0	0	-1	800
26484435	7916	791	0	-100	0	230	101300000	1000	0	0	-1	800
26496995	7889	789	0	-100	0	230	101300000	1000	0	0	-1	800
26509555	7906	795	0	-100	0	230	101300000	1000	0	0	-1	800
26522115	7908	785	0	-100	0	230	101300000	1000	0	0	-1	800
26534675	7909	793	0	-100	0	230	101300000	1000	0	0	-1	800
26547235	7909	791	0	-100	0	230	101300000	1000	0	0	-1	800
26559795	7906	792	0	-100	0	230	101300000	1000	0	0	-1	800
26572355	7902	795	0	-100	0	230	101300000	1000	0	0	-1	800
26584915	7914	789	0	-100	0	230	101300000	1000	0	0	-1	800
26597475	7902	789	0	-100	0	230	101300000	1000	0	0	-1	800
26610035	7896	791	0	-100	0	230	101300000	1000	0	0	-1	800
26622595	7901	787	0	-100	0	230	101300000	1000	0	0	-1	800
26635155	7921	792	0	-100	0	230	101300000	1000	0	0	-1	800
26647715	7908	792	0	-100	0	230	101300000	1000	0	0	-1	800
26660275	7899	789	0	-100	0	230	101300000	1000	0	0	-1	800
26672835	7901	792	0	-100	0	230	101300000	1000	0	0	-1	800
26685395	7918	791	0	-100	0	230	101300000	1000	0	0	-1	800
26697955	7892	794	0	-100	0	230	101300000	1000	0	0	-1	800
26710515	7904	797	0	-100	0	230	101300000	1000	0	0	-1	800
26723075	7909	791	0	-100	0	230	101300000	1000	0	0	-1	800
26735635	7905	795	0	-100	0	230	101300000	1000	0	0	-1	800
26748195	7894	792	0	-100	0	230	101300000	1000	0	0	-1	800
26760755	7907	792	0	-100	0	230	101300000	1000	0	0	-1	800
26773315	7902	789	0	-100	0	230	101300000	1000	0	0	-1	800
26785875	7907	790	0	-100	0	230	101300000	1000	0	0	-1	800
26798435	7880	798	0	-100	0	230	101300000	1000	0	0	-1	800
26810995	7911	792	0	-100	0	230	101300000	1000	0	0	-1	800
26823555	7909	795	0	-100	0	230	101300000	1000	0	0	-1	800
26836115	7895	790	0	-100	0	230	101300000	1000	0	0	-1	800
26848675	7901	791	0	-100	0	230	101300000	1000	0	0	-1	800
26861235	7894	791	0	-100	0	230	101300000	1000	0	0	-1	800
26873795	7913	794	0	-100	0	230	101300000	1000	0	0	-1	800
26886355	7896	785	0	-100	0	230	101300000	1000	0	0	-1	800
26898915	7899	791	0	-100	0	230	101300000	1000	0	0	-1	800
26911475	7885	793	0	-100	0	230	101300000	1000	0	0	-1	800
26924035	7904	795	0	-100	0	230	101300000	1000	0	0	-1	800
26936595	7894	792	0	-100	0	230	101300000	1000	0	0	-1	800
26949155	7911	792	0	-100	0	230	101300000	1000	0	0	-1	800
26961715	7900	786	0	-100	0	230	101300000	1000	0	0	-1	800
26974275	7899	794	0	-100	0	230	101300000	1000	0	0	-1	800
26986835	7899	792	0	-100	0	230	101300000	1000	0	0	-1	800
26999395	7904	793	0	-100	0	230	101300000	1000	0	0	-1	800
27011955	7901	791	0	-100	0	230	101300000	1000	0	0	-1	800
27024515	7914	789	0	-100	0	230	101300000	1000	0	0	-1	800
27037075	7909	787	0	-100	0	230	101300000	1000	0	0	-1	800
27049635	7902	789	0	-100	0	230	101300000	1000	0	0	-1	800
