timestamp	voltage	current	windSpeed	pitchAngle	rpm	temperature	ambientPressure	humidity	accelerationX	accelerationY	accelerationZ	currentSink
7039070	8524	4	0	-100	0	230	101300000	1000	0	0	-1	0
7046523	8515	0	0	-100	0	230	101300000	1000	0	0	-1	0
7059083	8522	0	0	-100	0	230	101300000	1000	0	0	-1	0
7071643	8517	0	0	-100	0	230	101300000	1000	0	0	-1	0
7084203	8520	0	0	-100	0	230	101300000	1000	0	0	-1	0
7096763	8517	0	0	-100	0	230	101300000	1000	0	0	-1	0
7109323	8517	0	0	-100	0	230	101300000	1000	0	0	-1	0
7121883	8515	0	0	-100	0	230	101300000	1000	0	0	-1	0
7134443	8517	0	0	-100	0	230	101300000	1000	0	0	-1	0
7147004	8527	0	0	-100	0	230	101300000	1000	0	0	-1	0
7159563	8517	4	0	-100	0	230	101300000	1000	0	0	-1	0
7172123	8519	2	0	-100	0	230	101300000	1000	0	0	-1	0
7184683	8522	0	0	-100	0	230	101300000	1000	0	0	-1	0
7197243	8522	0	0	-100	0	230	101300000	1000	0	0	-1	0
7209803	8515	1	0	-100	0	230	101300000	1000	0	0	-1	0
7222363	8517	0	0	-100	0	230	101300000	1000	0	0	-1	0
7234923	8520	0	0	-100	0	230	101300000	1000	0	0	-1	0
7247483	8520	0	0	-100	0	230	101300000	1000	0	0	-1	0
7260043	8524	0	0	-100	0	230	101300000	1000	0	0	-1	0
7272603	8524	0	0	-100	0	230	101300000	1000	0	0	-1	0
7285163	8536	0	0	-100	0	230	101300000	1000	0	0	-1	0
7297723	8522	0	0	-100	0	230	101300000	1000	0	0	-1	0
7310283	8529	0	0	-100	0	230	101300000	1000	0	0	-1	0
7322843	8524	0	0	-100	0	230	101300000	1000	0	0	-1	0
7335403	8522	0	0	-100	0	230	101300000	1000	0	0	-1	0
7347963	8519	3	0	-100	0	230	101300000	1000	0	0	-1	0
7693675	7877	867	0	-100	0	230	101300000	1000	0	0	-1	900
7706235	7886	864	0	-100	0	230	101300000	1000	0	0	-1	900
7718795	7894	867	0	-100	0	230	101300000	1000	0	0	-1	900
7731355	7882	863	0	-100	0	230	101300000	1000	0	0	-1	900
7743915	7879	859	0	-100	0	230	101300000	1000	0	0	-1	900
7756475	7877	865	0	-100	0	230	101300000	1000	0	0	-1	900
7769035	7887	859	0	-100	0	230	101300000	1000	0	0	-1	900
7781595	7867	859	0	-100	0	230	101300000	1000	0	0	-1	900
7794155	7906	867	0	-100	0	230	101300000	1000	0	0	-1	900
7806715	7882	867	0	-100	0	230	101300000	1000	0	0	-1	900
7819275	7889	863	0	-100	0	230	101300000	1000	0	0	-1	900
7831835	7851	860	0	-100	0	230	101300000	1000	0	0	-1	900
7844395	7882	864	0	-100	0	230	101300000	1000	0	0	-1	900
7856955	7890	859	0	-100	0	230	101300000	1000	0	0	-1	900
7869515	7894	864	0	-100	0	230	101300000	1000	0	0	-1	900
7882075	7867	866	0	-100	0	230	101300000	1000	0	0	-1	900
7894635	7891	863	0	-100	0	230	101300000	1000	0	0	-1	900
7907195	7884	870	0	-100	0	230	101300000	1000	0	0	-1	900
7919755	7889	862	0	-100	0	230	101300000	1000	0	0	-1	900
7932315	7877	862	0	-100	0	230	101300000	1000	0	0	-1	900
7944875	7865	864	0	-100	0	230	101300000	1000	0	0	-1	900
7957435	7877	862	0	-100	0	230	101300000	1000	0	0	-1	900
7969995	7890	871	0	-100	0	230	101300000	1000	0	0	-1	900
7982555	7884	864	0	-100	0	230	101300000	1000	0	0	-1	900
7995115	7888	863	0	-100	0	230	101300000	1000	0	0	-1	900
8007675	7887	863	0	-100	0	230	101300000	1000	0	0	-1	900
8020235	7884	867	0	-100	0	230	101300000	1000	0	0	-1	900
8032795	7879	861	0	-100	0	230	101300000	1000	0	0	-1	900
8045355	7876	861	0	-100	0	230	101300000	1000	0	0	-1	900
8057915	7879	868	0	-100	0	230	101300000	1000	0	0	-1	900
8070475	7896	864	0	-100	0	230	101300000	1000	0	0	-1	900
8083035	7872	863	0	-100	0	230	101300000	1000	0	0	-1	900
8095595	7884	863	0	-100	0	230	101300000	1000	0	0	-1	900
8108155	7896	867	0	-100	0	230	101300000	1000	0	0	-1	900
8120715	7869	864	0	-100	0	230	101300000	1000	0	0	-1	900
8133275	7880	870	0	-100	0	230	101300000	1000	0	0	-1	900
8145835	7882	863	0	-100	0	230	101300000	1000	0	0	-1	900
8196075	7889	862	0	-100	0	230	101300000	1000	0	0	-1	900
8208635	7875	863	0	-100	0	230	101300000	1000	0	0	-1	900
8221195	7889	862	0	-100	0	230	101300000	1000	0	0	-1	900
8233755	7889	863	0	-100	0	230	101300000	1000	0	0	-1	900
8246315	7882	862	0	-100	0	230	101300000	1000	0	0	-1	900
8258875	7884	862	0	-100	0	230	101300000	1000	0	0	-1	900
8271435	7875	867	0	-100	0	230	101300000	1000	0	0	-1	900
8283995	7873	867	0	-100	0	230	101300000	1000	0	0	-1	900
8296555	7880	867	0	-100	0	230	101300000	1000	0	0	-1	900
8309115	7879	866	0	-100	0	230	101300000	1000	0	0	-1	900
8321675	7891	872	0	-100	0	230	101300000	1000	0	0	-1	900
8384475	7889	850	0	-100	0	230	101300000	1000	0	0	-1	900
8397035	7875	866	0	-100	0	230	101300000	1000	0	0	-1	900
8409595	7884	869	0	-100	0	230	101300000	1000	0	0	-1	900
8422155	7893	867	0	-100	0	230	101300000	1000	0	0	-1	900
8434715	7877	867	0	-100	0	230	101300000	1000	0	0	-1	900
8447275	7891	867	0	-100	0	230	101300000	1000	0	0	-1	900
8459835	7891	868	0	-100	0	230	101300000	1000	0	0	-1	900
8472395	7882	867	0	-100	0	230	101300000	1000	0	0	-1	900
8484955	7887	863	0	-100	0	230	101300000	1000	0	0	-1	900
8497515	7879	860	0	-100	0	230	101300000	1000	0	0	-1	900
8510075	7875	862	0	-100	0	230	101300000	1000	0	0	-1	900
8522635	7884	863	0	-100	0	230	101300000	1000	0	0	-1	900
8560315	7884	866	0	-100	0	230	101300000	1000	0	0	-1	900
8572875	7882	866	0	-100	0	230	101300000	1000	0	0	-1	900
8585435	7886	867	0	-100	0	230	101300000	1000	0	0	-1	900
8597995	7856	863	0	-100	0	230	101300000	1000	0	0	-1	900
8610555	7884	873	0	-100	0	230	101300000	1000	0	0	-1	900
8623115	7889	866	0	-100	0	230	101300000	1000	0	0	-1	900
8635675	7894	859	0	-100	0	230	101300000	1000	0	0	-1	900
8648235	7881	868	0	-100	0	230	101300000	1000	0	0	-1	900
8660795	7887	871	0	-100	0	230	101300000	1000	0	0	-1	900
8673355	7870	867	0	-100	0	230	101300000	1000	0	0	-1	900
8685915	7891	867	0	-100	0	230	101300000	1000	0	0	-1	900
8698475	7872	870	0	-100	0	230	101300000	1000	0	0	-1	900
8736155	7897	866	0	-100	0	230	101300000	1000	0	0	-1	900
8748715	7872	866	0	-100	0	230	101300000	1000	0	0	-1	900
8761275	7873	868	0	-100	0	230	101300000	1000	0	0	-1	900
8773835	7865	867	0	-100	0	230	101300000	1000	0	0	-1	900
8786395	7882	866	0	-100	0	230	101300000	1000	0	0	-1	900
8798955	7882	864	0	-100	0	230	101300000	1000	0	0	-1	900
8811515	7877	867	0	-100	0	230	101300000	1000	0	0	-1	900
8824075	7880	867	0	-100	0	230	101300000	1000	0	0	-1	900
8836635	7882	863	0	-100	0	230	101300000	1000	0	0	-1	900
8849195	7875	863	0	-100	0	230	101300000	1000	0	0	-1	900
8861755	7863	867	0	-100	0	230	101300000	1000	0	0	-1	900
8874315	7882	866	0	-100	0	230	101300000	1000	0	0	-1	900
8886875	7886	873	0	-100	0	230	101300000	1000	0	0	-1	900
8899435	7879	866	0	-100	0	230	101300000	1000	0	0	-1	900
8911995	7884	870	0	-100	0	230	101300000	1000	0	0	-1	900
8924555	7879	867	0	-100	0	230	101300000	1000	0	0	-1	900
8937115	7894	868	0	-100	0	230	101300000	1000	0	0	-1	900
8949675	7880	867	0	-100	0	230	101300000	1000	0	0	-1	900
8962235	7896	869	0	-100	0	230	101300000	1000	0	0	-1	900
8974795	7872	866	0	-100	0	230	101300000	1000	0	0	-1	900
8987355	7904	867	0	-100	0	230	101300000	1000	0	0	-1	900
8999915	7878	862	0	-100	0	230	101300000	1000	0	0	-1	900
9012475	7888	867	0	-100	0	230	101300000	1000	0	0	-1	900
9025035	7889	865	0	-100	0	230	101300000	1000	0	0	-1	900
9037595	7889	863	0	-100	0	230	101300000	1000	0	0	-1	900
9050155	7905	871	0	-100	0	230	101300000	1000	0	0	-1	900
9062715	7870	870	0	-100	0	230	101300000	1000	0	0	-1	900
9075275	7886	863	0	-100	0	230	101300000	1000	0	0	-1	900
9087835	7884	870	0	-100	0	230	101300000	1000	0	0	-1	900
9100395	7887	867	0	-100	0	230	101300000	1000	0	0	-1	900
9112955	7877	861	0	-100	0	230	101300000	1000	0	0	-1	900
9125515	7878	865	0	-100	0	230	101300000	1000	0	0	-1	900
9138075	7896	865	0	-100	0	230	101300000	1000	0	0	-1	900
9150635	7882	868	0	-100	0	230	101300000	1000	0	0	-1	900
9163195	7884	867	0	-100	0	230	101300000	1000	0	0	-1	900
9175755	7886	869	0	-100	0	230	101300000	1000	0	0	-1	900
9188315	7871	867	0	-100	0	230	101300000	1000	0	0	-1	900
9200875	7883	867	0	-100	0	230	101300000	1000	0	0	-1	900
9213435	7884	863	0	-100	0	230	101300000	1000	0	0	-1	900
9225995	7874	867	0	-100	0	230	101300000	1000	0	0	-1	900
9238555	7865	868	0	-100	0	230	101300000	1000	0	0	-1	900
9251115	7888	866	0	-100	0	230	101300000	1000	0	0	-1	900
9263675	7903	863	0	-100	0	230	101300000	1000	0	0	-1	900
9276235	7878	866	0	-100	0	230	101300000	1000	0	0	-1	900
9288795	7889	867	0	-100	0	230	101300000	1000	0	0	-1	900
9301355	7872	867	0	-100	0	230	101300000	1000	0	0	-1	900
9313915	7884	870	0	-100	0	230	101300000	1000	0	0	-1	900
9326475	7877	864	0	-100	0	230	101300000	1000	0	0	-1	900
9339035	7884	868	0	-100	0	230	101300000	1000	0	0	-1	900
9351595	7883	867	0	-100	0	230	101300000	1000	0	0	-1	900
9364155	7889	869	0	-100	0	230	101300000	1000	0	0	-1	900
9376715	7877	868	0	-100	0	230	101300000	1000	0	0	-1	900
9389275	7894	868	0	-100	0	230	101300000	1000	0	0	-1	900
9401835	7886	872	0	-100	0	230	101300000	1000	0	0	-1	900
9414395	7877	870	0	-100	0	230	101300000	1000	0	0	-1	900
9426955	7882	874	0	-100	0	230	101300000	1000	0	0	-1	900
9439515	7906	866	0	-100	0	230	101300000	1000	0	0	-1	900
9452075	7894	869	0	-100	0	230	101300000	1000	0	0	-1	900
9464635	7885	867	0	-100	0	230	101300000	1000	0	0	-1	900
9477195	7884	863	0	-100	0	230	101300000	1000	0	0	-1	900
9489755	7879	865	0	-100	0	230	101300000	1000	0	0	-1	900
9502315	7882	867	0	-100	0	230	101300000	1000	0	0	-1	900
9514875	7875	865	0	-100	0	230	101300000	1000	0	0	-1	900
9527435	7876	869	0	-100	0	230	101300000	1000	0	0	-1	900
9539995	7881	873	0	-100	0	230	101300000	1000	0	0	-1	900
9552555	7887	862	0	-100	0	230	101300000	1000	0	0	-1	900
9565115	7877	868	0	-100	0	230	101300000	1000	0	0	-1	900
9577675	7884	864	0	-100	0	230	101300000	1000	0	0	-1	900
9590235	7882	868	0	-100	0	230	101300000	1000	0	0	-1	900
9602795	7887	871	0	-100	0	230	101300000	1000	0	0	-1	900
9615355	7860	865	0	-100	0	230	101300000	1000	0	0	-1	900
9627915	7862	880	0	-100	0	230	101300000	1000	0	0	-1	900
9640475	7896	871	0	-100	0	230	101300000	1000	0	0	-1	900
9653035	7891	871	0	-100	0	230	101300000	1000	0	0	-1	900
9665595	7898	848	0	-100	0	230	101300000	1000	0	0	-1	900
9678155	7889	869	0	-100	0	230	101300000	1000	0	0	-1	900
9690715	7882	869	0	-100	0	230	101300000	1000	0	0	-1	900
9703275	7881	873	0	-100	0	230	101300000	1000	0	0	-1	900
9715835	7875	868	0	-100	0	230	101300000	1000	0	0	-1	900
9728395	7903	864	0	-100	0	230	101300000	1000	0	0	-1	900
9740955	7885	865	0	-100	0	230	101300000	1000	0	0	-1	900
9753515	7874	866	0	-100	0	230	101300000	1000	0	0	-1	900
9766075	7896	866	0	-100	0	230	101300000	1000	0	0	-1	900
9778635	7884	869	0	-100	0	230	101300000	1000	0	0	-1	900
9791195	7867	864	0	-100	0	230	101300000	1000	0	0	-1	900
9803755	7896	867	0	-100	0	230	101300000	1000	0	0	-1	900
9816315	7882	870	0	-100	0	230	101300000	1000	0	0	-1	900
9828875	7883	869	0	-100	0	230	101300000	1000	0	0	-1	900
9841435	7875	865	0	-100	0	230	101300000	1000	0	0	-1	900
9853995	7884	870	0	-100	0	230	101300000	1000	0	0	-1	900
9866555	7891	873	0	-100	0	230	101300000	1000	0	0	-1	900
9879115	7867	867	0	-100	0	230	101300000	1000	0	0	-1	900
9891675	7893	871	0	-100	0	230	101300000	1000	0	0	-1	900
9904235	7882	868	0	-100	0	230	101300000	1000	0	0	-1	900
9916795	7873	866	0	-100	0	230	101300000	1000	0	0	-1	900
9929355	7894	869	0	-100	0	230	101300000	1000	0	0	-1	900
9941915	7881	874	0	-100	0	230	101300000	1000	0	0	-1	900
9954475	7884	870	0	-100	0	230	101300000	1000	0	0	-1	900
9967035	7891	868	0	-100	0	230	101300000	1000	0	0	-1	900
9979595	7911	867	0	-100	0	230	101300000	1000	0	0	-1	900
9992155	7901	867	0	-100	0	230	101300000	1000	0	0	-1	900
10004715	7894	867	0	-100	0	230	101300000	1000	0	0	-1	900
10017275	7894	866	0	-100	0	230	101300000	1000	0	0	-1	900
10029835	7879	866	0	-100	0	230	101300000	1000	0	0	-1	900
10042395	7882	870	0	-100	0	230	101300000	1000	0	0	-1	900
10054955	7875	871	0	-100	0	230	101300000	1000	0	0	-1	900
10067515	7887	867	0	-100	0	230	101300000	1000	0	0	-1	900
10080075	7879	873	0	-100	0	230	101300000	1000	0	0	-1	900
10092635	7884	870	0	-100	0	230	101300000	1000	0	0	-1	900
10105195	7872	866	0	-100	0	230	101300000	1000	0	0	-1	900
10117755	7891	870	0	-100	0	230	101300000	1000	0	0	-1	900
10130315	7896	872	0	-100	0	230	101300000	1000	0	0	-1	900
10142875	7884	871	0	-100	0	230	101300000	1000	0	0	-1	900
10155435	7896	867	0	-100	0	230	101300000	1000	0	0	-1	900
10167995	7889	868	0	-100	0	230	101300000	1000	0	0	-1	900
10180555	7883	867	0	-100	0	230	101300000	1000	0	0	-1	900
10193115	7872	866	0	-100	0	230	101300000	1000	0	0	-1	900
10205675	7887	873	0	-100	0	230	101300000	1000	0	0	-1	900
10218235	7891	869	0	-100	0	230	101300000	1000	0	0	-1	900
10230795	7878	865	0	-100	0	230	101300000	1000	0	0	-1	900
10243355	7886	870	0	-100	0	230	101300000	1000	0	0	-1	900
10255915	7875	871	0	-100	0	230	101300000	1000	0	0	-1	900
10268475	7886	868	0	-100	0	230	101300000	1000	0	0	-1	900
10281035	7884	867	0	-100	0	230	101300000	1000	0	0	-1	900
10293595	7884	866	0	-100	0	230	101300000	1000	0	0	-1	900
10306155	7889	869	0	-100	0	230	101300000	1000	0	0	-1	900
10318715	7887	872	0	-100	0	230	101300000	1000	0	0	-1	900
10331275	7879	867	0	-100	0	230	101300000	1000	0	0	-1	900
10343835	7875	867	0	-100	0	230	101300000	1000	0	0	-1	900
10356395	7882	866	0	-100	0	230	101300000	1000	0	0	-1	900
10368955	7872	870	0	-100	0	230	101300000	1000	0	0	-1	900
10381515	7881	872	0	-100	0	230	101300000	1000	0	0	-1	900
10394075	7882	871	0	-100	0	230	101300000	1000	0	0	-1	900
10406635	7889	869	0	-100	0	230	101300000	1000	0	0	-1	900
10419195	7889	870	0	-100	0	230	101300000	1000	0	0	-1	900
10431755	7887	867	0	-100	0	230	101300000	1000	0	0	-1	900
10444315	7886	869	0	-100	0	230	101300000	1000	0	0	-1	900
10456875	7874	869	0	-100	0	230	101300000	1000	0	0	-1	900
10469435	7894	865	0	-100	0	230	101300000	1000	0	0	-1	900
10481995	7877	872	0	-100	0	230	101300000	1000	0	0	-1	900
10494555	7889	869	0	-100	0	230	101300000	1000	0	0	-1	900
10507115	7884	869	0	-100	0	230	101300000	1000	0	0	-1	900
10519675	7894	870	0	-100	0	230	101300000	1000	0	0	-1	900
10532235	7881	870	0	-100	0	230	101300000	1000	0	0	-1	900
10544795	7906	872	0	-100	0	230	101300000	1000	0	0	-1	900
10557355	7878	872	0	-100	0	230	101300000	1000	0	0	-1	900
10569915	7878	869	0	-100	0	230	101300000	1000	0	0	-1	900
10582475	7884	877	0	-100	0	230	101300000	1000	0	0	-1	900
10595035	7898	868	0	-100	0	230	101300000	1000	0	0	-1	900
10607595	7887	866	0	-100	0	230	101300000	1000	0	0	-1	900
10620155	7896	864	0	-100	0	230	101300000	1000	0	0	-1	900
10632715	7875	872	0	-100	0	230	101300000	1000	0	0	-1	900
10645275	7874	870	0	-100	0	230	101300000	1000	0	0	-1	900
10657835	7879	869	0	-100	0	230	101300000	1000	0	0	-1	900
10670395	7892	865	0	-100	0	230	101300000	1000	0	0	-1	900
10682955	7879	873	0	-100	0	230	101300000	1000	0	0	-1	900
10695515	7879	870	0	-100	0	230	101300000	1000	0	0	-1	900
10708075	7891	870	0	-100	0	230	101300000	1000	0	0	-1	900
10720635	7886	869	0	-100	0	230	101300000	1000	0	0	-1	900
10733195	7884	872	0	-100	0	230	101300000	1000	0	0	-1	900
10745755	7901	864	0	-100	0	230	101300000	1000	0	0	-1	900
10758315	7884	867	0	-100	0	230	101300000	1000	0	0	-1	900
10770875	7870	872	0	-100	0	230	101300000	1000	0	0	-1	900
10783435	7869	874	0	-100	0	230	101300000	1000	0	0	-1	900
10795995	7875	872	0	-100	0	230	101300000	1000	0	0	-1	900
10808555	7884	869	0	-100	0	230	101300000	1000	0	0	-1	900
10821115	7877	880	0	-100	0	230	101300000	1000	0	0	-1	900
10833675	7878	875	0	-100	0	230	101300000	1000	0	0	-1	900
10846235	7901	866	0	-100	0	230	101300000	1000	0	0	-1	900
10858795	7870	870	0	-100	0	230	101300000	1000	0	0	-1	900
10871355	7881	874	0	-100	0	230	101300000	1000	0	0	-1	900
10883915	7880	872	0	-100	0	230	101300000	1000	0	0	-1	900
10896475	7870	865	0	-100	0	230	101300000	1000	0	0	-1	900
10909035	7889	870	0	-100	0	230	101300000	1000	0	0	-1	900
10921595	7887	868	0	-100	0	230	101300000	1000	0	0	-1	900
10934155	7894	867	0	-100	0	230	101300000	1000	0	0	-1	900
10946715	7882	866	0	-100	0	230	101300000	1000	0	0	-1	900
10959275	7882	870	0	-100	0	230	101300000	1000	0	0	-1	900
10971835	7889	868	0	-100	0	230	101300000	1000	0	0	-1	900
10984395	7872	870	0	-100	0	230	101300000	1000	0	0	-1	900
10996955	7881	875	0	-100	0	230	101300000	1000	0	0	-1	900
11009515	7888	870	0	-100	0	230	101300000	1000	0	0	-1	900
11022075	7891	867	0	-100	0	230	101300000	1000	0	0	-1	900
11034635	7880	871	0	-100	0	230	101300000	1000	0	0	-1	900
11047195	7889	871	0	-100	0	230	101300000	1000	0	0	-1	900
11059755	7868	874	0	-100	0	230	101300000	1000	0	0	-1	900
11072315	7894	871	0	-100	0	230	101300000	1000	0	0	-1	900
11084875	7880	869	0	-100	0	230	101300000	1000	0	0	-1	900
11097435	7875	867	0	-100	0	230	101300000	1000	0	0	-1	900
11109995	7888	868	0	-100	0	230	101300000	1000	0	0	-1	900
11122555	7887	869	0	-100	0	230	101300000	1000	0	0	-1	900
11135115	7868	869	0	-100	0	230	101300000	1000	0	0	-1	900
11147675	7893	874	0	-100	0	230	101300000	1000	0	0	-1	900
11160235	7882	870	0	-100	0	230	101300000	1000	0	0	-1	900
11172795	7896	866	0	-100	0	230	101300000	1000	0	0	-1	900
11185355	7896	867	0	-100	0	230	101300000	1000	0	0	-1	900
11197915	7901	868	0	-100	0	230	101300000	1000	0	0	-1	900
11210475	7891	871	0	-100	0	230	101300000	1000	0	0	-1	900
11223035	7875	871	0	-100	0	230	101300000	1000	0	0	-1	900
11235595	7872	872	0	-100	0	230	101300000	1000	0	0	-1	900
11248155	7884	870	0	-100	0	230	101300000	1000	0	0	-1	900
11285835	7879	866	0	-100	0	230	101300000	1000	0	0	-1	900
11298395	7875	871	0	-100	0	230	101300000	1000	0	0	-1	900
11310955	7884	876	0	-100	0	230	101300000	1000	0	0	-1	900
11323515	7878	870	0	-100	0	230	101300000	1000	0	0	-1	900
11336075	7870	866	0	-100	0	230	101300000	1000	0	0	-1	900
11348635	7873	874	0	-100	0	230	101300000	1000	0	0	-1	900
11361195	7885	866	0	-100	0	230	101300000	1000	0	0	-1	900
11373755	7888	870	0	-100	0	230	101300000	1000	0	0	-1	900
11386315	7877	859	0	-100	0	230	101300000	1000	0	0	-1	900
11398875	7875	867	0	-100	0	230	101300000	1000	0	0	-1	900
11411435	7870	873	0	-100	0	230	101300000	1000	0	0	-1	900
11423995	7874	870	0	-100	0	230	101300000	1000	0	0	-1	900
11486795	7886	868	0	-100	0	230	101300000	1000	0	0	-1	900
11499355	7889	871	0	-100	0	230	101300000	1000	0	0	-1	900
11511915	7875	868	0	-100	0	230	101300000	1000	0	0	-1	900
11524475	7886	870	0	-100	0	230	101300000	1000	0	0	-1	900
11537035	7874	871	0	-100	0	230	101300000	1000	0	0	-1	900
11549595	7870	868	0	-100	0	230	101300000	1000	0	0	-1	900
11562155	7904	872	0	-100	0	230	101300000	1000	0	0	-1	900
11574715	7870	870	0	-100	0	230	101300000	1000	0	0	-1	900
11587275	7890	867	0	-100	0	230	101300000	1000	0	0	-1	900
11599835	7870	872	0	-100	0	230	101300000	1000	0	0	-1	900
11612395	7875	873	0	-100	0	230	101300000	1000	0	0	-1	900
11624955	7892	872	0	-100	0	230	101300000	1000	0	0	-1	900
11637515	7877	874	0	-100	0	230	101300000	1000	0	0	-1	900
11650075	7886	871	0	-100	0	230	101300000	1000	0	0	-1	900
11662635	7887	851	0	-100	0	230	101300000	1000	0	0	-1	900
11675195	7880	869	0	-100	0	230	101300000	1000	0	0	-1	900
11687755	7894	873	0	-100	0	230	101300000	1000	0	0	-1	900
11700315	7894	869	0	-100	0	230	101300000	1000	0	0	-1	900
11712875	7884	875	0	-100	0	230	101300000	1000	0	0	-1	900
11725435	7867	873	0	-100	0	230	101300000	1000	0	0	-1	900
11737995	7880	870	0	-100	0	230	101300000	1000	0	0	-1	900
11750555	7886	871	0	-100	0	230	101300000	1000	0	0	-1	900
11763115	7887	868	0	-100	0	230	101300000	1000	0	0	-1	900
11775675	7872	876	0	-100	0	230	101300000	1000	0	0	-1	900
11788235	7898	873	0	-100	0	230	101300000	1000	0	0	-1	900
11800795	7892	869	0	-100	0	230	101300000	1000	0	0	-1	900
11813355	7861	873	0	-100	0	230	101300000	1000	0	0	-1	900
11825915	7894	870	0	-100	0	230	101300000	1000	0	0	-1	900
11838475	7901	868	0	-100	0	230	101300000	1000	0	0	-1	900
11851035	7901	867	0	-100	0	230	101300000	1000	0	0	-1	900
11863595	7881	875	0	-100	0	230	101300000	1000	0	0	-1	900
11876155	7891	874	0	-100	0	230	101300000	1000	0	0	-1	900
11888715	7889	871	0	-100	0	230	101300000	1000	0	0	-1	900
11901275	7889	866	0	-100	0	230	101300000	1000	0	0	-1	900
11913835	7882	873	0	-100	0	230	101300000	1000	0	0	-1	900
11926395	7865	866	0	-100	0	230	101300000	1000	0	0	-1	900
11938955	7881	871	0	-100	0	230	101300000	1000	0	0	-1	900
11951515	7872	872	0	-100	0	230	101300000	1000	0	0	-1	900
11964075	7896	872	0	-100	0	230	101300000	1000	0	0	-1	900
11976635	7887	869	0	-100	0	230	101300000	1000	0	0	-1	900
11989195	7892	871	0	-100	0	230	101300000	1000	0	0	-1	900
12001755	7882	865	0	-100	0	230	101300000	1000	0	0	-1	900
12014315	7884	871	0	-100	0	230	101300000	1000	0	0	-1	900
12026875	7894	871	0	-100	0	230	101300000	1000	0	0	-1	900
12039435	7886	876	0	-100	0	230	101300000	1000	0	0	-1	900
12051995	7889	870	0	-100	0	230	101300000	1000	0	0	-1	900
12064555	7888	874	0	-100	0	230	101300000	1000	0	0	-1	900
12077115	7884	869	0	-100	0	230	101300000	1000	0	0	-1	900
12089675	7886	869	0	-100	0	230	101300000	1000	0	0	-1	900
12102235	7880	870	0	-100	0	230	101300000	1000	0	0	-1	900
12114795	7889	870	0	-100	0	230	101300000	1000	0	0	-1	900
12127355	7889	866	0	-100	0	230	101300000	1000	0	0	-1	900
12139915	7875	867	0	-100	0	230	101300000	1000	0	0	-1	900
12152475	7887	873	0	-100	0	230	101300000	1000	0	0	-1	900
12165035	7881	870	0	-100	0	230	101300000	1000	0	0	-1	900
12177595	7908	867	0	-100	0	230	101300000	1000	0	0	-1	900
12190155	7868	870	0	-100	0	230	101300000	1000	0	0	-1	900
12202715	7882	869	0	-100	0	230	101300000	1000	0	0	-1	900
12215275	7880	869	0	-100	0	230	101300000	1000	0	0	-1	900
12227835	7879	874	0	-100	0	230	101300000	1000	0	0	-1	900
12240395	7875	870	0	-100	0	230	101300000	1000	0	0	-1	900
12252955	7874	871	0	-100	0	230	101300000	1000	0	0	-1	900
12265515	7870	867	0	-100	0	230	101300000	1000	0	0	-1	900
12278075	7877	877	0	-100	0	230	101300000	1000	0	0	-1	900
12290635	7898	873	0	-100	0	230	101300000	1000	0	0	-1	900
12303195	7893	872	0	-100	0	230	101300000	1000	0	0	-1	900
12315755	7892	875	0	-100	0	230	101300000	1000	0	0	-1	900
12328315	7879	875	0	-100	0	230	101300000	1000	0	0	-1	900
12340875	7890	866	0	-100	0	230	101300000	1000	0	0	-1	900
12353435	7894	865	0	-100	0	230	101300000	1000	0	0	-1	900
12365995	7875	869	0	-100	0	230	101300000	1000	0	0	-1	900
12378555	7889	874	0	-100	0	230	101300000	1000	0	0	-1	900
12391115	7874	873	0	-100	0	230	101300000	1000	0	0	-1	900
12403675	7896	866	0	-100	0	230	101300000	1000	0	0	-1	900
12416235	7882	877	0	-100	0	230	101300000	1000	0	0	-1	900
12428795	7875	868	0	-100	0	230	101300000	1000	0	0	-1	900
12441355	7875	869	0	-100	0	230	101300000	1000	0	0	-1	900
12453915	7886	871	0	-100	0	230	101300000	1000	0	0	-1	900
12466475	7878	868	0	-100	0	230	101300000	1000	0	0	-1	900
12479035	7884	870	0	-100	0	230	101300000	1000	0	0	-1	900
12491595	7898	872	0	-100	0	230	101300000	1000	0	0	-1	900
12504155	7889	867	0	-100	0	230	101300000	1000	0	0	-1	900
12516715	7899	868	0	-100	0	230	101300000	1000	0	0	-1	900
12529275	7893	869	0	-100	0	230	101300000	1000	0	0	-1	900
12541835	7875	870	0	-100	0	230	101300000	1000	0	0	-1	900
12554395	7881	871	0	-100	0	230	101300000	1000	0	0	-1	900
12566955	7879	870	0	-100	0	230	101300000	1000	0	0	-1	900
12579515	7882	866	0	-100	0	230	101300000	1000	0	0	-1	900
12592075	7868	868	0	-100	0	230	101300000	1000	0	0	-1	900
12604635	7877	873	0	-100	0	230	101300000	1000	0	0	-1	900
12617195	7876	872	0	-100	0	230	101300000	1000	0	0	-1	900
12629755	7880	871	0	-100	0	230	101300000	1000	0	0	-1	900
12642315	7884	870	0	-100	0	230	101300000	1000	0	0	-1	900
12654875	7891	846	0	-100	0	230	101300000	1000	0	0	-1	900
12667435	7892	870	0	-100	0	230	101300000	1000	0	0	-1	900
12679995	7880	870	0	-100	0	230	101300000	1000	0	0	-1	900
12692555	7891	873	0	-100	0	230	101300000	1000	0	0	-1	900
12705115	7882	875	0	-100	0	230	101300000	1000	0	0	-1	900
12717675	7884	872	0	-100	0	230	101300000	1000	0	0	-1	900
12730235	7879	872	0	-100	0	230	101300000	1000	0	0	-1	900
12742795	7884	865	0	-100	0	230	101300000	1000	0	0	-1	900
12755355	7877	869	0	-100	0	230	101300000	1000	0	0	-1	900
12767915	7884	870	0	-100	0	230	101300000	1000	0	0	-1	900
12780475	7884	870	0	-100	0	230	101300000	1000	0	0	-1	900
12793035	7871	870	0	-100	0	230	101300000	1000	0	0	-1	900
12805595	7879	867	0	-100	0	230	101300000	1000	0	0	-1	900
12818155	7897	868	0	-100	0	230	101300000	1000	0	0	-1	900
12830715	7889	867	0	-100	0	230	101300000	1000	0	0	-1	900
12843275	7891	868	0	-100	0	230	101300000	1000	0	0	-1	900
12855835	7882	867	0	-100	0	230	101300000	1000	0	0	-1	900
12868395	7891	867	0	-100	0	230	101300000	1000	0	0	-1	900
12880955	7884	872	0	-100	0	230	101300000	1000	0	0	-1	900
12893515	7894	868	0	-100	0	230	101300000	1000	0	0	-1	900
12906075	7870	866	0	-100	0	230	101300000	1000	0	0	-1	900
12918635	7879	864	0	-100	0	230	101300000	1000	0	0	-1	900
12931195	7869	875	0	-100	0	230	101300000	1000	0	0	-1	900
12943755	7892	866	0	-100	0	230	101300000	1000	0	0	-1	900
12956315	7886	867	0	-100	0	230	101300000	1000	0	0	-1	900
12968875	7886	869	0	-100	0	230	101300000	1000	0	0	-1	900
12981435	7884	866	0	-100	0	230	101300000	1000	0	0	-1	900
12993995	7893	869	0	-100	0	230	101300000	1000	0	0	-1	900
13006555	7875	868	0	-100	0	230	101300000	1000	0	0	-1	900
13019115	7881	873	0	-100	0	230	101300000	1000	0	0	-1	900
13031675	7893	878	0	-100	0	230	101300000	1000	0	0	-1	900
13044235	7889	868	0	-100	0	230	101300000	1000	0	0	-1	900
13056795	7884	873	0	-100	0	230	101300000	1000	0	0	-1	900
13069355	7891	872	0	-100	0	230	101300000	1000	0	0	-1	900
13081915	7882	880	0	-100	0	230	101300000	1000	0	0	-1	900
13094475	7884	877	0	-100	0	230	101300000	1000	0	0	-1	900
13107035	7889	872	0	-100	0	230	101300000	1000	0	0	-1	900
13119595	7879	869	0	-100	0	230	101300000	1000	0	0	-1	900
13132155	7886	874	0	-100	0	230	101300000	1000	0	0	-1	900
13144715	7861	871	0	-100	0	230	101300000	1000	0	0	-1	900
13157275	7879	869	0	-100	0	230	101300000	1000	0	0	-1	900
13169835	7887	866	0	-100	0	230	101300000	1000	0	0	-1	900
13182395	7884	875	0	-100	0	230	101300000	1000	0	0	-1	900
13194955	7880	878	0	-100	0	230	101300000	1000	0	0	-1	900
13207515	7882	869	0	-100	0	230	101300000	1000	0	0	-1	900
13220075	7879	869	0	-100	0	230	101300000	1000	0	0	-1	900
13232635	7870	872	0	-100	0	230	101300000	1000	0	0	-1	900
13245195	7879	870	0	-100	0	230	101300000	1000	0	0	-1	900
13257755	7882	868	0	-100	0	230	101300000	1000	0	0	-1	900
13270315	7880	869	0	-100	0	230	101300000	1000	0	0	-1	900
13282875	7879	872	0	-100	0	230	101300000	1000	0	0	-1	900
13295435	7877	869	0	-100	0	230	101300000	1000	0	0	-1	900
13307995	7884	872	0	-100	0	230	101300000	1000	0	0	-1	900
13320555	7881	870	0	-100	0	230	101300000	1000	0	0	-1	900
13333115	7884	868	0	-100	0	230	101300000	1000	0	0	-1	900
13345675	7870	877	0	-100	0	230	101300000	1000	0	0	-1	900
13358235	7897	868	0	-100	0	230	101300000	1000	0	0	-1	900
13370795	7884	868	0	-100	0	230	101300000	1000	0	0	-1	900
13383355	7896	869	0	-100	0	230	101300000	1000	0	0	-1	900
13395915	7867	875	0	-100	0	230	101300000	1000	0	0	-1	900
13408475	7882	863	0	-100	0	230	101300000	1000	0	0	-1	900
13421035	7877	876	0	-100	0	230	101300000	1000	0	0	-1	900
13433595	7882	873	0	-100	0	230	101300000	1000	0	0	-1	900
13446155	7888	879	0	-100	0	230	101300000	1000	0	0	-1	900
13458715	7888	875	0	-100	0	230	101300000	1000	0	0	-1	900
13471275	7886	874	0	-100	0	230	101300000	1000	0	0	-1	900
13483835	7889	870	0	-100	0	230	101300000	1000	0	0	-1	900
13496395	7891	869	0	-100	0	230	101300000	1000	0	0	-1	900
13508955	7884	865	0	-100	0	230	101300000	1000	0	0	-1	900
13521515	7894	872	0	-100	0	230	101300000	1000	0	0	-1	900
13534075	7891	870	0	-100	0	230	101300000	1000	0	0	-1	900
13546635	7889	866	0	-100	0	230	101300000	1000	0	0	-1	900
13559195	7877	866	0	-100	0	230	101300000	1000	0	0	-1	900
13571755	7881	871	0	-100	0	230	101300000	1000	0	0	-1	900
13584315	7889	869	0	-100	0	230	101300000	1000	0	0	-1	900
13596875	7870	870	0	-100	0	230	101300000	1000	0	0	-1	900
13609435	7880	876	0	-100	0	230	101300000	1000	0	0	-1	900
13621995	7875	868	0	-100	0	230	101300000	1000	0	0	-1	900
13634555	7886	873	0	-100	0	230	101300000	1000	0	0	-1	900
13647115	7891	871	0	-100	0	230	101300000	1000	0	0	-1	900
13659675	7881	871	0	-100	0	230	101300000	1000	0	0	-1	900
13672235	7887	874	0	-100	0	230	101300000	1000	0	0	-1	900
13684795	7874	871	0	-100	0	230	101300000	1000	0	0	-1	900
13697355	7877	872	0	-100	0	230	101300000	1000	0	0	-1	900
13709915	7882	872	0	-100	0	230	101300000	1000	0	0	-1	900
13722475	7889	873	0	-100	0	230	101300000	1000	0	0	-1	900
13735035	7877	876	0	-100	0	230	101300000	1000	0	0	-1	900
13747595	7875	871	0	-100	0	230	101300000	1000	0	0	-1	900
13760155	7898	870	0	-100	0	230	101300000	1000	0	0	-1	900
13772715	7881	872	0	-100	0	230	101300000	1000	0	0	-1	900
13785275	7894	875	0	-100	0	230	101300000	1000	0	0	-1	900
13797835	7884	869	0	-100	0	230	101300000	1000	0	0	-1	900
13810395	7889	868	0	-100	0	230	101300000	1000	0	0	-1	900
13822955	7879	873	0	-100	0	230	101300000	1000	0	0	-1	900
13835515	7867	874	0	-100	0	230	101300000	1000	0	0	-1	900
13848075	7872	875	0	-100	0	230	101300000	1000	0	0	-1	900
13860635	7884	869	0	-100	0	230	101300000	1000	0	0	-1	900
13873195	7889	871	0	-100	0	230	101300000	1000	0	0	-1	900
13885755	7881	871	0	-100	0	230	101300000	1000	0	0	-1	900
13898315	7877	872	0	-100	0	230	101300000	1000	0	0	-1	900
13910875	7877	867	0	-100	0	230	101300000	1000	0	0	-1	900
13923435	7884	870	0	-100	0	230	101300000	1000	0	0	-1	900
13935995	7874	869	0	-100	0	230	101300000	1000	0	0	-1	900
13948555	7884	871	0	-100	0	230	101300000	1000	0	0	-1	900
13961115	7877	873	0	-100	0	230	101300000	1000	0	0	-1	900
13973675	7882	870	0	-100	0	230	101300000	1000	0	0	-1	900
13986235	7881	876	0	-100	0	230	101300000	1000	0	0	-1	900
13998795	7881	874	0	-100	0	230	101300000	1000	0	0	-1	900
14011355	7875	867	0	-100	0	230	101300000	1000	0	0	-1	900
14023915	7882	870	0	-100	0	230	101300000	1000	0	0	-1	900
14036475	7884	874	0	-100	0	230	101300000	1000	0	0	-1	900
14049035	7891	869	0	-100	0	230	101300000	1000	0	0	-1	900
14061595	7872	869	0	-100	0	230	101300000	1000	0	0	-1	900
14074155	7877	874	0	-100	0	230	101300000	1000	0	0	-1	900
14086715	7884	879	0	-100	0	230	101300000	1000	0	0	-1	900
14099275	7865	872	0	-100	0	230	101300000	1000	0	0	-1	900
14111835	7892	869	0	-100	0	230	101300000	1000	0	0	-1	900
14124395	7891	872	0	-100	0	230	101300000	1000	0	0	-1	900
14136955	7908	868	0	-100	0	230	101300000	1000	0	0	-1	900
14149515	7896	870	0	-100	0	230	101300000	1000	0	0	-1	900
14162075	7879	871	0	-100	0	230	101300000	1000	0	0	-1	900
14174635	7896	870	0	-100	0	230	101300000	1000	0	0	-1	900
14187195	7872	870	0	-100	0	230	101300000	1000	0	0	-1	900
14199755	7884	873	0	-100	0	230	101300000	1000	0	0	-1	900
14212315	7882	870	0	-100	0	230	101300000	1000	0	0	-1	900
14224875	7877	867	0	-100	0	230	101300000	1000	0	0	-1	900
14237435	7877	871	0	-100	0	230	101300000	1000	0	0	-1	900
14249995	7884	872	0	-100	0	230	101300000	1000	0	0	-1	900
14262555	7880	866	0	-100	0	230	101300000	1000	0	0	-1	900
14275115	7896	867	0	-100	0	230	101300000	1000	0	0	-1	900
14287675	7889	873	0	-100	0	230	101300000	1000	0	0	-1	900
14300235	7875	870	0	-100	0	230	101300000	1000	0	0	-1	900
14312795	7887	865	0	-100	0	230	101300000	1000	0	0	-1	900
14388155	7899	869	0	-100	0	230	101300000	1000	0	0	-1	900
14400715	7884	871	0	-100	0	230	101300000	1000	0	0	-1	900
14413275	7886	868	0	-100	0	230	101300000	1000	0	0	-1	900
14425835	7884	871	0	-100	0	230	101300000	1000	0	0	-1	900
14438395	7896	871	0	-100	0	230	101300000	1000	0	0	-1	900
14450955	7869	874	0	-100	0	230	101300000	1000	0	0	-1	900
14463515	7884	850	0	-100	0	230	101300000	1000	0	0	-1	900
14476075	7882	867	0	-100	0	230	101300000	1000	0	0	-1	900
14488635	7879	875	0	-100	0	230	101300000	1000	0	0	-1	900
14501195	7884	873	0	-100	0	230	101300000	1000	0	0	-1	900
14513755	7875	873	0	-100	0	230	101300000	1000	0	0	-1	900
14526315	7884	869	0	-100	0	230	101300000	1000	0	0	-1	900
14551435	7870	871	0	-100	0	230	101300000	1000	0	0	-1	900
14563995	7899	869	0	-100	0	230	101300000	1000	0	0	-1	900
14576555	7891	870	0	-100	0	230	101300000	1000	0	0	-1	900
14589115	7887	868	0	-100	0	230	101300000	1000	0	0	-1	900
14601675	7877	870	0	-100	0	230	101300000	1000	0	0	-1	900
14614235	7888	870	0	-100	0	230	101300000	1000	0	0	-1	900
14626795	7886	869	0	-100	0	230	101300000	1000	0	0	-1	900
14639355	7882	875	0	-100	0	230	101300000	1000	0	0	-1	900
14651915	7891	871	0	-100	0	230	101300000	1000	0	0	-1	900
14664475	7881	873	0	-100	0	230	101300000	1000	0	0	-1	900
14677035	7868	879	0	-100	0	230	101300000	1000	0	0	-1	900
14689595	7893	866	0	-100	0	230	101300000	1000	0	0	-1	900
14702155	7883	869	0	-100	0	230	101300000	1000	0	0	-1	900
14714715	7884	870	0	-100	0	230	101300000	1000	0	0	-1	900
14727275	7872	866	0	-100	0	230	101300000	1000	0	0	-1	900
14739835	7881	870	0	-100	0	230	101300000	1000	0	0	-1	900
14752395	7891	868	0	-100	0	230	101300000	1000	0	0	-1	900
14764955	7875	869	0	-100	0	230	101300000	1000	0	0	-1	900
14777515	7889	872	0	-100	0	230	101300000	1000	0	0	-1	900
14790075	7881	871	0	-100	0	230	101300000	1000	0	0	-1	900
14802635	7904	868	0	-100	0	230	101300000	1000	0	0	-1	900
14815195	7893	870	0	-100	0	230	101300000	1000	0	0	-1	900
14827755	7877	866	0	-100	0	230	101300000	1000	0	0	-1	900
14840315	7897	865	0	-100	0	230	101300000	1000	0	0	-1	900
14852875	7879	871	0	-100	0	230	101300000	1000	0	0	-1	900
14865435	7882	870	0	-100	0	230	101300000	1000	0	0	-1	900
14877995	7887	873	0	-100	0	230	101300000	1000	0	0	-1	900
14890555	7886	872	0	-100	0	230	101300000	1000	0	0	-1	900
14903115	7889	872	0	-100	0	230	101300000	1000	0	0	-1	900
14915675	7889	871	0	-100	0	230	101300000	1000	0	0	-1	900
14928235	7875	878	0	-100	0	230	101300000	1000	0	0	-1	900
14940795	7894	870	0	-100	0	230	101300000	1000	0	0	-1	900
14953355	7884	870	0	-100	0	230	101300000	1000	0	0	-1	900
14965915	7877	869	0	-100	0	230	101300000	1000	0	0	-1	900
14978475	7893	851	0	-100	0	230	101300000	1000	0	0	-1	900
14991035	7881	872	0	-100	0	230	101300000	1000	0	0	-1	900
15003595	7881	869	0	-100	0	230	101300000	1000	0	0	-1	900
15016155	7896	866	0	-100	0	230	101300000	1000	0	0	-1	900
15028715	7887	870	0	-100	0	230	101300000	1000	0	0	-1	900
15041275	7882	874	0	-100	0	230	101300000	1000	0	0	-1	900
15053835	7882	876	0	-100	0	230	101300000	1000	0	0	-1	900
15066395	7884	871	0	-100	0	230	101300000	1000	0	0	-1	900
15078955	7899	868	0	-100	0	230	101300000	1000	0	0	-1	900
15091515	7884	869	0	-100	0	230	101300000	1000	0	0	-1	900
15104075	7889	876	0	-100	0	230	101300000	1000	0	0	-1	900
15116635	7868	866	0	-100	0	230	101300000	1000	0	0	-1	900
15129195	7886	877	0	-100	0	230	101300000	1000	0	0	-1	900
15141755	7884	869	0	-100	0	230	101300000	1000	0	0	-1	900
15154315	7881	872	0	-100	0	230	101300000	1000	0	0	-1	900
15166875	7867	870	0	-100	0	230	101300000	1000	0	0	-1	900
15179435	7890	866	0	-100	0	230	101300000	1000	0	0	-1	900
15191995	7882	871	0	-100	0	230	101300000	1000	0	0	-1	900
15204555	7882	873	0	-100	0	230	101300000	1000	0	0	-1	900
15217115	7887	872	0	-100	0	230	101300000	1000	0	0	-1	900
15229675	7872	865	0	-100	0	230	101300000	1000	0	0	-1	900
15242235	7877	872	0	-100	0	230	101300000	1000	0	0	-1	900
15254795	7899	874	0	-100	0	230	101300000	1000	0	0	-1	900
15267355	7879	874	0	-100	0	230	101300000	1000	0	0	-1	900
15279915	7886	871	0	-100	0	230	101300000	1000	0	0	-1	900
15292475	7894	873	0	-100	0	230	101300000	1000	0	0	-1	900
15305035	7884	873	0	-100	0	230	101300000	1000	0	0	-1	900
15317595	7886	873	0	-100	0	230	101300000	1000	0	0	-1	900
15330155	7898	875	0	-100	0	230	101300000	1000	0	0	-1	900
15342715	7880	866	0	-100	0	230	101300000	1000	0	0	-1	900
15355275	7886	871	0	-100	0	230	101300000	1000	0	0	-1	900
15367835	7865	871	0	-100	0	230	101300000	1000	0	0	-1	900
15380395	7868	873	0	-100	0	230	101300000	1000	0	0	-1	900
15392955	7894	866	0	-100	0	230	101300000	1000	0	0	-1	900
15405515	7887	873	0	-100	0	230	101300000	1000	0	0	-1	900
15418075	7879	876	0	-100	0	230	101300000	1000	0	0	-1	900
15430635	7877	874	0	-100	0	230	101300000	1000	0	0	-1	900
15443195	7882	870	0	-100	0	230	101300000	1000	0	0	-1	900
15455755	7896	864	0	-100	0	230	101300000	1000	0	0	-1	900
15468315	7901	869	0	-100	0	230	101300000	1000	0	0	-1	900
15480875	7881	872	0	-100	0	230	101300000	1000	0	0	-1	900
15493435	7886	871	0	-100	0	230	101300000	1000	0	0	-1	900
15505995	7879	869	0	-100	0	230	101300000	1000	0	0	-1	900
15518555	7875	876	0	-100	0	230	101300000	1000	0	0	-1	900
15531115	7887	866	0	-100	0	230	101300000	1000	0	0	-1	900
15543675	7891	871	0	-100	0	230	101300000	1000	0	0	-1	900
15556235	7870	869	0	-100	0	230	101300000	1000	0	0	-1	900
15568795	7879	867	0	-100	0	230	101300000	1000	0	0	-1	900
15581355	7882	870	0	-100	0	230	101300000	1000	0	0	-1	900
15593915	7889	874	0	-100	0	230	101300000	1000	0	0	-1	900
15606475	7880	870	0	-100	0	230	101300000	1000	0	0	-1	900
15619035	7899	874	0	-100	0	230	101300000	1000	0	0	-1	900
15631595	7884	877	0	-100	0	230	101300000	1000	0	0	-1	900
15644155	7901	868	0	-100	0	230	101300000	1000	0	0	-1	900
15656715	7894	871	0	-100	0	230	101300000	1000	0	0	-1	900
15669275	7882	871	0	-100	0	230	101300000	1000	0	0	-1	900
15681835	7894	869	0	-100	0	230	101300000	1000	0	0	-1	900
15694395	7892	870	0	-100	0	230	101300000	1000	0	0	-1	900
15706955	7891	867	0	-100	0	230	101300000	1000	0	0	-1	900
15719515	7879	871	0	-100	0	230	101300000	1000	0	0	-1	900
15732075	7881	873	0	-100	0	230	101300000	1000	0	0	-1	900
15744635	7892	872	0	-100	0	230	101300000	1000	0	0	-1	900
15757195	7865	872	0	-100	0	230	101300000	1000	0	0	-1	900
15769755	7870	874	0	-100	0	230	101300000	1000	0	0	-1	900
15782315	7897	870	0	-100	0	230	101300000	1000	0	0	-1	900
15794875	7891	873	0	-100	0	230	101300000	1000	0	0	-1	900
15807435	7893	871	0	-100	0	230	101300000	1000	0	0	-1	900
15819995	7884	871	0	-100	0	230	101300000	1000	0	0	-1	900
15832555	7884	873	0	-100	0	230	101300000	1000	0	0	-1	900
15845115	7872	870	0	-100	0	230	101300000	1000	0	0	-1	900
15857675	7899	872	0	-100	0	230	101300000	1000	0	0	-1	900
15870235	7867	871	0	-100	0	230	101300000	1000	0	0	-1	900
15882795	7871	873	0	-100	0	230	101300000	1000	0	0	-1	900
15895355	7882	872	0	-100	0	230	101300000	1000	0	0	-1	900
15907915	7887	872	0	-100	0	230	101300000	1000	0	0	-1	900
15920475	7906	863	0	-100	0	230	101300000	1000	0	0	-1	900
15933035	7880	871	0	-100	0	230	101300000	1000	0	0	-1	900
15945595	7875	877	0	-100	0	230	101300000	1000	0	0	-1	900
15958155	7877	876	0	-100	0	230	101300000	1000	0	0	-1	900
15970715	7879	872	0	-100	0	230	101300000	1000	0	0	-1	900
15983275	7879	868	0	-100	0	230	101300000	1000	0	0	-1	900
15995835	7899	867	0	-100	0	230	101300000	1000	0	0	-1	900
16008395	7891	870	0	-100	0	230	101300000	1000	0	0	-1	900
16020955	7898	877	0	-100	0	230	101300000	1000	0	0	-1	900
16033515	7889	867	0	-100	0	230	101300000	1000	0	0	-1	900
16046075	7881	873	0	-100	0	230	101300000	1000	0	0	-1	900
16058635	7893	875	0	-100	0	230	101300000	1000	0	0	-1	900
16071195	7884	874	0	-100	0	230	101300000	1000	0	0	-1	900
16083755	7887	878	0	-100	0	230	101300000	1000	0	0	-1	900
16096315	7891	876	0	-100	0	230	101300000	1000	0	0	-1	900
16108875	7877	871	0	-100	0	230	101300000	1000	0	0	-1	900
16121435	7898	873	0	-100	0	230	101300000	1000	0	0	-1	900
16133995	7886	872	0	-100	0	230	101300000	1000	0	0	-1	900
16146555	7861	869	0	-100	0	230	101300000	1000	0	0	-1	900
16159115	7896	872	0	-100	0	230	101300000	1000	0	0	-1	900
16171675	7888	869	0	-100	0	230	101300000	1000	0	0	-1	900
16184235	7877	879	0	-100	0	230	101300000	1000	0	0	-1	900
16196795	7884	872	0	-100	0	230	101300000	1000	0	0	-1	900
16209355	7886	872	0	-100	0	230	101300000	1000	0	0	-1	900
16221915	7884	873	0	-100	0	230	101300000	1000	0	0	-1	900
16234475	7880	880	0	-100	0	230	101300000	1000	0	0	-1	900
16247035	7886	869	0	-100	0	230	101300000	1000	0	0	-1	900
16259595	7884	871	0	-100	0	230	101300000	1000	0	0	-1	900
16272155	7889	873	0	-100	0	230	101300000	1000	0	0	-1	900
16284715	7887	871	0	-100	0	230	101300000	1000	0	0	-1	900
16297275	7889	871	0	-100	0	230	101300000	1000	0	0	-1	900
16309835	7879	873	0	-100	0	230	101300000	1000	0	0	-1	900
16322395	7887	869	0	-100	0	230	101300000	1000	0	0	-1	900
16334955	7888	872	0	-100	0	230	101300000	1000	0	0	-1	900
16347515	7887	855	0	-100	0	230	101300000	1000	0	0	-1	900
16360075	7884	868	0	-100	0	230	101300000	1000	0	0	-1	900
16372635	7891	878	0	-100	0	230	101300000	1000	0	0	-1	900
16385195	7867	874	0	-100	0	230	101300000	1000	0	0	-1	900
16397755	7877	868	0	-100	0	230	101300000	1000	0	0	-1	900
16410315	7891	871	0	-100	0	230	101300000	1000	0	0	-1	900
16422875	7886	870	0	-100	0	230	101300000	1000	0	0	-1	900
16435435	7875	872	0	-100	0	230	101300000	1000	0	0	-1	900
16447995	7862	870	0	-100	0	230	101300000	1000	0	0	-1	900
16460555	7880	867	0	-100	0	230	101300000	1000	0	0	-1	900
16473115	7862	874	0	-100	0	230	101300000	1000	0	0	-1	900
16485675	7884	873	0	-100	0	230	101300000	1000	0	0	-1	900
16498235	7875	872	0	-100	0	230	101300000	1000	0	0	-1	900
16510795	7870	869	0	-100	0	230	101300000	1000	0	0	-1	900
16523355	7882	875	0	-100	0	230	101300000	1000	0	0	-1	900
16535915	7901	869	0	-100	0	230	101300000	1000	0	0	-1	900
16548475	7886	874	0	-100	0	230	101300000	1000	0	0	-1	900
16561035	7879	871	0	-100	0	230	101300000	1000	0	0	-1	900
16573595	7889	865	0	-100	0	230	101300000	1000	0	0	-1	900
16586155	7893	872	0	-100	0	230	101300000	1000	0	0	-1	900
16598715	7884	870	0	-100	0	230	101300000	1000	0	0	-1	900
16611275	7889	875	0	-100	0	230	101300000	1000	0	0	-1	900
16623835	7903	873	0	-100	0	230	101300000	1000	0	0	-1	900
16636395	7888	874	0	-100	0	230	101300000	1000	0	0	-1	900
16648955	7887	871	0	-100	0	230	101300000	1000	0	0	-1	900
16661515	7879	867	0	-100	0	230	101300000	1000	0	0	-1	900
16674075	7889	876	0	-100	0	230	101300000	1000	0	0	-1	900
16686635	7886	873	0	-100	0	230	101300000	1000	0	0	-1	900
16699195	7888	876	0	-100	0	230	101300000	1000	0	0	-1	900
16711755	7886	873	0	-100	0	230	101300000	1000	0	0	-1	900
16724315	7884	874	0	-100	0	230	101300000	1000	0	0	-1	900
16736875	7889	872	0	-100	0	230	101300000	1000	0	0	-1	900
16749435	7877	873	0	-100	0	230	101300000	1000	0	0	-1	900
16761995	7888	869	0	-100	0	230	101300000	1000	0	0	-1	900
16774555	7879	874	0	-100	0	230	101300000	1000	0	0	-1	900
16787115	7894	873	0	-100	0	230	101300000	1000	0	0	-1	900
16799675	7881	875	0	-100	0	230	101300000	1000	0	0	-1	900
16812235	7878	871	0	-100	0	230	101300000	1000	0	0	-1	900
16824795	7886	871	0	-100	0	230	101300000	1000	0	0	-1	900
16837355	7889	870	0	-100	0	230	101300000	1000	0	0	-1	900
16849915	7874	871	0	-100	0	230	101300000	1000	0	0	-1	900
16862475	7879	876	0	-100	0	230	101300000	1000	0	0	-1	900
16875035	7863	873	0	-100	0	230	101300000	1000	0	0	-1	900
16887595	7894	877	0	-100	0	230	101300000	1000	0	0	-1	900
16900155	7872	874	0	-100	0	230	101300000	1000	0	0	-1	900
16912715	7894	875	0	-100	0	230	101300000	1000	0	0	-1	900
16925275	7875	870	0	-100	0	230	101300000	1000	0	0	-1	900
16937835	7884	872	0	-100	0	230	101300000	1000	0	0	-1	900
16950395	7879	872	0	-100	0	230	101300000	1000	0	0	-1	900
16962955	7882	869	0	-100	0	230	101300000	1000	0	0	-1	900
16975515	7884	872	0	-100	0	230	101300000	1000	0	0	-1	900
16988075	7896	872	0	-100	0	230	101300000	1000	0	0	-1	900
17000635	7870	876	0	-100	0	230	101300000	1000	0	0	-1	900
17013195	7894	870	0	-100	0	230	101300000	1000	0	0	-1	900
17025755	7886	873	0	-100	0	230	101300000	1000	0	0	-1	900
17038315	7891	873	0	-100	0	230	101300000	1000	0	0	-1	900
17050875	7881	875	0	-100	0	230	101300000	1000	0	0	-1	900
17063435	7877	871	0	-100	0	230	101300000	1000	0	0	-1	900
17075995	7881	878	0	-100	0	230	101300000	1000	0	0	-1	900
17088555	7886	875	0	-100	0	230	101300000	1000	0	0	-1	900
17101115	7877	875	0	-100	0	230	101300000	1000	0	0	-1	900
17113675	7899	872	0	-100	0	230	101300000	1000	0	0	-1	900
17126235	7884	867	0	-100	0	230	101300000	1000	0	0	-1	900
17138795	7890	871	0	-100	0	230	101300000	1000	0	0	-1	900
17151355	7884	873	0	-100	0	230	101300000	1000	0	0	-1	900
17163915	7869	869	0	-100	0	230	101300000	1000	0	0	-1	900
17176475	7896	871	0	-100	0	230	101300000	1000	0	0	-1	900
17189035	7875	873	0	-100	0	230	101300000	1000	0	0	-1	900
17201595	7884	878	0	-100	0	230	101300000	1000	0	0	-1	900
17214155	7899	877	0	-100	0	230	101300000	1000	0	0	-1	900
17226715	7890	868	0	-100	0	230	101300000	1000	0	0	-1	900
17239275	7882	874	0	-100	0	230	101300000	1000	0	0	-1	900
17251835	7889	869	0	-100	0	230	101300000	1000	0	0	-1	900
17264395	7870	871	0	-100	0	230	101300000	1000	0	0	-1	900
17276955	7884	877	0	-100	0	230	101300000	1000	0	0	-1	900
17289515	7882	869	0	-100	0	230	101300000	1000	0	0	-1	900
17302075	7875	872	0	-100	0	230	101300000	1000	0	0	-1	900
17314635	7889	873	0	-100	0	230	101300000	1000	0	0	-1	900
17327195	7901	870	0	-100	0	230	101300000	1000	0	0	-1	900
17339755	7898	871	0	-100	0	230	101300000	1000	0	0	-1	900
17352315	7891	869	0	-100	0	230	101300000	1000	0	0	-1	900
17364875	7891	873	0	-100	0	230	101300000	1000	0	0	-1	900
17377435	7893	871	0	-100	0	230	101300000	1000	0	0	-1	900
17389995	7879	871	0	-100	0	230	101300000	1000	0	0	-1	900
17402555	7896	873	0	-100	0	230	101300000	1000	0	0	-1	900
17415115	7891	872	0	-100	0	230	101300000	1000	0	0	-1	900
17427675	7881	877	0	-100	0	230	101300000	1000	0	0	-1	900
17440235	7884	874	0	-100	0	230	101300000	1000	0	0	-1	900
17452795	7879	875	0	-100	0	230	101300000	1000	0	0	-1	900
17465355	7886	874	0	-100	0	230	101300000	1000	0	0	-1	900
17477915	7889	876	0	-100	0	230	101300000	1000	0	0	-1	900
17490475	7887	869	0	-100	0	230	101300000	1000	0	0	-1	900
17503035	7901	870	0	-100	0	230	101300000	1000	0	0	-1	900
17515595	7877	872	0	-100	0	230	101300000	1000	0	0	-1	900
17528155	7901	873	0	-100	0	230	101300000	1000	0	0	-1	900
17540715	7894	869	0	-100	0	230	101300000	1000	0	0	-1	900
17553275	7887	870	0	-100	0	230	101300000	1000	0	0	-1	900
17565835	7891	874	0	-100	0	230	101300000	1000	0	0	-1	900
17578395	7872	877	0	-100	0	230	101300000	1000	0	0	-1	900
17590955	7870	873	0	-100	0	230	101300000	1000	0	0	-1	900
17603515	7882	873	0	-100	0	230	101300000	1000	0	0	-1	900
17616075	7893	874	0	-100	0	230	101300000	1000	0	0	-1	900
17628635	7888	874	0	-100	0	230	101300000	1000	0	0	-1	900
17641195	7894	871	0	-100	0	230	101300000	1000	0	0	-1	900
17653755	7896	870	0	-100	0	230	101300000	1000	0	0	-1	900
17666315	7887	874	0	-100	0	230	101300000	1000	0	0	-1	900
17678875	7887	870	0	-100	0	230	101300000	1000	0	0	-1	900
17691435	7891	877	0	-100	0	230	101300000	1000	0	0	-1	900
17703995	7893	877	0	-100	0	230	101300000	1000	0	0	-1	900
17716555	7901	870	0	-100	0	230	101300000	1000	0	0	-1	900
17729115	7886	871	0	-100	0	230	101300000	1000	0	0	-1	900
17741675	7884	872	0	-100	0	230	101300000	1000	0	0	-1	900
17754235	7877	873	0	-100	0	230	101300000	1000	0	0	-1	900
17766795	7886	871	0	-100	0	230	101300000	1000	0	0	-1	900
17779355	7892	869	0	-100	0	230	101300000	1000	0	0	-1	900
17791915	7887	867	0	-100	0	230	101300000	1000	0	0	-1	900
17804475	7877	874	0	-100	0	230	101300000	1000	0	0	-1	900
17817035	7880	873	0	-100	0	230	101300000	1000	0	0	-1	900
17829595	7877	868	0	-100	0	230	101300000	1000	0	0	-1	900
17842155	7894	867	0	-100	0	230	101300000	1000	0	0	-1	900
17854715	7896	872	0	-100	0	230	101300000	1000	0	0	-1	900
17867275	7882	873	0	-100	0	230	101300000	1000	0	0	-1	900
17879835	7886	877	0	-100	0	230	101300000	1000	0	0	-1	900
17892395	7866	874	0	-100	0	230	101300000	1000	0	0	-1	900
17904955	7893	869	0	-100	0	230	101300000	1000	0	0	-1	900
17917515	7877	870	0	-100	0	230	101300000	1000	0	0	-1	900
17930075	7871	868	0	-100	0	230	101300000	1000	0	0	-1	900
17942635	7882	869	0	-100	0	230	101300000	1000	0	0	-1	900
17955195	7886	880	0	-100	0	230	101300000	1000	0	0	-1	900
17967755	7877	874	0	-100	0	230	101300000	1000	0	0	-1	900
17980315	7889	872	0	-100	0	230	101300000	1000	0	0	-1	900
17992875	7894	867	0	-100	0	230	101300000	1000	0	0	-1	900
18005435	7879	871	0	-100	0	230	101300000	1000	0	0	-1	900
18017995	7879	860	0	-100	0	230	101300000	1000	0	0	-1	900
18030555	7870	874	0	-100	0	230	101300000	1000	0	0	-1	900
18043115	7887	874	0	-100	0	230	101300000	1000	0	0	-1	900
18055675	7875	871	0	-100	0	230	101300000	1000	0	0	-1	900
18068235	7906	873	0	-100	0	230	101300000	1000	0	0	-1	900
18080795	7889	873	0	-100	0	230	101300000	1000	0	0	-1	900
18093355	7877	875	0	-100	0	230	101300000	1000	0	0	-1	900
18105915	7881	876	0	-100	0	230	101300000	1000	0	0	-1	900
18118475	7875	868	0	-100	0	230	101300000	1000	0	0	-1	900
18131035	7891	872	0	-100	0	230	101300000	1000	0	0	-1	900
18143595	7884	875	0	-100	0	230	101300000	1000	0	0	-1	900
18156155	7889	870	0	-100	0	230	101300000	1000	0	0	-1	900
18168715	7879	875	0	-100	0	230	101300000	1000	0	0	-1	900
18181275	7880	873	0	-100	0	230	101300000	1000	0	0	-1	900
18193835	7884	873	0	-100	0	230	101300000	1000	0	0	-1	900
18206395	7896	877	0	-100	0	230	101300000	1000	0	0	-1	900
18218955	7896	874	0	-100	0	230	101300000	1000	0	0	-1	900
18231515	7888	867	0	-100	0	230	101300000	1000	0	0	-1	900
18244075	7871	873	0	-100	0	230	101300000	1000	0	0	-1	900
18256635	7881	874	0	-100	0	230	101300000	1000	0	0	-1	900
18269195	7884	870	0	-100	0	230	101300000	1000	0	0	-1	900
18281755	7875	871	0	-100	0	230	101300000	1000	0	0	-1	900
18294315	7892	873	0	-100	0	230	101300000	1000	0	0	-1	900
18306875	7901	869	0	-100	0	230	101300000	1000	0	0	-1	900
18319435	7883	875	0	-100	0	230	101300000	1000	0	0	-1	900
18331995	7891	867	0	-100	0	230	101300000	1000	0	0	-1	900
18344555	7875	876	0	-100	0	230	101300000	1000	0	0	-1	900
18357115	7898	868	0	-100	0	230	101300000	1000	0	0	-1	900
18369675	7898	872	0	-100	0	230	101300000	1000	0	0	-1	900
18382235	7879	874	0	-100	0	230	101300000	1000	0	0	-1	900
18394795	7881	874	0	-100	0	230	101300000	1000	0	0	-1	900
18407355	7884	874	0	-100	0	230	101300000	1000	0	0	-1	900
18419915	7882	874	0	-100	0	230	101300000	1000	0	0	-1	900
18432475	7893	872	0	-100	0	230	101300000	1000	0	0	-1	900
18445035	7884	867	0	-100	0	230	101300000	1000	0	0	-1	900
18457595	7880	867	0	-100	0	230	101300000	1000	0	0	-1	900
18470155	7889	870	0	-100	0	230	101300000	1000	0	0	-1	900
18482715	7874	873	0	-100	0	230	101300000	1000	0	0	-1	900
18495275	7881	873	0	-100	0	230	101300000	1000	0	0	-1	900
18507835	7870	870	0	-100	0	230	101300000	1000	0	0	-1	900
18520395	7879	872	0	-100	0	230	101300000	1000	0	0	-1	900
18532955	7894	871	0	-100	0	230	101300000	1000	0	0	-1	900
18545515	7886	870	0	-100	0	230	101300000	1000	0	0	-1	900
18558075	7881	878	0	-100	0	230	101300000	1000	0	0	-1	900
18570635	7884	871	0	-100	0	230	101300000	1000	0	0	-1	900
18583195	7891	871	0	-100	0	230	101300000	1000	0	0	-1	900
18595755	7881	875	0	-100	0	230	101300000	1000	0	0	-1	900
18608315	7882	872	0	-100	0	230	101300000	1000	0	0	-1	900
18620875	7908	870	0	-100	0	230	101300000	1000	0	0	-1	900
18633435	7882	871	0	-100	0	230	101300000	1000	0	0	-1	900
18645995	7891	872	0	-100	0	230	101300000	1000	0	0	-1	900
18658555	7881	871	0	-100	0	230	101300000	1000	0	0	-1	900
18671115	7882	872	0	-100	0	230	101300000	1000	0	0	-1	900
18683675	7879	873	0	-100	0	230	101300000	1000	0	0	-1	900
18696235	7884	867	0	-100	0	230	101300000	1000	0	0	-1	900
18708795	7894	873	0	-100	0	230	101300000	1000	0	0	-1	900
18721355	7891	875	0	-100	0	230	101300000	1000	0	0	-1	900
18733915	7877	873	0	-100	0	230	101300000	1000	0	0	-1	900
18746475	7889	874	0	-100	0	230	101300000	1000	0	0	-1	900
18759035	7904	872	0	-100	0	230	101300000	1000	0	0	-1	900
18771595	7875	873	0	-100	0	230	101300000	1000	0	0	-1	900
18784155	7883	875	0	-100	0	230	101300000	1000	0	0	-1	900
18796715	7881	875	0	-100	0	230	101300000	1000	0	0	-1	900
18809275	7887	876	0	-100	0	230	101300000	1000	0	0	-1	900
18821835	7876	872	0	-100	0	230	101300000	1000	0	0	-1	900
18834395	7884	876	0	-100	0	230	101300000	1000	0	0	-1	900
18846955	7886	874	0	-100	0	230	101300000	1000	0	0	-1	900
18859515	7877	871	0	-100	0	230	101300000	1000	0	0	-1	900
18872075	7874	877	0	-100	0	230	101300000	1000	0	0	-1	900
18884635	7875	873	0	-100	0	230	101300000	1000	0	0	-1	900
18897195	7891	878	0	-100	0	230	101300000	1000	0	0	-1	900
18909755	7882	874	0	-100	0	230	101300000	1000	0	0	-1	900
18922315	7896	866	0	-100	0	230	101300000	1000	0	0	-1	900
18934875	7884	868	0	-100	0	230	101300000	1000	0	0	-1	900
18947435	7878	871	0	-100	0	230	101300000	1000	0	0	-1	900
18959995	7886	873	0	-100	0	230	101300000	1000	0	0	-1	900
18972555	7892	873	0	-100	0	230	101300000	1000	0	0	-1	900
18985115	7884	870	0	-100	0	230	101300000	1000	0	0	-1	900
18997675	7892	867	0	-100	0	230	101300000	1000	0	0	-1	900
19010235	7889	874	0	-100	0	230	101300000	1000	0	0	-1	900
19022795	7894	871	0	-100	0	230	101300000	1000	0	0	-1	900
19035355	7870	873	0	-100	0	230	101300000	1000	0	0	-1	900
19047915	7899	872	0	-100	0	230	101300000	1000	0	0	-1	900
19060475	7896	871	0	-100	0	230	101300000	1000	0	0	-1	900
19073035	7887	872	0	-100	0	230	101300000	1000	0	0	-1	900
19085595	7891	871	0	-100	0	230	101300000	1000	0	0	-1	900
19098155	7894	873	0	-100	0	230	101300000	1000	0	0	-1	900
19110715	7864	875	0	-100	0	230	101300000	1000	0	0	-1	900
19123275	7879	875	0	-100	0	230	101300000	1000	0	0	-1	900
19135835	7887	872	0	-100	0	230	101300000	1000	0	0	-1	900
19148395	7894	874	0	-100	0	230	101300000	1000	0	0	-1	900
19160955	7879	871	0	-100	0	230	101300000	1000	0	0	-1	900
19173515	7890	874	0	-100	0	230	101300000	1000	0	0	-1	900
19186075	7903	867	0	-100	0	230	101300000	1000	0	0	-1	900
19198635	7880	867	0	-100	0	230	101300000	1000	0	0	-1	900
19211195	7869	869	0	-100	0	230	101300000	1000	0	0	-1	900
19223755	7891	877	0	-100	0	230	101300000	1000	0	0	-1	900
19236315	7879	869	0	-100	0	230	101300000	1000	0	0	-1	900
19248875	7878	864	0	-100	0	230	101300000	1000	0	0	-1	900
19261435	7868	866	0	-100	0	230	101300000	1000	0	0	-1	900
19273995	7889	872	0	-100	0	230	101300000	1000	0	0	-1	900
19286555	7893	877	0	-100	0	230	101300000	1000	0	0	-1	900
19299115	7889	869	0	-100	0	230	101300000	1000	0	0	-1	900
19311675	7883	872	0	-100	0	230	101300000	1000	0	0	-1	900
19324235	7903	844	0	-100	0	230	101300000	1000	0	0	-1	900
19336795	7879	868	0	-100	0	230	101300000	1000	0	0	-1	900
19349355	7870	874	0	-100	0	230	101300000	1000	0	0	-1	900
19361915	7889	870	0	-100	0	230	101300000	1000	0	0	-1	900
19374475	7877	873	0	-100	0	230	101300000	1000	0	0	-1	900
19387035	7903	871	0	-100	0	230	101300000	1000	0	0	-1	900
19399595	7877	871	0	-100	0	230	101300000	1000	0	0	-1	900
19412155	7884	867	0	-100	0	230	101300000	1000	0	0	-1	900
19424715	7889	869	0	-100	0	230	101300000	1000	0	0	-1	900
19437275	7891	871	0	-100	0	230	101300000	1000	0	0	-1	900
19449835	7896	874	0	-100	0	230	101300000	1000	0	0	-1	900
19462395	7877	879	0	-100	0	230	101300000	1000	0	0	-1	900
19474955	7877	872	0	-100	0	230	101300000	1000	0	0	-1	900
19487515	7898	873	0	-100	0	230	101300000	1000	0	0	-1	900
19500075	7891	871	0	-100	0	230	101300000	1000	0	0	-1	900
19512635	7872	874	0	-100	0	230	101300000	1000	0	0	-1	900
19525195	7903	866	0	-100	0	230	101300000	1000	0	0	-1	900
19537755	7886	874	0	-100	0	230	101300000	1000	0	0	-1	900
19550315	7872	872	0	-100	0	230	101300000	1000	0	0	-1	900
19562875	7879	872	0	-100	0	230	101300000	1000	0	0	-1	900
19575435	7894	865	0	-100	0	230	101300000	1000	0	0	-1	900
19587995	7868	875	0	-100	0	230	101300000	1000	0	0	-1	900
19600555	7868	875	0	-100	0	230	101300000	1000	0	0	-1	900
19613115	7889	872	0	-100	0	230	101300000	1000	0	0	-1	900
19625675	7875	869	0	-100	0	230	101300000	1000	0	0	-1	900
19638235	7875	872	0	-100	0	230	101300000	1000	0	0	-1	900
19650795	7893	874	0	-100	0	230	101300000	1000	0	0	-1	900
19663355	7877	871	0	-100	0	230	101300000	1000	0	0	-1	900
19675915	7884	870	0	-100	0	230	101300000	1000	0	0	-1	900
19688475	7891	869	0	-100	0	230	101300000	1000	0	0	-1	900
19701035	7876	874	0	-100	0	230	101300000	1000	0	0	-1	900
19713595	7883	868	0	-100	0	230	101300000	1000	0	0	-1	900
19726155	7891	870	0	-100	0	230	101300000	1000	0	0	-1	900
19738715	7886	872	0	-100	0	230	101300000	1000	0	0	-1	900
19751275	7894	874	0	-100	0	230	101300000	1000	0	0	-1	900
19763835	7895	876	0	-100	0	230	101300000	1000	0	0	-1	900
19776395	7887	872	0	-100	0	230	101300000	1000	0	0	-1	900
19788955	7883	875	0	-100	0	230	101300000	1000	0	0	-1	900
19801515	7894	872	0	-100	0	230	101300000	1000	0	0	-1	900
19814075	7884	870	0	-100	0	230	101300000	1000	0	0	-1	900
19826635	7882	871	0	-100	0	230	101300000	1000	0	0	-1	900
19839195	7877	876	0	-100	0	230	101300000	1000	0	0	-1	900
19851755	7865	876	0	-100	0	230	101300000	1000	0	0	-1	900
19864315	7882	869	0	-100	0	230	101300000	1000	0	0	-1	900
19876875	7877	870	0	-100	0	230	101300000	1000	0	0	-1	900
19889435	7889	871	0	-100	0	230	101300000	1000	0	0	-1	900
19901995	7889	873	0	-100	0	230	101300000	1000	0	0	-1	900
19914555	7889	873	0	-100	0	230	101300000	1000	0	0	-1	900
19927115	7894	875	0	-100	0	230	101300000	1000	0	0	-1	900
19939675	7894	870	0	-100	0	230	101300000	1000	0	0	-1	900
19952235	7899	873	0	-100	0	230	101300000	1000	0	0	-1	900
19964795	7899	872	0	-100	0	230	101300000	1000	0	0	-1	900
19977355	7877	873	0	-100	0	230	101300000	1000	0	0	-1	900
19989915	7879	869	0	-100	0	230	101300000	1000	0	0	-1	900
20002475	7894	870	0	-100	0	230	101300000	1000	0	0	-1	900
20015035	7884	874	0	-100	0	230	101300000	1000	0	0	-1	900
20027595	7887	871	0	-100	0	230	101300000	1000	0	0	-1	900
20040155	7898	873	0	-100	0	230	101300000	1000	0	0	-1	900
20052715	7889	869	0	-100	0	230	101300000	1000	0	0	-1	900
20065275	7902	873	0	-100	0	230	101300000	1000	0	0	-1	900
20077835	7886	874	0	-100	0	230	101300000	1000	0	0	-1	900
20090395	7886	877	0	-100	0	230	101300000	1000	0	0	-1	900
20102955	7894	877	0	-100	0	230	101300000	1000	0	0	-1	900
20115515	7880	871	0	-100	0	230	101300000	1000	0	0	-1	900
20128075	7899	873	0	-100	0	230	101300000	1000	0	0	-1	900
20140635	7887	872	0	-100	0	230	101300000	1000	0	0	-1	900
20153195	7876	874	0	-100	0	230	101300000	1000	0	0	-1	900
20165755	7882	875	0	-100	0	230	101300000	1000	0	0	-1	900
20178315	7875	875	0	-100	0	230	101300000	1000	0	0	-1	900
20190875	7888	873	0	-100	0	230	101300000	1000	0	0	-1	900
20203435	7886	878	0	-100	0	230	101300000	1000	0	0	-1	900
20215995	7865	871	0	-100	0	230	101300000	1000	0	0	-1	900
20228555	7894	875	0	-100	0	230	101300000	1000	0	0	-1	900
20241115	7896	872	0	-100	0	230	101300000	1000	0	0	-1	900
20253675	7879	877	0	-100	0	230	101300000	1000	0	0	-1	900
20266235	7877	871	0	-100	0	230	101300000	1000	0	0	-1	900
20278795	7865	875	0	-100	0	230	101300000	1000	0	0	-1	900
20291355	7875	875	0	-100	0	230	101300000	1000	0	0	-1	900
20303915	7882	868	0	-100	0	230	101300000	1000	0	0	-1	900
20316475	7880	875	0	-100	0	230	101300000	1000	0	0	-1	900
20329035	7883	876	0	-100	0	230	101300000	1000	0	0	-1	900
20341595	7877	875	0	-100	0	230	101300000	1000	0	0	-1	900
20354155	7901	873	0	-100	0	230	101300000	1000	0	0	-1	900
20366715	7884	874	0	-100	0	230	101300000	1000	0	0	-1	900
20379275	7892	874	0	-100	0	230	101300000	1000	0	0	-1	900
20391835	7880	871	0	-100	0	230	101300000	1000	0	0	-1	900
20404395	7894	878	0	-100	0	230	101300000	1000	0	0	-1	900
20416955	7872	873	0	-100	0	230	101300000	1000	0	0	-1	900
20429515	7882	873	0	-100	0	230	101300000	1000	0	0	-1	900
20442075	7886	872	0	-100	0	230	101300000	1000	0	0	-1	900
20454635	7894	869	0	-100	0	230	101300000	1000	0	0	-1	900
20467195	7868	872	0	-100	0	230	101300000	1000	0	0	-1	900
20479755	7877	874	0	-100	0	230	101300000	1000	0	0	-1	900
20492315	7886	872	0	-100	0	230	101300000	1000	0	0	-1	900
20504875	7877	872	0	-100	0	230	101300000	1000	0	0	-1	900
20517435	7879	870	0	-100	0	230	101300000	1000	0	0	-1	900
20529995	7891	876	0	-100	0	230	101300000	1000	0	0	-1	900
20542555	7867	873	0	-100	0	230	101300000	1000	0	0	-1	900
20555115	7884	871	0	-100	0	230	101300000	1000	0	0	-1	900
20567675	7887	868	0	-100	0	230	101300000	1000	0	0	-1	900
20580235	7896	870	0	-100	0	230	101300000	1000	0	0	-1	900
20592795	7880	877	0	-100	0	230	101300000	1000	0	0	-1	900
20605355	7858	877	0	-100	0	230	101300000	1000	0	0	-1	900
20617915	7882	873	0	-100	0	230	101300000	1000	0	0	-1	900
20630475	7882	870	0	-100	0	230	101300000	1000	0	0	-1	900
20643035	7875	869	0	-100	0	230	101300000	1000	0	0	-1	900
20655595	7898	871	0	-100	0	230	101300000	1000	0	0	-1	900
20668155	7908	873	0	-100	0	230	101300000	1000	0	0	-1	900
20680715	7896	877	0	-100	0	230	101300000	1000	0	0	-1	900
20693275	7879	875	0	-100	0	230	101300000	1000	0	0	-1	900
20705835	7891	873	0	-100	0	230	101300000	1000	0	0	-1	900
20718395	7908	875	0	-100	0	230	101300000	1000	0	0	-1	900
20730955	7891	870	0	-100	0	230	101300000	1000	0	0	-1	900
20743515	7888	875	0	-100	0	230	101300000	1000	0	0	-1	900
20756075	7881	872	0	-100	0	230	101300000	1000	0	0	-1	900
20768635	7896	871	0	-100	0	230	101300000	1000	0	0	-1	900
20781195	7887	870	0	-100	0	230	101300000	1000	0	0	-1	900
20793755	7896	844	0	-100	0	230	101300000	1000	0	0	-1	900
20806315	7889	871	0	-100	0	230	101300000	1000	0	0	-1	900
20818875	7865	876	0	-100	0	230	101300000	1000	0	0	-1	900
20831435	7870	878	0	-100	0	230	101300000	1000	0	0	-1	900
20843995	7884	872	0	-100	0	230	101300000	1000	0	0	-1	900
20856555	7891	877	0	-100	0	230	101300000	1000	0	0	-1	900
20869115	7891	873	0	-100	0	230	101300000	1000	0	0	-1	900
20881675	7886	877	0	-100	0	230	101300000	1000	0	0	-1	900
20894235	7887	870	0	-100	0	230	101300000	1000	0	0	-1	900
20906795	7877	874	0	-100	0	230	101300000	1000	0	0	-1	900
20919355	7889	870	0	-100	0	230	101300000	1000	0	0	-1	900
20931915	7882	872	0	-100	0	230	101300000	1000	0	0	-1	900
20944475	7885	866	0	-100	0	230	101300000	1000	0	0	-1	900
20957035	7886	870	0	-100	0	230	101300000	1000	0	0	-1	900
20969595	7879	849	0	-100	0	230	101300000	1000	0	0	-1	900
20982155	7906	874	0	-100	0	230	101300000	1000	0	0	-1	900
20994715	7880	873	0	-100	0	230	101300000	1000	0	0	-1	900
21007275	7882	865	0	-100	0	230	101300000	1000	0	0	-1	900
21019835	7890	871	0	-100	0	230	101300000	1000	0	0	-1	900
21032395	7899	872	0	-100	0	230	101300000	1000	0	0	-1	900
21044955	7887	866	0	-100	0	230	101300000	1000	0	0	-1	900
21057515	7884	872	0	-100	0	230	101300000	1000	0	0	-1	900
21070075	7875	871	0	-100	0	230	101300000	1000	0	0	-1	900
21082635	7884	874	0	-100	0	230	101300000	1000	0	0	-1	900
21095195	7887	872	0	-100	0	230	101300000	1000	0	0	-1	900
21107755	7870	870	0	-100	0	230	101300000	1000	0	0	-1	900
21120315	7877	871	0	-100	0	230	101300000	1000	0	0	-1	900
21132875	7872	853	0	-100	0	230	101300000	1000	0	0	-1	900
21145435	7891	873	0	-100	0	230	101300000	1000	0	0	-1	900
21157995	7889	873	0	-100	0	230	101300000	1000	0	0	-1	900
21170555	7875	873	0	-100	0	230	101300000	1000	0	0	-1	900
21183115	7868	873	0	-100	0	230	101300000	1000	0	0	-1	900
21195675	7874	872	0	-100	0	230	101300000	1000	0	0	-1	900
21208235	7886	871	0	-100	0	230	101300000	1000	0	0	-1	900
21220795	7872	869	0	-100	0	230	101300000	1000	0	0	-1	900
21233355	7889	870	0	-100	0	230	101300000	1000	0	0	-1	900
21245915	7890	868	0	-100	0	230	101300000	1000	0	0	-1	900
21258475	7865	874	0	-100	0	230	101300000	1000	0	0	-1	900
21271035	7882	873	0	-100	0	230	101300000	1000	0	0	-1	900
21283595	7889	876	0	-100	0	230	101300000	1000	0	0	-1	900
21296155	7896	871	0	-100	0	230	101300000	1000	0	0	-1	900
21308715	7877	870	0	-100	0	230	101300000	1000	0	0	-1	900
21321275	7882	873	0	-100	0	230	101300000	1000	0	0	-1	900
21333835	7887	875	0	-100	0	230	101300000	1000	0	0	-1	900
21346395	7887	874	0	-100	0	230	101300000	1000	0	0	-1	900
21358955	7879	870	0	-100	0	230	101300000	1000	0	0	-1	900
21371515	7889	876	0	-100	0	230	101300000	1000	0	0	-1	900
21384075	7882	871	0	-100	0	230	101300000	1000	0	0	-1	900
21396635	7883	869	0	-100	0	230	101300000	1000	0	0	-1	900
21409195	7890	874	0	-100	0	230	101300000	1000	0	0	-1	900
21421755	7884	874	0	-100	0	230	101300000	1000	0	0	-1	900
21434315	7894	867	0	-100	0	230	101300000	1000	0	0	-1	900
21446875	7870	875	0	-100	0	230	101300000	1000	0	0	-1	900
21459435	7880	870	0	-100	0	230	101300000	1000	0	0	-1	900
21471995	7882	873	0	-100	0	230	101300000	1000	0	0	-1	900
21484555	7877	879	0	-100	0	230	101300000	1000	0	0	-1	900
21497115	7877	867	0	-100	0	230	101300000	1000	0	0	-1	900
21509675	7870	871	0	-100	0	230	101300000	1000	0	0	-1	900
21522235	7894	871	0	-100	0	230	101300000	1000	0	0	-1	900
21534795	7880	869	0	-100	0	230	101300000	1000	0	0	-1	900
21547355	7899	868	0	-100	0	230	101300000	1000	0	0	-1	900
21559915	7899	868	0	-100	0	230	101300000	1000	0	0	-1	900
21572475	7899	865	0	-100	0	230	101300000	1000	0	0	-1	900
21585035	7889	869	0	-100	0	230	101300000	1000	0	0	-1	900
21597595	7896	869	0	-100	0	230	101300000	1000	0	0	-1	900
21610155	7905	874	0	-100	0	230	101300000	1000	0	0	-1	900
21622715	7884	873	0	-100	0	230	101300000	1000	0	0	-1	900
21635275	7868	870	0	-100	0	230	101300000	1000	0	0	-1	900
21647835	7893	870	0	-100	0	230	101300000	1000	0	0	-1	900
21660395	7894	869	0	-100	0	230	101300000	1000	0	0	-1	900
21672955	7875	872	0	-100	0	230	101300000	1000	0	0	-1	900
21685515	7880	871	0	-100	0	230	101300000	1000	0	0	-1	900
21698075	7881	875	0	-100	0	230	101300000	1000	0	0	-1	900
21710635	7882	868	0	-100	0	230	101300000	1000	0	0	-1	900
21723195	7888	876	0	-100	0	230	101300000	1000	0	0	-1	900
21735755	7879	879	0	-100	0	230	101300000	1000	0	0	-1	900
21748315	7886	872	0	-100	0	230	101300000	1000	0	0	-1	900
21760875	7870	874	0	-100	0	230	101300000	1000	0	0	-1	900
21773435	7872	870	0	-100	0	230	101300000	1000	0	0	-1	900
21785995	7886	872	0	-100	0	230	101300000	1000	0	0	-1	900
21798555	7870	877	0	-100	0	230	101300000	1000	0	0	-1	900
21811115	7882	874	0	-100	0	230	101300000	1000	0	0	-1	900
21823675	7905	869	0	-100	0	230	101300000	1000	0	0	-1	900
21836235	7893	874	0	-100	0	230	101300000	1000	0	0	-1	900
21848795	7884	873	0	-100	0	230	101300000	1000	0	0	-1	900
21861355	7889	871	0	-100	0	230	101300000	1000	0	0	-1	900
21873915	7889	869	0	-100	0	230	101300000	1000	0	0	-1	900
21886475	7890	868	0	-100	0	230	101300000	1000	0	0	-1	900
21899035	7889	873	0	-100	0	230	101300000	1000	0	0	-1	900
21911595	7877	869	0	-100	0	230	101300000	1000	0	0	-1	900
21924155	7887	872	0	-100	0	230	101300000	1000	0	0	-1	900
21936715	7882	876	0	-100	0	230	101300000	1000	0	0	-1	900
21949275	7884	875	0	-100	0	230	101300000	1000	0	0	-1	900
21961835	7891	878	0	-100	0	230	101300000	1000	0	0	-1	900
21974395	7874	870	0	-100	0	230	101300000	1000	0	0	-1	900
21986955	7882	874	0	-100	0	230	101300000	1000	0	0	-1	900
21999515	7891	877	0	-100	0	230	101300000	1000	0	0	-1	900
22012075	7884	872	0	-100	0	230	101300000	1000	0	0	-1	900
22024635	7884	872	0	-100	0	230	101300000	1000	0	0	-1	900
22037195	7889	874	0	-100	0	230	101300000	1000	0	0	-1	900
22049755	7898	873	0	-100	0	230	101300000	1000	0	0	-1	900
22062315	7889	873	0	-100	0	230	101300000	1000	0	0	-1	900
22074875	7884	873	0	-100	0	230	101300000	1000	0	0	-1	900
22087435	7889	872	0	-100	0	230	101300000	1000	0	0	-1	900
22099995	7889	877	0	-100	0	230	101300000	1000	0	0	-1	900
22112555	7879	871	0	-100	0	230	101300000	1000	0	0	-1	900
22125115	7889	876	0	-100	0	230	101300000	1000	0	0	-1	900
22137675	7877	874	0	-100	0	230	101300000	1000	0	0	-1	900
22150235	7879	875	0	-100	0	230	101300000	1000	0	0	-1	900
22162795	7903	875	0	-100	0	230	101300000	1000	0	0	-1	900
22175355	7886	874	0	-100	0	230	101300000	1000	0	0	-1	900
22187915	7889	867	0	-100	0	230	101300000	1000	0	0	-1	900
22200475	7889	868	0	-100	0	230	101300000	1000	0	0	-1	900
22213035	7894	872	0	-100	0	230	101300000	1000	0	0	-1	900
22225595	7887	870	0	-100	0	230	101300000	1000	0	0	-1	900
22238155	7901	871	0	-100	0	230	101300000	1000	0	0	-1	900
22250715	7887	873	0	-100	0	230	101300000	1000	0	0	-1	900
22263275	7894	873	0	-100	0	230	101300000	1000	0	0	-1	900
22275835	7896	871	0	-100	0	230	101300000	1000	0	0	-1	900
22288395	7882	876	0	-100	0	230	101300000	1000	0	0	-1	900
22300955	7889	869	0	-100	0	230	101300000	1000	0	0	-1	900
22313515	7882	873	0	-100	0	230	101300000	1000	0	0	-1	900
22326075	7881	877	0	-100	0	230	101300000	1000	0	0	-1	900
22338635	7891	875	0	-100	0	230	101300000	1000	0	0	-1	900
22351195	7903	871	0	-100	0	230	101300000	1000	0	0	-1	900
22363755	7889	872	0	-100	0	230	101300000	1000	0	0	-1	900
22376315	7881	879	0	-100	0	230	101300000	1000	0	0	-1	900
22388875	7884	874	0	-100	0	230	101300000	1000	0	0	-1	900
22401435	7896	872	0	-100	0	230	101300000	1000	0	0	-1	900
22413995	7898	873	0	-100	0	230	101300000	1000	0	0	-1	900
22426555	7899	877	0	-100	0	230	101300000	1000	0	0	-1	900
22439115	7879	876	0	-100	0	230	101300000	1000	0	0	-1	900
22451675	7889	875	0	-100	0	230	101300000	1000	0	0	-1	900
22464235	7865	874	0	-100	0	230	101300000	1000	0	0	-1	900
22476795	7874	875	0	-100	0	230	101300000	1000	0	0	-1	900
22489355	7879	876	0	-100	0	230	101300000	1000	0	0	-1	900
22501915	7875	876	0	-100	0	230	101300000	1000	0	0	-1	900
22514475	7884	875	0	-100	0	230	101300000	1000	0	0	-1	900
22527035	7891	879	0	-100	0	230	101300000	1000	0	0	-1	900
22539595	7877	876	0	-100	0	230	101300000	1000	0	0	-1	900
22552155	7889	875	0	-100	0	230	101300000	1000	0	0	-1	900
22564715	7894	873	0	-100	0	230	101300000	1000	0	0	-1	900
22577275	7891	876	0	-100	0	230	101300000	1000	0	0	-1	900
22589835	7896	871	0	-100	0	230	101300000	1000	0	0	-1	900
22602395	7887	870	0	-100	0	230	101300000	1000	0	0	-1	900
22614955	7872	872	0	-100	0	230	101300000	1000	0	0	-1	900
22627515	7879	873	0	-100	0	230	101300000	1000	0	0	-1	900
22640075	7887	876	0	-100	0	230	101300000	1000	0	0	-1	900
22652635	7896	871	0	-100	0	230	101300000	1000	0	0	-1	900
22665195	7906	872	0	-100	0	230	101300000	1000	0	0	-1	900
22677755	7872	875	0	-100	0	230	101300000	1000	0	0	-1	900
22690315	7870	875	0	-100	0	230	101300000	1000	0	0	-1	900
22702875	7875	875	0	-100	0	230	101300000	1000	0	0	-1	900
22715435	7886	875	0	-100	0	230	101300000	1000	0	0	-1	900
22727995	7882	870	0	-100	0	230	101300000	1000	0	0	-1	900
22740555	7896	875	0	-100	0	230	101300000	1000	0	0	-1	900
22753115	7887	874	0	-100	0	230	101300000	1000	0	0	-1	900
22765675	7900	878	0	-100	0	230	101300000	1000	0	0	-1	900
22778235	7889	876	0	-100	0	230	101300000	1000	0	0	-1	900
22790795	7894	876	0	-100	0	230	101300000	1000	0	0	-1	900
22803355	7877	877	0	-100	0	230	101300000	1000	0	0	-1	900
22815915	7872	872	0	-100	0	230	101300000	1000	0	0	-1	900
22828475	7889	873	0	-100	0	230	101300000	1000	0	0	-1	900
22841035	7899	872	0	-100	0	230	101300000	1000	0	0	-1	900
22853595	7865	872	0	-100	0	230	101300000	1000	0	0	-1	900
22866155	7895	881	0	-100	0	230	101300000	1000	0	0	-1	900
22878715	7889	875	0	-100	0	230	101300000	1000	0	0	-1	900
22891275	7881	875	0	-100	0	230	101300000	1000	0	0	-1	900
22903835	7891	874	0	-100	0	230	101300000	1000	0	0	-1	900
22916395	7896	876	0	-100	0	230	101300000	1000	0	0	-1	900
22928955	7884	874	0	-100	0	230	101300000	1000	0	0	-1	900
22941515	7887	874	0	-100	0	230	101300000	1000	0	0	-1	900
22954075	7863	872	0	-100	0	230	101300000	1000	0	0	-1	900
22966635	7875	873	0	-100	0	230	101300000	1000	0	0	-1	900
22979195	7884	868	0	-100	0	230	101300000	1000	0	0	-1	900
22991755	7884	874	0	-100	0	230	101300000	1000	0	0	-1	900
23004315	7882	877	0	-100	0	230	101300000	1000	0	0	-1	900
23016875	7891	875	0	-100	0	230	101300000	1000	0	0	-1	900
23029435	7887	870	0	-100	0	230	101300000	1000	0	0	-1	900
23041995	7880	870	0	-100	0	230	101300000	1000	0	0	-1	900
23054555	7879	873	0	-100	0	230	101300000	1000	0	0	-1	900
23067115	7887	875	0	-100	0	230	101300000	1000	0	0	-1	900
23079675	7884	869	0	-100	0	230	101300000	1000	0	0	-1	900
23092235	7875	875	0	-100	0	230	101300000	1000	0	0	-1	900
23104795	7887	879	0	-100	0	230	101300000	1000	0	0	-1	900
23117355	7872	875	0	-100	0	230	101300000	1000	0	0	-1	900
23129915	7894	873	0	-100	0	230	101300000	1000	0	0	-1	900
23142475	7884	875	0	-100	0	230	101300000	1000	0	0	-1	900
23155035	7891	879	0	-100	0	230	101300000	1000	0	0	-1	900
23167595	7887	874	0	-100	0	230	101300000	1000	0	0	-1	900
23180155	7891	875	0	-100	0	230	101300000	1000	0	0	-1	900
23192715	7887	870	0	-100	0	230	101300000	1000	0	0	-1	900
23205275	7891	870	0	-100	0	230	101300000	1000	0	0	-1	900
23217835	7894	866	0	-100	0	230	101300000	1000	0	0	-1	900
23230395	7879	872	0	-100	0	230	101300000	1000	0	0	-1	900
23242955	7884	877	0	-100	0	230	101300000	1000	0	0	-1	900
23255515	7888	880	0	-100	0	230	101300000	1000	0	0	-1	900
23268075	7880	875	0	-100	0	230	101300000	1000	0	0	-1	900
23280635	7884	879	0	-100	0	230	101300000	1000	0	0	-1	900
23293195	7884	875	0	-100	0	230	101300000	1000	0	0	-1	900
23305755	7887	873	0	-100	0	230	101300000	1000	0	0	-1	900
23318315	7875	875	0	-100	0	230	101300000	1000	0	0	-1	900
23330875	7886	874	0	-100	0	230	101300000	1000	0	0	-1	900
23343435	7884	875	0	-100	0	230	101300000	1000	0	0	-1	900
23355995	7887	878	0	-100	0	230	101300000	1000	0	0	-1	900
23368555	7887	877	0	-100	0	230	101300000	1000	0	0	-1	900
23381115	7892	870	0	-100	0	230	101300000	1000	0	0	-1	900
23393675	7879	873	0	-100	0	230	101300000	1000	0	0	-1	900
23406235	7880	869	0	-100	0	230	101300000	1000	0	0	-1	900
23418795	7872	870	0	-100	0	230	101300000	1000	0	0	-1	900
23431355	7886	872	0	-100	0	230	101300000	1000	0	0	-1	900
23443915	7874	871	0	-100	0	230	101300000	1000	0	0	-1	900
23456475	7889	876	0	-100	0	230	101300000	1000	0	0	-1	900
23469035	7880	870	0	-100	0	230	101300000	1000	0	0	-1	900
23481595	7875	870	0	-100	0	230	101300000	1000	0	0	-1	900
23494155	7889	879	0	-100	0	230	101300000	1000	0	0	-1	900
23506715	7881	875	0	-100	0	230	101300000	1000	0	0	-1	900
23519275	7877	870	0	-100	0	230	101300000	1000	0	0	-1	900
23531835	7875	873	0	-100	0	230	101300000	1000	0	0	-1	900
23544395	7882	874	0	-100	0	230	101300000	1000	0	0	-1	900
23556955	7881	878	0	-100	0	230	101300000	1000	0	0	-1	900
23569515	7880	875	0	-100	0	230	101300000	1000	0	0	-1	900
23582075	7882	872	0	-100	0	230	101300000	1000	0	0	-1	900
23594635	7877	870	0	-100	0	230	101300000	1000	0	0	-1	900
23607195	7902	870	0	-100	0	230	101300000	1000	0	0	-1	900
23619755	7887	872	0	-100	0	230	101300000	1000	0	0	-1	900
23632315	7894	870	0	-100	0	230	101300000	1000	0	0	-1	900
23644875	7865	871	0	-100	0	230	101300000	1000	0	0	-1	900
23657435	7886	874	0	-100	0	230	101300000	1000	0	0	-1	900
23669995	7886	874	0	-100	0	230	101300000	1000	0	0	-1	900
23682555	7873	869	0	-100	0	230	101300000	1000	0	0	-1	900
23695115	7881	872	0	-100	0	230	101300000	1000	0	0	-1	900
23707675	7868	871	0	-100	0	230	101300000	1000	0	0	-1	900
23720235	7865	876	0	-100	0	230	101300000	1000	0	0	-1	900
23732795	7884	875	0	-100	0	230	101300000	1000	0	0	-1	900
23745355	7877	874	0	-100	0	230	101300000	1000	0	0	-1	900
23757915	7887	874	0	-100	0	230	101300000	1000	0	0	-1	900
23770475	7881	873	0	-100	0	230	101300000	1000	0	0	-1	900
23783035	7889	872	0	-100	0	230	101300000	1000	0	0	-1	900
23795595	7877	876	0	-100	0	230	101300000	1000	0	0	-1	900
23808155	7884	869	0	-100	0	230	101300000	1000	0	0	-1	900
23820715	7908	871	0	-100	0	230	101300000	1000	0	0	-1	900
23833275	7886	872	0	-100	0	230	101300000	1000	0	0	-1	900
23845835	7877	870	0	-100	0	230	101300000	1000	0	0	-1	900
23858395	7888	874	0	-100	0	230	101300000	1000	0	0	-1	900
23870955	7882	880	0	-100	0	230	101300000	1000	0	0	-1	900
23883515	7886	871	0	-100	0	230	101300000	1000	0	0	-1	900
23896075	7873	876	0	-100	0	230	101300000	1000	0	0	-1	900
23908635	7899	874	0	-100	0	230	101300000	1000	0	0	-1	900
23921195	7896	874	0	-100	0	230	101300000	1000	0	0	-1	900
23933755	7868	871	0	-100	0	230	101300000	1000	0	0	-1	900
23946315	7875	874	0	-100	0	230	101300000	1000	0	0	-1	900
23958875	7879	874	0	-100	0	230	101300000	1000	0	0	-1	900
23971435	7877	871	0	-100	0	230	101300000	1000	0	0	-1	900
23983995	7884	871	0	-100	0	230	101300000	1000	0	0	-1	900
23996555	7894	873	0	-100	0	230	101300000	1000	0	0	-1	900
24009115	7882	867	0	-100	0	230	101300000	1000	0	0	-1	900
24021675	7875	875	0	-100	0	230	101300000	1000	0	0	-1	900
24034235	7882	872	0	-100	0	230	101300000	1000	0	0	-1	900
24046795	7881	868	0	-100	0	230	101300000	1000	0	0	-1	900
24059355	7880	873	0	-100	0	230	101300000	1000	0	0	-1	900
24071915	7891	876	0	-100	0	230	101300000	1000	0	0	-1	900
24084475	7891	876	0	-100	0	230	101300000	1000	0	0	-1	900
24097035	7886	874	0	-100	0	230	101300000	1000	0	0	-1	900
24109595	7872	874	0	-100	0	230	101300000	1000	0	0	-1	900
24122155	7891	875	0	-100	0	230	101300000	1000	0	0	-1	900
24134715	7877	870	0	-100	0	230	101300000	1000	0	0	-1	900
24147275	7878	875	0	-100	0	230	101300000	1000	0	0	-1	900
24159835	7880	876	0	-100	0	230	101300000	1000	0	0	-1	900
24172395	7888	872	0	-100	0	230	101300000	1000	0	0	-1	900
24184955	7893	878	0	-100	0	230	101300000	1000	0	0	-1	900
24197515	7896	878	0	-100	0	230	101300000	1000	0	0	-1	900
24210075	7889	876	0	-100	0	230	101300000	1000	0	0	-1	900
24222635	7908	873	0	-100	0	230	101300000	1000	0	0	-1	900
24235195	7886	871	0	-100	0	230	101300000	1000	0	0	-1	900
24247755	7887	870	0	-100	0	230	101300000	1000	0	0	-1	900
24260315	7888	874	0	-100	0	230	101300000	1000	0	0	-1	900
24272875	7870	874	0	-100	0	230	101300000	1000	0	0	-1	900
24285435	7868	872	0	-100	0	230	101300000	1000	0	0	-1	900
24297995	7878	867	0	-100	0	230	101300000	1000	0	0	-1	900
24310555	7896	875	0	-100	0	230	101300000	1000	0	0	-1	900
24323115	7889	871	0	-100	0	230	101300000	1000	0	0	-1	900
24335675	7882	871	0	-100	0	230	101300000	1000	0	0	-1	900
24348235	7875	873	0	-100	0	230	101300000	1000	0	0	-1	900
24360795	7891	874	0	-100	0	230	101300000	1000	0	0	-1	900
24373355	7884	869	0	-100	0	230	101300000	1000	0	0	-1	900
24385915	7894	874	0	-100	0	230	101300000	1000	0	0	-1	900
24398475	7904	876	0	-100	0	230	101300000	1000	0	0	-1	900
24411035	7889	872	0	-100	0	230	101300000	1000	0	0	-1	900
24423595	7881	872	0	-100	0	230	101300000	1000	0	0	-1	900
24436155	7894	881	0	-100	0	230	101300000	1000	0	0	-1	900
24448715	7885	874	0	-100	0	230	101300000	1000	0	0	-1	900
24461275	7872	871	0	-100	0	230	101300000	1000	0	0	-1	900
24473835	7877	874	0	-100	0	230	101300000	1000	0	0	-1	900
24486395	7870	874	0	-100	0	230	101300000	1000	0	0	-1	900
24498955	7875	872	0	-100	0	230	101300000	1000	0	0	-1	900
24511515	7884	872	0	-100	0	230	101300000	1000	0	0	-1	900
24524075	7892	869	0	-100	0	230	101300000	1000	0	0	-1	900
24536635	7879	869	0	-100	0	230	101300000	1000	0	0	-1	900
24549195	7889	874	0	-100	0	230	101300000	1000	0	0	-1	900
24561755	7883	872	0	-100	0	230	101300000	1000	0	0	-1	900
24574315	7884	872	0	-100	0	230	101300000	1000	0	0	-1	900
24586875	7868	872	0	-100	0	230	101300000	1000	0	0	-1	900
24599435	7893	876	0	-100	0	230	101300000	1000	0	0	-1	900
24611995	7891	868	0	-100	0	230	101300000	1000	0	0	-1	900
24624555	7897	866	0	-100	0	230	101300000	1000	0	0	-1	900
24637115	7884	872	0	-100	0	230	101300000	1000	0	0	-1	900
24649675	7886	874	0	-100	0	230	101300000	1000	0	0	-1	900
24662235	7881	873	0	-100	0	230	101300000	1000	0	0	-1	900
24674795	7884	873	0	-100	0	230	101300000	1000	0	0	-1	900
24687355	7881	870	0	-100	0	230	101300000	1000	0	0	-1	900
24699915	7896	873	0	-100	0	230	101300000	1000	0	0	-1	900
24712475	7889	872	0	-100	0	230	101300000	1000	0	0	-1	900
24725035	7891	872	0	-100	0	230	101300000	1000	0	0	-1	900
24737595	7872	873	0	-100	0	230	101300000	1000	0	0	-1	900
24750155	7896	869	0	-100	0	230	101300000	1000	0	0	-1	900
24762715	7884	874	0	-100	0	230	101300000	1000	0	0	-1	900
24775275	7888	873	0	-100	0	230	101300000	1000	0	0	-1	900
24787835	7889	870	0	-100	0	230	101300000	1000	0	0	-1	900
24800395	7891	872	0	-100	0	230	101300000	1000	0	0	-1	900
24812955	7894	874	0	-100	0	230	101300000	1000	0	0	-1	900
24825515	7870	868	0	-100	0	230	101300000	1000	0	0	-1	900
24838075	7868	873	0	-100	0	230	101300000	1000	0	0	-1	900
24850635	7894	876	0	-100	0	230	101300000	1000	0	0	-1	900
24863195	7896	870	0	-100	0	230	101300000	1000	0	0	-1	900
24875755	7887	874	0	-100	0	230	101300000	1000	0	0	-1	900
24888315	7894	875	0	-100	0	230	101300000	1000	0	0	-1	900
24900875	7889	872	0	-100	0	230	101300000	1000	0	0	-1	900
24913435	7896	872	0	-100	0	230	101300000	1000	0	0	-1	900
24925995	7882	872	0	-100	0	230	101300000	1000	0	0	-1	900
24938555	7889	876	0	-100	0	230	101300000	1000	0	0	-1	900
24951115	7880	866	0	-100	0	230	101300000	1000	0	0	-1	900
24963675	7880	872	0	-100	0	230	101300000	1000	0	0	-1	900
24976235	7895	872	0	-100	0	230	101300000	1000	0	0	-1	900
24988795	7888	874	0	-100	0	230	101300000	1000	0	0	-1	900
25001355	7874	878	0	-100	0	230	101300000	1000	0	0	-1	900
25013915	7879	872	0	-100	0	230	101300000	1000	0	0	-1	900
25026475	7894	868	0	-100	0	230	101300000	1000	0	0	-1	900
25039035	7885	870	0	-100	0	230	101300000	1000	0	0	-1	900
25051595	7879	869	0	-100	0	230	101300000	1000	0	0	-1	900
25064155	7901	873	0	-100	0	230	101300000	1000	0	0	-1	900
25076715	7874	874	0	-100	0	230	101300000	1000	0	0	-1	900
25089275	7886	877	0	-100	0	230	101300000	1000	0	0	-1	900
25101835	7881	875	0	-100	0	230	101300000	1000	0	0	-1	900
25114395	7889	874	0	-100	0	230	101300000	1000	0	0	-1	900
25126955	7870	876	0	-100	0	230	101300000	1000	0	0	-1	900
25139515	7901	868	0	-100	0	230	101300000	1000	0	0	-1	900
25152075	7875	871	0	-100	0	230	101300000	1000	0	0	-1	900
25164635	7891	873	0	-100	0	230	101300000	1000	0	0	-1	900
25177195	7879	873	0	-100	0	230	101300000	1000	0	0	-1	900
25189755	7887	874	0	-100	0	230	101300000	1000	0	0	-1	900
25202315	7870	878	0	-100	0	230	101300000	1000	0	0	-1	900
25214875	7872	874	0	-100	0	230	101300000	1000	0	0	-1	900
25227435	7884	872	0	-100	0	230	101300000	1000	0	0	-1	900
25239995	7886	874	0	-100	0	230	101300000	1000	0	0	-1	900
25252555	7891	872	0	-100	0	230	101300000	1000	0	0	-1	900
25265115	7877	876	0	-100	0	230	101300000	1000	0	0	-1	900
25277675	7886	872	0	-100	0	230	101300000	1000	0	0	-1	900
25290235	7876	875	0	-100	0	230	101300000	1000	0	0	-1	900
25302795	7889	872	0	-100	0	230	101300000	1000	0	0	-1	900
25315355	7901	873	0	-100	0	230	101300000	1000	0	0	-1	900
25327915	7867	868	0	-100	0	230	101300000	1000	0	0	-1	900
25340475	7880	876	0	-100	0	230	101300000	1000	0	0	-1	900
25353035	7887	874	0	-100	0	230	101300000	1000	0	0	-1	900
25365595	7889	870	0	-100	0	230	101300000	1000	0	0	-1	900
25378155	7882	874	0	-100	0	230	101300000	1000	0	0	-1	900
25390715	7863	871	0	-100	0	230	101300000	1000	0	0	-1	900
25403275	7888	877	0	-100	0	230	101300000	1000	0	0	-1	900
25415835	7894	861	0	-100	0	230	101300000	1000	0	0	-1	900
25428395	7893	875	0	-100	0	230	101300000	1000	0	0	-1	900
25440955	7884	878	0	-100	0	230	101300000	1000	0	0	-1	900
25453515	7886	874	0	-100	0	230	101300000	1000	0	0	-1	900
25466075	7884	871	0	-100	0	230	101300000	1000	0	0	-1	900
25478635	7886	873	0	-100	0	230	101300000	1000	0	0	-1	900
25491195	7884	867	0	-100	0	230	101300000	1000	0	0	-1	900
25503755	7884	874	0	-100	0	230	101300000	1000	0	0	-1	900
25516315	7889	868	0	-100	0	230	101300000	1000	0	0	-1	900
25528875	7870	873	0	-100	0	230	101300000	1000	0	0	-1	900
25541435	7887	870	0	-100	0	230	101300000	1000	0	0	-1	900
25553995	7894	876	0	-100	0	230	101300000	1000	0	0	-1	900
25566555	7889	877	0	-100	0	230	101300000	1000	0	0	-1	900
25579115	7877	875	0	-100	0	230	101300000	1000	0	0	-1	900
25591675	7901	870	0	-100	0	230	101300000	1000	0	0	-1	900
25604235	7889	872	0	-100	0	230	101300000	1000	0	0	-1	900
25616795	7889	877	0	-100	0	230	101300000	1000	0	0	-1	900
25629355	7887	875	0	-100	0	230	101300000	1000	0	0	-1	900
25641915	7891	878	0	-100	0	230	101300000	1000	0	0	-1	900
25654475	7868	875	0	-100	0	230	101300000	1000	0	0	-1	900
25667035	7868	874	0	-100	0	230	101300000	1000	0	0	-1	900
25679595	7884	876	0	-100	0	230	101300000	1000	0	0	-1	900
25692155	7888	874	0	-100	0	230	101300000	1000	0	0	-1	900
25704715	7868	876	0	-100	0	230	101300000	1000	0	0	-1	900
25717275	7874	877	0	-100	0	230	101300000	1000	0	0	-1	900
25729835	7891	875	0	-100	0	230	101300000	1000	0	0	-1	900
25742395	7879	873	0	-100	0	230	101300000	1000	0	0	-1	900
25754955	7887	878	0	-100	0	230	101300000	1000	0	0	-1	900
25767515	7884	872	0	-100	0	230	101300000	1000	0	0	-1	900
25780075	7879	873	0	-100	0	230	101300000	1000	0	0	-1	900
25792635	7874	876	0	-100	0	230	101300000	1000	0	0	-1	900
25805195	7884	869	0	-100	0	230	101300000	1000	0	0	-1	900
25817755	7879	872	0	-100	0	230	101300000	1000	0	0	-1	900
25830315	7892	870	0	-100	0	230	101300000	1000	0	0	-1	900
25842875	7889	871	0	-100	0	230	101300000	1000	0	0	-1	900
25855435	7889	870	0	-100	0	230	101300000	1000	0	0	-1	900
25867995	7887	872	0	-100	0	230	101300000	1000	0	0	-1	900
25880555	7894	870	0	-100	0	230	101300000	1000	0	0	-1	900
25893115	7884	872	0	-100	0	230	101300000	1000	0	0	-1	900
25905675	7879	874	0	-100	0	230	101300000	1000	0	0	-1	900
25918235	7871	872	0	-100	0	230	101300000	1000	0	0	-1	900
25930795	7891	874	0	-100	0	230	101300000	1000	0	0	-1	900
25943355	7881	875	0	-100	0	230	101300000	1000	0	0	-1	900
25955915	7874	876	0	-100	0	230	101300000	1000	0	0	-1	900
25968475	7877	872	0	-100	0	230	101300000	1000	0	0	-1	900
25981035	7882	876	0	-100	0	230	101300000	1000	0	0	-1	900
25993595	7882	875	0	-100	0	230	101300000	1000	0	0	-1	900
26006155	7901	876	0	-100	0	230	101300000	1000	0	0	-1	900
26018715	7882	864	0	-100	0	230	101300000	1000	0	0	-1	900
26031275	7887	873	0	-100	0	230	101300000	1000	0	0	-1	900
26043835	7877	876	0	-100	0	230	101300000	1000	0	0	-1	900
26056395	7886	873	0	-100	0	230	101300000	1000	0	0	-1	900
26068955	7895	874	0	-100	0	230	101300000	1000	0	0	-1	900
26081515	7867	876	0	-100	0	230	101300000	1000	0	0	-1	900
26094075	7884	872	0	-100	0	230	101300000	1000	0	0	-1	900
26106635	7880	879	0	-100	0	230	101300000	1000	0	0	-1	900
26119195	7870	871	0	-100	0	230	101300000	1000	0	0	-1	900
26131755	7885	872	0	-100	0	230	101300000	1000	0	0	-1	900
26144315	7879	869	0	-100	0	230	101300000	1000	0	0	-1	900
26156875	7887	870	0	-100	0	230	101300000	1000	0	0	-1	900
26169435	7877	868	0	-100	0	230	101300000	1000	0	0	-1	900
26181995	7881	869	0	-100	0	230	101300000	1000	0	0	-1	900
26194555	7901	872	0	-100	0	230	101300000	1000	0	0	-1	900
26207115	7879	876	0	-100	0	230	101300000	1000	0	0	-1	900
26219675	7872	878	0	-100	0	230	101300000	1000	0	0	-1	900
26232235	7869	877	0	-100	0	230	101300000	1000	0	0	-1	900
26244795	7884	874	0	-100	0	230	101300000	1000	0	0	-1	900
26257355	7878	873	0	-100	0	230	101300000	1000	0	0	-1	900
26269915	7884	875	0	-100	0	230	101300000	1000	0	0	-1	900
26282475	7896	873	0	-100	0	230	101300000	1000	0	0	-1	900
26295035	7887	875	0	-100	0	230	101300000	1000	0	0	-1	900
26307595	7877	875	0	-100	0	230	101300000	1000	0	0	-1	900
26320155	7884	877	0	-100	0	230	101300000	1000	0	0	-1	900
26332715	7867	875	0	-100	0	230	101300000	1000	0	0	-1	900
26345275	7884	866	0	-100	0	230	101300000	1000	0	0	-1	900
26357835	7884	876	0	-100	0	230	101300000	1000	0	0	-1	900
26370395	7889	870	0	-100	0	230	101300000	1000	0	0	-1	900
26382955	7891	872	0	-100	0	230	101300000	1000	0	0	-1	900
26395515	7887	874	0	-100	0	230	101300000	1000	0	0	-1	900
26408075	7889	872	0	-100	0	230	101300000	1000	0	0	-1	900
26420635	7889	874	0	-100	0	230	101300000	1000	0	0	-1	900
26433195	7884	876	0	-100	0	230	101300000	1000	0	0	-1	900
26445755	7897	869	0	-100	0	230	101300000	1000	0	0	-1	900
26458315	7875	871	0	-100	0	230	101300000	1000	0	0	-1	900
26470875	7884	875	0	-100	0	230	101300000	1000	0	0	-1	900
26483435	7891	873	0	-100	0	230	101300000	1000	0	0	-1	900
26495995	7887	870	0	-100	0	230	101300000	1000	0	0	-1	900
26508555	7884	873	0	-100	0	230	101300000	1000	0	0	-1	900
26521115	7886	874	0	-100	0	230	101300000	1000	0	0	-1	900
26533675	7875	875	0	-100	0	230	101300000	1000	0	0	-1	900
26546235	7881	877	0	-100	0	230	101300000	1000	0	0	-1	900
26558795	7891	872	0	-100	0	230	101300000	1000	0	0	-1	900
26571355	7889	872	0	-100	0	230	101300000	1000	0	0	-1	900
26583915	7880	872	0	-100	0	230	101300000	1000	0	0	-1	900
26596475	7874	873	0	-100	0	230	101300000	1000	0	0	-1	900
26609035	7901	871	0	-100	0	230	101300000	1000	0	0	-1	900
26621595	7884	874	0	-100	0	230	101300000	1000	0	0	-1	900
26634155	7894	873	0	-100	0	230	101300000	1000	0	0	-1	900
26646715	7886	876	0	-100	0	230	101300000	1000	0	0	-1	900
26659275	7891	872	0	-100	0	230	101300000	1000	0	0	-1	900
26671835	7884	870	0	-100	0	230	101300000	1000	0	0	-1	900
26684395	7877	877	0	-100	0	230	101300000	1000	0	0	-1	900
26696955	7891	878	0	-100	0	230	101300000	1000	0	0	-1	900
26709515	7891	874	0	-100	0	230	101300000	1000	0	0	-1	900
26722075	7889	876	0	-100	0	230	101300000	1000	0	0	-1	900
26734635	7889	885	0	-100	0	230	101300000	1000	0	0	-1	900
26747195	7888	880	0	-100	0	230	101300000	1000	0	0	-1	900
26759755	7881	875	0	-100	0	230	101300000	1000	0	0	-1	900
26772315	7896	872	0	-100	0	230	101300000	1000	0	0	-1	900
26784875	7858	872	0	-100	0	230	101300000	1000	0	0	-1	900
26797435	7865	877	0	-100	0	230	101300000	1000	0	0	-1	900
26809995	7884	875	0	-100	0	230	101300000	1000	0	0	-1	900
26822555	7873	858	0	-100	0	230	101300000	1000	0	0	-1	900
26835115	7868	868	0	-100	0	230	101300000	1000	0	0	-1	900
26847675	7889	875	0	-100	0	230	101300000	1000	0	0	-1	900
26860235	7892	870	0	-100	0	230	101300000	1000	0	0	-1	900
26872795	7882	871	0	-100	0	230	101300000	1000	0	0	-1	900
26885355	7875	873	0	-100	0	230	101300000	1000	0	0	-1	900
26897915	7884	875	0	-100	0	230	101300000	1000	0	0	-1	900
26910475	7868	870	0	-100	0	230	101300000	1000	0	0	-1	900
26923035	7889	874	0	-100	0	230	101300000	1000	0	0	-1	900
26935595	7867	878	0	-100	0	230	101300000	1000	0	0	-1	900
26948155	7904	868	0	-100	0	230	101300000	1000	0	0	-1	900
26960715	7883	867	0	-100	0	230	101300000	1000	0	0	-1	900
26973275	7886	874	0	-100	0	230	101300000	1000	0	0	-1	900
26985835	7882	875	0	-100	0	230	101300000	1000	0	0	-1	900
26998395	7882	876	0	-100	0	230	101300000	1000	0	0	-1	900
27010955	7882	873	0	-100	0	230	101300000	1000	0	0	-1	900
27023515	7884	873	0	-100	0	230	101300000	1000	0	0	-1	900
27036075	7899	869	0	-100	0	230	101300000	1000	0	0	-1	900
27048635	7870	876	0	-100	0	230	101300000	1000	0	0	-1	900
