timestamp	voltage	current	windSpeed	pitchAngle	rpm	temperature	ambientPressure	humidity	accelerationX	accelerationY	accelerationZ	currentSink
7039070	501	2	0	-100	0	230	101300000	1000	0	0	-1	0
7046523	504	0	0	-100	0	230	101300000	1000	0	0	-1	0
7059083	504	0	0	-100	0	230	101300000	1000	0	0	-1	0
7071643	506	0	0	-100	0	230	101300000	1000	0	0	-1	0
7084203	509	0	0	-100	0	230	101300000	1000	0	0	-1	0
7096763	506	0	0	-100	0	230	101300000	1000	0	0	-1	0
7109323	504	0	0	-100	0	230	101300000	1000	0	0	-1	0
7121883	501	0	0	-100	0	230	101300000	1000	0	0	-1	0
7134443	499	2	0	-100	0	230	101300000	1000	0	0	-1	0
7147004	504	0	0	-100	0	230	101300000	1000	0	0	-1	0
7159563	499	0	0	-100	0	230	101300000	1000	0	0	-1	0
7172123	506	0	0	-100	0	230	101300000	1000	0	0	-1	0
7184683	508	0	0	-100	0	230	101300000	1000	0	0	-1	0
7197243	506	0	0	-100	0	230	101300000	1000	0	0	-1	0
7209803	506	0	0	-100	0	230	101300000	1000	0	0	-1	0
7222363	509	0	0	-100	0	230	101300000	1000	0	0	-1	0
7234923	506	0	0	-100	0	230	101300000	1000	0	0	-1	0
7247483	508	0	0	-100	0	230	101300000	1000	0	0	-1	0
7260043	506	0	0	-100	0	230	101300000	1000	0	0	-1	0
7272603	504	0	0	-100	0	230	101300000	1000	0	0	-1	0
7285163	503	0	0	-100	0	230	101300000	1000	0	0	-1	0
7297723	501	0	0	-100	0	230	101300000	1000	0	0	-1	0
7310283	506	0	0	-100	0	230	101300000	1000	0	0	-1	0
7322843	506	0	0	-100	0	230	101300000	1000	0	0	-1	0
7335403	501	0	0	-100	0	230	101300000	1000	0	0	-1	0
7347963	501	0	0	-100	0	230	101300000	1000	0	0	-1	0
7703675	504	4	0	-100	0	230	101300000	1000	0	0	-1	0
7716235	497	2	0	-100	0	230	101300000	1000	0	0	-1	0
7728795	499	0	0	-100	0	230	101300000	1000	0	0	-1	0
7741355	504	0	0	-100	0	230	101300000	1000	0	0	-1	0
7753915	506	0	0	-100	0	230	101300000	1000	0	0	-1	0
7766475	506	0	0	-100	0	230	101300000	1000	0	0	-1	0
7779035	499	0	0	-100	0	230	101300000	1000	0	0	-1	0
7791595	502	3	0	-100	0	230	101300000	1000	0	0	-1	0
7804155	496	2	0	-100	0	230	101300000	1000	0	0	-1	0
7816715	499	0	0	-100	0	230	101300000	1000	0	0	-1	0
7829275	504	0	0	-100	0	230	101300000	1000	0	0	-1	0
7841835	509	0	0	-100	0	230	101300000	1000	0	0	-1	0
7854395	501	0	0	-100	0	230	101300000	1000	0	0	-1	0
7866955	501	0	0	-100	0	230	101300000	1000	0	0	-1	0
7879515	499	3	0	-100	0	230	101300000	1000	0	0	-1	0
7892075	499	3	0	-100	0	230	101300000	1000	0	0	-1	0
7904635	504	3	0	-100	0	230	101300000	1000	0	0	-1	0
7917195	499	0	0	-100	0	230	101300000	1000	0	0	-1	0
7929755	501	0	0	-100	0	230	101300000	1000	0	0	-1	0
7942315	501	0	0	-100	0	230	101300000	1000	0	0	-1	0
7954875	501	0	0	-100	0	230	101300000	1000	0	0	-1	0
7967435	501	0	0	-100	0	230	101300000	1000	0	0	-1	0
7979995	499	0	0	-100	0	230	101300000	1000	0	0	-1	0
7992555	501	0	0	-100	0	230	101300000	1000	0	0	-1	0
8005115	506	0	0	-100	0	230	101300000	1000	0	0	-1	0
8017675	506	0	0	-100	0	230	101300000	1000	0	0	-1	0
8030235	508	0	0	-100	0	230	101300000	1000	0	0	-1	0
8042795	506	0	0	-100	0	230	101300000	1000	0	0	-1	0
8055355	506	0	0	-100	0	230	101300000	1000	0	0	-1	0
8067915	509	0	0	-100	0	230	101300000	1000	0	0	-1	0
8080475	504	0	0	-100	0	230	101300000	1000	0	0	-1	0
8093035	506	0	0	-100	0	230	101300000	1000	0	0	-1	0
8105595	509	0	0	-100	0	230	101300000	1000	0	0	-1	0
8118155	499	0	0	-100	0	230	101300000	1000	0	0	-1	0
8130715	501	0	0	-100	0	230	101300000	1000	0	0	-1	0
8143275	499	0	0	-100	0	230	101300000	1000	0	0	-1	0
8155835	497	0	0	-100	0	230	101300000	1000	0	0	-1	0
8168395	499	0	0	-100	0	230	101300000	1000	0	0	-1	0
8180955	499	1	0	-100	0	230	101300000	1000	0	0	-1	0
8193515	499	1	0	-100	0	230	101300000	1000	0	0	-1	0
8206075	497	1	0	-100	0	230	101300000	1000	0	0	-1	0
8218635	499	0	0	-100	0	230	101300000	1000	0	0	-1	0
8231195	508	0	0	-100	0	230	101300000	1000	0	0	-1	0
8243755	506	0	0	-100	0	230	101300000	1000	0	0	-1	0
8256315	499	0	0	-100	0	230	101300000	1000	0	0	-1	0
8268875	504	3	0	-100	0	230	101300000	1000	0	0	-1	0
8281435	499	3	0	-100	0	230	101300000	1000	0	0	-1	0
8293995	501	0	0	-100	0	230	101300000	1000	0	0	-1	0
8306555	504	0	0	-100	0	230	101300000	1000	0	0	-1	0
8319115	497	0	0	-100	0	230	101300000	1000	0	0	-1	0
8331675	501	0	0	-100	0	230	101300000	1000	0	0	-1	0
8344235	499	0	0	-100	0	230	101300000	1000	0	0	-1	0
8356795	499	0	0	-100	0	230	101300000	1000	0	0	-1	0
8369355	504	3	0	-100	0	230	101300000	1000	0	0	-1	0
8381915	499	1	0	-100	0	230	101300000	1000	0	0	-1	0
8394475	497	0	0	-100	0	230	101300000	1000	0	0	-1	0
8407035	501	0	0	-100	0	230	101300000	1000	0	0	-1	0
8419595	499	0	0	-100	0	230	101300000	1000	0	0	-1	0
8432155	496	2	0	-100	0	230	101300000	1000	0	0	-1	0
8444715	501	2	0	-100	0	230	101300000	1000	0	0	-1	0
8457275	496	0	0	-100	0	230	101300000	1000	0	0	-1	0
8469835	506	0	0	-100	0	230	101300000	1000	0	0	-1	0
8482395	506	0	0	-100	0	230	101300000	1000	0	0	-1	0
8494955	499	0	0	-100	0	230	101300000	1000	0	0	-1	0
8507515	502	1	0	-100	0	230	101300000	1000	0	0	-1	0
8520075	499	0	0	-100	0	230	101300000	1000	0	0	-1	0
8532635	501	0	0	-100	0	230	101300000	1000	0	0	-1	0
8545195	509	0	0	-100	0	230	101300000	1000	0	0	-1	0
8557755	504	0	0	-100	0	230	101300000	1000	0	0	-1	0
8570315	499	0	0	-100	0	230	101300000	1000	0	0	-1	0
8582875	499	1	0	-100	0	230	101300000	1000	0	0	-1	0
8595435	504	2	0	-100	0	230	101300000	1000	0	0	-1	0
8607995	501	0	0	-100	0	230	101300000	1000	0	0	-1	0
8620555	504	0	0	-100	0	230	101300000	1000	0	0	-1	0
8633115	506	0	0	-100	0	230	101300000	1000	0	0	-1	0
8645675	504	0	0	-100	0	230	101300000	1000	0	0	-1	0
8658235	497	2	0	-100	0	230	101300000	1000	0	0	-1	0
8670795	502	0	0	-100	0	230	101300000	1000	0	0	-1	0
8683355	501	0	0	-100	0	230	101300000	1000	0	0	-1	0
8695915	504	0	0	-100	0	230	101300000	1000	0	0	-1	0
8708475	506	0	0	-100	0	230	101300000	1000	0	0	-1	0
8721035	502	0	0	-100	0	230	101300000	1000	0	0	-1	0
8733595	501	0	0	-100	0	230	101300000	1000	0	0	-1	0
8746155	501	1	0	-100	0	230	101300000	1000	0	0	-1	0
8758715	499	0	0	-100	0	230	101300000	1000	0	0	-1	0
8771275	497	1	0	-100	0	230	101300000	1000	0	0	-1	0
8783835	504	4	0	-100	0	230	101300000	1000	0	0	-1	0
8796395	499	0	0	-100	0	230	101300000	1000	0	0	-1	0
8808955	501	0	0	-100	0	230	101300000	1000	0	0	-1	0
8821515	506	0	0	-100	0	230	101300000	1000	0	0	-1	0
8834075	506	0	0	-100	0	230	101300000	1000	0	0	-1	0
8846635	504	0	0	-100	0	230	101300000	1000	0	0	-1	0
8859195	497	1	0	-100	0	230	101300000	1000	0	0	-1	0
8871755	504	2	0	-100	0	230	101300000	1000	0	0	-1	0
8884315	502	0	0	-100	0	230	101300000	1000	0	0	-1	0
8896875	504	0	0	-100	0	230	101300000	1000	0	0	-1	0
8909435	506	0	0	-100	0	230	101300000	1000	0	0	-1	0
8921995	511	2	0	-100	0	230	101300000	1000	0	0	-1	0
8934555	499	0	0	-100	0	230	101300000	1000	0	0	-1	0
8947115	504	4	0	-100	0	230	101300000	1000	0	0	-1	0
8959675	497	0	0	-100	0	230	101300000	1000	0	0	-1	0
8972235	506	0	0	-100	0	230	101300000	1000	0	0	-1	0
8984795	504	0	0	-100	0	230	101300000	1000	0	0	-1	0
8997355	501	4	0	-100	0	230	101300000	1000	0	0	-1	0
9009915	504	0	0	-100	0	230	101300000	1000	0	0	-1	0
9022475	504	0	0	-100	0	230	101300000	1000	0	0	-1	0
9035035	499	2	0	-100	0	230	101300000	1000	0	0	-1	0
9047595	504	0	0	-100	0	230	101300000	1000	0	0	-1	0
9060155	503	0	0	-100	0	230	101300000	1000	0	0	-1	0
9072715	499	1	0	-100	0	230	101300000	1000	0	0	-1	0
9085275	499	0	0	-100	0	230	101300000	1000	0	0	-1	0
9097835	504	0	0	-100	0	230	101300000	1000	0	0	-1	0
9110395	497	0	0	-100	0	230	101300000	1000	0	0	-1	0
9122955	501	0	0	-100	0	230	101300000	1000	0	0	-1	0
9135515	504	0	0	-100	0	230	101300000	1000	0	0	-1	0
9148075	509	0	0	-100	0	230	101300000	1000	0	0	-1	0
9160635	499	0	0	-100	0	230	101300000	1000	0	0	-1	0
9173195	499	2	0	-100	0	230	101300000	1000	0	0	-1	0
9185755	501	0	0	-100	0	230	101300000	1000	0	0	-1	0
9198315	506	0	0	-100	0	230	101300000	1000	0	0	-1	0
9210875	504	0	0	-100	0	230	101300000	1000	0	0	-1	0
9223435	499	1	0	-100	0	230	101300000	1000	0	0	-1	0
9235995	501	0	0	-100	0	230	101300000	1000	0	0	-1	0
9248555	504	0	0	-100	0	230	101300000	1000	0	0	-1	0
9261115	506	0	0	-100	0	230	101300000	1000	0	0	-1	0
9273675	509	0	0	-100	0	230	101300000	1000	0	0	-1	0
9286235	504	0	0	-100	0	230	101300000	1000	0	0	-1	0
9298795	499	0	0	-100	0	230	101300000	1000	0	0	-1	0
9311355	502	0	0	-100	0	230	101300000	1000	0	0	-1	0
9323915	499	0	0	-100	0	230	101300000	1000	0	0	-1	0
9336475	497	0	0	-100	0	230	101300000	1000	0	0	-1	0
9349035	499	2	0	-100	0	230	101300000	1000	0	0	-1	0
9361595	499	4	0	-100	0	230	101300000	1000	0	0	-1	0
9374155	494	0	0	-100	0	230	101300000	1000	0	0	-1	0
9386715	501	0	0	-100	0	230	101300000	1000	0	0	-1	0
9399275	499	0	0	-100	0	230	101300000	1000	0	0	-1	0
9411835	499	0	0	-100	0	230	101300000	1000	0	0	-1	0
9424395	499	0	0	-100	0	230	101300000	1000	0	0	-1	0
9436955	499	0	0	-100	0	230	101300000	1000	0	0	-1	0
9449515	501	0	0	-100	0	230	101300000	1000	0	0	-1	0
9462075	504	0	0	-100	0	230	101300000	1000	0	0	-1	0
9474635	504	0	0	-100	0	230	101300000	1000	0	0	-1	0
9487195	509	0	0	-100	0	230	101300000	1000	0	0	-1	0
9499755	506	0	0	-100	0	230	101300000	1000	0	0	-1	0
9512315	504	0	0	-100	0	230	101300000	1000	0	0	-1	0
9524875	499	0	0	-100	0	230	101300000	1000	0	0	-1	0
9537435	497	3	0	-100	0	230	101300000	1000	0	0	-1	0
9549995	499	0	0	-100	0	230	101300000	1000	0	0	-1	0
9562555	501	2	0	-100	0	230	101300000	1000	0	0	-1	0
9575115	499	3	0	-100	0	230	101300000	1000	0	0	-1	0
9587675	499	2	0	-100	0	230	101300000	1000	0	0	-1	0
9600235	499	0	0	-100	0	230	101300000	1000	0	0	-1	0
9612795	502	0	0	-100	0	230	101300000	1000	0	0	-1	0
9625355	501	1	0	-100	0	230	101300000	1000	0	0	-1	0
9637915	499	1	0	-100	0	230	101300000	1000	0	0	-1	0
9650475	501	3	0	-100	0	230	101300000	1000	0	0	-1	0
9663035	497	2	0	-100	0	230	101300000	1000	0	0	-1	0
9675595	499	0	0	-100	0	230	101300000	1000	0	0	-1	0
9688155	498	0	0	-100	0	230	101300000	1000	0	0	-1	0
9700715	501	0	0	-100	0	230	101300000	1000	0	0	-1	0
9713275	499	0	0	-100	0	230	101300000	1000	0	0	-1	0
9725835	499	0	0	-100	0	230	101300000	1000	0	0	-1	0
9738395	504	0	0	-100	0	230	101300000	1000	0	0	-1	0
9750955	506	0	0	-100	0	230	101300000	1000	0	0	-1	0
9763515	506	0	0	-100	0	230	101300000	1000	0	0	-1	0
9776075	506	0	0	-100	0	230	101300000	1000	0	0	-1	0
9788635	506	0	0	-100	0	230	101300000	1000	0	0	-1	0
9801195	499	3	0	-100	0	230	101300000	1000	0	0	-1	0
9813755	501	0	0	-100	0	230	101300000	1000	0	0	-1	0
9826315	501	0	0	-100	0	230	101300000	1000	0	0	-1	0
9838875	504	0	0	-100	0	230	101300000	1000	0	0	-1	0
9851435	506	0	0	-100	0	230	101300000	1000	0	0	-1	0
9863995	506	2	0	-100	0	230	101300000	1000	0	0	-1	0
9876555	496	2	0	-100	0	230	101300000	1000	0	0	-1	0
9889115	504	4	0	-100	0	230	101300000	1000	0	0	-1	0
9901675	499	0	0	-100	0	230	101300000	1000	0	0	-1	0
9926795	509	0	0	-100	0	230	101300000	1000	0	0	-1	0
9939355	502	0	0	-100	0	230	101300000	1000	0	0	-1	0
9951915	501	3	0	-100	0	230	101300000	1000	0	0	-1	0
9964475	499	0	0	-100	0	230	101300000	1000	0	0	-1	0
9977035	499	0	0	-100	0	230	101300000	1000	0	0	-1	0
9989595	509	0	0	-100	0	230	101300000	1000	0	0	-1	0
10002155	503	0	0	-100	0	230	101300000	1000	0	0	-1	0
10014715	499	0	0	-100	0	230	101300000	1000	0	0	-1	0
10027275	501	2	0	-100	0	230	101300000	1000	0	0	-1	0
10039835	499	4	0	-100	0	230	101300000	1000	0	0	-1	0
10052395	499	0	0	-100	0	230	101300000	1000	0	0	-1	0
10064955	504	0	0	-100	0	230	101300000	1000	0	0	-1	0
10077515	504	0	0	-100	0	230	101300000	1000	0	0	-1	0
10090075	509	0	0	-100	0	230	101300000	1000	0	0	-1	0
10102635	501	0	0	-100	0	230	101300000	1000	0	0	-1	0
10115195	499	0	0	-100	0	230	101300000	1000	0	0	-1	0
10127755	501	2	0	-100	0	230	101300000	1000	0	0	-1	0
10140315	499	0	0	-100	0	230	101300000	1000	0	0	-1	0
10152875	506	0	0	-100	0	230	101300000	1000	0	0	-1	0
10165435	506	0	0	-100	0	230	101300000	1000	0	0	-1	0
10177995	499	0	0	-100	0	230	101300000	1000	0	0	-1	0
10190555	502	2	0	-100	0	230	101300000	1000	0	0	-1	0
10203115	501	0	0	-100	0	230	101300000	1000	0	0	-1	0
10215675	506	0	0	-100	0	230	101300000	1000	0	0	-1	0
10228235	508	0	0	-100	0	230	101300000	1000	0	0	-1	0
10240795	499	0	0	-100	0	230	101300000	1000	0	0	-1	0
10253355	499	2	0	-100	0	230	101300000	1000	0	0	-1	0
10265915	499	0	0	-100	0	230	101300000	1000	0	0	-1	0
10278475	504	0	0	-100	0	230	101300000	1000	0	0	-1	0
10291035	506	0	0	-100	0	230	101300000	1000	0	0	-1	0
10303595	499	1	0	-100	0	230	101300000	1000	0	0	-1	0
10316155	496	1	0	-100	0	230	101300000	1000	0	0	-1	0
10328715	506	0	0	-100	0	230	101300000	1000	0	0	-1	0
10341275	509	0	0	-100	0	230	101300000	1000	0	0	-1	0
10353835	499	2	0	-100	0	230	101300000	1000	0	0	-1	0
10366395	501	0	0	-100	0	230	101300000	1000	0	0	-1	0
10378955	506	0	0	-100	0	230	101300000	1000	0	0	-1	0
10391515	499	0	0	-100	0	230	101300000	1000	0	0	-1	0
10404075	501	4	0	-100	0	230	101300000	1000	0	0	-1	0
10416635	499	0	0	-100	0	230	101300000	1000	0	0	-1	0
10429195	506	0	0	-100	0	230	101300000	1000	0	0	-1	0
10441755	504	0	0	-100	0	230	101300000	1000	0	0	-1	0
10454315	501	0	0	-100	0	230	101300000	1000	0	0	-1	0
10466875	499	1	0	-100	0	230	101300000	1000	0	0	-1	0
10479435	501	0	0	-100	0	230	101300000	1000	0	0	-1	0
10491995	499	0	0	-100	0	230	101300000	1000	0	0	-1	0
10504555	499	0	0	-100	0	230	101300000	1000	0	0	-1	0
10517115	499	0	0	-100	0	230	101300000	1000	0	0	-1	0
10529675	501	0	0	-100	0	230	101300000	1000	0	0	-1	0
10542235	501	0	0	-100	0	230	101300000	1000	0	0	-1	0
10554795	504	0	0	-100	0	230	101300000	1000	0	0	-1	0
10567355	509	0	0	-100	0	230	101300000	1000	0	0	-1	0
10579915	504	0	0	-100	0	230	101300000	1000	0	0	-1	0
10592475	509	0	0	-100	0	230	101300000	1000	0	0	-1	0
10605035	506	0	0	-100	0	230	101300000	1000	0	0	-1	0
10617595	504	0	0	-100	0	230	101300000	1000	0	0	-1	0
10630155	499	0	0	-100	0	230	101300000	1000	0	0	-1	0
10642715	501	0	0	-100	0	230	101300000	1000	0	0	-1	0
10655275	497	1	0	-100	0	230	101300000	1000	0	0	-1	0
10667835	499	2	0	-100	0	230	101300000	1000	0	0	-1	0
10680395	499	4	0	-100	0	230	101300000	1000	0	0	-1	0
10692955	499	3	0	-100	0	230	101300000	1000	0	0	-1	0
10705515	501	0	0	-100	0	230	101300000	1000	0	0	-1	0
10718075	501	0	0	-100	0	230	101300000	1000	0	0	-1	0
10730635	504	2	0	-100	0	230	101300000	1000	0	0	-1	0
10743195	501	0	0	-100	0	230	101300000	1000	0	0	-1	0
10755755	504	4	0	-100	0	230	101300000	1000	0	0	-1	0
10768315	499	0	0	-100	0	230	101300000	1000	0	0	-1	0
10780875	499	0	0	-100	0	230	101300000	1000	0	0	-1	0
10793435	499	0	0	-100	0	230	101300000	1000	0	0	-1	0
10805995	504	0	0	-100	0	230	101300000	1000	0	0	-1	0
10818555	504	0	0	-100	0	230	101300000	1000	0	0	-1	0
10831115	506	0	0	-100	0	230	101300000	1000	0	0	-1	0
10843675	509	0	0	-100	0	230	101300000	1000	0	0	-1	0
10856235	502	0	0	-100	0	230	101300000	1000	0	0	-1	0
10868795	506	0	0	-100	0	230	101300000	1000	0	0	-1	0
10881355	499	0	0	-100	0	230	101300000	1000	0	0	-1	0
10893915	501	0	0	-100	0	230	101300000	1000	0	0	-1	0
10906475	504	0	0	-100	0	230	101300000	1000	0	0	-1	0
10919035	497	0	0	-100	0	230	101300000	1000	0	0	-1	0
10931595	499	2	0	-100	0	230	101300000	1000	0	0	-1	0
10944155	496	4	0	-100	0	230	101300000	1000	0	0	-1	0
10956715	499	0	0	-100	0	230	101300000	1000	0	0	-1	0
10969275	504	0	0	-100	0	230	101300000	1000	0	0	-1	0
10981835	502	0	0	-100	0	230	101300000	1000	0	0	-1	0
10994395	499	2	0	-100	0	230	101300000	1000	0	0	-1	0
11006955	502	4	0	-100	0	230	101300000	1000	0	0	-1	0
11019515	497	2	0	-100	0	230	101300000	1000	0	0	-1	0
11032075	499	2	0	-100	0	230	101300000	1000	0	0	-1	0
11044635	497	0	0	-100	0	230	101300000	1000	0	0	-1	0
11057195	499	0	0	-100	0	230	101300000	1000	0	0	-1	0
11069755	508	0	0	-100	0	230	101300000	1000	0	0	-1	0
11082315	506	0	0	-100	0	230	101300000	1000	0	0	-1	0
11094875	504	0	0	-100	0	230	101300000	1000	0	0	-1	0
11107435	506	0	0	-100	0	230	101300000	1000	0	0	-1	0
11119995	506	0	0	-100	0	230	101300000	1000	0	0	-1	0
11132555	506	0	0	-100	0	230	101300000	1000	0	0	-1	0
11145115	506	0	0	-100	0	230	101300000	1000	0	0	-1	0
11157675	504	0	0	-100	0	230	101300000	1000	0	0	-1	0
11170235	509	0	0	-100	0	230	101300000	1000	0	0	-1	0
11182795	506	0	0	-100	0	230	101300000	1000	0	0	-1	0
11195355	504	0	0	-100	0	230	101300000	1000	0	0	-1	0
11207915	506	0	0	-100	0	230	101300000	1000	0	0	-1	0
11220475	506	0	0	-100	0	230	101300000	1000	0	0	-1	0
11233035	504	0	0	-100	0	230	101300000	1000	0	0	-1	0
11245595	506	0	0	-100	0	230	101300000	1000	0	0	-1	0
11258155	501	0	0	-100	0	230	101300000	1000	0	0	-1	0
11270715	506	0	0	-100	0	230	101300000	1000	0	0	-1	0
11283275	506	0	0	-100	0	230	101300000	1000	0	0	-1	0
11295835	506	0	0	-100	0	230	101300000	1000	0	0	-1	0
11308395	508	0	0	-100	0	230	101300000	1000	0	0	-1	0
11320955	506	0	0	-100	0	230	101300000	1000	0	0	-1	0
11333515	506	0	0	-100	0	230	101300000	1000	0	0	-1	0
11346075	506	0	0	-100	0	230	101300000	1000	0	0	-1	0
11358635	501	0	0	-100	0	230	101300000	1000	0	0	-1	0
11371195	504	5	0	-100	0	230	101300000	1000	0	0	-1	0
11383755	499	2	0	-100	0	230	101300000	1000	0	0	-1	0
11396315	499	2	0	-100	0	230	101300000	1000	0	0	-1	0
11408875	502	1	0	-100	0	230	101300000	1000	0	0	-1	0
11421435	499	0	0	-100	0	230	101300000	1000	0	0	-1	0
11433995	502	4	0	-100	0	230	101300000	1000	0	0	-1	0
11446555	506	0	0	-100	0	230	101300000	1000	0	0	-1	0
11459115	504	0	0	-100	0	230	101300000	1000	0	0	-1	0
11471675	509	0	0	-100	0	230	101300000	1000	0	0	-1	0
11484235	506	0	0	-100	0	230	101300000	1000	0	0	-1	0
11496795	506	0	0	-100	0	230	101300000	1000	0	0	-1	0
11509355	506	0	0	-100	0	230	101300000	1000	0	0	-1	0
11521915	504	0	0	-100	0	230	101300000	1000	0	0	-1	0
11534475	501	0	0	-100	0	230	101300000	1000	0	0	-1	0
11547035	501	0	0	-100	0	230	101300000	1000	0	0	-1	0
11559595	499	0	0	-100	0	230	101300000	1000	0	0	-1	0
11572155	496	3	0	-100	0	230	101300000	1000	0	0	-1	0
11584715	501	0	0	-100	0	230	101300000	1000	0	0	-1	0
11597275	506	0	0	-100	0	230	101300000	1000	0	0	-1	0
11609835	508	0	0	-100	0	230	101300000	1000	0	0	-1	0
11622395	506	0	0	-100	0	230	101300000	1000	0	0	-1	0
11634955	501	0	0	-100	0	230	101300000	1000	0	0	-1	0
11647515	501	0	0	-100	0	230	101300000	1000	0	0	-1	0
11660075	504	0	0	-100	0	230	101300000	1000	0	0	-1	0
11672635	504	0	0	-100	0	230	101300000	1000	0	0	-1	0
11685195	506	0	0	-100	0	230	101300000	1000	0	0	-1	0
11697755	504	0	0	-100	0	230	101300000	1000	0	0	-1	0
11710315	509	0	0	-100	0	230	101300000	1000	0	0	-1	0
11722875	504	0	0	-100	0	230	101300000	1000	0	0	-1	0
11735435	499	0	0	-100	0	230	101300000	1000	0	0	-1	0
11747995	501	0	0	-100	0	230	101300000	1000	0	0	-1	0
11760555	499	0	0	-100	0	230	101300000	1000	0	0	-1	0
11773115	506	0	0	-100	0	230	101300000	1000	0	0	-1	0
11785675	501	0	0	-100	0	230	101300000	1000	0	0	-1	0
11798235	499	3	0	-100	0	230	101300000	1000	0	0	-1	0
11810795	504	0	0	-100	0	230	101300000	1000	0	0	-1	0
11823355	504	0	0	-100	0	230	101300000	1000	0	0	-1	0
11835915	502	0	0	-100	0	230	101300000	1000	0	0	-1	0
11848475	502	1	0	-100	0	230	101300000	1000	0	0	-1	0
11861035	499	0	0	-100	0	230	101300000	1000	0	0	-1	0
11873595	506	0	0	-100	0	230	101300000	1000	0	0	-1	0
11886155	501	0	0	-100	0	230	101300000	1000	0	0	-1	0
11898715	496	0	0	-100	0	230	101300000	1000	0	0	-1	0
11911275	501	2	0	-100	0	230	101300000	1000	0	0	-1	0
11923835	499	0	0	-100	0	230	101300000	1000	0	0	-1	0
11936395	501	0	0	-100	0	230	101300000	1000	0	0	-1	0
11948955	506	0	0	-100	0	230	101300000	1000	0	0	-1	0
11961515	506	0	0	-100	0	230	101300000	1000	0	0	-1	0
11974075	508	0	0	-100	0	230	101300000	1000	0	0	-1	0
11986635	504	0	0	-100	0	230	101300000	1000	0	0	-1	0
11999195	497	2	0	-100	0	230	101300000	1000	0	0	-1	0
12011755	509	0	0	-100	0	230	101300000	1000	0	0	-1	0
12024315	508	0	0	-100	0	230	101300000	1000	0	0	-1	0
12036875	506	0	0	-100	0	230	101300000	1000	0	0	-1	0
12049435	499	0	0	-100	0	230	101300000	1000	0	0	-1	0
12061995	499	0	0	-100	0	230	101300000	1000	0	0	-1	0
12074555	499	2	0	-100	0	230	101300000	1000	0	0	-1	0
12087115	501	0	0	-100	0	230	101300000	1000	0	0	-1	0
12099675	496	0	0	-100	0	230	101300000	1000	0	0	-1	0
12112235	499	0	0	-100	0	230	101300000	1000	0	0	-1	0
12124795	501	0	0	-100	0	230	101300000	1000	0	0	-1	0
12137355	501	0	0	-100	0	230	101300000	1000	0	0	-1	0
12149915	506	0	0	-100	0	230	101300000	1000	0	0	-1	0
12162475	506	0	0	-100	0	230	101300000	1000	0	0	-1	0
12175035	504	0	0	-100	0	230	101300000	1000	0	0	-1	0
12187595	504	0	0	-100	0	230	101300000	1000	0	0	-1	0
12200155	496	0	0	-100	0	230	101300000	1000	0	0	-1	0
12212715	501	0	0	-100	0	230	101300000	1000	0	0	-1	0
12225275	499	1	0	-100	0	230	101300000	1000	0	0	-1	0
12237835	499	4	0	-100	0	230	101300000	1000	0	0	-1	0
12250395	501	2	0	-100	0	230	101300000	1000	0	0	-1	0
12262955	499	2	0	-100	0	230	101300000	1000	0	0	-1	0
12275515	499	1	0	-100	0	230	101300000	1000	0	0	-1	0
12288075	504	3	0	-100	0	230	101300000	1000	0	0	-1	0
12300635	497	2	0	-100	0	230	101300000	1000	0	0	-1	0
12313195	499	2	0	-100	0	230	101300000	1000	0	0	-1	0
12325755	499	2	0	-100	0	230	101300000	1000	0	0	-1	0
12338315	496	2	0	-100	0	230	101300000	1000	0	0	-1	0
12350875	502	2	0	-100	0	230	101300000	1000	0	0	-1	0
12363435	499	3	0	-100	0	230	101300000	1000	0	0	-1	0
12375995	501	0	0	-100	0	230	101300000	1000	0	0	-1	0
12388555	502	4	0	-100	0	230	101300000	1000	0	0	-1	0
12401115	499	0	0	-100	0	230	101300000	1000	0	0	-1	0
12413675	499	3	0	-100	0	230	101300000	1000	0	0	-1	0
12426235	501	0	0	-100	0	230	101300000	1000	0	0	-1	0
12438795	499	0	0	-100	0	230	101300000	1000	0	0	-1	0
12451355	504	0	0	-100	0	230	101300000	1000	0	0	-1	0
12463915	504	0	0	-100	0	230	101300000	1000	0	0	-1	0
12476475	506	0	0	-100	0	230	101300000	1000	0	0	-1	0
12489035	506	0	0	-100	0	230	101300000	1000	0	0	-1	0
12501595	499	0	0	-100	0	230	101300000	1000	0	0	-1	0
12514155	494	3	0	-100	0	230	101300000	1000	0	0	-1	0
12526715	501	1	0	-100	0	230	101300000	1000	0	0	-1	0
12539275	497	1	0	-100	0	230	101300000	1000	0	0	-1	0
12551835	501	3	0	-100	0	230	101300000	1000	0	0	-1	0
12564395	499	1	0	-100	0	230	101300000	1000	0	0	-1	0
12576955	499	0	0	-100	0	230	101300000	1000	0	0	-1	0
12589515	502	0	0	-100	0	230	101300000	1000	0	0	-1	0
12602075	499	0	0	-100	0	230	101300000	1000	0	0	-1	0
12614635	502	0	0	-100	0	230	101300000	1000	0	0	-1	0
12627195	499	0	0	-100	0	230	101300000	1000	0	0	-1	0
12639755	497	0	0	-100	0	230	101300000	1000	0	0	-1	0
12652315	502	0	0	-100	0	230	101300000	1000	0	0	-1	0
12664875	499	0	0	-100	0	230	101300000	1000	0	0	-1	0
12677435	499	0	0	-100	0	230	101300000	1000	0	0	-1	0
12689995	507	0	0	-100	0	230	101300000	1000	0	0	-1	0
12702555	501	0	0	-100	0	230	101300000	1000	0	0	-1	0
12715115	501	0	0	-100	0	230	101300000	1000	0	0	-1	0
12727675	501	1	0	-100	0	230	101300000	1000	0	0	-1	0
12740235	497	1	0	-100	0	230	101300000	1000	0	0	-1	0
12752795	499	3	0	-100	0	230	101300000	1000	0	0	-1	0
12765355	501	3	0	-100	0	230	101300000	1000	0	0	-1	0
12777915	499	1	0	-100	0	230	101300000	1000	0	0	-1	0
12790475	502	2	0	-100	0	230	101300000	1000	0	0	-1	0
12803035	499	0	0	-100	0	230	101300000	1000	0	0	-1	0
12815595	501	0	0	-100	0	230	101300000	1000	0	0	-1	0
12828155	501	0	0	-100	0	230	101300000	1000	0	0	-1	0
12840715	504	0	0	-100	0	230	101300000	1000	0	0	-1	0
12853275	508	0	0	-100	0	230	101300000	1000	0	0	-1	0
12865835	509	0	0	-100	0	230	101300000	1000	0	0	-1	0
12878395	504	0	0	-100	0	230	101300000	1000	0	0	-1	0
12890955	509	0	0	-100	0	230	101300000	1000	0	0	-1	0
12903515	506	0	0	-100	0	230	101300000	1000	0	0	-1	0
12916075	506	0	0	-100	0	230	101300000	1000	0	0	-1	0
12928635	506	0	0	-100	0	230	101300000	1000	0	0	-1	0
12941195	506	0	0	-100	0	230	101300000	1000	0	0	-1	0
12953755	506	0	0	-100	0	230	101300000	1000	0	0	-1	0
12966315	506	0	0	-100	0	230	101300000	1000	0	0	-1	0
12978875	504	0	0	-100	0	230	101300000	1000	0	0	-1	0
12991435	506	0	0	-100	0	230	101300000	1000	0	0	-1	0
13003995	504	4	0	-100	0	230	101300000	1000	0	0	-1	0
13016555	502	0	0	-100	0	230	101300000	1000	0	0	-1	0
13029115	499	0	0	-100	0	230	101300000	1000	0	0	-1	0
13041675	497	0	0	-100	0	230	101300000	1000	0	0	-1	0
13054235	499	0	0	-100	0	230	101300000	1000	0	0	-1	0
13066795	501	0	0	-100	0	230	101300000	1000	0	0	-1	0
13079355	502	0	0	-100	0	230	101300000	1000	0	0	-1	0
13091915	506	0	0	-100	0	230	101300000	1000	0	0	-1	0
13104475	506	0	0	-100	0	230	101300000	1000	0	0	-1	0
13117035	504	0	0	-100	0	230	101300000	1000	0	0	-1	0
13129595	501	0	0	-100	0	230	101300000	1000	0	0	-1	0
13142155	496	0	0	-100	0	230	101300000	1000	0	0	-1	0
13154715	502	1	0	-100	0	230	101300000	1000	0	0	-1	0
13167275	501	1	0	-100	0	230	101300000	1000	0	0	-1	0
13179835	506	0	0	-100	0	230	101300000	1000	0	0	-1	0
13192395	506	0	0	-100	0	230	101300000	1000	0	0	-1	0
13204955	504	0	0	-100	0	230	101300000	1000	0	0	-1	0
13217515	499	0	0	-100	0	230	101300000	1000	0	0	-1	0
13230075	497	0	0	-100	0	230	101300000	1000	0	0	-1	0
13242635	499	3	0	-100	0	230	101300000	1000	0	0	-1	0
13255195	499	2	0	-100	0	230	101300000	1000	0	0	-1	0
13267755	502	2	0	-100	0	230	101300000	1000	0	0	-1	0
13280315	497	2	0	-100	0	230	101300000	1000	0	0	-1	0
13292875	497	0	0	-100	0	230	101300000	1000	0	0	-1	0
13305435	501	0	0	-100	0	230	101300000	1000	0	0	-1	0
13317995	509	2	0	-100	0	230	101300000	1000	0	0	-1	0
13330555	506	0	0	-100	0	230	101300000	1000	0	0	-1	0
13343115	504	0	0	-100	0	230	101300000	1000	0	0	-1	0
13355675	504	0	0	-100	0	230	101300000	1000	0	0	-1	0
13368235	501	0	0	-100	0	230	101300000	1000	0	0	-1	0
13380795	496	0	0	-100	0	230	101300000	1000	0	0	-1	0
13393355	499	2	0	-100	0	230	101300000	1000	0	0	-1	0
13405915	501	2	0	-100	0	230	101300000	1000	0	0	-1	0
13418475	494	1	0	-100	0	230	101300000	1000	0	0	-1	0
13431035	499	2	0	-100	0	230	101300000	1000	0	0	-1	0
13443595	499	2	0	-100	0	230	101300000	1000	0	0	-1	0
13456155	496	4	0	-100	0	230	101300000	1000	0	0	-1	0
13468715	499	0	0	-100	0	230	101300000	1000	0	0	-1	0
13481275	497	0	0	-100	0	230	101300000	1000	0	0	-1	0
13493835	509	0	0	-100	0	230	101300000	1000	0	0	-1	0
13506395	509	0	0	-100	0	230	101300000	1000	0	0	-1	0
13518955	501	0	0	-100	0	230	101300000	1000	0	0	-1	0
13531515	506	0	0	-100	0	230	101300000	1000	0	0	-1	0
13544075	506	0	0	-100	0	230	101300000	1000	0	0	-1	0
13556635	504	0	0	-100	0	230	101300000	1000	0	0	-1	0
13569195	509	0	0	-100	0	230	101300000	1000	0	0	-1	0
13581755	504	0	0	-100	0	230	101300000	1000	0	0	-1	0
13594315	504	0	0	-100	0	230	101300000	1000	0	0	-1	0
13606875	504	0	0	-100	0	230	101300000	1000	0	0	-1	0
13619435	501	0	0	-100	0	230	101300000	1000	0	0	-1	0
13631995	501	0	0	-100	0	230	101300000	1000	0	0	-1	0
13644555	499	1	0	-100	0	230	101300000	1000	0	0	-1	0
13657115	501	3	0	-100	0	230	101300000	1000	0	0	-1	0
13669675	504	0	0	-100	0	230	101300000	1000	0	0	-1	0
13682235	504	0	0	-100	0	230	101300000	1000	0	0	-1	0
13694795	509	0	0	-100	0	230	101300000	1000	0	0	-1	0
13707355	508	0	0	-100	0	230	101300000	1000	0	0	-1	0
13719915	504	0	0	-100	0	230	101300000	1000	0	0	-1	0
13732475	506	0	0	-100	0	230	101300000	1000	0	0	-1	0
13745035	506	0	0	-100	0	230	101300000	1000	0	0	-1	0
13757595	504	0	0	-100	0	230	101300000	1000	0	0	-1	0
13770155	503	0	0	-100	0	230	101300000	1000	0	0	-1	0
13782715	504	0	0	-100	0	230	101300000	1000	0	0	-1	0
13795275	499	0	0	-100	0	230	101300000	1000	0	0	-1	0
13807835	501	0	0	-100	0	230	101300000	1000	0	0	-1	0
13820395	501	2	0	-100	0	230	101300000	1000	0	0	-1	0
13832955	502	0	0	-100	0	230	101300000	1000	0	0	-1	0
13845515	509	0	0	-100	0	230	101300000	1000	0	0	-1	0
13858075	506	0	0	-100	0	230	101300000	1000	0	0	-1	0
13870635	508	0	0	-100	0	230	101300000	1000	0	0	-1	0
13883195	501	0	0	-100	0	230	101300000	1000	0	0	-1	0
13895755	501	0	0	-100	0	230	101300000	1000	0	0	-1	0
13908315	501	0	0	-100	0	230	101300000	1000	0	0	-1	0
13920875	497	3	0	-100	0	230	101300000	1000	0	0	-1	0
13933435	499	0	0	-100	0	230	101300000	1000	0	0	-1	0
13945995	502	0	0	-100	0	230	101300000	1000	0	0	-1	0
13958555	504	0	0	-100	0	230	101300000	1000	0	0	-1	0
13971115	509	0	0	-100	0	230	101300000	1000	0	0	-1	0
13983675	499	0	0	-100	0	230	101300000	1000	0	0	-1	0
13996235	499	4	0	-100	0	230	101300000	1000	0	0	-1	0
14008795	499	0	0	-100	0	230	101300000	1000	0	0	-1	0
14021355	506	0	0	-100	0	230	101300000	1000	0	0	-1	0
14033915	506	0	0	-100	0	230	101300000	1000	0	0	-1	0
14046475	499	0	0	-100	0	230	101300000	1000	0	0	-1	0
14059035	499	1	0	-100	0	230	101300000	1000	0	0	-1	0
14071595	504	0	0	-100	0	230	101300000	1000	0	0	-1	0
14084155	501	0	0	-100	0	230	101300000	1000	0	0	-1	0
14096715	504	0	0	-100	0	230	101300000	1000	0	0	-1	0
14109275	499	0	0	-100	0	230	101300000	1000	0	0	-1	0
14121835	499	2	0	-100	0	230	101300000	1000	0	0	-1	0
14134395	499	0	0	-100	0	230	101300000	1000	0	0	-1	0
14146955	509	0	0	-100	0	230	101300000	1000	0	0	-1	0
14159515	506	0	0	-100	0	230	101300000	1000	0	0	-1	0
14172075	501	0	0	-100	0	230	101300000	1000	0	0	-1	0
14184635	499	3	0	-100	0	230	101300000	1000	0	0	-1	0
14197195	501	0	0	-100	0	230	101300000	1000	0	0	-1	0
14209755	506	0	0	-100	0	230	101300000	1000	0	0	-1	0
14222315	496	0	0	-100	0	230	101300000	1000	0	0	-1	0
14234875	499	0	0	-100	0	230	101300000	1000	0	0	-1	0
14247435	506	0	0	-100	0	230	101300000	1000	0	0	-1	0
14259995	499	0	0	-100	0	230	101300000	1000	0	0	-1	0
14272555	501	4	0	-100	0	230	101300000	1000	0	0	-1	0
14285115	499	2	0	-100	0	230	101300000	1000	0	0	-1	0
14297675	499	0	0	-100	0	230	101300000	1000	0	0	-1	0
14310235	509	0	0	-100	0	230	101300000	1000	0	0	-1	0
14322795	504	0	0	-100	0	230	101300000	1000	0	0	-1	0
14335355	499	0	0	-100	0	230	101300000	1000	0	0	-1	0
14347915	499	2	0	-100	0	230	101300000	1000	0	0	-1	0
14360475	499	1	0	-100	0	230	101300000	1000	0	0	-1	0
14373035	502	0	0	-100	0	230	101300000	1000	0	0	-1	0
14385595	504	0	0	-100	0	230	101300000	1000	0	0	-1	0
14398155	501	0	0	-100	0	230	101300000	1000	0	0	-1	0
14410715	506	0	0	-100	0	230	101300000	1000	0	0	-1	0
14423275	499	0	0	-100	0	230	101300000	1000	0	0	-1	0
14435835	499	3	0	-100	0	230	101300000	1000	0	0	-1	0
14448395	504	0	0	-100	0	230	101300000	1000	0	0	-1	0
14460955	506	0	0	-100	0	230	101300000	1000	0	0	-1	0
14473515	504	0	0	-100	0	230	101300000	1000	0	0	-1	0
14486075	501	0	0	-100	0	230	101300000	1000	0	0	-1	0
14498635	499	4	0	-100	0	230	101300000	1000	0	0	-1	0
14511195	501	0	0	-100	0	230	101300000	1000	0	0	-1	0
14523755	504	0	0	-100	0	230	101300000	1000	0	0	-1	0
14536315	506	0	0	-100	0	230	101300000	1000	0	0	-1	0
14548875	508	0	0	-100	0	230	101300000	1000	0	0	-1	0
14561435	506	0	0	-100	0	230	101300000	1000	0	0	-1	0
14573995	506	0	0	-100	0	230	101300000	1000	0	0	-1	0
14586555	501	0	0	-100	0	230	101300000	1000	0	0	-1	0
14599115	501	0	0	-100	0	230	101300000	1000	0	0	-1	0
14611675	501	0	0	-100	0	230	101300000	1000	0	0	-1	0
14624235	509	0	0	-100	0	230	101300000	1000	0	0	-1	0
14636795	506	0	0	-100	0	230	101300000	1000	0	0	-1	0
14649355	504	0	0	-100	0	230	101300000	1000	0	0	-1	0
14661915	496	0	0	-100	0	230	101300000	1000	0	0	-1	0
14674475	499	1	0	-100	0	230	101300000	1000	0	0	-1	0
14687035	504	0	0	-100	0	230	101300000	1000	0	0	-1	0
14699595	506	0	0	-100	0	230	101300000	1000	0	0	-1	0
14712155	501	0	0	-100	0	230	101300000	1000	0	0	-1	0
14724715	501	0	0	-100	0	230	101300000	1000	0	0	-1	0
14737275	499	4	0	-100	0	230	101300000	1000	0	0	-1	0
14749835	499	1	0	-100	0	230	101300000	1000	0	0	-1	0
14762395	504	0	0	-100	0	230	101300000	1000	0	0	-1	0
14774955	504	0	0	-100	0	230	101300000	1000	0	0	-1	0
14787515	501	0	0	-100	0	230	101300000	1000	0	0	-1	0
14800075	497	2	0	-100	0	230	101300000	1000	0	0	-1	0
14812635	509	0	0	-100	0	230	101300000	1000	0	0	-1	0
14825195	504	0	0	-100	0	230	101300000	1000	0	0	-1	0
14837755	499	0	0	-100	0	230	101300000	1000	0	0	-1	0
14850315	501	3	0	-100	0	230	101300000	1000	0	0	-1	0
14862875	499	0	0	-100	0	230	101300000	1000	0	0	-1	0
14875435	511	0	0	-100	0	230	101300000	1000	0	0	-1	0
14887995	501	0	0	-100	0	230	101300000	1000	0	0	-1	0
14900555	499	3	0	-100	0	230	101300000	1000	0	0	-1	0
14913115	499	0	0	-100	0	230	101300000	1000	0	0	-1	0
14925675	506	0	0	-100	0	230	101300000	1000	0	0	-1	0
14938235	501	0	0	-100	0	230	101300000	1000	0	0	-1	0
14950795	501	1	0	-100	0	230	101300000	1000	0	0	-1	0
14963355	509	0	0	-100	0	230	101300000	1000	0	0	-1	0
14975915	504	0	0	-100	0	230	101300000	1000	0	0	-1	0
14988475	501	0	0	-100	0	230	101300000	1000	0	0	-1	0
15001035	497	0	0	-100	0	230	101300000	1000	0	0	-1	0
15013595	509	0	0	-100	0	230	101300000	1000	0	0	-1	0
15026155	501	0	0	-100	0	230	101300000	1000	0	0	-1	0
15038715	501	0	0	-100	0	230	101300000	1000	0	0	-1	0
15051275	499	0	0	-100	0	230	101300000	1000	0	0	-1	0
15063835	509	0	0	-100	0	230	101300000	1000	0	0	-1	0
15076395	501	0	0	-100	0	230	101300000	1000	0	0	-1	0
15088955	501	2	0	-100	0	230	101300000	1000	0	0	-1	0
15101515	499	0	0	-100	0	230	101300000	1000	0	0	-1	0
15114075	508	0	0	-100	0	230	101300000	1000	0	0	-1	0
15126635	502	0	0	-100	0	230	101300000	1000	0	0	-1	0
15139195	497	2	0	-100	0	230	101300000	1000	0	0	-1	0
15151755	509	0	0	-100	0	230	101300000	1000	0	0	-1	0
15164315	504	0	0	-100	0	230	101300000	1000	0	0	-1	0
15176875	499	0	0	-100	0	230	101300000	1000	0	0	-1	0
15189435	501	0	0	-100	0	230	101300000	1000	0	0	-1	0
15201995	497	0	0	-100	0	230	101300000	1000	0	0	-1	0
15214555	504	0	0	-100	0	230	101300000	1000	0	0	-1	0
15227115	502	0	0	-100	0	230	101300000	1000	0	0	-1	0
15239675	499	0	0	-100	0	230	101300000	1000	0	0	-1	0
15252235	511	0	0	-100	0	230	101300000	1000	0	0	-1	0
15264795	499	0	0	-100	0	230	101300000	1000	0	0	-1	0
15277355	506	0	0	-100	0	230	101300000	1000	0	0	-1	0
15289915	501	3	0	-100	0	230	101300000	1000	0	0	-1	0
15302475	506	0	0	-100	0	230	101300000	1000	0	0	-1	0
15315035	499	3	0	-100	0	230	101300000	1000	0	0	-1	0
15327595	508	0	0	-100	0	230	101300000	1000	0	0	-1	0
15340155	496	0	0	-100	0	230	101300000	1000	0	0	-1	0
15352715	504	0	0	-100	0	230	101300000	1000	0	0	-1	0
15365275	499	0	0	-100	0	230	101300000	1000	0	0	-1	0
15377835	506	0	0	-100	0	230	101300000	1000	0	0	-1	0
15390395	501	0	0	-100	0	230	101300000	1000	0	0	-1	0
15402955	501	0	0	-100	0	230	101300000	1000	0	0	-1	0
15415515	496	0	0	-100	0	230	101300000	1000	0	0	-1	0
15428075	501	0	0	-100	0	230	101300000	1000	0	0	-1	0
15440635	499	0	0	-100	0	230	101300000	1000	0	0	-1	0
15453195	504	0	0	-100	0	230	101300000	1000	0	0	-1	0
15465755	499	0	0	-100	0	230	101300000	1000	0	0	-1	0
15478315	499	0	0	-100	0	230	101300000	1000	0	0	-1	0
15490875	501	0	0	-100	0	230	101300000	1000	0	0	-1	0
15503435	501	0	0	-100	0	230	101300000	1000	0	0	-1	0
15515995	501	0	0	-100	0	230	101300000	1000	0	0	-1	0
15528555	504	0	0	-100	0	230	101300000	1000	0	0	-1	0
15541115	499	0	0	-100	0	230	101300000	1000	0	0	-1	0
15553675	499	0	0	-100	0	230	101300000	1000	0	0	-1	0
15566235	508	0	0	-100	0	230	101300000	1000	0	0	-1	0
15578795	501	2	0	-100	0	230	101300000	1000	0	0	-1	0
15591355	504	0	0	-100	0	230	101300000	1000	0	0	-1	0
15603915	503	0	0	-100	0	230	101300000	1000	0	0	-1	0
15616475	501	4	0	-100	0	230	101300000	1000	0	0	-1	0
15629035	508	0	0	-100	0	230	101300000	1000	0	0	-1	0
15641595	499	0	0	-100	0	230	101300000	1000	0	0	-1	0
15654155	499	4	0	-100	0	230	101300000	1000	0	0	-1	0
15666715	506	0	0	-100	0	230	101300000	1000	0	0	-1	0
15679275	499	0	0	-100	0	230	101300000	1000	0	0	-1	0
15691835	502	0	0	-100	0	230	101300000	1000	0	0	-1	0
15704395	501	0	0	-100	0	230	101300000	1000	0	0	-1	0
15716955	497	0	0	-100	0	230	101300000	1000	0	0	-1	0
15729515	509	0	0	-100	0	230	101300000	1000	0	0	-1	0
15742075	499	0	0	-100	0	230	101300000	1000	0	0	-1	0
15754635	501	0	0	-100	0	230	101300000	1000	0	0	-1	0
15767195	501	0	0	-100	0	230	101300000	1000	0	0	-1	0
15779755	501	0	0	-100	0	230	101300000	1000	0	0	-1	0
15792315	499	0	0	-100	0	230	101300000	1000	0	0	-1	0
15804875	501	0	0	-100	0	230	101300000	1000	0	0	-1	0
15817435	499	0	0	-100	0	230	101300000	1000	0	0	-1	0
15829995	502	0	0	-100	0	230	101300000	1000	0	0	-1	0
15842555	501	0	0	-100	0	230	101300000	1000	0	0	-1	0
15855115	501	3	0	-100	0	230	101300000	1000	0	0	-1	0
15867675	506	0	0	-100	0	230	101300000	1000	0	0	-1	0
15880235	499	0	0	-100	0	230	101300000	1000	0	0	-1	0
15892795	499	0	0	-100	0	230	101300000	1000	0	0	-1	0
15905355	506	0	0	-100	0	230	101300000	1000	0	0	-1	0
15917915	501	0	0	-100	0	230	101300000	1000	0	0	-1	0
15930475	499	2	0	-100	0	230	101300000	1000	0	0	-1	0
15943035	504	0	0	-100	0	230	101300000	1000	0	0	-1	0
15955595	506	0	0	-100	0	230	101300000	1000	0	0	-1	0
15968155	496	0	0	-100	0	230	101300000	1000	0	0	-1	0
15980715	499	2	0	-100	0	230	101300000	1000	0	0	-1	0
15993275	509	0	0	-100	0	230	101300000	1000	0	0	-1	0
16005835	499	0	0	-100	0	230	101300000	1000	0	0	-1	0
16018395	502	0	0	-100	0	230	101300000	1000	0	0	-1	0
16030955	504	0	0	-100	0	230	101300000	1000	0	0	-1	0
16043515	497	2	0	-100	0	230	101300000	1000	0	0	-1	0
16056075	506	0	0	-100	0	230	101300000	1000	0	0	-1	0
16068635	501	0	0	-100	0	230	101300000	1000	0	0	-1	0
16081195	506	0	0	-100	0	230	101300000	1000	0	0	-1	0
16093755	501	0	0	-100	0	230	101300000	1000	0	0	-1	0
16106315	501	1	0	-100	0	230	101300000	1000	0	0	-1	0
16118875	504	0	0	-100	0	230	101300000	1000	0	0	-1	0
16131435	501	0	0	-100	0	230	101300000	1000	0	0	-1	0
16143995	501	0	0	-100	0	230	101300000	1000	0	0	-1	0
16156555	506	0	0	-100	0	230	101300000	1000	0	0	-1	0
16169115	499	3	0	-100	0	230	101300000	1000	0	0	-1	0
16181675	508	0	0	-100	0	230	101300000	1000	0	0	-1	0
16194235	499	0	0	-100	0	230	101300000	1000	0	0	-1	0
16206795	501	0	0	-100	0	230	101300000	1000	0	0	-1	0
16219355	504	0	0	-100	0	230	101300000	1000	0	0	-1	0
16231915	504	3	0	-100	0	230	101300000	1000	0	0	-1	0
16244475	504	0	0	-100	0	230	101300000	1000	0	0	-1	0
16257035	499	0	0	-100	0	230	101300000	1000	0	0	-1	0
16269595	499	0	0	-100	0	230	101300000	1000	0	0	-1	0
16282155	498	0	0	-100	0	230	101300000	1000	0	0	-1	0
16294715	499	0	0	-100	0	230	101300000	1000	0	0	-1	0
16307275	502	0	0	-100	0	230	101300000	1000	0	0	-1	0
16319835	504	0	0	-100	0	230	101300000	1000	0	0	-1	0
16332395	504	4	0	-100	0	230	101300000	1000	0	0	-1	0
16344955	502	0	0	-100	0	230	101300000	1000	0	0	-1	0
16357515	499	0	0	-100	0	230	101300000	1000	0	0	-1	0
16370075	497	0	0	-100	0	230	101300000	1000	0	0	-1	0
16382635	501	0	0	-100	0	230	101300000	1000	0	0	-1	0
16395195	504	1	0	-100	0	230	101300000	1000	0	0	-1	0
16407755	506	0	0	-100	0	230	101300000	1000	0	0	-1	0
16420315	501	0	0	-100	0	230	101300000	1000	0	0	-1	0
16432875	502	1	0	-100	0	230	101300000	1000	0	0	-1	0
16445435	499	0	0	-100	0	230	101300000	1000	0	0	-1	0
16457995	506	0	0	-100	0	230	101300000	1000	0	0	-1	0
16470555	501	0	0	-100	0	230	101300000	1000	0	0	-1	0
16483115	497	0	0	-100	0	230	101300000	1000	0	0	-1	0
16495675	506	0	0	-100	0	230	101300000	1000	0	0	-1	0
16508235	499	0	0	-100	0	230	101300000	1000	0	0	-1	0
16520795	499	0	0	-100	0	230	101300000	1000	0	0	-1	0
16533355	506	0	0	-100	0	230	101300000	1000	0	0	-1	0
16545915	499	4	0	-100	0	230	101300000	1000	0	0	-1	0
16558475	509	0	0	-100	0	230	101300000	1000	0	0	-1	0
16571035	501	0	0	-100	0	230	101300000	1000	0	0	-1	0
16583595	499	2	0	-100	0	230	101300000	1000	0	0	-1	0
16596155	503	0	0	-100	0	230	101300000	1000	0	0	-1	0
16608715	501	0	0	-100	0	230	101300000	1000	0	0	-1	0
16621275	499	3	0	-100	0	230	101300000	1000	0	0	-1	0
16633835	501	0	0	-100	0	230	101300000	1000	0	0	-1	0
16646395	504	0	0	-100	0	230	101300000	1000	0	0	-1	0
16658955	501	0	0	-100	0	230	101300000	1000	0	0	-1	0
16671515	504	0	0	-100	0	230	101300000	1000	0	0	-1	0
16684075	504	0	0	-100	0	230	101300000	1000	0	0	-1	0
16696635	501	2	0	-100	0	230	101300000	1000	0	0	-1	0
16709195	502	0	0	-100	0	230	101300000	1000	0	0	-1	0
16721755	504	0	0	-100	0	230	101300000	1000	0	0	-1	0
16734315	502	3	0	-100	0	230	101300000	1000	0	0	-1	0
16746875	499	0	0	-100	0	230	101300000	1000	0	0	-1	0
16759435	504	0	0	-100	0	230	101300000	1000	0	0	-1	0
16771995	506	0	0	-100	0	230	101300000	1000	0	0	-1	0
16784555	504	0	0	-100	0	230	101300000	1000	0	0	-1	0
16797115	499	0	0	-100	0	230	101300000	1000	0	0	-1	0
16809675	506	0	0	-100	0	230	101300000	1000	0	0	-1	0
16822235	499	0	0	-100	0	230	101300000	1000	0	0	-1	0
16834795	501	0	0	-100	0	230	101300000	1000	0	0	-1	0
16847355	504	0	0	-100	0	230	101300000	1000	0	0	-1	0
16859915	497	2	0	-100	0	230	101300000	1000	0	0	-1	0
16872475	506	0	0	-100	0	230	101300000	1000	0	0	-1	0
16885035	496	0	0	-100	0	230	101300000	1000	0	0	-1	0
16897595	506	0	0	-100	0	230	101300000	1000	0	0	-1	0
16910155	496	0	0	-100	0	230	101300000	1000	0	0	-1	0
16922715	499	0	0	-100	0	230	101300000	1000	0	0	-1	0
16935275	506	0	0	-100	0	230	101300000	1000	0	0	-1	0
16947835	499	2	0	-100	0	230	101300000	1000	0	0	-1	0
16960395	506	0	0	-100	0	230	101300000	1000	0	0	-1	0
16972955	501	0	0	-100	0	230	101300000	1000	0	0	-1	0
16985515	504	0	0	-100	0	230	101300000	1000	0	0	-1	0
16998075	504	0	0	-100	0	230	101300000	1000	0	0	-1	0
17010635	499	3	0	-100	0	230	101300000	1000	0	0	-1	0
17023195	499	0	0	-100	0	230	101300000	1000	0	0	-1	0
17035755	504	0	0	-100	0	230	101300000	1000	0	0	-1	0
17048315	499	0	0	-100	0	230	101300000	1000	0	0	-1	0
17060875	499	0	0	-100	0	230	101300000	1000	0	0	-1	0
17073435	506	0	0	-100	0	230	101300000	1000	0	0	-1	0
17085995	499	0	0	-100	0	230	101300000	1000	0	0	-1	0
17098555	499	0	0	-100	0	230	101300000	1000	0	0	-1	0
17111115	506	0	0	-100	0	230	101300000	1000	0	0	-1	0
17123675	497	2	0	-100	0	230	101300000	1000	0	0	-1	0
17136235	506	0	0	-100	0	230	101300000	1000	0	0	-1	0
17148795	499	0	0	-100	0	230	101300000	1000	0	0	-1	0
17161355	497	0	0	-100	0	230	101300000	1000	0	0	-1	0
17173915	506	0	0	-100	0	230	101300000	1000	0	0	-1	0
17186475	499	0	0	-100	0	230	101300000	1000	0	0	-1	0
17199035	501	0	0	-100	0	230	101300000	1000	0	0	-1	0
17211595	506	0	0	-100	0	230	101300000	1000	0	0	-1	0
17224155	494	5	0	-100	0	230	101300000	1000	0	0	-1	0
17236715	506	0	0	-100	0	230	101300000	1000	0	0	-1	0
17249275	504	0	0	-100	0	230	101300000	1000	0	0	-1	0
17261835	501	2	0	-100	0	230	101300000	1000	0	0	-1	0
17274395	504	0	0	-100	0	230	101300000	1000	0	0	-1	0
17286955	506	0	0	-100	0	230	101300000	1000	0	0	-1	0
17299515	501	0	0	-100	0	230	101300000	1000	0	0	-1	0
17312075	499	2	0	-100	0	230	101300000	1000	0	0	-1	0
17324635	506	0	0	-100	0	230	101300000	1000	0	0	-1	0
17337195	504	0	0	-100	0	230	101300000	1000	0	0	-1	0
17349755	499	0	0	-100	0	230	101300000	1000	0	0	-1	0
17362315	497	1	0	-100	0	230	101300000	1000	0	0	-1	0
17374875	501	0	0	-100	0	230	101300000	1000	0	0	-1	0
17387435	506	0	0	-100	0	230	101300000	1000	0	0	-1	0
17399995	499	0	0	-100	0	230	101300000	1000	0	0	-1	0
17412555	504	4	0	-100	0	230	101300000	1000	0	0	-1	0
17425115	497	0	0	-100	0	230	101300000	1000	0	0	-1	0
17437675	509	0	0	-100	0	230	101300000	1000	0	0	-1	0
17450235	504	0	0	-100	0	230	101300000	1000	0	0	-1	0
17462795	499	0	0	-100	0	230	101300000	1000	0	0	-1	0
17475355	501	1	0	-100	0	230	101300000	1000	0	0	-1	0
17487915	506	0	0	-100	0	230	101300000	1000	0	0	-1	0
17500475	496	0	0	-100	0	230	101300000	1000	0	0	-1	0
17513035	502	2	0	-100	0	230	101300000	1000	0	0	-1	0
17525595	499	0	0	-100	0	230	101300000	1000	0	0	-1	0
17538155	501	0	0	-100	0	230	101300000	1000	0	0	-1	0
17550715	501	0	0	-100	0	230	101300000	1000	0	0	-1	0
17563275	497	3	0	-100	0	230	101300000	1000	0	0	-1	0
17575835	502	0	0	-100	0	230	101300000	1000	0	0	-1	0
17588395	506	0	0	-100	0	230	101300000	1000	0	0	-1	0
17600955	501	0	0	-100	0	230	101300000	1000	0	0	-1	0
17613515	501	0	0	-100	0	230	101300000	1000	0	0	-1	0
17626075	499	1	0	-100	0	230	101300000	1000	0	0	-1	0
17638635	506	0	0	-100	0	230	101300000	1000	0	0	-1	0
17651195	504	0	0	-100	0	230	101300000	1000	0	0	-1	0
17663755	497	2	0	-100	0	230	101300000	1000	0	0	-1	0
17676315	502	0	0	-100	0	230	101300000	1000	0	0	-1	0
17688875	509	0	0	-100	0	230	101300000	1000	0	0	-1	0
17701435	501	0	0	-100	0	230	101300000	1000	0	0	-1	0
17713995	501	0	0	-100	0	230	101300000	1000	0	0	-1	0
17726555	499	0	0	-100	0	230	101300000	1000	0	0	-1	0
17739115	509	0	0	-100	0	230	101300000	1000	0	0	-1	0
17751675	501	0	0	-100	0	230	101300000	1000	0	0	-1	0
17764235	496	1	0	-100	0	230	101300000	1000	0	0	-1	0
17776795	509	0	0	-100	0	230	101300000	1000	0	0	-1	0
17789355	501	0	0	-100	0	230	101300000	1000	0	0	-1	0
17801915	499	1	0	-100	0	230	101300000	1000	0	0	-1	0
17814475	504	0	0	-100	0	230	101300000	1000	0	0	-1	0
17827035	499	1	0	-100	0	230	101300000	1000	0	0	-1	0
17839595	502	0	0	-100	0	230	101300000	1000	0	0	-1	0
17852155	501	0	0	-100	0	230	101300000	1000	0	0	-1	0
17864715	499	0	0	-100	0	230	101300000	1000	0	0	-1	0
17877275	504	0	0	-100	0	230	101300000	1000	0	0	-1	0
17889835	499	0	0	-100	0	230	101300000	1000	0	0	-1	0
17902395	501	0	0	-100	0	230	101300000	1000	0	0	-1	0
17914955	499	0	0	-100	0	230	101300000	1000	0	0	-1	0
17927515	501	0	0	-100	0	230	101300000	1000	0	0	-1	0
17940075	504	0	0	-100	0	230	101300000	1000	0	0	-1	0
17952635	501	0	0	-100	0	230	101300000	1000	0	0	-1	0
17965195	494	2	0	-100	0	230	101300000	1000	0	0	-1	0
17977755	506	0	0	-100	0	230	101300000	1000	0	0	-1	0
17990315	504	0	0	-100	0	230	101300000	1000	0	0	-1	0
18002875	499	0	0	-100	0	230	101300000	1000	0	0	-1	0
18015435	499	2	0	-100	0	230	101300000	1000	0	0	-1	0
18027995	504	4	0	-100	0	230	101300000	1000	0	0	-1	0
18040555	506	0	0	-100	0	230	101300000	1000	0	0	-1	0
18053115	499	0	0	-100	0	230	101300000	1000	0	0	-1	0
18065675	499	1	0	-100	0	230	101300000	1000	0	0	-1	0
18078235	506	0	0	-100	0	230	101300000	1000	0	0	-1	0
18090795	506	0	0	-100	0	230	101300000	1000	0	0	-1	0
18103355	499	0	0	-100	0	230	101300000	1000	0	0	-1	0
18115915	502	0	0	-100	0	230	101300000	1000	0	0	-1	0
18128475	504	0	0	-100	0	230	101300000	1000	0	0	-1	0
18141035	501	0	0	-100	0	230	101300000	1000	0	0	-1	0
18153595	499	0	0	-100	0	230	101300000	1000	0	0	-1	0
18166155	503	0	0	-100	0	230	101300000	1000	0	0	-1	0
18178715	499	0	0	-100	0	230	101300000	1000	0	0	-1	0
18191275	502	1	0	-100	0	230	101300000	1000	0	0	-1	0
18203835	499	0	0	-100	0	230	101300000	1000	0	0	-1	0
18216395	509	0	0	-100	0	230	101300000	1000	0	0	-1	0
18228955	501	0	0	-100	0	230	101300000	1000	0	0	-1	0
18241515	499	2	0	-100	0	230	101300000	1000	0	0	-1	0
18254075	504	0	0	-100	0	230	101300000	1000	0	0	-1	0
18266635	504	0	0	-100	0	230	101300000	1000	0	0	-1	0
18279195	499	0	0	-100	0	230	101300000	1000	0	0	-1	0
18291755	499	1	0	-100	0	230	101300000	1000	0	0	-1	0
18304315	506	0	0	-100	0	230	101300000	1000	0	0	-1	0
18316875	502	0	0	-100	0	230	101300000	1000	0	0	-1	0
18329435	499	0	0	-100	0	230	101300000	1000	0	0	-1	0
18341995	499	0	0	-100	0	230	101300000	1000	0	0	-1	0
18354555	504	0	0	-100	0	230	101300000	1000	0	0	-1	0
18367115	506	0	0	-100	0	230	101300000	1000	0	0	-1	0
18379675	504	0	0	-100	0	230	101300000	1000	0	0	-1	0
18392235	499	0	0	-100	0	230	101300000	1000	0	0	-1	0
18404795	501	3	0	-100	0	230	101300000	1000	0	0	-1	0
18417355	501	0	0	-100	0	230	101300000	1000	0	0	-1	0
18429915	506	0	0	-100	0	230	101300000	1000	0	0	-1	0
18442475	496	0	0	-100	0	230	101300000	1000	0	0	-1	0
18455035	502	3	0	-100	0	230	101300000	1000	0	0	-1	0
18467595	499	0	0	-100	0	230	101300000	1000	0	0	-1	0
18480155	503	0	0	-100	0	230	101300000	1000	0	0	-1	0
18492715	504	0	0	-100	0	230	101300000	1000	0	0	-1	0
18505275	499	3	0	-100	0	230	101300000	1000	0	0	-1	0
18517835	501	0	0	-100	0	230	101300000	1000	0	0	-1	0
18530395	506	0	0	-100	0	230	101300000	1000	0	0	-1	0
18542955	496	0	0	-100	0	230	101300000	1000	0	0	-1	0
18555515	499	0	0	-100	0	230	101300000	1000	0	0	-1	0
18568075	506	0	0	-100	0	230	101300000	1000	0	0	-1	0
18580635	501	3	0	-100	0	230	101300000	1000	0	0	-1	0
18593195	506	0	0	-100	0	230	101300000	1000	0	0	-1	0
18605755	501	0	0	-100	0	230	101300000	1000	0	0	-1	0
18618315	499	1	0	-100	0	230	101300000	1000	0	0	-1	0
18630875	506	0	0	-100	0	230	101300000	1000	0	0	-1	0
18643435	499	0	0	-100	0	230	101300000	1000	0	0	-1	0
18655995	506	0	0	-100	0	230	101300000	1000	0	0	-1	0
18668555	499	3	0	-100	0	230	101300000	1000	0	0	-1	0
18681115	509	0	0	-100	0	230	101300000	1000	0	0	-1	0
18693675	501	0	0	-100	0	230	101300000	1000	0	0	-1	0
18706235	501	0	0	-100	0	230	101300000	1000	0	0	-1	0
18718795	499	3	0	-100	0	230	101300000	1000	0	0	-1	0
18731355	506	0	0	-100	0	230	101300000	1000	0	0	-1	0
18743915	499	0	0	-100	0	230	101300000	1000	0	0	-1	0
18756475	499	3	0	-100	0	230	101300000	1000	0	0	-1	0
18769035	504	0	0	-100	0	230	101300000	1000	0	0	-1	0
18781595	504	0	0	-100	0	230	101300000	1000	0	0	-1	0
18794155	496	3	0	-100	0	230	101300000	1000	0	0	-1	0
18806715	506	0	0	-100	0	230	101300000	1000	0	0	-1	0
18819275	499	0	0	-100	0	230	101300000	1000	0	0	-1	0
18831835	499	0	0	-100	0	230	101300000	1000	0	0	-1	0
18844395	504	0	0	-100	0	230	101300000	1000	0	0	-1	0
18856955	501	3	0	-100	0	230	101300000	1000	0	0	-1	0
18869515	509	0	0	-100	0	230	101300000	1000	0	0	-1	0
18882075	501	0	0	-100	0	230	101300000	1000	0	0	-1	0
18894635	506	0	0	-100	0	230	101300000	1000	0	0	-1	0
18907195	496	0	0	-100	0	230	101300000	1000	0	0	-1	0
18919755	506	0	0	-100	0	230	101300000	1000	0	0	-1	0
18932315	499	0	0	-100	0	230	101300000	1000	0	0	-1	0
18944875	499	0	0	-100	0	230	101300000	1000	0	0	-1	0
18957435	502	0	0	-100	0	230	101300000	1000	0	0	-1	0
18969995	499	0	0	-100	0	230	101300000	1000	0	0	-1	0
18982555	501	0	0	-100	0	230	101300000	1000	0	0	-1	0
18995115	504	5	0	-100	0	230	101300000	1000	0	0	-1	0
19007675	506	0	0	-100	0	230	101300000	1000	0	0	-1	0
19020235	499	0	0	-100	0	230	101300000	1000	0	0	-1	0
19032795	501	0	0	-100	0	230	101300000	1000	0	0	-1	0
19045355	501	0	0	-100	0	230	101300000	1000	0	0	-1	0
19057915	499	2	0	-100	0	230	101300000	1000	0	0	-1	0
19070475	506	0	0	-100	0	230	101300000	1000	0	0	-1	0
19083035	504	0	0	-100	0	230	101300000	1000	0	0	-1	0
19095595	499	0	0	-100	0	230	101300000	1000	0	0	-1	0
19108155	494	4	0	-100	0	230	101300000	1000	0	0	-1	0
19120715	504	0	0	-100	0	230	101300000	1000	0	0	-1	0
19133275	506	0	0	-100	0	230	101300000	1000	0	0	-1	0
19145835	499	0	0	-100	0	230	101300000	1000	0	0	-1	0
19158395	499	0	0	-100	0	230	101300000	1000	0	0	-1	0
19170955	508	0	0	-100	0	230	101300000	1000	0	0	-1	0
19183515	499	2	0	-100	0	230	101300000	1000	0	0	-1	0
19196075	501	0	0	-100	0	230	101300000	1000	0	0	-1	0
19208635	506	0	0	-100	0	230	101300000	1000	0	0	-1	0
19221195	499	0	0	-100	0	230	101300000	1000	0	0	-1	0
19233755	499	0	0	-100	0	230	101300000	1000	0	0	-1	0
19246315	506	0	0	-100	0	230	101300000	1000	0	0	-1	0
19258875	496	0	0	-100	0	230	101300000	1000	0	0	-1	0
19271435	499	0	0	-100	0	230	101300000	1000	0	0	-1	0
19283995	504	3	0	-100	0	230	101300000	1000	0	0	-1	0
19296555	504	0	0	-100	0	230	101300000	1000	0	0	-1	0
19309115	499	3	0	-100	0	230	101300000	1000	0	0	-1	0
19321675	509	0	0	-100	0	230	101300000	1000	0	0	-1	0
19334235	504	0	0	-100	0	230	101300000	1000	0	0	-1	0
19346795	497	2	0	-100	0	230	101300000	1000	0	0	-1	0
19359355	504	0	0	-100	0	230	101300000	1000	0	0	-1	0
19371915	504	5	0	-100	0	230	101300000	1000	0	0	-1	0
19384475	506	0	0	-100	0	230	101300000	1000	0	0	-1	0
19397035	501	0	0	-100	0	230	101300000	1000	0	0	-1	0
19409595	497	0	0	-100	0	230	101300000	1000	0	0	-1	0
19422155	501	0	0	-100	0	230	101300000	1000	0	0	-1	0
19434715	504	2	0	-100	0	230	101300000	1000	0	0	-1	0
19447275	499	0	0	-100	0	230	101300000	1000	0	0	-1	0
19459835	506	0	0	-100	0	230	101300000	1000	0	0	-1	0
19472395	501	0	0	-100	0	230	101300000	1000	0	0	-1	0
19484955	499	1	0	-100	0	230	101300000	1000	0	0	-1	0
19497515	506	0	0	-100	0	230	101300000	1000	0	0	-1	0
19510075	499	0	0	-100	0	230	101300000	1000	0	0	-1	0
19522635	497	3	0	-100	0	230	101300000	1000	0	0	-1	0
19535195	504	0	0	-100	0	230	101300000	1000	0	0	-1	0
19547755	506	0	0	-100	0	230	101300000	1000	0	0	-1	0
19560315	496	0	0	-100	0	230	101300000	1000	0	0	-1	0
19572875	499	1	0	-100	0	230	101300000	1000	0	0	-1	0
19585435	504	0	0	-100	0	230	101300000	1000	0	0	-1	0
19597995	501	0	0	-100	0	230	101300000	1000	0	0	-1	0
19610555	499	1	0	-100	0	230	101300000	1000	0	0	-1	0
19623115	506	0	0	-100	0	230	101300000	1000	0	0	-1	0
19635675	501	0	0	-100	0	230	101300000	1000	0	0	-1	0
19648235	499	0	0	-100	0	230	101300000	1000	0	0	-1	0
19660795	506	0	0	-100	0	230	101300000	1000	0	0	-1	0
19673355	502	3	0	-100	0	230	101300000	1000	0	0	-1	0
19685915	508	0	0	-100	0	230	101300000	1000	0	0	-1	0
19698475	504	0	0	-100	0	230	101300000	1000	0	0	-1	0
19711035	499	3	0	-100	0	230	101300000	1000	0	0	-1	0
19723595	501	0	0	-100	0	230	101300000	1000	0	0	-1	0
19736155	503	0	0	-100	0	230	101300000	1000	0	0	-1	0
19748715	501	4	0	-100	0	230	101300000	1000	0	0	-1	0
19761275	504	0	0	-100	0	230	101300000	1000	0	0	-1	0
19773835	504	0	0	-100	0	230	101300000	1000	0	0	-1	0
19786395	497	2	0	-100	0	230	101300000	1000	0	0	-1	0
19798955	506	0	0	-100	0	230	101300000	1000	0	0	-1	0
19811515	504	0	0	-100	0	230	101300000	1000	0	0	-1	0
19824075	501	0	0	-100	0	230	101300000	1000	0	0	-1	0
19836635	501	0	0	-100	0	230	101300000	1000	0	0	-1	0
19849195	506	0	0	-100	0	230	101300000	1000	0	0	-1	0
19861755	501	0	0	-100	0	230	101300000	1000	0	0	-1	0
19874315	504	4	0	-100	0	230	101300000	1000	0	0	-1	0
19886875	506	0	0	-100	0	230	101300000	1000	0	0	-1	0
19899435	504	0	0	-100	0	230	101300000	1000	0	0	-1	0
19911995	499	0	0	-100	0	230	101300000	1000	0	0	-1	0
19924555	506	0	0	-100	0	230	101300000	1000	0	0	-1	0
19937115	506	0	0	-100	0	230	101300000	1000	0	0	-1	0
19949675	501	0	0	-100	0	230	101300000	1000	0	0	-1	0
19962235	501	0	0	-100	0	230	101300000	1000	0	0	-1	0
19974795	506	0	0	-100	0	230	101300000	1000	0	0	-1	0
19987355	499	0	0	-100	0	230	101300000	1000	0	0	-1	0
19999915	504	0	0	-100	0	230	101300000	1000	0	0	-1	0
20012475	504	0	0	-100	0	230	101300000	1000	0	0	-1	0
20025035	497	2	0	-100	0	230	101300000	1000	0	0	-1	0
20037595	508	0	0	-100	0	230	101300000	1000	0	0	-1	0
20050155	496	0	0	-100	0	230	101300000	1000	0	0	-1	0
20062715	499	0	0	-100	0	230	101300000	1000	0	0	-1	0
20075275	509	0	0	-100	0	230	101300000	1000	0	0	-1	0
20087835	501	0	0	-100	0	230	101300000	1000	0	0	-1	0
20100395	499	3	0	-100	0	230	101300000	1000	0	0	-1	0
20112955	504	0	0	-100	0	230	101300000	1000	0	0	-1	0
20125515	504	0	0	-100	0	230	101300000	1000	0	0	-1	0
20138075	501	0	0	-100	0	230	101300000	1000	0	0	-1	0
20150635	499	3	0	-100	0	230	101300000	1000	0	0	-1	0
20163195	504	0	0	-100	0	230	101300000	1000	0	0	-1	0
20175755	506	0	0	-100	0	230	101300000	1000	0	0	-1	0
20188315	501	0	0	-100	0	230	101300000	1000	0	0	-1	0
20200875	499	1	0	-100	0	230	101300000	1000	0	0	-1	0
20213435	509	0	0	-100	0	230	101300000	1000	0	0	-1	0
20225995	504	0	0	-100	0	230	101300000	1000	0	0	-1	0
20238555	499	2	0	-100	0	230	101300000	1000	0	0	-1	0
20251115	501	0	0	-100	0	230	101300000	1000	0	0	-1	0
20263675	504	0	0	-100	0	230	101300000	1000	0	0	-1	0
20276235	501	2	0	-100	0	230	101300000	1000	0	0	-1	0
20288795	502	0	0	-100	0	230	101300000	1000	0	0	-1	0
20301355	504	0	0	-100	0	230	101300000	1000	0	0	-1	0
20313915	504	1	0	-100	0	230	101300000	1000	0	0	-1	0
20326475	499	0	0	-100	0	230	101300000	1000	0	0	-1	0
20339035	506	0	0	-100	0	230	101300000	1000	0	0	-1	0
20351595	501	0	0	-100	0	230	101300000	1000	0	0	-1	0
20364155	496	4	0	-100	0	230	101300000	1000	0	0	-1	0
20376715	502	0	0	-100	0	230	101300000	1000	0	0	-1	0
20389275	506	0	0	-100	0	230	101300000	1000	0	0	-1	0
20401835	506	0	0	-100	0	230	101300000	1000	0	0	-1	0
20414395	501	0	0	-100	0	230	101300000	1000	0	0	-1	0
20426955	499	4	0	-100	0	230	101300000	1000	0	0	-1	0
20439515	497	0	0	-100	0	230	101300000	1000	0	0	-1	0
20452075	509	0	0	-100	0	230	101300000	1000	0	0	-1	0
20464635	504	0	0	-100	0	230	101300000	1000	0	0	-1	0
20477195	501	0	0	-100	0	230	101300000	1000	0	0	-1	0
20489755	499	1	0	-100	0	230	101300000	1000	0	0	-1	0
20502315	506	0	0	-100	0	230	101300000	1000	0	0	-1	0
20514875	506	0	0	-100	0	230	101300000	1000	0	0	-1	0
20527435	502	3	0	-100	0	230	101300000	1000	0	0	-1	0
20539995	501	0	0	-100	0	230	101300000	1000	0	0	-1	0
20552555	509	0	0	-100	0	230	101300000	1000	0	0	-1	0
20565115	496	0	0	-100	0	230	101300000	1000	0	0	-1	0
20577675	499	0	0	-100	0	230	101300000	1000	0	0	-1	0
20590235	509	0	0	-100	0	230	101300000	1000	0	0	-1	0
20602795	499	0	0	-100	0	230	101300000	1000	0	0	-1	0
20615355	499	2	0	-100	0	230	101300000	1000	0	0	-1	0
20627915	506	0	0	-100	0	230	101300000	1000	0	0	-1	0
20640475	504	0	0	-100	0	230	101300000	1000	0	0	-1	0
20653035	501	0	0	-100	0	230	101300000	1000	0	0	-1	0
20665595	497	2	0	-100	0	230	101300000	1000	0	0	-1	0
20678155	504	0	0	-100	0	230	101300000	1000	0	0	-1	0
20690715	504	0	0	-100	0	230	101300000	1000	0	0	-1	0
20703275	499	1	0	-100	0	230	101300000	1000	0	0	-1	0
20715835	506	0	0	-100	0	230	101300000	1000	0	0	-1	0
20728395	501	1	0	-100	0	230	101300000	1000	0	0	-1	0
20740955	504	0	0	-100	0	230	101300000	1000	0	0	-1	0
20753515	504	0	0	-100	0	230	101300000	1000	0	0	-1	0
20766075	499	2	0	-100	0	230	101300000	1000	0	0	-1	0
20778635	506	0	0	-100	0	230	101300000	1000	0	0	-1	0
20791195	499	1	0	-100	0	230	101300000	1000	0	0	-1	0
20803755	506	0	0	-100	0	230	101300000	1000	0	0	-1	0
20816315	499	0	0	-100	0	230	101300000	1000	0	0	-1	0
20828875	501	0	0	-100	0	230	101300000	1000	0	0	-1	0
20841435	506	0	0	-100	0	230	101300000	1000	0	0	-1	0
20853995	501	0	0	-100	0	230	101300000	1000	0	0	-1	0
20866555	504	0	0	-100	0	230	101300000	1000	0	0	-1	0
20879115	501	0	0	-100	0	230	101300000	1000	0	0	-1	0
20891675	501	0	0	-100	0	230	101300000	1000	0	0	-1	0
20904235	504	0	0	-100	0	230	101300000	1000	0	0	-1	0
20916795	499	0	0	-100	0	230	101300000	1000	0	0	-1	0
20929355	499	0	0	-100	0	230	101300000	1000	0	0	-1	0
20941915	504	0	0	-100	0	230	101300000	1000	0	0	-1	0
20954475	501	0	0	-100	0	230	101300000	1000	0	0	-1	0
20967035	499	1	0	-100	0	230	101300000	1000	0	0	-1	0
20979595	506	0	0	-100	0	230	101300000	1000	0	0	-1	0
20992155	503	0	0	-100	0	230	101300000	1000	0	0	-1	0
21004715	504	4	0	-100	0	230	101300000	1000	0	0	-1	0
21017275	506	0	0	-100	0	230	101300000	1000	0	0	-1	0
21029835	501	0	0	-100	0	230	101300000	1000	0	0	-1	0
21042395	499	3	0	-100	0	230	101300000	1000	0	0	-1	0
21054955	506	0	0	-100	0	230	101300000	1000	0	0	-1	0
21067515	506	0	0	-100	0	230	101300000	1000	0	0	-1	0
21080075	499	3	0	-100	0	230	101300000	1000	0	0	-1	0
21092635	504	0	0	-100	0	230	101300000	1000	0	0	-1	0
21105195	504	0	0	-100	0	230	101300000	1000	0	0	-1	0
21117755	499	2	0	-100	0	230	101300000	1000	0	0	-1	0
21130315	501	0	0	-100	0	230	101300000	1000	0	0	-1	0
21142875	504	0	0	-100	0	230	101300000	1000	0	0	-1	0
21155435	501	0	0	-100	0	230	101300000	1000	0	0	-1	0
21167995	499	0	0	-100	0	230	101300000	1000	0	0	-1	0
21180555	504	0	0	-100	0	230	101300000	1000	0	0	-1	0
21193115	501	2	0	-100	0	230	101300000	1000	0	0	-1	0
21205675	501	0	0	-100	0	230	101300000	1000	0	0	-1	0
21218235	499	1	0	-100	0	230	101300000	1000	0	0	-1	0
21230795	508	0	0	-100	0	230	101300000	1000	0	0	-1	0
21243355	499	0	0	-100	0	230	101300000	1000	0	0	-1	0
21255915	509	0	0	-100	0	230	101300000	1000	0	0	-1	0
21268475	499	0	0	-100	0	230	101300000	1000	0	0	-1	0
21281035	499	0	0	-100	0	230	101300000	1000	0	0	-1	0
21293595	504	0	0	-100	0	230	101300000	1000	0	0	-1	0
21306155	496	4	0	-100	0	230	101300000	1000	0	0	-1	0
21318715	508	0	0	-100	0	230	101300000	1000	0	0	-1	0
21331275	501	0	0	-100	0	230	101300000	1000	0	0	-1	0
21343835	497	0	0	-100	0	230	101300000	1000	0	0	-1	0
21356395	508	0	0	-100	0	230	101300000	1000	0	0	-1	0
21368955	504	0	0	-100	0	230	101300000	1000	0	0	-1	0
21381515	499	0	0	-100	0	230	101300000	1000	0	0	-1	0
21394075	502	0	0	-100	0	230	101300000	1000	0	0	-1	0
21406635	506	0	0	-100	0	230	101300000	1000	0	0	-1	0
21419195	504	0	0	-100	0	230	101300000	1000	0	0	-1	0
21431755	501	3	0	-100	0	230	101300000	1000	0	0	-1	0
21444315	499	1	0	-100	0	230	101300000	1000	0	0	-1	0
21456875	506	0	0	-100	0	230	101300000	1000	0	0	-1	0
21469435	511	0	0	-100	0	230	101300000	1000	0	0	-1	0
21481995	506	0	0	-100	0	230	101300000	1000	0	0	-1	0
21494555	501	0	0	-100	0	230	101300000	1000	0	0	-1	0
21507115	497	1	0	-100	0	230	101300000	1000	0	0	-1	0
21519675	509	0	0	-100	0	230	101300000	1000	0	0	-1	0
21532235	504	0	0	-100	0	230	101300000	1000	0	0	-1	0
21544795	501	0	0	-100	0	230	101300000	1000	0	0	-1	0
21557355	502	3	0	-100	0	230	101300000	1000	0	0	-1	0
21569915	502	0	0	-100	0	230	101300000	1000	0	0	-1	0
21582475	506	0	0	-100	0	230	101300000	1000	0	0	-1	0
21595035	504	0	0	-100	0	230	101300000	1000	0	0	-1	0
21607595	499	3	0	-100	0	230	101300000	1000	0	0	-1	0
21620155	494	1	0	-100	0	230	101300000	1000	0	0	-1	0
21632715	511	0	0	-100	0	230	101300000	1000	0	0	-1	0
21645275	501	0	0	-100	0	230	101300000	1000	0	0	-1	0
21657835	499	0	0	-100	0	230	101300000	1000	0	0	-1	0
21670395	499	1	0	-100	0	230	101300000	1000	0	0	-1	0
21682955	497	0	0	-100	0	230	101300000	1000	0	0	-1	0
21695515	501	0	0	-100	0	230	101300000	1000	0	0	-1	0
21708075	501	0	0	-100	0	230	101300000	1000	0	0	-1	0
21720635	506	0	0	-100	0	230	101300000	1000	0	0	-1	0
21733195	508	0	0	-100	0	230	101300000	1000	0	0	-1	0
21745755	506	0	0	-100	0	230	101300000	1000	0	0	-1	0
21758315	506	0	0	-100	0	230	101300000	1000	0	0	-1	0
21770875	506	0	0	-100	0	230	101300000	1000	0	0	-1	0
21783435	506	0	0	-100	0	230	101300000	1000	0	0	-1	0
21795995	501	0	0	-100	0	230	101300000	1000	0	0	-1	0
21808555	499	0	0	-100	0	230	101300000	1000	0	0	-1	0
21821115	499	2	0	-100	0	230	101300000	1000	0	0	-1	0
21833675	499	0	0	-100	0	230	101300000	1000	0	0	-1	0
21846235	504	0	0	-100	0	230	101300000	1000	0	0	-1	0
21858795	508	0	0	-100	0	230	101300000	1000	0	0	-1	0
21871355	506	0	0	-100	0	230	101300000	1000	0	0	-1	0
21883915	499	0	0	-100	0	230	101300000	1000	0	0	-1	0
21896475	501	0	0	-100	0	230	101300000	1000	0	0	-1	0
21909035	499	4	0	-100	0	230	101300000	1000	0	0	-1	0
21921595	499	1	0	-100	0	230	101300000	1000	0	0	-1	0
21934155	499	0	0	-100	0	230	101300000	1000	0	0	-1	0
21946715	501	0	0	-100	0	230	101300000	1000	0	0	-1	0
21959275	506	0	0	-100	0	230	101300000	1000	0	0	-1	0
21971835	509	0	0	-100	0	230	101300000	1000	0	0	-1	0
21984395	504	0	0	-100	0	230	101300000	1000	0	0	-1	0
21996955	506	0	0	-100	0	230	101300000	1000	0	0	-1	0
22009515	501	0	0	-100	0	230	101300000	1000	0	0	-1	0
22022075	499	0	0	-100	0	230	101300000	1000	0	0	-1	0
22034635	499	2	0	-100	0	230	101300000	1000	0	0	-1	0
22047195	501	0	0	-100	0	230	101300000	1000	0	0	-1	0
22059755	509	0	0	-100	0	230	101300000	1000	0	0	-1	0
22072315	501	0	0	-100	0	230	101300000	1000	0	0	-1	0
22084875	499	2	0	-100	0	230	101300000	1000	0	0	-1	0
22097435	509	0	0	-100	0	230	101300000	1000	0	0	-1	0
22109995	506	0	0	-100	0	230	101300000	1000	0	0	-1	0
22122555	501	0	0	-100	0	230	101300000	1000	0	0	-1	0
22135115	504	2	0	-100	0	230	101300000	1000	0	0	-1	0
22147675	499	3	0	-100	0	230	101300000	1000	0	0	-1	0
22160235	499	0	0	-100	0	230	101300000	1000	0	0	-1	0
22172795	506	0	0	-100	0	230	101300000	1000	0	0	-1	0
22185355	506	0	0	-100	0	230	101300000	1000	0	0	-1	0
22197915	508	0	0	-100	0	230	101300000	1000	0	0	-1	0
22210475	501	0	0	-100	0	230	101300000	1000	0	0	-1	0
22223035	499	0	0	-100	0	230	101300000	1000	0	0	-1	0
22235595	501	3	0	-100	0	230	101300000	1000	0	0	-1	0
22248155	499	0	0	-100	0	230	101300000	1000	0	0	-1	0
22260715	506	0	0	-100	0	230	101300000	1000	0	0	-1	0
22273275	504	0	0	-100	0	230	101300000	1000	0	0	-1	0
22285835	496	1	0	-100	0	230	101300000	1000	0	0	-1	0
22298395	499	1	0	-100	0	230	101300000	1000	0	0	-1	0
22310955	504	0	0	-100	0	230	101300000	1000	0	0	-1	0
22323515	504	0	0	-100	0	230	101300000	1000	0	0	-1	0
22336075	506	0	0	-100	0	230	101300000	1000	0	0	-1	0
22348635	499	0	0	-100	0	230	101300000	1000	0	0	-1	0
22361195	499	4	0	-100	0	230	101300000	1000	0	0	-1	0
22373755	501	0	0	-100	0	230	101300000	1000	0	0	-1	0
22386315	508	0	0	-100	0	230	101300000	1000	0	0	-1	0
22398875	506	0	0	-100	0	230	101300000	1000	0	0	-1	0
22411435	499	0	0	-100	0	230	101300000	1000	0	0	-1	0
22423995	497	0	0	-100	0	230	101300000	1000	0	0	-1	0
22436555	501	0	0	-100	0	230	101300000	1000	0	0	-1	0
22449115	501	0	0	-100	0	230	101300000	1000	0	0	-1	0
22461675	502	0	0	-100	0	230	101300000	1000	0	0	-1	0
22474235	511	0	0	-100	0	230	101300000	1000	0	0	-1	0
22486795	504	0	0	-100	0	230	101300000	1000	0	0	-1	0
22499355	506	0	0	-100	0	230	101300000	1000	0	0	-1	0
22511915	506	0	0	-100	0	230	101300000	1000	0	0	-1	0
22524475	504	0	0	-100	0	230	101300000	1000	0	0	-1	0
22537035	501	0	0	-100	0	230	101300000	1000	0	0	-1	0
22549595	501	0	0	-100	0	230	101300000	1000	0	0	-1	0
22562155	494	4	0	-100	0	230	101300000	1000	0	0	-1	0
22574715	501	0	0	-100	0	230	101300000	1000	0	0	-1	0
22587275	499	0	0	-100	0	230	101300000	1000	0	0	-1	0
22599835	501	0	0	-100	0	230	101300000	1000	0	0	-1	0
22612395	504	0	0	-100	0	230	101300000	1000	0	0	-1	0
22624955	501	0	0	-100	0	230	101300000	1000	0	0	-1	0
22637515	502	0	0	-100	0	230	101300000	1000	0	0	-1	0
22650075	499	0	0	-100	0	230	101300000	1000	0	0	-1	0
22662635	497	2	0	-100	0	230	101300000	1000	0	0	-1	0
22675195	499	3	0	-100	0	230	101300000	1000	0	0	-1	0
22687755	497	3	0	-100	0	230	101300000	1000	0	0	-1	0
22700315	504	4	0	-100	0	230	101300000	1000	0	0	-1	0
22712875	501	0	0	-100	0	230	101300000	1000	0	0	-1	0
22725435	501	0	0	-100	0	230	101300000	1000	0	0	-1	0
22737995	506	0	0	-100	0	230	101300000	1000	0	0	-1	0
22750555	501	3	0	-100	0	230	101300000	1000	0	0	-1	0
22763115	499	2	0	-100	0	230	101300000	1000	0	0	-1	0
22775675	501	4	0	-100	0	230	101300000	1000	0	0	-1	0
22788235	499	0	0	-100	0	230	101300000	1000	0	0	-1	0
22800795	499	0	0	-100	0	230	101300000	1000	0	0	-1	0
22813355	504	0	0	-100	0	230	101300000	1000	0	0	-1	0
22825915	499	0	0	-100	0	230	101300000	1000	0	0	-1	0
22838475	506	0	0	-100	0	230	101300000	1000	0	0	-1	0
22851035	506	0	0	-100	0	230	101300000	1000	0	0	-1	0
22863595	504	0	0	-100	0	230	101300000	1000	0	0	-1	0
22876155	506	0	0	-100	0	230	101300000	1000	0	0	-1	0
22888715	506	0	0	-100	0	230	101300000	1000	0	0	-1	0
22901275	504	0	0	-100	0	230	101300000	1000	0	0	-1	0
22913835	508	0	0	-100	0	230	101300000	1000	0	0	-1	0
22926395	506	0	0	-100	0	230	101300000	1000	0	0	-1	0
22938955	504	0	0	-100	0	230	101300000	1000	0	0	-1	0
22951515	499	0	0	-100	0	230	101300000	1000	0	0	-1	0
22964075	499	2	0	-100	0	230	101300000	1000	0	0	-1	0
22976635	499	2	0	-100	0	230	101300000	1000	0	0	-1	0
22989195	499	3	0	-100	0	230	101300000	1000	0	0	-1	0
23001755	504	4	0	-100	0	230	101300000	1000	0	0	-1	0
23014315	501	0	0	-100	0	230	101300000	1000	0	0	-1	0
23026875	501	0	0	-100	0	230	101300000	1000	0	0	-1	0
23039435	504	0	0	-100	0	230	101300000	1000	0	0	-1	0
23051995	506	1	0	-100	0	230	101300000	1000	0	0	-1	0
23064555	506	0	0	-100	0	230	101300000	1000	0	0	-1	0
23077115	506	0	0	-100	0	230	101300000	1000	0	0	-1	0
23089675	497	0	0	-100	0	230	101300000	1000	0	0	-1	0
23102235	499	3	0	-100	0	230	101300000	1000	0	0	-1	0
23114795	501	0	0	-100	0	230	101300000	1000	0	0	-1	0
23127355	506	0	0	-100	0	230	101300000	1000	0	0	-1	0
23139915	509	0	0	-100	0	230	101300000	1000	0	0	-1	0
23152475	501	0	0	-100	0	230	101300000	1000	0	0	-1	0
23165035	497	1	0	-100	0	230	101300000	1000	0	0	-1	0
23177595	499	0	0	-100	0	230	101300000	1000	0	0	-1	0
23190155	503	0	0	-100	0	230	101300000	1000	0	0	-1	0
23202715	506	0	0	-100	0	230	101300000	1000	0	0	-1	0
23215275	501	0	0	-100	0	230	101300000	1000	0	0	-1	0
23227835	504	4	0	-100	0	230	101300000	1000	0	0	-1	0
23240395	501	0	0	-100	0	230	101300000	1000	0	0	-1	0
23252955	502	0	0	-100	0	230	101300000	1000	0	0	-1	0
23265515	506	0	0	-100	0	230	101300000	1000	0	0	-1	0
23278075	509	0	0	-100	0	230	101300000	1000	0	0	-1	0
23290635	504	0	0	-100	0	230	101300000	1000	0	0	-1	0
23303195	501	0	0	-100	0	230	101300000	1000	0	0	-1	0
23315755	504	2	0	-100	0	230	101300000	1000	0	0	-1	0
23328315	501	0	0	-100	0	230	101300000	1000	0	0	-1	0
23340875	499	0	0	-100	0	230	101300000	1000	0	0	-1	0
23353435	499	0	0	-100	0	230	101300000	1000	0	0	-1	0
23365995	499	0	0	-100	0	230	101300000	1000	0	0	-1	0
23378555	504	5	0	-100	0	230	101300000	1000	0	0	-1	0
23391115	504	2	0	-100	0	230	101300000	1000	0	0	-1	0
23403675	499	0	0	-100	0	230	101300000	1000	0	0	-1	0
23416235	499	0	0	-100	0	230	101300000	1000	0	0	-1	0
23428795	501	0	0	-100	0	230	101300000	1000	0	0	-1	0
23441355	504	0	0	-100	0	230	101300000	1000	0	0	-1	0
23453915	508	0	0	-100	0	230	101300000	1000	0	0	-1	0
23466475	504	0	0	-100	0	230	101300000	1000	0	0	-1	0
23479035	506	0	0	-100	0	230	101300000	1000	0	0	-1	0
23491595	506	0	0	-100	0	230	101300000	1000	0	0	-1	0
23504155	501	0	0	-100	0	230	101300000	1000	0	0	-1	0
23516715	509	0	0	-100	0	230	101300000	1000	0	0	-1	0
23529275	504	0	0	-100	0	230	101300000	1000	0	0	-1	0
23541835	504	0	0	-100	0	230	101300000	1000	0	0	-1	0
23554395	506	0	0	-100	0	230	101300000	1000	0	0	-1	0
23566955	509	0	0	-100	0	230	101300000	1000	0	0	-1	0
23579515	506	0	0	-100	0	230	101300000	1000	0	0	-1	0
23592075	502	0	0	-100	0	230	101300000	1000	0	0	-1	0
23604635	497	0	0	-100	0	230	101300000	1000	0	0	-1	0
23617195	499	2	0	-100	0	230	101300000	1000	0	0	-1	0
23629755	499	0	0	-100	0	230	101300000	1000	0	0	-1	0
23642315	497	2	0	-100	0	230	101300000	1000	0	0	-1	0
23654875	501	2	0	-100	0	230	101300000	1000	0	0	-1	0
23667435	499	3	0	-100	0	230	101300000	1000	0	0	-1	0
23679995	501	0	0	-100	0	230	101300000	1000	0	0	-1	0
23692555	499	1	0	-100	0	230	101300000	1000	0	0	-1	0
23705115	499	2	0	-100	0	230	101300000	1000	0	0	-1	0
23717675	503	0	0	-100	0	230	101300000	1000	0	0	-1	0
23730235	501	0	0	-100	0	230	101300000	1000	0	0	-1	0
23742795	499	0	0	-100	0	230	101300000	1000	0	0	-1	0
23755355	504	0	0	-100	0	230	101300000	1000	0	0	-1	0
23767915	503	0	0	-100	0	230	101300000	1000	0	0	-1	0
23780475	506	0	0	-100	0	230	101300000	1000	0	0	-1	0
23793035	508	0	0	-100	0	230	101300000	1000	0	0	-1	0
23805595	501	0	0	-100	0	230	101300000	1000	0	0	-1	0
23818155	499	4	0	-100	0	230	101300000	1000	0	0	-1	0
23830715	499	3	0	-100	0	230	101300000	1000	0	0	-1	0
23843275	501	0	0	-100	0	230	101300000	1000	0	0	-1	0
23855835	509	0	0	-100	0	230	101300000	1000	0	0	-1	0
23868395	501	0	0	-100	0	230	101300000	1000	0	0	-1	0
23880955	499	2	0	-100	0	230	101300000	1000	0	0	-1	0
23893515	501	0	0	-100	0	230	101300000	1000	0	0	-1	0
23906075	504	0	0	-100	0	230	101300000	1000	0	0	-1	0
23918635	506	0	0	-100	0	230	101300000	1000	0	0	-1	0
23931195	499	0	0	-100	0	230	101300000	1000	0	0	-1	0
23943755	501	4	0	-100	0	230	101300000	1000	0	0	-1	0
23956315	502	0	0	-100	0	230	101300000	1000	0	0	-1	0
23968875	504	0	0	-100	0	230	101300000	1000	0	0	-1	0
23981435	509	0	0	-100	0	230	101300000	1000	0	0	-1	0
23993995	509	2	0	-100	0	230	101300000	1000	0	0	-1	0
24006555	499	0	0	-100	0	230	101300000	1000	0	0	-1	0
24019115	499	4	0	-100	0	230	101300000	1000	0	0	-1	0
24031675	501	0	0	-100	0	230	101300000	1000	0	0	-1	0
24044235	506	0	0	-100	0	230	101300000	1000	0	0	-1	0
24056795	508	0	0	-100	0	230	101300000	1000	0	0	-1	0
24069355	501	0	0	-100	0	230	101300000	1000	0	0	-1	0
24081915	501	0	0	-100	0	230	101300000	1000	0	0	-1	0
24094475	501	2	0	-100	0	230	101300000	1000	0	0	-1	0
24107035	497	1	0	-100	0	230	101300000	1000	0	0	-1	0
24119595	501	3	0	-100	0	230	101300000	1000	0	0	-1	0
24132155	496	0	0	-100	0	230	101300000	1000	0	0	-1	0
24144715	501	0	0	-100	0	230	101300000	1000	0	0	-1	0
24157275	504	0	0	-100	0	230	101300000	1000	0	0	-1	0
24169835	503	0	0	-100	0	230	101300000	1000	0	0	-1	0
24182395	506	0	0	-100	0	230	101300000	1000	0	0	-1	0
24194955	506	0	0	-100	0	230	101300000	1000	0	0	-1	0
24207515	501	0	0	-100	0	230	101300000	1000	0	0	-1	0
24220075	501	0	0	-100	0	230	101300000	1000	0	0	-1	0
24232635	499	0	0	-100	0	230	101300000	1000	0	0	-1	0
24245195	501	0	0	-100	0	230	101300000	1000	0	0	-1	0
24257755	504	3	0	-100	0	230	101300000	1000	0	0	-1	0
24270315	499	3	0	-100	0	230	101300000	1000	0	0	-1	0
24282875	499	3	0	-100	0	230	101300000	1000	0	0	-1	0
24295435	501	3	0	-100	0	230	101300000	1000	0	0	-1	0
24307995	499	0	0	-100	0	230	101300000	1000	0	0	-1	0
24320555	501	3	0	-100	0	230	101300000	1000	0	0	-1	0
24333115	501	3	0	-100	0	230	101300000	1000	0	0	-1	0
24345675	501	3	0	-100	0	230	101300000	1000	0	0	-1	0
24358235	501	0	0	-100	0	230	101300000	1000	0	0	-1	0
24370795	501	0	0	-100	0	230	101300000	1000	0	0	-1	0
24383355	506	0	0	-100	0	230	101300000	1000	0	0	-1	0
24395915	509	0	0	-100	0	230	101300000	1000	0	0	-1	0
24408475	504	0	0	-100	0	230	101300000	1000	0	0	-1	0
24421035	504	0	0	-100	0	230	101300000	1000	0	0	-1	0
24433595	506	0	0	-100	0	230	101300000	1000	0	0	-1	0
24446155	499	0	0	-100	0	230	101300000	1000	0	0	-1	0
24458715	504	0	0	-100	0	230	101300000	1000	0	0	-1	0
24471275	501	0	0	-100	0	230	101300000	1000	0	0	-1	0
24483835	499	0	0	-100	0	230	101300000	1000	0	0	-1	0
24496395	501	2	0	-100	0	230	101300000	1000	0	0	-1	0
24508955	499	3	0	-100	0	230	101300000	1000	0	0	-1	0
24521515	504	0	0	-100	0	230	101300000	1000	0	0	-1	0
24534075	501	0	0	-100	0	230	101300000	1000	0	0	-1	0
24546635	499	2	0	-100	0	230	101300000	1000	0	0	-1	0
24559195	501	3	0	-100	0	230	101300000	1000	0	0	-1	0
24571755	499	2	0	-100	0	230	101300000	1000	0	0	-1	0
24584315	499	0	0	-100	0	230	101300000	1000	0	0	-1	0
24596875	499	0	0	-100	0	230	101300000	1000	0	0	-1	0
24609435	499	0	0	-100	0	230	101300000	1000	0	0	-1	0
24621995	499	0	0	-100	0	230	101300000	1000	0	0	-1	0
24634555	501	0	0	-100	0	230	101300000	1000	0	0	-1	0
24647115	506	0	0	-100	0	230	101300000	1000	0	0	-1	0
24659675	508	0	0	-100	0	230	101300000	1000	0	0	-1	0
24672235	501	0	0	-100	0	230	101300000	1000	0	0	-1	0
24684795	499	2	0	-100	0	230	101300000	1000	0	0	-1	0
24697355	501	3	0	-100	0	230	101300000	1000	0	0	-1	0
24709915	499	0	0	-100	0	230	101300000	1000	0	0	-1	0
24722475	504	0	0	-100	0	230	101300000	1000	0	0	-1	0
24735035	506	0	0	-100	0	230	101300000	1000	0	0	-1	0
24747595	504	0	0	-100	0	230	101300000	1000	0	0	-1	0
24760155	498	2	0	-100	0	230	101300000	1000	0	0	-1	0
24772715	501	1	0	-100	0	230	101300000	1000	0	0	-1	0
24785275	499	0	0	-100	0	230	101300000	1000	0	0	-1	0
24797835	499	0	0	-100	0	230	101300000	1000	0	0	-1	0
24810395	504	0	0	-100	0	230	101300000	1000	0	0	-1	0
24822955	504	0	0	-100	0	230	101300000	1000	0	0	-1	0
24835515	501	0	0	-100	0	230	101300000	1000	0	0	-1	0
24848075	499	0	0	-100	0	230	101300000	1000	0	0	-1	0
24860635	501	0	0	-100	0	230	101300000	1000	0	0	-1	0
24873195	504	0	0	-100	0	230	101300000	1000	0	0	-1	0
24885755	499	0	0	-100	0	230	101300000	1000	0	0	-1	0
24898315	501	3	0	-100	0	230	101300000	1000	0	0	-1	0
24910875	499	0	0	-100	0	230	101300000	1000	0	0	-1	0
24923435	506	0	0	-100	0	230	101300000	1000	0	0	-1	0
24935995	506	2	0	-100	0	230	101300000	1000	0	0	-1	0
24948555	499	0	0	-100	0	230	101300000	1000	0	0	-1	0
24961115	499	3	0	-100	0	230	101300000	1000	0	0	-1	0
24973675	504	0	0	-100	0	230	101300000	1000	0	0	-1	0
24986235	509	0	0	-100	0	230	101300000	1000	0	0	-1	0
25023915	502	0	0	-100	0	230	101300000	1000	0	0	-1	0
25036475	502	2	0	-100	0	230	101300000	1000	0	0	-1	0
25049035	499	0	0	-100	0	230	101300000	1000	0	0	-1	0
25061595	504	0	0	-100	0	230	101300000	1000	0	0	-1	0
25074155	499	0	0	-100	0	230	101300000	1000	0	0	-1	0
25086715	497	2	0	-100	0	230	101300000	1000	0	0	-1	0
25099275	501	0	0	-100	0	230	101300000	1000	0	0	-1	0
25111835	506	0	0	-100	0	230	101300000	1000	0	0	-1	0
25124395	506	0	0	-100	0	230	101300000	1000	0	0	-1	0
25136955	504	0	0	-100	0	230	101300000	1000	0	0	-1	0
25149515	499	0	0	-100	0	230	101300000	1000	0	0	-1	0
25162075	497	1	0	-100	0	230	101300000	1000	0	0	-1	0
25174635	501	2	0	-100	0	230	101300000	1000	0	0	-1	0
25187195	501	0	0	-100	0	230	101300000	1000	0	0	-1	0
25199755	501	0	0	-100	0	230	101300000	1000	0	0	-1	0
25212315	504	0	0	-100	0	230	101300000	1000	0	0	-1	0
25224875	506	0	0	-100	0	230	101300000	1000	0	0	-1	0
25237435	506	0	0	-100	0	230	101300000	1000	0	0	-1	0
25249995	504	2	0	-100	0	230	101300000	1000	0	0	-1	0
25262555	504	0	0	-100	0	230	101300000	1000	0	0	-1	0
25275115	501	0	0	-100	0	230	101300000	1000	0	0	-1	0
25287675	499	0	0	-100	0	230	101300000	1000	0	0	-1	0
25300235	499	2	0	-100	0	230	101300000	1000	0	0	-1	0
25312795	499	0	0	-100	0	230	101300000	1000	0	0	-1	0
25325355	499	0	0	-100	0	230	101300000	1000	0	0	-1	0
25337915	501	0	0	-100	0	230	101300000	1000	0	0	-1	0
25350475	506	0	0	-100	0	230	101300000	1000	0	0	-1	0
25363035	506	0	0	-100	0	230	101300000	1000	0	0	-1	0
25375595	499	0	0	-100	0	230	101300000	1000	0	0	-1	0
25388155	494	4	0	-100	0	230	101300000	1000	0	0	-1	0
25400715	501	3	0	-100	0	230	101300000	1000	0	0	-1	0
25413275	504	5	0	-100	0	230	101300000	1000	0	0	-1	0
25425835	501	0	0	-100	0	230	101300000	1000	0	0	-1	0
25438395	506	0	0	-100	0	230	101300000	1000	0	0	-1	0
25450955	506	0	0	-100	0	230	101300000	1000	0	0	-1	0
25463515	506	0	0	-100	0	230	101300000	1000	0	0	-1	0
25476075	501	0	0	-100	0	230	101300000	1000	0	0	-1	0
25488635	499	1	0	-100	0	230	101300000	1000	0	0	-1	0
25501195	499	2	0	-100	0	230	101300000	1000	0	0	-1	0
25513755	501	4	0	-100	0	230	101300000	1000	0	0	-1	0
25526315	501	0	0	-100	0	230	101300000	1000	0	0	-1	0
25538875	499	0	0	-100	0	230	101300000	1000	0	0	-1	0
25551435	499	0	0	-100	0	230	101300000	1000	0	0	-1	0
25563995	504	0	0	-100	0	230	101300000	1000	0	0	-1	0
25576555	506	0	0	-100	0	230	101300000	1000	0	0	-1	0
25589115	509	0	0	-100	0	230	101300000	1000	0	0	-1	0
25601675	501	0	0	-100	0	230	101300000	1000	0	0	-1	0
25614235	499	0	0	-100	0	230	101300000	1000	0	0	-1	0
25626795	497	2	0	-100	0	230	101300000	1000	0	0	-1	0
25639355	501	0	0	-100	0	230	101300000	1000	0	0	-1	0
25651915	499	0	0	-100	0	230	101300000	1000	0	0	-1	0
25664475	499	0	0	-100	0	230	101300000	1000	0	0	-1	0
25677035	504	0	0	-100	0	230	101300000	1000	0	0	-1	0
25689595	501	0	0	-100	0	230	101300000	1000	0	0	-1	0
25702155	501	0	0	-100	0	230	101300000	1000	0	0	-1	0
25714715	511	0	0	-100	0	230	101300000	1000	0	0	-1	0
25727275	506	0	0	-100	0	230	101300000	1000	0	0	-1	0
25739835	506	0	0	-100	0	230	101300000	1000	0	0	-1	0
25752395	504	0	0	-100	0	230	101300000	1000	0	0	-1	0
25764955	497	1	0	-100	0	230	101300000	1000	0	0	-1	0
25777515	501	2	0	-100	0	230	101300000	1000	0	0	-1	0
25790075	499	0	0	-100	0	230	101300000	1000	0	0	-1	0
25802635	499	0	0	-100	0	230	101300000	1000	0	0	-1	0
25815195	504	0	0	-100	0	230	101300000	1000	0	0	-1	0
25827755	504	0	0	-100	0	230	101300000	1000	0	0	-1	0
25840315	506	0	0	-100	0	230	101300000	1000	0	0	-1	0
25852875	506	0	0	-100	0	230	101300000	1000	0	0	-1	0
25865435	504	0	0	-100	0	230	101300000	1000	0	0	-1	0
25877995	502	0	0	-100	0	230	101300000	1000	0	0	-1	0
25890555	499	2	0	-100	0	230	101300000	1000	0	0	-1	0
25903115	499	0	0	-100	0	230	101300000	1000	0	0	-1	0
25915675	506	0	0	-100	0	230	101300000	1000	0	0	-1	0
25928235	506	0	0	-100	0	230	101300000	1000	0	0	-1	0
25940795	504	0	0	-100	0	230	101300000	1000	0	0	-1	0
25953355	499	1	0	-100	0	230	101300000	1000	0	0	-1	0
25965915	496	0	0	-100	0	230	101300000	1000	0	0	-1	0
25978475	504	0	0	-100	0	230	101300000	1000	0	0	-1	0
25991035	506	0	0	-100	0	230	101300000	1000	0	0	-1	0
26003595	509	0	0	-100	0	230	101300000	1000	0	0	-1	0
26016155	496	2	0	-100	0	230	101300000	1000	0	0	-1	0
26028715	499	4	0	-100	0	230	101300000	1000	0	0	-1	0
26041275	499	0	0	-100	0	230	101300000	1000	0	0	-1	0
26053835	506	0	0	-100	0	230	101300000	1000	0	0	-1	0
26066395	506	0	0	-100	0	230	101300000	1000	0	0	-1	0
26078955	501	0	0	-100	0	230	101300000	1000	0	0	-1	0
26091515	502	2	0	-100	0	230	101300000	1000	0	0	-1	0
26104075	501	0	0	-100	0	230	101300000	1000	0	0	-1	0
26116635	506	0	0	-100	0	230	101300000	1000	0	0	-1	0
26129195	504	0	0	-100	0	230	101300000	1000	0	0	-1	0
26141755	504	0	0	-100	0	230	101300000	1000	0	0	-1	0
26154315	499	1	0	-100	0	230	101300000	1000	0	0	-1	0
26166875	501	0	0	-100	0	230	101300000	1000	0	0	-1	0
26179435	501	0	0	-100	0	230	101300000	1000	0	0	-1	0
26191995	506	0	0	-100	0	230	101300000	1000	0	0	-1	0
26204555	506	0	0	-100	0	230	101300000	1000	0	0	-1	0
26217115	504	0	0	-100	0	230	101300000	1000	0	0	-1	0
26229675	497	0	0	-100	0	230	101300000	1000	0	0	-1	0
26242235	499	0	0	-100	0	230	101300000	1000	0	0	-1	0
26254795	502	1	0	-100	0	230	101300000	1000	0	0	-1	0
26267355	501	0	0	-100	0	230	101300000	1000	0	0	-1	0
26279915	501	0	0	-100	0	230	101300000	1000	0	0	-1	0
26292475	506	0	0	-100	0	230	101300000	1000	0	0	-1	0
26305035	509	0	0	-100	0	230	101300000	1000	0	0	-1	0
26317595	506	0	0	-100	0	230	101300000	1000	0	0	-1	0
26330155	496	0	0	-100	0	230	101300000	1000	0	0	-1	0
26342715	501	0	0	-100	0	230	101300000	1000	0	0	-1	0
26355275	499	1	0	-100	0	230	101300000	1000	0	0	-1	0
26367835	501	3	0	-100	0	230	101300000	1000	0	0	-1	0
26380395	501	0	0	-100	0	230	101300000	1000	0	0	-1	0
26392955	501	0	0	-100	0	230	101300000	1000	0	0	-1	0
26405515	501	0	0	-100	0	230	101300000	1000	0	0	-1	0
26418075	504	0	0	-100	0	230	101300000	1000	0	0	-1	0
26430635	506	0	0	-100	0	230	101300000	1000	0	0	-1	0
26443195	506	0	0	-100	0	230	101300000	1000	0	0	-1	0
26455755	504	0	0	-100	0	230	101300000	1000	0	0	-1	0
26468315	497	0	0	-100	0	230	101300000	1000	0	0	-1	0
26480875	504	5	0	-100	0	230	101300000	1000	0	0	-1	0
26493435	499	0	0	-100	0	230	101300000	1000	0	0	-1	0
26505995	504	0	0	-100	0	230	101300000	1000	0	0	-1	0
26518555	506	0	0	-100	0	230	101300000	1000	0	0	-1	0
26531115	504	0	0	-100	0	230	101300000	1000	0	0	-1	0
26543675	504	0	0	-100	0	230	101300000	1000	0	0	-1	0
26556235	504	0	0	-100	0	230	101300000	1000	0	0	-1	0
26568795	506	0	0	-100	0	230	101300000	1000	0	0	-1	0
26581355	509	0	0	-100	0	230	101300000	1000	0	0	-1	0
26593915	502	0	0	-100	0	230	101300000	1000	0	0	-1	0
26606475	501	2	0	-100	0	230	101300000	1000	0	0	-1	0
26619035	504	5	0	-100	0	230	101300000	1000	0	0	-1	0
26631595	501	0	0	-100	0	230	101300000	1000	0	0	-1	0
26644155	496	0	0	-100	0	230	101300000	1000	0	0	-1	0
26656715	506	0	0	-100	0	230	101300000	1000	0	0	-1	0
26669275	504	0	0	-100	0	230	101300000	1000	0	0	-1	0
26681835	506	0	0	-100	0	230	101300000	1000	0	0	-1	0
26694395	506	0	0	-100	0	230	101300000	1000	0	0	-1	0
26706955	502	0	0	-100	0	230	101300000	1000	0	0	-1	0
26719515	499	0	0	-100	0	230	101300000	1000	0	0	-1	0
26732075	499	3	0	-100	0	230	101300000	1000	0	0	-1	0
26744635	499	0	0	-100	0	230	101300000	1000	0	0	-1	0
26757195	504	0	0	-100	0	230	101300000	1000	0	0	-1	0
26769755	509	0	0	-100	0	230	101300000	1000	0	0	-1	0
26782315	506	0	0	-100	0	230	101300000	1000	0	0	-1	0
26794875	509	0	0	-100	0	230	101300000	1000	0	0	-1	0
26807435	506	0	0	-100	0	230	101300000	1000	0	0	-1	0
26819995	501	0	0	-100	0	230	101300000	1000	0	0	-1	0
26832555	499	3	0	-100	0	230	101300000	1000	0	0	-1	0
26845115	499	0	0	-100	0	230	101300000	1000	0	0	-1	0
26857675	509	0	0	-100	0	230	101300000	1000	0	0	-1	0
26870235	506	0	0	-100	0	230	101300000	1000	0	0	-1	0
26882795	502	0	0	-100	0	230	101300000	1000	0	0	-1	0
26895355	499	1	0	-100	0	230	101300000	1000	0	0	-1	0
26907915	499	3	0	-100	0	230	101300000	1000	0	0	-1	0
26920475	501	0	0	-100	0	230	101300000	1000	0	0	-1	0
26933035	506	0	0	-100	0	230	101300000	1000	0	0	-1	0
26945595	502	0	0	-100	0	230	101300000	1000	0	0	-1	0
26958155	496	3	0	-100	0	230	101300000	1000	0	0	-1	0
26970715	501	3	0	-100	0	230	101300000	1000	0	0	-1	0
26983275	497	0	0	-100	0	230	101300000	1000	0	0	-1	0
26995835	506	0	0	-100	0	230	101300000	1000	0	0	-1	0
27008395	504	0	0	-100	0	230	101300000	1000	0	0	-1	0
27020955	509	0	0	-100	0	230	101300000	1000	0	0	-1	0
27033515	499	0	0	-100	0	230	101300000	1000	0	0	-1	0
27046075	497	1	0	-100	0	230	101300000	1000	0	0	-1	0
