timestamp	voltage	current	windSpeed	pitchAngle	rpm	temperature	ambientPressure	humidity	accelerationX	accelerationY	accelerationZ	currentSink
7038070	1010	0	0	-100	0	230	101300000	1000	0	0	-1	0
7045523	1001	4	0	-100	0	230	101300000	1000	0	0	-1	0
7058083	1001	0	0	-100	0	230	101300000	1000	0	0	-1	0
7070643	1005	0	0	-100	0	230	101300000	1000	0	0	-1	0
7083203	998	4	0	-100	0	230	101300000	1000	0	0	-1	0
7095763	993	0	0	-100	0	230	101300000	1000	0	0	-1	0
7108323	1005	0	0	-100	0	230	101300000	1000	0	0	-1	0
7120883	1008	0	0	-100	0	230	101300000	1000	0	0	-1	0
7133443	995	1	0	-100	0	230	101300000	1000	0	0	-1	0
7146004	1003	0	0	-100	0	230	101300000	1000	0	0	-1	0
7158563	995	0	0	-100	0	230	101300000	1000	0	0	-1	0
7171123	1003	0	0	-100	0	230	101300000	1000	0	0	-1	0
7183683	1003	0	0	-100	0	230	101300000	1000	0	0	-1	0
7196243	996	4	0	-100	0	230	101300000	1000	0	0	-1	0
7208803	998	0	0	-100	0	230	101300000	1000	0	0	-1	0
7221363	1002	0	0	-100	0	230	101300000	1000	0	0	-1	0
7233923	996	1	0	-100	0	230	101300000	1000	0	0	-1	0
7246483	998	4	0	-100	0	230	101300000	1000	0	0	-1	0
7259043	995	0	0	-100	0	230	101300000	1000	0	0	-1	0
7271603	1005	0	0	-100	0	230	101300000	1000	0	0	-1	0
7284163	1013	0	0	-100	0	230	101300000	1000	0	0	-1	0
7296723	995	2	0	-100	0	230	101300000	1000	0	0	-1	0
7309283	1001	2	0	-100	0	230	101300000	1000	0	0	-1	0
7321843	1002	0	0	-100	0	230	101300000	1000	0	0	-1	0
7334403	998	0	0	-100	0	230	101300000	1000	0	0	-1	0
7346963	998	4	0	-100	0	230	101300000	1000	0	0	-1	0
7702675	1002	0	0	-100	0	230	101300000	1000	0	0	-1	0
7715235	1003	0	0	-100	0	230	101300000	1000	0	0	-1	0
7727795	996	1	0	-100	0	230	101300000	1000	0	0	-1	0
7740355	998	1	0	-100	0	230	101300000	1000	0	0	-1	0
7752915	1000	0	0	-100	0	230	101300000	1000	0	0	-1	0
7765475	1005	0	0	-100	0	230	101300000	1000	0	0	-1	0
7778035	1003	0	0	-100	0	230	101300000	1000	0	0	-1	0
7790595	1001	0	0	-100	0	230	101300000	1000	0	0	-1	0
7803155	1000	2	0	-100	0	230	101300000	1000	0	0	-1	0
7815715	995	3	0	-100	0	230	101300000	1000	0	0	-1	0
7828275	998	4	0	-100	0	230	101300000	1000	0	0	-1	0
7840835	995	0	0	-100	0	230	101300000	1000	0	0	-1	0
7853395	1003	0	0	-100	0	230	101300000	1000	0	0	-1	0
7865955	1001	0	0	-100	0	230	101300000	1000	0	0	-1	0
7878515	996	4	0	-100	0	230	101300000	1000	0	0	-1	0
7891075	998	0	0	-100	0	230	101300000	1000	0	0	-1	0
7903635	1003	0	0	-100	0	230	101300000	1000	0	0	-1	0
7916195	1000	0	0	-100	0	230	101300000	1000	0	0	-1	0
7928755	995	1	0	-100	0	230	101300000	1000	0	0	-1	0
7941315	998	1	0	-100	0	230	101300000	1000	0	0	-1	0
7953875	1000	0	0	-100	0	230	101300000	1000	0	0	-1	0
7966435	1002	0	0	-100	0	230	101300000	1000	0	0	-1	0
7978995	1000	0	0	-100	0	230	101300000	1000	0	0	-1	0
7991555	996	4	0	-100	0	230	101300000	1000	0	0	-1	0
8004115	1000	0	0	-100	0	230	101300000	1000	0	0	-1	0
8016675	1005	0	0	-100	0	230	101300000	1000	0	0	-1	0
8029235	998	0	0	-100	0	230	101300000	1000	0	0	-1	0
8041795	998	4	0	-100	0	230	101300000	1000	0	0	-1	0
8054355	998	0	0	-100	0	230	101300000	1000	0	0	-1	0
8066915	998	0	0	-100	0	230	101300000	1000	0	0	-1	0
8079475	998	0	0	-100	0	230	101300000	1000	0	0	-1	0
8092035	1000	0	0	-100	0	230	101300000	1000	0	0	-1	0
8104595	1002	0	0	-100	0	230	101300000	1000	0	0	-1	0
8117155	1008	0	0	-100	0	230	101300000	1000	0	0	-1	0
8129715	1005	0	0	-100	0	230	101300000	1000	0	0	-1	0
8142275	1002	0	0	-100	0	230	101300000	1000	0	0	-1	0
8154835	1000	0	0	-100	0	230	101300000	1000	0	0	-1	0
8167395	998	1	0	-100	0	230	101300000	1000	0	0	-1	0
8179955	995	4	0	-100	0	230	101300000	1000	0	0	-1	0
8192515	997	1	0	-100	0	230	101300000	1000	0	0	-1	0
8205075	1001	0	0	-100	0	230	101300000	1000	0	0	-1	0
8217635	998	0	0	-100	0	230	101300000	1000	0	0	-1	0
8230195	1008	0	0	-100	0	230	101300000	1000	0	0	-1	0
8242755	1000	0	0	-100	0	230	101300000	1000	0	0	-1	0
8255315	1002	0	0	-100	0	230	101300000	1000	0	0	-1	0
8267875	1001	0	0	-100	0	230	101300000	1000	0	0	-1	0
8280435	998	0	0	-100	0	230	101300000	1000	0	0	-1	0
8292995	1000	0	0	-100	0	230	101300000	1000	0	0	-1	0
8305555	996	0	0	-100	0	230	101300000	1000	0	0	-1	0
8318115	994	3	0	-100	0	230	101300000	1000	0	0	-1	0
8330675	998	4	0	-100	0	230	101300000	1000	0	0	-1	0
8343235	996	3	0	-100	0	230	101300000	1000	0	0	-1	0
8355795	996	4	0	-100	0	230	101300000	1000	0	0	-1	0
8368355	998	1	0	-100	0	230	101300000	1000	0	0	-1	0
8380915	995	0	0	-100	0	230	101300000	1000	0	0	-1	0
8393475	995	0	0	-100	0	230	101300000	1000	0	0	-1	0
8406035	1000	0	0	-100	0	230	101300000	1000	0	0	-1	0
8418595	998	0	0	-100	0	230	101300000	1000	0	0	-1	0
8431155	1008	0	0	-100	0	230	101300000	1000	0	0	-1	0
8443715	1005	0	0	-100	0	230	101300000	1000	0	0	-1	0
8456275	1002	0	0	-100	0	230	101300000	1000	0	0	-1	0
8468835	1005	0	0	-100	0	230	101300000	1000	0	0	-1	0
8481395	998	0	0	-100	0	230	101300000	1000	0	0	-1	0
8493955	995	0	0	-100	0	230	101300000	1000	0	0	-1	0
8506515	996	3	0	-100	0	230	101300000	1000	0	0	-1	0
8519075	998	4	0	-100	0	230	101300000	1000	0	0	-1	0
8531635	998	0	0	-100	0	230	101300000	1000	0	0	-1	0
8544195	998	0	0	-100	0	230	101300000	1000	0	0	-1	0
8556755	998	0	0	-100	0	230	101300000	1000	0	0	-1	0
8569315	1003	0	0	-100	0	230	101300000	1000	0	0	-1	0
8581875	1002	0	0	-100	0	230	101300000	1000	0	0	-1	0
8594435	1000	0	0	-100	0	230	101300000	1000	0	0	-1	0
8606995	1003	0	0	-100	0	230	101300000	1000	0	0	-1	0
8619555	998	0	0	-100	0	230	101300000	1000	0	0	-1	0
8632115	998	0	0	-100	0	230	101300000	1000	0	0	-1	0
8644675	998	0	0	-100	0	230	101300000	1000	0	0	-1	0
8657235	995	0	0	-100	0	230	101300000	1000	0	0	-1	0
8669795	998	0	0	-100	0	230	101300000	1000	0	0	-1	0
8682355	1003	0	0	-100	0	230	101300000	1000	0	0	-1	0
8694915	1003	0	0	-100	0	230	101300000	1000	0	0	-1	0
8707475	1002	0	0	-100	0	230	101300000	1000	0	0	-1	0
8720035	1000	0	0	-100	0	230	101300000	1000	0	0	-1	0
8732595	1000	0	0	-100	0	230	101300000	1000	0	0	-1	0
8745155	1007	0	0	-100	0	230	101300000	1000	0	0	-1	0
8757715	1000	0	0	-100	0	230	101300000	1000	0	0	-1	0
8770275	1003	0	0	-100	0	230	101300000	1000	0	0	-1	0
8782835	1003	0	0	-100	0	230	101300000	1000	0	0	-1	0
8795395	1000	0	0	-100	0	230	101300000	1000	0	0	-1	0
8807955	1002	0	0	-100	0	230	101300000	1000	0	0	-1	0
8820515	1001	0	0	-100	0	230	101300000	1000	0	0	-1	0
8833075	1002	0	0	-100	0	230	101300000	1000	0	0	-1	0
8845635	1005	0	0	-100	0	230	101300000	1000	0	0	-1	0
8858195	1002	0	0	-100	0	230	101300000	1000	0	0	-1	0
8870755	998	0	0	-100	0	230	101300000	1000	0	0	-1	0
8883315	996	1	0	-100	0	230	101300000	1000	0	0	-1	0
8895875	998	4	0	-100	0	230	101300000	1000	0	0	-1	0
8908435	1002	0	0	-100	0	230	101300000	1000	0	0	-1	0
8920995	1005	3	0	-100	0	230	101300000	1000	0	0	-1	0
8933555	995	3	0	-100	0	230	101300000	1000	0	0	-1	0
8946115	1000	0	0	-100	0	230	101300000	1000	0	0	-1	0
8958675	1000	0	0	-100	0	230	101300000	1000	0	0	-1	0
8971235	1002	0	0	-100	0	230	101300000	1000	0	0	-1	0
8983795	1008	0	0	-100	0	230	101300000	1000	0	0	-1	0
8996355	993	1	0	-100	0	230	101300000	1000	0	0	-1	0
9008915	1000	0	0	-100	0	230	101300000	1000	0	0	-1	0
9021475	1002	0	0	-100	0	230	101300000	1000	0	0	-1	0
9034035	1002	0	0	-100	0	230	101300000	1000	0	0	-1	0
9046595	995	1	0	-100	0	230	101300000	1000	0	0	-1	0
9059155	1001	0	0	-100	0	230	101300000	1000	0	0	-1	0
9071715	1000	0	0	-100	0	230	101300000	1000	0	0	-1	0
9084275	1005	0	0	-100	0	230	101300000	1000	0	0	-1	0
9096835	1001	0	0	-100	0	230	101300000	1000	0	0	-1	0
9109395	996	2	0	-100	0	230	101300000	1000	0	0	-1	0
9121955	995	0	0	-100	0	230	101300000	1000	0	0	-1	0
9134515	998	0	0	-100	0	230	101300000	1000	0	0	-1	0
9147075	1005	0	0	-100	0	230	101300000	1000	0	0	-1	0
9159635	998	0	0	-100	0	230	101300000	1000	0	0	-1	0
9172195	996	1	0	-100	0	230	101300000	1000	0	0	-1	0
9184755	998	4	0	-100	0	230	101300000	1000	0	0	-1	0
9197315	995	4	0	-100	0	230	101300000	1000	0	0	-1	0
9209875	995	0	0	-100	0	230	101300000	1000	0	0	-1	0
9222435	1002	0	0	-100	0	230	101300000	1000	0	0	-1	0
9234995	1003	3	0	-100	0	230	101300000	1000	0	0	-1	0
9247555	1003	0	0	-100	0	230	101300000	1000	0	0	-1	0
9260115	996	1	0	-100	0	230	101300000	1000	0	0	-1	0
9272675	996	3	0	-100	0	230	101300000	1000	0	0	-1	0
9285235	998	4	0	-100	0	230	101300000	1000	0	0	-1	0
9297795	995	0	0	-100	0	230	101300000	1000	0	0	-1	0
9310355	998	0	0	-100	0	230	101300000	1000	0	0	-1	0
9322915	1003	0	0	-100	0	230	101300000	1000	0	0	-1	0
9335475	1002	0	0	-100	0	230	101300000	1000	0	0	-1	0
9348035	998	1	0	-100	0	230	101300000	1000	0	0	-1	0
9360595	996	3	0	-100	0	230	101300000	1000	0	0	-1	0
9373155	1003	0	0	-100	0	230	101300000	1000	0	0	-1	0
9385715	1000	0	0	-100	0	230	101300000	1000	0	0	-1	0
9398275	1003	0	0	-100	0	230	101300000	1000	0	0	-1	0
9410835	1007	0	0	-100	0	230	101300000	1000	0	0	-1	0
9423395	995	4	0	-100	0	230	101300000	1000	0	0	-1	0
9435955	995	0	0	-100	0	230	101300000	1000	0	0	-1	0
9448515	1003	0	0	-100	0	230	101300000	1000	0	0	-1	0
9461075	1003	0	0	-100	0	230	101300000	1000	0	0	-1	0
9473635	993	1	0	-100	0	230	101300000	1000	0	0	-1	0
9486195	1000	3	0	-100	0	230	101300000	1000	0	0	-1	0
9498755	993	0	0	-100	0	230	101300000	1000	0	0	-1	0
9511315	1003	0	0	-100	0	230	101300000	1000	0	0	-1	0
9523875	1003	0	0	-100	0	230	101300000	1000	0	0	-1	0
9536435	1003	0	0	-100	0	230	101300000	1000	0	0	-1	0
9548995	1007	3	0	-100	0	230	101300000	1000	0	0	-1	0
9561555	1001	0	0	-100	0	230	101300000	1000	0	0	-1	0
9574115	995	2	0	-100	0	230	101300000	1000	0	0	-1	0
9586675	998	4	0	-100	0	230	101300000	1000	0	0	-1	0
9599235	998	1	0	-100	0	230	101300000	1000	0	0	-1	0
9611795	998	0	0	-100	0	230	101300000	1000	0	0	-1	0
9624355	1002	0	0	-100	0	230	101300000	1000	0	0	-1	0
9636915	1002	0	0	-100	0	230	101300000	1000	0	0	-1	0
9649475	1003	0	0	-100	0	230	101300000	1000	0	0	-1	0
9662035	1002	0	0	-100	0	230	101300000	1000	0	0	-1	0
9674595	1002	0	0	-100	0	230	101300000	1000	0	0	-1	0
9687155	1006	0	0	-100	0	230	101300000	1000	0	0	-1	0
9699715	995	2	0	-100	0	230	101300000	1000	0	0	-1	0
9712275	996	4	0	-100	0	230	101300000	1000	0	0	-1	0
9724835	998	4	0	-100	0	230	101300000	1000	0	0	-1	0
9737395	995	0	0	-100	0	230	101300000	1000	0	0	-1	0
9749955	1001	0	0	-100	0	230	101300000	1000	0	0	-1	0
9762515	1007	0	0	-100	0	230	101300000	1000	0	0	-1	0
9775075	995	0	0	-100	0	230	101300000	1000	0	0	-1	0
9787635	1001	4	0	-100	0	230	101300000	1000	0	0	-1	0
9800195	996	0	0	-100	0	230	101300000	1000	0	0	-1	0
9812755	1000	0	0	-100	0	230	101300000	1000	0	0	-1	0
9825315	1002	0	0	-100	0	230	101300000	1000	0	0	-1	0
9837875	998	0	0	-100	0	230	101300000	1000	0	0	-1	0
9850435	996	3	0	-100	0	230	101300000	1000	0	0	-1	0
9862995	1000	0	0	-100	0	230	101300000	1000	0	0	-1	0
9875555	998	0	0	-100	0	230	101300000	1000	0	0	-1	0
9888115	1003	0	0	-100	0	230	101300000	1000	0	0	-1	0
9900675	1003	0	0	-100	0	230	101300000	1000	0	0	-1	0
9913235	1002	0	0	-100	0	230	101300000	1000	0	0	-1	0
9925795	998	1	0	-100	0	230	101300000	1000	0	0	-1	0
9938355	995	3	0	-100	0	230	101300000	1000	0	0	-1	0
9950915	995	0	0	-100	0	230	101300000	1000	0	0	-1	0
9963475	1002	0	0	-100	0	230	101300000	1000	0	0	-1	0
9976035	1005	0	0	-100	0	230	101300000	1000	0	0	-1	0
9988595	998	3	0	-100	0	230	101300000	1000	0	0	-1	0
10001155	1000	0	0	-100	0	230	101300000	1000	0	0	-1	0
10013715	1003	0	0	-100	0	230	101300000	1000	0	0	-1	0
10026275	998	0	0	-100	0	230	101300000	1000	0	0	-1	0
10038835	993	0	0	-100	0	230	101300000	1000	0	0	-1	0
10051395	1003	0	0	-100	0	230	101300000	1000	0	0	-1	0
10063955	1005	0	0	-100	0	230	101300000	1000	0	0	-1	0
10076515	995	1	0	-100	0	230	101300000	1000	0	0	-1	0
10089075	1000	4	0	-100	0	230	101300000	1000	0	0	-1	0
10101635	996	4	0	-100	0	230	101300000	1000	0	0	-1	0
10114195	993	0	0	-100	0	230	101300000	1000	0	0	-1	0
10126755	998	0	0	-100	0	230	101300000	1000	0	0	-1	0
10139315	1000	0	0	-100	0	230	101300000	1000	0	0	-1	0
10151875	1003	0	0	-100	0	230	101300000	1000	0	0	-1	0
10164435	1005	0	0	-100	0	230	101300000	1000	0	0	-1	0
10176995	996	0	0	-100	0	230	101300000	1000	0	0	-1	0
10189555	996	1	0	-100	0	230	101300000	1000	0	0	-1	0
10202115	998	4	0	-100	0	230	101300000	1000	0	0	-1	0
10214675	998	1	0	-100	0	230	101300000	1000	0	0	-1	0
10227235	1000	0	0	-100	0	230	101300000	1000	0	0	-1	0
10239795	1001	0	0	-100	0	230	101300000	1000	0	0	-1	0
10252355	998	0	0	-100	0	230	101300000	1000	0	0	-1	0
10264915	1003	3	0	-100	0	230	101300000	1000	0	0	-1	0
10277475	993	0	0	-100	0	230	101300000	1000	0	0	-1	0
10290035	1005	0	0	-100	0	230	101300000	1000	0	0	-1	0
10302595	1003	0	0	-100	0	230	101300000	1000	0	0	-1	0
10315155	1001	1	0	-100	0	230	101300000	1000	0	0	-1	0
10327715	1001	4	0	-100	0	230	101300000	1000	0	0	-1	0
10340275	1000	0	0	-100	0	230	101300000	1000	0	0	-1	0
10352835	1002	0	0	-100	0	230	101300000	1000	0	0	-1	0
10365395	1001	0	0	-100	0	230	101300000	1000	0	0	-1	0
10377955	996	1	0	-100	0	230	101300000	1000	0	0	-1	0
10390515	998	4	0	-100	0	230	101300000	1000	0	0	-1	0
10403075	997	0	0	-100	0	230	101300000	1000	0	0	-1	0
10415635	995	0	0	-100	0	230	101300000	1000	0	0	-1	0
10428195	1002	0	0	-100	0	230	101300000	1000	0	0	-1	0
10440755	1001	0	0	-100	0	230	101300000	1000	0	0	-1	0
10453315	996	3	0	-100	0	230	101300000	1000	0	0	-1	0
10465875	1000	0	0	-100	0	230	101300000	1000	0	0	-1	0
10478435	1003	0	0	-100	0	230	101300000	1000	0	0	-1	0
10490995	996	0	0	-100	0	230	101300000	1000	0	0	-1	0
10503555	998	0	0	-100	0	230	101300000	1000	0	0	-1	0
10516115	1000	0	0	-100	0	230	101300000	1000	0	0	-1	0
10528675	998	4	0	-100	0	230	101300000	1000	0	0	-1	0
10541235	995	0	0	-100	0	230	101300000	1000	0	0	-1	0
10553795	1000	0	0	-100	0	230	101300000	1000	0	0	-1	0
10566355	998	0	0	-100	0	230	101300000	1000	0	0	-1	0
10578915	998	3	0	-100	0	230	101300000	1000	0	0	-1	0
10591475	998	0	0	-100	0	230	101300000	1000	0	0	-1	0
10604035	1003	0	0	-100	0	230	101300000	1000	0	0	-1	0
10616595	1001	0	0	-100	0	230	101300000	1000	0	0	-1	0
10629155	1003	3	0	-100	0	230	101300000	1000	0	0	-1	0
10641715	998	0	0	-100	0	230	101300000	1000	0	0	-1	0
10654275	1002	0	0	-100	0	230	101300000	1000	0	0	-1	0
10666835	1001	0	0	-100	0	230	101300000	1000	0	0	-1	0
10679395	995	3	0	-100	0	230	101300000	1000	0	0	-1	0
10691955	998	6	0	-100	0	230	101300000	1000	0	0	-1	0
10704515	998	0	0	-100	0	230	101300000	1000	0	0	-1	0
10717075	1002	0	0	-100	0	230	101300000	1000	0	0	-1	0
10729635	1002	0	0	-100	0	230	101300000	1000	0	0	-1	0
10742195	998	1	0	-100	0	230	101300000	1000	0	0	-1	0
10754755	996	4	0	-100	0	230	101300000	1000	0	0	-1	0
10767315	998	0	0	-100	0	230	101300000	1000	0	0	-1	0
10779875	1000	0	0	-100	0	230	101300000	1000	0	0	-1	0
10792435	1002	0	0	-100	0	230	101300000	1000	0	0	-1	0
10804995	1005	0	0	-100	0	230	101300000	1000	0	0	-1	0
10817555	993	3	0	-100	0	230	101300000	1000	0	0	-1	0
10830115	998	0	0	-100	0	230	101300000	1000	0	0	-1	0
10842675	1005	0	0	-100	0	230	101300000	1000	0	0	-1	0
10855235	995	1	0	-100	0	230	101300000	1000	0	0	-1	0
10867795	995	0	0	-100	0	230	101300000	1000	0	0	-1	0
10880355	1005	0	0	-100	0	230	101300000	1000	0	0	-1	0
10892915	996	1	0	-100	0	230	101300000	1000	0	0	-1	0
10905475	995	0	0	-100	0	230	101300000	1000	0	0	-1	0
10918035	1005	0	0	-100	0	230	101300000	1000	0	0	-1	0
10930595	998	0	0	-100	0	230	101300000	1000	0	0	-1	0
10943155	1001	2	0	-100	0	230	101300000	1000	0	0	-1	0
10955715	1001	0	0	-100	0	230	101300000	1000	0	0	-1	0
10968275	1003	0	0	-100	0	230	101300000	1000	0	0	-1	0
10980835	996	4	0	-100	0	230	101300000	1000	0	0	-1	0
10993395	998	0	0	-100	0	230	101300000	1000	0	0	-1	0
11005955	1005	0	0	-100	0	230	101300000	1000	0	0	-1	0
11018515	997	3	0	-100	0	230	101300000	1000	0	0	-1	0
11031075	997	0	0	-100	0	230	101300000	1000	0	0	-1	0
11043635	1000	0	0	-100	0	230	101300000	1000	0	0	-1	0
11056195	1000	0	0	-100	0	230	101300000	1000	0	0	-1	0
11068755	998	0	0	-100	0	230	101300000	1000	0	0	-1	0
11081315	996	3	0	-100	0	230	101300000	1000	0	0	-1	0
11093875	998	1	0	-100	0	230	101300000	1000	0	0	-1	0
11106435	1000	0	0	-100	0	230	101300000	1000	0	0	-1	0
11118995	1002	1	0	-100	0	230	101300000	1000	0	0	-1	0
11131555	996	1	0	-100	0	230	101300000	1000	0	0	-1	0
11144115	997	0	0	-100	0	230	101300000	1000	0	0	-1	0
11156675	1002	0	0	-100	0	230	101300000	1000	0	0	-1	0
11169235	1001	0	0	-100	0	230	101300000	1000	0	0	-1	0
11181795	998	3	0	-100	0	230	101300000	1000	0	0	-1	0
11194355	996	0	0	-100	0	230	101300000	1000	0	0	-1	0
11206915	1005	0	0	-100	0	230	101300000	1000	0	0	-1	0
11219475	993	0	0	-100	0	230	101300000	1000	0	0	-1	0
11232035	998	1	0	-100	0	230	101300000	1000	0	0	-1	0
11244595	1005	0	0	-100	0	230	101300000	1000	0	0	-1	0
11257155	1008	0	0	-100	0	230	101300000	1000	0	0	-1	0
11269715	995	2	0	-100	0	230	101300000	1000	0	0	-1	0
11282275	998	1	0	-100	0	230	101300000	1000	0	0	-1	0
11294835	1000	0	0	-100	0	230	101300000	1000	0	0	-1	0
11307395	1008	0	0	-100	0	230	101300000	1000	0	0	-1	0
11319955	998	3	0	-100	0	230	101300000	1000	0	0	-1	0
11345075	1005	0	0	-100	0	230	101300000	1000	0	0	-1	0
11357635	995	0	0	-100	0	230	101300000	1000	0	0	-1	0
11370195	998	4	0	-100	0	230	101300000	1000	0	0	-1	0
11382755	996	0	0	-100	0	230	101300000	1000	0	0	-1	0
11395315	1000	0	0	-100	0	230	101300000	1000	0	0	-1	0
11407875	1003	0	0	-100	0	230	101300000	1000	0	0	-1	0
11420435	995	3	0	-100	0	230	101300000	1000	0	0	-1	0
11432995	995	0	0	-100	0	230	101300000	1000	0	0	-1	0
11445555	1000	0	0	-100	0	230	101300000	1000	0	0	-1	0
11458115	1002	0	0	-100	0	230	101300000	1000	0	0	-1	0
11470675	1004	0	0	-100	0	230	101300000	1000	0	0	-1	0
11483235	998	0	0	-100	0	230	101300000	1000	0	0	-1	0
11495795	996	2	0	-100	0	230	101300000	1000	0	0	-1	0
11508355	998	4	0	-100	0	230	101300000	1000	0	0	-1	0
11520915	998	0	0	-100	0	230	101300000	1000	0	0	-1	0
11533475	1000	0	0	-100	0	230	101300000	1000	0	0	-1	0
11546035	1005	0	0	-100	0	230	101300000	1000	0	0	-1	0
11558595	998	0	0	-100	0	230	101300000	1000	0	0	-1	0
11571155	1001	2	0	-100	0	230	101300000	1000	0	0	-1	0
11583715	997	0	0	-100	0	230	101300000	1000	0	0	-1	0
11596275	1000	0	0	-100	0	230	101300000	1000	0	0	-1	0
11608835	1005	0	0	-100	0	230	101300000	1000	0	0	-1	0
11621395	998	4	0	-100	0	230	101300000	1000	0	0	-1	0
11633955	998	0	0	-100	0	230	101300000	1000	0	0	-1	0
11646515	1005	0	0	-100	0	230	101300000	1000	0	0	-1	0
11659075	1003	0	0	-100	0	230	101300000	1000	0	0	-1	0
11671635	998	1	0	-100	0	230	101300000	1000	0	0	-1	0
11684195	998	3	0	-100	0	230	101300000	1000	0	0	-1	0
11696755	995	0	0	-100	0	230	101300000	1000	0	0	-1	0
11709315	1003	0	0	-100	0	230	101300000	1000	0	0	-1	0
11721875	998	0	0	-100	0	230	101300000	1000	0	0	-1	0
11734435	996	3	0	-100	0	230	101300000	1000	0	0	-1	0
11746995	1000	0	0	-100	0	230	101300000	1000	0	0	-1	0
11759555	1002	0	0	-100	0	230	101300000	1000	0	0	-1	0
11772115	995	0	0	-100	0	230	101300000	1000	0	0	-1	0
11784675	998	3	0	-100	0	230	101300000	1000	0	0	-1	0
11797235	993	0	0	-100	0	230	101300000	1000	0	0	-1	0
11809795	1001	0	0	-100	0	230	101300000	1000	0	0	-1	0
11822355	1002	0	0	-100	0	230	101300000	1000	0	0	-1	0
11834915	1003	0	0	-100	0	230	101300000	1000	0	0	-1	0
11847475	996	1	0	-100	0	230	101300000	1000	0	0	-1	0
11860035	996	3	0	-100	0	230	101300000	1000	0	0	-1	0
11872595	998	0	0	-100	0	230	101300000	1000	0	0	-1	0
11885155	1008	0	0	-100	0	230	101300000	1000	0	0	-1	0
11897715	1000	0	0	-100	0	230	101300000	1000	0	0	-1	0
11910275	998	0	0	-100	0	230	101300000	1000	0	0	-1	0
11922835	996	3	0	-100	0	230	101300000	1000	0	0	-1	0
11935395	998	0	0	-100	0	230	101300000	1000	0	0	-1	0
11947955	998	0	0	-100	0	230	101300000	1000	0	0	-1	0
11960515	1003	0	0	-100	0	230	101300000	1000	0	0	-1	0
11973075	998	0	0	-100	0	230	101300000	1000	0	0	-1	0
11985635	998	3	0	-100	0	230	101300000	1000	0	0	-1	0
11998195	998	1	0	-100	0	230	101300000	1000	0	0	-1	0
12010755	1002	0	0	-100	0	230	101300000	1000	0	0	-1	0
12023315	1003	0	0	-100	0	230	101300000	1000	0	0	-1	0
12035875	998	2	0	-100	0	230	101300000	1000	0	0	-1	0
12048435	998	3	0	-100	0	230	101300000	1000	0	0	-1	0
12060995	995	0	0	-100	0	230	101300000	1000	0	0	-1	0
12073555	1002	0	0	-100	0	230	101300000	1000	0	0	-1	0
12086115	1005	0	0	-100	0	230	101300000	1000	0	0	-1	0
12098675	995	3	0	-100	0	230	101300000	1000	0	0	-1	0
12111235	998	4	0	-100	0	230	101300000	1000	0	0	-1	0
12123795	998	0	0	-100	0	230	101300000	1000	0	0	-1	0
12136355	998	0	0	-100	0	230	101300000	1000	0	0	-1	0
12148915	1002	0	0	-100	0	230	101300000	1000	0	0	-1	0
12161475	1002	0	0	-100	0	230	101300000	1000	0	0	-1	0
12174035	998	0	0	-100	0	230	101300000	1000	0	0	-1	0
12186595	998	2	0	-100	0	230	101300000	1000	0	0	-1	0
12199155	1001	1	0	-100	0	230	101300000	1000	0	0	-1	0
12211715	996	2	0	-100	0	230	101300000	1000	0	0	-1	0
12224275	998	0	0	-100	0	230	101300000	1000	0	0	-1	0
12236835	1000	0	0	-100	0	230	101300000	1000	0	0	-1	0
12249395	1008	0	0	-100	0	230	101300000	1000	0	0	-1	0
12261955	1000	0	0	-100	0	230	101300000	1000	0	0	-1	0
12274515	996	0	0	-100	0	230	101300000	1000	0	0	-1	0
12287075	1000	3	0	-100	0	230	101300000	1000	0	0	-1	0
12299635	995	4	0	-100	0	230	101300000	1000	0	0	-1	0
12312195	995	0	0	-100	0	230	101300000	1000	0	0	-1	0
12324755	1005	0	0	-100	0	230	101300000	1000	0	0	-1	0
12337315	1002	0	0	-100	0	230	101300000	1000	0	0	-1	0
12349875	998	0	0	-100	0	230	101300000	1000	0	0	-1	0
12362435	995	3	0	-100	0	230	101300000	1000	0	0	-1	0
12374995	998	0	0	-100	0	230	101300000	1000	0	0	-1	0
12387555	998	0	0	-100	0	230	101300000	1000	0	0	-1	0
12400115	1005	0	0	-100	0	230	101300000	1000	0	0	-1	0
12412675	998	0	0	-100	0	230	101300000	1000	0	0	-1	0
12425235	998	4	0	-100	0	230	101300000	1000	0	0	-1	0
12437795	996	0	0	-100	0	230	101300000	1000	0	0	-1	0
12450355	1005	0	0	-100	0	230	101300000	1000	0	0	-1	0
12462915	1001	0	0	-100	0	230	101300000	1000	0	0	-1	0
12475475	995	3	0	-100	0	230	101300000	1000	0	0	-1	0
12488035	998	3	0	-100	0	230	101300000	1000	0	0	-1	0
12500595	995	0	0	-100	0	230	101300000	1000	0	0	-1	0
12513155	1003	0	0	-100	0	230	101300000	1000	0	0	-1	0
12525715	1007	0	0	-100	0	230	101300000	1000	0	0	-1	0
12538275	1000	0	0	-100	0	230	101300000	1000	0	0	-1	0
12550835	1001	0	0	-100	0	230	101300000	1000	0	0	-1	0
12563395	1000	0	0	-100	0	230	101300000	1000	0	0	-1	0
12575955	996	1	0	-100	0	230	101300000	1000	0	0	-1	0
12588515	996	1	0	-100	0	230	101300000	1000	0	0	-1	0
12601075	996	4	0	-100	0	230	101300000	1000	0	0	-1	0
12613635	996	3	0	-100	0	230	101300000	1000	0	0	-1	0
12626195	1000	2	0	-100	0	230	101300000	1000	0	0	-1	0
12638755	995	0	0	-100	0	230	101300000	1000	0	0	-1	0
12651315	998	0	0	-100	0	230	101300000	1000	0	0	-1	0
12663875	998	0	0	-100	0	230	101300000	1000	0	0	-1	0
12676435	995	0	0	-100	0	230	101300000	1000	0	0	-1	0
12688995	998	0	0	-100	0	230	101300000	1000	0	0	-1	0
12701555	995	0	0	-100	0	230	101300000	1000	0	0	-1	0
12714115	993	0	0	-100	0	230	101300000	1000	0	0	-1	0
12726675	1001	0	0	-100	0	230	101300000	1000	0	0	-1	0
12739235	1000	0	0	-100	0	230	101300000	1000	0	0	-1	0
12751795	1003	0	0	-100	0	230	101300000	1000	0	0	-1	0
12764355	1001	0	0	-100	0	230	101300000	1000	0	0	-1	0
12776915	994	3	0	-100	0	230	101300000	1000	0	0	-1	0
12789475	1000	1	0	-100	0	230	101300000	1000	0	0	-1	0
12802035	1000	0	0	-100	0	230	101300000	1000	0	0	-1	0
12814595	1003	0	0	-100	0	230	101300000	1000	0	0	-1	0
12827155	1010	0	0	-100	0	230	101300000	1000	0	0	-1	0
12839715	996	0	0	-100	0	230	101300000	1000	0	0	-1	0
12852275	998	2	0	-100	0	230	101300000	1000	0	0	-1	0
12864835	998	0	0	-100	0	230	101300000	1000	0	0	-1	0
12877395	1000	0	0	-100	0	230	101300000	1000	0	0	-1	0
12889955	998	1	0	-100	0	230	101300000	1000	0	0	-1	0
12902515	995	0	0	-100	0	230	101300000	1000	0	0	-1	0
12915075	1000	0	0	-100	0	230	101300000	1000	0	0	-1	0
12927635	1005	0	0	-100	0	230	101300000	1000	0	0	-1	0
12940195	1001	0	0	-100	0	230	101300000	1000	0	0	-1	0
12952755	993	1	0	-100	0	230	101300000	1000	0	0	-1	0
12965315	998	4	0	-100	0	230	101300000	1000	0	0	-1	0
12977875	995	0	0	-100	0	230	101300000	1000	0	0	-1	0
12990435	1000	0	0	-100	0	230	101300000	1000	0	0	-1	0
13002995	1003	0	0	-100	0	230	101300000	1000	0	0	-1	0
13015555	1002	0	0	-100	0	230	101300000	1000	0	0	-1	0
13028115	1000	0	0	-100	0	230	101300000	1000	0	0	-1	0
13040675	998	2	0	-100	0	230	101300000	1000	0	0	-1	0
13053235	998	1	0	-100	0	230	101300000	1000	0	0	-1	0
13065795	998	0	0	-100	0	230	101300000	1000	0	0	-1	0
13078355	1000	0	0	-100	0	230	101300000	1000	0	0	-1	0
13090915	1002	0	0	-100	0	230	101300000	1000	0	0	-1	0
13103475	1002	0	0	-100	0	230	101300000	1000	0	0	-1	0
13116035	995	0	0	-100	0	230	101300000	1000	0	0	-1	0
13128595	998	4	0	-100	0	230	101300000	1000	0	0	-1	0
13141155	1004	2	0	-100	0	230	101300000	1000	0	0	-1	0
13153715	997	0	0	-100	0	230	101300000	1000	0	0	-1	0
13166275	997	0	0	-100	0	230	101300000	1000	0	0	-1	0
13178835	993	0	0	-100	0	230	101300000	1000	0	0	-1	0
13191395	998	0	0	-100	0	230	101300000	1000	0	0	-1	0
13203955	998	0	0	-100	0	230	101300000	1000	0	0	-1	0
13216515	995	0	0	-100	0	230	101300000	1000	0	0	-1	0
13229075	1002	0	0	-100	0	230	101300000	1000	0	0	-1	0
13241635	1005	0	0	-100	0	230	101300000	1000	0	0	-1	0
13254195	1002	0	0	-100	0	230	101300000	1000	0	0	-1	0
13266755	1003	0	0	-100	0	230	101300000	1000	0	0	-1	0
13279315	1002	0	0	-100	0	230	101300000	1000	0	0	-1	0
13291875	1003	0	0	-100	0	230	101300000	1000	0	0	-1	0
13304435	1003	0	0	-100	0	230	101300000	1000	0	0	-1	0
13316995	1000	0	0	-100	0	230	101300000	1000	0	0	-1	0
13329555	1002	0	0	-100	0	230	101300000	1000	0	0	-1	0
13342115	1000	0	0	-100	0	230	101300000	1000	0	0	-1	0
13354675	998	0	0	-100	0	230	101300000	1000	0	0	-1	0
13367235	1000	0	0	-100	0	230	101300000	1000	0	0	-1	0
13379795	995	0	0	-100	0	230	101300000	1000	0	0	-1	0
13392355	998	0	0	-100	0	230	101300000	1000	0	0	-1	0
13404915	998	0	0	-100	0	230	101300000	1000	0	0	-1	0
13417475	995	0	0	-100	0	230	101300000	1000	0	0	-1	0
13430035	996	0	0	-100	0	230	101300000	1000	0	0	-1	0
13442595	998	0	0	-100	0	230	101300000	1000	0	0	-1	0
13455155	1000	0	0	-100	0	230	101300000	1000	0	0	-1	0
13467715	995	0	0	-100	0	230	101300000	1000	0	0	-1	0
13480275	998	3	0	-100	0	230	101300000	1000	0	0	-1	0
13492835	996	4	0	-100	0	230	101300000	1000	0	0	-1	0
13505395	998	4	0	-100	0	230	101300000	1000	0	0	-1	0
13517955	995	4	0	-100	0	230	101300000	1000	0	0	-1	0
13530515	995	0	0	-100	0	230	101300000	1000	0	0	-1	0
13543075	998	0	0	-100	0	230	101300000	1000	0	0	-1	0
13555635	1000	0	0	-100	0	230	101300000	1000	0	0	-1	0
13568195	1005	0	0	-100	0	230	101300000	1000	0	0	-1	0
13580755	1005	0	0	-100	0	230	101300000	1000	0	0	-1	0
13593315	1002	0	0	-100	0	230	101300000	1000	0	0	-1	0
13605875	1005	0	0	-100	0	230	101300000	1000	0	0	-1	0
13618435	996	0	0	-100	0	230	101300000	1000	0	0	-1	0
13630995	998	0	0	-100	0	230	101300000	1000	0	0	-1	0
13643555	1000	0	0	-100	0	230	101300000	1000	0	0	-1	0
13656115	995	2	0	-100	0	230	101300000	1000	0	0	-1	0
13668675	997	3	0	-100	0	230	101300000	1000	0	0	-1	0
13681235	996	1	0	-100	0	230	101300000	1000	0	0	-1	0
13693795	996	0	0	-100	0	230	101300000	1000	0	0	-1	0
13706355	996	0	0	-100	0	230	101300000	1000	0	0	-1	0
13718915	995	1	0	-100	0	230	101300000	1000	0	0	-1	0
13731475	998	1	0	-100	0	230	101300000	1000	0	0	-1	0
13744035	1003	0	0	-100	0	230	101300000	1000	0	0	-1	0
13756595	1005	0	0	-100	0	230	101300000	1000	0	0	-1	0
13769155	1010	0	0	-100	0	230	101300000	1000	0	0	-1	0
13781715	998	0	0	-100	0	230	101300000	1000	0	0	-1	0
13794275	995	0	0	-100	0	230	101300000	1000	0	0	-1	0
13806835	998	1	0	-100	0	230	101300000	1000	0	0	-1	0
13819395	995	1	0	-100	0	230	101300000	1000	0	0	-1	0
13831955	996	1	0	-100	0	230	101300000	1000	0	0	-1	0
13844515	998	1	0	-100	0	230	101300000	1000	0	0	-1	0
13857075	996	4	0	-100	0	230	101300000	1000	0	0	-1	0
13869635	995	0	0	-100	0	230	101300000	1000	0	0	-1	0
13882195	1003	0	0	-100	0	230	101300000	1000	0	0	-1	0
13894755	1000	0	0	-100	0	230	101300000	1000	0	0	-1	0
13907315	995	2	0	-100	0	230	101300000	1000	0	0	-1	0
13919875	995	4	0	-100	0	230	101300000	1000	0	0	-1	0
13932435	995	0	0	-100	0	230	101300000	1000	0	0	-1	0
13944995	998	0	0	-100	0	230	101300000	1000	0	0	-1	0
13957555	1002	0	0	-100	0	230	101300000	1000	0	0	-1	0
13970115	1003	0	0	-100	0	230	101300000	1000	0	0	-1	0
13982675	998	0	0	-100	0	230	101300000	1000	0	0	-1	0
13995235	996	3	0	-100	0	230	101300000	1000	0	0	-1	0
14007795	1000	0	0	-100	0	230	101300000	1000	0	0	-1	0
14020355	1003	0	0	-100	0	230	101300000	1000	0	0	-1	0
14032915	1005	0	0	-100	0	230	101300000	1000	0	0	-1	0
14045475	1000	1	0	-100	0	230	101300000	1000	0	0	-1	0
14058035	998	4	0	-100	0	230	101300000	1000	0	0	-1	0
14070595	1002	0	0	-100	0	230	101300000	1000	0	0	-1	0
14083155	1013	0	0	-100	0	230	101300000	1000	0	0	-1	0
14095715	995	2	0	-100	0	230	101300000	1000	0	0	-1	0
14108275	998	3	0	-100	0	230	101300000	1000	0	0	-1	0
14120835	995	0	0	-100	0	230	101300000	1000	0	0	-1	0
14133395	1002	0	0	-100	0	230	101300000	1000	0	0	-1	0
14145955	1005	0	0	-100	0	230	101300000	1000	0	0	-1	0
14158515	998	0	0	-100	0	230	101300000	1000	0	0	-1	0
14171075	996	4	0	-100	0	230	101300000	1000	0	0	-1	0
14183635	998	4	0	-100	0	230	101300000	1000	0	0	-1	0
14196195	995	0	0	-100	0	230	101300000	1000	0	0	-1	0
14208755	1000	0	0	-100	0	230	101300000	1000	0	0	-1	0
14221315	1003	0	0	-100	0	230	101300000	1000	0	0	-1	0
14233875	1000	0	0	-100	0	230	101300000	1000	0	0	-1	0
14246435	996	1	0	-100	0	230	101300000	1000	0	0	-1	0
14258995	998	0	0	-100	0	230	101300000	1000	0	0	-1	0
14271555	995	4	0	-100	0	230	101300000	1000	0	0	-1	0
14284115	998	4	0	-100	0	230	101300000	1000	0	0	-1	0
14296675	997	1	0	-100	0	230	101300000	1000	0	0	-1	0
14309235	998	0	0	-100	0	230	101300000	1000	0	0	-1	0
14321795	1000	0	0	-100	0	230	101300000	1000	0	0	-1	0
14334355	1003	0	0	-100	0	230	101300000	1000	0	0	-1	0
14346915	998	0	0	-100	0	230	101300000	1000	0	0	-1	0
14359475	995	2	0	-100	0	230	101300000	1000	0	0	-1	0
14372035	998	4	0	-100	0	230	101300000	1000	0	0	-1	0
14384595	1000	0	0	-100	0	230	101300000	1000	0	0	-1	0
14397155	1001	0	0	-100	0	230	101300000	1000	0	0	-1	0
14409715	998	0	0	-100	0	230	101300000	1000	0	0	-1	0
14422275	1003	0	0	-100	0	230	101300000	1000	0	0	-1	0
14434835	1002	0	0	-100	0	230	101300000	1000	0	0	-1	0
14447395	1005	0	0	-100	0	230	101300000	1000	0	0	-1	0
14459955	1003	0	0	-100	0	230	101300000	1000	0	0	-1	0
14472515	998	1	0	-100	0	230	101300000	1000	0	0	-1	0
14485075	995	3	0	-100	0	230	101300000	1000	0	0	-1	0
14497635	998	4	0	-100	0	230	101300000	1000	0	0	-1	0
14510195	998	0	0	-100	0	230	101300000	1000	0	0	-1	0
14522755	1003	0	0	-100	0	230	101300000	1000	0	0	-1	0
14535315	1001	0	0	-100	0	230	101300000	1000	0	0	-1	0
14547875	1005	0	0	-100	0	230	101300000	1000	0	0	-1	0
14560435	1002	0	0	-100	0	230	101300000	1000	0	0	-1	0
14572995	998	0	0	-100	0	230	101300000	1000	0	0	-1	0
14585555	998	0	0	-100	0	230	101300000	1000	0	0	-1	0
14598115	993	3	0	-100	0	230	101300000	1000	0	0	-1	0
14610675	998	5	0	-100	0	230	101300000	1000	0	0	-1	0
14623235	995	0	0	-100	0	230	101300000	1000	0	0	-1	0
14635795	991	0	0	-100	0	230	101300000	1000	0	0	-1	0
14648355	1000	0	0	-100	0	230	101300000	1000	0	0	-1	0
14660915	1000	0	0	-100	0	230	101300000	1000	0	0	-1	0
14673475	1000	0	0	-100	0	230	101300000	1000	0	0	-1	0
14686035	1005	0	0	-100	0	230	101300000	1000	0	0	-1	0
14698595	1002	0	0	-100	0	230	101300000	1000	0	0	-1	0
14711155	1011	0	0	-100	0	230	101300000	1000	0	0	-1	0
14723715	998	0	0	-100	0	230	101300000	1000	0	0	-1	0
14736275	996	2	0	-100	0	230	101300000	1000	0	0	-1	0
14748835	998	4	0	-100	0	230	101300000	1000	0	0	-1	0
14761395	998	4	0	-100	0	230	101300000	1000	0	0	-1	0
14773955	993	4	0	-100	0	230	101300000	1000	0	0	-1	0
14786515	998	0	0	-100	0	230	101300000	1000	0	0	-1	0
14799075	1002	0	0	-100	0	230	101300000	1000	0	0	-1	0
14811635	1003	0	0	-100	0	230	101300000	1000	0	0	-1	0
14824195	993	1	0	-100	0	230	101300000	1000	0	0	-1	0
14836755	992	0	0	-100	0	230	101300000	1000	0	0	-1	0
14849315	1002	0	0	-100	0	230	101300000	1000	0	0	-1	0
14861875	1002	0	0	-100	0	230	101300000	1000	0	0	-1	0
14874435	1003	0	0	-100	0	230	101300000	1000	0	0	-1	0
14886995	998	0	0	-100	0	230	101300000	1000	0	0	-1	0
14899555	995	4	0	-100	0	230	101300000	1000	0	0	-1	0
14912115	995	0	0	-100	0	230	101300000	1000	0	0	-1	0
14924675	998	0	0	-100	0	230	101300000	1000	0	0	-1	0
14937235	998	0	0	-100	0	230	101300000	1000	0	0	-1	0
14949795	1003	0	0	-100	0	230	101300000	1000	0	0	-1	0
14962355	1001	0	0	-100	0	230	101300000	1000	0	0	-1	0
14974915	995	2	0	-100	0	230	101300000	1000	0	0	-1	0
14987475	998	2	0	-100	0	230	101300000	1000	0	0	-1	0
15000035	998	2	0	-100	0	230	101300000	1000	0	0	-1	0
15012595	998	0	0	-100	0	230	101300000	1000	0	0	-1	0
15025155	1008	0	0	-100	0	230	101300000	1000	0	0	-1	0
15037715	1000	0	0	-100	0	230	101300000	1000	0	0	-1	0
15050275	1005	0	0	-100	0	230	101300000	1000	0	0	-1	0
15062835	1000	0	0	-100	0	230	101300000	1000	0	0	-1	0
15075395	995	2	0	-100	0	230	101300000	1000	0	0	-1	0
15087955	998	0	0	-100	0	230	101300000	1000	0	0	-1	0
15100515	1001	0	0	-100	0	230	101300000	1000	0	0	-1	0
15113075	1005	0	0	-100	0	230	101300000	1000	0	0	-1	0
15125635	1005	0	0	-100	0	230	101300000	1000	0	0	-1	0
15138195	1005	0	0	-100	0	230	101300000	1000	0	0	-1	0
15150755	1003	0	0	-100	0	230	101300000	1000	0	0	-1	0
15163315	998	0	0	-100	0	230	101300000	1000	0	0	-1	0
15175875	995	2	0	-100	0	230	101300000	1000	0	0	-1	0
15188435	998	2	0	-100	0	230	101300000	1000	0	0	-1	0
15200995	998	0	0	-100	0	230	101300000	1000	0	0	-1	0
15213555	995	4	0	-100	0	230	101300000	1000	0	0	-1	0
15226115	998	2	0	-100	0	230	101300000	1000	0	0	-1	0
15238675	995	2	0	-100	0	230	101300000	1000	0	0	-1	0
15251235	998	0	0	-100	0	230	101300000	1000	0	0	-1	0
15263795	998	0	0	-100	0	230	101300000	1000	0	0	-1	0
15276355	998	0	0	-100	0	230	101300000	1000	0	0	-1	0
15288915	1003	0	0	-100	0	230	101300000	1000	0	0	-1	0
15301475	996	1	0	-100	0	230	101300000	1000	0	0	-1	0
15314035	993	1	0	-100	0	230	101300000	1000	0	0	-1	0
15326595	996	1	0	-100	0	230	101300000	1000	0	0	-1	0
15339155	1000	0	0	-100	0	230	101300000	1000	0	0	-1	0
15351715	998	0	0	-100	0	230	101300000	1000	0	0	-1	0
15364275	1003	0	0	-100	0	230	101300000	1000	0	0	-1	0
15376835	1000	0	0	-100	0	230	101300000	1000	0	0	-1	0
15389395	1002	0	0	-100	0	230	101300000	1000	0	0	-1	0
15401955	1000	0	0	-100	0	230	101300000	1000	0	0	-1	0
15414515	995	0	0	-100	0	230	101300000	1000	0	0	-1	0
15427075	998	4	0	-100	0	230	101300000	1000	0	0	-1	0
15439635	996	1	0	-100	0	230	101300000	1000	0	0	-1	0
15452195	995	2	0	-100	0	230	101300000	1000	0	0	-1	0
15464755	1001	0	0	-100	0	230	101300000	1000	0	0	-1	0
15477315	1003	0	0	-100	0	230	101300000	1000	0	0	-1	0
15489875	1005	0	0	-100	0	230	101300000	1000	0	0	-1	0
15502435	1005	0	0	-100	0	230	101300000	1000	0	0	-1	0
15514995	1002	1	0	-100	0	230	101300000	1000	0	0	-1	0
15527555	1005	0	0	-100	0	230	101300000	1000	0	0	-1	0
15540115	1003	0	0	-100	0	230	101300000	1000	0	0	-1	0
15552675	1002	0	0	-100	0	230	101300000	1000	0	0	-1	0
15565235	1000	0	0	-100	0	230	101300000	1000	0	0	-1	0
15577795	996	0	0	-100	0	230	101300000	1000	0	0	-1	0
15590355	1002	0	0	-100	0	230	101300000	1000	0	0	-1	0
15602915	1002	0	0	-100	0	230	101300000	1000	0	0	-1	0
15615475	998	2	0	-100	0	230	101300000	1000	0	0	-1	0
15628035	996	4	0	-100	0	230	101300000	1000	0	0	-1	0
15640595	995	0	0	-100	0	230	101300000	1000	0	0	-1	0
15653155	1003	0	0	-100	0	230	101300000	1000	0	0	-1	0
15665715	1002	0	0	-100	0	230	101300000	1000	0	0	-1	0
15678275	1002	0	0	-100	0	230	101300000	1000	0	0	-1	0
15690835	998	1	0	-100	0	230	101300000	1000	0	0	-1	0
15703395	1000	5	0	-100	0	230	101300000	1000	0	0	-1	0
15715955	1001	0	0	-100	0	230	101300000	1000	0	0	-1	0
15728515	1003	0	0	-100	0	230	101300000	1000	0	0	-1	0
15741075	996	3	0	-100	0	230	101300000	1000	0	0	-1	0
15753635	995	0	0	-100	0	230	101300000	1000	0	0	-1	0
15766195	998	0	0	-100	0	230	101300000	1000	0	0	-1	0
15778755	998	0	0	-100	0	230	101300000	1000	0	0	-1	0
15791315	995	0	0	-100	0	230	101300000	1000	0	0	-1	0
15803875	998	0	0	-100	0	230	101300000	1000	0	0	-1	0
15816435	996	0	0	-100	0	230	101300000	1000	0	0	-1	0
15828995	998	0	0	-100	0	230	101300000	1000	0	0	-1	0
15841555	995	0	0	-100	0	230	101300000	1000	0	0	-1	0
15854115	998	0	0	-100	0	230	101300000	1000	0	0	-1	0
15866675	1000	0	0	-100	0	230	101300000	1000	0	0	-1	0
15879235	1000	0	0	-100	0	230	101300000	1000	0	0	-1	0
15891795	1002	0	0	-100	0	230	101300000	1000	0	0	-1	0
15904355	1003	0	0	-100	0	230	101300000	1000	0	0	-1	0
15916915	998	0	0	-100	0	230	101300000	1000	0	0	-1	0
15929475	998	2	0	-100	0	230	101300000	1000	0	0	-1	0
15942035	998	4	0	-100	0	230	101300000	1000	0	0	-1	0
15954595	998	4	0	-100	0	230	101300000	1000	0	0	-1	0
15967155	1003	0	0	-100	0	230	101300000	1000	0	0	-1	0
15979715	998	0	0	-100	0	230	101300000	1000	0	0	-1	0
15992275	998	0	0	-100	0	230	101300000	1000	0	0	-1	0
16004835	1003	0	0	-100	0	230	101300000	1000	0	0	-1	0
16017395	1000	0	0	-100	0	230	101300000	1000	0	0	-1	0
16029955	1005	0	0	-100	0	230	101300000	1000	0	0	-1	0
16042515	1005	0	0	-100	0	230	101300000	1000	0	0	-1	0
16055075	995	0	0	-100	0	230	101300000	1000	0	0	-1	0
16067635	998	1	0	-100	0	230	101300000	1000	0	0	-1	0
16080195	998	1	0	-100	0	230	101300000	1000	0	0	-1	0
16092755	998	0	0	-100	0	230	101300000	1000	0	0	-1	0
16105315	998	1	0	-100	0	230	101300000	1000	0	0	-1	0
16117875	995	0	0	-100	0	230	101300000	1000	0	0	-1	0
16130435	998	0	0	-100	0	230	101300000	1000	0	0	-1	0
16142995	998	0	0	-100	0	230	101300000	1000	0	0	-1	0
16155555	993	1	0	-100	0	230	101300000	1000	0	0	-1	0
16168115	998	2	0	-100	0	230	101300000	1000	0	0	-1	0
16180675	998	3	0	-100	0	230	101300000	1000	0	0	-1	0
16193235	995	4	0	-100	0	230	101300000	1000	0	0	-1	0
16205795	998	5	0	-100	0	230	101300000	1000	0	0	-1	0
16218355	997	0	0	-100	0	230	101300000	1000	0	0	-1	0
16230915	995	0	0	-100	0	230	101300000	1000	0	0	-1	0
16243475	1000	0	0	-100	0	230	101300000	1000	0	0	-1	0
16256035	1002	0	0	-100	0	230	101300000	1000	0	0	-1	0
16268595	1005	0	0	-100	0	230	101300000	1000	0	0	-1	0
16281155	1006	0	0	-100	0	230	101300000	1000	0	0	-1	0
16293715	996	0	0	-100	0	230	101300000	1000	0	0	-1	0
16306275	998	0	0	-100	0	230	101300000	1000	0	0	-1	0
16318835	994	2	0	-100	0	230	101300000	1000	0	0	-1	0
16331395	1000	5	0	-100	0	230	101300000	1000	0	0	-1	0
16343955	1000	4	0	-100	0	230	101300000	1000	0	0	-1	0
16356515	998	4	0	-100	0	230	101300000	1000	0	0	-1	0
16369075	998	3	0	-100	0	230	101300000	1000	0	0	-1	0
16381635	998	0	0	-100	0	230	101300000	1000	0	0	-1	0
16394195	996	0	0	-100	0	230	101300000	1000	0	0	-1	0
16406755	997	0	0	-100	0	230	101300000	1000	0	0	-1	0
16419315	998	0	0	-100	0	230	101300000	1000	0	0	-1	0
16431875	998	0	0	-100	0	230	101300000	1000	0	0	-1	0
16444435	998	3	0	-100	0	230	101300000	1000	0	0	-1	0
16456995	995	0	0	-100	0	230	101300000	1000	0	0	-1	0
16469555	996	3	0	-100	0	230	101300000	1000	0	0	-1	0
16482115	998	0	0	-100	0	230	101300000	1000	0	0	-1	0
16494675	1005	0	0	-100	0	230	101300000	1000	0	0	-1	0
16507235	1005	0	0	-100	0	230	101300000	1000	0	0	-1	0
16519795	1002	0	0	-100	0	230	101300000	1000	0	0	-1	0
16532355	1002	0	0	-100	0	230	101300000	1000	0	0	-1	0
16544915	1000	0	0	-100	0	230	101300000	1000	0	0	-1	0
16557475	996	0	0	-100	0	230	101300000	1000	0	0	-1	0
16570035	993	0	0	-100	0	230	101300000	1000	0	0	-1	0
16582595	995	4	0	-100	0	230	101300000	1000	0	0	-1	0
16595155	1001	0	0	-100	0	230	101300000	1000	0	0	-1	0
16607715	1003	0	0	-100	0	230	101300000	1000	0	0	-1	0
16620275	1003	0	0	-100	0	230	101300000	1000	0	0	-1	0
16632835	1000	0	0	-100	0	230	101300000	1000	0	0	-1	0
16645395	997	0	0	-100	0	230	101300000	1000	0	0	-1	0
16657955	996	1	0	-100	0	230	101300000	1000	0	0	-1	0
16670515	1005	0	0	-100	0	230	101300000	1000	0	0	-1	0
16683075	998	0	0	-100	0	230	101300000	1000	0	0	-1	0
16695635	995	3	0	-100	0	230	101300000	1000	0	0	-1	0
16708195	1005	0	0	-100	0	230	101300000	1000	0	0	-1	0
16720755	996	0	0	-100	0	230	101300000	1000	0	0	-1	0
16733315	995	4	0	-100	0	230	101300000	1000	0	0	-1	0
16745875	1001	0	0	-100	0	230	101300000	1000	0	0	-1	0
16758435	1000	0	0	-100	0	230	101300000	1000	0	0	-1	0
16770995	998	0	0	-100	0	230	101300000	1000	0	0	-1	0
16783555	998	3	0	-100	0	230	101300000	1000	0	0	-1	0
16796115	996	0	0	-100	0	230	101300000	1000	0	0	-1	0
16808675	1002	0	0	-100	0	230	101300000	1000	0	0	-1	0
16821235	1000	0	0	-100	0	230	101300000	1000	0	0	-1	0
16833795	998	0	0	-100	0	230	101300000	1000	0	0	-1	0
16846355	997	0	0	-100	0	230	101300000	1000	0	0	-1	0
16858915	995	4	0	-100	0	230	101300000	1000	0	0	-1	0
16871475	994	1	0	-100	0	230	101300000	1000	0	0	-1	0
16884035	998	1	0	-100	0	230	101300000	1000	0	0	-1	0
16896595	1003	0	0	-100	0	230	101300000	1000	0	0	-1	0
16909155	1010	0	0	-100	0	230	101300000	1000	0	0	-1	0
16921715	1002	0	0	-100	0	230	101300000	1000	0	0	-1	0
16934275	1001	0	0	-100	0	230	101300000	1000	0	0	-1	0
16946835	998	0	0	-100	0	230	101300000	1000	0	0	-1	0
16959395	995	5	0	-100	0	230	101300000	1000	0	0	-1	0
16971955	996	1	0	-100	0	230	101300000	1000	0	0	-1	0
16984515	1003	0	0	-100	0	230	101300000	1000	0	0	-1	0
16997075	1003	0	0	-100	0	230	101300000	1000	0	0	-1	0
17009635	1003	0	0	-100	0	230	101300000	1000	0	0	-1	0
17022195	995	0	0	-100	0	230	101300000	1000	0	0	-1	0
17034755	996	4	0	-100	0	230	101300000	1000	0	0	-1	0
17047315	995	2	0	-100	0	230	101300000	1000	0	0	-1	0
17059875	1001	0	0	-100	0	230	101300000	1000	0	0	-1	0
17072435	1002	0	0	-100	0	230	101300000	1000	0	0	-1	0
17084995	1003	0	0	-100	0	230	101300000	1000	0	0	-1	0
17097555	998	0	0	-100	0	230	101300000	1000	0	0	-1	0
17110115	996	0	0	-100	0	230	101300000	1000	0	0	-1	0
17122675	997	0	0	-100	0	230	101300000	1000	0	0	-1	0
17135235	996	3	0	-100	0	230	101300000	1000	0	0	-1	0
17147795	995	1	0	-100	0	230	101300000	1000	0	0	-1	0
17160355	1003	0	0	-100	0	230	101300000	1000	0	0	-1	0
17172915	1003	0	0	-100	0	230	101300000	1000	0	0	-1	0
17185475	1005	0	0	-100	0	230	101300000	1000	0	0	-1	0
17198035	1001	0	0	-100	0	230	101300000	1000	0	0	-1	0
17210595	1002	0	0	-100	0	230	101300000	1000	0	0	-1	0
17223155	1005	0	0	-100	0	230	101300000	1000	0	0	-1	0
17235715	998	0	0	-100	0	230	101300000	1000	0	0	-1	0
17248275	998	0	0	-100	0	230	101300000	1000	0	0	-1	0
17260835	997	0	0	-100	0	230	101300000	1000	0	0	-1	0
17273395	995	0	0	-100	0	230	101300000	1000	0	0	-1	0
17285955	998	4	0	-100	0	230	101300000	1000	0	0	-1	0
17298515	993	1	0	-100	0	230	101300000	1000	0	0	-1	0
17311075	998	0	0	-100	0	230	101300000	1000	0	0	-1	0
17323635	1004	0	0	-100	0	230	101300000	1000	0	0	-1	0
17336195	1000	0	0	-100	0	230	101300000	1000	0	0	-1	0
17348755	998	0	0	-100	0	230	101300000	1000	0	0	-1	0
17361315	993	0	0	-100	0	230	101300000	1000	0	0	-1	0
17373875	995	4	0	-100	0	230	101300000	1000	0	0	-1	0
17386435	998	1	0	-100	0	230	101300000	1000	0	0	-1	0
17398995	1005	3	0	-100	0	230	101300000	1000	0	0	-1	0
17411555	1005	0	0	-100	0	230	101300000	1000	0	0	-1	0
17424115	1003	0	0	-100	0	230	101300000	1000	0	0	-1	0
17436675	995	0	0	-100	0	230	101300000	1000	0	0	-1	0
17449235	1000	4	0	-100	0	230	101300000	1000	0	0	-1	0
17461795	996	1	0	-100	0	230	101300000	1000	0	0	-1	0
17474355	1003	0	0	-100	0	230	101300000	1000	0	0	-1	0
17486915	1002	0	0	-100	0	230	101300000	1000	0	0	-1	0
17499475	993	0	0	-100	0	230	101300000	1000	0	0	-1	0
17512035	996	4	0	-100	0	230	101300000	1000	0	0	-1	0
17524595	996	0	0	-100	0	230	101300000	1000	0	0	-1	0
17537155	1008	0	0	-100	0	230	101300000	1000	0	0	-1	0
17549715	1002	0	0	-100	0	230	101300000	1000	0	0	-1	0
17562275	996	0	0	-100	0	230	101300000	1000	0	0	-1	0
17574835	993	2	0	-100	0	230	101300000	1000	0	0	-1	0
17587395	998	0	0	-100	0	230	101300000	1000	0	0	-1	0
17599955	1003	0	0	-100	0	230	101300000	1000	0	0	-1	0
17612515	996	0	0	-100	0	230	101300000	1000	0	0	-1	0
17625075	998	4	0	-100	0	230	101300000	1000	0	0	-1	0
17637635	998	0	0	-100	0	230	101300000	1000	0	0	-1	0
17650195	1003	0	0	-100	0	230	101300000	1000	0	0	-1	0
17662755	1002	0	0	-100	0	230	101300000	1000	0	0	-1	0
17675315	997	0	0	-100	0	230	101300000	1000	0	0	-1	0
17687875	998	3	0	-100	0	230	101300000	1000	0	0	-1	0
17700435	1000	0	0	-100	0	230	101300000	1000	0	0	-1	0
17712995	1003	2	0	-100	0	230	101300000	1000	0	0	-1	0
17725555	998	0	0	-100	0	230	101300000	1000	0	0	-1	0
17738115	994	3	0	-100	0	230	101300000	1000	0	0	-1	0
17750675	993	0	0	-100	0	230	101300000	1000	0	0	-1	0
17763235	1002	0	0	-100	0	230	101300000	1000	0	0	-1	0
17775795	1000	0	0	-100	0	230	101300000	1000	0	0	-1	0
17788355	998	0	0	-100	0	230	101300000	1000	0	0	-1	0
17800915	996	3	0	-100	0	230	101300000	1000	0	0	-1	0
17813475	998	0	0	-100	0	230	101300000	1000	0	0	-1	0
17826035	1008	0	0	-100	0	230	101300000	1000	0	0	-1	0
17838595	998	0	0	-100	0	230	101300000	1000	0	0	-1	0
17851155	1001	0	0	-100	0	230	101300000	1000	0	0	-1	0
17863715	997	0	0	-100	0	230	101300000	1000	0	0	-1	0
17876275	995	0	0	-100	0	230	101300000	1000	0	0	-1	0
17888835	998	2	0	-100	0	230	101300000	1000	0	0	-1	0
17901395	998	3	0	-100	0	230	101300000	1000	0	0	-1	0
17913955	993	1	0	-100	0	230	101300000	1000	0	0	-1	0
17926515	996	1	0	-100	0	230	101300000	1000	0	0	-1	0
17939075	996	0	0	-100	0	230	101300000	1000	0	0	-1	0
17951635	1003	0	0	-100	0	230	101300000	1000	0	0	-1	0
17964195	1002	0	0	-100	0	230	101300000	1000	0	0	-1	0
17976755	1000	0	0	-100	0	230	101300000	1000	0	0	-1	0
17989315	1000	0	0	-100	0	230	101300000	1000	0	0	-1	0
18001875	998	0	0	-100	0	230	101300000	1000	0	0	-1	0
18014435	995	4	0	-100	0	230	101300000	1000	0	0	-1	0
18026995	996	0	0	-100	0	230	101300000	1000	0	0	-1	0
18039555	993	0	0	-100	0	230	101300000	1000	0	0	-1	0
18052115	1003	0	0	-100	0	230	101300000	1000	0	0	-1	0
18064675	1005	0	0	-100	0	230	101300000	1000	0	0	-1	0
18077235	1000	0	0	-100	0	230	101300000	1000	0	0	-1	0
18089795	998	0	0	-100	0	230	101300000	1000	0	0	-1	0
18102355	996	3	0	-100	0	230	101300000	1000	0	0	-1	0
18114915	993	0	0	-100	0	230	101300000	1000	0	0	-1	0
18127475	1003	0	0	-100	0	230	101300000	1000	0	0	-1	0
18140035	1002	0	0	-100	0	230	101300000	1000	0	0	-1	0
18152595	1003	0	0	-100	0	230	101300000	1000	0	0	-1	0
18165155	1010	0	0	-100	0	230	101300000	1000	0	0	-1	0
18177715	996	0	0	-100	0	230	101300000	1000	0	0	-1	0
18190275	998	4	0	-100	0	230	101300000	1000	0	0	-1	0
18202835	995	2	0	-100	0	230	101300000	1000	0	0	-1	0
18215395	1003	0	0	-100	0	230	101300000	1000	0	0	-1	0
18227955	1003	0	0	-100	0	230	101300000	1000	0	0	-1	0
18240515	1000	0	0	-100	0	230	101300000	1000	0	0	-1	0
18253075	995	4	0	-100	0	230	101300000	1000	0	0	-1	0
18265635	994	1	0	-100	0	230	101300000	1000	0	0	-1	0
18278195	1003	0	0	-100	0	230	101300000	1000	0	0	-1	0
18290755	1005	0	0	-100	0	230	101300000	1000	0	0	-1	0
18303315	1002	0	0	-100	0	230	101300000	1000	0	0	-1	0
18315875	995	0	0	-100	0	230	101300000	1000	0	0	-1	0
18328435	998	4	0	-100	0	230	101300000	1000	0	0	-1	0
18340995	1001	0	0	-100	0	230	101300000	1000	0	0	-1	0
18353555	1003	0	0	-100	0	230	101300000	1000	0	0	-1	0
18366115	1001	0	0	-100	0	230	101300000	1000	0	0	-1	0
18378675	993	0	0	-100	0	230	101300000	1000	0	0	-1	0
18391235	995	3	0	-100	0	230	101300000	1000	0	0	-1	0
18403795	1001	0	0	-100	0	230	101300000	1000	0	0	-1	0
18416355	1003	0	0	-100	0	230	101300000	1000	0	0	-1	0
18428915	998	0	0	-100	0	230	101300000	1000	0	0	-1	0
18441475	995	4	0	-100	0	230	101300000	1000	0	0	-1	0
18454035	995	1	0	-100	0	230	101300000	1000	0	0	-1	0
18466595	1005	0	0	-100	0	230	101300000	1000	0	0	-1	0
18479155	1005	0	0	-100	0	230	101300000	1000	0	0	-1	0
18491715	1001	0	0	-100	0	230	101300000	1000	0	0	-1	0
18504275	998	0	0	-100	0	230	101300000	1000	0	0	-1	0
18516835	993	4	0	-100	0	230	101300000	1000	0	0	-1	0
18529395	998	1	0	-100	0	230	101300000	1000	0	0	-1	0
18541955	1003	0	0	-100	0	230	101300000	1000	0	0	-1	0
18554515	1000	0	0	-100	0	230	101300000	1000	0	0	-1	0
18567075	997	0	0	-100	0	230	101300000	1000	0	0	-1	0
18579635	996	3	0	-100	0	230	101300000	1000	0	0	-1	0
18592195	996	1	0	-100	0	230	101300000	1000	0	0	-1	0
18604755	1005	0	0	-100	0	230	101300000	1000	0	0	-1	0
18617315	1000	0	0	-100	0	230	101300000	1000	0	0	-1	0
18629875	997	0	0	-100	0	230	101300000	1000	0	0	-1	0
18642435	1000	4	0	-100	0	230	101300000	1000	0	0	-1	0
18654995	993	0	0	-100	0	230	101300000	1000	0	0	-1	0
18667555	1005	0	0	-100	0	230	101300000	1000	0	0	-1	0
18680115	1005	0	0	-100	0	230	101300000	1000	0	0	-1	0
18692675	1000	0	0	-100	0	230	101300000	1000	0	0	-1	0
18705235	1000	0	0	-100	0	230	101300000	1000	0	0	-1	0
18717795	995	0	0	-100	0	230	101300000	1000	0	0	-1	0
18730355	995	0	0	-100	0	230	101300000	1000	0	0	-1	0
18742915	998	5	0	-100	0	230	101300000	1000	0	0	-1	0
18755475	993	1	0	-100	0	230	101300000	1000	0	0	-1	0
18768035	998	1	0	-100	0	230	101300000	1000	0	0	-1	0
18780595	998	0	0	-100	0	230	101300000	1000	0	0	-1	0
18793155	1008	0	0	-100	0	230	101300000	1000	0	0	-1	0
18805715	1005	0	0	-100	0	230	101300000	1000	0	0	-1	0
18818275	1000	0	0	-100	0	230	101300000	1000	0	0	-1	0
18830835	1000	0	0	-100	0	230	101300000	1000	0	0	-1	0
18843395	998	0	0	-100	0	230	101300000	1000	0	0	-1	0
18855955	996	0	0	-100	0	230	101300000	1000	0	0	-1	0
18868515	1001	1	0	-100	0	230	101300000	1000	0	0	-1	0
18881075	996	3	0	-100	0	230	101300000	1000	0	0	-1	0
18893635	996	2	0	-100	0	230	101300000	1000	0	0	-1	0
18906195	1003	0	0	-100	0	230	101300000	1000	0	0	-1	0
18918755	1002	0	0	-100	0	230	101300000	1000	0	0	-1	0
18931315	1002	0	0	-100	0	230	101300000	1000	0	0	-1	0
18943875	1003	0	0	-100	0	230	101300000	1000	0	0	-1	0
18956435	1001	0	0	-100	0	230	101300000	1000	0	0	-1	0
18968995	998	0	0	-100	0	230	101300000	1000	0	0	-1	0
18981555	998	1	0	-100	0	230	101300000	1000	0	0	-1	0
18994115	993	3	0	-100	0	230	101300000	1000	0	0	-1	0
19006675	1001	0	0	-100	0	230	101300000	1000	0	0	-1	0
19019235	1000	0	0	-100	0	230	101300000	1000	0	0	-1	0
19031795	1002	0	0	-100	0	230	101300000	1000	0	0	-1	0
19044355	1000	0	0	-100	0	230	101300000	1000	0	0	-1	0
19056915	995	0	0	-100	0	230	101300000	1000	0	0	-1	0
19069475	998	0	0	-100	0	230	101300000	1000	0	0	-1	0
19082035	996	2	0	-100	0	230	101300000	1000	0	0	-1	0
19094595	998	0	0	-100	0	230	101300000	1000	0	0	-1	0
19107155	1010	0	0	-100	0	230	101300000	1000	0	0	-1	0
19119715	998	0	0	-100	0	230	101300000	1000	0	0	-1	0
19132275	1000	0	0	-100	0	230	101300000	1000	0	0	-1	0
19144835	1003	0	0	-100	0	230	101300000	1000	0	0	-1	0
19157395	998	5	0	-100	0	230	101300000	1000	0	0	-1	0
19169955	1003	0	0	-100	0	230	101300000	1000	0	0	-1	0
19182515	1000	0	0	-100	0	230	101300000	1000	0	0	-1	0
19195075	996	4	0	-100	0	230	101300000	1000	0	0	-1	0
19207635	1005	0	0	-100	0	230	101300000	1000	0	0	-1	0
19220195	1001	0	0	-100	0	230	101300000	1000	0	0	-1	0
19232755	998	4	0	-100	0	230	101300000	1000	0	0	-1	0
19245315	998	0	0	-100	0	230	101300000	1000	0	0	-1	0
19257875	1000	0	0	-100	0	230	101300000	1000	0	0	-1	0
19270435	995	0	0	-100	0	230	101300000	1000	0	0	-1	0
19282995	998	0	0	-100	0	230	101300000	1000	0	0	-1	0
19295555	1000	0	0	-100	0	230	101300000	1000	0	0	-1	0
19308115	998	2	0	-100	0	230	101300000	1000	0	0	-1	0
19320675	1001	0	0	-100	0	230	101300000	1000	0	0	-1	0
19333235	995	0	0	-100	0	230	101300000	1000	0	0	-1	0
19345795	996	0	0	-100	0	230	101300000	1000	0	0	-1	0
19358355	1002	0	0	-100	0	230	101300000	1000	0	0	-1	0
19370915	998	4	0	-100	0	230	101300000	1000	0	0	-1	0
19383475	1005	0	0	-100	0	230	101300000	1000	0	0	-1	0
19396035	998	0	0	-100	0	230	101300000	1000	0	0	-1	0
19408595	998	2	0	-100	0	230	101300000	1000	0	0	-1	0
19421155	1005	0	0	-100	0	230	101300000	1000	0	0	-1	0
19433715	998	0	0	-100	0	230	101300000	1000	0	0	-1	0
19446275	998	3	0	-100	0	230	101300000	1000	0	0	-1	0
19458835	1002	0	0	-100	0	230	101300000	1000	0	0	-1	0
19471395	998	0	0	-100	0	230	101300000	1000	0	0	-1	0
19483955	1001	0	0	-100	0	230	101300000	1000	0	0	-1	0
19496515	1002	0	0	-100	0	230	101300000	1000	0	0	-1	0
19509075	998	4	0	-100	0	230	101300000	1000	0	0	-1	0
19521635	1002	0	0	-100	0	230	101300000	1000	0	0	-1	0
19534195	995	0	0	-100	0	230	101300000	1000	0	0	-1	0
19546755	1001	1	0	-100	0	230	101300000	1000	0	0	-1	0
19559315	1001	0	0	-100	0	230	101300000	1000	0	0	-1	0
19571875	998	4	0	-100	0	230	101300000	1000	0	0	-1	0
19584435	1005	0	0	-100	0	230	101300000	1000	0	0	-1	0
19596995	998	0	0	-100	0	230	101300000	1000	0	0	-1	0
19609555	1005	0	0	-100	0	230	101300000	1000	0	0	-1	0
19622115	997	0	0	-100	0	230	101300000	1000	0	0	-1	0
19634675	995	2	0	-100	0	230	101300000	1000	0	0	-1	0
19647235	1001	0	0	-100	0	230	101300000	1000	0	0	-1	0
19659795	996	0	0	-100	0	230	101300000	1000	0	0	-1	0
19672355	997	0	0	-100	0	230	101300000	1000	0	0	-1	0
19684915	998	2	0	-100	0	230	101300000	1000	0	0	-1	0
19697475	1001	0	0	-100	0	230	101300000	1000	0	0	-1	0
19710035	998	3	0	-100	0	230	101300000	1000	0	0	-1	0
19722595	1001	0	0	-100	0	230	101300000	1000	0	0	-1	0
19735155	1003	0	0	-100	0	230	101300000	1000	0	0	-1	0
19747715	1001	0	0	-100	0	230	101300000	1000	0	0	-1	0
19760275	1000	0	0	-100	0	230	101300000	1000	0	0	-1	0
19772835	996	1	0	-100	0	230	101300000	1000	0	0	-1	0
19785395	1005	0	0	-100	0	230	101300000	1000	0	0	-1	0
19797955	995	0	0	-100	0	230	101300000	1000	0	0	-1	0
19810515	998	4	0	-100	0	230	101300000	1000	0	0	-1	0
19823075	996	2	0	-100	0	230	101300000	1000	0	0	-1	0
19835635	998	1	0	-100	0	230	101300000	1000	0	0	-1	0
19848195	998	0	0	-100	0	230	101300000	1000	0	0	-1	0
19860755	1005	0	0	-100	0	230	101300000	1000	0	0	-1	0
19873315	1002	0	0	-100	0	230	101300000	1000	0	0	-1	0
19885875	998	0	0	-100	0	230	101300000	1000	0	0	-1	0
19898435	1001	3	0	-100	0	230	101300000	1000	0	0	-1	0
19910995	996	0	0	-100	0	230	101300000	1000	0	0	-1	0
19923555	998	1	0	-100	0	230	101300000	1000	0	0	-1	0
19936115	1001	0	0	-100	0	230	101300000	1000	0	0	-1	0
19948675	1005	0	0	-100	0	230	101300000	1000	0	0	-1	0
19961235	1000	0	0	-100	0	230	101300000	1000	0	0	-1	0
19973795	998	0	0	-100	0	230	101300000	1000	0	0	-1	0
19986355	1000	0	0	-100	0	230	101300000	1000	0	0	-1	0
19998915	996	0	0	-100	0	230	101300000	1000	0	0	-1	0
20011475	998	0	0	-100	0	230	101300000	1000	0	0	-1	0
20024035	998	3	0	-100	0	230	101300000	1000	0	0	-1	0
20036595	996	3	0	-100	0	230	101300000	1000	0	0	-1	0
20049155	1003	3	0	-100	0	230	101300000	1000	0	0	-1	0
20061715	996	1	0	-100	0	230	101300000	1000	0	0	-1	0
20074275	998	0	0	-100	0	230	101300000	1000	0	0	-1	0
20086835	1005	0	0	-100	0	230	101300000	1000	0	0	-1	0
20099395	1001	0	0	-100	0	230	101300000	1000	0	0	-1	0
20111955	1000	0	0	-100	0	230	101300000	1000	0	0	-1	0
20124515	1006	0	0	-100	0	230	101300000	1000	0	0	-1	0
20137075	1003	0	0	-100	0	230	101300000	1000	0	0	-1	0
20149635	1005	0	0	-100	0	230	101300000	1000	0	0	-1	0
20162195	1002	0	0	-100	0	230	101300000	1000	0	0	-1	0
20174755	998	0	0	-100	0	230	101300000	1000	0	0	-1	0
20187315	997	0	0	-100	0	230	101300000	1000	0	0	-1	0
20199875	998	4	0	-100	0	230	101300000	1000	0	0	-1	0
20212435	998	4	0	-100	0	230	101300000	1000	0	0	-1	0
20224995	1000	0	0	-100	0	230	101300000	1000	0	0	-1	0
20237555	996	4	0	-100	0	230	101300000	1000	0	0	-1	0
20250115	998	5	0	-100	0	230	101300000	1000	0	0	-1	0
20262675	998	4	0	-100	0	230	101300000	1000	0	0	-1	0
20275235	996	4	0	-100	0	230	101300000	1000	0	0	-1	0
20287795	998	3	0	-100	0	230	101300000	1000	0	0	-1	0
20300355	993	0	0	-100	0	230	101300000	1000	0	0	-1	0
20312915	998	1	0	-100	0	230	101300000	1000	0	0	-1	0
20325475	1005	0	0	-100	0	230	101300000	1000	0	0	-1	0
20338035	1003	0	0	-100	0	230	101300000	1000	0	0	-1	0
20350595	1003	0	0	-100	0	230	101300000	1000	0	0	-1	0
20363155	1008	0	0	-100	0	230	101300000	1000	0	0	-1	0
20375715	998	0	0	-100	0	230	101300000	1000	0	0	-1	0
20388275	998	0	0	-100	0	230	101300000	1000	0	0	-1	0
20400835	995	0	0	-100	0	230	101300000	1000	0	0	-1	0
20413395	995	0	0	-100	0	230	101300000	1000	0	0	-1	0
20425955	998	1	0	-100	0	230	101300000	1000	0	0	-1	0
20438515	998	0	0	-100	0	230	101300000	1000	0	0	-1	0
20451075	998	4	0	-100	0	230	101300000	1000	0	0	-1	0
20463635	995	4	0	-100	0	230	101300000	1000	0	0	-1	0
20476195	993	3	0	-100	0	230	101300000	1000	0	0	-1	0
20488755	996	3	0	-100	0	230	101300000	1000	0	0	-1	0
20501315	996	1	0	-100	0	230	101300000	1000	0	0	-1	0
20513875	996	0	0	-100	0	230	101300000	1000	0	0	-1	0
20526435	1003	0	0	-100	0	230	101300000	1000	0	0	-1	0
20538995	1003	2	0	-100	0	230	101300000	1000	0	0	-1	0
20551555	1005	0	0	-100	0	230	101300000	1000	0	0	-1	0
20564115	1001	0	0	-100	0	230	101300000	1000	0	0	-1	0
20576675	1002	0	0	-100	0	230	101300000	1000	0	0	-1	0
20589235	1005	0	0	-100	0	230	101300000	1000	0	0	-1	0
20601795	998	0	0	-100	0	230	101300000	1000	0	0	-1	0
20614355	995	0	0	-100	0	230	101300000	1000	0	0	-1	0
20626915	1000	5	0	-100	0	230	101300000	1000	0	0	-1	0
20639475	998	4	0	-100	0	230	101300000	1000	0	0	-1	0
20652035	998	4	0	-100	0	230	101300000	1000	0	0	-1	0
20664595	998	4	0	-100	0	230	101300000	1000	0	0	-1	0
20677155	1003	3	0	-100	0	230	101300000	1000	0	0	-1	0
20689715	998	4	0	-100	0	230	101300000	1000	0	0	-1	0
20702275	998	4	0	-100	0	230	101300000	1000	0	0	-1	0
20714835	996	4	0	-100	0	230	101300000	1000	0	0	-1	0
20727395	1000	5	0	-100	0	230	101300000	1000	0	0	-1	0
20739955	998	4	0	-100	0	230	101300000	1000	0	0	-1	0
20752515	996	4	0	-100	0	230	101300000	1000	0	0	-1	0
20765075	996	2	0	-100	0	230	101300000	1000	0	0	-1	0
20777635	996	1	0	-100	0	230	101300000	1000	0	0	-1	0
20790195	998	0	0	-100	0	230	101300000	1000	0	0	-1	0
20802755	998	0	0	-100	0	230	101300000	1000	0	0	-1	0
20815315	996	0	0	-100	0	230	101300000	1000	0	0	-1	0
20827875	998	1	0	-100	0	230	101300000	1000	0	0	-1	0
20840435	996	3	0	-100	0	230	101300000	1000	0	0	-1	0
20852995	993	0	0	-100	0	230	101300000	1000	0	0	-1	0
20865555	998	3	0	-100	0	230	101300000	1000	0	0	-1	0
20878115	995	3	0	-100	0	230	101300000	1000	0	0	-1	0
20890675	993	2	0	-100	0	230	101300000	1000	0	0	-1	0
20903235	998	4	0	-100	0	230	101300000	1000	0	0	-1	0
20915795	996	3	0	-100	0	230	101300000	1000	0	0	-1	0
20928355	998	0	0	-100	0	230	101300000	1000	0	0	-1	0
20940915	995	0	0	-100	0	230	101300000	1000	0	0	-1	0
20953475	998	0	0	-100	0	230	101300000	1000	0	0	-1	0
20966035	1000	0	0	-100	0	230	101300000	1000	0	0	-1	0
20978595	1000	0	0	-100	0	230	101300000	1000	0	0	-1	0
20991155	1005	0	0	-100	0	230	101300000	1000	0	0	-1	0
21003715	1003	0	0	-100	0	230	101300000	1000	0	0	-1	0
21016275	1003	0	0	-100	0	230	101300000	1000	0	0	-1	0
21028835	998	3	0	-100	0	230	101300000	1000	0	0	-1	0
21041395	996	4	0	-100	0	230	101300000	1000	0	0	-1	0
21053955	997	0	0	-100	0	230	101300000	1000	0	0	-1	0
21066515	996	0	0	-100	0	230	101300000	1000	0	0	-1	0
21079075	998	0	0	-100	0	230	101300000	1000	0	0	-1	0
21091635	995	0	0	-100	0	230	101300000	1000	0	0	-1	0
21104195	1001	0	0	-100	0	230	101300000	1000	0	0	-1	0
21116755	1000	0	0	-100	0	230	101300000	1000	0	0	-1	0
21129315	1003	0	0	-100	0	230	101300000	1000	0	0	-1	0
21141875	1002	0	0	-100	0	230	101300000	1000	0	0	-1	0
21154435	998	2	0	-100	0	230	101300000	1000	0	0	-1	0
21166995	998	0	0	-100	0	230	101300000	1000	0	0	-1	0
21179555	995	0	0	-100	0	230	101300000	1000	0	0	-1	0
21192115	1001	0	0	-100	0	230	101300000	1000	0	0	-1	0
21204675	1003	0	0	-100	0	230	101300000	1000	0	0	-1	0
21217235	994	1	0	-100	0	230	101300000	1000	0	0	-1	0
21229795	996	3	0	-100	0	230	101300000	1000	0	0	-1	0
21242355	995	0	0	-100	0	230	101300000	1000	0	0	-1	0
21254915	1001	0	0	-100	0	230	101300000	1000	0	0	-1	0
21267475	1007	0	0	-100	0	230	101300000	1000	0	0	-1	0
21280035	996	0	0	-100	0	230	101300000	1000	0	0	-1	0
21292595	995	0	0	-100	0	230	101300000	1000	0	0	-1	0
21305155	1010	0	0	-100	0	230	101300000	1000	0	0	-1	0
21317715	996	0	0	-100	0	230	101300000	1000	0	0	-1	0
21330275	998	4	0	-100	0	230	101300000	1000	0	0	-1	0
21342835	1000	0	0	-100	0	230	101300000	1000	0	0	-1	0
21355395	1001	0	0	-100	0	230	101300000	1000	0	0	-1	0
21367955	998	4	0	-100	0	230	101300000	1000	0	0	-1	0
21380515	1005	0	0	-100	0	230	101300000	1000	0	0	-1	0
21393075	1001	0	0	-100	0	230	101300000	1000	0	0	-1	0
21405635	996	2	0	-100	0	230	101300000	1000	0	0	-1	0
21418195	998	0	0	-100	0	230	101300000	1000	0	0	-1	0
21430755	1005	0	0	-100	0	230	101300000	1000	0	0	-1	0
21443315	996	2	0	-100	0	230	101300000	1000	0	0	-1	0
21455875	995	0	0	-100	0	230	101300000	1000	0	0	-1	0
21468435	1005	0	0	-100	0	230	101300000	1000	0	0	-1	0
21480995	996	0	0	-100	0	230	101300000	1000	0	0	-1	0
21493555	998	0	0	-100	0	230	101300000	1000	0	0	-1	0
21506115	1005	0	0	-100	0	230	101300000	1000	0	0	-1	0
21518675	998	4	0	-100	0	230	101300000	1000	0	0	-1	0
21531235	1003	0	0	-100	0	230	101300000	1000	0	0	-1	0
21543795	996	2	0	-100	0	230	101300000	1000	0	0	-1	0
21556355	995	0	0	-100	0	230	101300000	1000	0	0	-1	0
21568915	1005	0	0	-100	0	230	101300000	1000	0	0	-1	0
21581475	996	4	0	-100	0	230	101300000	1000	0	0	-1	0
21594035	1000	0	0	-100	0	230	101300000	1000	0	0	-1	0
21606595	998	1	0	-100	0	230	101300000	1000	0	0	-1	0
21619155	1001	0	0	-100	0	230	101300000	1000	0	0	-1	0
21631715	1003	0	0	-100	0	230	101300000	1000	0	0	-1	0
21644275	998	4	0	-100	0	230	101300000	1000	0	0	-1	0
21656835	998	0	0	-100	0	230	101300000	1000	0	0	-1	0
21669395	1005	0	0	-100	0	230	101300000	1000	0	0	-1	0
21681955	996	1	0	-100	0	230	101300000	1000	0	0	-1	0
21694515	995	0	0	-100	0	230	101300000	1000	0	0	-1	0
21707075	1008	0	0	-100	0	230	101300000	1000	0	0	-1	0
21719635	996	0	0	-100	0	230	101300000	1000	0	0	-1	0
21732195	996	3	0	-100	0	230	101300000	1000	0	0	-1	0
21744755	998	0	0	-100	0	230	101300000	1000	0	0	-1	0
21757315	1002	0	0	-100	0	230	101300000	1000	0	0	-1	0
21769875	998	1	0	-100	0	230	101300000	1000	0	0	-1	0
21782435	997	0	0	-100	0	230	101300000	1000	0	0	-1	0
21794995	1002	0	0	-100	0	230	101300000	1000	0	0	-1	0
21807555	1003	0	0	-100	0	230	101300000	1000	0	0	-1	0
21820115	998	5	0	-100	0	230	101300000	1000	0	0	-1	0
21832675	1002	0	0	-100	0	230	101300000	1000	0	0	-1	0
21845235	998	1	0	-100	0	230	101300000	1000	0	0	-1	0
21857795	998	0	0	-100	0	230	101300000	1000	0	0	-1	0
21870355	1005	0	0	-100	0	230	101300000	1000	0	0	-1	0
21882915	998	1	0	-100	0	230	101300000	1000	0	0	-1	0
21895475	995	4	0	-100	0	230	101300000	1000	0	0	-1	0
21908035	1001	0	0	-100	0	230	101300000	1000	0	0	-1	0
21920595	1002	0	0	-100	0	230	101300000	1000	0	0	-1	0
21933155	1001	0	0	-100	0	230	101300000	1000	0	0	-1	0
21945715	998	0	0	-100	0	230	101300000	1000	0	0	-1	0
21958275	1002	0	0	-100	0	230	101300000	1000	0	0	-1	0
21970835	996	1	0	-100	0	230	101300000	1000	0	0	-1	0
21983395	995	0	0	-100	0	230	101300000	1000	0	0	-1	0
21995955	1002	0	0	-100	0	230	101300000	1000	0	0	-1	0
22008515	995	3	0	-100	0	230	101300000	1000	0	0	-1	0
22021075	998	0	0	-100	0	230	101300000	1000	0	0	-1	0
22033635	1002	0	0	-100	0	230	101300000	1000	0	0	-1	0
22046195	998	4	0	-100	0	230	101300000	1000	0	0	-1	0
22058755	998	0	0	-100	0	230	101300000	1000	0	0	-1	0
22071315	1005	0	0	-100	0	230	101300000	1000	0	0	-1	0
22083875	998	4	0	-100	0	230	101300000	1000	0	0	-1	0
22096435	1000	0	0	-100	0	230	101300000	1000	0	0	-1	0
22108995	998	0	0	-100	0	230	101300000	1000	0	0	-1	0
22121555	998	0	0	-100	0	230	101300000	1000	0	0	-1	0
22134115	1000	0	0	-100	0	230	101300000	1000	0	0	-1	0
22146675	996	0	0	-100	0	230	101300000	1000	0	0	-1	0
22159235	995	0	0	-100	0	230	101300000	1000	0	0	-1	0
22171795	1002	0	0	-100	0	230	101300000	1000	0	0	-1	0
22184355	1000	0	0	-100	0	230	101300000	1000	0	0	-1	0
22196915	996	4	0	-100	0	230	101300000	1000	0	0	-1	0
22209475	998	0	0	-100	0	230	101300000	1000	0	0	-1	0
22222035	1002	0	0	-100	0	230	101300000	1000	0	0	-1	0
22234595	1003	0	0	-100	0	230	101300000	1000	0	0	-1	0
22247155	1006	0	0	-100	0	230	101300000	1000	0	0	-1	0
22259715	996	0	0	-100	0	230	101300000	1000	0	0	-1	0
22272275	996	0	0	-100	0	230	101300000	1000	0	0	-1	0
22284835	998	0	0	-100	0	230	101300000	1000	0	0	-1	0
22297395	995	1	0	-100	0	230	101300000	1000	0	0	-1	0
22309955	994	1	0	-100	0	230	101300000	1000	0	0	-1	0
22322515	998	4	0	-100	0	230	101300000	1000	0	0	-1	0
22335075	997	0	0	-100	0	230	101300000	1000	0	0	-1	0
22347635	998	0	0	-100	0	230	101300000	1000	0	0	-1	0
22360195	1002	0	0	-100	0	230	101300000	1000	0	0	-1	0
22372755	1002	0	0	-100	0	230	101300000	1000	0	0	-1	0
22385315	1000	0	0	-100	0	230	101300000	1000	0	0	-1	0
22397875	996	1	0	-100	0	230	101300000	1000	0	0	-1	0
22410435	996	3	0	-100	0	230	101300000	1000	0	0	-1	0
22422995	998	0	0	-100	0	230	101300000	1000	0	0	-1	0
22435555	995	0	0	-100	0	230	101300000	1000	0	0	-1	0
22448115	1000	0	0	-100	0	230	101300000	1000	0	0	-1	0
22460675	1003	0	0	-100	0	230	101300000	1000	0	0	-1	0
22473235	1000	0	0	-100	0	230	101300000	1000	0	0	-1	0
22485795	998	0	0	-100	0	230	101300000	1000	0	0	-1	0
22498355	994	3	0	-100	0	230	101300000	1000	0	0	-1	0
22510915	997	0	0	-100	0	230	101300000	1000	0	0	-1	0
22523475	998	0	0	-100	0	230	101300000	1000	0	0	-1	0
22536035	1000	0	0	-100	0	230	101300000	1000	0	0	-1	0
22548595	1002	0	0	-100	0	230	101300000	1000	0	0	-1	0
22561155	1003	0	0	-100	0	230	101300000	1000	0	0	-1	0
22573715	993	2	0	-100	0	230	101300000	1000	0	0	-1	0
22586275	1000	4	0	-100	0	230	101300000	1000	0	0	-1	0
22598835	995	0	0	-100	0	230	101300000	1000	0	0	-1	0
22611395	998	0	0	-100	0	230	101300000	1000	0	0	-1	0
22623955	1000	0	0	-100	0	230	101300000	1000	0	0	-1	0
22636515	1000	0	0	-100	0	230	101300000	1000	0	0	-1	0
22649075	1005	0	0	-100	0	230	101300000	1000	0	0	-1	0
22661635	1002	0	0	-100	0	230	101300000	1000	0	0	-1	0
22674195	998	0	0	-100	0	230	101300000	1000	0	0	-1	0
22686755	1000	0	0	-100	0	230	101300000	1000	0	0	-1	0
22699315	998	1	0	-100	0	230	101300000	1000	0	0	-1	0
22711875	996	0	0	-100	0	230	101300000	1000	0	0	-1	0
22724435	996	2	0	-100	0	230	101300000	1000	0	0	-1	0
22736995	994	0	0	-100	0	230	101300000	1000	0	0	-1	0
22749555	998	4	0	-100	0	230	101300000	1000	0	0	-1	0
22762115	998	1	0	-100	0	230	101300000	1000	0	0	-1	0
22774675	1000	0	0	-100	0	230	101300000	1000	0	0	-1	0
22787235	1005	0	0	-100	0	230	101300000	1000	0	0	-1	0
22799795	1001	0	0	-100	0	230	101300000	1000	0	0	-1	0
22812355	1001	0	0	-100	0	230	101300000	1000	0	0	-1	0
22824915	1003	0	0	-100	0	230	101300000	1000	0	0	-1	0
22837475	998	0	0	-100	0	230	101300000	1000	0	0	-1	0
22850035	1000	0	0	-100	0	230	101300000	1000	0	0	-1	0
22862595	998	0	0	-100	0	230	101300000	1000	0	0	-1	0
22875155	1003	0	0	-100	0	230	101300000	1000	0	0	-1	0
22887715	1000	0	0	-100	0	230	101300000	1000	0	0	-1	0
22900275	1001	0	0	-100	0	230	101300000	1000	0	0	-1	0
22912835	1000	0	0	-100	0	230	101300000	1000	0	0	-1	0
22925395	1000	0	0	-100	0	230	101300000	1000	0	0	-1	0
22937955	995	0	0	-100	0	230	101300000	1000	0	0	-1	0
22950515	995	0	0	-100	0	230	101300000	1000	0	0	-1	0
22963075	995	0	0	-100	0	230	101300000	1000	0	0	-1	0
22975635	996	0	0	-100	0	230	101300000	1000	0	0	-1	0
22988195	1003	0	0	-100	0	230	101300000	1000	0	0	-1	0
23000755	1000	0	0	-100	0	230	101300000	1000	0	0	-1	0
23013315	1001	0	0	-100	0	230	101300000	1000	0	0	-1	0
23025875	1003	0	0	-100	0	230	101300000	1000	0	0	-1	0
23038435	997	0	0	-100	0	230	101300000	1000	0	0	-1	0
23050995	1001	0	0	-100	0	230	101300000	1000	0	0	-1	0
23063555	995	0	0	-100	0	230	101300000	1000	0	0	-1	0
23076115	996	0	0	-100	0	230	101300000	1000	0	0	-1	0
23088675	1001	4	0	-100	0	230	101300000	1000	0	0	-1	0
23101235	995	4	0	-100	0	230	101300000	1000	0	0	-1	0
23113795	998	3	0	-100	0	230	101300000	1000	0	0	-1	0
23126355	998	4	0	-100	0	230	101300000	1000	0	0	-1	0
23138915	995	4	0	-100	0	230	101300000	1000	0	0	-1	0
23151475	996	4	0	-100	0	230	101300000	1000	0	0	-1	0
23164035	996	3	0	-100	0	230	101300000	1000	0	0	-1	0
23176595	995	1	0	-100	0	230	101300000	1000	0	0	-1	0
23189155	1001	0	0	-100	0	230	101300000	1000	0	0	-1	0
23201715	996	1	0	-100	0	230	101300000	1000	0	0	-1	0
23214275	993	1	0	-100	0	230	101300000	1000	0	0	-1	0
23226835	998	3	0	-100	0	230	101300000	1000	0	0	-1	0
23239395	998	4	0	-100	0	230	101300000	1000	0	0	-1	0
23251955	994	4	0	-100	0	230	101300000	1000	0	0	-1	0
23264515	998	4	0	-100	0	230	101300000	1000	0	0	-1	0
23277075	998	4	0	-100	0	230	101300000	1000	0	0	-1	0
23289635	995	0	0	-100	0	230	101300000	1000	0	0	-1	0
23302195	995	0	0	-100	0	230	101300000	1000	0	0	-1	0
23314755	995	0	0	-100	0	230	101300000	1000	0	0	-1	0
23327315	1003	0	0	-100	0	230	101300000	1000	0	0	-1	0
23339875	1002	0	0	-100	0	230	101300000	1000	0	0	-1	0
23352435	1003	0	0	-100	0	230	101300000	1000	0	0	-1	0
23364995	1005	2	0	-100	0	230	101300000	1000	0	0	-1	0
23377555	998	0	0	-100	0	230	101300000	1000	0	0	-1	0
23390115	998	1	0	-100	0	230	101300000	1000	0	0	-1	0
23402675	996	1	0	-100	0	230	101300000	1000	0	0	-1	0
23415235	996	3	0	-100	0	230	101300000	1000	0	0	-1	0
23427795	1001	3	0	-100	0	230	101300000	1000	0	0	-1	0
23440355	995	0	0	-100	0	230	101300000	1000	0	0	-1	0
23452915	998	0	0	-100	0	230	101300000	1000	0	0	-1	0
23465475	1008	0	0	-100	0	230	101300000	1000	0	0	-1	0
23478035	994	3	0	-100	0	230	101300000	1000	0	0	-1	0
23490595	1002	0	0	-100	0	230	101300000	1000	0	0	-1	0
23503155	1005	0	0	-100	0	230	101300000	1000	0	0	-1	0
23515715	995	4	0	-100	0	230	101300000	1000	0	0	-1	0
23528275	1002	0	0	-100	0	230	101300000	1000	0	0	-1	0
23540835	998	0	0	-100	0	230	101300000	1000	0	0	-1	0
23553395	998	0	0	-100	0	230	101300000	1000	0	0	-1	0
23565955	1005	0	0	-100	0	230	101300000	1000	0	0	-1	0
23578515	996	3	0	-100	0	230	101300000	1000	0	0	-1	0
23591075	1002	0	0	-100	0	230	101300000	1000	0	0	-1	0
23603635	998	3	0	-100	0	230	101300000	1000	0	0	-1	0
23616195	1000	0	0	-100	0	230	101300000	1000	0	0	-1	0
23628755	1000	0	0	-100	0	230	101300000	1000	0	0	-1	0
23641315	995	0	0	-100	0	230	101300000	1000	0	0	-1	0
23653875	1003	0	0	-100	0	230	101300000	1000	0	0	-1	0
23666435	998	0	0	-100	0	230	101300000	1000	0	0	-1	0
23678995	1003	4	0	-100	0	230	101300000	1000	0	0	-1	0
23691555	998	0	0	-100	0	230	101300000	1000	0	0	-1	0
23704115	1003	0	0	-100	0	230	101300000	1000	0	0	-1	0
23716675	993	3	0	-100	0	230	101300000	1000	0	0	-1	0
23729235	1003	0	0	-100	0	230	101300000	1000	0	0	-1	0
23741795	998	4	0	-100	0	230	101300000	1000	0	0	-1	0
23754355	1001	0	0	-100	0	230	101300000	1000	0	0	-1	0
23766915	1001	1	0	-100	0	230	101300000	1000	0	0	-1	0
23779475	1005	0	0	-100	0	230	101300000	1000	0	0	-1	0
23792035	1000	4	0	-100	0	230	101300000	1000	0	0	-1	0
23804595	1002	0	0	-100	0	230	101300000	1000	0	0	-1	0
23817155	1001	3	0	-100	0	230	101300000	1000	0	0	-1	0
23829715	1005	0	0	-100	0	230	101300000	1000	0	0	-1	0
23842275	998	4	0	-100	0	230	101300000	1000	0	0	-1	0
23854835	1000	0	0	-100	0	230	101300000	1000	0	0	-1	0
23867395	998	2	0	-100	0	230	101300000	1000	0	0	-1	0
23879955	998	0	0	-100	0	230	101300000	1000	0	0	-1	0
23892515	996	0	0	-100	0	230	101300000	1000	0	0	-1	0
23905075	998	0	0	-100	0	230	101300000	1000	0	0	-1	0
23917635	1002	0	0	-100	0	230	101300000	1000	0	0	-1	0
23930195	1001	3	0	-100	0	230	101300000	1000	0	0	-1	0
23942755	1003	0	0	-100	0	230	101300000	1000	0	0	-1	0
23955315	998	4	0	-100	0	230	101300000	1000	0	0	-1	0
23967875	1005	0	0	-100	0	230	101300000	1000	0	0	-1	0
23980435	996	4	0	-100	0	230	101300000	1000	0	0	-1	0
23992995	1001	2	0	-100	0	230	101300000	1000	0	0	-1	0
24005555	996	3	0	-100	0	230	101300000	1000	0	0	-1	0
24018115	998	0	0	-100	0	230	101300000	1000	0	0	-1	0
24030675	994	0	0	-100	0	230	101300000	1000	0	0	-1	0
24043235	998	0	0	-100	0	230	101300000	1000	0	0	-1	0
24055795	998	2	0	-100	0	230	101300000	1000	0	0	-1	0
24068355	1003	0	0	-100	0	230	101300000	1000	0	0	-1	0
24080915	993	0	0	-100	0	230	101300000	1000	0	0	-1	0
24093475	997	0	0	-100	0	230	101300000	1000	0	0	-1	0
24106035	998	0	0	-100	0	230	101300000	1000	0	0	-1	0
24118595	995	0	0	-100	0	230	101300000	1000	0	0	-1	0
24131155	1007	0	0	-100	0	230	101300000	1000	0	0	-1	0
24143715	996	3	0	-100	0	230	101300000	1000	0	0	-1	0
24156275	1000	0	0	-100	0	230	101300000	1000	0	0	-1	0
24168835	998	0	0	-100	0	230	101300000	1000	0	0	-1	0
24181395	995	0	0	-100	0	230	101300000	1000	0	0	-1	0
24193955	1000	0	0	-100	0	230	101300000	1000	0	0	-1	0
24206515	998	4	0	-100	0	230	101300000	1000	0	0	-1	0
24219075	1000	0	0	-100	0	230	101300000	1000	0	0	-1	0
24231635	996	1	0	-100	0	230	101300000	1000	0	0	-1	0
24244195	998	0	0	-100	0	230	101300000	1000	0	0	-1	0
24256755	998	0	0	-100	0	230	101300000	1000	0	0	-1	0
24269315	995	0	0	-100	0	230	101300000	1000	0	0	-1	0
24281875	1001	0	0	-100	0	230	101300000	1000	0	0	-1	0
24294435	998	0	0	-100	0	230	101300000	1000	0	0	-1	0
24306995	1003	2	0	-100	0	230	101300000	1000	0	0	-1	0
24319555	996	4	0	-100	0	230	101300000	1000	0	0	-1	0
24332115	1000	0	0	-100	0	230	101300000	1000	0	0	-1	0
24344675	998	0	0	-100	0	230	101300000	1000	0	0	-1	0
24357235	995	0	0	-100	0	230	101300000	1000	0	0	-1	0
24369795	1002	0	0	-100	0	230	101300000	1000	0	0	-1	0
24382355	1000	4	0	-100	0	230	101300000	1000	0	0	-1	0
24394915	1001	0	0	-100	0	230	101300000	1000	0	0	-1	0
24407475	998	4	0	-100	0	230	101300000	1000	0	0	-1	0
24420035	1000	0	0	-100	0	230	101300000	1000	0	0	-1	0
24432595	995	1	0	-100	0	230	101300000	1000	0	0	-1	0
24445155	1003	0	0	-100	0	230	101300000	1000	0	0	-1	0
24457715	998	0	0	-100	0	230	101300000	1000	0	0	-1	0
24470275	995	0	0	-100	0	230	101300000	1000	0	0	-1	0
24482835	1005	0	0	-100	0	230	101300000	1000	0	0	-1	0
24495395	995	3	0	-100	0	230	101300000	1000	0	0	-1	0
24507955	998	0	0	-100	0	230	101300000	1000	0	0	-1	0
24520515	1002	0	0	-100	0	230	101300000	1000	0	0	-1	0
24533075	998	4	0	-100	0	230	101300000	1000	0	0	-1	0
24545635	1006	0	0	-100	0	230	101300000	1000	0	0	-1	0
24558195	995	0	0	-100	0	230	101300000	1000	0	0	-1	0
24570755	998	0	0	-100	0	230	101300000	1000	0	0	-1	0
24583315	1000	0	0	-100	0	230	101300000	1000	0	0	-1	0
24595875	993	0	0	-100	0	230	101300000	1000	0	0	-1	0
24608435	1001	0	0	-100	0	230	101300000	1000	0	0	-1	0
24620995	993	0	0	-100	0	230	101300000	1000	0	0	-1	0
24633555	1003	0	0	-100	0	230	101300000	1000	0	0	-1	0
24646115	1000	0	0	-100	0	230	101300000	1000	0	0	-1	0
24658675	1003	0	0	-100	0	230	101300000	1000	0	0	-1	0
24671235	998	0	0	-100	0	230	101300000	1000	0	0	-1	0
24683795	1007	0	0	-100	0	230	101300000	1000	0	0	-1	0
24696355	995	0	0	-100	0	230	101300000	1000	0	0	-1	0
24708915	1001	0	0	-100	0	230	101300000	1000	0	0	-1	0
24721475	996	0	0	-100	0	230	101300000	1000	0	0	-1	0
24734035	998	0	0	-100	0	230	101300000	1000	0	0	-1	0
24746595	1000	0	0	-100	0	230	101300000	1000	0	0	-1	0
24759155	1010	0	0	-100	0	230	101300000	1000	0	0	-1	0
24771715	995	4	0	-100	0	230	101300000	1000	0	0	-1	0
24784275	1003	0	0	-100	0	230	101300000	1000	0	0	-1	0
24796835	995	2	0	-100	0	230	101300000	1000	0	0	-1	0
24809395	998	0	0	-100	0	230	101300000	1000	0	0	-1	0
24821955	1005	0	0	-100	0	230	101300000	1000	0	0	-1	0
24834515	996	3	0	-100	0	230	101300000	1000	0	0	-1	0
24847075	1003	0	0	-100	0	230	101300000	1000	0	0	-1	0
24859635	993	0	0	-100	0	230	101300000	1000	0	0	-1	0
24872195	998	0	0	-100	0	230	101300000	1000	0	0	-1	0
24884755	998	2	0	-100	0	230	101300000	1000	0	0	-1	0
24897315	998	0	0	-100	0	230	101300000	1000	0	0	-1	0
24909875	996	0	0	-100	0	230	101300000	1000	0	0	-1	0
24922435	1002	0	0	-100	0	230	101300000	1000	0	0	-1	0
24934995	994	0	0	-100	0	230	101300000	1000	0	0	-1	0
24947555	1005	0	0	-100	0	230	101300000	1000	0	0	-1	0
24960115	998	0	0	-100	0	230	101300000	1000	0	0	-1	0
24972675	993	3	0	-100	0	230	101300000	1000	0	0	-1	0
24985235	1002	0	0	-100	0	230	101300000	1000	0	0	-1	0
24997795	995	0	0	-100	0	230	101300000	1000	0	0	-1	0
25010355	995	2	0	-100	0	230	101300000	1000	0	0	-1	0
25022915	1003	0	0	-100	0	230	101300000	1000	0	0	-1	0
25035475	995	4	0	-100	0	230	101300000	1000	0	0	-1	0
25048035	1005	0	0	-100	0	230	101300000	1000	0	0	-1	0
25060595	996	2	0	-100	0	230	101300000	1000	0	0	-1	0
25073155	1010	0	0	-100	0	230	101300000	1000	0	0	-1	0
25085715	998	3	0	-100	0	230	101300000	1000	0	0	-1	0
25098275	1003	0	0	-100	0	230	101300000	1000	0	0	-1	0
25110835	998	4	0	-100	0	230	101300000	1000	0	0	-1	0
25123395	1002	0	0	-100	0	230	101300000	1000	0	0	-1	0
25135955	995	0	0	-100	0	230	101300000	1000	0	0	-1	0
25148515	1003	0	0	-100	0	230	101300000	1000	0	0	-1	0
25161075	997	0	0	-100	0	230	101300000	1000	0	0	-1	0
25173635	998	0	0	-100	0	230	101300000	1000	0	0	-1	0
25186195	995	0	0	-100	0	230	101300000	1000	0	0	-1	0
25198755	1000	0	0	-100	0	230	101300000	1000	0	0	-1	0
25211315	998	0	0	-100	0	230	101300000	1000	0	0	-1	0
25223875	1001	0	0	-100	0	230	101300000	1000	0	0	-1	0
25236435	998	0	0	-100	0	230	101300000	1000	0	0	-1	0
25248995	1001	0	0	-100	0	230	101300000	1000	0	0	-1	0
25261555	998	5	0	-100	0	230	101300000	1000	0	0	-1	0
25274115	997	0	0	-100	0	230	101300000	1000	0	0	-1	0
25286675	1005	0	0	-100	0	230	101300000	1000	0	0	-1	0
25299235	995	4	0	-100	0	230	101300000	1000	0	0	-1	0
25311795	1002	0	0	-100	0	230	101300000	1000	0	0	-1	0
25324355	996	2	0	-100	0	230	101300000	1000	0	0	-1	0
25336915	1000	0	0	-100	0	230	101300000	1000	0	0	-1	0
25349475	996	2	0	-100	0	230	101300000	1000	0	0	-1	0
25362035	1000	0	0	-100	0	230	101300000	1000	0	0	-1	0
25374595	1001	0	0	-100	0	230	101300000	1000	0	0	-1	0
25387155	1006	0	0	-100	0	230	101300000	1000	0	0	-1	0
25399715	1003	0	0	-100	0	230	101300000	1000	0	0	-1	0
25412275	998	4	0	-100	0	230	101300000	1000	0	0	-1	0
25424835	998	0	0	-100	0	230	101300000	1000	0	0	-1	0
25437395	1000	0	0	-100	0	230	101300000	1000	0	0	-1	0
25449955	1001	1	0	-100	0	230	101300000	1000	0	0	-1	0
25462515	1005	0	0	-100	0	230	101300000	1000	0	0	-1	0
25475075	998	1	0	-100	0	230	101300000	1000	0	0	-1	0
25487635	1005	0	0	-100	0	230	101300000	1000	0	0	-1	0
25500195	996	4	0	-100	0	230	101300000	1000	0	0	-1	0
25512755	1003	0	0	-100	0	230	101300000	1000	0	0	-1	0
25525315	996	0	0	-100	0	230	101300000	1000	0	0	-1	0
25537875	996	0	0	-100	0	230	101300000	1000	0	0	-1	0
25550435	1003	0	0	-100	0	230	101300000	1000	0	0	-1	0
25562995	996	0	0	-100	0	230	101300000	1000	0	0	-1	0
25575555	1001	0	0	-100	0	230	101300000	1000	0	0	-1	0
25588115	998	2	0	-100	0	230	101300000	1000	0	0	-1	0
25600675	998	0	0	-100	0	230	101300000	1000	0	0	-1	0
25613235	1003	0	0	-100	0	230	101300000	1000	0	0	-1	0
25625795	998	4	0	-100	0	230	101300000	1000	0	0	-1	0
25638355	1000	0	0	-100	0	230	101300000	1000	0	0	-1	0
25650915	1005	0	0	-100	0	230	101300000	1000	0	0	-1	0
25663475	998	4	0	-100	0	230	101300000	1000	0	0	-1	0
25676035	1002	0	0	-100	0	230	101300000	1000	0	0	-1	0
25688595	998	0	0	-100	0	230	101300000	1000	0	0	-1	0
25701155	1003	2	0	-100	0	230	101300000	1000	0	0	-1	0
25713715	1000	0	0	-100	0	230	101300000	1000	0	0	-1	0
25726275	1005	0	0	-100	0	230	101300000	1000	0	0	-1	0
25738835	996	2	0	-100	0	230	101300000	1000	0	0	-1	0
25751395	995	0	0	-100	0	230	101300000	1000	0	0	-1	0
25763955	1003	0	0	-100	0	230	101300000	1000	0	0	-1	0
25776515	993	2	0	-100	0	230	101300000	1000	0	0	-1	0
25789075	1000	0	0	-100	0	230	101300000	1000	0	0	-1	0
25801635	1003	0	0	-100	0	230	101300000	1000	0	0	-1	0
25814195	998	4	0	-100	0	230	101300000	1000	0	0	-1	0
25826755	998	0	0	-100	0	230	101300000	1000	0	0	-1	0
25839315	1003	0	0	-100	0	230	101300000	1000	0	0	-1	0
25851875	995	3	0	-100	0	230	101300000	1000	0	0	-1	0
25864435	996	0	0	-100	0	230	101300000	1000	0	0	-1	0
25876995	1003	3	0	-100	0	230	101300000	1000	0	0	-1	0
25889555	996	0	0	-100	0	230	101300000	1000	0	0	-1	0
25902115	998	0	0	-100	0	230	101300000	1000	0	0	-1	0
25914675	1005	0	0	-100	0	230	101300000	1000	0	0	-1	0
25927235	1000	2	0	-100	0	230	101300000	1000	0	0	-1	0
25939795	996	4	0	-100	0	230	101300000	1000	0	0	-1	0
25952355	1000	0	0	-100	0	230	101300000	1000	0	0	-1	0
25964915	1006	0	0	-100	0	230	101300000	1000	0	0	-1	0
25977475	994	3	0	-100	0	230	101300000	1000	0	0	-1	0
25990035	1000	0	0	-100	0	230	101300000	1000	0	0	-1	0
26002595	1003	0	0	-100	0	230	101300000	1000	0	0	-1	0
26015155	1000	3	0	-100	0	230	101300000	1000	0	0	-1	0
26027715	996	0	0	-100	0	230	101300000	1000	0	0	-1	0
26040275	1000	0	0	-100	0	230	101300000	1000	0	0	-1	0
26052835	998	1	0	-100	0	230	101300000	1000	0	0	-1	0
26065395	996	0	0	-100	0	230	101300000	1000	0	0	-1	0
26077955	1000	0	0	-100	0	230	101300000	1000	0	0	-1	0
26090515	1001	0	0	-100	0	230	101300000	1000	0	0	-1	0
26103075	997	0	0	-100	0	230	101300000	1000	0	0	-1	0
26115635	1001	0	0	-100	0	230	101300000	1000	0	0	-1	0
26128195	995	0	0	-100	0	230	101300000	1000	0	0	-1	0
26140755	995	0	0	-100	0	230	101300000	1000	0	0	-1	0
26153315	1003	0	0	-100	0	230	101300000	1000	0	0	-1	0
26165875	998	2	0	-100	0	230	101300000	1000	0	0	-1	0
26178435	998	0	0	-100	0	230	101300000	1000	0	0	-1	0
26190995	998	0	0	-100	0	230	101300000	1000	0	0	-1	0
26203555	998	0	0	-100	0	230	101300000	1000	0	0	-1	0
26216115	1003	0	0	-100	0	230	101300000	1000	0	0	-1	0
26228675	998	4	0	-100	0	230	101300000	1000	0	0	-1	0
26241235	1002	0	0	-100	0	230	101300000	1000	0	0	-1	0
26253795	994	3	0	-100	0	230	101300000	1000	0	0	-1	0
26266355	1005	0	0	-100	0	230	101300000	1000	0	0	-1	0
26278915	995	4	0	-100	0	230	101300000	1000	0	0	-1	0
26291475	1003	0	0	-100	0	230	101300000	1000	0	0	-1	0
26304035	1001	1	0	-100	0	230	101300000	1000	0	0	-1	0
26316595	1000	0	0	-100	0	230	101300000	1000	0	0	-1	0
26329155	1005	0	0	-100	0	230	101300000	1000	0	0	-1	0
26341715	998	2	0	-100	0	230	101300000	1000	0	0	-1	0
26354275	998	0	0	-100	0	230	101300000	1000	0	0	-1	0
26366835	1001	0	0	-100	0	230	101300000	1000	0	0	-1	0
26379395	998	3	0	-100	0	230	101300000	1000	0	0	-1	0
26391955	1001	0	0	-100	0	230	101300000	1000	0	0	-1	0
26404515	995	2	0	-100	0	230	101300000	1000	0	0	-1	0
26417075	996	0	0	-100	0	230	101300000	1000	0	0	-1	0
26429635	1003	0	0	-100	0	230	101300000	1000	0	0	-1	0
26442195	998	0	0	-100	0	230	101300000	1000	0	0	-1	0
26454755	995	0	0	-100	0	230	101300000	1000	0	0	-1	0
26467315	1005	0	0	-100	0	230	101300000	1000	0	0	-1	0
26479875	993	2	0	-100	0	230	101300000	1000	0	0	-1	0
26492435	995	0	0	-100	0	230	101300000	1000	0	0	-1	0
26504995	1005	2	0	-100	0	230	101300000	1000	0	0	-1	0
26517555	995	1	0	-100	0	230	101300000	1000	0	0	-1	0
26530115	998	2	0	-100	0	230	101300000	1000	0	0	-1	0
26542675	998	0	0	-100	0	230	101300000	1000	0	0	-1	0
26555235	1005	0	0	-100	0	230	101300000	1000	0	0	-1	0
26567795	998	1	0	-100	0	230	101300000	1000	0	0	-1	0
26580355	996	4	0	-100	0	230	101300000	1000	0	0	-1	0
26592915	1000	0	0	-100	0	230	101300000	1000	0	0	-1	0
26605475	1007	0	0	-100	0	230	101300000	1000	0	0	-1	0
26618035	998	1	0	-100	0	230	101300000	1000	0	0	-1	0
26630595	998	4	0	-100	0	230	101300000	1000	0	0	-1	0
26643155	1001	0	0	-100	0	230	101300000	1000	0	0	-1	0
26655715	1002	0	0	-100	0	230	101300000	1000	0	0	-1	0
26668275	1005	0	0	-100	0	230	101300000	1000	0	0	-1	0
26680835	998	4	0	-100	0	230	101300000	1000	0	0	-1	0
26693395	996	0	0	-100	0	230	101300000	1000	0	0	-1	0
26705955	1005	0	0	-100	0	230	101300000	1000	0	0	-1	0
26718515	996	3	0	-100	0	230	101300000	1000	0	0	-1	0
26731075	998	0	0	-100	0	230	101300000	1000	0	0	-1	0
26743635	1003	0	0	-100	0	230	101300000	1000	0	0	-1	0
26756195	993	2	0	-100	0	230	101300000	1000	0	0	-1	0
26768755	1000	0	0	-100	0	230	101300000	1000	0	0	-1	0
26781315	1001	0	0	-100	0	230	101300000	1000	0	0	-1	0
26793875	994	3	0	-100	0	230	101300000	1000	0	0	-1	0
26806435	998	0	0	-100	0	230	101300000	1000	0	0	-1	0
26818995	1000	1	0	-100	0	230	101300000	1000	0	0	-1	0
26831555	996	0	0	-100	0	230	101300000	1000	0	0	-1	0
26844115	1001	3	0	-100	0	230	101300000	1000	0	0	-1	0
26856675	1000	0	0	-100	0	230	101300000	1000	0	0	-1	0
26869235	1000	0	0	-100	0	230	101300000	1000	0	0	-1	0
26881795	996	4	0	-100	0	230	101300000	1000	0	0	-1	0
26894355	998	0	0	-100	0	230	101300000	1000	0	0	-1	0
26906915	1003	0	0	-100	0	230	101300000	1000	0	0	-1	0
26919475	993	0	0	-100	0	230	101300000	1000	0	0	-1	0
26932035	996	3	0	-100	0	230	101300000	1000	0	0	-1	0
26944595	995	0	0	-100	0	230	101300000	1000	0	0	-1	0
26957155	1003	0	0	-100	0	230	101300000	1000	0	0	-1	0
26969715	1003	0	0	-100	0	230	101300000	1000	0	0	-1	0
26982275	1005	0	0	-100	0	230	101300000	1000	0	0	-1	0
26994835	1003	0	0	-100	0	230	101300000	1000	0	0	-1	0
27007395	1001	1	0	-100	0	230	101300000	1000	0	0	-1	0
27019955	995	4	0	-100	0	230	101300000	1000	0	0	-1	0
27032515	1001	3	0	-100	0	230	101300000	1000	0	0	-1	0
27045075	998	0	0	-100	0	230	101300000	1000	0	0	-1	0
