timestamp	voltage	current	windSpeed	pitchAngle	rpm	temperature	ambientPressure	humidity	accelerationX	accelerationY	accelerationZ	currentSink
7039070	1512	0	0	-100	0	230	101300000	1000	0	0	-1	0
7046523	1503	2	0	-100	0	230	101300000	1000	0	0	-1	0
7059083	1505	2	0	-100	0	230	101300000	1000	0	0	-1	0
7071643	1500	0	0	-100	0	230	101300000	1000	0	0	-1	0
7084203	1500	0	0	-100	0	230	101300000	1000	0	0	-1	0
7096763	1503	0	0	-100	0	230	101300000	1000	0	0	-1	0
7109323	1503	0	0	-100	0	230	101300000	1000	0	0	-1	0
7121883	1506	0	0	-100	0	230	101300000	1000	0	0	-1	0
7134443	1508	0	0	-100	0	230	101300000	1000	0	0	-1	0
7147004	1500	1	0	-100	0	230	101300000	1000	0	0	-1	0
7159563	1512	0	0	-100	0	230	101300000	1000	0	0	-1	0
7172123	1508	0	0	-100	0	230	101300000	1000	0	0	-1	0
7184683	1506	0	0	-100	0	230	101300000	1000	0	0	-1	0
7197243	1508	0	0	-100	0	230	101300000	1000	0	0	-1	0
7209803	1501	0	0	-100	0	230	101300000	1000	0	0	-1	0
7222363	1505	0	0	-100	0	230	101300000	1000	0	0	-1	0
7234923	1506	0	0	-100	0	230	101300000	1000	0	0	-1	0
7247483	1503	0	0	-100	0	230	101300000	1000	0	0	-1	0
7260043	1505	3	0	-100	0	230	101300000	1000	0	0	-1	0
7272603	1501	0	0	-100	0	230	101300000	1000	0	0	-1	0
7285163	1497	2	0	-100	0	230	101300000	1000	0	0	-1	0
7297723	1503	2	0	-100	0	230	101300000	1000	0	0	-1	0
7310283	1501	1	0	-100	0	230	101300000	1000	0	0	-1	0
7322843	1501	1	0	-100	0	230	101300000	1000	0	0	-1	0
7335403	1502	0	0	-100	0	230	101300000	1000	0	0	-1	0
7347963	1503	0	0	-100	0	230	101300000	1000	0	0	-1	0
7716235	1510	0	0	-100	0	230	101300000	1000	0	0	-1	0
7728795	1508	0	0	-100	0	230	101300000	1000	0	0	-1	0
7741355	1510	0	0	-100	0	230	101300000	1000	0	0	-1	0
7753915	1505	0	0	-100	0	230	101300000	1000	0	0	-1	0
7766475	1500	0	0	-100	0	230	101300000	1000	0	0	-1	0
7779035	1503	0	0	-100	0	230	101300000	1000	0	0	-1	0
7791595	1498	1	0	-100	0	230	101300000	1000	0	0	-1	0
7804155	1499	4	0	-100	0	230	101300000	1000	0	0	-1	0
7816715	1505	0	0	-100	0	230	101300000	1000	0	0	-1	0
7829275	1503	0	0	-100	0	230	101300000	1000	0	0	-1	0
7841835	1503	0	0	-100	0	230	101300000	1000	0	0	-1	0
7854395	1508	0	0	-100	0	230	101300000	1000	0	0	-1	0
7866955	1505	0	0	-100	0	230	101300000	1000	0	0	-1	0
7879515	1510	0	0	-100	0	230	101300000	1000	0	0	-1	0
7892075	1507	0	0	-100	0	230	101300000	1000	0	0	-1	0
7904635	1504	0	0	-100	0	230	101300000	1000	0	0	-1	0
7917195	1503	3	0	-100	0	230	101300000	1000	0	0	-1	0
7929755	1502	0	0	-100	0	230	101300000	1000	0	0	-1	0
7942315	1508	0	0	-100	0	230	101300000	1000	0	0	-1	0
7954875	1510	0	0	-100	0	230	101300000	1000	0	0	-1	0
7967435	1501	0	0	-100	0	230	101300000	1000	0	0	-1	0
7979995	1504	0	0	-100	0	230	101300000	1000	0	0	-1	0
7992555	1503	2	0	-100	0	230	101300000	1000	0	0	-1	0
8005115	1503	0	0	-100	0	230	101300000	1000	0	0	-1	0
8017675	1503	0	0	-100	0	230	101300000	1000	0	0	-1	0
8030235	1505	0	0	-100	0	230	101300000	1000	0	0	-1	0
8042795	1510	0	0	-100	0	230	101300000	1000	0	0	-1	0
8055355	1508	0	0	-100	0	230	101300000	1000	0	0	-1	0
8067915	1500	0	0	-100	0	230	101300000	1000	0	0	-1	0
8080475	1500	0	0	-100	0	230	101300000	1000	0	0	-1	0
8093035	1500	2	0	-100	0	230	101300000	1000	0	0	-1	0
8105595	1503	2	0	-100	0	230	101300000	1000	0	0	-1	0
8118155	1502	4	0	-100	0	230	101300000	1000	0	0	-1	0
8130715	1502	0	0	-100	0	230	101300000	1000	0	0	-1	0
8143275	1499	0	0	-100	0	230	101300000	1000	0	0	-1	0
8155835	1502	0	0	-100	0	230	101300000	1000	0	0	-1	0
8168395	1502	0	0	-100	0	230	101300000	1000	0	0	-1	0
8180955	1509	0	0	-100	0	230	101300000	1000	0	0	-1	0
8193515	1502	0	0	-100	0	230	101300000	1000	0	0	-1	0
8206075	1500	0	0	-100	0	230	101300000	1000	0	0	-1	0
8218635	1505	4	0	-100	0	230	101300000	1000	0	0	-1	0
8231195	1503	3	0	-100	0	230	101300000	1000	0	0	-1	0
8243755	1501	0	0	-100	0	230	101300000	1000	0	0	-1	0
8256315	1503	2	0	-100	0	230	101300000	1000	0	0	-1	0
8268875	1502	0	0	-100	0	230	101300000	1000	0	0	-1	0
8281435	1503	0	0	-100	0	230	101300000	1000	0	0	-1	0
8293995	1503	0	0	-100	0	230	101300000	1000	0	0	-1	0
8306555	1503	0	0	-100	0	230	101300000	1000	0	0	-1	0
8319115	1505	0	0	-100	0	230	101300000	1000	0	0	-1	0
8331675	1503	0	0	-100	0	230	101300000	1000	0	0	-1	0
8344235	1503	0	0	-100	0	230	101300000	1000	0	0	-1	0
8356795	1503	0	0	-100	0	230	101300000	1000	0	0	-1	0
8369355	1502	0	0	-100	0	230	101300000	1000	0	0	-1	0
8381915	1506	0	0	-100	0	230	101300000	1000	0	0	-1	0
8394475	1506	0	0	-100	0	230	101300000	1000	0	0	-1	0
8407035	1504	0	0	-100	0	230	101300000	1000	0	0	-1	0
8419595	1508	0	0	-100	0	230	101300000	1000	0	0	-1	0
8432155	1504	0	0	-100	0	230	101300000	1000	0	0	-1	0
8444715	1508	0	0	-100	0	230	101300000	1000	0	0	-1	0
8457275	1510	0	0	-100	0	230	101300000	1000	0	0	-1	0
8469835	1510	0	0	-100	0	230	101300000	1000	0	0	-1	0
8482395	1510	0	0	-100	0	230	101300000	1000	0	0	-1	0
8494955	1508	0	0	-100	0	230	101300000	1000	0	0	-1	0
8507515	1503	0	0	-100	0	230	101300000	1000	0	0	-1	0
8520075	1503	0	0	-100	0	230	101300000	1000	0	0	-1	0
8532635	1501	0	0	-100	0	230	101300000	1000	0	0	-1	0
8545195	1500	3	0	-100	0	230	101300000	1000	0	0	-1	0
8557755	1503	2	0	-100	0	230	101300000	1000	0	0	-1	0
8570315	1503	3	0	-100	0	230	101300000	1000	0	0	-1	0
8582875	1505	1	0	-100	0	230	101300000	1000	0	0	-1	0
8595435	1505	0	0	-100	0	230	101300000	1000	0	0	-1	0
8607995	1503	0	0	-100	0	230	101300000	1000	0	0	-1	0
8620555	1503	2	0	-100	0	230	101300000	1000	0	0	-1	0
8633115	1500	2	0	-100	0	230	101300000	1000	0	0	-1	0
8645675	1501	2	0	-100	0	230	101300000	1000	0	0	-1	0
8658235	1505	3	0	-100	0	230	101300000	1000	0	0	-1	0
8670795	1498	2	0	-100	0	230	101300000	1000	0	0	-1	0
8683355	1503	2	0	-100	0	230	101300000	1000	0	0	-1	0
8695915	1503	4	0	-100	0	230	101300000	1000	0	0	-1	0
8708475	1503	1	0	-100	0	230	101300000	1000	0	0	-1	0
8721035	1505	4	0	-100	0	230	101300000	1000	0	0	-1	0
8733595	1503	4	0	-100	0	230	101300000	1000	0	0	-1	0
8746155	1499	4	0	-100	0	230	101300000	1000	0	0	-1	0
8758715	1506	2	0	-100	0	230	101300000	1000	0	0	-1	0
8771275	1501	2	0	-100	0	230	101300000	1000	0	0	-1	0
8783835	1505	0	0	-100	0	230	101300000	1000	0	0	-1	0
8796395	1503	0	0	-100	0	230	101300000	1000	0	0	-1	0
8808955	1505	0	0	-100	0	230	101300000	1000	0	0	-1	0
8821515	1510	0	0	-100	0	230	101300000	1000	0	0	-1	0
8834075	1509	0	0	-100	0	230	101300000	1000	0	0	-1	0
8846635	1509	0	0	-100	0	230	101300000	1000	0	0	-1	0
8859195	1510	0	0	-100	0	230	101300000	1000	0	0	-1	0
8871755	1508	0	0	-100	0	230	101300000	1000	0	0	-1	0
8884315	1506	0	0	-100	0	230	101300000	1000	0	0	-1	0
8896875	1507	0	0	-100	0	230	101300000	1000	0	0	-1	0
8909435	1508	0	0	-100	0	230	101300000	1000	0	0	-1	0
8921995	1507	1	0	-100	0	230	101300000	1000	0	0	-1	0
8934555	1507	0	0	-100	0	230	101300000	1000	0	0	-1	0
8947115	1505	0	0	-100	0	230	101300000	1000	0	0	-1	0
8959675	1508	0	0	-100	0	230	101300000	1000	0	0	-1	0
8972235	1503	0	0	-100	0	230	101300000	1000	0	0	-1	0
8984795	1501	1	0	-100	0	230	101300000	1000	0	0	-1	0
8997355	1503	2	0	-100	0	230	101300000	1000	0	0	-1	0
9009915	1500	3	0	-100	0	230	101300000	1000	0	0	-1	0
9022475	1500	3	0	-100	0	230	101300000	1000	0	0	-1	0
9035035	1502	4	0	-100	0	230	101300000	1000	0	0	-1	0
9047595	1502	0	0	-100	0	230	101300000	1000	0	0	-1	0
9060155	1506	0	0	-100	0	230	101300000	1000	0	0	-1	0
9072715	1507	0	0	-100	0	230	101300000	1000	0	0	-1	0
9085275	1508	0	0	-100	0	230	101300000	1000	0	0	-1	0
9097835	1503	0	0	-100	0	230	101300000	1000	0	0	-1	0
9110395	1502	4	0	-100	0	230	101300000	1000	0	0	-1	0
9122955	1502	0	0	-100	0	230	101300000	1000	0	0	-1	0
9135515	1508	0	0	-100	0	230	101300000	1000	0	0	-1	0
9148075	1507	0	0	-100	0	230	101300000	1000	0	0	-1	0
9160635	1511	0	0	-100	0	230	101300000	1000	0	0	-1	0
9173195	1502	0	0	-100	0	230	101300000	1000	0	0	-1	0
9185755	1501	0	0	-100	0	230	101300000	1000	0	0	-1	0
9198315	1501	1	0	-100	0	230	101300000	1000	0	0	-1	0
9210875	1501	2	0	-100	0	230	101300000	1000	0	0	-1	0
9223435	1506	0	0	-100	0	230	101300000	1000	0	0	-1	0
9235995	1503	0	0	-100	0	230	101300000	1000	0	0	-1	0
9248555	1503	0	0	-100	0	230	101300000	1000	0	0	-1	0
9261115	1510	0	0	-100	0	230	101300000	1000	0	0	-1	0
9273675	1510	0	0	-100	0	230	101300000	1000	0	0	-1	0
9286235	1505	0	0	-100	0	230	101300000	1000	0	0	-1	0
9298795	1502	0	0	-100	0	230	101300000	1000	0	0	-1	0
9311355	1500	0	0	-100	0	230	101300000	1000	0	0	-1	0
9323915	1503	3	0	-100	0	230	101300000	1000	0	0	-1	0
9336475	1503	3	0	-100	0	230	101300000	1000	0	0	-1	0
9349035	1501	0	0	-100	0	230	101300000	1000	0	0	-1	0
9361595	1507	0	0	-100	0	230	101300000	1000	0	0	-1	0
9374155	1504	0	0	-100	0	230	101300000	1000	0	0	-1	0
9386715	1510	0	0	-100	0	230	101300000	1000	0	0	-1	0
9399275	1503	0	0	-100	0	230	101300000	1000	0	0	-1	0
9411835	1501	2	0	-100	0	230	101300000	1000	0	0	-1	0
9424395	1503	3	0	-100	0	230	101300000	1000	0	0	-1	0
9436955	1503	0	0	-100	0	230	101300000	1000	0	0	-1	0
9449515	1500	0	0	-100	0	230	101300000	1000	0	0	-1	0
9462075	1507	0	0	-100	0	230	101300000	1000	0	0	-1	0
9474635	1507	0	0	-100	0	230	101300000	1000	0	0	-1	0
9487195	1506	0	0	-100	0	230	101300000	1000	0	0	-1	0
9499755	1503	2	0	-100	0	230	101300000	1000	0	0	-1	0
9512315	1503	0	0	-100	0	230	101300000	1000	0	0	-1	0
9524875	1507	0	0	-100	0	230	101300000	1000	0	0	-1	0
9537435	1508	0	0	-100	0	230	101300000	1000	0	0	-1	0
9549995	1500	0	0	-100	0	230	101300000	1000	0	0	-1	0
9562555	1502	0	0	-100	0	230	101300000	1000	0	0	-1	0
9575115	1508	0	0	-100	0	230	101300000	1000	0	0	-1	0
9587675	1508	0	0	-100	0	230	101300000	1000	0	0	-1	0
9600235	1510	0	0	-100	0	230	101300000	1000	0	0	-1	0
9612795	1504	0	0	-100	0	230	101300000	1000	0	0	-1	0
9625355	1503	2	0	-100	0	230	101300000	1000	0	0	-1	0
9637915	1506	1	0	-100	0	230	101300000	1000	0	0	-1	0
9650475	1500	0	0	-100	0	230	101300000	1000	0	0	-1	0
9663035	1503	0	0	-100	0	230	101300000	1000	0	0	-1	0
9675595	1507	0	0	-100	0	230	101300000	1000	0	0	-1	0
9688155	1501	0	0	-100	0	230	101300000	1000	0	0	-1	0
9700715	1508	0	0	-100	0	230	101300000	1000	0	0	-1	0
9713275	1508	0	0	-100	0	230	101300000	1000	0	0	-1	0
9725835	1505	0	0	-100	0	230	101300000	1000	0	0	-1	0
9738395	1508	0	0	-100	0	230	101300000	1000	0	0	-1	0
9750955	1505	0	0	-100	0	230	101300000	1000	0	0	-1	0
9763515	1507	0	0	-100	0	230	101300000	1000	0	0	-1	0
9776075	1509	0	0	-100	0	230	101300000	1000	0	0	-1	0
9788635	1507	0	0	-100	0	230	101300000	1000	0	0	-1	0
9801195	1508	0	0	-100	0	230	101300000	1000	0	0	-1	0
9813755	1508	0	0	-100	0	230	101300000	1000	0	0	-1	0
9826315	1503	0	0	-100	0	230	101300000	1000	0	0	-1	0
9838875	1502	1	0	-100	0	230	101300000	1000	0	0	-1	0
9851435	1504	2	0	-100	0	230	101300000	1000	0	0	-1	0
9863995	1502	0	0	-100	0	230	101300000	1000	0	0	-1	0
9876555	1503	0	0	-100	0	230	101300000	1000	0	0	-1	0
9889115	1499	0	0	-100	0	230	101300000	1000	0	0	-1	0
9901675	1502	0	0	-100	0	230	101300000	1000	0	0	-1	0
9914235	1503	0	0	-100	0	230	101300000	1000	0	0	-1	0
9926795	1506	0	0	-100	0	230	101300000	1000	0	0	-1	0
9939355	1505	2	0	-100	0	230	101300000	1000	0	0	-1	0
9951915	1505	0	0	-100	0	230	101300000	1000	0	0	-1	0
9964475	1500	0	0	-100	0	230	101300000	1000	0	0	-1	0
9977035	1502	0	0	-100	0	230	101300000	1000	0	0	-1	0
9989595	1502	0	0	-100	0	230	101300000	1000	0	0	-1	0
10002155	1501	0	0	-100	0	230	101300000	1000	0	0	-1	0
10014715	1502	0	0	-100	0	230	101300000	1000	0	0	-1	0
10027275	1502	0	0	-100	0	230	101300000	1000	0	0	-1	0
10039835	1503	0	0	-100	0	230	101300000	1000	0	0	-1	0
10052395	1504	0	0	-100	0	230	101300000	1000	0	0	-1	0
10064955	1500	2	0	-100	0	230	101300000	1000	0	0	-1	0
10077515	1503	0	0	-100	0	230	101300000	1000	0	0	-1	0
10090075	1501	0	0	-100	0	230	101300000	1000	0	0	-1	0
10102635	1510	0	0	-100	0	230	101300000	1000	0	0	-1	0
10115195	1507	0	0	-100	0	230	101300000	1000	0	0	-1	0
10127755	1507	0	0	-100	0	230	101300000	1000	0	0	-1	0
10140315	1507	0	0	-100	0	230	101300000	1000	0	0	-1	0
10152875	1509	0	0	-100	0	230	101300000	1000	0	0	-1	0
10165435	1509	0	0	-100	0	230	101300000	1000	0	0	-1	0
10177995	1510	4	0	-100	0	230	101300000	1000	0	0	-1	0
10190555	1507	0	0	-100	0	230	101300000	1000	0	0	-1	0
10203115	1510	0	0	-100	0	230	101300000	1000	0	0	-1	0
10215675	1506	0	0	-100	0	230	101300000	1000	0	0	-1	0
10228235	1504	0	0	-100	0	230	101300000	1000	0	0	-1	0
10240795	1503	1	0	-100	0	230	101300000	1000	0	0	-1	0
10253355	1501	1	0	-100	0	230	101300000	1000	0	0	-1	0
10265915	1501	2	0	-100	0	230	101300000	1000	0	0	-1	0
10278475	1503	2	0	-100	0	230	101300000	1000	0	0	-1	0
10291035	1503	3	0	-100	0	230	101300000	1000	0	0	-1	0
10303595	1501	0	0	-100	0	230	101300000	1000	0	0	-1	0
10316155	1497	1	0	-100	0	230	101300000	1000	0	0	-1	0
10328715	1501	0	0	-100	0	230	101300000	1000	0	0	-1	0
10341275	1510	0	0	-100	0	230	101300000	1000	0	0	-1	0
10353835	1507	0	0	-100	0	230	101300000	1000	0	0	-1	0
10366395	1503	0	0	-100	0	230	101300000	1000	0	0	-1	0
10378955	1505	0	0	-100	0	230	101300000	1000	0	0	-1	0
10391515	1502	2	0	-100	0	230	101300000	1000	0	0	-1	0
10404075	1507	0	0	-100	0	230	101300000	1000	0	0	-1	0
10416635	1510	0	0	-100	0	230	101300000	1000	0	0	-1	0
10429195	1500	0	0	-100	0	230	101300000	1000	0	0	-1	0
10441755	1503	0	0	-100	0	230	101300000	1000	0	0	-1	0
10454315	1509	0	0	-100	0	230	101300000	1000	0	0	-1	0
10466875	1501	0	0	-100	0	230	101300000	1000	0	0	-1	0
10479435	1503	0	0	-100	0	230	101300000	1000	0	0	-1	0
10491995	1505	0	0	-100	0	230	101300000	1000	0	0	-1	0
10504555	1501	0	0	-100	0	230	101300000	1000	0	0	-1	0
10517115	1508	0	0	-100	0	230	101300000	1000	0	0	-1	0
10529675	1500	3	0	-100	0	230	101300000	1000	0	0	-1	0
10542235	1510	0	0	-100	0	230	101300000	1000	0	0	-1	0
10554795	1500	0	0	-100	0	230	101300000	1000	0	0	-1	0
10567355	1503	0	0	-100	0	230	101300000	1000	0	0	-1	0
10579915	1510	0	0	-100	0	230	101300000	1000	0	0	-1	0
10592475	1501	1	0	-100	0	230	101300000	1000	0	0	-1	0
10605035	1507	0	0	-100	0	230	101300000	1000	0	0	-1	0
10617595	1503	0	0	-100	0	230	101300000	1000	0	0	-1	0
10630155	1499	0	0	-100	0	230	101300000	1000	0	0	-1	0
10642715	1505	4	0	-100	0	230	101300000	1000	0	0	-1	0
10655275	1508	0	0	-100	0	230	101300000	1000	0	0	-1	0
10667835	1503	0	0	-100	0	230	101300000	1000	0	0	-1	0
10680395	1504	3	0	-100	0	230	101300000	1000	0	0	-1	0
10692955	1505	0	0	-100	0	230	101300000	1000	0	0	-1	0
10705515	1507	0	0	-100	0	230	101300000	1000	0	0	-1	0
10718075	1500	0	0	-100	0	230	101300000	1000	0	0	-1	0
10730635	1501	2	0	-100	0	230	101300000	1000	0	0	-1	0
10743195	1505	0	0	-100	0	230	101300000	1000	0	0	-1	0
10755755	1508	0	0	-100	0	230	101300000	1000	0	0	-1	0
10768315	1503	0	0	-100	0	230	101300000	1000	0	0	-1	0
10780875	1506	0	0	-100	0	230	101300000	1000	0	0	-1	0
10793435	1508	0	0	-100	0	230	101300000	1000	0	0	-1	0
10805995	1502	0	0	-100	0	230	101300000	1000	0	0	-1	0
10818555	1501	1	0	-100	0	230	101300000	1000	0	0	-1	0
10831115	1501	0	0	-100	0	230	101300000	1000	0	0	-1	0
10843675	1509	0	0	-100	0	230	101300000	1000	0	0	-1	0
10856235	1508	0	0	-100	0	230	101300000	1000	0	0	-1	0
10868795	1503	0	0	-100	0	230	101300000	1000	0	0	-1	0
10881355	1503	3	0	-100	0	230	101300000	1000	0	0	-1	0
10893915	1505	0	0	-100	0	230	101300000	1000	0	0	-1	0
10906475	1507	0	0	-100	0	230	101300000	1000	0	0	-1	0
10919035	1505	0	0	-100	0	230	101300000	1000	0	0	-1	0
10931595	1500	0	0	-100	0	230	101300000	1000	0	0	-1	0
10944155	1497	4	0	-100	0	230	101300000	1000	0	0	-1	0
10956715	1503	1	0	-100	0	230	101300000	1000	0	0	-1	0
10969275	1503	0	0	-100	0	230	101300000	1000	0	0	-1	0
10981835	1508	0	0	-100	0	230	101300000	1000	0	0	-1	0
10994395	1508	0	0	-100	0	230	101300000	1000	0	0	-1	0
11006955	1507	0	0	-100	0	230	101300000	1000	0	0	-1	0
11019515	1507	0	0	-100	0	230	101300000	1000	0	0	-1	0
11032075	1503	0	0	-100	0	230	101300000	1000	0	0	-1	0
11044635	1502	0	0	-100	0	230	101300000	1000	0	0	-1	0
11057195	1505	0	0	-100	0	230	101300000	1000	0	0	-1	0
11069755	1503	0	0	-100	0	230	101300000	1000	0	0	-1	0
11082315	1500	0	0	-100	0	230	101300000	1000	0	0	-1	0
11094875	1500	0	0	-100	0	230	101300000	1000	0	0	-1	0
11107435	1505	0	0	-100	0	230	101300000	1000	0	0	-1	0
11119995	1505	0	0	-100	0	230	101300000	1000	0	0	-1	0
11132555	1503	0	0	-100	0	230	101300000	1000	0	0	-1	0
11145115	1505	0	0	-100	0	230	101300000	1000	0	0	-1	0
11157675	1502	4	0	-100	0	230	101300000	1000	0	0	-1	0
11170235	1500	2	0	-100	0	230	101300000	1000	0	0	-1	0
11182795	1502	1	0	-100	0	230	101300000	1000	0	0	-1	0
11195355	1505	0	0	-100	0	230	101300000	1000	0	0	-1	0
11207915	1508	0	0	-100	0	230	101300000	1000	0	0	-1	0
11220475	1510	0	0	-100	0	230	101300000	1000	0	0	-1	0
11233035	1505	0	0	-100	0	230	101300000	1000	0	0	-1	0
11245595	1502	0	0	-100	0	230	101300000	1000	0	0	-1	0
11258155	1500	4	0	-100	0	230	101300000	1000	0	0	-1	0
11270715	1504	0	0	-100	0	230	101300000	1000	0	0	-1	0
11283275	1510	0	0	-100	0	230	101300000	1000	0	0	-1	0
11295835	1510	0	0	-100	0	230	101300000	1000	0	0	-1	0
11308395	1507	0	0	-100	0	230	101300000	1000	0	0	-1	0
11320955	1505	0	0	-100	0	230	101300000	1000	0	0	-1	0
11333515	1506	2	0	-100	0	230	101300000	1000	0	0	-1	0
11346075	1506	0	0	-100	0	230	101300000	1000	0	0	-1	0
11358635	1510	0	0	-100	0	230	101300000	1000	0	0	-1	0
11371195	1503	0	0	-100	0	230	101300000	1000	0	0	-1	0
11383755	1502	0	0	-100	0	230	101300000	1000	0	0	-1	0
11396315	1503	2	0	-100	0	230	101300000	1000	0	0	-1	0
11408875	1500	1	0	-100	0	230	101300000	1000	0	0	-1	0
11421435	1508	0	0	-100	0	230	101300000	1000	0	0	-1	0
11433995	1507	2	0	-100	0	230	101300000	1000	0	0	-1	0
11446555	1500	0	0	-100	0	230	101300000	1000	0	0	-1	0
11459115	1503	2	0	-100	0	230	101300000	1000	0	0	-1	0
11471675	1507	0	0	-100	0	230	101300000	1000	0	0	-1	0
11484235	1509	0	0	-100	0	230	101300000	1000	0	0	-1	0
11496795	1505	0	0	-100	0	230	101300000	1000	0	0	-1	0
11509355	1503	0	0	-100	0	230	101300000	1000	0	0	-1	0
11521915	1504	2	0	-100	0	230	101300000	1000	0	0	-1	0
11534475	1501	0	0	-100	0	230	101300000	1000	0	0	-1	0
11547035	1503	0	0	-100	0	230	101300000	1000	0	0	-1	0
11559595	1509	0	0	-100	0	230	101300000	1000	0	0	-1	0
11572155	1502	0	0	-100	0	230	101300000	1000	0	0	-1	0
11584715	1502	0	0	-100	0	230	101300000	1000	0	0	-1	0
11597275	1502	0	0	-100	0	230	101300000	1000	0	0	-1	0
11609835	1500	2	0	-100	0	230	101300000	1000	0	0	-1	0
11622395	1503	0	0	-100	0	230	101300000	1000	0	0	-1	0
11634955	1510	0	0	-100	0	230	101300000	1000	0	0	-1	0
11647515	1503	0	0	-100	0	230	101300000	1000	0	0	-1	0
11660075	1502	0	0	-100	0	230	101300000	1000	0	0	-1	0
11672635	1500	2	0	-100	0	230	101300000	1000	0	0	-1	0
11685195	1510	0	0	-100	0	230	101300000	1000	0	0	-1	0
11697755	1509	0	0	-100	0	230	101300000	1000	0	0	-1	0
11710315	1500	0	0	-100	0	230	101300000	1000	0	0	-1	0
11722875	1506	2	0	-100	0	230	101300000	1000	0	0	-1	0
11735435	1504	2	0	-100	0	230	101300000	1000	0	0	-1	0
11747995	1501	0	0	-100	0	230	101300000	1000	0	0	-1	0
11760555	1508	0	0	-100	0	230	101300000	1000	0	0	-1	0
11773115	1510	0	0	-100	0	230	101300000	1000	0	0	-1	0
11785675	1507	0	0	-100	0	230	101300000	1000	0	0	-1	0
11798235	1505	0	0	-100	0	230	101300000	1000	0	0	-1	0
11810795	1498	0	0	-100	0	230	101300000	1000	0	0	-1	0
11823355	1498	3	0	-100	0	230	101300000	1000	0	0	-1	0
11835915	1503	1	0	-100	0	230	101300000	1000	0	0	-1	0
11848475	1508	0	0	-100	0	230	101300000	1000	0	0	-1	0
11861035	1507	0	0	-100	0	230	101300000	1000	0	0	-1	0
11873595	1500	0	0	-100	0	230	101300000	1000	0	0	-1	0
11886155	1496	4	0	-100	0	230	101300000	1000	0	0	-1	0
11898715	1505	0	0	-100	0	230	101300000	1000	0	0	-1	0
11911275	1508	0	0	-100	0	230	101300000	1000	0	0	-1	0
11923835	1508	0	0	-100	0	230	101300000	1000	0	0	-1	0
11936395	1512	0	0	-100	0	230	101300000	1000	0	0	-1	0
11948955	1500	0	0	-100	0	230	101300000	1000	0	0	-1	0
11961515	1508	0	0	-100	0	230	101300000	1000	0	0	-1	0
11974075	1502	3	0	-100	0	230	101300000	1000	0	0	-1	0
11986635	1500	0	0	-100	0	230	101300000	1000	0	0	-1	0
11999195	1510	0	0	-100	0	230	101300000	1000	0	0	-1	0
12011755	1507	0	0	-100	0	230	101300000	1000	0	0	-1	0
12024315	1509	0	0	-100	0	230	101300000	1000	0	0	-1	0
12036875	1505	0	0	-100	0	230	101300000	1000	0	0	-1	0
12049435	1502	3	0	-100	0	230	101300000	1000	0	0	-1	0
12061995	1505	0	0	-100	0	230	101300000	1000	0	0	-1	0
12074555	1510	0	0	-100	0	230	101300000	1000	0	0	-1	0
12087115	1504	0	0	-100	0	230	101300000	1000	0	0	-1	0
12099675	1500	0	0	-100	0	230	101300000	1000	0	0	-1	0
12112235	1501	3	0	-100	0	230	101300000	1000	0	0	-1	0
12124795	1500	0	0	-100	0	230	101300000	1000	0	0	-1	0
12137355	1512	0	0	-100	0	230	101300000	1000	0	0	-1	0
12149915	1505	0	0	-100	0	230	101300000	1000	0	0	-1	0
12162475	1503	0	0	-100	0	230	101300000	1000	0	0	-1	0
12175035	1499	0	0	-100	0	230	101300000	1000	0	0	-1	0
12187595	1504	2	0	-100	0	230	101300000	1000	0	0	-1	0
12200155	1497	3	0	-100	0	230	101300000	1000	0	0	-1	0
12212715	1505	0	0	-100	0	230	101300000	1000	0	0	-1	0
12225275	1510	0	0	-100	0	230	101300000	1000	0	0	-1	0
12237835	1506	0	0	-100	0	230	101300000	1000	0	0	-1	0
12250395	1500	0	0	-100	0	230	101300000	1000	0	0	-1	0
12262955	1506	0	0	-100	0	230	101300000	1000	0	0	-1	0
12275515	1502	4	0	-100	0	230	101300000	1000	0	0	-1	0
12288075	1503	0	0	-100	0	230	101300000	1000	0	0	-1	0
12300635	1510	0	0	-100	0	230	101300000	1000	0	0	-1	0
12313195	1505	0	0	-100	0	230	101300000	1000	0	0	-1	0
12325755	1502	0	0	-100	0	230	101300000	1000	0	0	-1	0
12338315	1503	4	0	-100	0	230	101300000	1000	0	0	-1	0
12350875	1500	0	0	-100	0	230	101300000	1000	0	0	-1	0
12363435	1510	0	0	-100	0	230	101300000	1000	0	0	-1	0
12375995	1509	1	0	-100	0	230	101300000	1000	0	0	-1	0
12388555	1504	0	0	-100	0	230	101300000	1000	0	0	-1	0
12401115	1503	0	0	-100	0	230	101300000	1000	0	0	-1	0
12413675	1503	1	0	-100	0	230	101300000	1000	0	0	-1	0
12426235	1504	0	0	-100	0	230	101300000	1000	0	0	-1	0
12438795	1510	0	0	-100	0	230	101300000	1000	0	0	-1	0
12451355	1507	0	0	-100	0	230	101300000	1000	0	0	-1	0
12463915	1505	0	0	-100	0	230	101300000	1000	0	0	-1	0
12476475	1503	2	0	-100	0	230	101300000	1000	0	0	-1	0
12489035	1501	0	0	-100	0	230	101300000	1000	0	0	-1	0
12501595	1510	0	0	-100	0	230	101300000	1000	0	0	-1	0
12514155	1504	0	0	-100	0	230	101300000	1000	0	0	-1	0
12526715	1507	0	0	-100	0	230	101300000	1000	0	0	-1	0
12539275	1510	0	0	-100	0	230	101300000	1000	0	0	-1	0
12551835	1503	0	0	-100	0	230	101300000	1000	0	0	-1	0
12564395	1502	0	0	-100	0	230	101300000	1000	0	0	-1	0
12576955	1502	0	0	-100	0	230	101300000	1000	0	0	-1	0
12589515	1501	1	0	-100	0	230	101300000	1000	0	0	-1	0
12602075	1502	3	0	-100	0	230	101300000	1000	0	0	-1	0
12614635	1500	0	0	-100	0	230	101300000	1000	0	0	-1	0
12627195	1500	2	0	-100	0	230	101300000	1000	0	0	-1	0
12639755	1506	1	0	-100	0	230	101300000	1000	0	0	-1	0
12652315	1503	0	0	-100	0	230	101300000	1000	0	0	-1	0
12664875	1503	0	0	-100	0	230	101300000	1000	0	0	-1	0
12677435	1506	0	0	-100	0	230	101300000	1000	0	0	-1	0
12689995	1507	2	0	-100	0	230	101300000	1000	0	0	-1	0
12702555	1509	0	0	-100	0	230	101300000	1000	0	0	-1	0
12715115	1510	0	0	-100	0	230	101300000	1000	0	0	-1	0
12727675	1508	0	0	-100	0	230	101300000	1000	0	0	-1	0
12740235	1510	0	0	-100	0	230	101300000	1000	0	0	-1	0
12752795	1510	0	0	-100	0	230	101300000	1000	0	0	-1	0
12765355	1503	0	0	-100	0	230	101300000	1000	0	0	-1	0
12777915	1503	0	0	-100	0	230	101300000	1000	0	0	-1	0
12790475	1500	0	0	-100	0	230	101300000	1000	0	0	-1	0
12803035	1500	0	0	-100	0	230	101300000	1000	0	0	-1	0
12815595	1503	0	0	-100	0	230	101300000	1000	0	0	-1	0
12828155	1502	0	0	-100	0	230	101300000	1000	0	0	-1	0
12840715	1510	0	0	-100	0	230	101300000	1000	0	0	-1	0
12853275	1505	0	0	-100	0	230	101300000	1000	0	0	-1	0
12865835	1505	0	0	-100	0	230	101300000	1000	0	0	-1	0
12878395	1502	0	0	-100	0	230	101300000	1000	0	0	-1	0
12890955	1500	0	0	-100	0	230	101300000	1000	0	0	-1	0
12903515	1503	0	0	-100	0	230	101300000	1000	0	0	-1	0
12916075	1504	0	0	-100	0	230	101300000	1000	0	0	-1	0
12928635	1503	4	0	-100	0	230	101300000	1000	0	0	-1	0
12941195	1501	1	0	-100	0	230	101300000	1000	0	0	-1	0
12953755	1504	2	0	-100	0	230	101300000	1000	0	0	-1	0
12966315	1501	1	0	-100	0	230	101300000	1000	0	0	-1	0
12978875	1505	1	0	-100	0	230	101300000	1000	0	0	-1	0
12991435	1502	0	0	-100	0	230	101300000	1000	0	0	-1	0
13003995	1510	4	0	-100	0	230	101300000	1000	0	0	-1	0
13016555	1510	0	0	-100	0	230	101300000	1000	0	0	-1	0
13029115	1507	0	0	-100	0	230	101300000	1000	0	0	-1	0
13041675	1510	0	0	-100	0	230	101300000	1000	0	0	-1	0
13054235	1505	0	0	-100	0	230	101300000	1000	0	0	-1	0
13066795	1502	0	0	-100	0	230	101300000	1000	0	0	-1	0
13079355	1505	0	0	-100	0	230	101300000	1000	0	0	-1	0
13091915	1501	2	0	-100	0	230	101300000	1000	0	0	-1	0
13104475	1503	0	0	-100	0	230	101300000	1000	0	0	-1	0
13117035	1508	0	0	-100	0	230	101300000	1000	0	0	-1	0
13129595	1507	0	0	-100	0	230	101300000	1000	0	0	-1	0
13142155	1504	0	0	-100	0	230	101300000	1000	0	0	-1	0
13154715	1510	0	0	-100	0	230	101300000	1000	0	0	-1	0
13167275	1505	0	0	-100	0	230	101300000	1000	0	0	-1	0
13179835	1509	0	0	-100	0	230	101300000	1000	0	0	-1	0
13192395	1508	0	0	-100	0	230	101300000	1000	0	0	-1	0
13204955	1510	0	0	-100	0	230	101300000	1000	0	0	-1	0
13217515	1506	0	0	-100	0	230	101300000	1000	0	0	-1	0
13230075	1505	0	0	-100	0	230	101300000	1000	0	0	-1	0
13242635	1510	0	0	-100	0	230	101300000	1000	0	0	-1	0
13255195	1501	0	0	-100	0	230	101300000	1000	0	0	-1	0
13267755	1501	0	0	-100	0	230	101300000	1000	0	0	-1	0
13280315	1500	0	0	-100	0	230	101300000	1000	0	0	-1	0
13292875	1503	3	0	-100	0	230	101300000	1000	0	0	-1	0
13305435	1501	1	0	-100	0	230	101300000	1000	0	0	-1	0
13317995	1503	0	0	-100	0	230	101300000	1000	0	0	-1	0
13330555	1501	3	0	-100	0	230	101300000	1000	0	0	-1	0
13343115	1503	3	0	-100	0	230	101300000	1000	0	0	-1	0
13355675	1503	3	0	-100	0	230	101300000	1000	0	0	-1	0
13368235	1503	0	0	-100	0	230	101300000	1000	0	0	-1	0
13380795	1498	0	0	-100	0	230	101300000	1000	0	0	-1	0
13393355	1503	0	0	-100	0	230	101300000	1000	0	0	-1	0
13405915	1505	0	0	-100	0	230	101300000	1000	0	0	-1	0
13418475	1508	0	0	-100	0	230	101300000	1000	0	0	-1	0
13431035	1508	0	0	-100	0	230	101300000	1000	0	0	-1	0
13443595	1508	0	0	-100	0	230	101300000	1000	0	0	-1	0
13456155	1499	1	0	-100	0	230	101300000	1000	0	0	-1	0
13468715	1501	2	0	-100	0	230	101300000	1000	0	0	-1	0
13481275	1505	0	0	-100	0	230	101300000	1000	0	0	-1	0
13493835	1501	0	0	-100	0	230	101300000	1000	0	0	-1	0
13506395	1507	0	0	-100	0	230	101300000	1000	0	0	-1	0
13518955	1510	0	0	-100	0	230	101300000	1000	0	0	-1	0
13531515	1508	0	0	-100	0	230	101300000	1000	0	0	-1	0
13544075	1510	0	0	-100	0	230	101300000	1000	0	0	-1	0
13556635	1510	0	0	-100	0	230	101300000	1000	0	0	-1	0
13569195	1510	0	0	-100	0	230	101300000	1000	0	0	-1	0
13581755	1503	0	0	-100	0	230	101300000	1000	0	0	-1	0
13594315	1500	2	0	-100	0	230	101300000	1000	0	0	-1	0
13606875	1506	0	0	-100	0	230	101300000	1000	0	0	-1	0
13619435	1506	0	0	-100	0	230	101300000	1000	0	0	-1	0
13631995	1507	0	0	-100	0	230	101300000	1000	0	0	-1	0
13644555	1507	0	0	-100	0	230	101300000	1000	0	0	-1	0
13657115	1505	0	0	-100	0	230	101300000	1000	0	0	-1	0
13669675	1503	0	0	-100	0	230	101300000	1000	0	0	-1	0
13682235	1506	0	0	-100	0	230	101300000	1000	0	0	-1	0
13694795	1503	0	0	-100	0	230	101300000	1000	0	0	-1	0
13707355	1500	3	0	-100	0	230	101300000	1000	0	0	-1	0
13719915	1505	0	0	-100	0	230	101300000	1000	0	0	-1	0
13732475	1503	0	0	-100	0	230	101300000	1000	0	0	-1	0
13745035	1500	0	0	-100	0	230	101300000	1000	0	0	-1	0
13757595	1505	0	0	-100	0	230	101300000	1000	0	0	-1	0
13770155	1503	0	0	-100	0	230	101300000	1000	0	0	-1	0
13782715	1510	0	0	-100	0	230	101300000	1000	0	0	-1	0
13795275	1507	0	0	-100	0	230	101300000	1000	0	0	-1	0
13807835	1508	0	0	-100	0	230	101300000	1000	0	0	-1	0
13820395	1510	0	0	-100	0	230	101300000	1000	0	0	-1	0
13832955	1508	0	0	-100	0	230	101300000	1000	0	0	-1	0
13845515	1508	0	0	-100	0	230	101300000	1000	0	0	-1	0
13858075	1510	0	0	-100	0	230	101300000	1000	0	0	-1	0
13870635	1508	0	0	-100	0	230	101300000	1000	0	0	-1	0
13883195	1510	0	0	-100	0	230	101300000	1000	0	0	-1	0
13895755	1508	0	0	-100	0	230	101300000	1000	0	0	-1	0
13908315	1507	0	0	-100	0	230	101300000	1000	0	0	-1	0
13920875	1510	0	0	-100	0	230	101300000	1000	0	0	-1	0
13933435	1507	0	0	-100	0	230	101300000	1000	0	0	-1	0
13945995	1506	0	0	-100	0	230	101300000	1000	0	0	-1	0
13958555	1508	0	0	-100	0	230	101300000	1000	0	0	-1	0
13971115	1500	0	0	-100	0	230	101300000	1000	0	0	-1	0
13983675	1506	0	0	-100	0	230	101300000	1000	0	0	-1	0
13996235	1510	0	0	-100	0	230	101300000	1000	0	0	-1	0
14008795	1506	0	0	-100	0	230	101300000	1000	0	0	-1	0
14021355	1507	0	0	-100	0	230	101300000	1000	0	0	-1	0
14033915	1505	0	0	-100	0	230	101300000	1000	0	0	-1	0
14046475	1507	0	0	-100	0	230	101300000	1000	0	0	-1	0
14059035	1510	0	0	-100	0	230	101300000	1000	0	0	-1	0
14071595	1508	0	0	-100	0	230	101300000	1000	0	0	-1	0
14084155	1506	0	0	-100	0	230	101300000	1000	0	0	-1	0
14096715	1510	0	0	-100	0	230	101300000	1000	0	0	-1	0
14109275	1508	0	0	-100	0	230	101300000	1000	0	0	-1	0
14121835	1509	0	0	-100	0	230	101300000	1000	0	0	-1	0
14134395	1510	0	0	-100	0	230	101300000	1000	0	0	-1	0
14146955	1508	0	0	-100	0	230	101300000	1000	0	0	-1	0
14159515	1510	0	0	-100	0	230	101300000	1000	0	0	-1	0
14172075	1504	0	0	-100	0	230	101300000	1000	0	0	-1	0
14184635	1503	0	0	-100	0	230	101300000	1000	0	0	-1	0
14197195	1503	0	0	-100	0	230	101300000	1000	0	0	-1	0
14209755	1506	0	0	-100	0	230	101300000	1000	0	0	-1	0
14222315	1508	0	0	-100	0	230	101300000	1000	0	0	-1	0
14234875	1503	0	0	-100	0	230	101300000	1000	0	0	-1	0
14247435	1505	0	0	-100	0	230	101300000	1000	0	0	-1	0
14259995	1507	2	0	-100	0	230	101300000	1000	0	0	-1	0
14272555	1507	0	0	-100	0	230	101300000	1000	0	0	-1	0
14285115	1507	0	0	-100	0	230	101300000	1000	0	0	-1	0
14297675	1502	1	0	-100	0	230	101300000	1000	0	0	-1	0
14310235	1500	2	0	-100	0	230	101300000	1000	0	0	-1	0
14322795	1506	2	0	-100	0	230	101300000	1000	0	0	-1	0
14335355	1503	0	0	-100	0	230	101300000	1000	0	0	-1	0
14347915	1505	0	0	-100	0	230	101300000	1000	0	0	-1	0
14360475	1510	0	0	-100	0	230	101300000	1000	0	0	-1	0
14373035	1508	0	0	-100	0	230	101300000	1000	0	0	-1	0
14385595	1498	0	0	-100	0	230	101300000	1000	0	0	-1	0
14398155	1497	3	0	-100	0	230	101300000	1000	0	0	-1	0
14410715	1503	0	0	-100	0	230	101300000	1000	0	0	-1	0
14423275	1502	0	0	-100	0	230	101300000	1000	0	0	-1	0
14435835	1503	0	0	-100	0	230	101300000	1000	0	0	-1	0
14448395	1508	0	0	-100	0	230	101300000	1000	0	0	-1	0
14460955	1510	0	0	-100	0	230	101300000	1000	0	0	-1	0
14473515	1508	0	0	-100	0	230	101300000	1000	0	0	-1	0
14486075	1503	0	0	-100	0	230	101300000	1000	0	0	-1	0
14498635	1501	0	0	-100	0	230	101300000	1000	0	0	-1	0
14511195	1501	2	0	-100	0	230	101300000	1000	0	0	-1	0
14523755	1501	1	0	-100	0	230	101300000	1000	0	0	-1	0
14536315	1503	1	0	-100	0	230	101300000	1000	0	0	-1	0
14548875	1501	2	0	-100	0	230	101300000	1000	0	0	-1	0
14561435	1504	2	0	-100	0	230	101300000	1000	0	0	-1	0
14573995	1501	0	0	-100	0	230	101300000	1000	0	0	-1	0
14586555	1501	2	0	-100	0	230	101300000	1000	0	0	-1	0
14599115	1500	4	0	-100	0	230	101300000	1000	0	0	-1	0
14611675	1499	0	0	-100	0	230	101300000	1000	0	0	-1	0
14624235	1502	0	0	-100	0	230	101300000	1000	0	0	-1	0
14636795	1505	0	0	-100	0	230	101300000	1000	0	0	-1	0
14649355	1508	0	0	-100	0	230	101300000	1000	0	0	-1	0
14661915	1512	0	0	-100	0	230	101300000	1000	0	0	-1	0
14674475	1503	0	0	-100	0	230	101300000	1000	0	0	-1	0
14687035	1501	0	0	-100	0	230	101300000	1000	0	0	-1	0
14699595	1503	1	0	-100	0	230	101300000	1000	0	0	-1	0
14712155	1499	5	0	-100	0	230	101300000	1000	0	0	-1	0
14724715	1503	0	0	-100	0	230	101300000	1000	0	0	-1	0
14737275	1502	0	0	-100	0	230	101300000	1000	0	0	-1	0
14749835	1500	0	0	-100	0	230	101300000	1000	0	0	-1	0
14762395	1505	0	0	-100	0	230	101300000	1000	0	0	-1	0
14774955	1505	0	0	-100	0	230	101300000	1000	0	0	-1	0
14787515	1508	0	0	-100	0	230	101300000	1000	0	0	-1	0
14800075	1504	0	0	-100	0	230	101300000	1000	0	0	-1	0
14812635	1500	3	0	-100	0	230	101300000	1000	0	0	-1	0
14825195	1505	0	0	-100	0	230	101300000	1000	0	0	-1	0
14837755	1509	0	0	-100	0	230	101300000	1000	0	0	-1	0
14850315	1503	0	0	-100	0	230	101300000	1000	0	0	-1	0
14862875	1506	0	0	-100	0	230	101300000	1000	0	0	-1	0
14875435	1503	0	0	-100	0	230	101300000	1000	0	0	-1	0
14887995	1501	0	0	-100	0	230	101300000	1000	0	0	-1	0
14900555	1500	1	0	-100	0	230	101300000	1000	0	0	-1	0
14913115	1500	2	0	-100	0	230	101300000	1000	0	0	-1	0
14925675	1506	3	0	-100	0	230	101300000	1000	0	0	-1	0
14938235	1502	0	0	-100	0	230	101300000	1000	0	0	-1	0
14950795	1500	0	0	-100	0	230	101300000	1000	0	0	-1	0
14963355	1502	0	0	-100	0	230	101300000	1000	0	0	-1	0
14975915	1502	0	0	-100	0	230	101300000	1000	0	0	-1	0
14988475	1499	0	0	-100	0	230	101300000	1000	0	0	-1	0
15001035	1502	0	0	-100	0	230	101300000	1000	0	0	-1	0
15013595	1501	0	0	-100	0	230	101300000	1000	0	0	-1	0
15026155	1499	0	0	-100	0	230	101300000	1000	0	0	-1	0
15038715	1503	0	0	-100	0	230	101300000	1000	0	0	-1	0
15051275	1500	0	0	-100	0	230	101300000	1000	0	0	-1	0
15063835	1499	0	0	-100	0	230	101300000	1000	0	0	-1	0
15076395	1505	2	0	-100	0	230	101300000	1000	0	0	-1	0
15088955	1501	2	0	-100	0	230	101300000	1000	0	0	-1	0
15101515	1505	0	0	-100	0	230	101300000	1000	0	0	-1	0
15114075	1506	0	0	-100	0	230	101300000	1000	0	0	-1	0
15126635	1503	0	0	-100	0	230	101300000	1000	0	0	-1	0
15139195	1503	0	0	-100	0	230	101300000	1000	0	0	-1	0
15151755	1503	0	0	-100	0	230	101300000	1000	0	0	-1	0
15164315	1503	0	0	-100	0	230	101300000	1000	0	0	-1	0
15176875	1501	0	0	-100	0	230	101300000	1000	0	0	-1	0
15189435	1499	1	0	-100	0	230	101300000	1000	0	0	-1	0
15201995	1508	0	0	-100	0	230	101300000	1000	0	0	-1	0
15214555	1503	1	0	-100	0	230	101300000	1000	0	0	-1	0
15227115	1503	1	0	-100	0	230	101300000	1000	0	0	-1	0
15239675	1502	0	0	-100	0	230	101300000	1000	0	0	-1	0
15252235	1502	0	0	-100	0	230	101300000	1000	0	0	-1	0
15264795	1508	0	0	-100	0	230	101300000	1000	0	0	-1	0
15277355	1508	0	0	-100	0	230	101300000	1000	0	0	-1	0
15289915	1510	0	0	-100	0	230	101300000	1000	0	0	-1	0
15302475	1512	0	0	-100	0	230	101300000	1000	0	0	-1	0
15315035	1505	0	0	-100	0	230	101300000	1000	0	0	-1	0
15327595	1508	0	0	-100	0	230	101300000	1000	0	0	-1	0
15340155	1506	0	0	-100	0	230	101300000	1000	0	0	-1	0
15352715	1508	0	0	-100	0	230	101300000	1000	0	0	-1	0
15365275	1510	0	0	-100	0	230	101300000	1000	0	0	-1	0
15377835	1510	0	0	-100	0	230	101300000	1000	0	0	-1	0
15390395	1510	0	0	-100	0	230	101300000	1000	0	0	-1	0
15402955	1512	0	0	-100	0	230	101300000	1000	0	0	-1	0
15415515	1508	0	0	-100	0	230	101300000	1000	0	0	-1	0
15428075	1508	0	0	-100	0	230	101300000	1000	0	0	-1	0
15440635	1510	0	0	-100	0	230	101300000	1000	0	0	-1	0
15453195	1508	0	0	-100	0	230	101300000	1000	0	0	-1	0
15465755	1510	0	0	-100	0	230	101300000	1000	0	0	-1	0
15478315	1510	0	0	-100	0	230	101300000	1000	0	0	-1	0
15490875	1507	0	0	-100	0	230	101300000	1000	0	0	-1	0
15503435	1513	0	0	-100	0	230	101300000	1000	0	0	-1	0
15515995	1510	1	0	-100	0	230	101300000	1000	0	0	-1	0
15528555	1505	0	0	-100	0	230	101300000	1000	0	0	-1	0
15541115	1505	0	0	-100	0	230	101300000	1000	0	0	-1	0
15553675	1503	0	0	-100	0	230	101300000	1000	0	0	-1	0
15566235	1500	0	0	-100	0	230	101300000	1000	0	0	-1	0
15578795	1503	0	0	-100	0	230	101300000	1000	0	0	-1	0
15591355	1500	2	0	-100	0	230	101300000	1000	0	0	-1	0
15603915	1500	1	0	-100	0	230	101300000	1000	0	0	-1	0
15616475	1503	0	0	-100	0	230	101300000	1000	0	0	-1	0
15629035	1501	0	0	-100	0	230	101300000	1000	0	0	-1	0
15641595	1503	0	0	-100	0	230	101300000	1000	0	0	-1	0
15654155	1500	0	0	-100	0	230	101300000	1000	0	0	-1	0
15666715	1503	0	0	-100	0	230	101300000	1000	0	0	-1	0
15679275	1501	0	0	-100	0	230	101300000	1000	0	0	-1	0
15691835	1500	0	0	-100	0	230	101300000	1000	0	0	-1	0
15704395	1500	0	0	-100	0	230	101300000	1000	0	0	-1	0
15716955	1503	0	0	-100	0	230	101300000	1000	0	0	-1	0
15729515	1501	0	0	-100	0	230	101300000	1000	0	0	-1	0
15742075	1504	0	0	-100	0	230	101300000	1000	0	0	-1	0
15754635	1502	0	0	-100	0	230	101300000	1000	0	0	-1	0
15767195	1501	0	0	-100	0	230	101300000	1000	0	0	-1	0
15779755	1503	1	0	-100	0	230	101300000	1000	0	0	-1	0
15792315	1501	3	0	-100	0	230	101300000	1000	0	0	-1	0
15804875	1503	4	0	-100	0	230	101300000	1000	0	0	-1	0
15817435	1502	0	0	-100	0	230	101300000	1000	0	0	-1	0
15829995	1500	0	0	-100	0	230	101300000	1000	0	0	-1	0
15842555	1503	0	0	-100	0	230	101300000	1000	0	0	-1	0
15855115	1500	0	0	-100	0	230	101300000	1000	0	0	-1	0
15867675	1500	0	0	-100	0	230	101300000	1000	0	0	-1	0
15880235	1500	0	0	-100	0	230	101300000	1000	0	0	-1	0
15892795	1502	0	0	-100	0	230	101300000	1000	0	0	-1	0
15905355	1500	4	0	-100	0	230	101300000	1000	0	0	-1	0
15917915	1503	1	0	-100	0	230	101300000	1000	0	0	-1	0
15930475	1500	3	0	-100	0	230	101300000	1000	0	0	-1	0
15943035	1503	1	0	-100	0	230	101300000	1000	0	0	-1	0
15955595	1503	2	0	-100	0	230	101300000	1000	0	0	-1	0
15968155	1497	4	0	-100	0	230	101300000	1000	0	0	-1	0
15980715	1503	1	0	-100	0	230	101300000	1000	0	0	-1	0
15993275	1505	0	0	-100	0	230	101300000	1000	0	0	-1	0
16005835	1508	0	0	-100	0	230	101300000	1000	0	0	-1	0
16018395	1510	0	0	-100	0	230	101300000	1000	0	0	-1	0
16030955	1505	0	0	-100	0	230	101300000	1000	0	0	-1	0
16043515	1507	0	0	-100	0	230	101300000	1000	0	0	-1	0
16056075	1507	0	0	-100	0	230	101300000	1000	0	0	-1	0
16068635	1500	0	0	-100	0	230	101300000	1000	0	0	-1	0
16081195	1505	0	0	-100	0	230	101300000	1000	0	0	-1	0
16093755	1501	3	0	-100	0	230	101300000	1000	0	0	-1	0
16106315	1503	4	0	-100	0	230	101300000	1000	0	0	-1	0
16118875	1501	0	0	-100	0	230	101300000	1000	0	0	-1	0
16131435	1502	0	0	-100	0	230	101300000	1000	0	0	-1	0
16143995	1503	0	0	-100	0	230	101300000	1000	0	0	-1	0
16156555	1510	0	0	-100	0	230	101300000	1000	0	0	-1	0
16169115	1507	0	0	-100	0	230	101300000	1000	0	0	-1	0
16181675	1510	0	0	-100	0	230	101300000	1000	0	0	-1	0
16194235	1505	0	0	-100	0	230	101300000	1000	0	0	-1	0
16206795	1503	0	0	-100	0	230	101300000	1000	0	0	-1	0
16219355	1503	0	0	-100	0	230	101300000	1000	0	0	-1	0
16231915	1503	0	0	-100	0	230	101300000	1000	0	0	-1	0
16244475	1504	0	0	-100	0	230	101300000	1000	0	0	-1	0
16257035	1502	0	0	-100	0	230	101300000	1000	0	0	-1	0
16269595	1500	0	0	-100	0	230	101300000	1000	0	0	-1	0
16282155	1499	0	0	-100	0	230	101300000	1000	0	0	-1	0
16294715	1508	0	0	-100	0	230	101300000	1000	0	0	-1	0
16307275	1503	3	0	-100	0	230	101300000	1000	0	0	-1	0
16319835	1503	4	0	-100	0	230	101300000	1000	0	0	-1	0
16332395	1500	2	0	-100	0	230	101300000	1000	0	0	-1	0
16344955	1503	0	0	-100	0	230	101300000	1000	0	0	-1	0
16357515	1506	0	0	-100	0	230	101300000	1000	0	0	-1	0
16370075	1503	0	0	-100	0	230	101300000	1000	0	0	-1	0
16382635	1510	0	0	-100	0	230	101300000	1000	0	0	-1	0
16395195	1507	0	0	-100	0	230	101300000	1000	0	0	-1	0
16407755	1503	0	0	-100	0	230	101300000	1000	0	0	-1	0
16420315	1502	0	0	-100	0	230	101300000	1000	0	0	-1	0
16432875	1501	3	0	-100	0	230	101300000	1000	0	0	-1	0
16445435	1501	0	0	-100	0	230	101300000	1000	0	0	-1	0
16457995	1502	0	0	-100	0	230	101300000	1000	0	0	-1	0
16470555	1500	0	0	-100	0	230	101300000	1000	0	0	-1	0
16483115	1506	0	0	-100	0	230	101300000	1000	0	0	-1	0
16495675	1505	0	0	-100	0	230	101300000	1000	0	0	-1	0
16508235	1505	0	0	-100	0	230	101300000	1000	0	0	-1	0
16520795	1512	0	0	-100	0	230	101300000	1000	0	0	-1	0
16533355	1507	0	0	-100	0	230	101300000	1000	0	0	-1	0
16545915	1510	0	0	-100	0	230	101300000	1000	0	0	-1	0
16558475	1510	0	0	-100	0	230	101300000	1000	0	0	-1	0
16571035	1505	0	0	-100	0	230	101300000	1000	0	0	-1	0
16583595	1510	0	0	-100	0	230	101300000	1000	0	0	-1	0
16596155	1507	0	0	-100	0	230	101300000	1000	0	0	-1	0
16608715	1504	0	0	-100	0	230	101300000	1000	0	0	-1	0
16621275	1507	0	0	-100	0	230	101300000	1000	0	0	-1	0
16633835	1504	0	0	-100	0	230	101300000	1000	0	0	-1	0
16646395	1505	0	0	-100	0	230	101300000	1000	0	0	-1	0
16658955	1508	0	0	-100	0	230	101300000	1000	0	0	-1	0
16671515	1505	0	0	-100	0	230	101300000	1000	0	0	-1	0
16684075	1510	0	0	-100	0	230	101300000	1000	0	0	-1	0
16696635	1508	0	0	-100	0	230	101300000	1000	0	0	-1	0
16709195	1505	0	0	-100	0	230	101300000	1000	0	0	-1	0
16721755	1512	0	0	-100	0	230	101300000	1000	0	0	-1	0
16734315	1508	0	0	-100	0	230	101300000	1000	0	0	-1	0
16746875	1510	0	0	-100	0	230	101300000	1000	0	0	-1	0
16759435	1507	0	0	-100	0	230	101300000	1000	0	0	-1	0
16771995	1501	0	0	-100	0	230	101300000	1000	0	0	-1	0
16784555	1502	0	0	-100	0	230	101300000	1000	0	0	-1	0
16797115	1505	0	0	-100	0	230	101300000	1000	0	0	-1	0
16809675	1501	0	0	-100	0	230	101300000	1000	0	0	-1	0
16822235	1503	0	0	-100	0	230	101300000	1000	0	0	-1	0
16834795	1505	0	0	-100	0	230	101300000	1000	0	0	-1	0
16847355	1505	0	0	-100	0	230	101300000	1000	0	0	-1	0
16859915	1510	0	0	-100	0	230	101300000	1000	0	0	-1	0
16872475	1508	0	0	-100	0	230	101300000	1000	0	0	-1	0
16885035	1510	0	0	-100	0	230	101300000	1000	0	0	-1	0
16897595	1512	0	0	-100	0	230	101300000	1000	0	0	-1	0
16910155	1504	0	0	-100	0	230	101300000	1000	0	0	-1	0
16922715	1510	0	0	-100	0	230	101300000	1000	0	0	-1	0
16935275	1510	0	0	-100	0	230	101300000	1000	0	0	-1	0
16947835	1508	0	0	-100	0	230	101300000	1000	0	0	-1	0
16960395	1506	0	0	-100	0	230	101300000	1000	0	0	-1	0
16972955	1499	0	0	-100	0	230	101300000	1000	0	0	-1	0
16985515	1504	0	0	-100	0	230	101300000	1000	0	0	-1	0
16998075	1503	2	0	-100	0	230	101300000	1000	0	0	-1	0
17010635	1500	0	0	-100	0	230	101300000	1000	0	0	-1	0
17023195	1503	0	0	-100	0	230	101300000	1000	0	0	-1	0
17035755	1508	0	0	-100	0	230	101300000	1000	0	0	-1	0
17048315	1503	0	0	-100	0	230	101300000	1000	0	0	-1	0
17060875	1505	0	0	-100	0	230	101300000	1000	0	0	-1	0
17073435	1501	0	0	-100	0	230	101300000	1000	0	0	-1	0
17085995	1505	0	0	-100	0	230	101300000	1000	0	0	-1	0
17098555	1510	0	0	-100	0	230	101300000	1000	0	0	-1	0
17111115	1504	0	0	-100	0	230	101300000	1000	0	0	-1	0
17123675	1501	0	0	-100	0	230	101300000	1000	0	0	-1	0
17136235	1500	3	0	-100	0	230	101300000	1000	0	0	-1	0
17148795	1501	0	0	-100	0	230	101300000	1000	0	0	-1	0
17161355	1509	0	0	-100	0	230	101300000	1000	0	0	-1	0
17173915	1505	0	0	-100	0	230	101300000	1000	0	0	-1	0
17186475	1504	3	0	-100	0	230	101300000	1000	0	0	-1	0
17199035	1506	0	0	-100	0	230	101300000	1000	0	0	-1	0
17211595	1506	0	0	-100	0	230	101300000	1000	0	0	-1	0
17224155	1500	4	0	-100	0	230	101300000	1000	0	0	-1	0
17236715	1510	0	0	-100	0	230	101300000	1000	0	0	-1	0
17249275	1505	0	0	-100	0	230	101300000	1000	0	0	-1	0
17261835	1503	0	0	-100	0	230	101300000	1000	0	0	-1	0
17274395	1498	1	0	-100	0	230	101300000	1000	0	0	-1	0
17286955	1505	0	0	-100	0	230	101300000	1000	0	0	-1	0
17299515	1506	0	0	-100	0	230	101300000	1000	0	0	-1	0
17312075	1505	0	0	-100	0	230	101300000	1000	0	0	-1	0
17324635	1502	0	0	-100	0	230	101300000	1000	0	0	-1	0
17337195	1500	0	0	-100	0	230	101300000	1000	0	0	-1	0
17349755	1500	2	0	-100	0	230	101300000	1000	0	0	-1	0
17362315	1501	0	0	-100	0	230	101300000	1000	0	0	-1	0
17374875	1503	0	0	-100	0	230	101300000	1000	0	0	-1	0
17387435	1510	0	0	-100	0	230	101300000	1000	0	0	-1	0
17399995	1510	3	0	-100	0	230	101300000	1000	0	0	-1	0
17412555	1505	0	0	-100	0	230	101300000	1000	0	0	-1	0
17425115	1503	0	0	-100	0	230	101300000	1000	0	0	-1	0
17437675	1506	3	0	-100	0	230	101300000	1000	0	0	-1	0
17450235	1502	0	0	-100	0	230	101300000	1000	0	0	-1	0
17462795	1505	0	0	-100	0	230	101300000	1000	0	0	-1	0
17475355	1506	0	0	-100	0	230	101300000	1000	0	0	-1	0
17487915	1508	0	0	-100	0	230	101300000	1000	0	0	-1	0
17500475	1507	0	0	-100	0	230	101300000	1000	0	0	-1	0
17513035	1504	0	0	-100	0	230	101300000	1000	0	0	-1	0
17525595	1505	0	0	-100	0	230	101300000	1000	0	0	-1	0
17538155	1502	0	0	-100	0	230	101300000	1000	0	0	-1	0
17550715	1497	0	0	-100	0	230	101300000	1000	0	0	-1	0
17563275	1500	2	0	-100	0	230	101300000	1000	0	0	-1	0
17575835	1503	0	0	-100	0	230	101300000	1000	0	0	-1	0
17588395	1503	0	0	-100	0	230	101300000	1000	0	0	-1	0
17600955	1510	0	0	-100	0	230	101300000	1000	0	0	-1	0
17613515	1502	0	0	-100	0	230	101300000	1000	0	0	-1	0
17626075	1508	0	0	-100	0	230	101300000	1000	0	0	-1	0
17638635	1504	0	0	-100	0	230	101300000	1000	0	0	-1	0
17651195	1500	1	0	-100	0	230	101300000	1000	0	0	-1	0
17663755	1500	0	0	-100	0	230	101300000	1000	0	0	-1	0
17676315	1510	0	0	-100	0	230	101300000	1000	0	0	-1	0
17688875	1505	0	0	-100	0	230	101300000	1000	0	0	-1	0
17701435	1505	4	0	-100	0	230	101300000	1000	0	0	-1	0
17713995	1502	0	0	-100	0	230	101300000	1000	0	0	-1	0
17726555	1510	0	0	-100	0	230	101300000	1000	0	0	-1	0
17739115	1508	0	0	-100	0	230	101300000	1000	0	0	-1	0
17751675	1504	0	0	-100	0	230	101300000	1000	0	0	-1	0
17764235	1503	0	0	-100	0	230	101300000	1000	0	0	-1	0
17776795	1502	0	0	-100	0	230	101300000	1000	0	0	-1	0
17789355	1500	2	0	-100	0	230	101300000	1000	0	0	-1	0
17801915	1503	0	0	-100	0	230	101300000	1000	0	0	-1	0
17814475	1507	0	0	-100	0	230	101300000	1000	0	0	-1	0
17827035	1505	0	0	-100	0	230	101300000	1000	0	0	-1	0
17839595	1505	0	0	-100	0	230	101300000	1000	0	0	-1	0
17852155	1495	4	0	-100	0	230	101300000	1000	0	0	-1	0
17864715	1503	0	0	-100	0	230	101300000	1000	0	0	-1	0
17877275	1510	0	0	-100	0	230	101300000	1000	0	0	-1	0
17889835	1507	0	0	-100	0	230	101300000	1000	0	0	-1	0
17902395	1507	0	0	-100	0	230	101300000	1000	0	0	-1	0
17914955	1502	0	0	-100	0	230	101300000	1000	0	0	-1	0
17927515	1500	0	0	-100	0	230	101300000	1000	0	0	-1	0
17940075	1502	2	0	-100	0	230	101300000	1000	0	0	-1	0
17952635	1501	0	0	-100	0	230	101300000	1000	0	0	-1	0
17965195	1502	0	0	-100	0	230	101300000	1000	0	0	-1	0
17977755	1510	0	0	-100	0	230	101300000	1000	0	0	-1	0
17990315	1505	0	0	-100	0	230	101300000	1000	0	0	-1	0
18002875	1506	2	0	-100	0	230	101300000	1000	0	0	-1	0
18015435	1503	0	0	-100	0	230	101300000	1000	0	0	-1	0
18027995	1507	2	0	-100	0	230	101300000	1000	0	0	-1	0
18040555	1505	4	0	-100	0	230	101300000	1000	0	0	-1	0
18053115	1506	0	0	-100	0	230	101300000	1000	0	0	-1	0
18065675	1504	0	0	-100	0	230	101300000	1000	0	0	-1	0
18078235	1506	3	0	-100	0	230	101300000	1000	0	0	-1	0
18090795	1506	0	0	-100	0	230	101300000	1000	0	0	-1	0
18103355	1505	0	0	-100	0	230	101300000	1000	0	0	-1	0
18115915	1503	3	0	-100	0	230	101300000	1000	0	0	-1	0
18128475	1510	0	0	-100	0	230	101300000	1000	0	0	-1	0
18141035	1502	0	0	-100	0	230	101300000	1000	0	0	-1	0
18153595	1500	0	0	-100	0	230	101300000	1000	0	0	-1	0
18166155	1503	0	0	-100	0	230	101300000	1000	0	0	-1	0
18178715	1503	1	0	-100	0	230	101300000	1000	0	0	-1	0
18191275	1507	0	0	-100	0	230	101300000	1000	0	0	-1	0
18203835	1505	0	0	-100	0	230	101300000	1000	0	0	-1	0
18216395	1505	0	0	-100	0	230	101300000	1000	0	0	-1	0
18228955	1500	0	0	-100	0	230	101300000	1000	0	0	-1	0
18241515	1510	0	0	-100	0	230	101300000	1000	0	0	-1	0
18254075	1502	0	0	-100	0	230	101300000	1000	0	0	-1	0
18266635	1502	0	0	-100	0	230	101300000	1000	0	0	-1	0
18279195	1502	2	0	-100	0	230	101300000	1000	0	0	-1	0
18291755	1507	0	0	-100	0	230	101300000	1000	0	0	-1	0
18304315	1507	0	0	-100	0	230	101300000	1000	0	0	-1	0
18316875	1503	0	0	-100	0	230	101300000	1000	0	0	-1	0
18329435	1500	2	0	-100	0	230	101300000	1000	0	0	-1	0
18341995	1501	0	0	-100	0	230	101300000	1000	0	0	-1	0
18354555	1510	0	0	-100	0	230	101300000	1000	0	0	-1	0
18367115	1508	0	0	-100	0	230	101300000	1000	0	0	-1	0
18379675	1503	0	0	-100	0	230	101300000	1000	0	0	-1	0
18392235	1500	3	0	-100	0	230	101300000	1000	0	0	-1	0
18404795	1502	0	0	-100	0	230	101300000	1000	0	0	-1	0
18417355	1510	0	0	-100	0	230	101300000	1000	0	0	-1	0
18429915	1505	0	0	-100	0	230	101300000	1000	0	0	-1	0
18442475	1502	0	0	-100	0	230	101300000	1000	0	0	-1	0
18455035	1508	0	0	-100	0	230	101300000	1000	0	0	-1	0
18467595	1500	3	0	-100	0	230	101300000	1000	0	0	-1	0
18480155	1509	0	0	-100	0	230	101300000	1000	0	0	-1	0
18492715	1506	0	0	-100	0	230	101300000	1000	0	0	-1	0
18505275	1505	2	0	-100	0	230	101300000	1000	0	0	-1	0
18517835	1503	0	0	-100	0	230	101300000	1000	0	0	-1	0
18530395	1505	0	0	-100	0	230	101300000	1000	0	0	-1	0
18542955	1506	0	0	-100	0	230	101300000	1000	0	0	-1	0
18555515	1499	0	0	-100	0	230	101300000	1000	0	0	-1	0
18568075	1501	2	0	-100	0	230	101300000	1000	0	0	-1	0
18580635	1501	0	0	-100	0	230	101300000	1000	0	0	-1	0
18593195	1508	0	0	-100	0	230	101300000	1000	0	0	-1	0
18605755	1509	0	0	-100	0	230	101300000	1000	0	0	-1	0
18618315	1502	0	0	-100	0	230	101300000	1000	0	0	-1	0
18630875	1501	1	0	-100	0	230	101300000	1000	0	0	-1	0
18643435	1503	0	0	-100	0	230	101300000	1000	0	0	-1	0
18655995	1507	2	0	-100	0	230	101300000	1000	0	0	-1	0
18668555	1507	0	0	-100	0	230	101300000	1000	0	0	-1	0
18681115	1508	0	0	-100	0	230	101300000	1000	0	0	-1	0
18693675	1500	0	0	-100	0	230	101300000	1000	0	0	-1	0
18706235	1501	0	0	-100	0	230	101300000	1000	0	0	-1	0
18718795	1510	0	0	-100	0	230	101300000	1000	0	0	-1	0
18731355	1502	0	0	-100	0	230	101300000	1000	0	0	-1	0
18743915	1501	2	0	-100	0	230	101300000	1000	0	0	-1	0
18756475	1506	0	0	-100	0	230	101300000	1000	0	0	-1	0
18769035	1505	0	0	-100	0	230	101300000	1000	0	0	-1	0
18781595	1503	4	0	-100	0	230	101300000	1000	0	0	-1	0
18794155	1500	0	0	-100	0	230	101300000	1000	0	0	-1	0
18806715	1508	0	0	-100	0	230	101300000	1000	0	0	-1	0
18819275	1503	0	0	-100	0	230	101300000	1000	0	0	-1	0
18831835	1498	2	0	-100	0	230	101300000	1000	0	0	-1	0
18844395	1503	0	0	-100	0	230	101300000	1000	0	0	-1	0
18856955	1509	0	0	-100	0	230	101300000	1000	0	0	-1	0
18869515	1505	0	0	-100	0	230	101300000	1000	0	0	-1	0
18882075	1504	0	0	-100	0	230	101300000	1000	0	0	-1	0
18894635	1501	2	0	-100	0	230	101300000	1000	0	0	-1	0
18907195	1509	0	0	-100	0	230	101300000	1000	0	0	-1	0
18919755	1510	0	0	-100	0	230	101300000	1000	0	0	-1	0
18932315	1497	0	0	-100	0	230	101300000	1000	0	0	-1	0
18944875	1503	3	0	-100	0	230	101300000	1000	0	0	-1	0
18957435	1506	0	0	-100	0	230	101300000	1000	0	0	-1	0
18969995	1507	1	0	-100	0	230	101300000	1000	0	0	-1	0
18982555	1505	0	0	-100	0	230	101300000	1000	0	0	-1	0
18995115	1504	1	0	-100	0	230	101300000	1000	0	0	-1	0
19007675	1503	0	0	-100	0	230	101300000	1000	0	0	-1	0
19020235	1509	0	0	-100	0	230	101300000	1000	0	0	-1	0
19032795	1503	0	0	-100	0	230	101300000	1000	0	0	-1	0
19045355	1502	1	0	-100	0	230	101300000	1000	0	0	-1	0
19057915	1510	0	0	-100	0	230	101300000	1000	0	0	-1	0
19070475	1505	0	0	-100	0	230	101300000	1000	0	0	-1	0
19083035	1505	0	0	-100	0	230	101300000	1000	0	0	-1	0
19095595	1499	0	0	-100	0	230	101300000	1000	0	0	-1	0
19108155	1500	3	0	-100	0	230	101300000	1000	0	0	-1	0
19120715	1510	0	0	-100	0	230	101300000	1000	0	0	-1	0
19133275	1505	0	0	-100	0	230	101300000	1000	0	0	-1	0
19145835	1500	0	0	-100	0	230	101300000	1000	0	0	-1	0
19158395	1501	2	0	-100	0	230	101300000	1000	0	0	-1	0
19170955	1506	0	0	-100	0	230	101300000	1000	0	0	-1	0
19183515	1505	0	0	-100	0	230	101300000	1000	0	0	-1	0
19196075	1503	2	0	-100	0	230	101300000	1000	0	0	-1	0
19208635	1508	0	0	-100	0	230	101300000	1000	0	0	-1	0
19221195	1507	0	0	-100	0	230	101300000	1000	0	0	-1	0
19233755	1499	2	0	-100	0	230	101300000	1000	0	0	-1	0
19246315	1505	0	0	-100	0	230	101300000	1000	0	0	-1	0
19258875	1508	0	0	-100	0	230	101300000	1000	0	0	-1	0
19271435	1501	2	0	-100	0	230	101300000	1000	0	0	-1	0
19283995	1505	0	0	-100	0	230	101300000	1000	0	0	-1	0
19296555	1507	0	0	-100	0	230	101300000	1000	0	0	-1	0
19309115	1502	1	0	-100	0	230	101300000	1000	0	0	-1	0
19321675	1508	0	0	-100	0	230	101300000	1000	0	0	-1	0
19334235	1504	0	0	-100	0	230	101300000	1000	0	0	-1	0
19346795	1503	3	0	-100	0	230	101300000	1000	0	0	-1	0
19359355	1509	0	0	-100	0	230	101300000	1000	0	0	-1	0
19371915	1500	0	0	-100	0	230	101300000	1000	0	0	-1	0
19384475	1503	0	0	-100	0	230	101300000	1000	0	0	-1	0
19397035	1512	0	0	-100	0	230	101300000	1000	0	0	-1	0
19409595	1500	3	0	-100	0	230	101300000	1000	0	0	-1	0
19422155	1506	0	0	-100	0	230	101300000	1000	0	0	-1	0
19434715	1502	0	0	-100	0	230	101300000	1000	0	0	-1	0
19447275	1503	0	0	-100	0	230	101300000	1000	0	0	-1	0
19459835	1510	0	0	-100	0	230	101300000	1000	0	0	-1	0
19472395	1500	0	0	-100	0	230	101300000	1000	0	0	-1	0
19484955	1503	0	0	-100	0	230	101300000	1000	0	0	-1	0
19497515	1507	0	0	-100	0	230	101300000	1000	0	0	-1	0
19510075	1505	1	0	-100	0	230	101300000	1000	0	0	-1	0
19522635	1508	0	0	-100	0	230	101300000	1000	0	0	-1	0
19535195	1500	0	0	-100	0	230	101300000	1000	0	0	-1	0
19547755	1503	0	0	-100	0	230	101300000	1000	0	0	-1	0
19560315	1507	0	0	-100	0	230	101300000	1000	0	0	-1	0
19572875	1500	2	0	-100	0	230	101300000	1000	0	0	-1	0
19585435	1508	0	0	-100	0	230	101300000	1000	0	0	-1	0
19597995	1500	0	0	-100	0	230	101300000	1000	0	0	-1	0
19610555	1506	0	0	-100	0	230	101300000	1000	0	0	-1	0
19623115	1505	0	0	-100	0	230	101300000	1000	0	0	-1	0
19635675	1503	1	0	-100	0	230	101300000	1000	0	0	-1	0
19648235	1504	0	0	-100	0	230	101300000	1000	0	0	-1	0
19660795	1502	0	0	-100	0	230	101300000	1000	0	0	-1	0
19673355	1503	0	0	-100	0	230	101300000	1000	0	0	-1	0
19685915	1505	0	0	-100	0	230	101300000	1000	0	0	-1	0
19698475	1503	1	0	-100	0	230	101300000	1000	0	0	-1	0
19711035	1507	0	0	-100	0	230	101300000	1000	0	0	-1	0
19723595	1502	0	0	-100	0	230	101300000	1000	0	0	-1	0
19736155	1497	0	0	-100	0	230	101300000	1000	0	0	-1	0
19748715	1505	0	0	-100	0	230	101300000	1000	0	0	-1	0
19761275	1502	2	0	-100	0	230	101300000	1000	0	0	-1	0
19773835	1508	0	0	-100	0	230	101300000	1000	0	0	-1	0
19786395	1503	1	0	-100	0	230	101300000	1000	0	0	-1	0
19798955	1510	0	0	-100	0	230	101300000	1000	0	0	-1	0
19811515	1505	0	0	-100	0	230	101300000	1000	0	0	-1	0
19824075	1503	3	0	-100	0	230	101300000	1000	0	0	-1	0
19836635	1508	0	0	-100	0	230	101300000	1000	0	0	-1	0
19849195	1501	0	0	-100	0	230	101300000	1000	0	0	-1	0
19861755	1503	0	0	-100	0	230	101300000	1000	0	0	-1	0
19874315	1508	0	0	-100	0	230	101300000	1000	0	0	-1	0
19886875	1503	1	0	-100	0	230	101300000	1000	0	0	-1	0
19899435	1509	0	0	-100	0	230	101300000	1000	0	0	-1	0
19911995	1503	0	0	-100	0	230	101300000	1000	0	0	-1	0
19924555	1512	0	0	-100	0	230	101300000	1000	0	0	-1	0
19937115	1502	0	0	-100	0	230	101300000	1000	0	0	-1	0
19949675	1506	0	0	-100	0	230	101300000	1000	0	0	-1	0
19962235	1505	0	0	-100	0	230	101300000	1000	0	0	-1	0
19974795	1503	0	0	-100	0	230	101300000	1000	0	0	-1	0
19987355	1500	0	0	-100	0	230	101300000	1000	0	0	-1	0
19999915	1510	0	0	-100	0	230	101300000	1000	0	0	-1	0
20012475	1505	0	0	-100	0	230	101300000	1000	0	0	-1	0
20025035	1509	0	0	-100	0	230	101300000	1000	0	0	-1	0
20037595	1502	0	0	-100	0	230	101300000	1000	0	0	-1	0
20050155	1504	0	0	-100	0	230	101300000	1000	0	0	-1	0
20062715	1502	0	0	-100	0	230	101300000	1000	0	0	-1	0
20075275	1513	0	0	-100	0	230	101300000	1000	0	0	-1	0
20087835	1500	0	0	-100	0	230	101300000	1000	0	0	-1	0
20100395	1507	0	0	-100	0	230	101300000	1000	0	0	-1	0
20112955	1501	2	0	-100	0	230	101300000	1000	0	0	-1	0
20125515	1507	0	0	-100	0	230	101300000	1000	0	0	-1	0
20138075	1503	0	0	-100	0	230	101300000	1000	0	0	-1	0
20150635	1508	0	0	-100	0	230	101300000	1000	0	0	-1	0
20163195	1505	0	0	-100	0	230	101300000	1000	0	0	-1	0
20175755	1508	0	0	-100	0	230	101300000	1000	0	0	-1	0
20188315	1503	0	0	-100	0	230	101300000	1000	0	0	-1	0
20200875	1510	0	0	-100	0	230	101300000	1000	0	0	-1	0
20213435	1503	0	0	-100	0	230	101300000	1000	0	0	-1	0
20225995	1513	4	0	-100	0	230	101300000	1000	0	0	-1	0
20238555	1505	0	0	-100	0	230	101300000	1000	0	0	-1	0
20251115	1498	1	0	-100	0	230	101300000	1000	0	0	-1	0
20263675	1507	0	0	-100	0	230	101300000	1000	0	0	-1	0
20276235	1503	0	0	-100	0	230	101300000	1000	0	0	-1	0
20288795	1500	0	0	-100	0	230	101300000	1000	0	0	-1	0
20301355	1508	0	0	-100	0	230	101300000	1000	0	0	-1	0
20313915	1500	1	0	-100	0	230	101300000	1000	0	0	-1	0
20326475	1510	0	0	-100	0	230	101300000	1000	0	0	-1	0
20339035	1505	0	0	-100	0	230	101300000	1000	0	0	-1	0
20351595	1500	2	0	-100	0	230	101300000	1000	0	0	-1	0
20364155	1504	0	0	-100	0	230	101300000	1000	0	0	-1	0
20376715	1502	0	0	-100	0	230	101300000	1000	0	0	-1	0
20389275	1505	0	0	-100	0	230	101300000	1000	0	0	-1	0
20401835	1506	0	0	-100	0	230	101300000	1000	0	0	-1	0
20414395	1498	0	0	-100	0	230	101300000	1000	0	0	-1	0
20426955	1508	0	0	-100	0	230	101300000	1000	0	0	-1	0
20439515	1503	2	0	-100	0	230	101300000	1000	0	0	-1	0
20452075	1507	0	0	-100	0	230	101300000	1000	0	0	-1	0
20464635	1500	0	0	-100	0	230	101300000	1000	0	0	-1	0
20477195	1505	0	0	-100	0	230	101300000	1000	0	0	-1	0
20489755	1502	0	0	-100	0	230	101300000	1000	0	0	-1	0
20502315	1505	0	0	-100	0	230	101300000	1000	0	0	-1	0
20514875	1505	0	0	-100	0	230	101300000	1000	0	0	-1	0
20527435	1500	2	0	-100	0	230	101300000	1000	0	0	-1	0
20539995	1507	1	0	-100	0	230	101300000	1000	0	0	-1	0
20552555	1503	1	0	-100	0	230	101300000	1000	0	0	-1	0
20565115	1510	0	0	-100	0	230	101300000	1000	0	0	-1	0
20577675	1502	0	0	-100	0	230	101300000	1000	0	0	-1	0
20590235	1503	0	0	-100	0	230	101300000	1000	0	0	-1	0
20602795	1502	0	0	-100	0	230	101300000	1000	0	0	-1	0
20615355	1501	0	0	-100	0	230	101300000	1000	0	0	-1	0
20627915	1507	0	0	-100	0	230	101300000	1000	0	0	-1	0
20640475	1501	2	0	-100	0	230	101300000	1000	0	0	-1	0
20653035	1508	0	0	-100	0	230	101300000	1000	0	0	-1	0
20665595	1502	3	0	-100	0	230	101300000	1000	0	0	-1	0
20678155	1504	0	0	-100	0	230	101300000	1000	0	0	-1	0
20690715	1503	3	0	-100	0	230	101300000	1000	0	0	-1	0
20703275	1512	0	0	-100	0	230	101300000	1000	0	0	-1	0
20715835	1499	0	0	-100	0	230	101300000	1000	0	0	-1	0
20728395	1504	0	0	-100	0	230	101300000	1000	0	0	-1	0
20740955	1505	0	0	-100	0	230	101300000	1000	0	0	-1	0
20753515	1501	2	0	-100	0	230	101300000	1000	0	0	-1	0
20766075	1508	0	0	-100	0	230	101300000	1000	0	0	-1	0
20778635	1502	0	0	-100	0	230	101300000	1000	0	0	-1	0
20791195	1501	1	0	-100	0	230	101300000	1000	0	0	-1	0
20803755	1510	0	0	-100	0	230	101300000	1000	0	0	-1	0
20816315	1500	0	0	-100	0	230	101300000	1000	0	0	-1	0
20828875	1502	0	0	-100	0	230	101300000	1000	0	0	-1	0
20841435	1508	0	0	-100	0	230	101300000	1000	0	0	-1	0
20853995	1503	0	0	-100	0	230	101300000	1000	0	0	-1	0
20866555	1507	0	0	-100	0	230	101300000	1000	0	0	-1	0
20879115	1499	0	0	-100	0	230	101300000	1000	0	0	-1	0
20891675	1501	0	0	-100	0	230	101300000	1000	0	0	-1	0
20904235	1505	0	0	-100	0	230	101300000	1000	0	0	-1	0
20916795	1500	2	0	-100	0	230	101300000	1000	0	0	-1	0
20929355	1508	0	0	-100	0	230	101300000	1000	0	0	-1	0
20941915	1503	0	0	-100	0	230	101300000	1000	0	0	-1	0
20954475	1501	0	0	-100	0	230	101300000	1000	0	0	-1	0
20967035	1508	0	0	-100	0	230	101300000	1000	0	0	-1	0
20979595	1505	0	0	-100	0	230	101300000	1000	0	0	-1	0
20992155	1497	0	0	-100	0	230	101300000	1000	0	0	-1	0
21004715	1507	0	0	-100	0	230	101300000	1000	0	0	-1	0
21017275	1505	0	0	-100	0	230	101300000	1000	0	0	-1	0
21029835	1502	0	0	-100	0	230	101300000	1000	0	0	-1	0
21042395	1507	0	0	-100	0	230	101300000	1000	0	0	-1	0
21054955	1502	0	0	-100	0	230	101300000	1000	0	0	-1	0
21067515	1503	0	0	-100	0	230	101300000	1000	0	0	-1	0
21080075	1508	0	0	-100	0	230	101300000	1000	0	0	-1	0
21092635	1503	3	0	-100	0	230	101300000	1000	0	0	-1	0
21105195	1508	0	0	-100	0	230	101300000	1000	0	0	-1	0
21117755	1502	0	0	-100	0	230	101300000	1000	0	0	-1	0
21130315	1500	1	0	-100	0	230	101300000	1000	0	0	-1	0
21142875	1510	0	0	-100	0	230	101300000	1000	0	0	-1	0
21155435	1503	0	0	-100	0	230	101300000	1000	0	0	-1	0
21167995	1503	0	0	-100	0	230	101300000	1000	0	0	-1	0
21180555	1505	0	0	-100	0	230	101300000	1000	0	0	-1	0
21193115	1500	2	0	-100	0	230	101300000	1000	0	0	-1	0
21205675	1512	0	0	-100	0	230	101300000	1000	0	0	-1	0
21218235	1504	0	0	-100	0	230	101300000	1000	0	0	-1	0
21230795	1505	0	0	-100	0	230	101300000	1000	0	0	-1	0
21243355	1506	0	0	-100	0	230	101300000	1000	0	0	-1	0
21255915	1501	0	0	-100	0	230	101300000	1000	0	0	-1	0
21268475	1508	0	0	-100	0	230	101300000	1000	0	0	-1	0
21281035	1503	0	0	-100	0	230	101300000	1000	0	0	-1	0
21293595	1498	1	0	-100	0	230	101300000	1000	0	0	-1	0
21306155	1506	0	0	-100	0	230	101300000	1000	0	0	-1	0
21318715	1502	0	0	-100	0	230	101300000	1000	0	0	-1	0
21331275	1501	0	0	-100	0	230	101300000	1000	0	0	-1	0
21343835	1507	0	0	-100	0	230	101300000	1000	0	0	-1	0
21356395	1500	0	0	-100	0	230	101300000	1000	0	0	-1	0
21368955	1501	0	0	-100	0	230	101300000	1000	0	0	-1	0
21381515	1509	0	0	-100	0	230	101300000	1000	0	0	-1	0
21394075	1500	0	0	-100	0	230	101300000	1000	0	0	-1	0
21406635	1510	0	0	-100	0	230	101300000	1000	0	0	-1	0
21419195	1502	0	0	-100	0	230	101300000	1000	0	0	-1	0
21431755	1502	0	0	-100	0	230	101300000	1000	0	0	-1	0
21444315	1510	0	0	-100	0	230	101300000	1000	0	0	-1	0
21456875	1506	0	0	-100	0	230	101300000	1000	0	0	-1	0
21469435	1500	2	0	-100	0	230	101300000	1000	0	0	-1	0
21481995	1502	0	0	-100	0	230	101300000	1000	0	0	-1	0
21494555	1505	0	0	-100	0	230	101300000	1000	0	0	-1	0
21507115	1500	0	0	-100	0	230	101300000	1000	0	0	-1	0
21519675	1503	4	0	-100	0	230	101300000	1000	0	0	-1	0
21532235	1504	0	0	-100	0	230	101300000	1000	0	0	-1	0
21544795	1510	0	0	-100	0	230	101300000	1000	0	0	-1	0
21557355	1502	0	0	-100	0	230	101300000	1000	0	0	-1	0
21569915	1510	0	0	-100	0	230	101300000	1000	0	0	-1	0
21582475	1505	0	0	-100	0	230	101300000	1000	0	0	-1	0
21595035	1510	0	0	-100	0	230	101300000	1000	0	0	-1	0
21607595	1497	0	0	-100	0	230	101300000	1000	0	0	-1	0
21620155	1505	0	0	-100	0	230	101300000	1000	0	0	-1	0
21632715	1499	0	0	-100	0	230	101300000	1000	0	0	-1	0
21645275	1512	0	0	-100	0	230	101300000	1000	0	0	-1	0
21657835	1503	2	0	-100	0	230	101300000	1000	0	0	-1	0
21670395	1505	0	0	-100	0	230	101300000	1000	0	0	-1	0
21682955	1506	0	0	-100	0	230	101300000	1000	0	0	-1	0
21695515	1500	0	0	-100	0	230	101300000	1000	0	0	-1	0
21708075	1510	0	0	-100	0	230	101300000	1000	0	0	-1	0
21720635	1502	2	0	-100	0	230	101300000	1000	0	0	-1	0
21733195	1505	0	0	-100	0	230	101300000	1000	0	0	-1	0
21745755	1505	0	0	-100	0	230	101300000	1000	0	0	-1	0
21758315	1505	0	0	-100	0	230	101300000	1000	0	0	-1	0
21770875	1505	0	0	-100	0	230	101300000	1000	0	0	-1	0
21783435	1507	0	0	-100	0	230	101300000	1000	0	0	-1	0
21795995	1500	0	0	-100	0	230	101300000	1000	0	0	-1	0
21808555	1505	0	0	-100	0	230	101300000	1000	0	0	-1	0
21821115	1504	0	0	-100	0	230	101300000	1000	0	0	-1	0
21833675	1500	0	0	-100	0	230	101300000	1000	0	0	-1	0
21846235	1508	0	0	-100	0	230	101300000	1000	0	0	-1	0
21858795	1500	0	0	-100	0	230	101300000	1000	0	0	-1	0
21871355	1501	0	0	-100	0	230	101300000	1000	0	0	-1	0
21883915	1510	0	0	-100	0	230	101300000	1000	0	0	-1	0
21896475	1503	0	0	-100	0	230	101300000	1000	0	0	-1	0
21909035	1505	0	0	-100	0	230	101300000	1000	0	0	-1	0
21921595	1505	0	0	-100	0	230	101300000	1000	0	0	-1	0
21934155	1497	2	0	-100	0	230	101300000	1000	0	0	-1	0
21946715	1507	0	0	-100	0	230	101300000	1000	0	0	-1	0
21959275	1503	0	0	-100	0	230	101300000	1000	0	0	-1	0
21971835	1503	4	0	-100	0	230	101300000	1000	0	0	-1	0
21984395	1506	0	0	-100	0	230	101300000	1000	0	0	-1	0
21996955	1506	0	0	-100	0	230	101300000	1000	0	0	-1	0
22009515	1501	0	0	-100	0	230	101300000	1000	0	0	-1	0
22022075	1503	2	0	-100	0	230	101300000	1000	0	0	-1	0
22034635	1501	0	0	-100	0	230	101300000	1000	0	0	-1	0
22047195	1508	0	0	-100	0	230	101300000	1000	0	0	-1	0
22059755	1510	0	0	-100	0	230	101300000	1000	0	0	-1	0
22072315	1503	0	0	-100	0	230	101300000	1000	0	0	-1	0
22084875	1502	0	0	-100	0	230	101300000	1000	0	0	-1	0
22097435	1503	4	0	-100	0	230	101300000	1000	0	0	-1	0
22109995	1503	0	0	-100	0	230	101300000	1000	0	0	-1	0
22122555	1510	0	0	-100	0	230	101300000	1000	0	0	-1	0
22135115	1503	0	0	-100	0	230	101300000	1000	0	0	-1	0
22147675	1503	4	0	-100	0	230	101300000	1000	0	0	-1	0
22160235	1502	0	0	-100	0	230	101300000	1000	0	0	-1	0
22172795	1507	0	0	-100	0	230	101300000	1000	0	0	-1	0
22185355	1510	0	0	-100	0	230	101300000	1000	0	0	-1	0
22197915	1505	0	0	-100	0	230	101300000	1000	0	0	-1	0
22210475	1502	0	0	-100	0	230	101300000	1000	0	0	-1	0
22223035	1501	1	0	-100	0	230	101300000	1000	0	0	-1	0
22235595	1503	0	0	-100	0	230	101300000	1000	0	0	-1	0
22248155	1507	0	0	-100	0	230	101300000	1000	0	0	-1	0
22260715	1510	0	0	-100	0	230	101300000	1000	0	0	-1	0
22273275	1500	0	0	-100	0	230	101300000	1000	0	0	-1	0
22285835	1503	0	0	-100	0	230	101300000	1000	0	0	-1	0
22298395	1503	1	0	-100	0	230	101300000	1000	0	0	-1	0
22310955	1503	0	0	-100	0	230	101300000	1000	0	0	-1	0
22323515	1509	0	0	-100	0	230	101300000	1000	0	0	-1	0
22336075	1507	0	0	-100	0	230	101300000	1000	0	0	-1	0
22348635	1505	0	0	-100	0	230	101300000	1000	0	0	-1	0
22361195	1505	2	0	-100	0	230	101300000	1000	0	0	-1	0
22373755	1500	2	0	-100	0	230	101300000	1000	0	0	-1	0
22386315	1510	0	0	-100	0	230	101300000	1000	0	0	-1	0
22398875	1508	0	0	-100	0	230	101300000	1000	0	0	-1	0
22411435	1505	0	0	-100	0	230	101300000	1000	0	0	-1	0
22423995	1502	0	0	-100	0	230	101300000	1000	0	0	-1	0
22436555	1503	3	0	-100	0	230	101300000	1000	0	0	-1	0
22449115	1500	0	0	-100	0	230	101300000	1000	0	0	-1	0
22461675	1510	0	0	-100	0	230	101300000	1000	0	0	-1	0
22474235	1507	0	0	-100	0	230	101300000	1000	0	0	-1	0
22486795	1504	0	0	-100	0	230	101300000	1000	0	0	-1	0
22499355	1503	0	0	-100	0	230	101300000	1000	0	0	-1	0
22511915	1501	0	0	-100	0	230	101300000	1000	0	0	-1	0
22524475	1509	0	0	-100	0	230	101300000	1000	0	0	-1	0
22537035	1508	0	0	-100	0	230	101300000	1000	0	0	-1	0
22549595	1502	0	0	-100	0	230	101300000	1000	0	0	-1	0
22562155	1502	4	0	-100	0	230	101300000	1000	0	0	-1	0
22574715	1500	0	0	-100	0	230	101300000	1000	0	0	-1	0
22587275	1508	0	0	-100	0	230	101300000	1000	0	0	-1	0
22599835	1511	0	0	-100	0	230	101300000	1000	0	0	-1	0
22612395	1507	0	0	-100	0	230	101300000	1000	0	0	-1	0
22624955	1510	0	0	-100	0	230	101300000	1000	0	0	-1	0
22637515	1504	0	0	-100	0	230	101300000	1000	0	0	-1	0
22650075	1500	0	0	-100	0	230	101300000	1000	0	0	-1	0
22662635	1502	0	0	-100	0	230	101300000	1000	0	0	-1	0
22675195	1502	2	0	-100	0	230	101300000	1000	0	0	-1	0
22687755	1500	1	0	-100	0	230	101300000	1000	0	0	-1	0
22700315	1500	1	0	-100	0	230	101300000	1000	0	0	-1	0
22712875	1502	0	0	-100	0	230	101300000	1000	0	0	-1	0
22725435	1510	0	0	-100	0	230	101300000	1000	0	0	-1	0
22737995	1507	2	0	-100	0	230	101300000	1000	0	0	-1	0
22750555	1505	0	0	-100	0	230	101300000	1000	0	0	-1	0
22763115	1510	0	0	-100	0	230	101300000	1000	0	0	-1	0
22775675	1503	0	0	-100	0	230	101300000	1000	0	0	-1	0
22788235	1502	3	0	-100	0	230	101300000	1000	0	0	-1	0
22800795	1501	0	0	-100	0	230	101300000	1000	0	0	-1	0
22813355	1508	0	0	-100	0	230	101300000	1000	0	0	-1	0
22825915	1510	0	0	-100	0	230	101300000	1000	0	0	-1	0
22838475	1507	0	0	-100	0	230	101300000	1000	0	0	-1	0
22851035	1503	0	0	-100	0	230	101300000	1000	0	0	-1	0
22863595	1503	0	0	-100	0	230	101300000	1000	0	0	-1	0
22876155	1504	0	0	-100	0	230	101300000	1000	0	0	-1	0
22888715	1502	0	0	-100	0	230	101300000	1000	0	0	-1	0
22901275	1504	0	0	-100	0	230	101300000	1000	0	0	-1	0
22913835	1502	0	0	-100	0	230	101300000	1000	0	0	-1	0
22926395	1499	0	0	-100	0	230	101300000	1000	0	0	-1	0
22938955	1499	0	0	-100	0	230	101300000	1000	0	0	-1	0
22951515	1503	0	0	-100	0	230	101300000	1000	0	0	-1	0
22964075	1505	2	0	-100	0	230	101300000	1000	0	0	-1	0
22976635	1500	1	0	-100	0	230	101300000	1000	0	0	-1	0
22989195	1500	0	0	-100	0	230	101300000	1000	0	0	-1	0
23001755	1503	0	0	-100	0	230	101300000	1000	0	0	-1	0
23014315	1505	0	0	-100	0	230	101300000	1000	0	0	-1	0
23026875	1505	0	0	-100	0	230	101300000	1000	0	0	-1	0
23039435	1510	0	0	-100	0	230	101300000	1000	0	0	-1	0
23051995	1505	3	0	-100	0	230	101300000	1000	0	0	-1	0
23064555	1510	0	0	-100	0	230	101300000	1000	0	0	-1	0
23077115	1507	0	0	-100	0	230	101300000	1000	0	0	-1	0
23089675	1505	0	0	-100	0	230	101300000	1000	0	0	-1	0
23102235	1500	0	0	-100	0	230	101300000	1000	0	0	-1	0
23114795	1503	3	0	-100	0	230	101300000	1000	0	0	-1	0
23127355	1503	2	0	-100	0	230	101300000	1000	0	0	-1	0
23139915	1501	1	0	-100	0	230	101300000	1000	0	0	-1	0
23152475	1501	0	0	-100	0	230	101300000	1000	0	0	-1	0
23165035	1503	1	0	-100	0	230	101300000	1000	0	0	-1	0
23177595	1501	2	0	-100	0	230	101300000	1000	0	0	-1	0
23190155	1500	4	0	-100	0	230	101300000	1000	0	0	-1	0
23202715	1506	3	0	-100	0	230	101300000	1000	0	0	-1	0
23215275	1503	2	0	-100	0	230	101300000	1000	0	0	-1	0
23227835	1501	3	0	-100	0	230	101300000	1000	0	0	-1	0
23240395	1503	3	0	-100	0	230	101300000	1000	0	0	-1	0
23252955	1498	1	0	-100	0	230	101300000	1000	0	0	-1	0
23265515	1505	0	0	-100	0	230	101300000	1000	0	0	-1	0
23278075	1511	0	0	-100	0	230	101300000	1000	0	0	-1	0
23290635	1507	0	0	-100	0	230	101300000	1000	0	0	-1	0
23303195	1510	0	0	-100	0	230	101300000	1000	0	0	-1	0
23315755	1508	0	0	-100	0	230	101300000	1000	0	0	-1	0
23328315	1507	0	0	-100	0	230	101300000	1000	0	0	-1	0
23340875	1507	0	0	-100	0	230	101300000	1000	0	0	-1	0
23353435	1503	0	0	-100	0	230	101300000	1000	0	0	-1	0
23365995	1500	0	0	-100	0	230	101300000	1000	0	0	-1	0
23378555	1505	0	0	-100	0	230	101300000	1000	0	0	-1	0
23391115	1497	3	0	-100	0	230	101300000	1000	0	0	-1	0
23403675	1506	0	0	-100	0	230	101300000	1000	0	0	-1	0
23416235	1508	0	0	-100	0	230	101300000	1000	0	0	-1	0
23428795	1505	0	0	-100	0	230	101300000	1000	0	0	-1	0
23441355	1505	0	0	-100	0	230	101300000	1000	0	0	-1	0
23453915	1504	0	0	-100	0	230	101300000	1000	0	0	-1	0
23466475	1505	0	0	-100	0	230	101300000	1000	0	0	-1	0
23479035	1502	0	0	-100	0	230	101300000	1000	0	0	-1	0
23491595	1500	0	0	-100	0	230	101300000	1000	0	0	-1	0
23504155	1497	0	0	-100	0	230	101300000	1000	0	0	-1	0
23516715	1499	0	0	-100	0	230	101300000	1000	0	0	-1	0
23529275	1503	0	0	-100	0	230	101300000	1000	0	0	-1	0
23541835	1507	0	0	-100	0	230	101300000	1000	0	0	-1	0
23554395	1505	0	0	-100	0	230	101300000	1000	0	0	-1	0
23566955	1503	3	0	-100	0	230	101300000	1000	0	0	-1	0
23579515	1502	1	0	-100	0	230	101300000	1000	0	0	-1	0
23592075	1501	0	0	-100	0	230	101300000	1000	0	0	-1	0
23604635	1505	0	0	-100	0	230	101300000	1000	0	0	-1	0
23617195	1503	0	0	-100	0	230	101300000	1000	0	0	-1	0
23629755	1506	0	0	-100	0	230	101300000	1000	0	0	-1	0
23642315	1510	0	0	-100	0	230	101300000	1000	0	0	-1	0
23654875	1510	0	0	-100	0	230	101300000	1000	0	0	-1	0
23667435	1508	0	0	-100	0	230	101300000	1000	0	0	-1	0
23679995	1510	2	0	-100	0	230	101300000	1000	0	0	-1	0
23692555	1507	0	0	-100	0	230	101300000	1000	0	0	-1	0
23705115	1508	0	0	-100	0	230	101300000	1000	0	0	-1	0
23717675	1507	0	0	-100	0	230	101300000	1000	0	0	-1	0
23730235	1507	0	0	-100	0	230	101300000	1000	0	0	-1	0
23742795	1507	0	0	-100	0	230	101300000	1000	0	0	-1	0
23755355	1508	0	0	-100	0	230	101300000	1000	0	0	-1	0
23767915	1509	0	0	-100	0	230	101300000	1000	0	0	-1	0
23780475	1510	0	0	-100	0	230	101300000	1000	0	0	-1	0
23793035	1508	0	0	-100	0	230	101300000	1000	0	0	-1	0
23805595	1507	0	0	-100	0	230	101300000	1000	0	0	-1	0
23818155	1502	0	0	-100	0	230	101300000	1000	0	0	-1	0
23830715	1501	0	0	-100	0	230	101300000	1000	0	0	-1	0
23843275	1502	3	0	-100	0	230	101300000	1000	0	0	-1	0
23855835	1500	2	0	-100	0	230	101300000	1000	0	0	-1	0
23868395	1504	0	0	-100	0	230	101300000	1000	0	0	-1	0
23880955	1505	1	0	-100	0	230	101300000	1000	0	0	-1	0
23893515	1502	0	0	-100	0	230	101300000	1000	0	0	-1	0
23906075	1505	0	0	-100	0	230	101300000	1000	0	0	-1	0
23918635	1508	0	0	-100	0	230	101300000	1000	0	0	-1	0
23931195	1504	0	0	-100	0	230	101300000	1000	0	0	-1	0
23943755	1508	0	0	-100	0	230	101300000	1000	0	0	-1	0
23956315	1503	0	0	-100	0	230	101300000	1000	0	0	-1	0
23968875	1501	1	0	-100	0	230	101300000	1000	0	0	-1	0
23981435	1503	1	0	-100	0	230	101300000	1000	0	0	-1	0
23993995	1501	0	0	-100	0	230	101300000	1000	0	0	-1	0
24006555	1502	0	0	-100	0	230	101300000	1000	0	0	-1	0
24019115	1503	0	0	-100	0	230	101300000	1000	0	0	-1	0
24031675	1505	0	0	-100	0	230	101300000	1000	0	0	-1	0
24044235	1503	0	0	-100	0	230	101300000	1000	0	0	-1	0
24056795	1506	0	0	-100	0	230	101300000	1000	0	0	-1	0
24069355	1505	0	0	-100	0	230	101300000	1000	0	0	-1	0
24081915	1504	0	0	-100	0	230	101300000	1000	0	0	-1	0
24094475	1503	0	0	-100	0	230	101300000	1000	0	0	-1	0
24107035	1505	0	0	-100	0	230	101300000	1000	0	0	-1	0
24119595	1504	0	0	-100	0	230	101300000	1000	0	0	-1	0
24132155	1502	0	0	-100	0	230	101300000	1000	0	0	-1	0
24144715	1509	0	0	-100	0	230	101300000	1000	0	0	-1	0
24157275	1507	0	0	-100	0	230	101300000	1000	0	0	-1	0
24169835	1507	0	0	-100	0	230	101300000	1000	0	0	-1	0
24182395	1510	0	0	-100	0	230	101300000	1000	0	0	-1	0
24194955	1508	0	0	-100	0	230	101300000	1000	0	0	-1	0
24207515	1506	0	0	-100	0	230	101300000	1000	0	0	-1	0
24220075	1512	0	0	-100	0	230	101300000	1000	0	0	-1	0
24232635	1507	0	0	-100	0	230	101300000	1000	0	0	-1	0
24245195	1509	0	0	-100	0	230	101300000	1000	0	0	-1	0
24257755	1510	0	0	-100	0	230	101300000	1000	0	0	-1	0
24270315	1508	0	0	-100	0	230	101300000	1000	0	0	-1	0
24282875	1508	0	0	-100	0	230	101300000	1000	0	0	-1	0
24295435	1503	0	0	-100	0	230	101300000	1000	0	0	-1	0
24307995	1505	0	0	-100	0	230	101300000	1000	0	0	-1	0
24320555	1508	0	0	-100	0	230	101300000	1000	0	0	-1	0
24333115	1508	0	0	-100	0	230	101300000	1000	0	0	-1	0
24345675	1510	0	0	-100	0	230	101300000	1000	0	0	-1	0
24358235	1509	0	0	-100	0	230	101300000	1000	0	0	-1	0
24370795	1510	0	0	-100	0	230	101300000	1000	0	0	-1	0
24383355	1509	0	0	-100	0	230	101300000	1000	0	0	-1	0
24395915	1507	0	0	-100	0	230	101300000	1000	0	0	-1	0
24408475	1497	0	0	-100	0	230	101300000	1000	0	0	-1	0
24421035	1505	4	0	-100	0	230	101300000	1000	0	0	-1	0
24433595	1498	0	0	-100	0	230	101300000	1000	0	0	-1	0
24446155	1502	0	0	-100	0	230	101300000	1000	0	0	-1	0
24458715	1510	0	0	-100	0	230	101300000	1000	0	0	-1	0
24471275	1507	0	0	-100	0	230	101300000	1000	0	0	-1	0
24483835	1505	0	0	-100	0	230	101300000	1000	0	0	-1	0
24496395	1502	0	0	-100	0	230	101300000	1000	0	0	-1	0
24508955	1503	3	0	-100	0	230	101300000	1000	0	0	-1	0
24521515	1505	0	0	-100	0	230	101300000	1000	0	0	-1	0
24534075	1507	0	0	-100	0	230	101300000	1000	0	0	-1	0
24546635	1508	0	0	-100	0	230	101300000	1000	0	0	-1	0
24559195	1503	0	0	-100	0	230	101300000	1000	0	0	-1	0
24571755	1499	0	0	-100	0	230	101300000	1000	0	0	-1	0
24584315	1507	0	0	-100	0	230	101300000	1000	0	0	-1	0
24596875	1503	1	0	-100	0	230	101300000	1000	0	0	-1	0
24609435	1506	0	0	-100	0	230	101300000	1000	0	0	-1	0
24621995	1512	3	0	-100	0	230	101300000	1000	0	0	-1	0
24634555	1502	0	0	-100	0	230	101300000	1000	0	0	-1	0
24647115	1507	0	0	-100	0	230	101300000	1000	0	0	-1	0
24659675	1503	2	0	-100	0	230	101300000	1000	0	0	-1	0
24672235	1503	0	0	-100	0	230	101300000	1000	0	0	-1	0
24684795	1510	0	0	-100	0	230	101300000	1000	0	0	-1	0
24697355	1507	0	0	-100	0	230	101300000	1000	0	0	-1	0
24709915	1507	0	0	-100	0	230	101300000	1000	0	0	-1	0
24722475	1506	0	0	-100	0	230	101300000	1000	0	0	-1	0
24735035	1505	2	0	-100	0	230	101300000	1000	0	0	-1	0
24747595	1500	1	0	-100	0	230	101300000	1000	0	0	-1	0
24760155	1506	0	0	-100	0	230	101300000	1000	0	0	-1	0
24772715	1506	0	0	-100	0	230	101300000	1000	0	0	-1	0
24785275	1504	0	0	-100	0	230	101300000	1000	0	0	-1	0
24797835	1502	3	0	-100	0	230	101300000	1000	0	0	-1	0
24810395	1505	0	0	-100	0	230	101300000	1000	0	0	-1	0
24822955	1510	0	0	-100	0	230	101300000	1000	0	0	-1	0
24835515	1502	0	0	-100	0	230	101300000	1000	0	0	-1	0
24848075	1503	2	0	-100	0	230	101300000	1000	0	0	-1	0
24860635	1509	0	0	-100	0	230	101300000	1000	0	0	-1	0
24873195	1507	0	0	-100	0	230	101300000	1000	0	0	-1	0
24885755	1503	0	0	-100	0	230	101300000	1000	0	0	-1	0
24898315	1500	0	0	-100	0	230	101300000	1000	0	0	-1	0
24910875	1505	0	0	-100	0	230	101300000	1000	0	0	-1	0
24923435	1510	0	0	-100	0	230	101300000	1000	0	0	-1	0
24935995	1504	0	0	-100	0	230	101300000	1000	0	0	-1	0
24948555	1506	0	0	-100	0	230	101300000	1000	0	0	-1	0
24961115	1510	0	0	-100	0	230	101300000	1000	0	0	-1	0
24973675	1500	0	0	-100	0	230	101300000	1000	0	0	-1	0
24986235	1501	1	0	-100	0	230	101300000	1000	0	0	-1	0
24998795	1505	0	0	-100	0	230	101300000	1000	0	0	-1	0
25011355	1508	0	0	-100	0	230	101300000	1000	0	0	-1	0
25023915	1503	0	0	-100	0	230	101300000	1000	0	0	-1	0
25036475	1502	0	0	-100	0	230	101300000	1000	0	0	-1	0
25049035	1501	2	0	-100	0	230	101300000	1000	0	0	-1	0
25061595	1503	0	0	-100	0	230	101300000	1000	0	0	-1	0
25074155	1506	0	0	-100	0	230	101300000	1000	0	0	-1	0
25086715	1509	0	0	-100	0	230	101300000	1000	0	0	-1	0
25099275	1507	0	0	-100	0	230	101300000	1000	0	0	-1	0
25111835	1502	0	0	-100	0	230	101300000	1000	0	0	-1	0
25124395	1503	0	0	-100	0	230	101300000	1000	0	0	-1	0
25136955	1502	3	0	-100	0	230	101300000	1000	0	0	-1	0
25149515	1501	0	0	-100	0	230	101300000	1000	0	0	-1	0
25162075	1503	0	0	-100	0	230	101300000	1000	0	0	-1	0
25174635	1508	0	0	-100	0	230	101300000	1000	0	0	-1	0
25187195	1508	0	0	-100	0	230	101300000	1000	0	0	-1	0
25199755	1502	0	0	-100	0	230	101300000	1000	0	0	-1	0
25212315	1500	0	0	-100	0	230	101300000	1000	0	0	-1	0
25224875	1504	0	0	-100	0	230	101300000	1000	0	0	-1	0
25237435	1503	3	0	-100	0	230	101300000	1000	0	0	-1	0
25249995	1503	0	0	-100	0	230	101300000	1000	0	0	-1	0
25262555	1500	2	0	-100	0	230	101300000	1000	0	0	-1	0
25275115	1500	0	0	-100	0	230	101300000	1000	0	0	-1	0
25287675	1503	0	0	-100	0	230	101300000	1000	0	0	-1	0
25300235	1505	0	0	-100	0	230	101300000	1000	0	0	-1	0
25312795	1498	0	0	-100	0	230	101300000	1000	0	0	-1	0
25325355	1503	0	0	-100	0	230	101300000	1000	0	0	-1	0
25337915	1503	1	0	-100	0	230	101300000	1000	0	0	-1	0
25350475	1503	2	0	-100	0	230	101300000	1000	0	0	-1	0
25363035	1502	4	0	-100	0	230	101300000	1000	0	0	-1	0
25375595	1501	0	0	-100	0	230	101300000	1000	0	0	-1	0
25388155	1499	3	0	-100	0	230	101300000	1000	0	0	-1	0
25400715	1503	2	0	-100	0	230	101300000	1000	0	0	-1	0
25413275	1501	1	0	-100	0	230	101300000	1000	0	0	-1	0
25425835	1503	0	0	-100	0	230	101300000	1000	0	0	-1	0
25438395	1505	0	0	-100	0	230	101300000	1000	0	0	-1	0
25450955	1510	0	0	-100	0	230	101300000	1000	0	0	-1	0
25463515	1512	0	0	-100	0	230	101300000	1000	0	0	-1	0
25476075	1510	0	0	-100	0	230	101300000	1000	0	0	-1	0
25488635	1503	0	0	-100	0	230	101300000	1000	0	0	-1	0
25501195	1502	0	0	-100	0	230	101300000	1000	0	0	-1	0
25513755	1497	0	0	-100	0	230	101300000	1000	0	0	-1	0
25526315	1503	3	0	-100	0	230	101300000	1000	0	0	-1	0
25538875	1500	3	0	-100	0	230	101300000	1000	0	0	-1	0
25551435	1500	1	0	-100	0	230	101300000	1000	0	0	-1	0
25563995	1506	0	0	-100	0	230	101300000	1000	0	0	-1	0
25576555	1507	0	0	-100	0	230	101300000	1000	0	0	-1	0
25589115	1507	0	0	-100	0	230	101300000	1000	0	0	-1	0
25601675	1502	0	0	-100	0	230	101300000	1000	0	0	-1	0
25614235	1500	2	0	-100	0	230	101300000	1000	0	0	-1	0
25626795	1503	0	0	-100	0	230	101300000	1000	0	0	-1	0
25639355	1508	0	0	-100	0	230	101300000	1000	0	0	-1	0
25651915	1507	0	0	-100	0	230	101300000	1000	0	0	-1	0
25664475	1510	0	0	-100	0	230	101300000	1000	0	0	-1	0
25677035	1503	0	0	-100	0	230	101300000	1000	0	0	-1	0
25689595	1499	0	0	-100	0	230	101300000	1000	0	0	-1	0
25702155	1500	4	0	-100	0	230	101300000	1000	0	0	-1	0
25714715	1500	0	0	-100	0	230	101300000	1000	0	0	-1	0
25727275	1502	0	0	-100	0	230	101300000	1000	0	0	-1	0
25739835	1506	0	0	-100	0	230	101300000	1000	0	0	-1	0
25752395	1503	0	0	-100	0	230	101300000	1000	0	0	-1	0
25764955	1505	0	0	-100	0	230	101300000	1000	0	0	-1	0
25777515	1506	0	0	-100	0	230	101300000	1000	0	0	-1	0
25790075	1508	0	0	-100	0	230	101300000	1000	0	0	-1	0
25802635	1510	0	0	-100	0	230	101300000	1000	0	0	-1	0
25815195	1505	0	0	-100	0	230	101300000	1000	0	0	-1	0
25827755	1507	0	0	-100	0	230	101300000	1000	0	0	-1	0
25840315	1506	0	0	-100	0	230	101300000	1000	0	0	-1	0
25852875	1502	0	0	-100	0	230	101300000	1000	0	0	-1	0
25865435	1505	0	0	-100	0	230	101300000	1000	0	0	-1	0
25877995	1502	0	0	-100	0	230	101300000	1000	0	0	-1	0
25890555	1503	0	0	-100	0	230	101300000	1000	0	0	-1	0
25903115	1503	2	0	-100	0	230	101300000	1000	0	0	-1	0
25915675	1501	1	0	-100	0	230	101300000	1000	0	0	-1	0
25928235	1505	0	0	-100	0	230	101300000	1000	0	0	-1	0
25940795	1505	0	0	-100	0	230	101300000	1000	0	0	-1	0
25953355	1503	0	0	-100	0	230	101300000	1000	0	0	-1	0
25965915	1504	0	0	-100	0	230	101300000	1000	0	0	-1	0
25978475	1501	3	0	-100	0	230	101300000	1000	0	0	-1	0
25991035	1500	2	0	-100	0	230	101300000	1000	0	0	-1	0
26003595	1502	1	0	-100	0	230	101300000	1000	0	0	-1	0
26016155	1497	2	0	-100	0	230	101300000	1000	0	0	-1	0
26028715	1502	0	0	-100	0	230	101300000	1000	0	0	-1	0
26041275	1508	0	0	-100	0	230	101300000	1000	0	0	-1	0
26053835	1503	0	0	-100	0	230	101300000	1000	0	0	-1	0
26066395	1510	0	0	-100	0	230	101300000	1000	0	0	-1	0
26078955	1508	0	0	-100	0	230	101300000	1000	0	0	-1	0
26091515	1508	0	0	-100	0	230	101300000	1000	0	0	-1	0
26104075	1508	0	0	-100	0	230	101300000	1000	0	0	-1	0
26116635	1505	0	0	-100	0	230	101300000	1000	0	0	-1	0
26129195	1503	0	0	-100	0	230	101300000	1000	0	0	-1	0
26141755	1502	0	0	-100	0	230	101300000	1000	0	0	-1	0
26154315	1500	0	0	-100	0	230	101300000	1000	0	0	-1	0
26166875	1505	3	0	-100	0	230	101300000	1000	0	0	-1	0
26179435	1506	3	0	-100	0	230	101300000	1000	0	0	-1	0
26191995	1504	0	0	-100	0	230	101300000	1000	0	0	-1	0
26204555	1503	0	0	-100	0	230	101300000	1000	0	0	-1	0
26217115	1506	0	0	-100	0	230	101300000	1000	0	0	-1	0
26229675	1506	0	0	-100	0	230	101300000	1000	0	0	-1	0
26242235	1505	0	0	-100	0	230	101300000	1000	0	0	-1	0
26254795	1503	3	0	-100	0	230	101300000	1000	0	0	-1	0
26267355	1506	0	0	-100	0	230	101300000	1000	0	0	-1	0
26279915	1510	0	0	-100	0	230	101300000	1000	0	0	-1	0
26292475	1507	0	0	-100	0	230	101300000	1000	0	0	-1	0
26305035	1500	0	0	-100	0	230	101300000	1000	0	0	-1	0
26317595	1501	1	0	-100	0	230	101300000	1000	0	0	-1	0
26330155	1499	0	0	-100	0	230	101300000	1000	0	0	-1	0
26342715	1504	0	0	-100	0	230	101300000	1000	0	0	-1	0
26355275	1500	0	0	-100	0	230	101300000	1000	0	0	-1	0
26367835	1503	0	0	-100	0	230	101300000	1000	0	0	-1	0
26380395	1510	0	0	-100	0	230	101300000	1000	0	0	-1	0
26392955	1508	0	0	-100	0	230	101300000	1000	0	0	-1	0
26405515	1503	0	0	-100	0	230	101300000	1000	0	0	-1	0
26418075	1503	2	0	-100	0	230	101300000	1000	0	0	-1	0
26430635	1498	0	0	-100	0	230	101300000	1000	0	0	-1	0
26443195	1507	0	0	-100	0	230	101300000	1000	0	0	-1	0
26455755	1505	0	0	-100	0	230	101300000	1000	0	0	-1	0
26468315	1503	3	0	-100	0	230	101300000	1000	0	0	-1	0
26480875	1504	0	0	-100	0	230	101300000	1000	0	0	-1	0
26493435	1505	0	0	-100	0	230	101300000	1000	0	0	-1	0
26505995	1503	0	0	-100	0	230	101300000	1000	0	0	-1	0
26518555	1500	1	0	-100	0	230	101300000	1000	0	0	-1	0
26531115	1508	0	0	-100	0	230	101300000	1000	0	0	-1	0
26543675	1502	0	0	-100	0	230	101300000	1000	0	0	-1	0
26556235	1500	3	0	-100	0	230	101300000	1000	0	0	-1	0
26568795	1505	0	0	-100	0	230	101300000	1000	0	0	-1	0
26581355	1510	0	0	-100	0	230	101300000	1000	0	0	-1	0
26593915	1505	0	0	-100	0	230	101300000	1000	0	0	-1	0
26606475	1504	0	0	-100	0	230	101300000	1000	0	0	-1	0
26619035	1500	0	0	-100	0	230	101300000	1000	0	0	-1	0
26631595	1505	0	0	-100	0	230	101300000	1000	0	0	-1	0
26644155	1507	0	0	-100	0	230	101300000	1000	0	0	-1	0
26656715	1503	0	0	-100	0	230	101300000	1000	0	0	-1	0
26669275	1503	0	0	-100	0	230	101300000	1000	0	0	-1	0
26681835	1503	2	0	-100	0	230	101300000	1000	0	0	-1	0
26694395	1500	0	0	-100	0	230	101300000	1000	0	0	-1	0
26706955	1510	0	0	-100	0	230	101300000	1000	0	0	-1	0
26719515	1508	0	0	-100	0	230	101300000	1000	0	0	-1	0
26732075	1503	0	0	-100	0	230	101300000	1000	0	0	-1	0
26769755	1504	3	0	-100	0	230	101300000	1000	0	0	-1	0
26782315	1505	4	0	-100	0	230	101300000	1000	0	0	-1	0
26794875	1502	4	0	-100	0	230	101300000	1000	0	0	-1	0
26807435	1506	3	0	-100	0	230	101300000	1000	0	0	-1	0
26819995	1503	0	0	-100	0	230	101300000	1000	0	0	-1	0
26832555	1497	1	0	-100	0	230	101300000	1000	0	0	-1	0
26845115	1503	0	0	-100	0	230	101300000	1000	0	0	-1	0
26857675	1507	0	0	-100	0	230	101300000	1000	0	0	-1	0
26870235	1507	0	0	-100	0	230	101300000	1000	0	0	-1	0
26882795	1507	0	0	-100	0	230	101300000	1000	0	0	-1	0
26895355	1501	0	0	-100	0	230	101300000	1000	0	0	-1	0
26907915	1502	4	0	-100	0	230	101300000	1000	0	0	-1	0
26920475	1501	0	0	-100	0	230	101300000	1000	0	0	-1	0
26933035	1503	0	0	-100	0	230	101300000	1000	0	0	-1	0
26945595	1510	0	0	-100	0	230	101300000	1000	0	0	-1	0
26958155	1502	0	0	-100	0	230	101300000	1000	0	0	-1	0
26970715	1503	0	0	-100	0	230	101300000	1000	0	0	-1	0
26983275	1505	3	0	-100	0	230	101300000	1000	0	0	-1	0
26995835	1501	0	0	-100	0	230	101300000	1000	0	0	-1	0
27008395	1506	0	0	-100	0	230	101300000	1000	0	0	-1	0
27020955	1508	0	0	-100	0	230	101300000	1000	0	0	-1	0
27033515	1507	0	0	-100	0	230	101300000	1000	0	0	-1	0
27046075	1505	0	0	-100	0	230	101300000	1000	0	0	-1	0
