timestamp	voltage	current	windSpeed	pitchAngle	rpm	temperature	ambientPressure	humidity	accelerationX	accelerationY	accelerationZ	currentSink
7038070	2004	0	0	-100	0	230	101300000	1000	0	0	-1	0
7045523	1998	0	0	-100	0	230	101300000	1000	0	0	-1	0
7058083	2006	0	0	-100	0	230	101300000	1000	0	0	-1	0
7070643	1999	0	0	-100	0	230	101300000	1000	0	0	-1	0
7083203	1997	4	0	-100	0	230	101300000	1000	0	0	-1	0
7095763	1999	0	0	-100	0	230	101300000	1000	0	0	-1	0
7108323	2005	0	0	-100	0	230	101300000	1000	0	0	-1	0
7120883	2003	0	0	-100	0	230	101300000	1000	0	0	-1	0
7133443	2004	0	0	-100	0	230	101300000	1000	0	0	-1	0
7146004	2004	0	0	-100	0	230	101300000	1000	0	0	-1	0
7158563	1995	4	0	-100	0	230	101300000	1000	0	0	-1	0
7171123	2002	4	0	-100	0	230	101300000	1000	0	0	-1	0
7183683	2003	4	0	-100	0	230	101300000	1000	0	0	-1	0
7196243	1998	0	0	-100	0	230	101300000	1000	0	0	-1	0
7208803	2001	0	0	-100	0	230	101300000	1000	0	0	-1	0
7221363	2004	0	0	-100	0	230	101300000	1000	0	0	-1	0
7233923	2003	0	0	-100	0	230	101300000	1000	0	0	-1	0
7246483	2007	0	0	-100	0	230	101300000	1000	0	0	-1	0
7259043	2005	0	0	-100	0	230	101300000	1000	0	0	-1	0
7271603	2003	0	0	-100	0	230	101300000	1000	0	0	-1	0
7284163	2011	0	0	-100	0	230	101300000	1000	0	0	-1	0
7296723	2004	0	0	-100	0	230	101300000	1000	0	0	-1	0
7309283	2005	0	0	-100	0	230	101300000	1000	0	0	-1	0
7321843	2005	0	0	-100	0	230	101300000	1000	0	0	-1	0
7334403	2004	0	0	-100	0	230	101300000	1000	0	0	-1	0
7346963	2009	0	0	-100	0	230	101300000	1000	0	0	-1	0
7690115	2001	4	0	-100	0	230	101300000	1000	0	0	-1	0
7702675	1997	3	0	-100	0	230	101300000	1000	0	0	-1	0
7715235	1997	3	0	-100	0	230	101300000	1000	0	0	-1	0
7727795	2001	4	0	-100	0	230	101300000	1000	0	0	-1	0
7740355	1998	3	0	-100	0	230	101300000	1000	0	0	-1	0
7752915	1999	3	0	-100	0	230	101300000	1000	0	0	-1	0
7765475	2002	4	0	-100	0	230	101300000	1000	0	0	-1	0
7778035	1998	0	0	-100	0	230	101300000	1000	0	0	-1	0
7790595	2007	0	0	-100	0	230	101300000	1000	0	0	-1	0
7803155	2008	0	0	-100	0	230	101300000	1000	0	0	-1	0
7815715	2001	0	0	-100	0	230	101300000	1000	0	0	-1	0
7828275	2006	0	0	-100	0	230	101300000	1000	0	0	-1	0
7840835	2004	0	0	-100	0	230	101300000	1000	0	0	-1	0
7853395	2004	0	0	-100	0	230	101300000	1000	0	0	-1	0
7865955	2008	0	0	-100	0	230	101300000	1000	0	0	-1	0
7878515	2003	0	0	-100	0	230	101300000	1000	0	0	-1	0
7891075	2008	0	0	-100	0	230	101300000	1000	0	0	-1	0
7903635	2005	0	0	-100	0	230	101300000	1000	0	0	-1	0
7916195	2004	0	0	-100	0	230	101300000	1000	0	0	-1	0
7928755	2001	0	0	-100	0	230	101300000	1000	0	0	-1	0
7941315	1999	0	0	-100	0	230	101300000	1000	0	0	-1	0
7953875	2000	6	0	-100	0	230	101300000	1000	0	0	-1	0
7966435	1998	3	0	-100	0	230	101300000	1000	0	0	-1	0
7978995	1999	0	0	-100	0	230	101300000	1000	0	0	-1	0
7991555	2002	0	0	-100	0	230	101300000	1000	0	0	-1	0
8004115	2004	0	0	-100	0	230	101300000	1000	0	0	-1	0
8016675	2003	0	0	-100	0	230	101300000	1000	0	0	-1	0
8029235	2003	0	0	-100	0	230	101300000	1000	0	0	-1	0
8041795	2001	0	0	-100	0	230	101300000	1000	0	0	-1	0
8054355	1998	0	0	-100	0	230	101300000	1000	0	0	-1	0
8066915	1998	0	0	-100	0	230	101300000	1000	0	0	-1	0
8079475	1999	0	0	-100	0	230	101300000	1000	0	0	-1	0
8092035	1999	4	0	-100	0	230	101300000	1000	0	0	-1	0
8104595	1999	4	0	-100	0	230	101300000	1000	0	0	-1	0
8117155	2001	2	0	-100	0	230	101300000	1000	0	0	-1	0
8129715	2001	0	0	-100	0	230	101300000	1000	0	0	-1	0
8142275	2006	0	0	-100	0	230	101300000	1000	0	0	-1	0
8154835	2004	0	0	-100	0	230	101300000	1000	0	0	-1	0
8167395	2005	0	0	-100	0	230	101300000	1000	0	0	-1	0
8179955	2003	0	0	-100	0	230	101300000	1000	0	0	-1	0
8192515	1999	0	0	-100	0	230	101300000	1000	0	0	-1	0
8205075	1998	0	0	-100	0	230	101300000	1000	0	0	-1	0
8217635	1999	4	0	-100	0	230	101300000	1000	0	0	-1	0
8230195	1999	4	0	-100	0	230	101300000	1000	0	0	-1	0
8242755	2000	3	0	-100	0	230	101300000	1000	0	0	-1	0
8255315	1997	3	0	-100	0	230	101300000	1000	0	0	-1	0
8267875	1999	4	0	-100	0	230	101300000	1000	0	0	-1	0
8280435	1997	3	0	-100	0	230	101300000	1000	0	0	-1	0
8292995	1996	0	0	-100	0	230	101300000	1000	0	0	-1	0
8305555	2000	1	0	-100	0	230	101300000	1000	0	0	-1	0
8318115	1997	2	0	-100	0	230	101300000	1000	0	0	-1	0
8330675	1998	3	0	-100	0	230	101300000	1000	0	0	-1	0
8343235	2000	3	0	-100	0	230	101300000	1000	0	0	-1	0
8355795	1997	3	0	-100	0	230	101300000	1000	0	0	-1	0
8368355	1999	3	0	-100	0	230	101300000	1000	0	0	-1	0
8380915	1999	4	0	-100	0	230	101300000	1000	0	0	-1	0
8393475	1997	3	0	-100	0	230	101300000	1000	0	0	-1	0
8406035	1996	0	0	-100	0	230	101300000	1000	0	0	-1	0
8418595	1998	3	0	-100	0	230	101300000	1000	0	0	-1	0
8431155	2007	0	0	-100	0	230	101300000	1000	0	0	-1	0
8443715	2001	0	0	-100	0	230	101300000	1000	0	0	-1	0
8456275	2007	0	0	-100	0	230	101300000	1000	0	0	-1	0
8468835	2008	0	0	-100	0	230	101300000	1000	0	0	-1	0
8481395	2002	0	0	-100	0	230	101300000	1000	0	0	-1	0
8493955	2001	0	0	-100	0	230	101300000	1000	0	0	-1	0
8506515	2000	0	0	-100	0	230	101300000	1000	0	0	-1	0
8519075	1999	4	0	-100	0	230	101300000	1000	0	0	-1	0
8531635	2001	4	0	-100	0	230	101300000	1000	0	0	-1	0
8544195	2000	1	0	-100	0	230	101300000	1000	0	0	-1	0
8556755	2005	0	0	-100	0	230	101300000	1000	0	0	-1	0
8569315	2008	0	0	-100	0	230	101300000	1000	0	0	-1	0
8581875	2002	0	0	-100	0	230	101300000	1000	0	0	-1	0
8594435	1998	0	0	-100	0	230	101300000	1000	0	0	-1	0
8606995	1999	0	0	-100	0	230	101300000	1000	0	0	-1	0
8619555	2001	2	0	-100	0	230	101300000	1000	0	0	-1	0
8707475	2004	0	0	-100	0	230	101300000	1000	0	0	-1	0
8720035	2002	0	0	-100	0	230	101300000	1000	0	0	-1	0
8732595	2004	0	0	-100	0	230	101300000	1000	0	0	-1	0
8745155	2010	0	0	-100	0	230	101300000	1000	0	0	-1	0
8757715	2004	0	0	-100	0	230	101300000	1000	0	0	-1	0
8770275	2005	0	0	-100	0	230	101300000	1000	0	0	-1	0
8782835	2004	0	0	-100	0	230	101300000	1000	0	0	-1	0
8795395	2000	0	0	-100	0	230	101300000	1000	0	0	-1	0
8807955	2002	0	0	-100	0	230	101300000	1000	0	0	-1	0
8820515	1997	0	0	-100	0	230	101300000	1000	0	0	-1	0
8833075	2000	2	0	-100	0	230	101300000	1000	0	0	-1	0
8845635	2004	2	0	-100	0	230	101300000	1000	0	0	-1	0
8858195	1996	2	0	-100	0	230	101300000	1000	0	0	-1	0
8870755	1999	1	0	-100	0	230	101300000	1000	0	0	-1	0
8883315	1999	0	0	-100	0	230	101300000	1000	0	0	-1	0
8895875	2006	0	0	-100	0	230	101300000	1000	0	0	-1	0
8908435	2003	0	0	-100	0	230	101300000	1000	0	0	-1	0
8920995	2001	0	0	-100	0	230	101300000	1000	0	0	-1	0
8933555	2000	0	0	-100	0	230	101300000	1000	0	0	-1	0
8946115	1999	0	0	-100	0	230	101300000	1000	0	0	-1	0
8958675	1997	0	0	-100	0	230	101300000	1000	0	0	-1	0
8971235	2002	0	0	-100	0	230	101300000	1000	0	0	-1	0
8983795	2002	4	0	-100	0	230	101300000	1000	0	0	-1	0
8996355	1997	3	0	-100	0	230	101300000	1000	0	0	-1	0
9008915	1999	1	0	-100	0	230	101300000	1000	0	0	-1	0
9021475	1999	1	0	-100	0	230	101300000	1000	0	0	-1	0
9034035	1999	0	0	-100	0	230	101300000	1000	0	0	-1	0
9046595	2002	0	0	-100	0	230	101300000	1000	0	0	-1	0
9059155	2005	0	0	-100	0	230	101300000	1000	0	0	-1	0
9071715	1998	1	0	-100	0	230	101300000	1000	0	0	-1	0
9084275	1999	1	0	-100	0	230	101300000	1000	0	0	-1	0
9096835	1997	3	0	-100	0	230	101300000	1000	0	0	-1	0
9109395	1999	4	0	-100	0	230	101300000	1000	0	0	-1	0
9121955	2000	4	0	-100	0	230	101300000	1000	0	0	-1	0
9134515	1997	4	0	-100	0	230	101300000	1000	0	0	-1	0
9147075	2001	4	0	-100	0	230	101300000	1000	0	0	-1	0
9159635	1991	2	0	-100	0	230	101300000	1000	0	0	-1	0
9172195	1999	1	0	-100	0	230	101300000	1000	0	0	-1	0
9184755	2002	0	0	-100	0	230	101300000	1000	0	0	-1	0
9197315	1997	0	0	-100	0	230	101300000	1000	0	0	-1	0
9209875	1999	2	0	-100	0	230	101300000	1000	0	0	-1	0
9222435	1996	4	0	-100	0	230	101300000	1000	0	0	-1	0
9234995	1997	0	0	-100	0	230	101300000	1000	0	0	-1	0
9247555	2001	3	0	-100	0	230	101300000	1000	0	0	-1	0
9260115	1997	3	0	-100	0	230	101300000	1000	0	0	-1	0
9272675	1997	3	0	-100	0	230	101300000	1000	0	0	-1	0
9285235	2002	4	0	-100	0	230	101300000	1000	0	0	-1	0
9297795	1999	4	0	-100	0	230	101300000	1000	0	0	-1	0
9310355	2002	4	0	-100	0	230	101300000	1000	0	0	-1	0
9322915	1999	0	0	-100	0	230	101300000	1000	0	0	-1	0
9335475	1997	0	0	-100	0	230	101300000	1000	0	0	-1	0
9348035	2001	0	0	-100	0	230	101300000	1000	0	0	-1	0
9360595	2001	0	0	-100	0	230	101300000	1000	0	0	-1	0
9373155	2012	0	0	-100	0	230	101300000	1000	0	0	-1	0
9385715	2006	0	0	-100	0	230	101300000	1000	0	0	-1	0
9398275	2004	0	0	-100	0	230	101300000	1000	0	0	-1	0
9410835	2006	0	0	-100	0	230	101300000	1000	0	0	-1	0
9423395	2005	0	0	-100	0	230	101300000	1000	0	0	-1	0
9435955	2003	0	0	-100	0	230	101300000	1000	0	0	-1	0
9448515	2006	0	0	-100	0	230	101300000	1000	0	0	-1	0
9461075	2007	0	0	-100	0	230	101300000	1000	0	0	-1	0
9473635	2004	0	0	-100	0	230	101300000	1000	0	0	-1	0
9486195	2004	0	0	-100	0	230	101300000	1000	0	0	-1	0
9498755	1998	0	0	-100	0	230	101300000	1000	0	0	-1	0
9511315	2001	0	0	-100	0	230	101300000	1000	0	0	-1	0
9523875	2001	0	0	-100	0	230	101300000	1000	0	0	-1	0
9536435	2001	0	0	-100	0	230	101300000	1000	0	0	-1	0
9548995	2001	0	0	-100	0	230	101300000	1000	0	0	-1	0
9561555	1996	0	0	-100	0	230	101300000	1000	0	0	-1	0
9574115	1996	0	0	-100	0	230	101300000	1000	0	0	-1	0
9586675	2001	0	0	-100	0	230	101300000	1000	0	0	-1	0
9599235	1999	0	0	-100	0	230	101300000	1000	0	0	-1	0
9611795	2000	0	0	-100	0	230	101300000	1000	0	0	-1	0
9624355	2001	0	0	-100	0	230	101300000	1000	0	0	-1	0
9636915	1999	1	0	-100	0	230	101300000	1000	0	0	-1	0
9649475	2001	4	0	-100	0	230	101300000	1000	0	0	-1	0
9662035	1996	3	0	-100	0	230	101300000	1000	0	0	-1	0
9674595	1999	4	0	-100	0	230	101300000	1000	0	0	-1	0
9687155	2005	3	0	-100	0	230	101300000	1000	0	0	-1	0
9699715	1997	0	0	-100	0	230	101300000	1000	0	0	-1	0
9712275	1999	0	0	-100	0	230	101300000	1000	0	0	-1	0
9724835	2001	0	0	-100	0	230	101300000	1000	0	0	-1	0
9737395	1999	0	0	-100	0	230	101300000	1000	0	0	-1	0
9749955	2005	0	0	-100	0	230	101300000	1000	0	0	-1	0
9762515	2004	0	0	-100	0	230	101300000	1000	0	0	-1	0
9775075	2004	0	0	-100	0	230	101300000	1000	0	0	-1	0
9787635	1999	0	0	-100	0	230	101300000	1000	0	0	-1	0
9800195	1997	2	0	-100	0	230	101300000	1000	0	0	-1	0
9812755	1998	0	0	-100	0	230	101300000	1000	0	0	-1	0
9825315	2004	0	0	-100	0	230	101300000	1000	0	0	-1	0
9837875	2005	0	0	-100	0	230	101300000	1000	0	0	-1	0
9850435	2001	2	0	-100	0	230	101300000	1000	0	0	-1	0
9862995	1999	0	0	-100	0	230	101300000	1000	0	0	-1	0
9875555	1999	0	0	-100	0	230	101300000	1000	0	0	-1	0
9888115	2007	0	0	-100	0	230	101300000	1000	0	0	-1	0
9900675	2006	0	0	-100	0	230	101300000	1000	0	0	-1	0
9913235	2001	0	0	-100	0	230	101300000	1000	0	0	-1	0
9925795	1999	1	0	-100	0	230	101300000	1000	0	0	-1	0
9938355	1997	4	0	-100	0	230	101300000	1000	0	0	-1	0
9950915	2002	0	0	-100	0	230	101300000	1000	0	0	-1	0
9963475	2004	0	0	-100	0	230	101300000	1000	0	0	-1	0
9976035	2006	0	0	-100	0	230	101300000	1000	0	0	-1	0
9988595	1999	1	0	-100	0	230	101300000	1000	0	0	-1	0
10001155	2004	0	0	-100	0	230	101300000	1000	0	0	-1	0
10013715	2004	0	0	-100	0	230	101300000	1000	0	0	-1	0
10026275	2005	0	0	-100	0	230	101300000	1000	0	0	-1	0
10038835	1997	0	0	-100	0	230	101300000	1000	0	0	-1	0
10051395	2000	3	0	-100	0	230	101300000	1000	0	0	-1	0
10063955	1997	0	0	-100	0	230	101300000	1000	0	0	-1	0
10076515	1999	0	0	-100	0	230	101300000	1000	0	0	-1	0
10089075	2006	0	0	-100	0	230	101300000	1000	0	0	-1	0
10101635	2004	0	0	-100	0	230	101300000	1000	0	0	-1	0
10114195	2004	0	0	-100	0	230	101300000	1000	0	0	-1	0
10126755	2002	0	0	-100	0	230	101300000	1000	0	0	-1	0
10139315	1997	4	0	-100	0	230	101300000	1000	0	0	-1	0
10151875	2004	0	0	-100	0	230	101300000	1000	0	0	-1	0
10164435	2008	0	0	-100	0	230	101300000	1000	0	0	-1	0
10176995	1994	0	0	-100	0	230	101300000	1000	0	0	-1	0
10189555	2001	0	0	-100	0	230	101300000	1000	0	0	-1	0
10202115	2001	0	0	-100	0	230	101300000	1000	0	0	-1	0
10214675	2004	0	0	-100	0	230	101300000	1000	0	0	-1	0
10227235	2004	0	0	-100	0	230	101300000	1000	0	0	-1	0
10239795	1996	3	0	-100	0	230	101300000	1000	0	0	-1	0
10252355	2001	0	0	-100	0	230	101300000	1000	0	0	-1	0
10264915	2005	0	0	-100	0	230	101300000	1000	0	0	-1	0
10277475	2000	0	0	-100	0	230	101300000	1000	0	0	-1	0
10290035	2001	5	0	-100	0	230	101300000	1000	0	0	-1	0
10302595	2002	0	0	-100	0	230	101300000	1000	0	0	-1	0
10315155	2008	0	0	-100	0	230	101300000	1000	0	0	-1	0
10327715	2006	0	0	-100	0	230	101300000	1000	0	0	-1	0
10340275	2004	0	0	-100	0	230	101300000	1000	0	0	-1	0
10352835	2001	2	0	-100	0	230	101300000	1000	0	0	-1	0
10365395	1999	1	0	-100	0	230	101300000	1000	0	0	-1	0
10377955	1996	4	0	-100	0	230	101300000	1000	0	0	-1	0
10390515	1999	0	0	-100	0	230	101300000	1000	0	0	-1	0
10403075	2003	0	0	-100	0	230	101300000	1000	0	0	-1	0
10415635	2003	0	0	-100	0	230	101300000	1000	0	0	-1	0
10428195	2002	0	0	-100	0	230	101300000	1000	0	0	-1	0
10440755	1997	3	0	-100	0	230	101300000	1000	0	0	-1	0
10453315	2001	0	0	-100	0	230	101300000	1000	0	0	-1	0
10465875	2007	0	0	-100	0	230	101300000	1000	0	0	-1	0
10478435	1999	4	0	-100	0	230	101300000	1000	0	0	-1	0
10490995	2003	0	0	-100	0	230	101300000	1000	0	0	-1	0
10503555	2005	0	0	-100	0	230	101300000	1000	0	0	-1	0
10516115	1994	2	0	-100	0	230	101300000	1000	0	0	-1	0
10528675	2000	3	0	-100	0	230	101300000	1000	0	0	-1	0
10541235	1999	0	0	-100	0	230	101300000	1000	0	0	-1	0
10553795	2004	0	0	-100	0	230	101300000	1000	0	0	-1	0
10566355	2005	0	0	-100	0	230	101300000	1000	0	0	-1	0
10578915	2000	0	0	-100	0	230	101300000	1000	0	0	-1	0
10591475	1999	1	0	-100	0	230	101300000	1000	0	0	-1	0
10742195	2001	0	0	-100	0	230	101300000	1000	0	0	-1	0
10754755	2001	0	0	-100	0	230	101300000	1000	0	0	-1	0
10767315	2004	0	0	-100	0	230	101300000	1000	0	0	-1	0
10779875	1999	0	0	-100	0	230	101300000	1000	0	0	-1	0
10792435	1999	3	0	-100	0	230	101300000	1000	0	0	-1	0
10804995	2002	0	0	-100	0	230	101300000	1000	0	0	-1	0
10817555	2005	0	0	-100	0	230	101300000	1000	0	0	-1	0
10830115	2001	3	0	-100	0	230	101300000	1000	0	0	-1	0
10842675	1999	0	0	-100	0	230	101300000	1000	0	0	-1	0
10855235	2000	0	0	-100	0	230	101300000	1000	0	0	-1	0
10867795	2007	0	0	-100	0	230	101300000	1000	0	0	-1	0
10880355	1997	1	0	-100	0	230	101300000	1000	0	0	-1	0
10892915	1998	0	0	-100	0	230	101300000	1000	0	0	-1	0
10905475	2006	0	0	-100	0	230	101300000	1000	0	0	-1	0
10918035	2001	0	0	-100	0	230	101300000	1000	0	0	-1	0
10930595	2001	0	0	-100	0	230	101300000	1000	0	0	-1	0
10943155	2005	0	0	-100	0	230	101300000	1000	0	0	-1	0
10955715	1997	3	0	-100	0	230	101300000	1000	0	0	-1	0
10968275	2003	2	0	-100	0	230	101300000	1000	0	0	-1	0
10980835	2000	0	0	-100	0	230	101300000	1000	0	0	-1	0
10993395	2005	0	0	-100	0	230	101300000	1000	0	0	-1	0
11005955	2002	0	0	-100	0	230	101300000	1000	0	0	-1	0
11018515	1996	4	0	-100	0	230	101300000	1000	0	0	-1	0
11031075	1999	0	0	-100	0	230	101300000	1000	0	0	-1	0
11043635	1998	0	0	-100	0	230	101300000	1000	0	0	-1	0
11056195	2006	0	0	-100	0	230	101300000	1000	0	0	-1	0
11068755	2002	0	0	-100	0	230	101300000	1000	0	0	-1	0
11081315	1999	4	0	-100	0	230	101300000	1000	0	0	-1	0
11093875	1995	0	0	-100	0	230	101300000	1000	0	0	-1	0
11106435	2004	0	0	-100	0	230	101300000	1000	0	0	-1	0
11118995	2004	3	0	-100	0	230	101300000	1000	0	0	-1	0
11131555	2001	1	0	-100	0	230	101300000	1000	0	0	-1	0
11144115	2000	2	0	-100	0	230	101300000	1000	0	0	-1	0
11156675	1997	3	0	-100	0	230	101300000	1000	0	0	-1	0
11169235	1999	3	0	-100	0	230	101300000	1000	0	0	-1	0
11181795	1998	0	0	-100	0	230	101300000	1000	0	0	-1	0
11194355	2002	0	0	-100	0	230	101300000	1000	0	0	-1	0
11206915	2005	0	0	-100	0	230	101300000	1000	0	0	-1	0
11219475	2005	0	0	-100	0	230	101300000	1000	0	0	-1	0
11232035	2002	0	0	-100	0	230	101300000	1000	0	0	-1	0
11244595	1997	1	0	-100	0	230	101300000	1000	0	0	-1	0
11257155	2001	0	0	-100	0	230	101300000	1000	0	0	-1	0
11269715	2002	0	0	-100	0	230	101300000	1000	0	0	-1	0
11282275	2006	0	0	-100	0	230	101300000	1000	0	0	-1	0
11294835	2001	0	0	-100	0	230	101300000	1000	0	0	-1	0
11307395	2002	4	0	-100	0	230	101300000	1000	0	0	-1	0
11319955	1999	0	0	-100	0	230	101300000	1000	0	0	-1	0
11332515	1999	0	0	-100	0	230	101300000	1000	0	0	-1	0
11345075	2006	0	0	-100	0	230	101300000	1000	0	0	-1	0
11357635	2004	0	0	-100	0	230	101300000	1000	0	0	-1	0
11370195	2006	0	0	-100	0	230	101300000	1000	0	0	-1	0
11382755	1999	2	0	-100	0	230	101300000	1000	0	0	-1	0
11395315	2001	4	0	-100	0	230	101300000	1000	0	0	-1	0
11407875	2000	0	0	-100	0	230	101300000	1000	0	0	-1	0
11420435	2003	0	0	-100	0	230	101300000	1000	0	0	-1	0
11432995	2002	1	0	-100	0	230	101300000	1000	0	0	-1	0
11445555	2007	0	0	-100	0	230	101300000	1000	0	0	-1	0
11458115	1999	3	0	-100	0	230	101300000	1000	0	0	-1	0
11470675	1999	4	0	-100	0	230	101300000	1000	0	0	-1	0
11483235	2002	0	0	-100	0	230	101300000	1000	0	0	-1	0
11495795	1998	0	0	-100	0	230	101300000	1000	0	0	-1	0
11508355	2001	0	0	-100	0	230	101300000	1000	0	0	-1	0
11520915	2003	0	0	-100	0	230	101300000	1000	0	0	-1	0
11533475	2006	0	0	-100	0	230	101300000	1000	0	0	-1	0
11546035	2002	0	0	-100	0	230	101300000	1000	0	0	-1	0
11558595	1996	2	0	-100	0	230	101300000	1000	0	0	-1	0
11571155	2004	0	0	-100	0	230	101300000	1000	0	0	-1	0
11583715	2004	0	0	-100	0	230	101300000	1000	0	0	-1	0
11596275	2005	0	0	-100	0	230	101300000	1000	0	0	-1	0
11608835	2001	0	0	-100	0	230	101300000	1000	0	0	-1	0
11621395	1997	2	0	-100	0	230	101300000	1000	0	0	-1	0
11633955	1999	5	0	-100	0	230	101300000	1000	0	0	-1	0
11646515	2001	0	0	-100	0	230	101300000	1000	0	0	-1	0
11659075	2002	0	0	-100	0	230	101300000	1000	0	0	-1	0
11671635	2008	0	0	-100	0	230	101300000	1000	0	0	-1	0
11684195	2001	3	0	-100	0	230	101300000	1000	0	0	-1	0
11696755	2001	1	0	-100	0	230	101300000	1000	0	0	-1	0
11709315	2002	0	0	-100	0	230	101300000	1000	0	0	-1	0
11721875	2001	0	0	-100	0	230	101300000	1000	0	0	-1	0
11734435	1999	0	0	-100	0	230	101300000	1000	0	0	-1	0
11746995	1999	0	0	-100	0	230	101300000	1000	0	0	-1	0
11759555	1996	0	0	-100	0	230	101300000	1000	0	0	-1	0
11772115	2004	0	0	-100	0	230	101300000	1000	0	0	-1	0
11784675	2005	0	0	-100	0	230	101300000	1000	0	0	-1	0
11797235	1997	0	0	-100	0	230	101300000	1000	0	0	-1	0
11809795	1999	4	0	-100	0	230	101300000	1000	0	0	-1	0
11822355	2002	0	0	-100	0	230	101300000	1000	0	0	-1	0
11834915	2005	0	0	-100	0	230	101300000	1000	0	0	-1	0
11847475	2005	0	0	-100	0	230	101300000	1000	0	0	-1	0
11860035	1999	0	0	-100	0	230	101300000	1000	0	0	-1	0
11872595	1997	2	0	-100	0	230	101300000	1000	0	0	-1	0
11885155	2008	0	0	-100	0	230	101300000	1000	0	0	-1	0
11897715	1996	0	0	-100	0	230	101300000	1000	0	0	-1	0
11910275	2005	0	0	-100	0	230	101300000	1000	0	0	-1	0
11922835	2004	0	0	-100	0	230	101300000	1000	0	0	-1	0
11935395	2007	0	0	-100	0	230	101300000	1000	0	0	-1	0
11947955	1999	0	0	-100	0	230	101300000	1000	0	0	-1	0
11960515	1998	3	0	-100	0	230	101300000	1000	0	0	-1	0
11973075	1999	0	0	-100	0	230	101300000	1000	0	0	-1	0
11985635	2000	0	0	-100	0	230	101300000	1000	0	0	-1	0
11998195	2001	0	0	-100	0	230	101300000	1000	0	0	-1	0
12010755	2007	0	0	-100	0	230	101300000	1000	0	0	-1	0
12023315	2006	0	0	-100	0	230	101300000	1000	0	0	-1	0
12035875	1996	2	0	-100	0	230	101300000	1000	0	0	-1	0
12048435	2001	4	0	-100	0	230	101300000	1000	0	0	-1	0
12060995	1999	0	0	-100	0	230	101300000	1000	0	0	-1	0
12073555	2002	0	0	-100	0	230	101300000	1000	0	0	-1	0
12086115	2006	0	0	-100	0	230	101300000	1000	0	0	-1	0
12098675	2000	0	0	-100	0	230	101300000	1000	0	0	-1	0
12111235	1999	4	0	-100	0	230	101300000	1000	0	0	-1	0
12123795	2001	0	0	-100	0	230	101300000	1000	0	0	-1	0
12136355	2007	0	0	-100	0	230	101300000	1000	0	0	-1	0
12148915	1999	4	0	-100	0	230	101300000	1000	0	0	-1	0
12161475	1999	0	0	-100	0	230	101300000	1000	0	0	-1	0
12174035	2001	0	0	-100	0	230	101300000	1000	0	0	-1	0
12186595	2004	0	0	-100	0	230	101300000	1000	0	0	-1	0
12199155	2009	0	0	-100	0	230	101300000	1000	0	0	-1	0
12211715	2008	0	0	-100	0	230	101300000	1000	0	0	-1	0
12224275	2005	0	0	-100	0	230	101300000	1000	0	0	-1	0
12236835	1997	1	0	-100	0	230	101300000	1000	0	0	-1	0
12249395	1999	4	0	-100	0	230	101300000	1000	0	0	-1	0
12261955	2000	4	0	-100	0	230	101300000	1000	0	0	-1	0
12274515	1995	0	0	-100	0	230	101300000	1000	0	0	-1	0
12287075	2007	0	0	-100	0	230	101300000	1000	0	0	-1	0
12299635	2004	0	0	-100	0	230	101300000	1000	0	0	-1	0
12312195	2000	0	0	-100	0	230	101300000	1000	0	0	-1	0
12324755	1996	3	0	-100	0	230	101300000	1000	0	0	-1	0
12337315	1997	4	0	-100	0	230	101300000	1000	0	0	-1	0
12349875	2002	2	0	-100	0	230	101300000	1000	0	0	-1	0
12362435	1998	0	0	-100	0	230	101300000	1000	0	0	-1	0
12374995	2002	0	0	-100	0	230	101300000	1000	0	0	-1	0
12387555	2005	0	0	-100	0	230	101300000	1000	0	0	-1	0
12400115	2004	0	0	-100	0	230	101300000	1000	0	0	-1	0
12412675	1999	1	0	-100	0	230	101300000	1000	0	0	-1	0
12425235	2001	3	0	-100	0	230	101300000	1000	0	0	-1	0
12437795	1994	0	0	-100	0	230	101300000	1000	0	0	-1	0
12450355	1999	0	0	-100	0	230	101300000	1000	0	0	-1	0
12462915	1999	0	0	-100	0	230	101300000	1000	0	0	-1	0
12475475	2004	0	0	-100	0	230	101300000	1000	0	0	-1	0
12488035	2005	0	0	-100	0	230	101300000	1000	0	0	-1	0
12500595	2004	0	0	-100	0	230	101300000	1000	0	0	-1	0
12513155	2012	0	0	-100	0	230	101300000	1000	0	0	-1	0
12525715	2001	0	0	-100	0	230	101300000	1000	0	0	-1	0
12538275	1997	2	0	-100	0	230	101300000	1000	0	0	-1	0
12550835	2000	3	0	-100	0	230	101300000	1000	0	0	-1	0
12563395	1999	3	0	-100	0	230	101300000	1000	0	0	-1	0
12575955	2001	4	0	-100	0	230	101300000	1000	0	0	-1	0
12588515	1999	4	0	-100	0	230	101300000	1000	0	0	-1	0
12601075	2000	4	0	-100	0	230	101300000	1000	0	0	-1	0
12613635	2001	4	0	-100	0	230	101300000	1000	0	0	-1	0
12626195	1999	3	0	-100	0	230	101300000	1000	0	0	-1	0
12638755	1998	5	0	-100	0	230	101300000	1000	0	0	-1	0
12651315	2001	4	0	-100	0	230	101300000	1000	0	0	-1	0
12663875	2002	4	0	-100	0	230	101300000	1000	0	0	-1	0
12676435	1997	3	0	-100	0	230	101300000	1000	0	0	-1	0
12688995	2001	0	0	-100	0	230	101300000	1000	0	0	-1	0
12701555	1999	2	0	-100	0	230	101300000	1000	0	0	-1	0
12714115	1996	2	0	-100	0	230	101300000	1000	0	0	-1	0
12726675	2001	0	0	-100	0	230	101300000	1000	0	0	-1	0
12739235	2004	0	0	-100	0	230	101300000	1000	0	0	-1	0
12751795	2001	0	0	-100	0	230	101300000	1000	0	0	-1	0
12764355	2000	0	0	-100	0	230	101300000	1000	0	0	-1	0
12776915	1997	4	0	-100	0	230	101300000	1000	0	0	-1	0
12789475	1999	3	0	-100	0	230	101300000	1000	0	0	-1	0
12802035	1997	0	0	-100	0	230	101300000	1000	0	0	-1	0
12814595	2006	0	0	-100	0	230	101300000	1000	0	0	-1	0
12827155	2010	0	0	-100	0	230	101300000	1000	0	0	-1	0
12839715	2004	0	0	-100	0	230	101300000	1000	0	0	-1	0
12852275	2004	0	0	-100	0	230	101300000	1000	0	0	-1	0
12864835	2006	0	0	-100	0	230	101300000	1000	0	0	-1	0
12877395	1997	0	0	-100	0	230	101300000	1000	0	0	-1	0
12889955	2004	0	0	-100	0	230	101300000	1000	0	0	-1	0
12902515	1999	4	0	-100	0	230	101300000	1000	0	0	-1	0
12915075	1998	4	0	-100	0	230	101300000	1000	0	0	-1	0
12927635	1999	2	0	-100	0	230	101300000	1000	0	0	-1	0
12940195	2005	0	0	-100	0	230	101300000	1000	0	0	-1	0
12952755	2008	0	0	-100	0	230	101300000	1000	0	0	-1	0
12965315	1999	0	0	-100	0	230	101300000	1000	0	0	-1	0
12977875	1998	0	0	-100	0	230	101300000	1000	0	0	-1	0
12990435	1997	3	0	-100	0	230	101300000	1000	0	0	-1	0
13002995	1999	0	0	-100	0	230	101300000	1000	0	0	-1	0
13015555	1999	0	0	-100	0	230	101300000	1000	0	0	-1	0
13028115	2004	0	0	-100	0	230	101300000	1000	0	0	-1	0
13040675	2006	0	0	-100	0	230	101300000	1000	0	0	-1	0
13053235	2002	0	0	-100	0	230	101300000	1000	0	0	-1	0
13065795	2007	0	0	-100	0	230	101300000	1000	0	0	-1	0
13078355	2001	0	0	-100	0	230	101300000	1000	0	0	-1	0
13090915	1999	0	0	-100	0	230	101300000	1000	0	0	-1	0
13103475	1998	0	0	-100	0	230	101300000	1000	0	0	-1	0
13116035	1999	4	0	-100	0	230	101300000	1000	0	0	-1	0
13128595	1998	1	0	-100	0	230	101300000	1000	0	0	-1	0
13141155	2011	0	0	-100	0	230	101300000	1000	0	0	-1	0
13153715	2006	0	0	-100	0	230	101300000	1000	0	0	-1	0
13166275	2003	0	0	-100	0	230	101300000	1000	0	0	-1	0
13178835	1997	0	0	-100	0	230	101300000	1000	0	0	-1	0
13191395	2001	6	0	-100	0	230	101300000	1000	0	0	-1	0
13203955	2001	4	0	-100	0	230	101300000	1000	0	0	-1	0
13216515	1999	0	0	-100	0	230	101300000	1000	0	0	-1	0
13229075	2006	0	0	-100	0	230	101300000	1000	0	0	-1	0
13241635	2007	0	0	-100	0	230	101300000	1000	0	0	-1	0
13254195	2004	0	0	-100	0	230	101300000	1000	0	0	-1	0
13266755	2007	0	0	-100	0	230	101300000	1000	0	0	-1	0
13279315	2004	0	0	-100	0	230	101300000	1000	0	0	-1	0
13291875	2008	0	0	-100	0	230	101300000	1000	0	0	-1	0
13304435	2006	0	0	-100	0	230	101300000	1000	0	0	-1	0
13316995	2004	4	0	-100	0	230	101300000	1000	0	0	-1	0
13329555	1999	1	0	-100	0	230	101300000	1000	0	0	-1	0
13342115	1996	4	0	-100	0	230	101300000	1000	0	0	-1	0
13354675	1997	3	0	-100	0	230	101300000	1000	0	0	-1	0
13367235	2002	0	0	-100	0	230	101300000	1000	0	0	-1	0
13379795	1996	0	0	-100	0	230	101300000	1000	0	0	-1	0
13392355	2001	0	0	-100	0	230	101300000	1000	0	0	-1	0
13404915	2006	0	0	-100	0	230	101300000	1000	0	0	-1	0
13417475	2002	0	0	-100	0	230	101300000	1000	0	0	-1	0
13430035	2004	0	0	-100	0	230	101300000	1000	0	0	-1	0
13442595	1997	2	0	-100	0	230	101300000	1000	0	0	-1	0
13455155	2004	2	0	-100	0	230	101300000	1000	0	0	-1	0
13467715	1999	0	0	-100	0	230	101300000	1000	0	0	-1	0
13480275	1998	0	0	-100	0	230	101300000	1000	0	0	-1	0
13492835	2004	0	0	-100	0	230	101300000	1000	0	0	-1	0
13505395	2004	0	0	-100	0	230	101300000	1000	0	0	-1	0
13517955	2005	0	0	-100	0	230	101300000	1000	0	0	-1	0
13530515	2006	0	0	-100	0	230	101300000	1000	0	0	-1	0
13543075	1997	1	0	-100	0	230	101300000	1000	0	0	-1	0
13555635	1996	4	0	-100	0	230	101300000	1000	0	0	-1	0
13568195	1999	0	0	-100	0	230	101300000	1000	0	0	-1	0
13580755	1997	0	0	-100	0	230	101300000	1000	0	0	-1	0
13593315	2003	0	0	-100	0	230	101300000	1000	0	0	-1	0
13605875	2008	0	0	-100	0	230	101300000	1000	0	0	-1	0
13618435	2000	0	0	-100	0	230	101300000	1000	0	0	-1	0
13630995	1999	0	0	-100	0	230	101300000	1000	0	0	-1	0
13643555	1996	0	0	-100	0	230	101300000	1000	0	0	-1	0
13656115	1998	0	0	-100	0	230	101300000	1000	0	0	-1	0
13668675	1999	0	0	-100	0	230	101300000	1000	0	0	-1	0
13681235	1996	0	0	-100	0	230	101300000	1000	0	0	-1	0
13693795	2004	0	0	-100	0	230	101300000	1000	0	0	-1	0
13706355	2007	0	0	-100	0	230	101300000	1000	0	0	-1	0
13718915	2005	0	0	-100	0	230	101300000	1000	0	0	-1	0
13731475	1999	0	0	-100	0	230	101300000	1000	0	0	-1	0
13744035	1999	4	0	-100	0	230	101300000	1000	0	0	-1	0
13756595	1999	0	0	-100	0	230	101300000	1000	0	0	-1	0
13769155	2014	0	0	-100	0	230	101300000	1000	0	0	-1	0
13781715	2002	0	0	-100	0	230	101300000	1000	0	0	-1	0
13794275	1997	3	0	-100	0	230	101300000	1000	0	0	-1	0
13806835	1996	0	0	-100	0	230	101300000	1000	0	0	-1	0
13819395	2004	0	0	-100	0	230	101300000	1000	0	0	-1	0
13831955	2001	0	0	-100	0	230	101300000	1000	0	0	-1	0
13844515	2002	4	0	-100	0	230	101300000	1000	0	0	-1	0
13857075	2001	0	0	-100	0	230	101300000	1000	0	0	-1	0
13869635	2004	0	0	-100	0	230	101300000	1000	0	0	-1	0
13882195	1997	0	0	-100	0	230	101300000	1000	0	0	-1	0
13894755	1999	4	0	-100	0	230	101300000	1000	0	0	-1	0
13907315	1999	0	0	-100	0	230	101300000	1000	0	0	-1	0
13919875	2004	0	0	-100	0	230	101300000	1000	0	0	-1	0
13932435	1999	0	0	-100	0	230	101300000	1000	0	0	-1	0
13944995	2002	0	0	-100	0	230	101300000	1000	0	0	-1	0
13957555	1998	0	0	-100	0	230	101300000	1000	0	0	-1	0
13970115	2007	0	0	-100	0	230	101300000	1000	0	0	-1	0
13982675	2004	0	0	-100	0	230	101300000	1000	0	0	-1	0
13995235	2000	0	0	-100	0	230	101300000	1000	0	0	-1	0
14007795	2000	0	0	-100	0	230	101300000	1000	0	0	-1	0
14020355	1999	4	0	-100	0	230	101300000	1000	0	0	-1	0
14032915	1999	3	0	-100	0	230	101300000	1000	0	0	-1	0
14045475	1998	0	0	-100	0	230	101300000	1000	0	0	-1	0
14058035	2004	0	0	-100	0	230	101300000	1000	0	0	-1	0
14070595	2006	0	0	-100	0	230	101300000	1000	0	0	-1	0
14083155	2007	0	0	-100	0	230	101300000	1000	0	0	-1	0
14095715	1997	1	0	-100	0	230	101300000	1000	0	0	-1	0
14108275	2002	2	0	-100	0	230	101300000	1000	0	0	-1	0
14120835	2001	0	0	-100	0	230	101300000	1000	0	0	-1	0
14133395	2004	0	0	-100	0	230	101300000	1000	0	0	-1	0
14145955	2002	0	0	-100	0	230	101300000	1000	0	0	-1	0
14158515	1997	2	0	-100	0	230	101300000	1000	0	0	-1	0
14171075	1998	0	0	-100	0	230	101300000	1000	0	0	-1	0
14183635	2002	0	0	-100	0	230	101300000	1000	0	0	-1	0
14196195	2004	0	0	-100	0	230	101300000	1000	0	0	-1	0
14208755	2005	0	0	-100	0	230	101300000	1000	0	0	-1	0
14221315	2005	0	0	-100	0	230	101300000	1000	0	0	-1	0
14233875	1997	0	0	-100	0	230	101300000	1000	0	0	-1	0
14246435	2000	4	0	-100	0	230	101300000	1000	0	0	-1	0
14258995	1999	0	0	-100	0	230	101300000	1000	0	0	-1	0
14271555	1996	0	0	-100	0	230	101300000	1000	0	0	-1	0
14284115	2001	0	0	-100	0	230	101300000	1000	0	0	-1	0
14296675	2004	0	0	-100	0	230	101300000	1000	0	0	-1	0
14309235	2004	0	0	-100	0	230	101300000	1000	0	0	-1	0
14321795	2004	0	0	-100	0	230	101300000	1000	0	0	-1	0
14334355	2002	0	0	-100	0	230	101300000	1000	0	0	-1	0
14346915	2003	0	0	-100	0	230	101300000	1000	0	0	-1	0
14359475	1999	1	0	-100	0	230	101300000	1000	0	0	-1	0
14372035	1997	2	0	-100	0	230	101300000	1000	0	0	-1	0
14384595	1998	0	0	-100	0	230	101300000	1000	0	0	-1	0
14397155	2007	0	0	-100	0	230	101300000	1000	0	0	-1	0
14409715	2008	0	0	-100	0	230	101300000	1000	0	0	-1	0
14422275	2002	0	0	-100	0	230	101300000	1000	0	0	-1	0
14434835	1997	1	0	-100	0	230	101300000	1000	0	0	-1	0
14447395	2002	4	0	-100	0	230	101300000	1000	0	0	-1	0
14459955	1996	0	0	-100	0	230	101300000	1000	0	0	-1	0
14472515	1999	0	0	-100	0	230	101300000	1000	0	0	-1	0
14485075	2004	0	0	-100	0	230	101300000	1000	0	0	-1	0
14497635	2003	0	0	-100	0	230	101300000	1000	0	0	-1	0
14510195	2000	0	0	-100	0	230	101300000	1000	0	0	-1	0
14522755	1997	1	0	-100	0	230	101300000	1000	0	0	-1	0
14535315	2001	5	0	-100	0	230	101300000	1000	0	0	-1	0
14547875	1997	0	0	-100	0	230	101300000	1000	0	0	-1	0
14560435	1999	0	0	-100	0	230	101300000	1000	0	0	-1	0
14572995	2001	0	0	-100	0	230	101300000	1000	0	0	-1	0
14585555	2005	0	0	-100	0	230	101300000	1000	0	0	-1	0
14598115	2003	0	0	-100	0	230	101300000	1000	0	0	-1	0
14610675	2006	0	0	-100	0	230	101300000	1000	0	0	-1	0
14623235	1996	1	0	-100	0	230	101300000	1000	0	0	-1	0
14635795	1999	4	0	-100	0	230	101300000	1000	0	0	-1	0
14648355	2005	4	0	-100	0	230	101300000	1000	0	0	-1	0
14660915	1994	0	0	-100	0	230	101300000	1000	0	0	-1	0
14673475	2002	0	0	-100	0	230	101300000	1000	0	0	-1	0
14686035	2005	0	0	-100	0	230	101300000	1000	0	0	-1	0
14698595	2004	0	0	-100	0	230	101300000	1000	0	0	-1	0
14711155	2005	0	0	-100	0	230	101300000	1000	0	0	-1	0
14723715	1999	2	0	-100	0	230	101300000	1000	0	0	-1	0
14736275	1997	4	0	-100	0	230	101300000	1000	0	0	-1	0
14748835	1999	4	0	-100	0	230	101300000	1000	0	0	-1	0
14761395	1999	4	0	-100	0	230	101300000	1000	0	0	-1	0
14773955	1998	0	0	-100	0	230	101300000	1000	0	0	-1	0
14786515	2001	0	0	-100	0	230	101300000	1000	0	0	-1	0
14799075	1996	0	0	-100	0	230	101300000	1000	0	0	-1	0
14811635	1998	0	0	-100	0	230	101300000	1000	0	0	-1	0
14824195	1999	0	0	-100	0	230	101300000	1000	0	0	-1	0
14836755	1996	0	0	-100	0	230	101300000	1000	0	0	-1	0
14849315	2001	0	0	-100	0	230	101300000	1000	0	0	-1	0
14861875	2002	0	0	-100	0	230	101300000	1000	0	0	-1	0
14874435	2004	0	0	-100	0	230	101300000	1000	0	0	-1	0
14886995	2007	2	0	-100	0	230	101300000	1000	0	0	-1	0
14899555	2001	0	0	-100	0	230	101300000	1000	0	0	-1	0
14912115	2003	0	0	-100	0	230	101300000	1000	0	0	-1	0
14924675	2006	0	0	-100	0	230	101300000	1000	0	0	-1	0
14937235	2002	0	0	-100	0	230	101300000	1000	0	0	-1	0
14949795	2004	0	0	-100	0	230	101300000	1000	0	0	-1	0
14962355	2006	0	0	-100	0	230	101300000	1000	0	0	-1	0
14974915	2003	0	0	-100	0	230	101300000	1000	0	0	-1	0
14987475	2005	0	0	-100	0	230	101300000	1000	0	0	-1	0
15000035	2002	0	0	-100	0	230	101300000	1000	0	0	-1	0
15012595	2005	0	0	-100	0	230	101300000	1000	0	0	-1	0
15025155	2012	0	0	-100	0	230	101300000	1000	0	0	-1	0
15037715	2001	0	0	-100	0	230	101300000	1000	0	0	-1	0
15050275	2004	0	0	-100	0	230	101300000	1000	0	0	-1	0
15062835	2006	0	0	-100	0	230	101300000	1000	0	0	-1	0
15075395	2002	0	0	-100	0	230	101300000	1000	0	0	-1	0
15087955	2005	0	0	-100	0	230	101300000	1000	0	0	-1	0
15100515	2002	0	0	-100	0	230	101300000	1000	0	0	-1	0
15113075	1999	0	0	-100	0	230	101300000	1000	0	0	-1	0
15125635	1999	0	0	-100	0	230	101300000	1000	0	0	-1	0
15138195	1996	0	0	-100	0	230	101300000	1000	0	0	-1	0
15150755	2001	0	0	-100	0	230	101300000	1000	0	0	-1	0
15163315	1999	4	0	-100	0	230	101300000	1000	0	0	-1	0
15175875	1997	0	0	-100	0	230	101300000	1000	0	0	-1	0
15188435	2009	0	0	-100	0	230	101300000	1000	0	0	-1	0
15200995	2004	2	0	-100	0	230	101300000	1000	0	0	-1	0
15213555	2003	0	0	-100	0	230	101300000	1000	0	0	-1	0
15226115	2005	0	0	-100	0	230	101300000	1000	0	0	-1	0
15238675	2001	0	0	-100	0	230	101300000	1000	0	0	-1	0
15251235	2004	0	0	-100	0	230	101300000	1000	0	0	-1	0
15263795	2000	0	0	-100	0	230	101300000	1000	0	0	-1	0
15276355	1999	0	0	-100	0	230	101300000	1000	0	0	-1	0
15288915	1999	0	0	-100	0	230	101300000	1000	0	0	-1	0
15301475	1996	0	0	-100	0	230	101300000	1000	0	0	-1	0
15314035	1994	0	0	-100	0	230	101300000	1000	0	0	-1	0
15326595	1998	0	0	-100	0	230	101300000	1000	0	0	-1	0
15339155	2004	0	0	-100	0	230	101300000	1000	0	0	-1	0
15351715	2003	0	0	-100	0	230	101300000	1000	0	0	-1	0
15364275	2005	0	0	-100	0	230	101300000	1000	0	0	-1	0
15376835	2005	0	0	-100	0	230	101300000	1000	0	0	-1	0
15389395	2001	0	0	-100	0	230	101300000	1000	0	0	-1	0
15401955	1998	3	0	-100	0	230	101300000	1000	0	0	-1	0
15414515	2000	4	0	-100	0	230	101300000	1000	0	0	-1	0
15427075	2001	5	0	-100	0	230	101300000	1000	0	0	-1	0
15439635	1996	3	0	-100	0	230	101300000	1000	0	0	-1	0
15452195	2001	2	0	-100	0	230	101300000	1000	0	0	-1	0
15464755	1998	0	0	-100	0	230	101300000	1000	0	0	-1	0
15477315	1999	0	0	-100	0	230	101300000	1000	0	0	-1	0
15489875	2001	0	0	-100	0	230	101300000	1000	0	0	-1	0
15502435	2003	0	0	-100	0	230	101300000	1000	0	0	-1	0
15514995	2002	0	0	-100	0	230	101300000	1000	0	0	-1	0
15527555	2006	0	0	-100	0	230	101300000	1000	0	0	-1	0
15540115	2004	0	0	-100	0	230	101300000	1000	0	0	-1	0
15552675	2004	0	0	-100	0	230	101300000	1000	0	0	-1	0
15565235	2004	0	0	-100	0	230	101300000	1000	0	0	-1	0
15577795	2001	0	0	-100	0	230	101300000	1000	0	0	-1	0
15590355	2005	0	0	-100	0	230	101300000	1000	0	0	-1	0
15602915	2006	0	0	-100	0	230	101300000	1000	0	0	-1	0
15615475	2003	0	0	-100	0	230	101300000	1000	0	0	-1	0
15628035	2004	0	0	-100	0	230	101300000	1000	0	0	-1	0
15640595	1996	2	0	-100	0	230	101300000	1000	0	0	-1	0
15653155	2005	2	0	-100	0	230	101300000	1000	0	0	-1	0
15665715	2004	3	0	-100	0	230	101300000	1000	0	0	-1	0
15678275	1999	0	0	-100	0	230	101300000	1000	0	0	-1	0
15690835	2001	4	0	-100	0	230	101300000	1000	0	0	-1	0
15703395	1999	1	0	-100	0	230	101300000	1000	0	0	-1	0
15715955	2006	0	0	-100	0	230	101300000	1000	0	0	-1	0
15728515	2006	0	0	-100	0	230	101300000	1000	0	0	-1	0
15741075	2003	0	0	-100	0	230	101300000	1000	0	0	-1	0
15753635	1998	0	0	-100	0	230	101300000	1000	0	0	-1	0
15766195	1999	3	0	-100	0	230	101300000	1000	0	0	-1	0
15778755	1999	0	0	-100	0	230	101300000	1000	0	0	-1	0
15791315	2007	0	0	-100	0	230	101300000	1000	0	0	-1	0
15803875	2008	0	0	-100	0	230	101300000	1000	0	0	-1	0
15816435	2003	0	0	-100	0	230	101300000	1000	0	0	-1	0
15828995	2006	2	0	-100	0	230	101300000	1000	0	0	-1	0
15841555	2001	0	0	-100	0	230	101300000	1000	0	0	-1	0
15854115	1999	0	0	-100	0	230	101300000	1000	0	0	-1	0
15866675	1998	0	0	-100	0	230	101300000	1000	0	0	-1	0
15879235	1999	4	0	-100	0	230	101300000	1000	0	0	-1	0
15891795	2000	2	0	-100	0	230	101300000	1000	0	0	-1	0
15904355	1999	0	0	-100	0	230	101300000	1000	0	0	-1	0
15916915	2004	0	0	-100	0	230	101300000	1000	0	0	-1	0
15929475	2008	0	0	-100	0	230	101300000	1000	0	0	-1	0
15942035	2001	0	0	-100	0	230	101300000	1000	0	0	-1	0
15954595	1998	0	0	-100	0	230	101300000	1000	0	0	-1	0
15967155	2004	0	0	-100	0	230	101300000	1000	0	0	-1	0
15979715	1997	4	0	-100	0	230	101300000	1000	0	0	-1	0
15992275	1996	1	0	-100	0	230	101300000	1000	0	0	-1	0
16004835	2000	1	0	-100	0	230	101300000	1000	0	0	-1	0
16017395	1999	0	0	-100	0	230	101300000	1000	0	0	-1	0
16029955	2002	0	0	-100	0	230	101300000	1000	0	0	-1	0
16042515	2004	0	0	-100	0	230	101300000	1000	0	0	-1	0
16055075	2006	0	0	-100	0	230	101300000	1000	0	0	-1	0
16067635	2005	0	0	-100	0	230	101300000	1000	0	0	-1	0
16080195	2005	0	0	-100	0	230	101300000	1000	0	0	-1	0
16092755	2005	0	0	-100	0	230	101300000	1000	0	0	-1	0
16105315	2006	0	0	-100	0	230	101300000	1000	0	0	-1	0
16117875	2002	0	0	-100	0	230	101300000	1000	0	0	-1	0
16130435	2007	0	0	-100	0	230	101300000	1000	0	0	-1	0
16142995	2005	3	0	-100	0	230	101300000	1000	0	0	-1	0
16155555	2001	0	0	-100	0	230	101300000	1000	0	0	-1	0
16168115	2001	0	0	-100	0	230	101300000	1000	0	0	-1	0
16180675	1998	1	0	-100	0	230	101300000	1000	0	0	-1	0
16193235	1997	1	0	-100	0	230	101300000	1000	0	0	-1	0
16205795	1998	2	0	-100	0	230	101300000	1000	0	0	-1	0
16218355	1997	0	0	-100	0	230	101300000	1000	0	0	-1	0
16230915	1999	2	0	-100	0	230	101300000	1000	0	0	-1	0
16243475	1996	1	0	-100	0	230	101300000	1000	0	0	-1	0
16256035	1994	1	0	-100	0	230	101300000	1000	0	0	-1	0
16268595	1999	0	0	-100	0	230	101300000	1000	0	0	-1	0
16281155	2006	0	0	-100	0	230	101300000	1000	0	0	-1	0
16293715	1999	0	0	-100	0	230	101300000	1000	0	0	-1	0
16306275	1999	0	0	-100	0	230	101300000	1000	0	0	-1	0
16318835	1996	1	0	-100	0	230	101300000	1000	0	0	-1	0
16331395	1996	1	0	-100	0	230	101300000	1000	0	0	-1	0
16343955	1996	2	0	-100	0	230	101300000	1000	0	0	-1	0
16356515	1995	2	0	-100	0	230	101300000	1000	0	0	-1	0
16369075	2000	0	0	-100	0	230	101300000	1000	0	0	-1	0
16381635	2005	0	0	-100	0	230	101300000	1000	0	0	-1	0
16394195	2003	0	0	-100	0	230	101300000	1000	0	0	-1	0
16406755	1999	0	0	-100	0	230	101300000	1000	0	0	-1	0
16419315	1995	3	0	-100	0	230	101300000	1000	0	0	-1	0
16431875	2000	0	0	-100	0	230	101300000	1000	0	0	-1	0
16444435	2007	0	0	-100	0	230	101300000	1000	0	0	-1	0
16456995	2001	0	0	-100	0	230	101300000	1000	0	0	-1	0
16469555	1999	0	0	-100	0	230	101300000	1000	0	0	-1	0
16482115	1999	0	0	-100	0	230	101300000	1000	0	0	-1	0
16494675	1997	3	0	-100	0	230	101300000	1000	0	0	-1	0
16507235	1998	3	0	-100	0	230	101300000	1000	0	0	-1	0
16519795	2002	0	0	-100	0	230	101300000	1000	0	0	-1	0
16532355	2007	0	0	-100	0	230	101300000	1000	0	0	-1	0
16544915	2005	0	0	-100	0	230	101300000	1000	0	0	-1	0
16557475	1998	0	0	-100	0	230	101300000	1000	0	0	-1	0
16570035	2001	0	0	-100	0	230	101300000	1000	0	0	-1	0
16582595	2002	0	0	-100	0	230	101300000	1000	0	0	-1	0
16595155	2006	0	0	-100	0	230	101300000	1000	0	0	-1	0
16607715	2004	0	0	-100	0	230	101300000	1000	0	0	-1	0
16620275	2002	0	0	-100	0	230	101300000	1000	0	0	-1	0
16632835	2001	0	0	-100	0	230	101300000	1000	0	0	-1	0
16645395	2004	0	0	-100	0	230	101300000	1000	0	0	-1	0
16657955	1996	0	0	-100	0	230	101300000	1000	0	0	-1	0
16670515	1999	0	0	-100	0	230	101300000	1000	0	0	-1	0
16683075	1996	0	0	-100	0	230	101300000	1000	0	0	-1	0
16695635	2001	2	0	-100	0	230	101300000	1000	0	0	-1	0
16708195	2002	0	0	-100	0	230	101300000	1000	0	0	-1	0
16720755	1999	3	0	-100	0	230	101300000	1000	0	0	-1	0
16733315	1999	4	0	-100	0	230	101300000	1000	0	0	-1	0
16745875	2002	3	0	-100	0	230	101300000	1000	0	0	-1	0
16758435	1996	3	0	-100	0	230	101300000	1000	0	0	-1	0
16770995	1999	0	0	-100	0	230	101300000	1000	0	0	-1	0
16783555	1997	1	0	-100	0	230	101300000	1000	0	0	-1	0
16796115	1997	1	0	-100	0	230	101300000	1000	0	0	-1	0
16808675	2007	0	0	-100	0	230	101300000	1000	0	0	-1	0
16821235	2004	0	0	-100	0	230	101300000	1000	0	0	-1	0
16833795	2004	0	0	-100	0	230	101300000	1000	0	0	-1	0
16846355	2008	0	0	-100	0	230	101300000	1000	0	0	-1	0
16858915	2001	0	0	-100	0	230	101300000	1000	0	0	-1	0
16871475	2004	0	0	-100	0	230	101300000	1000	0	0	-1	0
16884035	2004	0	0	-100	0	230	101300000	1000	0	0	-1	0
16896595	2004	0	0	-100	0	230	101300000	1000	0	0	-1	0
16909155	2013	0	0	-100	0	230	101300000	1000	0	0	-1	0
16921715	2006	0	0	-100	0	230	101300000	1000	0	0	-1	0
16934275	2005	0	0	-100	0	230	101300000	1000	0	0	-1	0
16946835	2006	0	0	-100	0	230	101300000	1000	0	0	-1	0
16959395	2004	0	0	-100	0	230	101300000	1000	0	0	-1	0
16971955	2001	0	0	-100	0	230	101300000	1000	0	0	-1	0
16984515	1996	2	0	-100	0	230	101300000	1000	0	0	-1	0
16997075	1996	4	0	-100	0	230	101300000	1000	0	0	-1	0
17009635	1997	0	0	-100	0	230	101300000	1000	0	0	-1	0
17022195	1998	0	0	-100	0	230	101300000	1000	0	0	-1	0
17034755	2005	0	0	-100	0	230	101300000	1000	0	0	-1	0
17047315	2004	0	0	-100	0	230	101300000	1000	0	0	-1	0
17059875	1994	0	0	-100	0	230	101300000	1000	0	0	-1	0
17072435	1997	3	0	-100	0	230	101300000	1000	0	0	-1	0
17084995	2000	0	0	-100	0	230	101300000	1000	0	0	-1	0
17097555	1996	0	0	-100	0	230	101300000	1000	0	0	-1	0
17110115	2003	0	0	-100	0	230	101300000	1000	0	0	-1	0
17122675	2003	0	0	-100	0	230	101300000	1000	0	0	-1	0
17135235	1997	4	0	-100	0	230	101300000	1000	0	0	-1	0
17147795	2001	0	0	-100	0	230	101300000	1000	0	0	-1	0
17160355	2002	0	0	-100	0	230	101300000	1000	0	0	-1	0
17172915	1999	0	0	-100	0	230	101300000	1000	0	0	-1	0
17185475	2001	4	0	-100	0	230	101300000	1000	0	0	-1	0
17198035	1996	0	0	-100	0	230	101300000	1000	0	0	-1	0
17210595	2005	0	0	-100	0	230	101300000	1000	0	0	-1	0
17223155	2011	0	0	-100	0	230	101300000	1000	0	0	-1	0
17235715	1997	1	0	-100	0	230	101300000	1000	0	0	-1	0
17248275	1999	4	0	-100	0	230	101300000	1000	0	0	-1	0
17260835	1999	0	0	-100	0	230	101300000	1000	0	0	-1	0
17273395	2004	0	0	-100	0	230	101300000	1000	0	0	-1	0
17285955	2007	0	0	-100	0	230	101300000	1000	0	0	-1	0
17298515	1997	0	0	-100	0	230	101300000	1000	0	0	-1	0
17311075	1999	1	0	-100	0	230	101300000	1000	0	0	-1	0
17323635	1999	3	0	-100	0	230	101300000	1000	0	0	-1	0
17336195	1997	3	0	-100	0	230	101300000	1000	0	0	-1	0
17348755	1998	0	0	-100	0	230	101300000	1000	0	0	-1	0
17361315	1999	0	0	-100	0	230	101300000	1000	0	0	-1	0
17373875	2005	0	0	-100	0	230	101300000	1000	0	0	-1	0
17386435	2008	0	0	-100	0	230	101300000	1000	0	0	-1	0
17398995	1997	3	0	-100	0	230	101300000	1000	0	0	-1	0
17411555	1999	0	0	-100	0	230	101300000	1000	0	0	-1	0
17424115	1996	0	0	-100	0	230	101300000	1000	0	0	-1	0
17436675	1997	2	0	-100	0	230	101300000	1000	0	0	-1	0
17449235	1997	0	0	-100	0	230	101300000	1000	0	0	-1	0
17461795	1996	0	0	-100	0	230	101300000	1000	0	0	-1	0
17474355	1999	0	0	-100	0	230	101300000	1000	0	0	-1	0
17486915	2004	0	0	-100	0	230	101300000	1000	0	0	-1	0
17499475	1997	0	0	-100	0	230	101300000	1000	0	0	-1	0
17512035	2001	2	0	-100	0	230	101300000	1000	0	0	-1	0
17524595	1997	3	0	-100	0	230	101300000	1000	0	0	-1	0
17537155	2000	2	0	-100	0	230	101300000	1000	0	0	-1	0
17549715	2002	4	0	-100	0	230	101300000	1000	0	0	-1	0
17562275	1997	3	0	-100	0	230	101300000	1000	0	0	-1	0
17574835	1999	0	0	-100	0	230	101300000	1000	0	0	-1	0
17587395	1999	0	0	-100	0	230	101300000	1000	0	0	-1	0
17599955	1996	0	0	-100	0	230	101300000	1000	0	0	-1	0
17612515	1999	0	0	-100	0	230	101300000	1000	0	0	-1	0
17625075	1999	0	0	-100	0	230	101300000	1000	0	0	-1	0
17637635	1996	0	0	-100	0	230	101300000	1000	0	0	-1	0
17650195	2001	0	0	-100	0	230	101300000	1000	0	0	-1	0
17662755	1998	0	0	-100	0	230	101300000	1000	0	0	-1	0
17675315	1996	0	0	-100	0	230	101300000	1000	0	0	-1	0
17687875	2007	0	0	-100	0	230	101300000	1000	0	0	-1	0
17700435	2004	0	0	-100	0	230	101300000	1000	0	0	-1	0
17712995	2006	4	0	-100	0	230	101300000	1000	0	0	-1	0
17725555	2004	0	0	-100	0	230	101300000	1000	0	0	-1	0
17738115	1995	0	0	-100	0	230	101300000	1000	0	0	-1	0
17750675	1999	0	0	-100	0	230	101300000	1000	0	0	-1	0
17763235	1996	3	0	-100	0	230	101300000	1000	0	0	-1	0
17775795	1997	3	0	-100	0	230	101300000	1000	0	0	-1	0
17788355	2002	3	0	-100	0	230	101300000	1000	0	0	-1	0
17800915	1997	3	0	-100	0	230	101300000	1000	0	0	-1	0
17813475	1997	2	0	-100	0	230	101300000	1000	0	0	-1	0
17826035	2001	1	0	-100	0	230	101300000	1000	0	0	-1	0
17838595	1995	0	0	-100	0	230	101300000	1000	0	0	-1	0
17851155	2007	0	0	-100	0	230	101300000	1000	0	0	-1	0
17863715	2003	0	0	-100	0	230	101300000	1000	0	0	-1	0
17876275	1999	0	0	-100	0	230	101300000	1000	0	0	-1	0
17888835	2011	0	0	-100	0	230	101300000	1000	0	0	-1	0
17901395	2006	0	0	-100	0	230	101300000	1000	0	0	-1	0
17913955	2005	0	0	-100	0	230	101300000	1000	0	0	-1	0
17926515	2004	0	0	-100	0	230	101300000	1000	0	0	-1	0
17939075	1994	0	0	-100	0	230	101300000	1000	0	0	-1	0
17951635	1998	1	0	-100	0	230	101300000	1000	0	0	-1	0
17964195	1997	0	0	-100	0	230	101300000	1000	0	0	-1	0
17976755	1997	0	0	-100	0	230	101300000	1000	0	0	-1	0
17989315	2005	0	0	-100	0	230	101300000	1000	0	0	-1	0
18001875	1999	0	0	-100	0	230	101300000	1000	0	0	-1	0
18014435	1999	1	0	-100	0	230	101300000	1000	0	0	-1	0
18026995	2002	1	0	-100	0	230	101300000	1000	0	0	-1	0
18039555	1997	0	0	-100	0	230	101300000	1000	0	0	-1	0
18052115	1999	0	0	-100	0	230	101300000	1000	0	0	-1	0
18064675	2004	0	0	-100	0	230	101300000	1000	0	0	-1	0
18077235	1997	0	0	-100	0	230	101300000	1000	0	0	-1	0
18089795	2007	0	0	-100	0	230	101300000	1000	0	0	-1	0
18102355	2004	0	0	-100	0	230	101300000	1000	0	0	-1	0
18114915	2002	0	0	-100	0	230	101300000	1000	0	0	-1	0
18127475	2006	0	0	-100	0	230	101300000	1000	0	0	-1	0
18140035	2000	0	0	-100	0	230	101300000	1000	0	0	-1	0
18152595	2004	0	0	-100	0	230	101300000	1000	0	0	-1	0
18165155	2010	0	0	-100	0	230	101300000	1000	0	0	-1	0
18177715	1998	0	0	-100	0	230	101300000	1000	0	0	-1	0
18190275	2006	0	0	-100	0	230	101300000	1000	0	0	-1	0
18202835	2004	0	0	-100	0	230	101300000	1000	0	0	-1	0
18215395	1999	0	0	-100	0	230	101300000	1000	0	0	-1	0
18227955	2007	0	0	-100	0	230	101300000	1000	0	0	-1	0
18240515	1999	0	0	-100	0	230	101300000	1000	0	0	-1	0
18253075	2001	0	0	-100	0	230	101300000	1000	0	0	-1	0
18265635	2003	0	0	-100	0	230	101300000	1000	0	0	-1	0
18278195	1999	0	0	-100	0	230	101300000	1000	0	0	-1	0
18290755	2007	0	0	-100	0	230	101300000	1000	0	0	-1	0
18303315	2004	0	0	-100	0	230	101300000	1000	0	0	-1	0
18315875	2004	0	0	-100	0	230	101300000	1000	0	0	-1	0
18328435	2008	0	0	-100	0	230	101300000	1000	0	0	-1	0
18340995	1996	0	0	-100	0	230	101300000	1000	0	0	-1	0
18353555	1999	0	0	-100	0	230	101300000	1000	0	0	-1	0
18366115	2004	0	0	-100	0	230	101300000	1000	0	0	-1	0
18378675	1993	0	0	-100	0	230	101300000	1000	0	0	-1	0
18391235	2007	0	0	-100	0	230	101300000	1000	0	0	-1	0
18403795	2005	0	0	-100	0	230	101300000	1000	0	0	-1	0
18416355	2003	0	0	-100	0	230	101300000	1000	0	0	-1	0
18428915	2010	0	0	-100	0	230	101300000	1000	0	0	-1	0
18441475	2001	0	0	-100	0	230	101300000	1000	0	0	-1	0
18454035	2003	0	0	-100	0	230	101300000	1000	0	0	-1	0
18466595	2005	0	0	-100	0	230	101300000	1000	0	0	-1	0
18479155	2005	0	0	-100	0	230	101300000	1000	0	0	-1	0
18491715	2005	0	0	-100	0	230	101300000	1000	0	0	-1	0
18504275	2004	0	0	-100	0	230	101300000	1000	0	0	-1	0
18516835	2003	0	0	-100	0	230	101300000	1000	0	0	-1	0
18529395	2009	0	0	-100	0	230	101300000	1000	0	0	-1	0
18541955	2004	0	0	-100	0	230	101300000	1000	0	0	-1	0
18554515	2007	0	0	-100	0	230	101300000	1000	0	0	-1	0
18567075	2002	0	0	-100	0	230	101300000	1000	0	0	-1	0
18579635	1994	0	0	-100	0	230	101300000	1000	0	0	-1	0
18592195	1999	2	0	-100	0	230	101300000	1000	0	0	-1	0
18604755	2000	4	0	-100	0	230	101300000	1000	0	0	-1	0
18617315	1995	0	0	-100	0	230	101300000	1000	0	0	-1	0
18629875	2004	0	0	-100	0	230	101300000	1000	0	0	-1	0
18642435	2000	0	0	-100	0	230	101300000	1000	0	0	-1	0
18654995	1999	0	0	-100	0	230	101300000	1000	0	0	-1	0
18667555	2007	0	0	-100	0	230	101300000	1000	0	0	-1	0
18680115	2001	0	0	-100	0	230	101300000	1000	0	0	-1	0
18692675	2006	0	0	-100	0	230	101300000	1000	0	0	-1	0
18705235	2002	0	0	-100	0	230	101300000	1000	0	0	-1	0
18717795	1994	3	0	-100	0	230	101300000	1000	0	0	-1	0
18730355	2001	0	0	-100	0	230	101300000	1000	0	0	-1	0
18742915	1999	0	0	-100	0	230	101300000	1000	0	0	-1	0
18755475	2001	0	0	-100	0	230	101300000	1000	0	0	-1	0
18768035	2008	0	0	-100	0	230	101300000	1000	0	0	-1	0
18780595	2001	0	0	-100	0	230	101300000	1000	0	0	-1	0
18793155	2003	1	0	-100	0	230	101300000	1000	0	0	-1	0
18805715	2000	0	0	-100	0	230	101300000	1000	0	0	-1	0
18818275	1998	0	0	-100	0	230	101300000	1000	0	0	-1	0
18830835	2007	0	0	-100	0	230	101300000	1000	0	0	-1	0
18843395	2001	1	0	-100	0	230	101300000	1000	0	0	-1	0
18855955	1995	3	0	-100	0	230	101300000	1000	0	0	-1	0
18868515	2004	0	0	-100	0	230	101300000	1000	0	0	-1	0
18881075	2001	0	0	-100	0	230	101300000	1000	0	0	-1	0
18893635	2004	0	0	-100	0	230	101300000	1000	0	0	-1	0
18906195	2002	1	0	-100	0	230	101300000	1000	0	0	-1	0
18918755	1994	4	0	-100	0	230	101300000	1000	0	0	-1	0
18931315	1998	0	0	-100	0	230	101300000	1000	0	0	-1	0
18943875	2003	0	0	-100	0	230	101300000	1000	0	0	-1	0
18956435	2003	0	0	-100	0	230	101300000	1000	0	0	-1	0
18968995	2005	2	0	-100	0	230	101300000	1000	0	0	-1	0
18981555	1997	4	0	-100	0	230	101300000	1000	0	0	-1	0
18994115	1999	0	0	-100	0	230	101300000	1000	0	0	-1	0
19006675	1999	0	0	-100	0	230	101300000	1000	0	0	-1	0
19019235	1999	0	0	-100	0	230	101300000	1000	0	0	-1	0
19031795	2006	0	0	-100	0	230	101300000	1000	0	0	-1	0
19044355	2002	0	0	-100	0	230	101300000	1000	0	0	-1	0
19056915	1995	2	0	-100	0	230	101300000	1000	0	0	-1	0
19069475	2004	3	0	-100	0	230	101300000	1000	0	0	-1	0
19082035	1999	0	0	-100	0	230	101300000	1000	0	0	-1	0
19094595	1998	0	0	-100	0	230	101300000	1000	0	0	-1	0
19107155	2011	0	0	-100	0	230	101300000	1000	0	0	-1	0
19119715	2002	0	0	-100	0	230	101300000	1000	0	0	-1	0
19132275	2005	0	0	-100	0	230	101300000	1000	0	0	-1	0
19144835	1999	2	0	-100	0	230	101300000	1000	0	0	-1	0
19157395	1997	4	0	-100	0	230	101300000	1000	0	0	-1	0
19169955	2002	0	0	-100	0	230	101300000	1000	0	0	-1	0
19182515	1999	0	0	-100	0	230	101300000	1000	0	0	-1	0
19195075	2002	0	0	-100	0	230	101300000	1000	0	0	-1	0
19207635	2007	0	0	-100	0	230	101300000	1000	0	0	-1	0
19220195	2001	0	0	-100	0	230	101300000	1000	0	0	-1	0
19232755	1999	0	0	-100	0	230	101300000	1000	0	0	-1	0
19245315	2002	3	0	-100	0	230	101300000	1000	0	0	-1	0
19257875	1994	0	0	-100	0	230	101300000	1000	0	0	-1	0
19270435	2004	0	0	-100	0	230	101300000	1000	0	0	-1	0
19282995	2003	0	0	-100	0	230	101300000	1000	0	0	-1	0
19295555	2005	0	0	-100	0	230	101300000	1000	0	0	-1	0
19308115	2004	0	0	-100	0	230	101300000	1000	0	0	-1	0
19320675	1996	0	0	-100	0	230	101300000	1000	0	0	-1	0
19333235	1997	3	0	-100	0	230	101300000	1000	0	0	-1	0
19345795	2002	4	0	-100	0	230	101300000	1000	0	0	-1	0
19358355	1993	0	0	-100	0	230	101300000	1000	0	0	-1	0
19370915	2006	0	0	-100	0	230	101300000	1000	0	0	-1	0
19383475	2006	0	0	-100	0	230	101300000	1000	0	0	-1	0
19396035	2002	0	0	-100	0	230	101300000	1000	0	0	-1	0
19408595	2004	1	0	-100	0	230	101300000	1000	0	0	-1	0
19421155	2003	2	0	-100	0	230	101300000	1000	0	0	-1	0
19433715	1996	0	0	-100	0	230	101300000	1000	0	0	-1	0
19446275	2006	0	0	-100	0	230	101300000	1000	0	0	-1	0
19458835	2002	0	0	-100	0	230	101300000	1000	0	0	-1	0
19471395	2002	1	0	-100	0	230	101300000	1000	0	0	-1	0
19483955	2002	4	0	-100	0	230	101300000	1000	0	0	-1	0
19496515	1996	0	0	-100	0	230	101300000	1000	0	0	-1	0
19509075	2007	0	0	-100	0	230	101300000	1000	0	0	-1	0
19521635	2005	0	0	-100	0	230	101300000	1000	0	0	-1	0
19534195	1999	0	0	-100	0	230	101300000	1000	0	0	-1	0
19546755	1999	3	0	-100	0	230	101300000	1000	0	0	-1	0
19559315	1995	1	0	-100	0	230	101300000	1000	0	0	-1	0
19571875	2001	0	0	-100	0	230	101300000	1000	0	0	-1	0
19584435	2006	0	0	-100	0	230	101300000	1000	0	0	-1	0
19596995	2001	4	0	-100	0	230	101300000	1000	0	0	-1	0
19609555	2004	2	0	-100	0	230	101300000	1000	0	0	-1	0
19622115	1997	2	0	-100	0	230	101300000	1000	0	0	-1	0
19634675	1999	0	0	-100	0	230	101300000	1000	0	0	-1	0
19647235	2004	0	0	-100	0	230	101300000	1000	0	0	-1	0
19659795	2001	0	0	-100	0	230	101300000	1000	0	0	-1	0
19672355	2002	0	0	-100	0	230	101300000	1000	0	0	-1	0
19684915	1999	2	0	-100	0	230	101300000	1000	0	0	-1	0
19697475	1996	0	0	-100	0	230	101300000	1000	0	0	-1	0
19710035	2004	0	0	-100	0	230	101300000	1000	0	0	-1	0
19722595	2004	0	0	-100	0	230	101300000	1000	0	0	-1	0
19735155	2004	1	0	-100	0	230	101300000	1000	0	0	-1	0
19747715	2004	4	0	-100	0	230	101300000	1000	0	0	-1	0
19760275	1993	0	0	-100	0	230	101300000	1000	0	0	-1	0
19772835	2004	0	0	-100	0	230	101300000	1000	0	0	-1	0
19785395	2007	0	0	-100	0	230	101300000	1000	0	0	-1	0
19797955	1997	0	0	-100	0	230	101300000	1000	0	0	-1	0
19810515	2001	3	0	-100	0	230	101300000	1000	0	0	-1	0
19823075	2001	4	0	-100	0	230	101300000	1000	0	0	-1	0
19835635	1996	0	0	-100	0	230	101300000	1000	0	0	-1	0
19848195	2009	0	0	-100	0	230	101300000	1000	0	0	-1	0
19860755	1999	0	0	-100	0	230	101300000	1000	0	0	-1	0
19873315	1997	3	0	-100	0	230	101300000	1000	0	0	-1	0
19885875	2002	0	0	-100	0	230	101300000	1000	0	0	-1	0
19898435	1993	0	0	-100	0	230	101300000	1000	0	0	-1	0
19910995	2001	0	0	-100	0	230	101300000	1000	0	0	-1	0
19923555	2002	0	0	-100	0	230	101300000	1000	0	0	-1	0
19936115	2000	0	0	-100	0	230	101300000	1000	0	0	-1	0
19948675	2008	0	0	-100	0	230	101300000	1000	0	0	-1	0
19961235	2004	0	0	-100	0	230	101300000	1000	0	0	-1	0
19973795	2001	0	0	-100	0	230	101300000	1000	0	0	-1	0
19986355	2009	0	0	-100	0	230	101300000	1000	0	0	-1	0
19998915	1997	0	0	-100	0	230	101300000	1000	0	0	-1	0
20011475	2002	4	0	-100	0	230	101300000	1000	0	0	-1	0
20024035	2000	0	0	-100	0	230	101300000	1000	0	0	-1	0
20036595	1996	0	0	-100	0	230	101300000	1000	0	0	-1	0
20049155	2011	0	0	-100	0	230	101300000	1000	0	0	-1	0
20061715	2003	0	0	-100	0	230	101300000	1000	0	0	-1	0
20074275	1996	1	0	-100	0	230	101300000	1000	0	0	-1	0
20086835	2001	3	0	-100	0	230	101300000	1000	0	0	-1	0
20099395	1994	0	0	-100	0	230	101300000	1000	0	0	-1	0
20111955	2006	0	0	-100	0	230	101300000	1000	0	0	-1	0
20124515	2006	0	0	-100	0	230	101300000	1000	0	0	-1	0
20137075	1997	0	0	-100	0	230	101300000	1000	0	0	-1	0
20149635	2003	3	0	-100	0	230	101300000	1000	0	0	-1	0
20162195	1999	4	0	-100	0	230	101300000	1000	0	0	-1	0
20174755	1995	0	0	-100	0	230	101300000	1000	0	0	-1	0
20187315	2000	0	0	-100	0	230	101300000	1000	0	0	-1	0
20199875	1991	0	0	-100	0	230	101300000	1000	0	0	-1	0
20212435	1999	0	0	-100	0	230	101300000	1000	0	0	-1	0
20224995	2001	0	0	-100	0	230	101300000	1000	0	0	-1	0
20237555	2001	0	0	-100	0	230	101300000	1000	0	0	-1	0
20250115	2005	0	0	-100	0	230	101300000	1000	0	0	-1	0
20262675	2004	0	0	-100	0	230	101300000	1000	0	0	-1	0
20275235	2004	0	0	-100	0	230	101300000	1000	0	0	-1	0
20287795	2004	0	0	-100	0	230	101300000	1000	0	0	-1	0
20300355	1994	4	0	-100	0	230	101300000	1000	0	0	-1	0
20312915	1995	0	0	-100	0	230	101300000	1000	0	0	-1	0
20325475	2003	0	0	-100	0	230	101300000	1000	0	0	-1	0
20338035	2001	0	0	-100	0	230	101300000	1000	0	0	-1	0
20350595	2005	0	0	-100	0	230	101300000	1000	0	0	-1	0
20363155	2011	0	0	-100	0	230	101300000	1000	0	0	-1	0
20375715	2005	0	0	-100	0	230	101300000	1000	0	0	-1	0
20388275	1999	0	0	-100	0	230	101300000	1000	0	0	-1	0
20400835	1994	5	0	-100	0	230	101300000	1000	0	0	-1	0
20413395	1996	0	0	-100	0	230	101300000	1000	0	0	-1	0
20425955	2005	0	0	-100	0	230	101300000	1000	0	0	-1	0
20438515	2001	0	0	-100	0	230	101300000	1000	0	0	-1	0
20451075	1999	1	0	-100	0	230	101300000	1000	0	0	-1	0
20463635	2001	5	0	-100	0	230	101300000	1000	0	0	-1	0
20476195	1997	0	0	-100	0	230	101300000	1000	0	0	-1	0
20488755	2005	0	0	-100	0	230	101300000	1000	0	0	-1	0
20501315	2001	0	0	-100	0	230	101300000	1000	0	0	-1	0
20513875	2004	0	0	-100	0	230	101300000	1000	0	0	-1	0
20526435	2008	0	0	-100	0	230	101300000	1000	0	0	-1	0
20538995	1997	0	0	-100	0	230	101300000	1000	0	0	-1	0
20551555	2000	3	0	-100	0	230	101300000	1000	0	0	-1	0
20564115	2004	0	0	-100	0	230	101300000	1000	0	0	-1	0
20576675	2003	0	0	-100	0	230	101300000	1000	0	0	-1	0
20589235	2001	2	0	-100	0	230	101300000	1000	0	0	-1	0
20601795	1999	0	0	-100	0	230	101300000	1000	0	0	-1	0
20614355	2001	0	0	-100	0	230	101300000	1000	0	0	-1	0
20626915	2005	0	0	-100	0	230	101300000	1000	0	0	-1	0
20639475	1994	4	0	-100	0	230	101300000	1000	0	0	-1	0
20652035	2000	0	0	-100	0	230	101300000	1000	0	0	-1	0
20664595	2005	0	0	-100	0	230	101300000	1000	0	0	-1	0
20677155	2001	2	0	-100	0	230	101300000	1000	0	0	-1	0
20689715	2004	0	0	-100	0	230	101300000	1000	0	0	-1	0
20702275	2005	0	0	-100	0	230	101300000	1000	0	0	-1	0
20714835	1997	2	0	-100	0	230	101300000	1000	0	0	-1	0
20727395	2001	0	0	-100	0	230	101300000	1000	0	0	-1	0
20739955	1998	0	0	-100	0	230	101300000	1000	0	0	-1	0
20752515	2002	0	0	-100	0	230	101300000	1000	0	0	-1	0
20765075	2002	4	0	-100	0	230	101300000	1000	0	0	-1	0
20777635	1998	0	0	-100	0	230	101300000	1000	0	0	-1	0
20790195	2008	0	0	-100	0	230	101300000	1000	0	0	-1	0
20802755	2000	0	0	-100	0	230	101300000	1000	0	0	-1	0
20815315	1999	0	0	-100	0	230	101300000	1000	0	0	-1	0
20827875	2006	0	0	-100	0	230	101300000	1000	0	0	-1	0
20840435	2003	0	0	-100	0	230	101300000	1000	0	0	-1	0
20852995	1998	0	0	-100	0	230	101300000	1000	0	0	-1	0
20865555	1999	4	0	-100	0	230	101300000	1000	0	0	-1	0
20878115	1996	0	0	-100	0	230	101300000	1000	0	0	-1	0
20890675	2008	0	0	-100	0	230	101300000	1000	0	0	-1	0
20903235	2000	0	0	-100	0	230	101300000	1000	0	0	-1	0
20915795	1997	3	0	-100	0	230	101300000	1000	0	0	-1	0
20928355	2003	0	0	-100	0	230	101300000	1000	0	0	-1	0
20940915	1999	0	0	-100	0	230	101300000	1000	0	0	-1	0
20953475	1994	0	0	-100	0	230	101300000	1000	0	0	-1	0
20966035	2002	0	0	-100	0	230	101300000	1000	0	0	-1	0
20978595	2001	0	0	-100	0	230	101300000	1000	0	0	-1	0
20991155	2008	1	0	-100	0	230	101300000	1000	0	0	-1	0
21003715	2004	0	0	-100	0	230	101300000	1000	0	0	-1	0
21016275	1999	1	0	-100	0	230	101300000	1000	0	0	-1	0
21028835	2002	0	0	-100	0	230	101300000	1000	0	0	-1	0
21041395	2004	0	0	-100	0	230	101300000	1000	0	0	-1	0
21053955	1998	4	0	-100	0	230	101300000	1000	0	0	-1	0
21066515	2001	0	0	-100	0	230	101300000	1000	0	0	-1	0
21079075	2000	0	0	-100	0	230	101300000	1000	0	0	-1	0
21091635	1999	2	0	-100	0	230	101300000	1000	0	0	-1	0
21104195	1998	0	0	-100	0	230	101300000	1000	0	0	-1	0
21116755	2002	0	0	-100	0	230	101300000	1000	0	0	-1	0
21129315	2008	0	0	-100	0	230	101300000	1000	0	0	-1	0
21141875	1997	1	0	-100	0	230	101300000	1000	0	0	-1	0
21154435	1997	0	0	-100	0	230	101300000	1000	0	0	-1	0
21166995	2005	0	0	-100	0	230	101300000	1000	0	0	-1	0
21179555	1999	0	0	-100	0	230	101300000	1000	0	0	-1	0
21192115	2002	4	0	-100	0	230	101300000	1000	0	0	-1	0
21204675	2004	0	0	-100	0	230	101300000	1000	0	0	-1	0
21217235	2002	0	0	-100	0	230	101300000	1000	0	0	-1	0
21229795	2003	4	0	-100	0	230	101300000	1000	0	0	-1	0
21242355	1999	0	0	-100	0	230	101300000	1000	0	0	-1	0
21254915	2004	0	0	-100	0	230	101300000	1000	0	0	-1	0
21267475	2000	1	0	-100	0	230	101300000	1000	0	0	-1	0
21280035	1997	0	0	-100	0	230	101300000	1000	0	0	-1	0
21292595	2004	0	0	-100	0	230	101300000	1000	0	0	-1	0
21305155	2014	0	0	-100	0	230	101300000	1000	0	0	-1	0
21317715	1994	1	0	-100	0	230	101300000	1000	0	0	-1	0
21330275	2002	0	0	-100	0	230	101300000	1000	0	0	-1	0
21342835	2004	0	0	-100	0	230	101300000	1000	0	0	-1	0
21355395	1999	0	0	-100	0	230	101300000	1000	0	0	-1	0
21367955	2002	3	0	-100	0	230	101300000	1000	0	0	-1	0
21380515	1994	0	0	-100	0	230	101300000	1000	0	0	-1	0
21393075	2004	0	0	-100	0	230	101300000	1000	0	0	-1	0
21405635	1999	2	0	-100	0	230	101300000	1000	0	0	-1	0
21418195	1997	0	0	-100	0	230	101300000	1000	0	0	-1	0
21430755	2007	0	0	-100	0	230	101300000	1000	0	0	-1	0
21443315	1997	4	0	-100	0	230	101300000	1000	0	0	-1	0
21455875	2001	0	0	-100	0	230	101300000	1000	0	0	-1	0
21468435	2008	0	0	-100	0	230	101300000	1000	0	0	-1	0
21480995	1997	0	0	-100	0	230	101300000	1000	0	0	-1	0
21493555	1996	0	0	-100	0	230	101300000	1000	0	0	-1	0
21506115	2008	0	0	-100	0	230	101300000	1000	0	0	-1	0
21518675	1999	0	0	-100	0	230	101300000	1000	0	0	-1	0
21531235	1999	3	0	-100	0	230	101300000	1000	0	0	-1	0
21543795	2002	0	0	-100	0	230	101300000	1000	0	0	-1	0
21556355	2004	0	0	-100	0	230	101300000	1000	0	0	-1	0
21568915	2002	0	0	-100	0	230	101300000	1000	0	0	-1	0
21581475	1999	4	0	-100	0	230	101300000	1000	0	0	-1	0
21594035	1999	0	0	-100	0	230	101300000	1000	0	0	-1	0
21606595	2009	0	0	-100	0	230	101300000	1000	0	0	-1	0
21619155	2000	1	0	-100	0	230	101300000	1000	0	0	-1	0
21631715	2001	0	0	-100	0	230	101300000	1000	0	0	-1	0
21644275	2004	0	0	-100	0	230	101300000	1000	0	0	-1	0
21656835	1999	0	0	-100	0	230	101300000	1000	0	0	-1	0
21669395	2001	4	0	-100	0	230	101300000	1000	0	0	-1	0
21681955	2003	0	0	-100	0	230	101300000	1000	0	0	-1	0
21694515	2000	0	0	-100	0	230	101300000	1000	0	0	-1	0
21707075	1999	0	0	-100	0	230	101300000	1000	0	0	-1	0
21719635	1997	0	0	-100	0	230	101300000	1000	0	0	-1	0
21732195	1999	2	0	-100	0	230	101300000	1000	0	0	-1	0
21744755	1999	0	0	-100	0	230	101300000	1000	0	0	-1	0
21757315	2003	0	0	-100	0	230	101300000	1000	0	0	-1	0
21769875	2003	5	0	-100	0	230	101300000	1000	0	0	-1	0
21782435	2004	0	0	-100	0	230	101300000	1000	0	0	-1	0
21794995	1999	0	0	-100	0	230	101300000	1000	0	0	-1	0
21807555	2001	2	0	-100	0	230	101300000	1000	0	0	-1	0
21820115	1999	0	0	-100	0	230	101300000	1000	0	0	-1	0
21832675	2005	0	0	-100	0	230	101300000	1000	0	0	-1	0
21845235	1999	0	0	-100	0	230	101300000	1000	0	0	-1	0
21857795	1994	4	0	-100	0	230	101300000	1000	0	0	-1	0
21870355	2004	1	0	-100	0	230	101300000	1000	0	0	-1	0
21882915	1998	0	0	-100	0	230	101300000	1000	0	0	-1	0
21895475	2002	0	0	-100	0	230	101300000	1000	0	0	-1	0
21908035	2010	0	0	-100	0	230	101300000	1000	0	0	-1	0
21920595	1996	0	0	-100	0	230	101300000	1000	0	0	-1	0
21933155	2005	2	0	-100	0	230	101300000	1000	0	0	-1	0
21945715	1998	0	0	-100	0	230	101300000	1000	0	0	-1	0
21958275	1998	0	0	-100	0	230	101300000	1000	0	0	-1	0
21970835	2009	0	0	-100	0	230	101300000	1000	0	0	-1	0
21983395	2000	3	0	-100	0	230	101300000	1000	0	0	-1	0
21995955	1996	0	0	-100	0	230	101300000	1000	0	0	-1	0
22008515	2008	0	0	-100	0	230	101300000	1000	0	0	-1	0
22021075	2001	0	0	-100	0	230	101300000	1000	0	0	-1	0
22033635	1999	4	0	-100	0	230	101300000	1000	0	0	-1	0
22046195	1998	0	0	-100	0	230	101300000	1000	0	0	-1	0
22058755	2000	0	0	-100	0	230	101300000	1000	0	0	-1	0
22071315	2004	0	0	-100	0	230	101300000	1000	0	0	-1	0
22083875	2000	4	0	-100	0	230	101300000	1000	0	0	-1	0
22096435	1995	0	0	-100	0	230	101300000	1000	0	0	-1	0
22108995	2007	0	0	-100	0	230	101300000	1000	0	0	-1	0
22121555	2002	0	0	-100	0	230	101300000	1000	0	0	-1	0
22134115	1997	3	0	-100	0	230	101300000	1000	0	0	-1	0
22146675	2001	0	0	-100	0	230	101300000	1000	0	0	-1	0
22159235	1999	0	0	-100	0	230	101300000	1000	0	0	-1	0
22171795	2005	0	0	-100	0	230	101300000	1000	0	0	-1	0
22184355	2000	0	0	-100	0	230	101300000	1000	0	0	-1	0
22196915	1997	3	0	-100	0	230	101300000	1000	0	0	-1	0
22209475	2004	2	0	-100	0	230	101300000	1000	0	0	-1	0
22222035	1997	0	0	-100	0	230	101300000	1000	0	0	-1	0
22234595	1999	0	0	-100	0	230	101300000	1000	0	0	-1	0
22247155	2007	0	0	-100	0	230	101300000	1000	0	0	-1	0
22259715	1998	0	0	-100	0	230	101300000	1000	0	0	-1	0
22272275	2005	0	0	-100	0	230	101300000	1000	0	0	-1	0
22284835	2005	0	0	-100	0	230	101300000	1000	0	0	-1	0
22297395	2003	0	0	-100	0	230	101300000	1000	0	0	-1	0
22309955	2008	0	0	-100	0	230	101300000	1000	0	0	-1	0
22322515	1997	2	0	-100	0	230	101300000	1000	0	0	-1	0
22335075	1996	0	0	-100	0	230	101300000	1000	0	0	-1	0
22347635	2004	0	0	-100	0	230	101300000	1000	0	0	-1	0
22360195	2000	0	0	-100	0	230	101300000	1000	0	0	-1	0
22372755	2004	0	0	-100	0	230	101300000	1000	0	0	-1	0
22385315	2002	0	0	-100	0	230	101300000	1000	0	0	-1	0
22397875	1994	2	0	-100	0	230	101300000	1000	0	0	-1	0
22410435	2001	4	0	-100	0	230	101300000	1000	0	0	-1	0
22422995	2002	0	0	-100	0	230	101300000	1000	0	0	-1	0
22435555	1999	0	0	-100	0	230	101300000	1000	0	0	-1	0
22448115	2007	0	0	-100	0	230	101300000	1000	0	0	-1	0
22460675	1994	0	0	-100	0	230	101300000	1000	0	0	-1	0
22473235	1999	4	0	-100	0	230	101300000	1000	0	0	-1	0
22485795	1999	0	0	-100	0	230	101300000	1000	0	0	-1	0
22498355	2001	0	0	-100	0	230	101300000	1000	0	0	-1	0
22510915	2007	0	0	-100	0	230	101300000	1000	0	0	-1	0
22523475	1999	1	0	-100	0	230	101300000	1000	0	0	-1	0
22536035	1999	4	0	-100	0	230	101300000	1000	0	0	-1	0
22548595	2000	0	0	-100	0	230	101300000	1000	0	0	-1	0
22561155	2005	0	0	-100	0	230	101300000	1000	0	0	-1	0
22573715	1999	0	0	-100	0	230	101300000	1000	0	0	-1	0
22586275	2000	3	0	-100	0	230	101300000	1000	0	0	-1	0
22598835	1998	0	0	-100	0	230	101300000	1000	0	0	-1	0
22611395	2007	0	0	-100	0	230	101300000	1000	0	0	-1	0
22623955	2002	2	0	-100	0	230	101300000	1000	0	0	-1	0
22636515	1999	0	0	-100	0	230	101300000	1000	0	0	-1	0
22649075	2011	0	0	-100	0	230	101300000	1000	0	0	-1	0
22661635	1997	3	0	-100	0	230	101300000	1000	0	0	-1	0
22674195	1996	0	0	-100	0	230	101300000	1000	0	0	-1	0
22686755	2001	0	0	-100	0	230	101300000	1000	0	0	-1	0
22699315	1999	0	0	-100	0	230	101300000	1000	0	0	-1	0
22711875	2002	0	0	-100	0	230	101300000	1000	0	0	-1	0
22724435	1999	3	0	-100	0	230	101300000	1000	0	0	-1	0
22736995	1997	0	0	-100	0	230	101300000	1000	0	0	-1	0
22749555	2008	0	0	-100	0	230	101300000	1000	0	0	-1	0
22762115	2001	0	0	-100	0	230	101300000	1000	0	0	-1	0
22774675	1997	0	0	-100	0	230	101300000	1000	0	0	-1	0
22787235	2001	0	0	-100	0	230	101300000	1000	0	0	-1	0
22799795	1996	0	0	-100	0	230	101300000	1000	0	0	-1	0
22812355	2003	0	0	-100	0	230	101300000	1000	0	0	-1	0
22824915	2002	0	0	-100	0	230	101300000	1000	0	0	-1	0
22837475	2004	0	0	-100	0	230	101300000	1000	0	0	-1	0
22850035	2008	0	0	-100	0	230	101300000	1000	0	0	-1	0
22862595	2001	0	0	-100	0	230	101300000	1000	0	0	-1	0
22875155	2004	0	0	-100	0	230	101300000	1000	0	0	-1	0
22887715	2001	2	0	-100	0	230	101300000	1000	0	0	-1	0
22900275	1996	3	0	-100	0	230	101300000	1000	0	0	-1	0
22912835	2001	1	0	-100	0	230	101300000	1000	0	0	-1	0
22925395	1999	0	0	-100	0	230	101300000	1000	0	0	-1	0
22937955	1994	0	0	-100	0	230	101300000	1000	0	0	-1	0
22950515	2003	0	0	-100	0	230	101300000	1000	0	0	-1	0
22963075	1998	0	0	-100	0	230	101300000	1000	0	0	-1	0
22975635	1999	1	0	-100	0	230	101300000	1000	0	0	-1	0
22988195	2004	1	0	-100	0	230	101300000	1000	0	0	-1	0
23000755	1996	5	0	-100	0	230	101300000	1000	0	0	-1	0
23013315	1996	4	0	-100	0	230	101300000	1000	0	0	-1	0
23025875	1999	4	0	-100	0	230	101300000	1000	0	0	-1	0
23038435	1994	3	0	-100	0	230	101300000	1000	0	0	-1	0
23050995	2002	0	0	-100	0	230	101300000	1000	0	0	-1	0
23063555	2002	3	0	-100	0	230	101300000	1000	0	0	-1	0
23076115	1996	0	0	-100	0	230	101300000	1000	0	0	-1	0
23088675	2001	0	0	-100	0	230	101300000	1000	0	0	-1	0
23101235	1995	0	0	-100	0	230	101300000	1000	0	0	-1	0
23113795	1999	4	0	-100	0	230	101300000	1000	0	0	-1	0
23126355	1999	3	0	-100	0	230	101300000	1000	0	0	-1	0
23138915	1993	3	0	-100	0	230	101300000	1000	0	0	-1	0
23151475	2000	3	0	-100	0	230	101300000	1000	0	0	-1	0
23164035	1999	4	0	-100	0	230	101300000	1000	0	0	-1	0
23176595	1997	4	0	-100	0	230	101300000	1000	0	0	-1	0
23189155	2009	0	0	-100	0	230	101300000	1000	0	0	-1	0
23201715	1994	0	0	-100	0	230	101300000	1000	0	0	-1	0
23214275	1997	0	0	-100	0	230	101300000	1000	0	0	-1	0
23226835	1999	0	0	-100	0	230	101300000	1000	0	0	-1	0
23239395	1999	0	0	-100	0	230	101300000	1000	0	0	-1	0
23251955	2006	0	0	-100	0	230	101300000	1000	0	0	-1	0
23264515	2002	0	0	-100	0	230	101300000	1000	0	0	-1	0
23277075	1999	0	0	-100	0	230	101300000	1000	0	0	-1	0
23289635	2001	0	0	-100	0	230	101300000	1000	0	0	-1	0
23302195	2002	1	0	-100	0	230	101300000	1000	0	0	-1	0
23314755	1997	2	0	-100	0	230	101300000	1000	0	0	-1	0
23327315	1998	0	0	-100	0	230	101300000	1000	0	0	-1	0
23339875	1993	0	0	-100	0	230	101300000	1000	0	0	-1	0
23352435	2001	4	0	-100	0	230	101300000	1000	0	0	-1	0
23364995	2002	0	0	-100	0	230	101300000	1000	0	0	-1	0
23377555	1998	3	0	-100	0	230	101300000	1000	0	0	-1	0
23390115	2004	4	0	-100	0	230	101300000	1000	0	0	-1	0
23402675	1999	3	0	-100	0	230	101300000	1000	0	0	-1	0
23415235	1999	0	0	-100	0	230	101300000	1000	0	0	-1	0
23427795	1999	0	0	-100	0	230	101300000	1000	0	0	-1	0
23440355	1996	0	0	-100	0	230	101300000	1000	0	0	-1	0
23452915	2004	0	0	-100	0	230	101300000	1000	0	0	-1	0
23465475	2002	0	0	-100	0	230	101300000	1000	0	0	-1	0
23478035	1994	2	0	-100	0	230	101300000	1000	0	0	-1	0
23490595	2004	3	0	-100	0	230	101300000	1000	0	0	-1	0
23503155	2002	0	0	-100	0	230	101300000	1000	0	0	-1	0
23515715	1996	0	0	-100	0	230	101300000	1000	0	0	-1	0
23528275	2008	0	0	-100	0	230	101300000	1000	0	0	-1	0
23540835	2001	0	0	-100	0	230	101300000	1000	0	0	-1	0
23553395	1997	0	0	-100	0	230	101300000	1000	0	0	-1	0
23565955	2001	4	0	-100	0	230	101300000	1000	0	0	-1	0
23578515	1994	0	0	-100	0	230	101300000	1000	0	0	-1	0
23591075	2006	0	0	-100	0	230	101300000	1000	0	0	-1	0
23603635	2005	0	0	-100	0	230	101300000	1000	0	0	-1	0
23616195	2002	0	0	-100	0	230	101300000	1000	0	0	-1	0
23628755	2002	0	0	-100	0	230	101300000	1000	0	0	-1	0
23641315	1994	2	0	-100	0	230	101300000	1000	0	0	-1	0
23653875	1997	3	0	-100	0	230	101300000	1000	0	0	-1	0
23666435	2000	3	0	-100	0	230	101300000	1000	0	0	-1	0
23678995	1995	0	0	-100	0	230	101300000	1000	0	0	-1	0
23691555	2002	0	0	-100	0	230	101300000	1000	0	0	-1	0
23704115	2001	0	0	-100	0	230	101300000	1000	0	0	-1	0
23716675	2001	0	0	-100	0	230	101300000	1000	0	0	-1	0
23729235	2011	0	0	-100	0	230	101300000	1000	0	0	-1	0
23741795	1997	0	0	-100	0	230	101300000	1000	0	0	-1	0
23754355	1999	2	0	-100	0	230	101300000	1000	0	0	-1	0
23766915	1999	4	0	-100	0	230	101300000	1000	0	0	-1	0
23779475	1991	0	0	-100	0	230	101300000	1000	0	0	-1	0
23792035	1996	0	0	-100	0	230	101300000	1000	0	0	-1	0
23804595	2001	0	0	-100	0	230	101300000	1000	0	0	-1	0
23817155	2008	0	0	-100	0	230	101300000	1000	0	0	-1	0
23829715	2008	0	0	-100	0	230	101300000	1000	0	0	-1	0
23842275	1999	2	0	-100	0	230	101300000	1000	0	0	-1	0
23854835	1999	4	0	-100	0	230	101300000	1000	0	0	-1	0
23867395	1998	0	0	-100	0	230	101300000	1000	0	0	-1	0
23879955	1998	0	0	-100	0	230	101300000	1000	0	0	-1	0
23892515	2004	0	0	-100	0	230	101300000	1000	0	0	-1	0
23905075	2001	4	0	-100	0	230	101300000	1000	0	0	-1	0
23917635	1997	2	0	-100	0	230	101300000	1000	0	0	-1	0
23930195	2002	0	0	-100	0	230	101300000	1000	0	0	-1	0
23942755	2003	0	0	-100	0	230	101300000	1000	0	0	-1	0
23955315	2004	0	0	-100	0	230	101300000	1000	0	0	-1	0
23967875	2007	0	0	-100	0	230	101300000	1000	0	0	-1	0
23980435	1999	0	0	-100	0	230	101300000	1000	0	0	-1	0
23992995	1999	0	0	-100	0	230	101300000	1000	0	0	-1	0
24005555	1997	2	0	-100	0	230	101300000	1000	0	0	-1	0
24018115	1996	0	0	-100	0	230	101300000	1000	0	0	-1	0
24030675	2003	0	0	-100	0	230	101300000	1000	0	0	-1	0
24043235	2004	0	0	-100	0	230	101300000	1000	0	0	-1	0
24055795	2003	0	0	-100	0	230	101300000	1000	0	0	-1	0
24068355	2008	0	0	-100	0	230	101300000	1000	0	0	-1	0
24080915	1997	0	0	-100	0	230	101300000	1000	0	0	-1	0
24093475	1994	1	0	-100	0	230	101300000	1000	0	0	-1	0
24106035	2002	5	0	-100	0	230	101300000	1000	0	0	-1	0
24118595	1993	0	0	-100	0	230	101300000	1000	0	0	-1	0
24131155	2011	0	0	-100	0	230	101300000	1000	0	0	-1	0
24143715	2002	0	0	-100	0	230	101300000	1000	0	0	-1	0
24156275	1999	0	0	-100	0	230	101300000	1000	0	0	-1	0
24168835	2001	0	0	-100	0	230	101300000	1000	0	0	-1	0
24181395	1997	4	0	-100	0	230	101300000	1000	0	0	-1	0
24193955	1999	0	0	-100	0	230	101300000	1000	0	0	-1	0
24206515	2001	0	0	-100	0	230	101300000	1000	0	0	-1	0
24219075	1993	0	0	-100	0	230	101300000	1000	0	0	-1	0
24231635	1999	0	0	-100	0	230	101300000	1000	0	0	-1	0
24244195	1997	0	0	-100	0	230	101300000	1000	0	0	-1	0
24256755	1996	0	0	-100	0	230	101300000	1000	0	0	-1	0
24269315	2004	0	0	-100	0	230	101300000	1000	0	0	-1	0
24281875	1998	4	0	-100	0	230	101300000	1000	0	0	-1	0
24294435	1996	4	0	-100	0	230	101300000	1000	0	0	-1	0
24306995	2001	0	0	-100	0	230	101300000	1000	0	0	-1	0
24319555	1996	4	0	-100	0	230	101300000	1000	0	0	-1	0
24332115	1998	0	0	-100	0	230	101300000	1000	0	0	-1	0
24344675	1996	0	0	-100	0	230	101300000	1000	0	0	-1	0
24357235	1996	0	0	-100	0	230	101300000	1000	0	0	-1	0
24369795	2002	0	0	-100	0	230	101300000	1000	0	0	-1	0
24382355	1997	0	0	-100	0	230	101300000	1000	0	0	-1	0
24394915	1998	0	0	-100	0	230	101300000	1000	0	0	-1	0
24407475	2001	0	0	-100	0	230	101300000	1000	0	0	-1	0
24420035	1996	0	0	-100	0	230	101300000	1000	0	0	-1	0
24432595	2006	0	0	-100	0	230	101300000	1000	0	0	-1	0
24445155	2010	0	0	-100	0	230	101300000	1000	0	0	-1	0
24457715	1998	0	0	-100	0	230	101300000	1000	0	0	-1	0
24470275	2005	0	0	-100	0	230	101300000	1000	0	0	-1	0
24482835	2003	0	0	-100	0	230	101300000	1000	0	0	-1	0
24495395	2001	0	0	-100	0	230	101300000	1000	0	0	-1	0
24507955	2006	0	0	-100	0	230	101300000	1000	0	0	-1	0
24520515	2001	0	0	-100	0	230	101300000	1000	0	0	-1	0
24533075	2005	0	0	-100	0	230	101300000	1000	0	0	-1	0
24545635	2005	0	0	-100	0	230	101300000	1000	0	0	-1	0
24558195	2000	0	0	-100	0	230	101300000	1000	0	0	-1	0
24570755	2008	0	0	-100	0	230	101300000	1000	0	0	-1	0
24583315	2001	0	0	-100	0	230	101300000	1000	0	0	-1	0
24595875	2005	0	0	-100	0	230	101300000	1000	0	0	-1	0
24608435	2009	0	0	-100	0	230	101300000	1000	0	0	-1	0
24620995	1998	0	0	-100	0	230	101300000	1000	0	0	-1	0
24633555	1999	0	0	-100	0	230	101300000	1000	0	0	-1	0
24646115	2001	0	0	-100	0	230	101300000	1000	0	0	-1	0
24658675	1996	2	0	-100	0	230	101300000	1000	0	0	-1	0
24671235	2001	4	0	-100	0	230	101300000	1000	0	0	-1	0
24683795	1996	4	0	-100	0	230	101300000	1000	0	0	-1	0
24696355	1997	2	0	-100	0	230	101300000	1000	0	0	-1	0
24708915	2006	3	0	-100	0	230	101300000	1000	0	0	-1	0
24721475	1995	0	0	-100	0	230	101300000	1000	0	0	-1	0
24734035	2004	0	0	-100	0	230	101300000	1000	0	0	-1	0
24746595	2006	0	0	-100	0	230	101300000	1000	0	0	-1	0
24759155	2007	0	0	-100	0	230	101300000	1000	0	0	-1	0
24771715	2013	0	0	-100	0	230	101300000	1000	0	0	-1	0
24784275	2006	0	0	-100	0	230	101300000	1000	0	0	-1	0
24796835	2001	0	0	-100	0	230	101300000	1000	0	0	-1	0
24809395	2007	0	0	-100	0	230	101300000	1000	0	0	-1	0
24821955	1999	0	0	-100	0	230	101300000	1000	0	0	-1	0
24834515	1996	0	0	-100	0	230	101300000	1000	0	0	-1	0
24847075	2001	0	0	-100	0	230	101300000	1000	0	0	-1	0
24859635	1991	0	0	-100	0	230	101300000	1000	0	0	-1	0
24872195	2000	2	0	-100	0	230	101300000	1000	0	0	-1	0
24884755	2001	4	0	-100	0	230	101300000	1000	0	0	-1	0
24897315	1996	4	0	-100	0	230	101300000	1000	0	0	-1	0
24909875	2005	0	0	-100	0	230	101300000	1000	0	0	-1	0
24922435	1999	3	0	-100	0	230	101300000	1000	0	0	-1	0
24934995	1996	0	0	-100	0	230	101300000	1000	0	0	-1	0
24947555	2002	0	0	-100	0	230	101300000	1000	0	0	-1	0
24960115	2001	0	0	-100	0	230	101300000	1000	0	0	-1	0
24972675	2005	0	0	-100	0	230	101300000	1000	0	0	-1	0
24985235	2002	0	0	-100	0	230	101300000	1000	0	0	-1	0
24997795	1995	2	0	-100	0	230	101300000	1000	0	0	-1	0
25010355	2004	0	0	-100	0	230	101300000	1000	0	0	-1	0
25022915	2001	0	0	-100	0	230	101300000	1000	0	0	-1	0
25035475	2005	0	0	-100	0	230	101300000	1000	0	0	-1	0
25048035	2002	0	0	-100	0	230	101300000	1000	0	0	-1	0
25060595	1991	2	0	-100	0	230	101300000	1000	0	0	-1	0
25073155	2005	2	0	-100	0	230	101300000	1000	0	0	-1	0
25085715	1998	0	0	-100	0	230	101300000	1000	0	0	-1	0
25098275	1996	0	0	-100	0	230	101300000	1000	0	0	-1	0
25110835	2007	0	0	-100	0	230	101300000	1000	0	0	-1	0
25123395	2008	0	0	-100	0	230	101300000	1000	0	0	-1	0
25135955	2003	0	0	-100	0	230	101300000	1000	0	0	-1	0
25148515	2001	0	0	-100	0	230	101300000	1000	0	0	-1	0
25161075	1994	0	0	-100	0	230	101300000	1000	0	0	-1	0
25173635	1997	3	0	-100	0	230	101300000	1000	0	0	-1	0
25186195	1998	0	0	-100	0	230	101300000	1000	0	0	-1	0
25198755	1994	0	0	-100	0	230	101300000	1000	0	0	-1	0
25211315	2007	0	0	-100	0	230	101300000	1000	0	0	-1	0
25223875	2007	0	0	-100	0	230	101300000	1000	0	0	-1	0
25236435	2004	0	0	-100	0	230	101300000	1000	0	0	-1	0
25248995	2002	0	0	-100	0	230	101300000	1000	0	0	-1	0
25261555	1997	3	0	-100	0	230	101300000	1000	0	0	-1	0
25274115	2001	4	0	-100	0	230	101300000	1000	0	0	-1	0
25286675	2003	2	0	-100	0	230	101300000	1000	0	0	-1	0
25299235	1997	2	0	-100	0	230	101300000	1000	0	0	-1	0
25311795	2004	4	0	-100	0	230	101300000	1000	0	0	-1	0
25324355	1999	4	0	-100	0	230	101300000	1000	0	0	-1	0
25336915	1999	0	0	-100	0	230	101300000	1000	0	0	-1	0
25349475	2001	0	0	-100	0	230	101300000	1000	0	0	-1	0
25362035	1998	0	0	-100	0	230	101300000	1000	0	0	-1	0
25374595	2002	0	0	-100	0	230	101300000	1000	0	0	-1	0
25387155	2011	0	0	-100	0	230	101300000	1000	0	0	-1	0
25399715	1999	0	0	-100	0	230	101300000	1000	0	0	-1	0
25412275	2005	0	0	-100	0	230	101300000	1000	0	0	-1	0
25424835	2005	0	0	-100	0	230	101300000	1000	0	0	-1	0
25437395	2004	0	0	-100	0	230	101300000	1000	0	0	-1	0
25449955	2011	0	0	-100	0	230	101300000	1000	0	0	-1	0
25462515	2004	0	0	-100	0	230	101300000	1000	0	0	-1	0
25475075	2003	0	0	-100	0	230	101300000	1000	0	0	-1	0
25487635	2004	0	0	-100	0	230	101300000	1000	0	0	-1	0
25500195	1996	0	0	-100	0	230	101300000	1000	0	0	-1	0
25512755	1999	0	0	-100	0	230	101300000	1000	0	0	-1	0
25525315	1999	0	0	-100	0	230	101300000	1000	0	0	-1	0
25537875	1996	0	0	-100	0	230	101300000	1000	0	0	-1	0
25550435	2001	0	0	-100	0	230	101300000	1000	0	0	-1	0
25562995	1996	0	0	-100	0	230	101300000	1000	0	0	-1	0
25575555	1994	0	0	-100	0	230	101300000	1000	0	0	-1	0
25588115	2001	0	0	-100	0	230	101300000	1000	0	0	-1	0
25600675	1993	0	0	-100	0	230	101300000	1000	0	0	-1	0
25613235	2002	4	0	-100	0	230	101300000	1000	0	0	-1	0
25625795	2001	4	0	-100	0	230	101300000	1000	0	0	-1	0
25638355	1997	0	0	-100	0	230	101300000	1000	0	0	-1	0
25650915	2008	0	0	-100	0	230	101300000	1000	0	0	-1	0
25663475	2004	0	0	-100	0	230	101300000	1000	0	0	-1	0
25676035	2002	0	0	-100	0	230	101300000	1000	0	0	-1	0
25688595	2002	0	0	-100	0	230	101300000	1000	0	0	-1	0
25701155	2002	0	0	-100	0	230	101300000	1000	0	0	-1	0
25713715	1996	2	0	-100	0	230	101300000	1000	0	0	-1	0
25726275	2011	0	0	-100	0	230	101300000	1000	0	0	-1	0
25738835	2001	0	0	-100	0	230	101300000	1000	0	0	-1	0
25751395	2007	0	0	-100	0	230	101300000	1000	0	0	-1	0
25763955	2002	0	0	-100	0	230	101300000	1000	0	0	-1	0
25776515	2001	4	0	-100	0	230	101300000	1000	0	0	-1	0
25789075	2007	0	0	-100	0	230	101300000	1000	0	0	-1	0
25801635	1996	0	0	-100	0	230	101300000	1000	0	0	-1	0
25814195	2005	0	0	-100	0	230	101300000	1000	0	0	-1	0
25826755	2001	0	0	-100	0	230	101300000	1000	0	0	-1	0
25839315	1993	1	0	-100	0	230	101300000	1000	0	0	-1	0
25851875	2004	0	0	-100	0	230	101300000	1000	0	0	-1	0
25864435	2000	3	0	-100	0	230	101300000	1000	0	0	-1	0
25876995	2002	4	0	-100	0	230	101300000	1000	0	0	-1	0
25889555	2006	0	0	-100	0	230	101300000	1000	0	0	-1	0
25902115	1997	4	0	-100	0	230	101300000	1000	0	0	-1	0
25914675	2005	0	0	-100	0	230	101300000	1000	0	0	-1	0
25927235	2001	0	0	-100	0	230	101300000	1000	0	0	-1	0
25939795	1994	2	0	-100	0	230	101300000	1000	0	0	-1	0
25952355	2005	0	0	-100	0	230	101300000	1000	0	0	-1	0
25964915	2002	0	0	-100	0	230	101300000	1000	0	0	-1	0
25977475	1997	1	0	-100	0	230	101300000	1000	0	0	-1	0
25990035	2008	0	0	-100	0	230	101300000	1000	0	0	-1	0
26002595	1999	0	0	-100	0	230	101300000	1000	0	0	-1	0
26015155	2005	2	0	-100	0	230	101300000	1000	0	0	-1	0
26027715	2002	0	0	-100	0	230	101300000	1000	0	0	-1	0
26040275	2001	0	0	-100	0	230	101300000	1000	0	0	-1	0
26052835	2002	3	0	-100	0	230	101300000	1000	0	0	-1	0
26065395	2006	0	0	-100	0	230	101300000	1000	0	0	-1	0
26077955	1997	0	0	-100	0	230	101300000	1000	0	0	-1	0
26090515	2002	1	0	-100	0	230	101300000	1000	0	0	-1	0
26103075	2001	0	0	-100	0	230	101300000	1000	0	0	-1	0
26115635	1997	4	0	-100	0	230	101300000	1000	0	0	-1	0
26128195	2002	0	0	-100	0	230	101300000	1000	0	0	-1	0
26140755	2002	0	0	-100	0	230	101300000	1000	0	0	-1	0
26153315	1998	0	0	-100	0	230	101300000	1000	0	0	-1	0
26165875	1997	3	0	-100	0	230	101300000	1000	0	0	-1	0
26178435	1998	0	0	-100	0	230	101300000	1000	0	0	-1	0
26190995	2006	0	0	-100	0	230	101300000	1000	0	0	-1	0
26203555	1999	4	0	-100	0	230	101300000	1000	0	0	-1	0
26216115	2007	0	0	-100	0	230	101300000	1000	0	0	-1	0
26228675	2004	0	0	-100	0	230	101300000	1000	0	0	-1	0
26241235	1995	2	0	-100	0	230	101300000	1000	0	0	-1	0
26253795	2002	0	0	-100	0	230	101300000	1000	0	0	-1	0
26266355	2002	4	0	-100	0	230	101300000	1000	0	0	-1	0
26278915	1994	0	0	-100	0	230	101300000	1000	0	0	-1	0
26291475	2006	0	0	-100	0	230	101300000	1000	0	0	-1	0
26304035	1999	3	0	-100	0	230	101300000	1000	0	0	-1	0
26316595	2004	0	0	-100	0	230	101300000	1000	0	0	-1	0
26329155	2005	0	0	-100	0	230	101300000	1000	0	0	-1	0
26341715	1995	0	0	-100	0	230	101300000	1000	0	0	-1	0
26354275	2003	0	0	-100	0	230	101300000	1000	0	0	-1	0
26366835	2002	3	0	-100	0	230	101300000	1000	0	0	-1	0
26379395	1999	0	0	-100	0	230	101300000	1000	0	0	-1	0
26391955	2001	0	0	-100	0	230	101300000	1000	0	0	-1	0
26404515	1999	0	0	-100	0	230	101300000	1000	0	0	-1	0
26417075	2004	0	0	-100	0	230	101300000	1000	0	0	-1	0
26429635	2005	4	0	-100	0	230	101300000	1000	0	0	-1	0
26442195	2004	0	0	-100	0	230	101300000	1000	0	0	-1	0
26454755	1996	0	0	-100	0	230	101300000	1000	0	0	-1	0
26467315	2002	0	0	-100	0	230	101300000	1000	0	0	-1	0
26479875	1994	0	0	-100	0	230	101300000	1000	0	0	-1	0
26492435	1998	1	0	-100	0	230	101300000	1000	0	0	-1	0
26504995	2004	0	0	-100	0	230	101300000	1000	0	0	-1	0
26517555	1997	2	0	-100	0	230	101300000	1000	0	0	-1	0
26530115	2009	0	0	-100	0	230	101300000	1000	0	0	-1	0
26542675	1999	4	0	-100	0	230	101300000	1000	0	0	-1	0
26555235	2004	0	0	-100	0	230	101300000	1000	0	0	-1	0
26567795	1999	0	0	-100	0	230	101300000	1000	0	0	-1	0
26580355	1995	0	0	-100	0	230	101300000	1000	0	0	-1	0
26592915	2001	0	0	-100	0	230	101300000	1000	0	0	-1	0
26605475	1999	2	0	-100	0	230	101300000	1000	0	0	-1	0
26618035	2001	0	0	-100	0	230	101300000	1000	0	0	-1	0
26630595	2001	0	0	-100	0	230	101300000	1000	0	0	-1	0
26643155	2008	0	0	-100	0	230	101300000	1000	0	0	-1	0
26655715	1999	0	0	-100	0	230	101300000	1000	0	0	-1	0
26668275	2001	1	0	-100	0	230	101300000	1000	0	0	-1	0
26680835	1994	0	0	-100	0	230	101300000	1000	0	0	-1	0
26693395	2000	0	0	-100	0	230	101300000	1000	0	0	-1	0
26705955	2002	0	0	-100	0	230	101300000	1000	0	0	-1	0
26718515	1999	0	0	-100	0	230	101300000	1000	0	0	-1	0
26731075	2001	0	0	-100	0	230	101300000	1000	0	0	-1	0
26743635	1999	0	0	-100	0	230	101300000	1000	0	0	-1	0
26756195	1997	0	0	-100	0	230	101300000	1000	0	0	-1	0
26768755	2002	0	0	-100	0	230	101300000	1000	0	0	-1	0
26781315	1996	0	0	-100	0	230	101300000	1000	0	0	-1	0
26793875	2003	0	0	-100	0	230	101300000	1000	0	0	-1	0
26806435	1998	0	0	-100	0	230	101300000	1000	0	0	-1	0
26818995	2002	4	0	-100	0	230	101300000	1000	0	0	-1	0
26831555	2003	0	0	-100	0	230	101300000	1000	0	0	-1	0
26844115	1997	1	0	-100	0	230	101300000	1000	0	0	-1	0
26856675	2002	0	0	-100	0	230	101300000	1000	0	0	-1	0
26869235	2004	1	0	-100	0	230	101300000	1000	0	0	-1	0
26881795	2001	0	0	-100	0	230	101300000	1000	0	0	-1	0
26894355	1998	0	0	-100	0	230	101300000	1000	0	0	-1	0
26906915	2004	0	0	-100	0	230	101300000	1000	0	0	-1	0
26919475	1994	0	0	-100	0	230	101300000	1000	0	0	-1	0
26932035	2001	0	0	-100	0	230	101300000	1000	0	0	-1	0
26944595	2001	0	0	-100	0	230	101300000	1000	0	0	-1	0
26957155	2002	2	0	-100	0	230	101300000	1000	0	0	-1	0
26969715	2007	0	0	-100	0	230	101300000	1000	0	0	-1	0
26982275	2000	0	0	-100	0	230	101300000	1000	0	0	-1	0
26994835	1997	0	0	-100	0	230	101300000	1000	0	0	-1	0
27007395	2002	4	0	-100	0	230	101300000	1000	0	0	-1	0
27019955	1995	2	0	-100	0	230	101300000	1000	0	0	-1	0
27032515	2001	0	0	-100	0	230	101300000	1000	0	0	-1	0
27045075	2004	0	0	-100	0	230	101300000	1000	0	0	-1	0
