timestamp	voltage	current	windSpeed	pitchAngle	rpm	temperature	ambientPressure	humidity	accelerationX	accelerationY	accelerationZ	currentSink
7042070	2506	4	0	-100	0	230	101300000	1000	0	0	-1	0
7049523	2506	0	0	-100	0	230	101300000	1000	0	0	-1	0
7062083	2505	0	0	-100	0	230	101300000	1000	0	0	-1	0
7074643	2511	0	0	-100	0	230	101300000	1000	0	0	-1	0
7087203	2516	0	0	-100	0	230	101300000	1000	0	0	-1	0
7099763	2510	0	0	-100	0	230	101300000	1000	0	0	-1	0
7112323	2516	0	0	-100	0	230	101300000	1000	0	0	-1	0
7124883	2510	0	0	-100	0	230	101300000	1000	0	0	-1	0
7137443	2505	1	0	-100	0	230	101300000	1000	0	0	-1	0
7150004	2509	0	0	-100	0	230	101300000	1000	0	0	-1	0
7162563	2506	4	0	-100	0	230	101300000	1000	0	0	-1	0
7175123	2504	0	0	-100	0	230	101300000	1000	0	0	-1	0
7187683	2508	0	0	-100	0	230	101300000	1000	0	0	-1	0
7200243	2509	0	0	-100	0	230	101300000	1000	0	0	-1	0
7212803	2504	0	0	-100	0	230	101300000	1000	0	0	-1	0
7225363	2508	0	0	-100	0	230	101300000	1000	0	0	-1	0
7237923	2506	0	0	-100	0	230	101300000	1000	0	0	-1	0
7250483	2503	0	0	-100	0	230	101300000	1000	0	0	-1	0
7263043	2508	0	0	-100	0	230	101300000	1000	0	0	-1	0
7275603	2508	0	0	-100	0	230	101300000	1000	0	0	-1	0
7288163	2510	0	0	-100	0	230	101300000	1000	0	0	-1	0
7300723	2508	0	0	-100	0	230	101300000	1000	0	0	-1	0
7313283	2510	0	0	-100	0	230	101300000	1000	0	0	-1	0
7325843	2513	0	0	-100	0	230	101300000	1000	0	0	-1	0
7338403	2514	0	0	-100	0	230	101300000	1000	0	0	-1	0
7350963	2516	0	0	-100	0	230	101300000	1000	0	0	-1	0
7681555	2508	0	0	-100	0	230	101300000	1000	0	0	-1	0
7694115	2505	1	0	-100	0	230	101300000	1000	0	0	-1	0
7706675	2506	4	0	-100	0	230	101300000	1000	0	0	-1	0
7719235	2506	0	0	-100	0	230	101300000	1000	0	0	-1	0
7731795	2506	0	0	-100	0	230	101300000	1000	0	0	-1	0
7744355	2511	0	0	-100	0	230	101300000	1000	0	0	-1	0
7756915	2509	0	0	-100	0	230	101300000	1000	0	0	-1	0
7769475	2510	0	0	-100	0	230	101300000	1000	0	0	-1	0
7782035	2504	3	0	-100	0	230	101300000	1000	0	0	-1	0
7794595	2508	0	0	-100	0	230	101300000	1000	0	0	-1	0
7807155	2507	0	0	-100	0	230	101300000	1000	0	0	-1	0
7819715	2506	0	0	-100	0	230	101300000	1000	0	0	-1	0
7832275	2506	0	0	-100	0	230	101300000	1000	0	0	-1	0
7844835	2506	0	0	-100	0	230	101300000	1000	0	0	-1	0
7857395	2509	0	0	-100	0	230	101300000	1000	0	0	-1	0
7869955	2513	0	0	-100	0	230	101300000	1000	0	0	-1	0
7882515	2511	0	0	-100	0	230	101300000	1000	0	0	-1	0
7895075	2513	0	0	-100	0	230	101300000	1000	0	0	-1	0
7907635	2513	0	0	-100	0	230	101300000	1000	0	0	-1	0
7920195	2510	0	0	-100	0	230	101300000	1000	0	0	-1	0
7932755	2509	0	0	-100	0	230	101300000	1000	0	0	-1	0
7945315	2507	0	0	-100	0	230	101300000	1000	0	0	-1	0
7957875	2503	2	0	-100	0	230	101300000	1000	0	0	-1	0
7970435	2509	3	0	-100	0	230	101300000	1000	0	0	-1	0
7982995	2503	0	0	-100	0	230	101300000	1000	0	0	-1	0
7995555	2505	2	0	-100	0	230	101300000	1000	0	0	-1	0
8008115	2505	4	0	-100	0	230	101300000	1000	0	0	-1	0
8020675	2503	4	0	-100	0	230	101300000	1000	0	0	-1	0
8033235	2504	0	0	-100	0	230	101300000	1000	0	0	-1	0
8045795	2509	0	0	-100	0	230	101300000	1000	0	0	-1	0
8058355	2511	0	0	-100	0	230	101300000	1000	0	0	-1	0
8070915	2510	0	0	-100	0	230	101300000	1000	0	0	-1	0
8083475	2503	0	0	-100	0	230	101300000	1000	0	0	-1	0
8096035	2506	4	0	-100	0	230	101300000	1000	0	0	-1	0
8108595	2506	0	0	-100	0	230	101300000	1000	0	0	-1	0
8121155	2502	0	0	-100	0	230	101300000	1000	0	0	-1	0
8133715	2508	0	0	-100	0	230	101300000	1000	0	0	-1	0
8146275	2510	0	0	-100	0	230	101300000	1000	0	0	-1	0
8158835	2513	0	0	-100	0	230	101300000	1000	0	0	-1	0
8171395	2512	0	0	-100	0	230	101300000	1000	0	0	-1	0
8183955	2511	0	0	-100	0	230	101300000	1000	0	0	-1	0
8196515	2507	0	0	-100	0	230	101300000	1000	0	0	-1	0
8209075	2511	0	0	-100	0	230	101300000	1000	0	0	-1	0
8221635	2507	0	0	-100	0	230	101300000	1000	0	0	-1	0
8234195	2507	0	0	-100	0	230	101300000	1000	0	0	-1	0
8246755	2505	0	0	-100	0	230	101300000	1000	0	0	-1	0
8259315	2504	0	0	-100	0	230	101300000	1000	0	0	-1	0
8271875	2505	3	0	-100	0	230	101300000	1000	0	0	-1	0
8284435	2506	0	0	-100	0	230	101300000	1000	0	0	-1	0
8296995	2506	0	0	-100	0	230	101300000	1000	0	0	-1	0
8309555	2512	0	0	-100	0	230	101300000	1000	0	0	-1	0
8322115	2511	0	0	-100	0	230	101300000	1000	0	0	-1	0
8334675	2514	0	0	-100	0	230	101300000	1000	0	0	-1	0
8347235	2507	0	0	-100	0	230	101300000	1000	0	0	-1	0
8359795	2503	2	0	-100	0	230	101300000	1000	0	0	-1	0
8372355	2507	3	0	-100	0	230	101300000	1000	0	0	-1	0
8384915	2507	3	0	-100	0	230	101300000	1000	0	0	-1	0
8397475	2507	0	0	-100	0	230	101300000	1000	0	0	-1	0
8410035	2508	0	0	-100	0	230	101300000	1000	0	0	-1	0
8422595	2507	0	0	-100	0	230	101300000	1000	0	0	-1	0
8435155	2509	0	0	-100	0	230	101300000	1000	0	0	-1	0
8447715	2513	0	0	-100	0	230	101300000	1000	0	0	-1	0
8485395	2512	0	0	-100	0	230	101300000	1000	0	0	-1	0
8497955	2513	0	0	-100	0	230	101300000	1000	0	0	-1	0
8510515	2511	0	0	-100	0	230	101300000	1000	0	0	-1	0
8523075	2503	0	0	-100	0	230	101300000	1000	0	0	-1	0
8535635	2503	2	0	-100	0	230	101300000	1000	0	0	-1	0
8548195	2508	4	0	-100	0	230	101300000	1000	0	0	-1	0
8560755	2509	0	0	-100	0	230	101300000	1000	0	0	-1	0
8573315	2514	0	0	-100	0	230	101300000	1000	0	0	-1	0
8585875	2511	0	0	-100	0	230	101300000	1000	0	0	-1	0
8598435	2504	2	0	-100	0	230	101300000	1000	0	0	-1	0
8610995	2508	0	0	-100	0	230	101300000	1000	0	0	-1	0
8623555	2503	0	0	-100	0	230	101300000	1000	0	0	-1	0
8724035	2503	0	0	-100	0	230	101300000	1000	0	0	-1	0
8736595	2510	0	0	-100	0	230	101300000	1000	0	0	-1	0
8749155	2514	0	0	-100	0	230	101300000	1000	0	0	-1	0
8761715	2502	0	0	-100	0	230	101300000	1000	0	0	-1	0
8774275	2507	3	0	-100	0	230	101300000	1000	0	0	-1	0
8786835	2504	0	0	-100	0	230	101300000	1000	0	0	-1	0
8799395	2507	0	0	-100	0	230	101300000	1000	0	0	-1	0
8811955	2512	0	0	-100	0	230	101300000	1000	0	0	-1	0
8824515	2504	0	0	-100	0	230	101300000	1000	0	0	-1	0
8837075	2504	1	0	-100	0	230	101300000	1000	0	0	-1	0
8849635	2506	1	0	-100	0	230	101300000	1000	0	0	-1	0
8887315	2509	2	0	-100	0	230	101300000	1000	0	0	-1	0
8899875	2504	0	0	-100	0	230	101300000	1000	0	0	-1	0
8912435	2514	0	0	-100	0	230	101300000	1000	0	0	-1	0
8924995	2512	1	0	-100	0	230	101300000	1000	0	0	-1	0
8937555	2511	0	0	-100	0	230	101300000	1000	0	0	-1	0
8950115	2516	0	0	-100	0	230	101300000	1000	0	0	-1	0
8962675	2512	0	0	-100	0	230	101300000	1000	0	0	-1	0
8975235	2510	0	0	-100	0	230	101300000	1000	0	0	-1	0
8987795	2503	0	0	-100	0	230	101300000	1000	0	0	-1	0
9000355	2505	2	0	-100	0	230	101300000	1000	0	0	-1	0
9012915	2508	2	0	-100	0	230	101300000	1000	0	0	-1	0
9025475	2503	0	0	-100	0	230	101300000	1000	0	0	-1	0
9038035	2502	0	0	-100	0	230	101300000	1000	0	0	-1	0
9050595	2511	0	0	-100	0	230	101300000	1000	0	0	-1	0
9063155	2509	0	0	-100	0	230	101300000	1000	0	0	-1	0
9075715	2511	0	0	-100	0	230	101300000	1000	0	0	-1	0
9088275	2511	0	0	-100	0	230	101300000	1000	0	0	-1	0
9100835	2505	0	0	-100	0	230	101300000	1000	0	0	-1	0
9113395	2506	3	0	-100	0	230	101300000	1000	0	0	-1	0
9125955	2503	0	0	-100	0	230	101300000	1000	0	0	-1	0
9138515	2507	0	0	-100	0	230	101300000	1000	0	0	-1	0
9151075	2513	0	0	-100	0	230	101300000	1000	0	0	-1	0
9163635	2511	0	0	-100	0	230	101300000	1000	0	0	-1	0
9176195	2514	0	0	-100	0	230	101300000	1000	0	0	-1	0
9188755	2511	0	0	-100	0	230	101300000	1000	0	0	-1	0
9201315	2505	0	0	-100	0	230	101300000	1000	0	0	-1	0
9213875	2507	0	0	-100	0	230	101300000	1000	0	0	-1	0
9226435	2506	3	0	-100	0	230	101300000	1000	0	0	-1	0
9238995	2507	0	0	-100	0	230	101300000	1000	0	0	-1	0
9251555	2507	0	0	-100	0	230	101300000	1000	0	0	-1	0
9264115	2508	0	0	-100	0	230	101300000	1000	0	0	-1	0
9276675	2508	0	0	-100	0	230	101300000	1000	0	0	-1	0
9289235	2508	0	0	-100	0	230	101300000	1000	0	0	-1	0
9301795	2503	4	0	-100	0	230	101300000	1000	0	0	-1	0
9314355	2508	0	0	-100	0	230	101300000	1000	0	0	-1	0
9326915	2506	0	0	-100	0	230	101300000	1000	0	0	-1	0
9339475	2511	0	0	-100	0	230	101300000	1000	0	0	-1	0
9352035	2506	1	0	-100	0	230	101300000	1000	0	0	-1	0
9364595	2504	0	0	-100	0	230	101300000	1000	0	0	-1	0
9377155	2508	0	0	-100	0	230	101300000	1000	0	0	-1	0
9389715	2510	0	0	-100	0	230	101300000	1000	0	0	-1	0
9402275	2506	4	0	-100	0	230	101300000	1000	0	0	-1	0
9414835	2506	0	0	-100	0	230	101300000	1000	0	0	-1	0
9427395	2512	0	0	-100	0	230	101300000	1000	0	0	-1	0
9439955	2501	0	0	-100	0	230	101300000	1000	0	0	-1	0
9452515	2508	0	0	-100	0	230	101300000	1000	0	0	-1	0
9465075	2507	0	0	-100	0	230	101300000	1000	0	0	-1	0
9477635	2509	0	0	-100	0	230	101300000	1000	0	0	-1	0
9490195	2512	0	0	-100	0	230	101300000	1000	0	0	-1	0
9502755	2505	2	0	-100	0	230	101300000	1000	0	0	-1	0
9515315	2505	0	0	-100	0	230	101300000	1000	0	0	-1	0
9527875	2513	0	0	-100	0	230	101300000	1000	0	0	-1	0
9540435	2505	0	0	-100	0	230	101300000	1000	0	0	-1	0
9552995	2507	0	0	-100	0	230	101300000	1000	0	0	-1	0
9565555	2503	0	0	-100	0	230	101300000	1000	0	0	-1	0
9578115	2511	0	0	-100	0	230	101300000	1000	0	0	-1	0
9590675	2513	0	0	-100	0	230	101300000	1000	0	0	-1	0
9603235	2503	1	0	-100	0	230	101300000	1000	0	0	-1	0
9615795	2503	1	0	-100	0	230	101300000	1000	0	0	-1	0
9628355	2511	0	0	-100	0	230	101300000	1000	0	0	-1	0
9640915	2511	0	0	-100	0	230	101300000	1000	0	0	-1	0
9653475	2514	0	0	-100	0	230	101300000	1000	0	0	-1	0
9666035	2505	0	0	-100	0	230	101300000	1000	0	0	-1	0
9678595	2507	4	0	-100	0	230	101300000	1000	0	0	-1	0
9691155	2511	0	0	-100	0	230	101300000	1000	0	0	-1	0
9703715	2513	0	0	-100	0	230	101300000	1000	0	0	-1	0
9716275	2507	0	0	-100	0	230	101300000	1000	0	0	-1	0
9728835	2507	0	0	-100	0	230	101300000	1000	0	0	-1	0
9741395	2510	0	0	-100	0	230	101300000	1000	0	0	-1	0
9753955	2514	0	0	-100	0	230	101300000	1000	0	0	-1	0
9766515	2506	2	0	-100	0	230	101300000	1000	0	0	-1	0
9779075	2507	0	0	-100	0	230	101300000	1000	0	0	-1	0
9791635	2508	0	0	-100	0	230	101300000	1000	0	0	-1	0
9804195	2508	0	0	-100	0	230	101300000	1000	0	0	-1	0
9816755	2509	0	0	-100	0	230	101300000	1000	0	0	-1	0
9829315	2516	0	0	-100	0	230	101300000	1000	0	0	-1	0
9841875	2507	0	0	-100	0	230	101300000	1000	0	0	-1	0
9854435	2504	1	0	-100	0	230	101300000	1000	0	0	-1	0
9866995	2505	0	0	-100	0	230	101300000	1000	0	0	-1	0
9879555	2504	3	0	-100	0	230	101300000	1000	0	0	-1	0
9892115	2508	0	0	-100	0	230	101300000	1000	0	0	-1	0
9904675	2506	0	0	-100	0	230	101300000	1000	0	0	-1	0
9917235	2508	0	0	-100	0	230	101300000	1000	0	0	-1	0
9929795	2512	0	0	-100	0	230	101300000	1000	0	0	-1	0
9942355	2508	0	0	-100	0	230	101300000	1000	0	0	-1	0
9954915	2505	0	0	-100	0	230	101300000	1000	0	0	-1	0
9967475	2507	1	0	-100	0	230	101300000	1000	0	0	-1	0
9980035	2505	3	0	-100	0	230	101300000	1000	0	0	-1	0
9992595	2508	0	0	-100	0	230	101300000	1000	0	0	-1	0
10005155	2507	0	0	-100	0	230	101300000	1000	0	0	-1	0
10017715	2511	0	0	-100	0	230	101300000	1000	0	0	-1	0
10030275	2514	0	0	-100	0	230	101300000	1000	0	0	-1	0
10042835	2508	0	0	-100	0	230	101300000	1000	0	0	-1	0
10055395	2509	0	0	-100	0	230	101300000	1000	0	0	-1	0
10067955	2512	0	0	-100	0	230	101300000	1000	0	0	-1	0
10080515	2512	0	0	-100	0	230	101300000	1000	0	0	-1	0
10093075	2515	0	0	-100	0	230	101300000	1000	0	0	-1	0
10105635	2515	0	0	-100	0	230	101300000	1000	0	0	-1	0
10118195	2508	0	0	-100	0	230	101300000	1000	0	0	-1	0
10130755	2509	0	0	-100	0	230	101300000	1000	0	0	-1	0
10143315	2502	0	0	-100	0	230	101300000	1000	0	0	-1	0
10155875	2504	4	0	-100	0	230	101300000	1000	0	0	-1	0
10168435	2508	0	0	-100	0	230	101300000	1000	0	0	-1	0
10180995	2502	0	0	-100	0	230	101300000	1000	0	0	-1	0
10193555	2508	0	0	-100	0	230	101300000	1000	0	0	-1	0
10206115	2507	0	0	-100	0	230	101300000	1000	0	0	-1	0
10218675	2505	0	0	-100	0	230	101300000	1000	0	0	-1	0
10231235	2509	0	0	-100	0	230	101300000	1000	0	0	-1	0
10243795	2507	0	0	-100	0	230	101300000	1000	0	0	-1	0
10256355	2509	0	0	-100	0	230	101300000	1000	0	0	-1	0
10268915	2506	0	0	-100	0	230	101300000	1000	0	0	-1	0
10281475	2504	0	0	-100	0	230	101300000	1000	0	0	-1	0
10294035	2508	0	0	-100	0	230	101300000	1000	0	0	-1	0
10306595	2507	0	0	-100	0	230	101300000	1000	0	0	-1	0
10319155	2503	0	0	-100	0	230	101300000	1000	0	0	-1	0
10331715	2508	0	0	-100	0	230	101300000	1000	0	0	-1	0
10344275	2504	3	0	-100	0	230	101300000	1000	0	0	-1	0
10356835	2506	2	0	-100	0	230	101300000	1000	0	0	-1	0
10369395	2510	0	0	-100	0	230	101300000	1000	0	0	-1	0
10381955	2506	4	0	-100	0	230	101300000	1000	0	0	-1	0
10394515	2503	2	0	-100	0	230	101300000	1000	0	0	-1	0
10407075	2506	0	0	-100	0	230	101300000	1000	0	0	-1	0
10419635	2511	0	0	-100	0	230	101300000	1000	0	0	-1	0
10432195	2515	0	0	-100	0	230	101300000	1000	0	0	-1	0
10444755	2513	0	0	-100	0	230	101300000	1000	0	0	-1	0
10457315	2513	0	0	-100	0	230	101300000	1000	0	0	-1	0
10469875	2511	0	0	-100	0	230	101300000	1000	0	0	-1	0
10482435	2509	0	0	-100	0	230	101300000	1000	0	0	-1	0
10494995	2506	0	0	-100	0	230	101300000	1000	0	0	-1	0
10507555	2506	0	0	-100	0	230	101300000	1000	0	0	-1	0
10520115	2503	0	0	-100	0	230	101300000	1000	0	0	-1	0
10532675	2504	0	0	-100	0	230	101300000	1000	0	0	-1	0
10545235	2505	0	0	-100	0	230	101300000	1000	0	0	-1	0
10557795	2503	0	0	-100	0	230	101300000	1000	0	0	-1	0
10570355	2507	0	0	-100	0	230	101300000	1000	0	0	-1	0
10582915	2506	0	0	-100	0	230	101300000	1000	0	0	-1	0
10595475	2502	0	0	-100	0	230	101300000	1000	0	0	-1	0
10608035	2508	0	0	-100	0	230	101300000	1000	0	0	-1	0
10620595	2505	0	0	-100	0	230	101300000	1000	0	0	-1	0
10633155	2505	0	0	-100	0	230	101300000	1000	0	0	-1	0
10645715	2503	0	0	-100	0	230	101300000	1000	0	0	-1	0
10658275	2501	0	0	-100	0	230	101300000	1000	0	0	-1	0
10670835	2505	0	0	-100	0	230	101300000	1000	0	0	-1	0
10683395	2509	0	0	-100	0	230	101300000	1000	0	0	-1	0
10695955	2511	0	0	-100	0	230	101300000	1000	0	0	-1	0
10708515	2513	0	0	-100	0	230	101300000	1000	0	0	-1	0
10721075	2509	0	0	-100	0	230	101300000	1000	0	0	-1	0
10733635	2516	0	0	-100	0	230	101300000	1000	0	0	-1	0
10746195	2512	0	0	-100	0	230	101300000	1000	0	0	-1	0
10758755	2511	0	0	-100	0	230	101300000	1000	0	0	-1	0
10771315	2512	0	0	-100	0	230	101300000	1000	0	0	-1	0
10783875	2513	0	0	-100	0	230	101300000	1000	0	0	-1	0
10796435	2511	0	0	-100	0	230	101300000	1000	0	0	-1	0
10808995	2511	0	0	-100	0	230	101300000	1000	0	0	-1	0
10821555	2508	0	0	-100	0	230	101300000	1000	0	0	-1	0
10834115	2511	0	0	-100	0	230	101300000	1000	0	0	-1	0
10846675	2513	0	0	-100	0	230	101300000	1000	0	0	-1	0
10859235	2503	0	0	-100	0	230	101300000	1000	0	0	-1	0
10871795	2507	0	0	-100	0	230	101300000	1000	0	0	-1	0
10884355	2505	0	0	-100	0	230	101300000	1000	0	0	-1	0
10896915	2506	4	0	-100	0	230	101300000	1000	0	0	-1	0
10909475	2507	1	0	-100	0	230	101300000	1000	0	0	-1	0
10922035	2504	0	0	-100	0	230	101300000	1000	0	0	-1	0
10934595	2506	0	0	-100	0	230	101300000	1000	0	0	-1	0
10947155	2511	0	0	-100	0	230	101300000	1000	0	0	-1	0
10959715	2515	0	0	-100	0	230	101300000	1000	0	0	-1	0
10972275	2513	0	0	-100	0	230	101300000	1000	0	0	-1	0
10984835	2510	0	0	-100	0	230	101300000	1000	0	0	-1	0
10997395	2509	0	0	-100	0	230	101300000	1000	0	0	-1	0
11009955	2509	0	0	-100	0	230	101300000	1000	0	0	-1	0
11022515	2511	0	0	-100	0	230	101300000	1000	0	0	-1	0
11035075	2514	0	0	-100	0	230	101300000	1000	0	0	-1	0
11047635	2513	0	0	-100	0	230	101300000	1000	0	0	-1	0
11060195	2510	0	0	-100	0	230	101300000	1000	0	0	-1	0
11072755	2508	0	0	-100	0	230	101300000	1000	0	0	-1	0
11085315	2505	0	0	-100	0	230	101300000	1000	0	0	-1	0
11097875	2504	2	0	-100	0	230	101300000	1000	0	0	-1	0
11110435	2507	0	0	-100	0	230	101300000	1000	0	0	-1	0
11122995	2503	0	0	-100	0	230	101300000	1000	0	0	-1	0
11135555	2505	0	0	-100	0	230	101300000	1000	0	0	-1	0
11148115	2507	0	0	-100	0	230	101300000	1000	0	0	-1	0
11160675	2504	0	0	-100	0	230	101300000	1000	0	0	-1	0
11173235	2508	0	0	-100	0	230	101300000	1000	0	0	-1	0
11185795	2510	0	0	-100	0	230	101300000	1000	0	0	-1	0
11198355	2507	0	0	-100	0	230	101300000	1000	0	0	-1	0
11210915	2511	0	0	-100	0	230	101300000	1000	0	0	-1	0
11223475	2510	0	0	-100	0	230	101300000	1000	0	0	-1	0
11236035	2510	0	0	-100	0	230	101300000	1000	0	0	-1	0
11248595	2511	0	0	-100	0	230	101300000	1000	0	0	-1	0
11261155	2512	0	0	-100	0	230	101300000	1000	0	0	-1	0
11273715	2511	0	0	-100	0	230	101300000	1000	0	0	-1	0
11286275	2511	0	0	-100	0	230	101300000	1000	0	0	-1	0
11298835	2508	0	0	-100	0	230	101300000	1000	0	0	-1	0
11311395	2515	0	0	-100	0	230	101300000	1000	0	0	-1	0
11323955	2513	0	0	-100	0	230	101300000	1000	0	0	-1	0
11336515	2510	0	0	-100	0	230	101300000	1000	0	0	-1	0
11349075	2516	0	0	-100	0	230	101300000	1000	0	0	-1	0
11361635	2511	0	0	-100	0	230	101300000	1000	0	0	-1	0
11374195	2512	0	0	-100	0	230	101300000	1000	0	0	-1	0
11386755	2515	0	0	-100	0	230	101300000	1000	0	0	-1	0
11399315	2509	0	0	-100	0	230	101300000	1000	0	0	-1	0
11411875	2511	0	0	-100	0	230	101300000	1000	0	0	-1	0
11424435	2508	0	0	-100	0	230	101300000	1000	0	0	-1	0
11436995	2506	0	0	-100	0	230	101300000	1000	0	0	-1	0
11449555	2508	0	0	-100	0	230	101300000	1000	0	0	-1	0
11462115	2504	0	0	-100	0	230	101300000	1000	0	0	-1	0
11474675	2504	0	0	-100	0	230	101300000	1000	0	0	-1	0
11487235	2507	0	0	-100	0	230	101300000	1000	0	0	-1	0
11499795	2506	1	0	-100	0	230	101300000	1000	0	0	-1	0
11512355	2508	3	0	-100	0	230	101300000	1000	0	0	-1	0
11524915	2507	2	0	-100	0	230	101300000	1000	0	0	-1	0
11537475	2504	0	0	-100	0	230	101300000	1000	0	0	-1	0
11550035	2513	0	0	-100	0	230	101300000	1000	0	0	-1	0
11562595	2511	0	0	-100	0	230	101300000	1000	0	0	-1	0
11575155	2511	0	0	-100	0	230	101300000	1000	0	0	-1	0
11587715	2516	0	0	-100	0	230	101300000	1000	0	0	-1	0
11600275	2510	0	0	-100	0	230	101300000	1000	0	0	-1	0
11612835	2512	0	0	-100	0	230	101300000	1000	0	0	-1	0
11625395	2511	0	0	-100	0	230	101300000	1000	0	0	-1	0
11637955	2508	0	0	-100	0	230	101300000	1000	0	0	-1	0
11650515	2511	0	0	-100	0	230	101300000	1000	0	0	-1	0
11663075	2511	0	0	-100	0	230	101300000	1000	0	0	-1	0
11675635	2508	0	0	-100	0	230	101300000	1000	0	0	-1	0
11688195	2508	0	0	-100	0	230	101300000	1000	0	0	-1	0
11700755	2504	0	0	-100	0	230	101300000	1000	0	0	-1	0
11713315	2506	0	0	-100	0	230	101300000	1000	0	0	-1	0
11725875	2506	0	0	-100	0	230	101300000	1000	0	0	-1	0
11738435	2507	0	0	-100	0	230	101300000	1000	0	0	-1	0
11750995	2507	0	0	-100	0	230	101300000	1000	0	0	-1	0
11763555	2503	4	0	-100	0	230	101300000	1000	0	0	-1	0
11776115	2505	3	0	-100	0	230	101300000	1000	0	0	-1	0
11788675	2511	1	0	-100	0	230	101300000	1000	0	0	-1	0
11801235	2504	0	0	-100	0	230	101300000	1000	0	0	-1	0
11813795	2507	0	0	-100	0	230	101300000	1000	0	0	-1	0
11826355	2512	0	0	-100	0	230	101300000	1000	0	0	-1	0
11838915	2511	0	0	-100	0	230	101300000	1000	0	0	-1	0
11851475	2512	0	0	-100	0	230	101300000	1000	0	0	-1	0
11864035	2510	0	0	-100	0	230	101300000	1000	0	0	-1	0
11876595	2510	0	0	-100	0	230	101300000	1000	0	0	-1	0
11889155	2514	0	0	-100	0	230	101300000	1000	0	0	-1	0
11901715	2510	0	0	-100	0	230	101300000	1000	0	0	-1	0
11914275	2513	0	0	-100	0	230	101300000	1000	0	0	-1	0
11926835	2513	0	0	-100	0	230	101300000	1000	0	0	-1	0
11939395	2510	0	0	-100	0	230	101300000	1000	0	0	-1	0
11951955	2511	0	0	-100	0	230	101300000	1000	0	0	-1	0
11964515	2508	0	0	-100	0	230	101300000	1000	0	0	-1	0
11977075	2508	0	0	-100	0	230	101300000	1000	0	0	-1	0
11989635	2507	0	0	-100	0	230	101300000	1000	0	0	-1	0
12002195	2508	0	0	-100	0	230	101300000	1000	0	0	-1	0
12014755	2509	0	0	-100	0	230	101300000	1000	0	0	-1	0
12027315	2508	0	0	-100	0	230	101300000	1000	0	0	-1	0
12039875	2504	0	0	-100	0	230	101300000	1000	0	0	-1	0
12052435	2504	0	0	-100	0	230	101300000	1000	0	0	-1	0
12064995	2502	0	0	-100	0	230	101300000	1000	0	0	-1	0
12077555	2505	3	0	-100	0	230	101300000	1000	0	0	-1	0
12090115	2507	1	0	-100	0	230	101300000	1000	0	0	-1	0
12102675	2504	0	0	-100	0	230	101300000	1000	0	0	-1	0
12115235	2507	0	0	-100	0	230	101300000	1000	0	0	-1	0
12127795	2509	0	0	-100	0	230	101300000	1000	0	0	-1	0
12140355	2505	0	0	-100	0	230	101300000	1000	0	0	-1	0
12152915	2514	0	0	-100	0	230	101300000	1000	0	0	-1	0
12165475	2511	0	0	-100	0	230	101300000	1000	0	0	-1	0
12178035	2510	0	0	-100	0	230	101300000	1000	0	0	-1	0
12190595	2514	0	0	-100	0	230	101300000	1000	0	0	-1	0
12203155	2510	0	0	-100	0	230	101300000	1000	0	0	-1	0
12215715	2508	0	0	-100	0	230	101300000	1000	0	0	-1	0
12228275	2507	0	0	-100	0	230	101300000	1000	0	0	-1	0
12240835	2503	0	0	-100	0	230	101300000	1000	0	0	-1	0
12253395	2503	0	0	-100	0	230	101300000	1000	0	0	-1	0
12265955	2507	0	0	-100	0	230	101300000	1000	0	0	-1	0
12278515	2503	0	0	-100	0	230	101300000	1000	0	0	-1	0
12291075	2511	0	0	-100	0	230	101300000	1000	0	0	-1	0
12303635	2509	0	0	-100	0	230	101300000	1000	0	0	-1	0
12316195	2508	0	0	-100	0	230	101300000	1000	0	0	-1	0
12328755	2509	0	0	-100	0	230	101300000	1000	0	0	-1	0
12341315	2508	0	0	-100	0	230	101300000	1000	0	0	-1	0
12353875	2510	0	0	-100	0	230	101300000	1000	0	0	-1	0
12366435	2511	0	0	-100	0	230	101300000	1000	0	0	-1	0
12378995	2511	0	0	-100	0	230	101300000	1000	0	0	-1	0
12391555	2512	0	0	-100	0	230	101300000	1000	0	0	-1	0
12404115	2509	0	0	-100	0	230	101300000	1000	0	0	-1	0
12416675	2511	0	0	-100	0	230	101300000	1000	0	0	-1	0
12429235	2508	0	0	-100	0	230	101300000	1000	0	0	-1	0
12441795	2505	0	0	-100	0	230	101300000	1000	0	0	-1	0
12454355	2514	0	0	-100	0	230	101300000	1000	0	0	-1	0
12466915	2511	0	0	-100	0	230	101300000	1000	0	0	-1	0
12479475	2509	0	0	-100	0	230	101300000	1000	0	0	-1	0
12492035	2513	0	0	-100	0	230	101300000	1000	0	0	-1	0
12504595	2510	0	0	-100	0	230	101300000	1000	0	0	-1	0
12517155	2510	0	0	-100	0	230	101300000	1000	0	0	-1	0
12529715	2513	0	0	-100	0	230	101300000	1000	0	0	-1	0
12542275	2510	0	0	-100	0	230	101300000	1000	0	0	-1	0
12554835	2513	0	0	-100	0	230	101300000	1000	0	0	-1	0
12567395	2511	0	0	-100	0	230	101300000	1000	0	0	-1	0
12579955	2504	1	0	-100	0	230	101300000	1000	0	0	-1	0
12592515	2504	1	0	-100	0	230	101300000	1000	0	0	-1	0
12605075	2507	2	0	-100	0	230	101300000	1000	0	0	-1	0
12617635	2507	0	0	-100	0	230	101300000	1000	0	0	-1	0
12630195	2507	2	0	-100	0	230	101300000	1000	0	0	-1	0
12642755	2508	0	0	-100	0	230	101300000	1000	0	0	-1	0
12655315	2510	0	0	-100	0	230	101300000	1000	0	0	-1	0
12667875	2507	3	0	-100	0	230	101300000	1000	0	0	-1	0
12680435	2507	4	0	-100	0	230	101300000	1000	0	0	-1	0
12692995	2505	0	0	-100	0	230	101300000	1000	0	0	-1	0
12705555	2507	4	0	-100	0	230	101300000	1000	0	0	-1	0
12718115	2503	0	0	-100	0	230	101300000	1000	0	0	-1	0
12730675	2504	0	0	-100	0	230	101300000	1000	0	0	-1	0
12743235	2506	0	0	-100	0	230	101300000	1000	0	0	-1	0
12755795	2510	0	0	-100	0	230	101300000	1000	0	0	-1	0
12768355	2514	0	0	-100	0	230	101300000	1000	0	0	-1	0
12780915	2503	0	0	-100	0	230	101300000	1000	0	0	-1	0
12793475	2504	0	0	-100	0	230	101300000	1000	0	0	-1	0
12806035	2506	4	0	-100	0	230	101300000	1000	0	0	-1	0
12818595	2503	0	0	-100	0	230	101300000	1000	0	0	-1	0
12831155	2510	0	0	-100	0	230	101300000	1000	0	0	-1	0
12843715	2511	0	0	-100	0	230	101300000	1000	0	0	-1	0
12856275	2514	0	0	-100	0	230	101300000	1000	0	0	-1	0
12868835	2512	0	0	-100	0	230	101300000	1000	0	0	-1	0
12881395	2512	0	0	-100	0	230	101300000	1000	0	0	-1	0
12893955	2509	0	0	-100	0	230	101300000	1000	0	0	-1	0
12906515	2507	0	0	-100	0	230	101300000	1000	0	0	-1	0
12919075	2505	0	0	-100	0	230	101300000	1000	0	0	-1	0
12931635	2507	3	0	-100	0	230	101300000	1000	0	0	-1	0
12944195	2503	3	0	-100	0	230	101300000	1000	0	0	-1	0
12956755	2505	1	0	-100	0	230	101300000	1000	0	0	-1	0
12969315	2506	0	0	-100	0	230	101300000	1000	0	0	-1	0
12981875	2507	0	0	-100	0	230	101300000	1000	0	0	-1	0
12994435	2508	0	0	-100	0	230	101300000	1000	0	0	-1	0
13006995	2511	0	0	-100	0	230	101300000	1000	0	0	-1	0
13019555	2508	0	0	-100	0	230	101300000	1000	0	0	-1	0
13032115	2511	0	0	-100	0	230	101300000	1000	0	0	-1	0
13044675	2509	0	0	-100	0	230	101300000	1000	0	0	-1	0
13057235	2509	0	0	-100	0	230	101300000	1000	0	0	-1	0
13069795	2512	0	0	-100	0	230	101300000	1000	0	0	-1	0
13082355	2508	0	0	-100	0	230	101300000	1000	0	0	-1	0
13094915	2509	0	0	-100	0	230	101300000	1000	0	0	-1	0
13107475	2511	0	0	-100	0	230	101300000	1000	0	0	-1	0
13120035	2511	0	0	-100	0	230	101300000	1000	0	0	-1	0
13132595	2514	0	0	-100	0	230	101300000	1000	0	0	-1	0
13145155	2512	0	0	-100	0	230	101300000	1000	0	0	-1	0
13157715	2511	0	0	-100	0	230	101300000	1000	0	0	-1	0
13170275	2513	0	0	-100	0	230	101300000	1000	0	0	-1	0
13182835	2510	0	0	-100	0	230	101300000	1000	0	0	-1	0
13195395	2514	0	0	-100	0	230	101300000	1000	0	0	-1	0
13207955	2508	0	0	-100	0	230	101300000	1000	0	0	-1	0
13220515	2503	0	0	-100	0	230	101300000	1000	0	0	-1	0
13233075	2507	0	0	-100	0	230	101300000	1000	0	0	-1	0
13245635	2504	0	0	-100	0	230	101300000	1000	0	0	-1	0
13258195	2503	1	0	-100	0	230	101300000	1000	0	0	-1	0
13270755	2508	0	0	-100	0	230	101300000	1000	0	0	-1	0
13283315	2507	0	0	-100	0	230	101300000	1000	0	0	-1	0
13295875	2508	0	0	-100	0	230	101300000	1000	0	0	-1	0
13308435	2507	0	0	-100	0	230	101300000	1000	0	0	-1	0
13320995	2503	0	0	-100	0	230	101300000	1000	0	0	-1	0
13333555	2504	0	0	-100	0	230	101300000	1000	0	0	-1	0
13346115	2506	2	0	-100	0	230	101300000	1000	0	0	-1	0
13358675	2502	0	0	-100	0	230	101300000	1000	0	0	-1	0
13371235	2505	1	0	-100	0	230	101300000	1000	0	0	-1	0
13383795	2506	3	0	-100	0	230	101300000	1000	0	0	-1	0
13396355	2504	1	0	-100	0	230	101300000	1000	0	0	-1	0
13408915	2507	2	0	-100	0	230	101300000	1000	0	0	-1	0
13421475	2505	2	0	-100	0	230	101300000	1000	0	0	-1	0
13434035	2501	4	0	-100	0	230	101300000	1000	0	0	-1	0
13446595	2507	0	0	-100	0	230	101300000	1000	0	0	-1	0
13459155	2503	0	0	-100	0	230	101300000	1000	0	0	-1	0
13471715	2508	0	0	-100	0	230	101300000	1000	0	0	-1	0
13484275	2509	0	0	-100	0	230	101300000	1000	0	0	-1	0
13496835	2509	0	0	-100	0	230	101300000	1000	0	0	-1	0
13509395	2514	0	0	-100	0	230	101300000	1000	0	0	-1	0
13521955	2508	0	0	-100	0	230	101300000	1000	0	0	-1	0
13534515	2514	0	0	-100	0	230	101300000	1000	0	0	-1	0
13547075	2511	0	0	-100	0	230	101300000	1000	0	0	-1	0
13559635	2510	0	0	-100	0	230	101300000	1000	0	0	-1	0
13572195	2509	0	0	-100	0	230	101300000	1000	0	0	-1	0
13584755	2504	1	0	-100	0	230	101300000	1000	0	0	-1	0
13597315	2505	2	0	-100	0	230	101300000	1000	0	0	-1	0
13609875	2505	2	0	-100	0	230	101300000	1000	0	0	-1	0
13622435	2503	0	0	-100	0	230	101300000	1000	0	0	-1	0
13634995	2507	0	0	-100	0	230	101300000	1000	0	0	-1	0
13647555	2507	0	0	-100	0	230	101300000	1000	0	0	-1	0
13660115	2503	0	0	-100	0	230	101300000	1000	0	0	-1	0
13672675	2508	0	0	-100	0	230	101300000	1000	0	0	-1	0
13685235	2508	0	0	-100	0	230	101300000	1000	0	0	-1	0
13697795	2502	0	0	-100	0	230	101300000	1000	0	0	-1	0
13710355	2509	0	0	-100	0	230	101300000	1000	0	0	-1	0
13722915	2507	0	0	-100	0	230	101300000	1000	0	0	-1	0
13735475	2513	0	0	-100	0	230	101300000	1000	0	0	-1	0
13748035	2511	0	0	-100	0	230	101300000	1000	0	0	-1	0
13760595	2509	0	0	-100	0	230	101300000	1000	0	0	-1	0
13773155	2507	0	0	-100	0	230	101300000	1000	0	0	-1	0
13785715	2503	0	0	-100	0	230	101300000	1000	0	0	-1	0
13798275	2504	0	0	-100	0	230	101300000	1000	0	0	-1	0
13810835	2507	2	0	-100	0	230	101300000	1000	0	0	-1	0
13823395	2506	0	0	-100	0	230	101300000	1000	0	0	-1	0
13835955	2506	0	0	-100	0	230	101300000	1000	0	0	-1	0
13848515	2510	0	0	-100	0	230	101300000	1000	0	0	-1	0
13861075	2503	0	0	-100	0	230	101300000	1000	0	0	-1	0
13873635	2508	3	0	-100	0	230	101300000	1000	0	0	-1	0
13886195	2504	2	0	-100	0	230	101300000	1000	0	0	-1	0
13898755	2503	1	0	-100	0	230	101300000	1000	0	0	-1	0
13911315	2510	0	0	-100	0	230	101300000	1000	0	0	-1	0
13923875	2506	0	0	-100	0	230	101300000	1000	0	0	-1	0
13936435	2506	0	0	-100	0	230	101300000	1000	0	0	-1	0
13948995	2506	0	0	-100	0	230	101300000	1000	0	0	-1	0
13961555	2508	0	0	-100	0	230	101300000	1000	0	0	-1	0
13974115	2514	0	0	-100	0	230	101300000	1000	0	0	-1	0
13986675	2511	0	0	-100	0	230	101300000	1000	0	0	-1	0
13999235	2509	0	0	-100	0	230	101300000	1000	0	0	-1	0
14011795	2510	0	0	-100	0	230	101300000	1000	0	0	-1	0
14024355	2507	0	0	-100	0	230	101300000	1000	0	0	-1	0
14036915	2506	0	0	-100	0	230	101300000	1000	0	0	-1	0
14049475	2507	0	0	-100	0	230	101300000	1000	0	0	-1	0
14062035	2505	0	0	-100	0	230	101300000	1000	0	0	-1	0
14074595	2509	0	0	-100	0	230	101300000	1000	0	0	-1	0
14087155	2515	0	0	-100	0	230	101300000	1000	0	0	-1	0
14099715	2511	0	0	-100	0	230	101300000	1000	0	0	-1	0
14112275	2513	0	0	-100	0	230	101300000	1000	0	0	-1	0
14124835	2511	0	0	-100	0	230	101300000	1000	0	0	-1	0
14137395	2509	0	0	-100	0	230	101300000	1000	0	0	-1	0
14149955	2506	1	0	-100	0	230	101300000	1000	0	0	-1	0
14162515	2502	2	0	-100	0	230	101300000	1000	0	0	-1	0
14175075	2506	0	0	-100	0	230	101300000	1000	0	0	-1	0
14187635	2507	0	0	-100	0	230	101300000	1000	0	0	-1	0
14200195	2509	0	0	-100	0	230	101300000	1000	0	0	-1	0
14212755	2513	0	0	-100	0	230	101300000	1000	0	0	-1	0
14225315	2512	0	0	-100	0	230	101300000	1000	0	0	-1	0
14237875	2511	0	0	-100	0	230	101300000	1000	0	0	-1	0
14250435	2512	0	0	-100	0	230	101300000	1000	0	0	-1	0
14262995	2509	3	0	-100	0	230	101300000	1000	0	0	-1	0
14275555	2503	0	0	-100	0	230	101300000	1000	0	0	-1	0
14288115	2507	0	0	-100	0	230	101300000	1000	0	0	-1	0
14300675	2504	1	0	-100	0	230	101300000	1000	0	0	-1	0
14313235	2507	2	0	-100	0	230	101300000	1000	0	0	-1	0
14325795	2507	3	0	-100	0	230	101300000	1000	0	0	-1	0
14338355	2506	0	0	-100	0	230	101300000	1000	0	0	-1	0
14350915	2508	0	0	-100	0	230	101300000	1000	0	0	-1	0
14363475	2511	0	0	-100	0	230	101300000	1000	0	0	-1	0
14376035	2511	0	0	-100	0	230	101300000	1000	0	0	-1	0
14388595	2512	0	0	-100	0	230	101300000	1000	0	0	-1	0
14401155	2507	0	0	-100	0	230	101300000	1000	0	0	-1	0
14413715	2504	0	0	-100	0	230	101300000	1000	0	0	-1	0
14426275	2507	1	0	-100	0	230	101300000	1000	0	0	-1	0
14438835	2507	3	0	-100	0	230	101300000	1000	0	0	-1	0
14451395	2510	2	0	-100	0	230	101300000	1000	0	0	-1	0
14463955	2504	0	0	-100	0	230	101300000	1000	0	0	-1	0
14476515	2506	0	0	-100	0	230	101300000	1000	0	0	-1	0
14489075	2508	0	0	-100	0	230	101300000	1000	0	0	-1	0
14501635	2508	0	0	-100	0	230	101300000	1000	0	0	-1	0
14514195	2514	0	0	-100	0	230	101300000	1000	0	0	-1	0
14526755	2511	0	0	-100	0	230	101300000	1000	0	0	-1	0
14539315	2512	0	0	-100	0	230	101300000	1000	0	0	-1	0
14551875	2514	0	0	-100	0	230	101300000	1000	0	0	-1	0
14564435	2510	0	0	-100	0	230	101300000	1000	0	0	-1	0
14576995	2511	2	0	-100	0	230	101300000	1000	0	0	-1	0
14589555	2512	0	0	-100	0	230	101300000	1000	0	0	-1	0
14602115	2508	0	0	-100	0	230	101300000	1000	0	0	-1	0
14614675	2507	0	0	-100	0	230	101300000	1000	0	0	-1	0
14627235	2503	0	0	-100	0	230	101300000	1000	0	0	-1	0
14639795	2505	4	0	-100	0	230	101300000	1000	0	0	-1	0
14652355	2507	1	0	-100	0	230	101300000	1000	0	0	-1	0
14664915	2506	0	0	-100	0	230	101300000	1000	0	0	-1	0
14677475	2516	0	0	-100	0	230	101300000	1000	0	0	-1	0
14690035	2514	0	0	-100	0	230	101300000	1000	0	0	-1	0
14702595	2512	0	0	-100	0	230	101300000	1000	0	0	-1	0
14715155	2509	0	0	-100	0	230	101300000	1000	0	0	-1	0
14727715	2508	0	0	-100	0	230	101300000	1000	0	0	-1	0
14740275	2508	0	0	-100	0	230	101300000	1000	0	0	-1	0
14752835	2508	0	0	-100	0	230	101300000	1000	0	0	-1	0
14765395	2506	0	0	-100	0	230	101300000	1000	0	0	-1	0
14777955	2507	0	0	-100	0	230	101300000	1000	0	0	-1	0
14790515	2507	0	0	-100	0	230	101300000	1000	0	0	-1	0
14803075	2502	0	0	-100	0	230	101300000	1000	0	0	-1	0
14815635	2505	1	0	-100	0	230	101300000	1000	0	0	-1	0
14828195	2506	3	0	-100	0	230	101300000	1000	0	0	-1	0
14840755	2502	1	0	-100	0	230	101300000	1000	0	0	-1	0
14853315	2504	2	0	-100	0	230	101300000	1000	0	0	-1	0
14865875	2505	2	0	-100	0	230	101300000	1000	0	0	-1	0
14878435	2505	1	0	-100	0	230	101300000	1000	0	0	-1	0
14890995	2512	0	0	-100	0	230	101300000	1000	0	0	-1	0
14903555	2511	0	0	-100	0	230	101300000	1000	0	0	-1	0
14916115	2510	0	0	-100	0	230	101300000	1000	0	0	-1	0
14928675	2511	0	0	-100	0	230	101300000	1000	0	0	-1	0
14941235	2514	0	0	-100	0	230	101300000	1000	0	0	-1	0
14953795	2511	0	0	-100	0	230	101300000	1000	0	0	-1	0
14966355	2511	0	0	-100	0	230	101300000	1000	0	0	-1	0
14978915	2508	0	0	-100	0	230	101300000	1000	0	0	-1	0
14991475	2506	0	0	-100	0	230	101300000	1000	0	0	-1	0
15004035	2502	0	0	-100	0	230	101300000	1000	0	0	-1	0
15016595	2503	0	0	-100	0	230	101300000	1000	0	0	-1	0
15029155	2507	0	0	-100	0	230	101300000	1000	0	0	-1	0
15041715	2509	0	0	-100	0	230	101300000	1000	0	0	-1	0
15054275	2511	0	0	-100	0	230	101300000	1000	0	0	-1	0
15066835	2512	0	0	-100	0	230	101300000	1000	0	0	-1	0
15079395	2512	0	0	-100	0	230	101300000	1000	0	0	-1	0
15091955	2513	0	0	-100	0	230	101300000	1000	0	0	-1	0
15104515	2509	0	0	-100	0	230	101300000	1000	0	0	-1	0
15117075	2511	0	0	-100	0	230	101300000	1000	0	0	-1	0
15129635	2514	0	0	-100	0	230	101300000	1000	0	0	-1	0
15142195	2510	0	0	-100	0	230	101300000	1000	0	0	-1	0
15154755	2516	0	0	-100	0	230	101300000	1000	0	0	-1	0
15167315	2516	0	0	-100	0	230	101300000	1000	0	0	-1	0
15179875	2510	0	0	-100	0	230	101300000	1000	0	0	-1	0
15192435	2513	0	0	-100	0	230	101300000	1000	0	0	-1	0
15204995	2513	0	0	-100	0	230	101300000	1000	0	0	-1	0
15217555	2507	0	0	-100	0	230	101300000	1000	0	0	-1	0
15230115	2509	0	0	-100	0	230	101300000	1000	0	0	-1	0
15242675	2511	0	0	-100	0	230	101300000	1000	0	0	-1	0
15255235	2511	0	0	-100	0	230	101300000	1000	0	0	-1	0
15267795	2513	0	0	-100	0	230	101300000	1000	0	0	-1	0
15280355	2511	0	0	-100	0	230	101300000	1000	0	0	-1	0
15292915	2511	0	0	-100	0	230	101300000	1000	0	0	-1	0
15305475	2510	0	0	-100	0	230	101300000	1000	0	0	-1	0
15318035	2507	0	0	-100	0	230	101300000	1000	0	0	-1	0
15330595	2511	0	0	-100	0	230	101300000	1000	0	0	-1	0
15343155	2505	0	0	-100	0	230	101300000	1000	0	0	-1	0
15355715	2510	0	0	-100	0	230	101300000	1000	0	0	-1	0
15368275	2506	1	0	-100	0	230	101300000	1000	0	0	-1	0
15380835	2507	0	0	-100	0	230	101300000	1000	0	0	-1	0
15393395	2506	0	0	-100	0	230	101300000	1000	0	0	-1	0
15405955	2504	0	0	-100	0	230	101300000	1000	0	0	-1	0
15418515	2504	2	0	-100	0	230	101300000	1000	0	0	-1	0
15431075	2507	2	0	-100	0	230	101300000	1000	0	0	-1	0
15443635	2505	0	0	-100	0	230	101300000	1000	0	0	-1	0
15456195	2504	0	0	-100	0	230	101300000	1000	0	0	-1	0
15468755	2507	0	0	-100	0	230	101300000	1000	0	0	-1	0
15481315	2507	0	0	-100	0	230	101300000	1000	0	0	-1	0
15493875	2508	0	0	-100	0	230	101300000	1000	0	0	-1	0
15506435	2509	0	0	-100	0	230	101300000	1000	0	0	-1	0
15518995	2508	0	0	-100	0	230	101300000	1000	0	0	-1	0
15531555	2512	0	0	-100	0	230	101300000	1000	0	0	-1	0
15544115	2508	0	0	-100	0	230	101300000	1000	0	0	-1	0
15556675	2508	0	0	-100	0	230	101300000	1000	0	0	-1	0
15569235	2511	0	0	-100	0	230	101300000	1000	0	0	-1	0
15581795	2509	0	0	-100	0	230	101300000	1000	0	0	-1	0
15594355	2511	0	0	-100	0	230	101300000	1000	0	0	-1	0
15606915	2512	0	0	-100	0	230	101300000	1000	0	0	-1	0
15619475	2508	0	0	-100	0	230	101300000	1000	0	0	-1	0
15632035	2511	0	0	-100	0	230	101300000	1000	0	0	-1	0
15644595	2511	0	0	-100	0	230	101300000	1000	0	0	-1	0
15657155	2509	0	0	-100	0	230	101300000	1000	0	0	-1	0
15669715	2512	0	0	-100	0	230	101300000	1000	0	0	-1	0
15682275	2509	0	0	-100	0	230	101300000	1000	0	0	-1	0
15694835	2504	0	0	-100	0	230	101300000	1000	0	0	-1	0
15707395	2507	0	0	-100	0	230	101300000	1000	0	0	-1	0
15719955	2508	0	0	-100	0	230	101300000	1000	0	0	-1	0
15732515	2511	0	0	-100	0	230	101300000	1000	0	0	-1	0
15745075	2510	0	0	-100	0	230	101300000	1000	0	0	-1	0
15757635	2511	0	0	-100	0	230	101300000	1000	0	0	-1	0
15770195	2511	0	0	-100	0	230	101300000	1000	0	0	-1	0
15782755	2501	0	0	-100	0	230	101300000	1000	0	0	-1	0
15795315	2505	2	0	-100	0	230	101300000	1000	0	0	-1	0
15807875	2507	4	0	-100	0	230	101300000	1000	0	0	-1	0
15820435	2506	0	0	-100	0	230	101300000	1000	0	0	-1	0
15832995	2508	0	0	-100	0	230	101300000	1000	0	0	-1	0
15845555	2503	0	0	-100	0	230	101300000	1000	0	0	-1	0
15858115	2503	0	0	-100	0	230	101300000	1000	0	0	-1	0
15870675	2511	0	0	-100	0	230	101300000	1000	0	0	-1	0
15883235	2511	0	0	-100	0	230	101300000	1000	0	0	-1	0
15895795	2510	0	0	-100	0	230	101300000	1000	0	0	-1	0
15908355	2514	0	0	-100	0	230	101300000	1000	0	0	-1	0
15920915	2510	0	0	-100	0	230	101300000	1000	0	0	-1	0
15933475	2512	0	0	-100	0	230	101300000	1000	0	0	-1	0
15946035	2514	0	0	-100	0	230	101300000	1000	0	0	-1	0
15958595	2507	0	0	-100	0	230	101300000	1000	0	0	-1	0
15971155	2507	0	0	-100	0	230	101300000	1000	0	0	-1	0
15983715	2504	0	0	-100	0	230	101300000	1000	0	0	-1	0
15996275	2505	1	0	-100	0	230	101300000	1000	0	0	-1	0
16008835	2505	0	0	-100	0	230	101300000	1000	0	0	-1	0
16021395	2507	0	0	-100	0	230	101300000	1000	0	0	-1	0
16033955	2507	0	0	-100	0	230	101300000	1000	0	0	-1	0
16046515	2507	0	0	-100	0	230	101300000	1000	0	0	-1	0
16059075	2502	0	0	-100	0	230	101300000	1000	0	0	-1	0
16071635	2507	1	0	-100	0	230	101300000	1000	0	0	-1	0
16084195	2505	2	0	-100	0	230	101300000	1000	0	0	-1	0
16096755	2507	0	0	-100	0	230	101300000	1000	0	0	-1	0
16109315	2503	0	0	-100	0	230	101300000	1000	0	0	-1	0
16121875	2502	0	0	-100	0	230	101300000	1000	0	0	-1	0
16134435	2504	0	0	-100	0	230	101300000	1000	0	0	-1	0
16146995	2506	0	0	-100	0	230	101300000	1000	0	0	-1	0
16159555	2503	0	0	-100	0	230	101300000	1000	0	0	-1	0
16172115	2505	0	0	-100	0	230	101300000	1000	0	0	-1	0
16184675	2509	0	0	-100	0	230	101300000	1000	0	0	-1	0
16197235	2508	0	0	-100	0	230	101300000	1000	0	0	-1	0
16209795	2509	0	0	-100	0	230	101300000	1000	0	0	-1	0
16222355	2510	0	0	-100	0	230	101300000	1000	0	0	-1	0
16234915	2514	0	0	-100	0	230	101300000	1000	0	0	-1	0
16247475	2503	0	0	-100	0	230	101300000	1000	0	0	-1	0
16260035	2503	3	0	-100	0	230	101300000	1000	0	0	-1	0
16272595	2507	3	0	-100	0	230	101300000	1000	0	0	-1	0
16285155	2505	3	0	-100	0	230	101300000	1000	0	0	-1	0
16297715	2505	3	0	-100	0	230	101300000	1000	0	0	-1	0
16310275	2505	4	0	-100	0	230	101300000	1000	0	0	-1	0
16322835	2504	3	0	-100	0	230	101300000	1000	0	0	-1	0
16335395	2508	4	0	-100	0	230	101300000	1000	0	0	-1	0
16347955	2509	1	0	-100	0	230	101300000	1000	0	0	-1	0
16360515	2506	0	0	-100	0	230	101300000	1000	0	0	-1	0
16373075	2505	0	0	-100	0	230	101300000	1000	0	0	-1	0
16385635	2506	0	0	-100	0	230	101300000	1000	0	0	-1	0
16398195	2502	0	0	-100	0	230	101300000	1000	0	0	-1	0
16410755	2505	0	0	-100	0	230	101300000	1000	0	0	-1	0
16423315	2505	2	0	-100	0	230	101300000	1000	0	0	-1	0
16435875	2507	2	0	-100	0	230	101300000	1000	0	0	-1	0
16448435	2508	0	0	-100	0	230	101300000	1000	0	0	-1	0
16460995	2501	0	0	-100	0	230	101300000	1000	0	0	-1	0
16473555	2510	0	0	-100	0	230	101300000	1000	0	0	-1	0
16486115	2513	0	0	-100	0	230	101300000	1000	0	0	-1	0
16498675	2511	0	0	-100	0	230	101300000	1000	0	0	-1	0
16511235	2513	0	0	-100	0	230	101300000	1000	0	0	-1	0
16523795	2511	0	0	-100	0	230	101300000	1000	0	0	-1	0
16536355	2514	0	0	-100	0	230	101300000	1000	0	0	-1	0
16548915	2513	0	0	-100	0	230	101300000	1000	0	0	-1	0
16561475	2503	0	0	-100	0	230	101300000	1000	0	0	-1	0
16574035	2507	2	0	-100	0	230	101300000	1000	0	0	-1	0
16586595	2503	3	0	-100	0	230	101300000	1000	0	0	-1	0
16599155	2503	0	0	-100	0	230	101300000	1000	0	0	-1	0
16611715	2503	0	0	-100	0	230	101300000	1000	0	0	-1	0
16624275	2503	0	0	-100	0	230	101300000	1000	0	0	-1	0
16636835	2511	0	0	-100	0	230	101300000	1000	0	0	-1	0
16649395	2512	0	0	-100	0	230	101300000	1000	0	0	-1	0
16661955	2512	0	0	-100	0	230	101300000	1000	0	0	-1	0
16674515	2506	0	0	-100	0	230	101300000	1000	0	0	-1	0
16687075	2503	3	0	-100	0	230	101300000	1000	0	0	-1	0
16699635	2506	0	0	-100	0	230	101300000	1000	0	0	-1	0
16712195	2509	0	0	-100	0	230	101300000	1000	0	0	-1	0
16724755	2506	1	0	-100	0	230	101300000	1000	0	0	-1	0
16737315	2505	4	0	-100	0	230	101300000	1000	0	0	-1	0
16749875	2507	2	0	-100	0	230	101300000	1000	0	0	-1	0
16762435	2502	2	0	-100	0	230	101300000	1000	0	0	-1	0
16774995	2507	0	0	-100	0	230	101300000	1000	0	0	-1	0
16787555	2504	0	0	-100	0	230	101300000	1000	0	0	-1	0
16800115	2503	0	0	-100	0	230	101300000	1000	0	0	-1	0
16812675	2510	0	0	-100	0	230	101300000	1000	0	0	-1	0
16825235	2507	0	0	-100	0	230	101300000	1000	0	0	-1	0
16837795	2507	0	0	-100	0	230	101300000	1000	0	0	-1	0
16850355	2507	0	0	-100	0	230	101300000	1000	0	0	-1	0
16862915	2503	0	0	-100	0	230	101300000	1000	0	0	-1	0
16875475	2509	0	0	-100	0	230	101300000	1000	0	0	-1	0
16888035	2516	0	0	-100	0	230	101300000	1000	0	0	-1	0
16900595	2511	0	0	-100	0	230	101300000	1000	0	0	-1	0
16913155	2509	0	0	-100	0	230	101300000	1000	0	0	-1	0
16925715	2509	0	0	-100	0	230	101300000	1000	0	0	-1	0
16938275	2507	0	0	-100	0	230	101300000	1000	0	0	-1	0
16950835	2507	0	0	-100	0	230	101300000	1000	0	0	-1	0
16963395	2505	0	0	-100	0	230	101300000	1000	0	0	-1	0
16975955	2505	0	0	-100	0	230	101300000	1000	0	0	-1	0
16988515	2507	0	0	-100	0	230	101300000	1000	0	0	-1	0
17001075	2505	0	0	-100	0	230	101300000	1000	0	0	-1	0
17013635	2512	0	0	-100	0	230	101300000	1000	0	0	-1	0
17026195	2512	0	0	-100	0	230	101300000	1000	0	0	-1	0
17038755	2505	0	0	-100	0	230	101300000	1000	0	0	-1	0
17051315	2507	2	0	-100	0	230	101300000	1000	0	0	-1	0
17063875	2504	3	0	-100	0	230	101300000	1000	0	0	-1	0
17076435	2503	0	0	-100	0	230	101300000	1000	0	0	-1	0
17088995	2509	0	0	-100	0	230	101300000	1000	0	0	-1	0
17101555	2507	3	0	-100	0	230	101300000	1000	0	0	-1	0
17114115	2504	2	0	-100	0	230	101300000	1000	0	0	-1	0
17126675	2506	0	0	-100	0	230	101300000	1000	0	0	-1	0
17139235	2504	0	0	-100	0	230	101300000	1000	0	0	-1	0
17151795	2509	0	0	-100	0	230	101300000	1000	0	0	-1	0
17164355	2510	0	0	-100	0	230	101300000	1000	0	0	-1	0
17176915	2509	0	0	-100	0	230	101300000	1000	0	0	-1	0
17189475	2511	0	0	-100	0	230	101300000	1000	0	0	-1	0
17202035	2511	0	0	-100	0	230	101300000	1000	0	0	-1	0
17214595	2511	0	0	-100	0	230	101300000	1000	0	0	-1	0
17227155	2511	0	0	-100	0	230	101300000	1000	0	0	-1	0
17239715	2508	0	0	-100	0	230	101300000	1000	0	0	-1	0
17252275	2508	0	0	-100	0	230	101300000	1000	0	0	-1	0
17264835	2503	0	0	-100	0	230	101300000	1000	0	0	-1	0
17277395	2504	0	0	-100	0	230	101300000	1000	0	0	-1	0
17289955	2506	0	0	-100	0	230	101300000	1000	0	0	-1	0
17302515	2504	0	0	-100	0	230	101300000	1000	0	0	-1	0
17315075	2507	0	0	-100	0	230	101300000	1000	0	0	-1	0
17327635	2505	0	0	-100	0	230	101300000	1000	0	0	-1	0
17340195	2505	0	0	-100	0	230	101300000	1000	0	0	-1	0
17352755	2507	0	0	-100	0	230	101300000	1000	0	0	-1	0
17365315	2508	0	0	-100	0	230	101300000	1000	0	0	-1	0
17377875	2514	0	0	-100	0	230	101300000	1000	0	0	-1	0
17390435	2507	0	0	-100	0	230	101300000	1000	0	0	-1	0
17402995	2503	0	0	-100	0	230	101300000	1000	0	0	-1	0
17415555	2506	3	0	-100	0	230	101300000	1000	0	0	-1	0
17428115	2506	0	0	-100	0	230	101300000	1000	0	0	-1	0
17440675	2506	0	0	-100	0	230	101300000	1000	0	0	-1	0
17453235	2507	0	0	-100	0	230	101300000	1000	0	0	-1	0
17465795	2509	0	0	-100	0	230	101300000	1000	0	0	-1	0
17478355	2511	0	0	-100	0	230	101300000	1000	0	0	-1	0
17490915	2514	0	0	-100	0	230	101300000	1000	0	0	-1	0
17503475	2506	0	0	-100	0	230	101300000	1000	0	0	-1	0
17516035	2510	0	0	-100	0	230	101300000	1000	0	0	-1	0
17528595	2505	0	0	-100	0	230	101300000	1000	0	0	-1	0
17541155	2502	2	0	-100	0	230	101300000	1000	0	0	-1	0
17553715	2504	0	0	-100	0	230	101300000	1000	0	0	-1	0
17566275	2504	0	0	-100	0	230	101300000	1000	0	0	-1	0
17578835	2507	0	0	-100	0	230	101300000	1000	0	0	-1	0
17591395	2515	0	0	-100	0	230	101300000	1000	0	0	-1	0
17603955	2509	0	0	-100	0	230	101300000	1000	0	0	-1	0
17616515	2510	0	0	-100	0	230	101300000	1000	0	0	-1	0
17629075	2514	0	0	-100	0	230	101300000	1000	0	0	-1	0
17641635	2509	0	0	-100	0	230	101300000	1000	0	0	-1	0
17654195	2509	0	0	-100	0	230	101300000	1000	0	0	-1	0
17666755	2511	0	0	-100	0	230	101300000	1000	0	0	-1	0
17679315	2502	0	0	-100	0	230	101300000	1000	0	0	-1	0
17691875	2503	4	0	-100	0	230	101300000	1000	0	0	-1	0
17704435	2506	0	0	-100	0	230	101300000	1000	0	0	-1	0
17716995	2501	0	0	-100	0	230	101300000	1000	0	0	-1	0
17729555	2507	0	0	-100	0	230	101300000	1000	0	0	-1	0
17742115	2508	0	0	-100	0	230	101300000	1000	0	0	-1	0
17754675	2513	0	0	-100	0	230	101300000	1000	0	0	-1	0
17767235	2512	0	0	-100	0	230	101300000	1000	0	0	-1	0
17779795	2507	0	0	-100	0	230	101300000	1000	0	0	-1	0
17792355	2511	0	0	-100	0	230	101300000	1000	0	0	-1	0
17804915	2510	0	0	-100	0	230	101300000	1000	0	0	-1	0
17817475	2511	0	0	-100	0	230	101300000	1000	0	0	-1	0
17830035	2505	1	0	-100	0	230	101300000	1000	0	0	-1	0
17842595	2505	3	0	-100	0	230	101300000	1000	0	0	-1	0
17855155	2504	0	0	-100	0	230	101300000	1000	0	0	-1	0
17867715	2509	0	0	-100	0	230	101300000	1000	0	0	-1	0
17880275	2511	0	0	-100	0	230	101300000	1000	0	0	-1	0
17892835	2512	0	0	-100	0	230	101300000	1000	0	0	-1	0
17905395	2514	0	0	-100	0	230	101300000	1000	0	0	-1	0
17917955	2504	0	0	-100	0	230	101300000	1000	0	0	-1	0
17930515	2506	3	0	-100	0	230	101300000	1000	0	0	-1	0
17943075	2505	1	0	-100	0	230	101300000	1000	0	0	-1	0
17955635	2508	0	0	-100	0	230	101300000	1000	0	0	-1	0
17968195	2506	0	0	-100	0	230	101300000	1000	0	0	-1	0
17980755	2504	0	0	-100	0	230	101300000	1000	0	0	-1	0
17993315	2512	0	0	-100	0	230	101300000	1000	0	0	-1	0
18005875	2511	0	0	-100	0	230	101300000	1000	0	0	-1	0
18018435	2505	0	0	-100	0	230	101300000	1000	0	0	-1	0
18030995	2506	0	0	-100	0	230	101300000	1000	0	0	-1	0
18043555	2507	0	0	-100	0	230	101300000	1000	0	0	-1	0
18056115	2503	0	0	-100	0	230	101300000	1000	0	0	-1	0
18068675	2507	0	0	-100	0	230	101300000	1000	0	0	-1	0
18081235	2503	0	0	-100	0	230	101300000	1000	0	0	-1	0
18093795	2510	0	0	-100	0	230	101300000	1000	0	0	-1	0
18106355	2507	0	0	-100	0	230	101300000	1000	0	0	-1	0
18118915	2503	0	0	-100	0	230	101300000	1000	0	0	-1	0
18131475	2507	0	0	-100	0	230	101300000	1000	0	0	-1	0
18144035	2507	0	0	-100	0	230	101300000	1000	0	0	-1	0
18156595	2505	4	0	-100	0	230	101300000	1000	0	0	-1	0
18169155	2506	3	0	-100	0	230	101300000	1000	0	0	-1	0
18181715	2505	2	0	-100	0	230	101300000	1000	0	0	-1	0
18194275	2503	2	0	-100	0	230	101300000	1000	0	0	-1	0
18206835	2507	0	0	-100	0	230	101300000	1000	0	0	-1	0
18219395	2504	0	0	-100	0	230	101300000	1000	0	0	-1	0
18231955	2513	0	0	-100	0	230	101300000	1000	0	0	-1	0
18244515	2513	0	0	-100	0	230	101300000	1000	0	0	-1	0
18257075	2511	0	0	-100	0	230	101300000	1000	0	0	-1	0
18269635	2511	0	0	-100	0	230	101300000	1000	0	0	-1	0
18282195	2508	0	0	-100	0	230	101300000	1000	0	0	-1	0
18294755	2507	0	0	-100	0	230	101300000	1000	0	0	-1	0
18307315	2507	0	0	-100	0	230	101300000	1000	0	0	-1	0
18319875	2506	4	0	-100	0	230	101300000	1000	0	0	-1	0
18332435	2507	1	0	-100	0	230	101300000	1000	0	0	-1	0
18344995	2505	0	0	-100	0	230	101300000	1000	0	0	-1	0
18357555	2504	1	0	-100	0	230	101300000	1000	0	0	-1	0
18370115	2504	0	0	-100	0	230	101300000	1000	0	0	-1	0
18382675	2500	2	0	-100	0	230	101300000	1000	0	0	-1	0
18395235	2503	1	0	-100	0	230	101300000	1000	0	0	-1	0
18407795	2507	2	0	-100	0	230	101300000	1000	0	0	-1	0
18420355	2508	2	0	-100	0	230	101300000	1000	0	0	-1	0
18432915	2503	2	0	-100	0	230	101300000	1000	0	0	-1	0
18445475	2507	3	0	-100	0	230	101300000	1000	0	0	-1	0
18458035	2505	1	0	-100	0	230	101300000	1000	0	0	-1	0
18470595	2508	1	0	-100	0	230	101300000	1000	0	0	-1	0
18483155	2506	0	0	-100	0	230	101300000	1000	0	0	-1	0
18495715	2507	0	0	-100	0	230	101300000	1000	0	0	-1	0
18508275	2507	4	0	-100	0	230	101300000	1000	0	0	-1	0
18520835	2502	2	0	-100	0	230	101300000	1000	0	0	-1	0
18533395	2508	2	0	-100	0	230	101300000	1000	0	0	-1	0
18545955	2512	0	0	-100	0	230	101300000	1000	0	0	-1	0
18558515	2503	0	0	-100	0	230	101300000	1000	0	0	-1	0
18571075	2510	0	0	-100	0	230	101300000	1000	0	0	-1	0
18583635	2504	0	0	-100	0	230	101300000	1000	0	0	-1	0
18596195	2507	0	0	-100	0	230	101300000	1000	0	0	-1	0
18608755	2507	1	0	-100	0	230	101300000	1000	0	0	-1	0
18621315	2503	1	0	-100	0	230	101300000	1000	0	0	-1	0
18633875	2507	0	0	-100	0	230	101300000	1000	0	0	-1	0
18646435	2507	0	0	-100	0	230	101300000	1000	0	0	-1	0
18658995	2512	4	0	-100	0	230	101300000	1000	0	0	-1	0
18671555	2513	0	0	-100	0	230	101300000	1000	0	0	-1	0
18684115	2510	0	0	-100	0	230	101300000	1000	0	0	-1	0
18696675	2511	0	0	-100	0	230	101300000	1000	0	0	-1	0
18709235	2513	0	0	-100	0	230	101300000	1000	0	0	-1	0
18721795	2511	0	0	-100	0	230	101300000	1000	0	0	-1	0
18734355	2511	0	0	-100	0	230	101300000	1000	0	0	-1	0
18746915	2509	0	0	-100	0	230	101300000	1000	0	0	-1	0
18759475	2511	0	0	-100	0	230	101300000	1000	0	0	-1	0
18772035	2514	0	0	-100	0	230	101300000	1000	0	0	-1	0
18784595	2511	0	0	-100	0	230	101300000	1000	0	0	-1	0
18797155	2509	0	0	-100	0	230	101300000	1000	0	0	-1	0
18809715	2511	0	0	-100	0	230	101300000	1000	0	0	-1	0
18822275	2507	0	0	-100	0	230	101300000	1000	0	0	-1	0
18834835	2503	0	0	-100	0	230	101300000	1000	0	0	-1	0
18847395	2503	0	0	-100	0	230	101300000	1000	0	0	-1	0
18859955	2506	0	0	-100	0	230	101300000	1000	0	0	-1	0
18872515	2507	4	0	-100	0	230	101300000	1000	0	0	-1	0
18885075	2507	0	0	-100	0	230	101300000	1000	0	0	-1	0
18897635	2505	3	0	-100	0	230	101300000	1000	0	0	-1	0
18910195	2507	3	0	-100	0	230	101300000	1000	0	0	-1	0
18922755	2507	2	0	-100	0	230	101300000	1000	0	0	-1	0
18935315	2507	4	0	-100	0	230	101300000	1000	0	0	-1	0
18947875	2507	1	0	-100	0	230	101300000	1000	0	0	-1	0
18960435	2505	0	0	-100	0	230	101300000	1000	0	0	-1	0
18972995	2503	0	0	-100	0	230	101300000	1000	0	0	-1	0
18985555	2505	0	0	-100	0	230	101300000	1000	0	0	-1	0
18998115	2504	3	0	-100	0	230	101300000	1000	0	0	-1	0
19010675	2505	3	0	-100	0	230	101300000	1000	0	0	-1	0
19023235	2506	0	0	-100	0	230	101300000	1000	0	0	-1	0
19035795	2503	0	0	-100	0	230	101300000	1000	0	0	-1	0
19048355	2509	0	0	-100	0	230	101300000	1000	0	0	-1	0
19060915	2508	0	0	-100	0	230	101300000	1000	0	0	-1	0
19073475	2512	0	0	-100	0	230	101300000	1000	0	0	-1	0
19086035	2509	0	0	-100	0	230	101300000	1000	0	0	-1	0
19098595	2507	0	0	-100	0	230	101300000	1000	0	0	-1	0
19111155	2513	0	0	-100	0	230	101300000	1000	0	0	-1	0
19123715	2514	0	0	-100	0	230	101300000	1000	0	0	-1	0
19136275	2507	0	0	-100	0	230	101300000	1000	0	0	-1	0
19148835	2507	4	0	-100	0	230	101300000	1000	0	0	-1	0
19161395	2504	0	0	-100	0	230	101300000	1000	0	0	-1	0
19173955	2508	0	0	-100	0	230	101300000	1000	0	0	-1	0
19186515	2513	0	0	-100	0	230	101300000	1000	0	0	-1	0
19199075	2511	0	0	-100	0	230	101300000	1000	0	0	-1	0
19211635	2510	0	0	-100	0	230	101300000	1000	0	0	-1	0
19224195	2506	3	0	-100	0	230	101300000	1000	0	0	-1	0
19236755	2503	3	0	-100	0	230	101300000	1000	0	0	-1	0
19249315	2508	0	0	-100	0	230	101300000	1000	0	0	-1	0
19261875	2502	0	0	-100	0	230	101300000	1000	0	0	-1	0
19274435	2509	0	0	-100	0	230	101300000	1000	0	0	-1	0
19286995	2514	1	0	-100	0	230	101300000	1000	0	0	-1	0
19299555	2513	0	0	-100	0	230	101300000	1000	0	0	-1	0
19312115	2505	0	0	-100	0	230	101300000	1000	0	0	-1	0
19324675	2507	2	0	-100	0	230	101300000	1000	0	0	-1	0
19337235	2503	0	0	-100	0	230	101300000	1000	0	0	-1	0
19349795	2511	0	0	-100	0	230	101300000	1000	0	0	-1	0
19362355	2509	0	0	-100	0	230	101300000	1000	0	0	-1	0
19374915	2510	0	0	-100	0	230	101300000	1000	0	0	-1	0
19387475	2511	0	0	-100	0	230	101300000	1000	0	0	-1	0
19400035	2508	0	0	-100	0	230	101300000	1000	0	0	-1	0
19412595	2505	1	0	-100	0	230	101300000	1000	0	0	-1	0
19425155	2506	0	0	-100	0	230	101300000	1000	0	0	-1	0
19437715	2506	0	0	-100	0	230	101300000	1000	0	0	-1	0
19450275	2511	0	0	-100	0	230	101300000	1000	0	0	-1	0
19462835	2510	0	0	-100	0	230	101300000	1000	0	0	-1	0
19475395	2507	0	0	-100	0	230	101300000	1000	0	0	-1	0
19487955	2505	2	0	-100	0	230	101300000	1000	0	0	-1	0
19500515	2502	0	0	-100	0	230	101300000	1000	0	0	-1	0
19513075	2510	0	0	-100	0	230	101300000	1000	0	0	-1	0
19525635	2507	0	0	-100	0	230	101300000	1000	0	0	-1	0
19538195	2506	4	0	-100	0	230	101300000	1000	0	0	-1	0
19550755	2509	0	0	-100	0	230	101300000	1000	0	0	-1	0
19563315	2509	0	0	-100	0	230	101300000	1000	0	0	-1	0
19575875	2511	0	0	-100	0	230	101300000	1000	0	0	-1	0
19588435	2508	0	0	-100	0	230	101300000	1000	0	0	-1	0
19600995	2504	0	0	-100	0	230	101300000	1000	0	0	-1	0
19613555	2507	2	0	-100	0	230	101300000	1000	0	0	-1	0
19626115	2506	4	0	-100	0	230	101300000	1000	0	0	-1	0
19638675	2503	2	0	-100	0	230	101300000	1000	0	0	-1	0
19651235	2508	3	0	-100	0	230	101300000	1000	0	0	-1	0
19663795	2504	3	0	-100	0	230	101300000	1000	0	0	-1	0
19676355	2505	0	0	-100	0	230	101300000	1000	0	0	-1	0
19688915	2506	0	0	-100	0	230	101300000	1000	0	0	-1	0
19701475	2503	0	0	-100	0	230	101300000	1000	0	0	-1	0
19714035	2508	0	0	-100	0	230	101300000	1000	0	0	-1	0
19726595	2508	0	0	-100	0	230	101300000	1000	0	0	-1	0
19739155	2508	0	0	-100	0	230	101300000	1000	0	0	-1	0
19751715	2514	0	0	-100	0	230	101300000	1000	0	0	-1	0
19764275	2511	0	0	-100	0	230	101300000	1000	0	0	-1	0
19776835	2506	0	0	-100	0	230	101300000	1000	0	0	-1	0
19789395	2507	2	0	-100	0	230	101300000	1000	0	0	-1	0
19801955	2505	3	0	-100	0	230	101300000	1000	0	0	-1	0
19814515	2504	0	0	-100	0	230	101300000	1000	0	0	-1	0
19827075	2507	0	0	-100	0	230	101300000	1000	0	0	-1	0
19839635	2505	0	0	-100	0	230	101300000	1000	0	0	-1	0
19852195	2511	0	0	-100	0	230	101300000	1000	0	0	-1	0
19864755	2511	0	0	-100	0	230	101300000	1000	0	0	-1	0
19877315	2511	0	0	-100	0	230	101300000	1000	0	0	-1	0
19889875	2507	3	0	-100	0	230	101300000	1000	0	0	-1	0
19902435	2502	0	0	-100	0	230	101300000	1000	0	0	-1	0
19914995	2509	0	0	-100	0	230	101300000	1000	0	0	-1	0
19927555	2511	0	0	-100	0	230	101300000	1000	0	0	-1	0
19940115	2508	0	0	-100	0	230	101300000	1000	0	0	-1	0
19952675	2507	0	0	-100	0	230	101300000	1000	0	0	-1	0
19965235	2506	3	0	-100	0	230	101300000	1000	0	0	-1	0
19977795	2505	0	0	-100	0	230	101300000	1000	0	0	-1	0
19990355	2510	0	0	-100	0	230	101300000	1000	0	0	-1	0
20002915	2511	0	0	-100	0	230	101300000	1000	0	0	-1	0
20015475	2507	0	0	-100	0	230	101300000	1000	0	0	-1	0
20028035	2504	1	0	-100	0	230	101300000	1000	0	0	-1	0
20040595	2505	2	0	-100	0	230	101300000	1000	0	0	-1	0
20053155	2507	1	0	-100	0	230	101300000	1000	0	0	-1	0
20065715	2503	0	0	-100	0	230	101300000	1000	0	0	-1	0
20078275	2503	0	0	-100	0	230	101300000	1000	0	0	-1	0
20090835	2509	0	0	-100	0	230	101300000	1000	0	0	-1	0
20103395	2507	0	0	-100	0	230	101300000	1000	0	0	-1	0
20115955	2512	0	0	-100	0	230	101300000	1000	0	0	-1	0
20128515	2512	0	0	-100	0	230	101300000	1000	0	0	-1	0
20141075	2502	0	0	-100	0	230	101300000	1000	0	0	-1	0
20153635	2506	4	0	-100	0	230	101300000	1000	0	0	-1	0
20166195	2504	0	0	-100	0	230	101300000	1000	0	0	-1	0
20178755	2504	0	0	-100	0	230	101300000	1000	0	0	-1	0
20191315	2507	0	0	-100	0	230	101300000	1000	0	0	-1	0
20203875	2506	0	0	-100	0	230	101300000	1000	0	0	-1	0
20216435	2508	0	0	-100	0	230	101300000	1000	0	0	-1	0
20228995	2511	0	0	-100	0	230	101300000	1000	0	0	-1	0
20241555	2508	0	0	-100	0	230	101300000	1000	0	0	-1	0
20254115	2510	0	0	-100	0	230	101300000	1000	0	0	-1	0
20266675	2514	0	0	-100	0	230	101300000	1000	0	0	-1	0
20279235	2512	0	0	-100	0	230	101300000	1000	0	0	-1	0
20291795	2505	1	0	-100	0	230	101300000	1000	0	0	-1	0
20304355	2503	0	0	-100	0	230	101300000	1000	0	0	-1	0
20316915	2508	0	0	-100	0	230	101300000	1000	0	0	-1	0
20329475	2512	0	0	-100	0	230	101300000	1000	0	0	-1	0
20342035	2504	0	0	-100	0	230	101300000	1000	0	0	-1	0
20354595	2504	3	0	-100	0	230	101300000	1000	0	0	-1	0
20367155	2503	0	0	-100	0	230	101300000	1000	0	0	-1	0
20379715	2507	0	0	-100	0	230	101300000	1000	0	0	-1	0
20392275	2514	0	0	-100	0	230	101300000	1000	0	0	-1	0
20404835	2504	0	0	-100	0	230	101300000	1000	0	0	-1	0
20417395	2504	3	0	-100	0	230	101300000	1000	0	0	-1	0
20429955	2505	0	0	-100	0	230	101300000	1000	0	0	-1	0
20442515	2507	0	0	-100	0	230	101300000	1000	0	0	-1	0
20455075	2510	0	0	-100	0	230	101300000	1000	0	0	-1	0
20467635	2509	0	0	-100	0	230	101300000	1000	0	0	-1	0
20480195	2504	4	0	-100	0	230	101300000	1000	0	0	-1	0
20492755	2507	0	0	-100	0	230	101300000	1000	0	0	-1	0
20505315	2510	0	0	-100	0	230	101300000	1000	0	0	-1	0
20517875	2508	0	0	-100	0	230	101300000	1000	0	0	-1	0
20530435	2512	0	0	-100	0	230	101300000	1000	0	0	-1	0
20542995	2504	0	0	-100	0	230	101300000	1000	0	0	-1	0
20555555	2505	0	0	-100	0	230	101300000	1000	0	0	-1	0
20568115	2515	0	0	-100	0	230	101300000	1000	0	0	-1	0
20580675	2507	1	0	-100	0	230	101300000	1000	0	0	-1	0
20593235	2509	4	0	-100	0	230	101300000	1000	0	0	-1	0
20605795	2508	0	0	-100	0	230	101300000	1000	0	0	-1	0
20618355	2509	0	0	-100	0	230	101300000	1000	0	0	-1	0
20630915	2512	0	0	-100	0	230	101300000	1000	0	0	-1	0
20643475	2506	1	0	-100	0	230	101300000	1000	0	0	-1	0
20656035	2507	0	0	-100	0	230	101300000	1000	0	0	-1	0
20668595	2506	0	0	-100	0	230	101300000	1000	0	0	-1	0
20681155	2507	0	0	-100	0	230	101300000	1000	0	0	-1	0
20693715	2513	0	0	-100	0	230	101300000	1000	0	0	-1	0
20706275	2512	0	0	-100	0	230	101300000	1000	0	0	-1	0
20718835	2514	0	0	-100	0	230	101300000	1000	0	0	-1	0
20731395	2514	0	0	-100	0	230	101300000	1000	0	0	-1	0
20743955	2506	0	0	-100	0	230	101300000	1000	0	0	-1	0
20756515	2509	0	0	-100	0	230	101300000	1000	0	0	-1	0
20769075	2507	2	0	-100	0	230	101300000	1000	0	0	-1	0
20781635	2504	1	0	-100	0	230	101300000	1000	0	0	-1	0
20794195	2507	1	0	-100	0	230	101300000	1000	0	0	-1	0
20806755	2503	0	0	-100	0	230	101300000	1000	0	0	-1	0
20819315	2505	0	0	-100	0	230	101300000	1000	0	0	-1	0
20831875	2506	0	0	-100	0	230	101300000	1000	0	0	-1	0
20844435	2510	0	0	-100	0	230	101300000	1000	0	0	-1	0
20856995	2514	3	0	-100	0	230	101300000	1000	0	0	-1	0
20869555	2511	0	0	-100	0	230	101300000	1000	0	0	-1	0
20882115	2507	0	0	-100	0	230	101300000	1000	0	0	-1	0
20894675	2503	1	0	-100	0	230	101300000	1000	0	0	-1	0
20907235	2507	2	0	-100	0	230	101300000	1000	0	0	-1	0
20919795	2506	3	0	-100	0	230	101300000	1000	0	0	-1	0
20932355	2506	2	0	-100	0	230	101300000	1000	0	0	-1	0
20944915	2503	0	0	-100	0	230	101300000	1000	0	0	-1	0
20957475	2507	0	0	-100	0	230	101300000	1000	0	0	-1	0
20970035	2508	0	0	-100	0	230	101300000	1000	0	0	-1	0
20982595	2512	0	0	-100	0	230	101300000	1000	0	0	-1	0
20995155	2511	0	0	-100	0	230	101300000	1000	0	0	-1	0
21007715	2511	0	0	-100	0	230	101300000	1000	0	0	-1	0
21020275	2508	0	0	-100	0	230	101300000	1000	0	0	-1	0
21032835	2511	0	0	-100	0	230	101300000	1000	0	0	-1	0
21045395	2506	0	0	-100	0	230	101300000	1000	0	0	-1	0
21057955	2506	0	0	-100	0	230	101300000	1000	0	0	-1	0
21070515	2511	0	0	-100	0	230	101300000	1000	0	0	-1	0
21083075	2508	0	0	-100	0	230	101300000	1000	0	0	-1	0
21095635	2511	0	0	-100	0	230	101300000	1000	0	0	-1	0
21108195	2511	0	0	-100	0	230	101300000	1000	0	0	-1	0
21120755	2508	0	0	-100	0	230	101300000	1000	0	0	-1	0
21133315	2507	0	0	-100	0	230	101300000	1000	0	0	-1	0
21145875	2508	0	0	-100	0	230	101300000	1000	0	0	-1	0
21158435	2505	0	0	-100	0	230	101300000	1000	0	0	-1	0
21170995	2505	0	0	-100	0	230	101300000	1000	0	0	-1	0
21183555	2504	2	0	-100	0	230	101300000	1000	0	0	-1	0
21196115	2504	3	0	-100	0	230	101300000	1000	0	0	-1	0
21208675	2504	2	0	-100	0	230	101300000	1000	0	0	-1	0
21221235	2505	1	0	-100	0	230	101300000	1000	0	0	-1	0
21233795	2503	1	0	-100	0	230	101300000	1000	0	0	-1	0
21246355	2507	0	0	-100	0	230	101300000	1000	0	0	-1	0
21258915	2510	0	0	-100	0	230	101300000	1000	0	0	-1	0
21271475	2510	0	0	-100	0	230	101300000	1000	0	0	-1	0
21284035	2504	0	0	-100	0	230	101300000	1000	0	0	-1	0
21296595	2507	0	0	-100	0	230	101300000	1000	0	0	-1	0
21309155	2507	0	0	-100	0	230	101300000	1000	0	0	-1	0
21321715	2508	0	0	-100	0	230	101300000	1000	0	0	-1	0
21334275	2509	0	0	-100	0	230	101300000	1000	0	0	-1	0
21346835	2510	0	0	-100	0	230	101300000	1000	0	0	-1	0
21359395	2510	0	0	-100	0	230	101300000	1000	0	0	-1	0
21371955	2514	0	0	-100	0	230	101300000	1000	0	0	-1	0
21384515	2508	0	0	-100	0	230	101300000	1000	0	0	-1	0
21397075	2511	0	0	-100	0	230	101300000	1000	0	0	-1	0
21409635	2511	0	0	-100	0	230	101300000	1000	0	0	-1	0
21422195	2507	0	0	-100	0	230	101300000	1000	0	0	-1	0
21434755	2505	0	0	-100	0	230	101300000	1000	0	0	-1	0
21447315	2506	0	0	-100	0	230	101300000	1000	0	0	-1	0
21459875	2503	0	0	-100	0	230	101300000	1000	0	0	-1	0
21472435	2506	0	0	-100	0	230	101300000	1000	0	0	-1	0
21484995	2505	0	0	-100	0	230	101300000	1000	0	0	-1	0
21497555	2505	0	0	-100	0	230	101300000	1000	0	0	-1	0
21510115	2510	0	0	-100	0	230	101300000	1000	0	0	-1	0
21522675	2504	2	0	-100	0	230	101300000	1000	0	0	-1	0
21535235	2506	3	0	-100	0	230	101300000	1000	0	0	-1	0
21547795	2504	0	0	-100	0	230	101300000	1000	0	0	-1	0
21560355	2504	1	0	-100	0	230	101300000	1000	0	0	-1	0
21572915	2511	0	0	-100	0	230	101300000	1000	0	0	-1	0
21585475	2512	0	0	-100	0	230	101300000	1000	0	0	-1	0
21598035	2510	0	0	-100	0	230	101300000	1000	0	0	-1	0
21610595	2511	0	0	-100	0	230	101300000	1000	0	0	-1	0
21623155	2507	0	0	-100	0	230	101300000	1000	0	0	-1	0
21635715	2506	0	0	-100	0	230	101300000	1000	0	0	-1	0
21648275	2505	0	0	-100	0	230	101300000	1000	0	0	-1	0
21660835	2504	0	0	-100	0	230	101300000	1000	0	0	-1	0
21673395	2503	3	0	-100	0	230	101300000	1000	0	0	-1	0
21685955	2504	0	0	-100	0	230	101300000	1000	0	0	-1	0
21698515	2510	0	0	-100	0	230	101300000	1000	0	0	-1	0
21711075	2507	0	0	-100	0	230	101300000	1000	0	0	-1	0
21723635	2507	0	0	-100	0	230	101300000	1000	0	0	-1	0
21736195	2504	2	0	-100	0	230	101300000	1000	0	0	-1	0
21748755	2507	2	0	-100	0	230	101300000	1000	0	0	-1	0
21761315	2509	2	0	-100	0	230	101300000	1000	0	0	-1	0
21773875	2503	0	0	-100	0	230	101300000	1000	0	0	-1	0
21786435	2507	0	0	-100	0	230	101300000	1000	0	0	-1	0
21798995	2507	0	0	-100	0	230	101300000	1000	0	0	-1	0
21811555	2508	0	0	-100	0	230	101300000	1000	0	0	-1	0
21824115	2508	0	0	-100	0	230	101300000	1000	0	0	-1	0
21836675	2508	0	0	-100	0	230	101300000	1000	0	0	-1	0
21849235	2513	0	0	-100	0	230	101300000	1000	0	0	-1	0
21861795	2508	0	0	-100	0	230	101300000	1000	0	0	-1	0
21874355	2508	0	0	-100	0	230	101300000	1000	0	0	-1	0
21886915	2514	0	0	-100	0	230	101300000	1000	0	0	-1	0
21899475	2511	0	0	-100	0	230	101300000	1000	0	0	-1	0
21912035	2513	0	0	-100	0	230	101300000	1000	0	0	-1	0
21924595	2509	0	0	-100	0	230	101300000	1000	0	0	-1	0
21937155	2507	0	0	-100	0	230	101300000	1000	0	0	-1	0
21949715	2511	0	0	-100	0	230	101300000	1000	0	0	-1	0
21962275	2508	0	0	-100	0	230	101300000	1000	0	0	-1	0
21974835	2513	0	0	-100	0	230	101300000	1000	0	0	-1	0
21987395	2511	0	0	-100	0	230	101300000	1000	0	0	-1	0
21999955	2507	0	0	-100	0	230	101300000	1000	0	0	-1	0
22012515	2507	0	0	-100	0	230	101300000	1000	0	0	-1	0
22025075	2504	3	0	-100	0	230	101300000	1000	0	0	-1	0
22037635	2507	0	0	-100	0	230	101300000	1000	0	0	-1	0
22050195	2515	0	0	-100	0	230	101300000	1000	0	0	-1	0
22062755	2510	0	0	-100	0	230	101300000	1000	0	0	-1	0
22075315	2511	0	0	-100	0	230	101300000	1000	0	0	-1	0
22087875	2509	0	0	-100	0	230	101300000	1000	0	0	-1	0
22100435	2507	0	0	-100	0	230	101300000	1000	0	0	-1	0
22112995	2504	0	0	-100	0	230	101300000	1000	0	0	-1	0
22125555	2506	4	0	-100	0	230	101300000	1000	0	0	-1	0
22138115	2502	1	0	-100	0	230	101300000	1000	0	0	-1	0
22150675	2507	0	0	-100	0	230	101300000	1000	0	0	-1	0
22163235	2506	0	0	-100	0	230	101300000	1000	0	0	-1	0
22175795	2507	0	0	-100	0	230	101300000	1000	0	0	-1	0
22188355	2510	0	0	-100	0	230	101300000	1000	0	0	-1	0
22200915	2507	0	0	-100	0	230	101300000	1000	0	0	-1	0
22213475	2514	0	0	-100	0	230	101300000	1000	0	0	-1	0
22226035	2512	0	0	-100	0	230	101300000	1000	0	0	-1	0
22238595	2509	0	0	-100	0	230	101300000	1000	0	0	-1	0
22251155	2511	0	0	-100	0	230	101300000	1000	0	0	-1	0
22263715	2506	0	0	-100	0	230	101300000	1000	0	0	-1	0
22276275	2503	0	0	-100	0	230	101300000	1000	0	0	-1	0
22288835	2507	1	0	-100	0	230	101300000	1000	0	0	-1	0
22301395	2502	0	0	-100	0	230	101300000	1000	0	0	-1	0
22313955	2507	0	0	-100	0	230	101300000	1000	0	0	-1	0
22326515	2513	0	0	-100	0	230	101300000	1000	0	0	-1	0
22339075	2509	0	0	-100	0	230	101300000	1000	0	0	-1	0
22351635	2514	0	0	-100	0	230	101300000	1000	0	0	-1	0
22364195	2510	0	0	-100	0	230	101300000	1000	0	0	-1	0
22376755	2505	0	0	-100	0	230	101300000	1000	0	0	-1	0
22389315	2504	0	0	-100	0	230	101300000	1000	0	0	-1	0
22401875	2503	4	0	-100	0	230	101300000	1000	0	0	-1	0
22414435	2506	2	0	-100	0	230	101300000	1000	0	0	-1	0
22426995	2510	0	0	-100	0	230	101300000	1000	0	0	-1	0
22439555	2510	0	0	-100	0	230	101300000	1000	0	0	-1	0
22452115	2509	0	0	-100	0	230	101300000	1000	0	0	-1	0
22464675	2505	0	0	-100	0	230	101300000	1000	0	0	-1	0
22477235	2504	2	0	-100	0	230	101300000	1000	0	0	-1	0
22489795	2509	0	0	-100	0	230	101300000	1000	0	0	-1	0
22502355	2508	0	0	-100	0	230	101300000	1000	0	0	-1	0
22514915	2508	0	0	-100	0	230	101300000	1000	0	0	-1	0
22527475	2507	0	0	-100	0	230	101300000	1000	0	0	-1	0
22540035	2502	0	0	-100	0	230	101300000	1000	0	0	-1	0
22552595	2509	0	0	-100	0	230	101300000	1000	0	0	-1	0
22565155	2508	0	0	-100	0	230	101300000	1000	0	0	-1	0
22577715	2514	0	0	-100	0	230	101300000	1000	0	0	-1	0
22590275	2514	0	0	-100	0	230	101300000	1000	0	0	-1	0
22602835	2508	0	0	-100	0	230	101300000	1000	0	0	-1	0
22615395	2506	0	0	-100	0	230	101300000	1000	0	0	-1	0
22627955	2505	0	0	-100	0	230	101300000	1000	0	0	-1	0
22640515	2507	1	0	-100	0	230	101300000	1000	0	0	-1	0
22653075	2504	2	0	-100	0	230	101300000	1000	0	0	-1	0
22665635	2504	2	0	-100	0	230	101300000	1000	0	0	-1	0
22678195	2505	2	0	-100	0	230	101300000	1000	0	0	-1	0
22690755	2505	1	0	-100	0	230	101300000	1000	0	0	-1	0
22703315	2501	3	0	-100	0	230	101300000	1000	0	0	-1	0
22715875	2502	1	0	-100	0	230	101300000	1000	0	0	-1	0
22728435	2506	3	0	-100	0	230	101300000	1000	0	0	-1	0
22740995	2503	0	0	-100	0	230	101300000	1000	0	0	-1	0
22753555	2505	2	0	-100	0	230	101300000	1000	0	0	-1	0
22766115	2504	0	0	-100	0	230	101300000	1000	0	0	-1	0
22778675	2505	0	0	-100	0	230	101300000	1000	0	0	-1	0
22791235	2514	0	0	-100	0	230	101300000	1000	0	0	-1	0
22803795	2513	0	0	-100	0	230	101300000	1000	0	0	-1	0
22816355	2503	0	0	-100	0	230	101300000	1000	0	0	-1	0
22828915	2509	1	0	-100	0	230	101300000	1000	0	0	-1	0
22841475	2504	2	0	-100	0	230	101300000	1000	0	0	-1	0
22854035	2511	0	0	-100	0	230	101300000	1000	0	0	-1	0
22866595	2516	0	0	-100	0	230	101300000	1000	0	0	-1	0
22879155	2512	0	0	-100	0	230	101300000	1000	0	0	-1	0
22891715	2509	0	0	-100	0	230	101300000	1000	0	0	-1	0
22904275	2505	1	0	-100	0	230	101300000	1000	0	0	-1	0
22916835	2509	0	0	-100	0	230	101300000	1000	0	0	-1	0
22929395	2511	0	0	-100	0	230	101300000	1000	0	0	-1	0
22941955	2507	1	0	-100	0	230	101300000	1000	0	0	-1	0
22954515	2509	0	0	-100	0	230	101300000	1000	0	0	-1	0
22967075	2510	0	0	-100	0	230	101300000	1000	0	0	-1	0
22979635	2503	0	0	-100	0	230	101300000	1000	0	0	-1	0
22992195	2507	2	0	-100	0	230	101300000	1000	0	0	-1	0
23004755	2509	0	0	-100	0	230	101300000	1000	0	0	-1	0
23017315	2511	0	0	-100	0	230	101300000	1000	0	0	-1	0
23029875	2506	0	0	-100	0	230	101300000	1000	0	0	-1	0
23042435	2507	4	0	-100	0	230	101300000	1000	0	0	-1	0
23054995	2507	0	0	-100	0	230	101300000	1000	0	0	-1	0
23067555	2514	0	0	-100	0	230	101300000	1000	0	0	-1	0
23080115	2509	0	0	-100	0	230	101300000	1000	0	0	-1	0
23092675	2508	0	0	-100	0	230	101300000	1000	0	0	-1	0
23105235	2507	2	0	-100	0	230	101300000	1000	0	0	-1	0
23117795	2502	2	0	-100	0	230	101300000	1000	0	0	-1	0
23130355	2506	4	0	-100	0	230	101300000	1000	0	0	-1	0
23142915	2503	4	0	-100	0	230	101300000	1000	0	0	-1	0
23155475	2504	1	0	-100	0	230	101300000	1000	0	0	-1	0
23168035	2506	3	0	-100	0	230	101300000	1000	0	0	-1	0
23180595	2505	3	0	-100	0	230	101300000	1000	0	0	-1	0
23193155	2507	2	0	-100	0	230	101300000	1000	0	0	-1	0
23205715	2505	3	0	-100	0	230	101300000	1000	0	0	-1	0
23218275	2507	1	0	-100	0	230	101300000	1000	0	0	-1	0
23230835	2508	3	0	-100	0	230	101300000	1000	0	0	-1	0
23243395	2505	2	0	-100	0	230	101300000	1000	0	0	-1	0
23255955	2504	3	0	-100	0	230	101300000	1000	0	0	-1	0
23268515	2510	4	0	-100	0	230	101300000	1000	0	0	-1	0
23281075	2507	0	0	-100	0	230	101300000	1000	0	0	-1	0
23293635	2506	0	0	-100	0	230	101300000	1000	0	0	-1	0
23306195	2506	4	0	-100	0	230	101300000	1000	0	0	-1	0
23318755	2504	3	0	-100	0	230	101300000	1000	0	0	-1	0
23331315	2504	2	0	-100	0	230	101300000	1000	0	0	-1	0
23343875	2506	1	0	-100	0	230	101300000	1000	0	0	-1	0
23356435	2504	0	0	-100	0	230	101300000	1000	0	0	-1	0
23368995	2507	0	0	-100	0	230	101300000	1000	0	0	-1	0
23381555	2508	0	0	-100	0	230	101300000	1000	0	0	-1	0
23394115	2511	0	0	-100	0	230	101300000	1000	0	0	-1	0
23406675	2514	0	0	-100	0	230	101300000	1000	0	0	-1	0
23419235	2510	0	0	-100	0	230	101300000	1000	0	0	-1	0
23431795	2510	0	0	-100	0	230	101300000	1000	0	0	-1	0
23444355	2505	0	0	-100	0	230	101300000	1000	0	0	-1	0
23456915	2506	0	0	-100	0	230	101300000	1000	0	0	-1	0
23469475	2509	0	0	-100	0	230	101300000	1000	0	0	-1	0
23482035	2504	0	0	-100	0	230	101300000	1000	0	0	-1	0
23494595	2506	0	0	-100	0	230	101300000	1000	0	0	-1	0
23507155	2507	3	0	-100	0	230	101300000	1000	0	0	-1	0
23519715	2505	1	0	-100	0	230	101300000	1000	0	0	-1	0
23532275	2507	0	0	-100	0	230	101300000	1000	0	0	-1	0
23544835	2510	0	0	-100	0	230	101300000	1000	0	0	-1	0
23557395	2510	0	0	-100	0	230	101300000	1000	0	0	-1	0
23569955	2511	0	0	-100	0	230	101300000	1000	0	0	-1	0
23582515	2503	0	0	-100	0	230	101300000	1000	0	0	-1	0
23595075	2503	0	0	-100	0	230	101300000	1000	0	0	-1	0
23607635	2506	4	0	-100	0	230	101300000	1000	0	0	-1	0
23620195	2503	1	0	-100	0	230	101300000	1000	0	0	-1	0
23632755	2513	0	0	-100	0	230	101300000	1000	0	0	-1	0
23645315	2511	0	0	-100	0	230	101300000	1000	0	0	-1	0
23657875	2504	0	0	-100	0	230	101300000	1000	0	0	-1	0
23670435	2508	2	0	-100	0	230	101300000	1000	0	0	-1	0
23682995	2502	0	0	-100	0	230	101300000	1000	0	0	-1	0
23695555	2504	0	0	-100	0	230	101300000	1000	0	0	-1	0
23708115	2508	0	0	-100	0	230	101300000	1000	0	0	-1	0
23720675	2512	0	0	-100	0	230	101300000	1000	0	0	-1	0
23733235	2512	0	0	-100	0	230	101300000	1000	0	0	-1	0
23745795	2512	0	0	-100	0	230	101300000	1000	0	0	-1	0
23758355	2508	0	0	-100	0	230	101300000	1000	0	0	-1	0
23770915	2505	0	0	-100	0	230	101300000	1000	0	0	-1	0
23783475	2507	1	0	-100	0	230	101300000	1000	0	0	-1	0
23796035	2505	2	0	-100	0	230	101300000	1000	0	0	-1	0
23808595	2505	1	0	-100	0	230	101300000	1000	0	0	-1	0
23821155	2501	0	0	-100	0	230	101300000	1000	0	0	-1	0
23833715	2507	0	0	-100	0	230	101300000	1000	0	0	-1	0
23846275	2506	0	0	-100	0	230	101300000	1000	0	0	-1	0
23858835	2506	1	0	-100	0	230	101300000	1000	0	0	-1	0
23871395	2508	0	0	-100	0	230	101300000	1000	0	0	-1	0
23883955	2510	0	0	-100	0	230	101300000	1000	0	0	-1	0
23896515	2503	0	0	-100	0	230	101300000	1000	0	0	-1	0
23909075	2506	3	0	-100	0	230	101300000	1000	0	0	-1	0
23921635	2503	3	0	-100	0	230	101300000	1000	0	0	-1	0
23934195	2506	0	0	-100	0	230	101300000	1000	0	0	-1	0
23946755	2512	0	0	-100	0	230	101300000	1000	0	0	-1	0
23959315	2511	0	0	-100	0	230	101300000	1000	0	0	-1	0
23971875	2507	0	0	-100	0	230	101300000	1000	0	0	-1	0
23984435	2507	2	0	-100	0	230	101300000	1000	0	0	-1	0
23996995	2504	0	0	-100	0	230	101300000	1000	0	0	-1	0
24009555	2512	0	0	-100	0	230	101300000	1000	0	0	-1	0
24022115	2501	0	0	-100	0	230	101300000	1000	0	0	-1	0
24034675	2507	3	0	-100	0	230	101300000	1000	0	0	-1	0
24047235	2505	0	0	-100	0	230	101300000	1000	0	0	-1	0
24059795	2509	0	0	-100	0	230	101300000	1000	0	0	-1	0
24072355	2512	0	0	-100	0	230	101300000	1000	0	0	-1	0
24084915	2512	0	0	-100	0	230	101300000	1000	0	0	-1	0
24097475	2504	0	0	-100	0	230	101300000	1000	0	0	-1	0
24110035	2506	4	0	-100	0	230	101300000	1000	0	0	-1	0
24122595	2504	0	0	-100	0	230	101300000	1000	0	0	-1	0
24135155	2511	0	0	-100	0	230	101300000	1000	0	0	-1	0
24147715	2515	0	0	-100	0	230	101300000	1000	0	0	-1	0
24160275	2502	1	0	-100	0	230	101300000	1000	0	0	-1	0
24172835	2508	0	0	-100	0	230	101300000	1000	0	0	-1	0
24185395	2505	0	0	-100	0	230	101300000	1000	0	0	-1	0
24197955	2508	0	0	-100	0	230	101300000	1000	0	0	-1	0
24210515	2514	0	0	-100	0	230	101300000	1000	0	0	-1	0
24223075	2503	2	0	-100	0	230	101300000	1000	0	0	-1	0
24235635	2503	0	0	-100	0	230	101300000	1000	0	0	-1	0
24248195	2512	0	0	-100	0	230	101300000	1000	0	0	-1	0
24260755	2502	0	0	-100	0	230	101300000	1000	0	0	-1	0
24273315	2505	3	0	-100	0	230	101300000	1000	0	0	-1	0
24285875	2503	0	0	-100	0	230	101300000	1000	0	0	-1	0
24298435	2508	0	0	-100	0	230	101300000	1000	0	0	-1	0
24310995	2513	2	0	-100	0	230	101300000	1000	0	0	-1	0
24323555	2508	0	0	-100	0	230	101300000	1000	0	0	-1	0
24336115	2501	0	0	-100	0	230	101300000	1000	0	0	-1	0
24348675	2509	2	0	-100	0	230	101300000	1000	0	0	-1	0
24361235	2503	0	0	-100	0	230	101300000	1000	0	0	-1	0
24373795	2513	0	0	-100	0	230	101300000	1000	0	0	-1	0
24386355	2514	0	0	-100	0	230	101300000	1000	0	0	-1	0
24398915	2505	0	0	-100	0	230	101300000	1000	0	0	-1	0
24411475	2509	3	0	-100	0	230	101300000	1000	0	0	-1	0
24424035	2507	0	0	-100	0	230	101300000	1000	0	0	-1	0
24436595	2510	0	0	-100	0	230	101300000	1000	0	0	-1	0
24449155	2511	0	0	-100	0	230	101300000	1000	0	0	-1	0
24461715	2507	0	0	-100	0	230	101300000	1000	0	0	-1	0
24474275	2505	1	0	-100	0	230	101300000	1000	0	0	-1	0
24486835	2513	3	0	-100	0	230	101300000	1000	0	0	-1	0
24499395	2507	0	0	-100	0	230	101300000	1000	0	0	-1	0
24511955	2506	0	0	-100	0	230	101300000	1000	0	0	-1	0
24524515	2511	0	0	-100	0	230	101300000	1000	0	0	-1	0
24537075	2507	0	0	-100	0	230	101300000	1000	0	0	-1	0
24549635	2506	2	0	-100	0	230	101300000	1000	0	0	-1	0
24562195	2504	0	0	-100	0	230	101300000	1000	0	0	-1	0
24574755	2512	0	0	-100	0	230	101300000	1000	0	0	-1	0
24587315	2505	0	0	-100	0	230	101300000	1000	0	0	-1	0
24599875	2506	0	0	-100	0	230	101300000	1000	0	0	-1	0
24612435	2507	0	0	-100	0	230	101300000	1000	0	0	-1	0
24624995	2509	0	0	-100	0	230	101300000	1000	0	0	-1	0
24637555	2511	0	0	-100	0	230	101300000	1000	0	0	-1	0
24650115	2514	0	0	-100	0	230	101300000	1000	0	0	-1	0
24662675	2503	1	0	-100	0	230	101300000	1000	0	0	-1	0
24675235	2505	1	0	-100	0	230	101300000	1000	0	0	-1	0
24687795	2506	0	0	-100	0	230	101300000	1000	0	0	-1	0
24700355	2507	0	0	-100	0	230	101300000	1000	0	0	-1	0
24712915	2511	0	0	-100	0	230	101300000	1000	0	0	-1	0
24725475	2507	0	0	-100	0	230	101300000	1000	0	0	-1	0
24738035	2505	1	0	-100	0	230	101300000	1000	0	0	-1	0
24750595	2509	2	0	-100	0	230	101300000	1000	0	0	-1	0
24763155	2502	0	0	-100	0	230	101300000	1000	0	0	-1	0
24775715	2509	0	0	-100	0	230	101300000	1000	0	0	-1	0
24788275	2512	0	0	-100	0	230	101300000	1000	0	0	-1	0
24800835	2504	0	0	-100	0	230	101300000	1000	0	0	-1	0
24813395	2507	4	0	-100	0	230	101300000	1000	0	0	-1	0
24825955	2508	0	0	-100	0	230	101300000	1000	0	0	-1	0
24838515	2513	0	0	-100	0	230	101300000	1000	0	0	-1	0
24851075	2505	0	0	-100	0	230	101300000	1000	0	0	-1	0
24863635	2506	2	0	-100	0	230	101300000	1000	0	0	-1	0
24876195	2505	0	0	-100	0	230	101300000	1000	0	0	-1	0
24888755	2511	0	0	-100	0	230	101300000	1000	0	0	-1	0
24901315	2511	0	0	-100	0	230	101300000	1000	0	0	-1	0
24913875	2512	0	0	-100	0	230	101300000	1000	0	0	-1	0
24926435	2507	0	0	-100	0	230	101300000	1000	0	0	-1	0
24938995	2507	0	0	-100	0	230	101300000	1000	0	0	-1	0
24951555	2505	0	0	-100	0	230	101300000	1000	0	0	-1	0
24964115	2511	0	0	-100	0	230	101300000	1000	0	0	-1	0
24976675	2513	0	0	-100	0	230	101300000	1000	0	0	-1	0
24989235	2514	0	0	-100	0	230	101300000	1000	0	0	-1	0
25001795	2502	0	0	-100	0	230	101300000	1000	0	0	-1	0
25014355	2507	2	0	-100	0	230	101300000	1000	0	0	-1	0
25026915	2508	0	0	-100	0	230	101300000	1000	0	0	-1	0
25039475	2503	0	0	-100	0	230	101300000	1000	0	0	-1	0
25052035	2509	0	0	-100	0	230	101300000	1000	0	0	-1	0
25064595	2509	0	0	-100	0	230	101300000	1000	0	0	-1	0
25077155	2507	0	0	-100	0	230	101300000	1000	0	0	-1	0
25089715	2512	0	0	-100	0	230	101300000	1000	0	0	-1	0
25102275	2507	0	0	-100	0	230	101300000	1000	0	0	-1	0
25114835	2507	2	0	-100	0	230	101300000	1000	0	0	-1	0
25127395	2510	3	0	-100	0	230	101300000	1000	0	0	-1	0
25139955	2503	0	0	-100	0	230	101300000	1000	0	0	-1	0
25152515	2509	0	0	-100	0	230	101300000	1000	0	0	-1	0
25165075	2511	0	0	-100	0	230	101300000	1000	0	0	-1	0
25177635	2511	0	0	-100	0	230	101300000	1000	0	0	-1	0
25190195	2504	0	0	-100	0	230	101300000	1000	0	0	-1	0
25202755	2504	3	0	-100	0	230	101300000	1000	0	0	-1	0
25215315	2503	0	0	-100	0	230	101300000	1000	0	0	-1	0
25227875	2507	0	0	-100	0	230	101300000	1000	0	0	-1	0
25240435	2508	0	0	-100	0	230	101300000	1000	0	0	-1	0
25252995	2511	0	0	-100	0	230	101300000	1000	0	0	-1	0
25265555	2508	0	0	-100	0	230	101300000	1000	0	0	-1	0
25278115	2509	0	0	-100	0	230	101300000	1000	0	0	-1	0
25290675	2513	0	0	-100	0	230	101300000	1000	0	0	-1	0
25303235	2511	0	0	-100	0	230	101300000	1000	0	0	-1	0
25315795	2509	0	0	-100	0	230	101300000	1000	0	0	-1	0
25328355	2514	0	0	-100	0	230	101300000	1000	0	0	-1	0
25340915	2504	0	0	-100	0	230	101300000	1000	0	0	-1	0
25353475	2507	2	0	-100	0	230	101300000	1000	0	0	-1	0
25366035	2504	3	0	-100	0	230	101300000	1000	0	0	-1	0
25378595	2504	0	0	-100	0	230	101300000	1000	0	0	-1	0
25391155	2510	0	0	-100	0	230	101300000	1000	0	0	-1	0
25403715	2513	0	0	-100	0	230	101300000	1000	0	0	-1	0
25416275	2511	0	0	-100	0	230	101300000	1000	0	0	-1	0
25428835	2507	0	0	-100	0	230	101300000	1000	0	0	-1	0
25441395	2504	0	0	-100	0	230	101300000	1000	0	0	-1	0
25453955	2506	2	0	-100	0	230	101300000	1000	0	0	-1	0
25466515	2507	2	0	-100	0	230	101300000	1000	0	0	-1	0
25479075	2502	2	0	-100	0	230	101300000	1000	0	0	-1	0
25491635	2507	2	0	-100	0	230	101300000	1000	0	0	-1	0
25504195	2505	2	0	-100	0	230	101300000	1000	0	0	-1	0
25516755	2502	2	0	-100	0	230	101300000	1000	0	0	-1	0
25529315	2506	3	0	-100	0	230	101300000	1000	0	0	-1	0
25541875	2504	0	0	-100	0	230	101300000	1000	0	0	-1	0
25554435	2503	0	0	-100	0	230	101300000	1000	0	0	-1	0
25566995	2507	0	0	-100	0	230	101300000	1000	0	0	-1	0
25579555	2504	0	0	-100	0	230	101300000	1000	0	0	-1	0
25592115	2506	0	0	-100	0	230	101300000	1000	0	0	-1	0
25604675	2503	0	0	-100	0	230	101300000	1000	0	0	-1	0
25617235	2503	0	0	-100	0	230	101300000	1000	0	0	-1	0
25629795	2506	4	0	-100	0	230	101300000	1000	0	0	-1	0
25642355	2505	1	0	-100	0	230	101300000	1000	0	0	-1	0
25654915	2505	2	0	-100	0	230	101300000	1000	0	0	-1	0
25667475	2504	4	0	-100	0	230	101300000	1000	0	0	-1	0
25680035	2504	1	0	-100	0	230	101300000	1000	0	0	-1	0
25692595	2506	0	0	-100	0	230	101300000	1000	0	0	-1	0
25705155	2504	0	0	-100	0	230	101300000	1000	0	0	-1	0
25717715	2507	0	0	-100	0	230	101300000	1000	0	0	-1	0
25730275	2510	0	0	-100	0	230	101300000	1000	0	0	-1	0
25742835	2508	0	0	-100	0	230	101300000	1000	0	0	-1	0
25755395	2513	0	0	-100	0	230	101300000	1000	0	0	-1	0
25767955	2512	0	0	-100	0	230	101300000	1000	0	0	-1	0
25780515	2511	0	0	-100	0	230	101300000	1000	0	0	-1	0
25793075	2512	0	0	-100	0	230	101300000	1000	0	0	-1	0
25805635	2511	0	0	-100	0	230	101300000	1000	0	0	-1	0
25818195	2504	0	0	-100	0	230	101300000	1000	0	0	-1	0
25830755	2506	1	0	-100	0	230	101300000	1000	0	0	-1	0
25843315	2502	2	0	-100	0	230	101300000	1000	0	0	-1	0
25855875	2505	0	0	-100	0	230	101300000	1000	0	0	-1	0
25868435	2508	0	0	-100	0	230	101300000	1000	0	0	-1	0
25880995	2511	0	0	-100	0	230	101300000	1000	0	0	-1	0
25893555	2514	0	0	-100	0	230	101300000	1000	0	0	-1	0
25906115	2504	0	0	-100	0	230	101300000	1000	0	0	-1	0
25918675	2505	2	0	-100	0	230	101300000	1000	0	0	-1	0
25931235	2506	0	0	-100	0	230	101300000	1000	0	0	-1	0
25943795	2508	0	0	-100	0	230	101300000	1000	0	0	-1	0
25956355	2511	0	0	-100	0	230	101300000	1000	0	0	-1	0
25968915	2514	0	0	-100	0	230	101300000	1000	0	0	-1	0
25981475	2504	0	0	-100	0	230	101300000	1000	0	0	-1	0
25994035	2508	3	0	-100	0	230	101300000	1000	0	0	-1	0
26006595	2507	0	0	-100	0	230	101300000	1000	0	0	-1	0
26019155	2509	0	0	-100	0	230	101300000	1000	0	0	-1	0
26031715	2512	0	0	-100	0	230	101300000	1000	0	0	-1	0
26044275	2507	0	0	-100	0	230	101300000	1000	0	0	-1	0
26056835	2503	1	0	-100	0	230	101300000	1000	0	0	-1	0
26069395	2505	2	0	-100	0	230	101300000	1000	0	0	-1	0
26081955	2506	1	0	-100	0	230	101300000	1000	0	0	-1	0
26094515	2507	0	0	-100	0	230	101300000	1000	0	0	-1	0
26107075	2512	0	0	-100	0	230	101300000	1000	0	0	-1	0
26119635	2503	1	0	-100	0	230	101300000	1000	0	0	-1	0
26132195	2506	0	0	-100	0	230	101300000	1000	0	0	-1	0
26144755	2511	0	0	-100	0	230	101300000	1000	0	0	-1	0
26157315	2513	0	0	-100	0	230	101300000	1000	0	0	-1	0
26169875	2507	0	0	-100	0	230	101300000	1000	0	0	-1	0
26182435	2502	0	0	-100	0	230	101300000	1000	0	0	-1	0
26194995	2505	0	0	-100	0	230	101300000	1000	0	0	-1	0
26207555	2504	0	0	-100	0	230	101300000	1000	0	0	-1	0
26220115	2506	0	0	-100	0	230	101300000	1000	0	0	-1	0
26232675	2512	0	0	-100	0	230	101300000	1000	0	0	-1	0
26245235	2514	0	0	-100	0	230	101300000	1000	0	0	-1	0
26257795	2503	1	0	-100	0	230	101300000	1000	0	0	-1	0
26270355	2507	2	0	-100	0	230	101300000	1000	0	0	-1	0
26282915	2503	0	0	-100	0	230	101300000	1000	0	0	-1	0
26295475	2507	0	0	-100	0	230	101300000	1000	0	0	-1	0
26308035	2513	0	0	-100	0	230	101300000	1000	0	0	-1	0
26320595	2511	0	0	-100	0	230	101300000	1000	0	0	-1	0
26333155	2513	0	0	-100	0	230	101300000	1000	0	0	-1	0
26345715	2512	0	0	-100	0	230	101300000	1000	0	0	-1	0
26358275	2509	0	0	-100	0	230	101300000	1000	0	0	-1	0
26370835	2503	2	0	-100	0	230	101300000	1000	0	0	-1	0
26383395	2505	3	0	-100	0	230	101300000	1000	0	0	-1	0
26395955	2503	0	0	-100	0	230	101300000	1000	0	0	-1	0
26408515	2509	0	0	-100	0	230	101300000	1000	0	0	-1	0
26421075	2511	0	0	-100	0	230	101300000	1000	0	0	-1	0
26433635	2512	0	0	-100	0	230	101300000	1000	0	0	-1	0
26446195	2511	0	0	-100	0	230	101300000	1000	0	0	-1	0
26458755	2509	0	0	-100	0	230	101300000	1000	0	0	-1	0
26471315	2506	0	0	-100	0	230	101300000	1000	0	0	-1	0
26483875	2505	2	0	-100	0	230	101300000	1000	0	0	-1	0
26496435	2507	2	0	-100	0	230	101300000	1000	0	0	-1	0
26508995	2506	0	0	-100	0	230	101300000	1000	0	0	-1	0
26521555	2506	0	0	-100	0	230	101300000	1000	0	0	-1	0
26534115	2511	0	0	-100	0	230	101300000	1000	0	0	-1	0
26546675	2512	0	0	-100	0	230	101300000	1000	0	0	-1	0
26559235	2502	0	0	-100	0	230	101300000	1000	0	0	-1	0
26571795	2509	3	0	-100	0	230	101300000	1000	0	0	-1	0
26584355	2507	4	0	-100	0	230	101300000	1000	0	0	-1	0
26596915	2506	0	0	-100	0	230	101300000	1000	0	0	-1	0
26609475	2505	0	0	-100	0	230	101300000	1000	0	0	-1	0
26622035	2506	0	0	-100	0	230	101300000	1000	0	0	-1	0
26634595	2511	0	0	-100	0	230	101300000	1000	0	0	-1	0
26647155	2511	0	0	-100	0	230	101300000	1000	0	0	-1	0
26659715	2511	0	0	-100	0	230	101300000	1000	0	0	-1	0
26672275	2514	0	0	-100	0	230	101300000	1000	0	0	-1	0
26684835	2513	0	0	-100	0	230	101300000	1000	0	0	-1	0
26697395	2511	0	0	-100	0	230	101300000	1000	0	0	-1	0
26709955	2513	0	0	-100	0	230	101300000	1000	0	0	-1	0
26722515	2511	0	0	-100	0	230	101300000	1000	0	0	-1	0
26735075	2517	0	0	-100	0	230	101300000	1000	0	0	-1	0
26747635	2513	0	0	-100	0	230	101300000	1000	0	0	-1	0
26760195	2509	0	0	-100	0	230	101300000	1000	0	0	-1	0
26772755	2507	1	0	-100	0	230	101300000	1000	0	0	-1	0
26785315	2507	4	0	-100	0	230	101300000	1000	0	0	-1	0
26797875	2507	0	0	-100	0	230	101300000	1000	0	0	-1	0
26810435	2508	0	0	-100	0	230	101300000	1000	0	0	-1	0
26822995	2500	0	0	-100	0	230	101300000	1000	0	0	-1	0
26835555	2506	0	0	-100	0	230	101300000	1000	0	0	-1	0
26848115	2511	0	0	-100	0	230	101300000	1000	0	0	-1	0
26860675	2508	0	0	-100	0	230	101300000	1000	0	0	-1	0
26873235	2511	0	0	-100	0	230	101300000	1000	0	0	-1	0
26885795	2509	0	0	-100	0	230	101300000	1000	0	0	-1	0
26898355	2510	0	0	-100	0	230	101300000	1000	0	0	-1	0
26910915	2514	0	0	-100	0	230	101300000	1000	0	0	-1	0
26923475	2510	0	0	-100	0	230	101300000	1000	0	0	-1	0
26936035	2510	0	0	-100	0	230	101300000	1000	0	0	-1	0
26948595	2514	0	0	-100	0	230	101300000	1000	0	0	-1	0
26961155	2508	0	0	-100	0	230	101300000	1000	0	0	-1	0
26973715	2510	0	0	-100	0	230	101300000	1000	0	0	-1	0
26986275	2511	0	0	-100	0	230	101300000	1000	0	0	-1	0
26998835	2505	0	0	-100	0	230	101300000	1000	0	0	-1	0
27011395	2509	0	0	-100	0	230	101300000	1000	0	0	-1	0
27023955	2504	0	0	-100	0	230	101300000	1000	0	0	-1	0
27036515	2507	0	0	-100	0	230	101300000	1000	0	0	-1	0
27049075	2506	1	0	-100	0	230	101300000	1000	0	0	-1	0
