timestamp	voltage	current	windSpeed	pitchAngle	rpm	temperature	ambientPressure	humidity	accelerationX	accelerationY	accelerationZ	currentSink
7040070	3007	0	0	-100	0	230	101300000	1000	0	0	-1	0
7047523	3015	0	0	-100	0	230	101300000	1000	0	0	-1	0
7060083	3009	0	0	-100	0	230	101300000	1000	0	0	-1	0
7072643	3004	3	0	-100	0	230	101300000	1000	0	0	-1	0
7085203	3004	0	0	-100	0	230	101300000	1000	0	0	-1	0
7097763	3015	0	0	-100	0	230	101300000	1000	0	0	-1	0
7110323	3011	0	0	-100	0	230	101300000	1000	0	0	-1	0
7122883	3007	1	0	-100	0	230	101300000	1000	0	0	-1	0
7135443	3008	0	0	-100	0	230	101300000	1000	0	0	-1	0
7148004	3007	0	0	-100	0	230	101300000	1000	0	0	-1	0
7160563	3018	0	0	-100	0	230	101300000	1000	0	0	-1	0
7173123	3009	0	0	-100	0	230	101300000	1000	0	0	-1	0
7185683	3005	3	0	-100	0	230	101300000	1000	0	0	-1	0
7198243	3008	0	0	-100	0	230	101300000	1000	0	0	-1	0
7210803	3012	0	0	-100	0	230	101300000	1000	0	0	-1	0
7223363	3016	0	0	-100	0	230	101300000	1000	0	0	-1	0
7235923	3008	1	0	-100	0	230	101300000	1000	0	0	-1	0
7248483	3006	4	0	-100	0	230	101300000	1000	0	0	-1	0
7261043	3008	0	0	-100	0	230	101300000	1000	0	0	-1	0
7273603	3012	0	0	-100	0	230	101300000	1000	0	0	-1	0
7286163	3007	1	0	-100	0	230	101300000	1000	0	0	-1	0
7298723	3008	0	0	-100	0	230	101300000	1000	0	0	-1	0
7311283	3010	0	0	-100	0	230	101300000	1000	0	0	-1	0
7323843	3007	0	0	-100	0	230	101300000	1000	0	0	-1	0
7336403	3005	4	0	-100	0	230	101300000	1000	0	0	-1	0
7348963	3007	0	0	-100	0	230	101300000	1000	0	0	-1	0
7704675	3012	0	0	-100	0	230	101300000	1000	0	0	-1	0
7717235	3013	0	0	-100	0	230	101300000	1000	0	0	-1	0
7729795	3013	0	0	-100	0	230	101300000	1000	0	0	-1	0
7742355	3006	0	0	-100	0	230	101300000	1000	0	0	-1	0
7754915	3006	2	0	-100	0	230	101300000	1000	0	0	-1	0
7767475	3007	4	0	-100	0	230	101300000	1000	0	0	-1	0
7780035	3007	0	0	-100	0	230	101300000	1000	0	0	-1	0
7792595	3004	0	0	-100	0	230	101300000	1000	0	0	-1	0
7805155	3007	0	0	-100	0	230	101300000	1000	0	0	-1	0
7817715	3008	0	0	-100	0	230	101300000	1000	0	0	-1	0
7830275	3011	0	0	-100	0	230	101300000	1000	0	0	-1	0
7842835	3013	0	0	-100	0	230	101300000	1000	0	0	-1	0
7855395	3009	0	0	-100	0	230	101300000	1000	0	0	-1	0
7867955	3009	0	0	-100	0	230	101300000	1000	0	0	-1	0
7880515	3015	0	0	-100	0	230	101300000	1000	0	0	-1	0
7893075	3012	0	0	-100	0	230	101300000	1000	0	0	-1	0
7905635	3012	0	0	-100	0	230	101300000	1000	0	0	-1	0
7918195	3014	0	0	-100	0	230	101300000	1000	0	0	-1	0
7930755	3004	1	0	-100	0	230	101300000	1000	0	0	-1	0
7943315	3007	2	0	-100	0	230	101300000	1000	0	0	-1	0
7955875	3008	0	0	-100	0	230	101300000	1000	0	0	-1	0
7968435	3004	0	0	-100	0	230	101300000	1000	0	0	-1	0
7980995	3008	0	0	-100	0	230	101300000	1000	0	0	-1	0
7993555	3006	0	0	-100	0	230	101300000	1000	0	0	-1	0
8006115	3008	0	0	-100	0	230	101300000	1000	0	0	-1	0
8018675	3013	0	0	-100	0	230	101300000	1000	0	0	-1	0
8031235	3011	0	0	-100	0	230	101300000	1000	0	0	-1	0
8043795	3009	0	0	-100	0	230	101300000	1000	0	0	-1	0
8056355	3011	0	0	-100	0	230	101300000	1000	0	0	-1	0
8068915	3009	0	0	-100	0	230	101300000	1000	0	0	-1	0
8081475	3011	0	0	-100	0	230	101300000	1000	0	0	-1	0
8094035	3010	0	0	-100	0	230	101300000	1000	0	0	-1	0
8106595	3012	0	0	-100	0	230	101300000	1000	0	0	-1	0
8119155	3011	0	0	-100	0	230	101300000	1000	0	0	-1	0
8131715	3006	0	0	-100	0	230	101300000	1000	0	0	-1	0
8144275	3007	0	0	-100	0	230	101300000	1000	0	0	-1	0
8156835	3007	0	0	-100	0	230	101300000	1000	0	0	-1	0
8169395	3006	2	0	-100	0	230	101300000	1000	0	0	-1	0
8181955	3008	1	0	-100	0	230	101300000	1000	0	0	-1	0
8194515	3007	0	0	-100	0	230	101300000	1000	0	0	-1	0
8207075	3003	0	0	-100	0	230	101300000	1000	0	0	-1	0
8219635	3006	0	0	-100	0	230	101300000	1000	0	0	-1	0
8232195	3005	4	0	-100	0	230	101300000	1000	0	0	-1	0
8244755	3009	4	0	-100	0	230	101300000	1000	0	0	-1	0
8257315	3008	0	0	-100	0	230	101300000	1000	0	0	-1	0
8269875	3004	0	0	-100	0	230	101300000	1000	0	0	-1	0
8282435	3008	0	0	-100	0	230	101300000	1000	0	0	-1	0
8294995	3004	0	0	-100	0	230	101300000	1000	0	0	-1	0
8307555	3005	0	0	-100	0	230	101300000	1000	0	0	-1	0
8320115	3004	0	0	-100	0	230	101300000	1000	0	0	-1	0
8332675	3005	0	0	-100	0	230	101300000	1000	0	0	-1	0
8345235	3004	0	0	-100	0	230	101300000	1000	0	0	-1	0
8357795	3008	0	0	-100	0	230	101300000	1000	0	0	-1	0
8370355	3005	0	0	-100	0	230	101300000	1000	0	0	-1	0
8382915	3008	0	0	-100	0	230	101300000	1000	0	0	-1	0
8395475	3007	0	0	-100	0	230	101300000	1000	0	0	-1	0
8408035	3005	0	0	-100	0	230	101300000	1000	0	0	-1	0
8420595	3006	0	0	-100	0	230	101300000	1000	0	0	-1	0
8433155	3003	0	0	-100	0	230	101300000	1000	0	0	-1	0
8445715	3007	3	0	-100	0	230	101300000	1000	0	0	-1	0
8458275	3007	1	0	-100	0	230	101300000	1000	0	0	-1	0
8470835	3006	0	0	-100	0	230	101300000	1000	0	0	-1	0
8483395	3005	0	0	-100	0	230	101300000	1000	0	0	-1	0
8495955	3008	0	0	-100	0	230	101300000	1000	0	0	-1	0
8508515	3012	0	0	-100	0	230	101300000	1000	0	0	-1	0
8521075	3015	0	0	-100	0	230	101300000	1000	0	0	-1	0
8533635	3008	0	0	-100	0	230	101300000	1000	0	0	-1	0
8546195	3006	0	0	-100	0	230	101300000	1000	0	0	-1	0
8558755	3007	0	0	-100	0	230	101300000	1000	0	0	-1	0
8571315	3005	0	0	-100	0	230	101300000	1000	0	0	-1	0
8583875	3008	4	0	-100	0	230	101300000	1000	0	0	-1	0
8596435	3008	3	0	-100	0	230	101300000	1000	0	0	-1	0
8608995	3006	0	0	-100	0	230	101300000	1000	0	0	-1	0
8621555	3008	0	0	-100	0	230	101300000	1000	0	0	-1	0
8634115	3011	0	0	-100	0	230	101300000	1000	0	0	-1	0
8646675	3013	0	0	-100	0	230	101300000	1000	0	0	-1	0
8659235	3012	0	0	-100	0	230	101300000	1000	0	0	-1	0
8671795	3006	0	0	-100	0	230	101300000	1000	0	0	-1	0
8684355	3007	0	0	-100	0	230	101300000	1000	0	0	-1	0
8696915	3008	0	0	-100	0	230	101300000	1000	0	0	-1	0
8709475	3008	0	0	-100	0	230	101300000	1000	0	0	-1	0
8722035	3014	0	0	-100	0	230	101300000	1000	0	0	-1	0
8734595	3015	0	0	-100	0	230	101300000	1000	0	0	-1	0
8747155	3009	0	0	-100	0	230	101300000	1000	0	0	-1	0
8759715	3011	0	0	-100	0	230	101300000	1000	0	0	-1	0
8772275	3007	0	0	-100	0	230	101300000	1000	0	0	-1	0
8784835	3008	4	0	-100	0	230	101300000	1000	0	0	-1	0
8797395	3008	3	0	-100	0	230	101300000	1000	0	0	-1	0
8809955	3004	0	0	-100	0	230	101300000	1000	0	0	-1	0
8822515	3008	0	0	-100	0	230	101300000	1000	0	0	-1	0
8835075	3011	0	0	-100	0	230	101300000	1000	0	0	-1	0
8847635	3011	0	0	-100	0	230	101300000	1000	0	0	-1	0
8860195	3012	0	0	-100	0	230	101300000	1000	0	0	-1	0
8872755	3012	0	0	-100	0	230	101300000	1000	0	0	-1	0
8885315	3008	0	0	-100	0	230	101300000	1000	0	0	-1	0
8897875	3008	2	0	-100	0	230	101300000	1000	0	0	-1	0
8910435	3007	3	0	-100	0	230	101300000	1000	0	0	-1	0
8922995	3009	0	0	-100	0	230	101300000	1000	0	0	-1	0
8935555	3005	0	0	-100	0	230	101300000	1000	0	0	-1	0
8948115	3008	0	0	-100	0	230	101300000	1000	0	0	-1	0
8960675	3010	0	0	-100	0	230	101300000	1000	0	0	-1	0
8973235	3010	0	0	-100	0	230	101300000	1000	0	0	-1	0
8985795	3010	0	0	-100	0	230	101300000	1000	0	0	-1	0
8998355	3012	0	0	-100	0	230	101300000	1000	0	0	-1	0
9010915	3010	0	0	-100	0	230	101300000	1000	0	0	-1	0
9023475	3015	0	0	-100	0	230	101300000	1000	0	0	-1	0
9036035	3008	0	0	-100	0	230	101300000	1000	0	0	-1	0
9048595	3007	2	0	-100	0	230	101300000	1000	0	0	-1	0
9061155	3005	0	0	-100	0	230	101300000	1000	0	0	-1	0
9073715	3008	0	0	-100	0	230	101300000	1000	0	0	-1	0
9086275	3011	0	0	-100	0	230	101300000	1000	0	0	-1	0
9098835	3013	0	0	-100	0	230	101300000	1000	0	0	-1	0
9111395	3009	0	0	-100	0	230	101300000	1000	0	0	-1	0
9123955	3008	0	0	-100	0	230	101300000	1000	0	0	-1	0
9136515	3006	2	0	-100	0	230	101300000	1000	0	0	-1	0
9149075	3009	3	0	-100	0	230	101300000	1000	0	0	-1	0
9161635	3007	0	0	-100	0	230	101300000	1000	0	0	-1	0
9174195	3011	0	0	-100	0	230	101300000	1000	0	0	-1	0
9186755	3014	0	0	-100	0	230	101300000	1000	0	0	-1	0
9199315	3016	0	0	-100	0	230	101300000	1000	0	0	-1	0
9211875	3003	0	0	-100	0	230	101300000	1000	0	0	-1	0
9224435	3006	0	0	-100	0	230	101300000	1000	0	0	-1	0
9236995	3006	0	0	-100	0	230	101300000	1000	0	0	-1	0
9249555	3004	4	0	-100	0	230	101300000	1000	0	0	-1	0
9262115	3012	2	0	-100	0	230	101300000	1000	0	0	-1	0
9274675	3004	1	0	-100	0	230	101300000	1000	0	0	-1	0
9287235	3004	2	0	-100	0	230	101300000	1000	0	0	-1	0
9299795	3009	4	0	-100	0	230	101300000	1000	0	0	-1	0
9312355	3005	0	0	-100	0	230	101300000	1000	0	0	-1	0
9324915	3006	0	0	-100	0	230	101300000	1000	0	0	-1	0
9337475	3012	0	0	-100	0	230	101300000	1000	0	0	-1	0
9350035	3013	0	0	-100	0	230	101300000	1000	0	0	-1	0
9362595	3011	0	0	-100	0	230	101300000	1000	0	0	-1	0
9375155	3006	1	0	-100	0	230	101300000	1000	0	0	-1	0
9387715	3007	0	0	-100	0	230	101300000	1000	0	0	-1	0
9400275	3011	0	0	-100	0	230	101300000	1000	0	0	-1	0
9412835	3008	0	0	-100	0	230	101300000	1000	0	0	-1	0
9425395	3012	0	0	-100	0	230	101300000	1000	0	0	-1	0
9437955	3009	0	0	-100	0	230	101300000	1000	0	0	-1	0
9450515	3006	3	0	-100	0	230	101300000	1000	0	0	-1	0
9463075	3005	0	0	-100	0	230	101300000	1000	0	0	-1	0
9475635	3011	0	0	-100	0	230	101300000	1000	0	0	-1	0
9488195	3013	0	0	-100	0	230	101300000	1000	0	0	-1	0
9500755	3014	0	0	-100	0	230	101300000	1000	0	0	-1	0
9513315	3005	1	0	-100	0	230	101300000	1000	0	0	-1	0
9525875	3006	4	0	-100	0	230	101300000	1000	0	0	-1	0
9538435	3007	0	0	-100	0	230	101300000	1000	0	0	-1	0
9550995	3008	0	0	-100	0	230	101300000	1000	0	0	-1	0
9563555	3014	0	0	-100	0	230	101300000	1000	0	0	-1	0
9576115	3012	0	0	-100	0	230	101300000	1000	0	0	-1	0
9588675	3004	0	0	-100	0	230	101300000	1000	0	0	-1	0
9601235	3011	3	0	-100	0	230	101300000	1000	0	0	-1	0
9613795	3007	0	0	-100	0	230	101300000	1000	0	0	-1	0
9626355	3012	0	0	-100	0	230	101300000	1000	0	0	-1	0
9638915	3008	0	0	-100	0	230	101300000	1000	0	0	-1	0
9651475	3003	4	0	-100	0	230	101300000	1000	0	0	-1	0
9664035	3009	0	0	-100	0	230	101300000	1000	0	0	-1	0
9676595	3012	0	0	-100	0	230	101300000	1000	0	0	-1	0
9689155	3004	0	0	-100	0	230	101300000	1000	0	0	-1	0
9701715	3004	0	0	-100	0	230	101300000	1000	0	0	-1	0
9714275	3012	0	0	-100	0	230	101300000	1000	0	0	-1	0
9726835	3004	0	0	-100	0	230	101300000	1000	0	0	-1	0
9739395	3008	0	0	-100	0	230	101300000	1000	0	0	-1	0
9751955	3010	0	0	-100	0	230	101300000	1000	0	0	-1	0
9764515	3004	1	0	-100	0	230	101300000	1000	0	0	-1	0
9777075	3004	0	0	-100	0	230	101300000	1000	0	0	-1	0
9789635	3012	0	0	-100	0	230	101300000	1000	0	0	-1	0
9802195	3006	1	0	-100	0	230	101300000	1000	0	0	-1	0
9814755	3007	0	0	-100	0	230	101300000	1000	0	0	-1	0
9827315	3014	0	0	-100	0	230	101300000	1000	0	0	-1	0
9839875	3008	4	0	-100	0	230	101300000	1000	0	0	-1	0
9852435	3009	0	0	-100	0	230	101300000	1000	0	0	-1	0
9864995	3011	0	0	-100	0	230	101300000	1000	0	0	-1	0
9877555	3006	0	0	-100	0	230	101300000	1000	0	0	-1	0
9890115	3006	0	0	-100	0	230	101300000	1000	0	0	-1	0
9902675	3011	0	0	-100	0	230	101300000	1000	0	0	-1	0
9915235	3008	0	0	-100	0	230	101300000	1000	0	0	-1	0
9927795	3005	4	0	-100	0	230	101300000	1000	0	0	-1	0
9940355	3009	0	0	-100	0	230	101300000	1000	0	0	-1	0
9952915	3012	0	0	-100	0	230	101300000	1000	0	0	-1	0
9965475	3004	2	0	-100	0	230	101300000	1000	0	0	-1	0
9978035	3006	0	0	-100	0	230	101300000	1000	0	0	-1	0
9990595	3012	0	0	-100	0	230	101300000	1000	0	0	-1	0
10003155	3006	0	0	-100	0	230	101300000	1000	0	0	-1	0
10015715	3008	0	0	-100	0	230	101300000	1000	0	0	-1	0
10028275	3010	0	0	-100	0	230	101300000	1000	0	0	-1	0
10040835	3007	0	0	-100	0	230	101300000	1000	0	0	-1	0
10053395	3006	0	0	-100	0	230	101300000	1000	0	0	-1	0
10065955	3011	0	0	-100	0	230	101300000	1000	0	0	-1	0
10078515	3016	0	0	-100	0	230	101300000	1000	0	0	-1	0
10091075	3004	0	0	-100	0	230	101300000	1000	0	0	-1	0
10103635	3008	3	0	-100	0	230	101300000	1000	0	0	-1	0
10116195	3008	0	0	-100	0	230	101300000	1000	0	0	-1	0
10128755	3010	0	0	-100	0	230	101300000	1000	0	0	-1	0
10141315	3008	1	0	-100	0	230	101300000	1000	0	0	-1	0
10153875	3008	4	0	-100	0	230	101300000	1000	0	0	-1	0
10166435	3008	0	0	-100	0	230	101300000	1000	0	0	-1	0
10178995	3015	3	0	-100	0	230	101300000	1000	0	0	-1	0
10191555	3003	2	0	-100	0	230	101300000	1000	0	0	-1	0
10204115	3008	0	0	-100	0	230	101300000	1000	0	0	-1	0
10216675	3008	0	0	-100	0	230	101300000	1000	0	0	-1	0
10229235	3011	0	0	-100	0	230	101300000	1000	0	0	-1	0
10241795	3012	0	0	-100	0	230	101300000	1000	0	0	-1	0
10254355	3007	0	0	-100	0	230	101300000	1000	0	0	-1	0
10266915	3005	3	0	-100	0	230	101300000	1000	0	0	-1	0
10279475	3004	0	0	-100	0	230	101300000	1000	0	0	-1	0
10292035	3004	0	0	-100	0	230	101300000	1000	0	0	-1	0
10304595	3008	0	0	-100	0	230	101300000	1000	0	0	-1	0
10317155	3012	0	0	-100	0	230	101300000	1000	0	0	-1	0
10329715	3009	0	0	-100	0	230	101300000	1000	0	0	-1	0
10342275	3008	0	0	-100	0	230	101300000	1000	0	0	-1	0
10354835	3007	2	0	-100	0	230	101300000	1000	0	0	-1	0
10367395	3008	0	0	-100	0	230	101300000	1000	0	0	-1	0
10379955	3014	0	0	-100	0	230	101300000	1000	0	0	-1	0
10392515	3006	0	0	-100	0	230	101300000	1000	0	0	-1	0
10405075	3004	0	0	-100	0	230	101300000	1000	0	0	-1	0
10417635	3016	0	0	-100	0	230	101300000	1000	0	0	-1	0
10430195	3011	0	0	-100	0	230	101300000	1000	0	0	-1	0
10442755	3013	0	0	-100	0	230	101300000	1000	0	0	-1	0
10455315	3005	0	0	-100	0	230	101300000	1000	0	0	-1	0
10467875	3004	0	0	-100	0	230	101300000	1000	0	0	-1	0
10480435	3007	1	0	-100	0	230	101300000	1000	0	0	-1	0
10492995	3006	0	0	-100	0	230	101300000	1000	0	0	-1	0
10505555	3004	0	0	-100	0	230	101300000	1000	0	0	-1	0
10518115	3006	0	0	-100	0	230	101300000	1000	0	0	-1	0
10530675	3004	0	0	-100	0	230	101300000	1000	0	0	-1	0
10543235	3004	0	0	-100	0	230	101300000	1000	0	0	-1	0
10555795	3008	0	0	-100	0	230	101300000	1000	0	0	-1	0
10568355	3002	0	0	-100	0	230	101300000	1000	0	0	-1	0
10580915	3005	0	0	-100	0	230	101300000	1000	0	0	-1	0
10593475	3008	0	0	-100	0	230	101300000	1000	0	0	-1	0
10606035	3003	0	0	-100	0	230	101300000	1000	0	0	-1	0
10618595	3012	0	0	-100	0	230	101300000	1000	0	0	-1	0
10631155	3011	0	0	-100	0	230	101300000	1000	0	0	-1	0
10643715	3014	0	0	-100	0	230	101300000	1000	0	0	-1	0
10656275	3008	0	0	-100	0	230	101300000	1000	0	0	-1	0
10668835	3006	0	0	-100	0	230	101300000	1000	0	0	-1	0
10681395	3008	0	0	-100	0	230	101300000	1000	0	0	-1	0
10693955	3005	0	0	-100	0	230	101300000	1000	0	0	-1	0
10706515	3008	0	0	-100	0	230	101300000	1000	0	0	-1	0
10719075	3011	0	0	-100	0	230	101300000	1000	0	0	-1	0
10731635	3004	0	0	-100	0	230	101300000	1000	0	0	-1	0
10744195	3008	0	0	-100	0	230	101300000	1000	0	0	-1	0
10756755	3012	0	0	-100	0	230	101300000	1000	0	0	-1	0
10769315	3009	0	0	-100	0	230	101300000	1000	0	0	-1	0
10781875	3009	0	0	-100	0	230	101300000	1000	0	0	-1	0
10794435	3005	0	0	-100	0	230	101300000	1000	0	0	-1	0
10806995	3010	0	0	-100	0	230	101300000	1000	0	0	-1	0
10819555	3011	0	0	-100	0	230	101300000	1000	0	0	-1	0
10832115	3004	0	0	-100	0	230	101300000	1000	0	0	-1	0
10844675	3003	0	0	-100	0	230	101300000	1000	0	0	-1	0
10857235	3007	4	0	-100	0	230	101300000	1000	0	0	-1	0
10869795	3007	2	0	-100	0	230	101300000	1000	0	0	-1	0
10882355	3007	1	0	-100	0	230	101300000	1000	0	0	-1	0
10894915	3004	0	0	-100	0	230	101300000	1000	0	0	-1	0
10907475	3006	0	0	-100	0	230	101300000	1000	0	0	-1	0
10920035	3011	0	0	-100	0	230	101300000	1000	0	0	-1	0
10932595	3013	0	0	-100	0	230	101300000	1000	0	0	-1	0
10945155	3010	0	0	-100	0	230	101300000	1000	0	0	-1	0
10957715	3012	0	0	-100	0	230	101300000	1000	0	0	-1	0
10970275	3009	0	0	-100	0	230	101300000	1000	0	0	-1	0
10982835	3013	0	0	-100	0	230	101300000	1000	0	0	-1	0
10995395	3007	0	0	-100	0	230	101300000	1000	0	0	-1	0
11007955	3008	0	0	-100	0	230	101300000	1000	0	0	-1	0
11020515	3008	3	0	-100	0	230	101300000	1000	0	0	-1	0
11033075	3004	0	0	-100	0	230	101300000	1000	0	0	-1	0
11045635	3008	0	0	-100	0	230	101300000	1000	0	0	-1	0
11058195	3014	0	0	-100	0	230	101300000	1000	0	0	-1	0
11070755	3012	0	0	-100	0	230	101300000	1000	0	0	-1	0
11083315	3016	0	0	-100	0	230	101300000	1000	0	0	-1	0
11095875	3012	0	0	-100	0	230	101300000	1000	0	0	-1	0
11108435	3009	0	0	-100	0	230	101300000	1000	0	0	-1	0
11120995	3008	0	0	-100	0	230	101300000	1000	0	0	-1	0
11133555	3005	0	0	-100	0	230	101300000	1000	0	0	-1	0
11146115	3006	3	0	-100	0	230	101300000	1000	0	0	-1	0
11158675	3008	3	0	-100	0	230	101300000	1000	0	0	-1	0
11171235	3004	2	0	-100	0	230	101300000	1000	0	0	-1	0
11183795	3006	3	0	-100	0	230	101300000	1000	0	0	-1	0
11196355	3006	2	0	-100	0	230	101300000	1000	0	0	-1	0
11208915	3003	1	0	-100	0	230	101300000	1000	0	0	-1	0
11221475	3009	0	0	-100	0	230	101300000	1000	0	0	-1	0
11234035	3013	0	0	-100	0	230	101300000	1000	0	0	-1	0
11246595	3018	0	0	-100	0	230	101300000	1000	0	0	-1	0
11259155	3015	0	0	-100	0	230	101300000	1000	0	0	-1	0
11271715	3013	0	0	-100	0	230	101300000	1000	0	0	-1	0
11284275	3011	0	0	-100	0	230	101300000	1000	0	0	-1	0
11296835	3006	0	0	-100	0	230	101300000	1000	0	0	-1	0
11309395	3007	0	0	-100	0	230	101300000	1000	0	0	-1	0
11321955	3006	2	0	-100	0	230	101300000	1000	0	0	-1	0
11334515	3005	1	0	-100	0	230	101300000	1000	0	0	-1	0
11347075	3012	0	0	-100	0	230	101300000	1000	0	0	-1	0
11359635	3011	0	0	-100	0	230	101300000	1000	0	0	-1	0
11372195	3010	0	0	-100	0	230	101300000	1000	0	0	-1	0
11384755	3008	0	0	-100	0	230	101300000	1000	0	0	-1	0
11397315	3006	0	0	-100	0	230	101300000	1000	0	0	-1	0
11409875	3008	4	0	-100	0	230	101300000	1000	0	0	-1	0
11422435	3009	2	0	-100	0	230	101300000	1000	0	0	-1	0
11434995	3006	0	0	-100	0	230	101300000	1000	0	0	-1	0
11447555	3004	1	0	-100	0	230	101300000	1000	0	0	-1	0
11460115	3006	0	0	-100	0	230	101300000	1000	0	0	-1	0
11472675	3003	2	0	-100	0	230	101300000	1000	0	0	-1	0
11485235	3006	1	0	-100	0	230	101300000	1000	0	0	-1	0
11497795	3008	2	0	-100	0	230	101300000	1000	0	0	-1	0
11510355	3008	0	0	-100	0	230	101300000	1000	0	0	-1	0
11522915	3009	2	0	-100	0	230	101300000	1000	0	0	-1	0
11535475	3006	1	0	-100	0	230	101300000	1000	0	0	-1	0
11548035	3003	1	0	-100	0	230	101300000	1000	0	0	-1	0
11560595	3007	1	0	-100	0	230	101300000	1000	0	0	-1	0
11573155	3004	2	0	-100	0	230	101300000	1000	0	0	-1	0
11585715	3004	2	0	-100	0	230	101300000	1000	0	0	-1	0
11598275	3008	0	0	-100	0	230	101300000	1000	0	0	-1	0
11610835	3007	0	0	-100	0	230	101300000	1000	0	0	-1	0
11623395	3008	3	0	-100	0	230	101300000	1000	0	0	-1	0
11635955	3007	3	0	-100	0	230	101300000	1000	0	0	-1	0
11648515	3006	4	0	-100	0	230	101300000	1000	0	0	-1	0
11661075	3008	1	0	-100	0	230	101300000	1000	0	0	-1	0
11673635	3004	2	0	-100	0	230	101300000	1000	0	0	-1	0
11686195	3005	0	0	-100	0	230	101300000	1000	0	0	-1	0
11698755	3009	0	0	-100	0	230	101300000	1000	0	0	-1	0
11711315	3012	0	0	-100	0	230	101300000	1000	0	0	-1	0
11723875	3012	0	0	-100	0	230	101300000	1000	0	0	-1	0
11736435	3010	0	0	-100	0	230	101300000	1000	0	0	-1	0
11748995	3005	0	0	-100	0	230	101300000	1000	0	0	-1	0
11761555	3007	0	0	-100	0	230	101300000	1000	0	0	-1	0
11774115	3008	0	0	-100	0	230	101300000	1000	0	0	-1	0
11786675	3008	0	0	-100	0	230	101300000	1000	0	0	-1	0
11799235	3008	1	0	-100	0	230	101300000	1000	0	0	-1	0
11811795	3009	2	0	-100	0	230	101300000	1000	0	0	-1	0
11824355	3006	3	0	-100	0	230	101300000	1000	0	0	-1	0
11836915	3008	3	0	-100	0	230	101300000	1000	0	0	-1	0
11849475	3008	4	0	-100	0	230	101300000	1000	0	0	-1	0
11862035	3009	2	0	-100	0	230	101300000	1000	0	0	-1	0
11874595	3004	1	0	-100	0	230	101300000	1000	0	0	-1	0
11887155	3001	3	0	-100	0	230	101300000	1000	0	0	-1	0
11899715	3008	0	0	-100	0	230	101300000	1000	0	0	-1	0
11912275	3004	2	0	-100	0	230	101300000	1000	0	0	-1	0
11924835	3005	1	0	-100	0	230	101300000	1000	0	0	-1	0
11937395	3007	0	0	-100	0	230	101300000	1000	0	0	-1	0
11949955	3004	0	0	-100	0	230	101300000	1000	0	0	-1	0
11962515	3009	0	0	-100	0	230	101300000	1000	0	0	-1	0
11975075	3011	0	0	-100	0	230	101300000	1000	0	0	-1	0
11987635	3014	0	0	-100	0	230	101300000	1000	0	0	-1	0
12000195	3009	0	0	-100	0	230	101300000	1000	0	0	-1	0
12012755	3006	0	0	-100	0	230	101300000	1000	0	0	-1	0
12025315	3005	0	0	-100	0	230	101300000	1000	0	0	-1	0
12037875	3006	0	0	-100	0	230	101300000	1000	0	0	-1	0
12050435	3008	0	0	-100	0	230	101300000	1000	0	0	-1	0
12062995	3012	3	0	-100	0	230	101300000	1000	0	0	-1	0
12075555	3014	0	0	-100	0	230	101300000	1000	0	0	-1	0
12088115	3010	0	0	-100	0	230	101300000	1000	0	0	-1	0
12100675	3016	0	0	-100	0	230	101300000	1000	0	0	-1	0
12113235	3012	0	0	-100	0	230	101300000	1000	0	0	-1	0
12125795	3013	0	0	-100	0	230	101300000	1000	0	0	-1	0
12138355	3013	0	0	-100	0	230	101300000	1000	0	0	-1	0
12150915	3004	0	0	-100	0	230	101300000	1000	0	0	-1	0
12163475	3010	0	0	-100	0	230	101300000	1000	0	0	-1	0
12176035	3007	0	0	-100	0	230	101300000	1000	0	0	-1	0
12188595	3003	0	0	-100	0	230	101300000	1000	0	0	-1	0
12201155	3007	0	0	-100	0	230	101300000	1000	0	0	-1	0
12213715	3006	0	0	-100	0	230	101300000	1000	0	0	-1	0
12226275	3003	1	0	-100	0	230	101300000	1000	0	0	-1	0
12238835	3008	0	0	-100	0	230	101300000	1000	0	0	-1	0
12251395	3003	1	0	-100	0	230	101300000	1000	0	0	-1	0
12263955	3008	2	0	-100	0	230	101300000	1000	0	0	-1	0
12276515	3007	2	0	-100	0	230	101300000	1000	0	0	-1	0
12289075	3008	0	0	-100	0	230	101300000	1000	0	0	-1	0
12301635	3010	0	0	-100	0	230	101300000	1000	0	0	-1	0
12314195	3004	0	0	-100	0	230	101300000	1000	0	0	-1	0
12326755	3006	0	0	-100	0	230	101300000	1000	0	0	-1	0
12339315	3006	0	0	-100	0	230	101300000	1000	0	0	-1	0
12351875	3008	0	0	-100	0	230	101300000	1000	0	0	-1	0
12364435	3008	0	0	-100	0	230	101300000	1000	0	0	-1	0
12376995	3010	0	0	-100	0	230	101300000	1000	0	0	-1	0
12389555	3009	0	0	-100	0	230	101300000	1000	0	0	-1	0
12402115	3012	0	0	-100	0	230	101300000	1000	0	0	-1	0
12414675	3012	0	0	-100	0	230	101300000	1000	0	0	-1	0
12427235	3012	0	0	-100	0	230	101300000	1000	0	0	-1	0
12439795	3014	0	0	-100	0	230	101300000	1000	0	0	-1	0
12452355	3011	0	0	-100	0	230	101300000	1000	0	0	-1	0
12464915	3014	0	0	-100	0	230	101300000	1000	0	0	-1	0
12477475	3013	0	0	-100	0	230	101300000	1000	0	0	-1	0
12490035	3012	0	0	-100	0	230	101300000	1000	0	0	-1	0
12502595	3015	0	0	-100	0	230	101300000	1000	0	0	-1	0
12515155	3010	0	0	-100	0	230	101300000	1000	0	0	-1	0
12527715	3012	0	0	-100	0	230	101300000	1000	0	0	-1	0
12540275	3012	0	0	-100	0	230	101300000	1000	0	0	-1	0
12552835	3009	0	0	-100	0	230	101300000	1000	0	0	-1	0
12565395	3008	0	0	-100	0	230	101300000	1000	0	0	-1	0
12577955	3008	0	0	-100	0	230	101300000	1000	0	0	-1	0
12590515	3004	0	0	-100	0	230	101300000	1000	0	0	-1	0
12603075	3009	1	0	-100	0	230	101300000	1000	0	0	-1	0
12615635	3007	2	0	-100	0	230	101300000	1000	0	0	-1	0
12628195	3004	2	0	-100	0	230	101300000	1000	0	0	-1	0
12640755	3008	3	0	-100	0	230	101300000	1000	0	0	-1	0
12653315	3003	0	0	-100	0	230	101300000	1000	0	0	-1	0
12665875	3007	0	0	-100	0	230	101300000	1000	0	0	-1	0
12678435	3016	0	0	-100	0	230	101300000	1000	0	0	-1	0
12690995	3009	0	0	-100	0	230	101300000	1000	0	0	-1	0
12703555	3007	0	0	-100	0	230	101300000	1000	0	0	-1	0
12716115	3008	0	0	-100	0	230	101300000	1000	0	0	-1	0
12728675	3007	2	0	-100	0	230	101300000	1000	0	0	-1	0
12741235	3009	0	0	-100	0	230	101300000	1000	0	0	-1	0
12753795	3012	0	0	-100	0	230	101300000	1000	0	0	-1	0
12766355	3009	0	0	-100	0	230	101300000	1000	0	0	-1	0
12778915	3010	0	0	-100	0	230	101300000	1000	0	0	-1	0
12791475	3006	0	0	-100	0	230	101300000	1000	0	0	-1	0
12804035	3005	0	0	-100	0	230	101300000	1000	0	0	-1	0
12816595	3005	0	0	-100	0	230	101300000	1000	0	0	-1	0
12829155	3006	4	0	-100	0	230	101300000	1000	0	0	-1	0
12841715	3008	3	0	-100	0	230	101300000	1000	0	0	-1	0
12854275	3007	3	0	-100	0	230	101300000	1000	0	0	-1	0
12866835	3006	3	0	-100	0	230	101300000	1000	0	0	-1	0
12879395	3006	0	0	-100	0	230	101300000	1000	0	0	-1	0
12891955	3007	0	0	-100	0	230	101300000	1000	0	0	-1	0
12904515	3012	0	0	-100	0	230	101300000	1000	0	0	-1	0
12917075	3012	0	0	-100	0	230	101300000	1000	0	0	-1	0
12929635	3011	0	0	-100	0	230	101300000	1000	0	0	-1	0
12942195	3010	0	0	-100	0	230	101300000	1000	0	0	-1	0
12954755	3010	0	0	-100	0	230	101300000	1000	0	0	-1	0
12967315	3005	0	0	-100	0	230	101300000	1000	0	0	-1	0
12979875	3007	0	0	-100	0	230	101300000	1000	0	0	-1	0
12992435	3004	0	0	-100	0	230	101300000	1000	0	0	-1	0
13004995	3004	0	0	-100	0	230	101300000	1000	0	0	-1	0
13017555	3002	0	0	-100	0	230	101300000	1000	0	0	-1	0
13030115	3005	0	0	-100	0	230	101300000	1000	0	0	-1	0
13042675	3008	4	0	-100	0	230	101300000	1000	0	0	-1	0
13055235	3005	3	0	-100	0	230	101300000	1000	0	0	-1	0
13067795	3007	0	0	-100	0	230	101300000	1000	0	0	-1	0
13080355	3012	0	0	-100	0	230	101300000	1000	0	0	-1	0
13092915	3012	0	0	-100	0	230	101300000	1000	0	0	-1	0
13105475	3015	0	0	-100	0	230	101300000	1000	0	0	-1	0
13118035	3015	0	0	-100	0	230	101300000	1000	0	0	-1	0
13130595	3007	0	0	-100	0	230	101300000	1000	0	0	-1	0
13143155	3005	3	0	-100	0	230	101300000	1000	0	0	-1	0
13155715	3008	0	0	-100	0	230	101300000	1000	0	0	-1	0
13168275	3008	0	0	-100	0	230	101300000	1000	0	0	-1	0
13180835	3013	0	0	-100	0	230	101300000	1000	0	0	-1	0
13193395	3012	0	0	-100	0	230	101300000	1000	0	0	-1	0
13205955	3004	0	0	-100	0	230	101300000	1000	0	0	-1	0
13218515	3007	4	0	-100	0	230	101300000	1000	0	0	-1	0
13231075	3006	0	0	-100	0	230	101300000	1000	0	0	-1	0
13243635	3012	0	0	-100	0	230	101300000	1000	0	0	-1	0
13256195	3016	0	0	-100	0	230	101300000	1000	0	0	-1	0
13268755	3007	0	0	-100	0	230	101300000	1000	0	0	-1	0
13281315	3011	0	0	-100	0	230	101300000	1000	0	0	-1	0
13293875	3008	0	0	-100	0	230	101300000	1000	0	0	-1	0
13306435	3016	0	0	-100	0	230	101300000	1000	0	0	-1	0
13318995	3006	0	0	-100	0	230	101300000	1000	0	0	-1	0
13331555	3008	2	0	-100	0	230	101300000	1000	0	0	-1	0
13344115	3007	0	0	-100	0	230	101300000	1000	0	0	-1	0
13356675	3016	0	0	-100	0	230	101300000	1000	0	0	-1	0
13369235	3007	1	0	-100	0	230	101300000	1000	0	0	-1	0
13381795	3006	0	0	-100	0	230	101300000	1000	0	0	-1	0
13394355	3012	0	0	-100	0	230	101300000	1000	0	0	-1	0
13406915	3008	0	0	-100	0	230	101300000	1000	0	0	-1	0
13419475	3010	4	0	-100	0	230	101300000	1000	0	0	-1	0
13432035	3008	0	0	-100	0	230	101300000	1000	0	0	-1	0
13444595	3016	0	0	-100	0	230	101300000	1000	0	0	-1	0
13457155	3008	2	0	-100	0	230	101300000	1000	0	0	-1	0
13469715	3007	0	0	-100	0	230	101300000	1000	0	0	-1	0
13482275	3016	0	0	-100	0	230	101300000	1000	0	0	-1	0
13494835	3006	0	0	-100	0	230	101300000	1000	0	0	-1	0
13507395	3008	2	0	-100	0	230	101300000	1000	0	0	-1	0
13519955	3007	0	0	-100	0	230	101300000	1000	0	0	-1	0
13532515	3010	0	0	-100	0	230	101300000	1000	0	0	-1	0
13545075	3012	0	0	-100	0	230	101300000	1000	0	0	-1	0
13557635	3009	0	0	-100	0	230	101300000	1000	0	0	-1	0
13570195	3004	1	0	-100	0	230	101300000	1000	0	0	-1	0
13582755	3009	0	0	-100	0	230	101300000	1000	0	0	-1	0
13595315	3006	0	0	-100	0	230	101300000	1000	0	0	-1	0
13607875	3005	0	0	-100	0	230	101300000	1000	0	0	-1	0
13620435	3013	0	0	-100	0	230	101300000	1000	0	0	-1	0
13632995	3008	1	0	-100	0	230	101300000	1000	0	0	-1	0
13645555	3006	1	0	-100	0	230	101300000	1000	0	0	-1	0
13658115	3006	4	0	-100	0	230	101300000	1000	0	0	-1	0
13670675	3008	0	0	-100	0	230	101300000	1000	0	0	-1	0
13683235	3008	0	0	-100	0	230	101300000	1000	0	0	-1	0
13695795	3008	0	0	-100	0	230	101300000	1000	0	0	-1	0
13708355	3013	0	0	-100	0	230	101300000	1000	0	0	-1	0
13720915	3008	0	0	-100	0	230	101300000	1000	0	0	-1	0
13733475	3006	0	0	-100	0	230	101300000	1000	0	0	-1	0
13746035	3006	2	0	-100	0	230	101300000	1000	0	0	-1	0
13758595	3006	2	0	-100	0	230	101300000	1000	0	0	-1	0
13771155	3002	1	0	-100	0	230	101300000	1000	0	0	-1	0
13783715	3007	0	0	-100	0	230	101300000	1000	0	0	-1	0
13796275	3010	0	0	-100	0	230	101300000	1000	0	0	-1	0
13808835	3012	0	0	-100	0	230	101300000	1000	0	0	-1	0
13821395	3006	0	0	-100	0	230	101300000	1000	0	0	-1	0
13833955	3006	3	0	-100	0	230	101300000	1000	0	0	-1	0
13846515	3005	0	0	-100	0	230	101300000	1000	0	0	-1	0
13859075	3011	0	0	-100	0	230	101300000	1000	0	0	-1	0
13871635	3012	0	0	-100	0	230	101300000	1000	0	0	-1	0
13884195	3013	0	0	-100	0	230	101300000	1000	0	0	-1	0
13896755	3006	2	0	-100	0	230	101300000	1000	0	0	-1	0
13909315	3008	0	0	-100	0	230	101300000	1000	0	0	-1	0
13921875	3006	0	0	-100	0	230	101300000	1000	0	0	-1	0
13934435	3013	0	0	-100	0	230	101300000	1000	0	0	-1	0
13946995	3008	0	0	-100	0	230	101300000	1000	0	0	-1	0
13959555	3012	2	0	-100	0	230	101300000	1000	0	0	-1	0
13972115	3008	0	0	-100	0	230	101300000	1000	0	0	-1	0
13984675	3012	0	0	-100	0	230	101300000	1000	0	0	-1	0
13997235	3008	0	0	-100	0	230	101300000	1000	0	0	-1	0
14009795	3005	3	0	-100	0	230	101300000	1000	0	0	-1	0
14022355	3005	0	0	-100	0	230	101300000	1000	0	0	-1	0
14034915	3009	0	0	-100	0	230	101300000	1000	0	0	-1	0
14047475	3012	0	0	-100	0	230	101300000	1000	0	0	-1	0
14060035	3008	0	0	-100	0	230	101300000	1000	0	0	-1	0
14072595	3008	4	0	-100	0	230	101300000	1000	0	0	-1	0
14085155	3004	0	0	-100	0	230	101300000	1000	0	0	-1	0
14097715	3013	0	0	-100	0	230	101300000	1000	0	0	-1	0
14110275	3010	0	0	-100	0	230	101300000	1000	0	0	-1	0
14122835	3011	0	0	-100	0	230	101300000	1000	0	0	-1	0
14135395	3005	1	0	-100	0	230	101300000	1000	0	0	-1	0
14147955	3004	2	0	-100	0	230	101300000	1000	0	0	-1	0
14160515	3011	3	0	-100	0	230	101300000	1000	0	0	-1	0
14173075	3002	0	0	-100	0	230	101300000	1000	0	0	-1	0
14185635	3004	0	0	-100	0	230	101300000	1000	0	0	-1	0
14198195	3012	0	0	-100	0	230	101300000	1000	0	0	-1	0
14210755	3012	0	0	-100	0	230	101300000	1000	0	0	-1	0
14223315	3007	1	0	-100	0	230	101300000	1000	0	0	-1	0
14235875	3006	0	0	-100	0	230	101300000	1000	0	0	-1	0
14248435	3009	0	0	-100	0	230	101300000	1000	0	0	-1	0
14260995	3004	0	0	-100	0	230	101300000	1000	0	0	-1	0
14273555	3004	0	0	-100	0	230	101300000	1000	0	0	-1	0
14286115	3010	0	0	-100	0	230	101300000	1000	0	0	-1	0
14298675	3008	2	0	-100	0	230	101300000	1000	0	0	-1	0
14311235	3004	0	0	-100	0	230	101300000	1000	0	0	-1	0
14323795	3011	0	0	-100	0	230	101300000	1000	0	0	-1	0
14336355	3007	0	0	-100	0	230	101300000	1000	0	0	-1	0
14348915	3008	0	0	-100	0	230	101300000	1000	0	0	-1	0
14361475	3012	0	0	-100	0	230	101300000	1000	0	0	-1	0
14374035	3006	0	0	-100	0	230	101300000	1000	0	0	-1	0
14386595	3006	0	0	-100	0	230	101300000	1000	0	0	-1	0
14399155	3012	0	0	-100	0	230	101300000	1000	0	0	-1	0
14411715	3006	2	0	-100	0	230	101300000	1000	0	0	-1	0
14424275	3011	0	0	-100	0	230	101300000	1000	0	0	-1	0
14436835	3005	2	0	-100	0	230	101300000	1000	0	0	-1	0
14449395	3006	0	0	-100	0	230	101300000	1000	0	0	-1	0
14461955	3013	0	0	-100	0	230	101300000	1000	0	0	-1	0
14474515	3007	0	0	-100	0	230	101300000	1000	0	0	-1	0
14487075	3012	0	0	-100	0	230	101300000	1000	0	0	-1	0
14499635	3008	0	0	-100	0	230	101300000	1000	0	0	-1	0
14512195	3006	0	0	-100	0	230	101300000	1000	0	0	-1	0
14524755	3011	0	0	-100	0	230	101300000	1000	0	0	-1	0
14537315	3012	0	0	-100	0	230	101300000	1000	0	0	-1	0
14549875	3004	0	0	-100	0	230	101300000	1000	0	0	-1	0
14562435	3005	3	0	-100	0	230	101300000	1000	0	0	-1	0
14574995	3004	0	0	-100	0	230	101300000	1000	0	0	-1	0
14587555	3006	0	0	-100	0	230	101300000	1000	0	0	-1	0
14600115	3012	0	0	-100	0	230	101300000	1000	0	0	-1	0
14612675	3011	0	0	-100	0	230	101300000	1000	0	0	-1	0
14625235	3012	0	0	-100	0	230	101300000	1000	0	0	-1	0
14637795	3008	0	0	-100	0	230	101300000	1000	0	0	-1	0
14650355	3006	3	0	-100	0	230	101300000	1000	0	0	-1	0
14662915	3008	0	0	-100	0	230	101300000	1000	0	0	-1	0
14675475	3009	0	0	-100	0	230	101300000	1000	0	0	-1	0
14688035	3011	0	0	-100	0	230	101300000	1000	0	0	-1	0
14700595	3012	0	0	-100	0	230	101300000	1000	0	0	-1	0
14713155	3006	1	0	-100	0	230	101300000	1000	0	0	-1	0
14725715	3006	0	0	-100	0	230	101300000	1000	0	0	-1	0
14738275	3010	0	0	-100	0	230	101300000	1000	0	0	-1	0
14750835	3012	0	0	-100	0	230	101300000	1000	0	0	-1	0
14763395	3005	1	0	-100	0	230	101300000	1000	0	0	-1	0
14775955	3008	3	0	-100	0	230	101300000	1000	0	0	-1	0
14788515	3006	0	0	-100	0	230	101300000	1000	0	0	-1	0
14801075	3012	0	0	-100	0	230	101300000	1000	0	0	-1	0
14813635	3012	0	0	-100	0	230	101300000	1000	0	0	-1	0
14826195	3007	0	0	-100	0	230	101300000	1000	0	0	-1	0
14838755	3006	3	0	-100	0	230	101300000	1000	0	0	-1	0
14851315	3004	0	0	-100	0	230	101300000	1000	0	0	-1	0
14863875	3012	0	0	-100	0	230	101300000	1000	0	0	-1	0
14876435	3006	0	0	-100	0	230	101300000	1000	0	0	-1	0
14888995	3009	0	0	-100	0	230	101300000	1000	0	0	-1	0
14901555	3013	0	0	-100	0	230	101300000	1000	0	0	-1	0
14914115	3012	0	0	-100	0	230	101300000	1000	0	0	-1	0
14926675	3006	3	0	-100	0	230	101300000	1000	0	0	-1	0
14939235	3009	0	0	-100	0	230	101300000	1000	0	0	-1	0
14951795	3010	0	0	-100	0	230	101300000	1000	0	0	-1	0
14964355	3004	1	0	-100	0	230	101300000	1000	0	0	-1	0
14976915	3003	0	0	-100	0	230	101300000	1000	0	0	-1	0
14989475	3013	0	0	-100	0	230	101300000	1000	0	0	-1	0
15002035	3008	0	0	-100	0	230	101300000	1000	0	0	-1	0
15014595	3006	2	0	-100	0	230	101300000	1000	0	0	-1	0
15027155	3008	0	0	-100	0	230	101300000	1000	0	0	-1	0
15039715	3015	0	0	-100	0	230	101300000	1000	0	0	-1	0
15052275	3005	4	0	-100	0	230	101300000	1000	0	0	-1	0
15064835	3007	0	0	-100	0	230	101300000	1000	0	0	-1	0
15077395	3016	0	0	-100	0	230	101300000	1000	0	0	-1	0
15089955	3004	2	0	-100	0	230	101300000	1000	0	0	-1	0
15102515	3008	0	0	-100	0	230	101300000	1000	0	0	-1	0
15115075	3009	0	0	-100	0	230	101300000	1000	0	0	-1	0
15127635	3009	0	0	-100	0	230	101300000	1000	0	0	-1	0
15140195	3008	2	0	-100	0	230	101300000	1000	0	0	-1	0
15152755	3008	0	0	-100	0	230	101300000	1000	0	0	-1	0
15165315	3012	0	0	-100	0	230	101300000	1000	0	0	-1	0
15177875	3007	2	0	-100	0	230	101300000	1000	0	0	-1	0
15190435	3005	0	0	-100	0	230	101300000	1000	0	0	-1	0
15202995	3013	0	0	-100	0	230	101300000	1000	0	0	-1	0
15215555	3012	0	0	-100	0	230	101300000	1000	0	0	-1	0
15228115	3004	0	0	-100	0	230	101300000	1000	0	0	-1	0
15240675	3006	2	0	-100	0	230	101300000	1000	0	0	-1	0
15253235	3006	0	0	-100	0	230	101300000	1000	0	0	-1	0
15265795	3012	0	0	-100	0	230	101300000	1000	0	0	-1	0
15278355	3012	0	0	-100	0	230	101300000	1000	0	0	-1	0
15290915	3005	1	0	-100	0	230	101300000	1000	0	0	-1	0
15303475	3010	0	0	-100	0	230	101300000	1000	0	0	-1	0
15316035	3010	0	0	-100	0	230	101300000	1000	0	0	-1	0
15328595	3010	0	0	-100	0	230	101300000	1000	0	0	-1	0
15341155	3013	0	0	-100	0	230	101300000	1000	0	0	-1	0
15353715	3009	0	0	-100	0	230	101300000	1000	0	0	-1	0
15366275	3006	0	0	-100	0	230	101300000	1000	0	0	-1	0
15378835	3008	0	0	-100	0	230	101300000	1000	0	0	-1	0
15391395	3005	0	0	-100	0	230	101300000	1000	0	0	-1	0
15403955	3013	0	0	-100	0	230	101300000	1000	0	0	-1	0
15416515	3007	1	0	-100	0	230	101300000	1000	0	0	-1	0
15429075	3007	1	0	-100	0	230	101300000	1000	0	0	-1	0
15441635	3008	0	0	-100	0	230	101300000	1000	0	0	-1	0
15454195	3010	0	0	-100	0	230	101300000	1000	0	0	-1	0
15466755	3004	0	0	-100	0	230	101300000	1000	0	0	-1	0
15479315	3004	0	0	-100	0	230	101300000	1000	0	0	-1	0
15491875	3013	0	0	-100	0	230	101300000	1000	0	0	-1	0
15504435	3008	0	0	-100	0	230	101300000	1000	0	0	-1	0
15516995	3008	0	0	-100	0	230	101300000	1000	0	0	-1	0
15529555	3004	0	0	-100	0	230	101300000	1000	0	0	-1	0
15542115	3014	0	0	-100	0	230	101300000	1000	0	0	-1	0
15554675	3003	1	0	-100	0	230	101300000	1000	0	0	-1	0
15567235	3005	0	0	-100	0	230	101300000	1000	0	0	-1	0
15579795	3012	0	0	-100	0	230	101300000	1000	0	0	-1	0
15592355	3005	4	0	-100	0	230	101300000	1000	0	0	-1	0
15604915	3009	0	0	-100	0	230	101300000	1000	0	0	-1	0
15617475	3015	0	0	-100	0	230	101300000	1000	0	0	-1	0
15630035	3007	1	0	-100	0	230	101300000	1000	0	0	-1	0
15642595	3008	0	0	-100	0	230	101300000	1000	0	0	-1	0
15655155	3014	0	0	-100	0	230	101300000	1000	0	0	-1	0
15667715	3006	2	0	-100	0	230	101300000	1000	0	0	-1	0
15680275	3012	0	0	-100	0	230	101300000	1000	0	0	-1	0
15692835	3009	0	0	-100	0	230	101300000	1000	0	0	-1	0
15705395	3007	2	0	-100	0	230	101300000	1000	0	0	-1	0
15717955	3006	0	0	-100	0	230	101300000	1000	0	0	-1	0
15730515	3008	0	0	-100	0	230	101300000	1000	0	0	-1	0
15743075	3012	0	0	-100	0	230	101300000	1000	0	0	-1	0
15755635	3011	0	0	-100	0	230	101300000	1000	0	0	-1	0
15768195	3004	0	0	-100	0	230	101300000	1000	0	0	-1	0
15780755	3009	2	0	-100	0	230	101300000	1000	0	0	-1	0
15793315	3008	0	0	-100	0	230	101300000	1000	0	0	-1	0
15805875	3005	0	0	-100	0	230	101300000	1000	0	0	-1	0
15818435	3010	0	0	-100	0	230	101300000	1000	0	0	-1	0
15830995	3009	0	0	-100	0	230	101300000	1000	0	0	-1	0
15843555	3013	0	0	-100	0	230	101300000	1000	0	0	-1	0
15856115	3008	0	0	-100	0	230	101300000	1000	0	0	-1	0
15868675	3004	3	0	-100	0	230	101300000	1000	0	0	-1	0
15881235	3006	0	0	-100	0	230	101300000	1000	0	0	-1	0
15893795	3009	0	0	-100	0	230	101300000	1000	0	0	-1	0
15906355	3013	0	0	-100	0	230	101300000	1000	0	0	-1	0
15918915	3012	0	0	-100	0	230	101300000	1000	0	0	-1	0
15931475	3003	2	0	-100	0	230	101300000	1000	0	0	-1	0
15944035	3003	0	0	-100	0	230	101300000	1000	0	0	-1	0
15956595	3012	0	0	-100	0	230	101300000	1000	0	0	-1	0
15969155	3009	0	0	-100	0	230	101300000	1000	0	0	-1	0
15981715	3008	0	0	-100	0	230	101300000	1000	0	0	-1	0
15994275	3004	2	0	-100	0	230	101300000	1000	0	0	-1	0
16006835	3006	0	0	-100	0	230	101300000	1000	0	0	-1	0
16019395	3011	0	0	-100	0	230	101300000	1000	0	0	-1	0
16031955	3009	0	0	-100	0	230	101300000	1000	0	0	-1	0
16044515	3012	0	0	-100	0	230	101300000	1000	0	0	-1	0
16057075	3012	0	0	-100	0	230	101300000	1000	0	0	-1	0
16069635	3003	1	0	-100	0	230	101300000	1000	0	0	-1	0
16082195	3008	3	0	-100	0	230	101300000	1000	0	0	-1	0
16094755	3008	0	0	-100	0	230	101300000	1000	0	0	-1	0
16107315	3010	0	0	-100	0	230	101300000	1000	0	0	-1	0
16119875	3014	0	0	-100	0	230	101300000	1000	0	0	-1	0
16132435	3008	0	0	-100	0	230	101300000	1000	0	0	-1	0
16144995	3005	0	0	-100	0	230	101300000	1000	0	0	-1	0
16157555	3005	0	0	-100	0	230	101300000	1000	0	0	-1	0
16170115	3011	0	0	-100	0	230	101300000	1000	0	0	-1	0
16182675	3013	0	0	-100	0	230	101300000	1000	0	0	-1	0
16195235	3012	0	0	-100	0	230	101300000	1000	0	0	-1	0
16207795	3015	0	0	-100	0	230	101300000	1000	0	0	-1	0
16220355	3012	0	0	-100	0	230	101300000	1000	0	0	-1	0
16232915	3004	0	0	-100	0	230	101300000	1000	0	0	-1	0
16245475	3006	2	0	-100	0	230	101300000	1000	0	0	-1	0
16258035	3006	0	0	-100	0	230	101300000	1000	0	0	-1	0
16270595	3007	0	0	-100	0	230	101300000	1000	0	0	-1	0
16283155	3012	0	0	-100	0	230	101300000	1000	0	0	-1	0
16295715	3013	0	0	-100	0	230	101300000	1000	0	0	-1	0
16308275	3015	0	0	-100	0	230	101300000	1000	0	0	-1	0
16320835	3014	0	0	-100	0	230	101300000	1000	0	0	-1	0
16333395	3012	0	0	-100	0	230	101300000	1000	0	0	-1	0
16345955	3009	0	0	-100	0	230	101300000	1000	0	0	-1	0
16358515	3008	0	0	-100	0	230	101300000	1000	0	0	-1	0
16371075	3003	0	0	-100	0	230	101300000	1000	0	0	-1	0
16383635	3006	0	0	-100	0	230	101300000	1000	0	0	-1	0
16396195	3005	1	0	-100	0	230	101300000	1000	0	0	-1	0
16408755	3008	1	0	-100	0	230	101300000	1000	0	0	-1	0
16421315	3007	3	0	-100	0	230	101300000	1000	0	0	-1	0
16433875	3006	0	0	-100	0	230	101300000	1000	0	0	-1	0
16446435	3009	0	0	-100	0	230	101300000	1000	0	0	-1	0
16458995	3013	0	0	-100	0	230	101300000	1000	0	0	-1	0
16471555	3012	0	0	-100	0	230	101300000	1000	0	0	-1	0
16484115	3007	0	0	-100	0	230	101300000	1000	0	0	-1	0
16496675	3008	1	0	-100	0	230	101300000	1000	0	0	-1	0
16509235	3003	1	0	-100	0	230	101300000	1000	0	0	-1	0
16521795	3004	1	0	-100	0	230	101300000	1000	0	0	-1	0
16534355	3004	2	0	-100	0	230	101300000	1000	0	0	-1	0
16546915	3007	3	0	-100	0	230	101300000	1000	0	0	-1	0
16559475	3007	0	0	-100	0	230	101300000	1000	0	0	-1	0
16572035	3005	0	0	-100	0	230	101300000	1000	0	0	-1	0
16584595	3008	0	0	-100	0	230	101300000	1000	0	0	-1	0
16597155	3005	0	0	-100	0	230	101300000	1000	0	0	-1	0
16609715	3006	0	0	-100	0	230	101300000	1000	0	0	-1	0
16622275	3010	0	0	-100	0	230	101300000	1000	0	0	-1	0
16634835	3012	0	0	-100	0	230	101300000	1000	0	0	-1	0
16647395	3012	0	0	-100	0	230	101300000	1000	0	0	-1	0
16659955	3012	0	0	-100	0	230	101300000	1000	0	0	-1	0
16672515	3009	0	0	-100	0	230	101300000	1000	0	0	-1	0
16685075	3005	3	0	-100	0	230	101300000	1000	0	0	-1	0
16697635	3007	0	0	-100	0	230	101300000	1000	0	0	-1	0
16710195	3004	0	0	-100	0	230	101300000	1000	0	0	-1	0
16722755	3012	0	0	-100	0	230	101300000	1000	0	0	-1	0
16735315	3012	0	0	-100	0	230	101300000	1000	0	0	-1	0
16747875	3010	0	0	-100	0	230	101300000	1000	0	0	-1	0
16760435	3008	0	0	-100	0	230	101300000	1000	0	0	-1	0
16772995	3004	0	0	-100	0	230	101300000	1000	0	0	-1	0
16785555	3005	4	0	-100	0	230	101300000	1000	0	0	-1	0
16798115	3006	0	0	-100	0	230	101300000	1000	0	0	-1	0
16810675	3003	0	0	-100	0	230	101300000	1000	0	0	-1	0
16823235	3008	0	0	-100	0	230	101300000	1000	0	0	-1	0
16835795	3012	0	0	-100	0	230	101300000	1000	0	0	-1	0
16848355	3012	0	0	-100	0	230	101300000	1000	0	0	-1	0
16860915	3014	0	0	-100	0	230	101300000	1000	0	0	-1	0
16873475	3006	1	0	-100	0	230	101300000	1000	0	0	-1	0
16886035	3006	2	0	-100	0	230	101300000	1000	0	0	-1	0
16898595	3008	0	0	-100	0	230	101300000	1000	0	0	-1	0
16911155	3006	0	0	-100	0	230	101300000	1000	0	0	-1	0
16923715	3012	0	0	-100	0	230	101300000	1000	0	0	-1	0
16936275	3016	0	0	-100	0	230	101300000	1000	0	0	-1	0
16948835	3007	0	0	-100	0	230	101300000	1000	0	0	-1	0
16961395	3006	2	0	-100	0	230	101300000	1000	0	0	-1	0
16973955	3007	1	0	-100	0	230	101300000	1000	0	0	-1	0
16986515	3004	0	0	-100	0	230	101300000	1000	0	0	-1	0
16999075	3005	0	0	-100	0	230	101300000	1000	0	0	-1	0
17011635	3002	0	0	-100	0	230	101300000	1000	0	0	-1	0
17024195	3007	0	0	-100	0	230	101300000	1000	0	0	-1	0
17036755	3012	0	0	-100	0	230	101300000	1000	0	0	-1	0
17049315	3012	0	0	-100	0	230	101300000	1000	0	0	-1	0
17061875	3007	0	0	-100	0	230	101300000	1000	0	0	-1	0
17074435	3006	0	0	-100	0	230	101300000	1000	0	0	-1	0
17086995	3005	0	0	-100	0	230	101300000	1000	0	0	-1	0
17099555	3009	4	0	-100	0	230	101300000	1000	0	0	-1	0
17112115	3002	0	0	-100	0	230	101300000	1000	0	0	-1	0
17124675	3006	0	0	-100	0	230	101300000	1000	0	0	-1	0
17137235	3007	0	0	-100	0	230	101300000	1000	0	0	-1	0
17149795	3008	0	0	-100	0	230	101300000	1000	0	0	-1	0
17162355	3012	0	0	-100	0	230	101300000	1000	0	0	-1	0
17174915	3012	0	0	-100	0	230	101300000	1000	0	0	-1	0
17187475	3012	0	0	-100	0	230	101300000	1000	0	0	-1	0
17200035	3016	0	0	-100	0	230	101300000	1000	0	0	-1	0
17212595	3013	0	0	-100	0	230	101300000	1000	0	0	-1	0
17225155	3015	0	0	-100	0	230	101300000	1000	0	0	-1	0
17237715	3016	0	0	-100	0	230	101300000	1000	0	0	-1	0
17250275	3013	0	0	-100	0	230	101300000	1000	0	0	-1	0
17262835	3013	0	0	-100	0	230	101300000	1000	0	0	-1	0
17275395	3013	0	0	-100	0	230	101300000	1000	0	0	-1	0
17287955	3012	0	0	-100	0	230	101300000	1000	0	0	-1	0
17300515	3013	0	0	-100	0	230	101300000	1000	0	0	-1	0
17313075	3012	0	0	-100	0	230	101300000	1000	0	0	-1	0
17325635	3012	0	0	-100	0	230	101300000	1000	0	0	-1	0
17338195	3015	0	0	-100	0	230	101300000	1000	0	0	-1	0
17350755	3011	0	0	-100	0	230	101300000	1000	0	0	-1	0
17363315	3012	0	0	-100	0	230	101300000	1000	0	0	-1	0
17375875	3007	0	0	-100	0	230	101300000	1000	0	0	-1	0
17388435	3005	0	0	-100	0	230	101300000	1000	0	0	-1	0
17400995	3007	0	0	-100	0	230	101300000	1000	0	0	-1	0
17413555	3004	0	0	-100	0	230	101300000	1000	0	0	-1	0
17426115	3004	0	0	-100	0	230	101300000	1000	0	0	-1	0
17438675	3006	0	0	-100	0	230	101300000	1000	0	0	-1	0
17451235	3004	0	0	-100	0	230	101300000	1000	0	0	-1	0
17463795	3010	0	0	-100	0	230	101300000	1000	0	0	-1	0
17476355	3009	0	0	-100	0	230	101300000	1000	0	0	-1	0
17488915	3011	0	0	-100	0	230	101300000	1000	0	0	-1	0
17501475	3008	1	0	-100	0	230	101300000	1000	0	0	-1	0
17514035	3006	3	0	-100	0	230	101300000	1000	0	0	-1	0
17526595	3006	0	0	-100	0	230	101300000	1000	0	0	-1	0
17539155	3006	0	0	-100	0	230	101300000	1000	0	0	-1	0
17551715	3005	0	0	-100	0	230	101300000	1000	0	0	-1	0
17564275	3011	0	0	-100	0	230	101300000	1000	0	0	-1	0
17576835	3012	0	0	-100	0	230	101300000	1000	0	0	-1	0
17589395	3013	0	0	-100	0	230	101300000	1000	0	0	-1	0
17601955	3010	0	0	-100	0	230	101300000	1000	0	0	-1	0
17614515	3007	0	0	-100	0	230	101300000	1000	0	0	-1	0
17627075	3004	0	0	-100	0	230	101300000	1000	0	0	-1	0
17639635	3008	3	0	-100	0	230	101300000	1000	0	0	-1	0
17652195	3004	0	0	-100	0	230	101300000	1000	0	0	-1	0
17664755	3008	0	0	-100	0	230	101300000	1000	0	0	-1	0
17677315	3011	0	0	-100	0	230	101300000	1000	0	0	-1	0
17689875	3012	0	0	-100	0	230	101300000	1000	0	0	-1	0
17702435	3016	0	0	-100	0	230	101300000	1000	0	0	-1	0
17714995	3008	0	0	-100	0	230	101300000	1000	0	0	-1	0
17727555	3006	1	0	-100	0	230	101300000	1000	0	0	-1	0
17740115	3007	0	0	-100	0	230	101300000	1000	0	0	-1	0
17752675	3004	0	0	-100	0	230	101300000	1000	0	0	-1	0
17765235	3013	0	0	-100	0	230	101300000	1000	0	0	-1	0
17777795	3012	0	0	-100	0	230	101300000	1000	0	0	-1	0
17790355	3013	0	0	-100	0	230	101300000	1000	0	0	-1	0
17802915	3007	1	0	-100	0	230	101300000	1000	0	0	-1	0
17815475	3005	0	0	-100	0	230	101300000	1000	0	0	-1	0
17828035	3010	0	0	-100	0	230	101300000	1000	0	0	-1	0
17840595	3009	0	0	-100	0	230	101300000	1000	0	0	-1	0
17853155	3004	3	0	-100	0	230	101300000	1000	0	0	-1	0
17865715	3008	0	0	-100	0	230	101300000	1000	0	0	-1	0
17878275	3015	0	0	-100	0	230	101300000	1000	0	0	-1	0
17890835	3005	3	0	-100	0	230	101300000	1000	0	0	-1	0
17903395	3008	0	0	-100	0	230	101300000	1000	0	0	-1	0
17915955	3012	0	0	-100	0	230	101300000	1000	0	0	-1	0
17928515	3007	0	0	-100	0	230	101300000	1000	0	0	-1	0
17941075	3008	0	0	-100	0	230	101300000	1000	0	0	-1	0
17953635	3013	0	0	-100	0	230	101300000	1000	0	0	-1	0
17966195	3008	0	0	-100	0	230	101300000	1000	0	0	-1	0
17978755	3008	3	0	-100	0	230	101300000	1000	0	0	-1	0
17991315	3004	0	0	-100	0	230	101300000	1000	0	0	-1	0
18003875	3011	0	0	-100	0	230	101300000	1000	0	0	-1	0
18016435	3012	0	0	-100	0	230	101300000	1000	0	0	-1	0
18028995	3004	0	0	-100	0	230	101300000	1000	0	0	-1	0
18041555	3010	0	0	-100	0	230	101300000	1000	0	0	-1	0
18054115	3009	0	0	-100	0	230	101300000	1000	0	0	-1	0
18066675	3008	0	0	-100	0	230	101300000	1000	0	0	-1	0
18079235	3009	1	0	-100	0	230	101300000	1000	0	0	-1	0
18091795	3002	0	0	-100	0	230	101300000	1000	0	0	-1	0
18104355	3007	0	0	-100	0	230	101300000	1000	0	0	-1	0
18116915	3011	0	0	-100	0	230	101300000	1000	0	0	-1	0
18129475	3008	0	0	-100	0	230	101300000	1000	0	0	-1	0
18142035	3006	3	0	-100	0	230	101300000	1000	0	0	-1	0
18154595	3008	0	0	-100	0	230	101300000	1000	0	0	-1	0
18167155	3012	0	0	-100	0	230	101300000	1000	0	0	-1	0
18179715	3008	0	0	-100	0	230	101300000	1000	0	0	-1	0
18192275	3008	0	0	-100	0	230	101300000	1000	0	0	-1	0
18204835	3010	0	0	-100	0	230	101300000	1000	0	0	-1	0
18217395	3012	0	0	-100	0	230	101300000	1000	0	0	-1	0
18229955	3006	2	0	-100	0	230	101300000	1000	0	0	-1	0
18242515	3005	0	0	-100	0	230	101300000	1000	0	0	-1	0
18255075	3010	0	0	-100	0	230	101300000	1000	0	0	-1	0
18267635	3013	0	0	-100	0	230	101300000	1000	0	0	-1	0
18280195	3012	0	0	-100	0	230	101300000	1000	0	0	-1	0
18292755	3007	2	0	-100	0	230	101300000	1000	0	0	-1	0
18305315	3006	0	0	-100	0	230	101300000	1000	0	0	-1	0
18317875	3012	0	0	-100	0	230	101300000	1000	0	0	-1	0
18330435	3011	0	0	-100	0	230	101300000	1000	0	0	-1	0
18342995	3008	0	0	-100	0	230	101300000	1000	0	0	-1	0
18355555	3005	0	0	-100	0	230	101300000	1000	0	0	-1	0
18368115	3011	0	0	-100	0	230	101300000	1000	0	0	-1	0
18380675	3006	1	0	-100	0	230	101300000	1000	0	0	-1	0
18393235	3007	0	0	-100	0	230	101300000	1000	0	0	-1	0
18405795	3014	0	0	-100	0	230	101300000	1000	0	0	-1	0
18418355	3007	0	0	-100	0	230	101300000	1000	0	0	-1	0
18430915	3002	0	0	-100	0	230	101300000	1000	0	0	-1	0
18443475	3011	0	0	-100	0	230	101300000	1000	0	0	-1	0
18456035	3015	0	0	-100	0	230	101300000	1000	0	0	-1	0
18468595	3004	0	0	-100	0	230	101300000	1000	0	0	-1	0
18481155	3004	0	0	-100	0	230	101300000	1000	0	0	-1	0
18493715	3011	0	0	-100	0	230	101300000	1000	0	0	-1	0
18506275	3007	2	0	-100	0	230	101300000	1000	0	0	-1	0
18518835	3008	0	0	-100	0	230	101300000	1000	0	0	-1	0
18531395	3011	0	0	-100	0	230	101300000	1000	0	0	-1	0
18543955	3007	0	0	-100	0	230	101300000	1000	0	0	-1	0
18556515	3005	0	0	-100	0	230	101300000	1000	0	0	-1	0
18569075	3012	0	0	-100	0	230	101300000	1000	0	0	-1	0
18581635	3008	2	0	-100	0	230	101300000	1000	0	0	-1	0
18594195	3008	0	0	-100	0	230	101300000	1000	0	0	-1	0
18606755	3006	0	0	-100	0	230	101300000	1000	0	0	-1	0
18619315	3005	0	0	-100	0	230	101300000	1000	0	0	-1	0
18631875	3012	0	0	-100	0	230	101300000	1000	0	0	-1	0
18644435	3011	3	0	-100	0	230	101300000	1000	0	0	-1	0
18656995	3012	1	0	-100	0	230	101300000	1000	0	0	-1	0
18669555	3006	0	0	-100	0	230	101300000	1000	0	0	-1	0
18682115	3006	0	0	-100	0	230	101300000	1000	0	0	-1	0
18694675	3012	0	0	-100	0	230	101300000	1000	0	0	-1	0
18707235	3006	2	0	-100	0	230	101300000	1000	0	0	-1	0
18719795	3004	0	0	-100	0	230	101300000	1000	0	0	-1	0
18732355	3009	0	0	-100	0	230	101300000	1000	0	0	-1	0
18744915	3009	0	0	-100	0	230	101300000	1000	0	0	-1	0
18757475	3007	2	0	-100	0	230	101300000	1000	0	0	-1	0
18770035	3006	0	0	-100	0	230	101300000	1000	0	0	-1	0
18782595	3010	0	0	-100	0	230	101300000	1000	0	0	-1	0
18795155	3007	0	0	-100	0	230	101300000	1000	0	0	-1	0
18807715	3006	1	0	-100	0	230	101300000	1000	0	0	-1	0
18820275	3011	0	0	-100	0	230	101300000	1000	0	0	-1	0
18832835	3008	0	0	-100	0	230	101300000	1000	0	0	-1	0
18845395	3004	4	0	-100	0	230	101300000	1000	0	0	-1	0
18857955	3008	0	0	-100	0	230	101300000	1000	0	0	-1	0
18870515	3011	0	0	-100	0	230	101300000	1000	0	0	-1	0
18883075	3009	0	0	-100	0	230	101300000	1000	0	0	-1	0
18895635	3005	2	0	-100	0	230	101300000	1000	0	0	-1	0
18908195	3005	0	0	-100	0	230	101300000	1000	0	0	-1	0
18920755	3013	0	0	-100	0	230	101300000	1000	0	0	-1	0
18933315	3012	0	0	-100	0	230	101300000	1000	0	0	-1	0
18945875	3008	0	0	-100	0	230	101300000	1000	0	0	-1	0
18958435	3008	3	0	-100	0	230	101300000	1000	0	0	-1	0
18970995	3006	0	0	-100	0	230	101300000	1000	0	0	-1	0
18983555	3008	0	0	-100	0	230	101300000	1000	0	0	-1	0
18996115	3009	0	0	-100	0	230	101300000	1000	0	0	-1	0
19008675	3012	0	0	-100	0	230	101300000	1000	0	0	-1	0
19021235	3013	0	0	-100	0	230	101300000	1000	0	0	-1	0
19033795	3007	1	0	-100	0	230	101300000	1000	0	0	-1	0
19046355	3007	0	0	-100	0	230	101300000	1000	0	0	-1	0
19058915	3012	0	0	-100	0	230	101300000	1000	0	0	-1	0
19071475	3012	0	0	-100	0	230	101300000	1000	0	0	-1	0
19084035	3015	0	0	-100	0	230	101300000	1000	0	0	-1	0
19096595	3009	0	0	-100	0	230	101300000	1000	0	0	-1	0
19109155	3004	2	0	-100	0	230	101300000	1000	0	0	-1	0
19121715	3009	0	0	-100	0	230	101300000	1000	0	0	-1	0
19134275	3011	0	0	-100	0	230	101300000	1000	0	0	-1	0
19146835	3011	0	0	-100	0	230	101300000	1000	0	0	-1	0
19159395	3012	0	0	-100	0	230	101300000	1000	0	0	-1	0
19171955	3008	0	0	-100	0	230	101300000	1000	0	0	-1	0
19184515	3009	0	0	-100	0	230	101300000	1000	0	0	-1	0
19197075	3009	0	0	-100	0	230	101300000	1000	0	0	-1	0
19209635	3006	0	0	-100	0	230	101300000	1000	0	0	-1	0
19222195	3007	0	0	-100	0	230	101300000	1000	0	0	-1	0
19234755	3006	2	0	-100	0	230	101300000	1000	0	0	-1	0
19247315	3008	3	0	-100	0	230	101300000	1000	0	0	-1	0
19259875	3008	4	0	-100	0	230	101300000	1000	0	0	-1	0
19272435	3008	0	0	-100	0	230	101300000	1000	0	0	-1	0
19284995	3004	0	0	-100	0	230	101300000	1000	0	0	-1	0
19297555	3004	0	0	-100	0	230	101300000	1000	0	0	-1	0
19310115	3004	0	0	-100	0	230	101300000	1000	0	0	-1	0
19322675	3007	0	0	-100	0	230	101300000	1000	0	0	-1	0
19335235	3006	0	0	-100	0	230	101300000	1000	0	0	-1	0
19347795	3004	0	0	-100	0	230	101300000	1000	0	0	-1	0
19360355	3008	0	0	-100	0	230	101300000	1000	0	0	-1	0
19372915	3014	0	0	-100	0	230	101300000	1000	0	0	-1	0
19385475	3012	0	0	-100	0	230	101300000	1000	0	0	-1	0
19398035	3012	0	0	-100	0	230	101300000	1000	0	0	-1	0
19410595	3004	0	0	-100	0	230	101300000	1000	0	0	-1	0
19423155	3005	0	0	-100	0	230	101300000	1000	0	0	-1	0
19435715	3006	3	0	-100	0	230	101300000	1000	0	0	-1	0
19448275	3004	0	0	-100	0	230	101300000	1000	0	0	-1	0
19460835	3008	0	0	-100	0	230	101300000	1000	0	0	-1	0
19473395	3008	0	0	-100	0	230	101300000	1000	0	0	-1	0
19485955	3010	0	0	-100	0	230	101300000	1000	0	0	-1	0
19498515	3012	0	0	-100	0	230	101300000	1000	0	0	-1	0
19511075	3005	0	0	-100	0	230	101300000	1000	0	0	-1	0
19523635	3009	0	0	-100	0	230	101300000	1000	0	0	-1	0
19536195	3012	0	0	-100	0	230	101300000	1000	0	0	-1	0
19548755	3011	0	0	-100	0	230	101300000	1000	0	0	-1	0
19561315	3014	0	0	-100	0	230	101300000	1000	0	0	-1	0
19573875	3008	0	0	-100	0	230	101300000	1000	0	0	-1	0
19586435	3005	3	0	-100	0	230	101300000	1000	0	0	-1	0
19598995	3008	0	0	-100	0	230	101300000	1000	0	0	-1	0
19611555	3004	0	0	-100	0	230	101300000	1000	0	0	-1	0
19624115	3012	0	0	-100	0	230	101300000	1000	0	0	-1	0
19636675	3014	0	0	-100	0	230	101300000	1000	0	0	-1	0
19649235	3009	0	0	-100	0	230	101300000	1000	0	0	-1	0
19661795	3011	0	0	-100	0	230	101300000	1000	0	0	-1	0
19674355	3006	0	0	-100	0	230	101300000	1000	0	0	-1	0
19686915	3006	3	0	-100	0	230	101300000	1000	0	0	-1	0
19699475	3009	3	0	-100	0	230	101300000	1000	0	0	-1	0
19712035	3006	0	0	-100	0	230	101300000	1000	0	0	-1	0
19724595	3010	0	0	-100	0	230	101300000	1000	0	0	-1	0
19737155	3013	0	0	-100	0	230	101300000	1000	0	0	-1	0
19749715	3007	0	0	-100	0	230	101300000	1000	0	0	-1	0
19762275	3004	1	0	-100	0	230	101300000	1000	0	0	-1	0
19774835	3004	0	0	-100	0	230	101300000	1000	0	0	-1	0
19787395	3002	0	0	-100	0	230	101300000	1000	0	0	-1	0
19799955	3008	0	0	-100	0	230	101300000	1000	0	0	-1	0
19812515	3008	0	0	-100	0	230	101300000	1000	0	0	-1	0
19825075	3012	0	0	-100	0	230	101300000	1000	0	0	-1	0
19837635	3012	0	0	-100	0	230	101300000	1000	0	0	-1	0
19850195	3014	0	0	-100	0	230	101300000	1000	0	0	-1	0
19862755	3013	0	0	-100	0	230	101300000	1000	0	0	-1	0
19875315	3009	0	0	-100	0	230	101300000	1000	0	0	-1	0
19887875	3010	0	0	-100	0	230	101300000	1000	0	0	-1	0
19900435	3012	0	0	-100	0	230	101300000	1000	0	0	-1	0
19912995	3015	1	0	-100	0	230	101300000	1000	0	0	-1	0
19925555	3012	0	0	-100	0	230	101300000	1000	0	0	-1	0
19938115	3011	0	0	-100	0	230	101300000	1000	0	0	-1	0
19950675	3008	0	0	-100	0	230	101300000	1000	0	0	-1	0
19963235	3007	1	0	-100	0	230	101300000	1000	0	0	-1	0
19975795	3005	3	0	-100	0	230	101300000	1000	0	0	-1	0
19988355	3003	2	0	-100	0	230	101300000	1000	0	0	-1	0
20000915	3008	4	0	-100	0	230	101300000	1000	0	0	-1	0
20013475	3005	3	0	-100	0	230	101300000	1000	0	0	-1	0
20026035	3005	2	0	-100	0	230	101300000	1000	0	0	-1	0
20038595	3008	2	0	-100	0	230	101300000	1000	0	0	-1	0
20051155	3003	3	0	-100	0	230	101300000	1000	0	0	-1	0
20063715	3008	2	0	-100	0	230	101300000	1000	0	0	-1	0
20076275	3004	0	0	-100	0	230	101300000	1000	0	0	-1	0
20088835	3004	0	0	-100	0	230	101300000	1000	0	0	-1	0
20101395	3008	0	0	-100	0	230	101300000	1000	0	0	-1	0
20113955	3007	0	0	-100	0	230	101300000	1000	0	0	-1	0
20126515	3009	0	0	-100	0	230	101300000	1000	0	0	-1	0
20139075	3012	0	0	-100	0	230	101300000	1000	0	0	-1	0
20151635	3009	0	0	-100	0	230	101300000	1000	0	0	-1	0
20164195	3011	0	0	-100	0	230	101300000	1000	0	0	-1	0
20176755	3013	0	0	-100	0	230	101300000	1000	0	0	-1	0
20189315	3012	0	0	-100	0	230	101300000	1000	0	0	-1	0
20201875	3011	0	0	-100	0	230	101300000	1000	0	0	-1	0
20214435	3009	0	0	-100	0	230	101300000	1000	0	0	-1	0
20226995	3012	0	0	-100	0	230	101300000	1000	0	0	-1	0
20239555	3016	0	0	-100	0	230	101300000	1000	0	0	-1	0
20252115	3009	0	0	-100	0	230	101300000	1000	0	0	-1	0
20264675	3007	0	0	-100	0	230	101300000	1000	0	0	-1	0
20277235	3009	0	0	-100	0	230	101300000	1000	0	0	-1	0
20289795	3006	3	0	-100	0	230	101300000	1000	0	0	-1	0
20302355	3008	0	0	-100	0	230	101300000	1000	0	0	-1	0
20314915	3004	0	0	-100	0	230	101300000	1000	0	0	-1	0
20327475	3008	0	0	-100	0	230	101300000	1000	0	0	-1	0
20340035	3012	0	0	-100	0	230	101300000	1000	0	0	-1	0
20352595	3012	0	0	-100	0	230	101300000	1000	0	0	-1	0
20365155	3015	0	0	-100	0	230	101300000	1000	0	0	-1	0
20377715	3012	0	0	-100	0	230	101300000	1000	0	0	-1	0
20390275	3007	0	0	-100	0	230	101300000	1000	0	0	-1	0
20402835	3006	0	0	-100	0	230	101300000	1000	0	0	-1	0
20415395	3007	2	0	-100	0	230	101300000	1000	0	0	-1	0
20427955	3008	0	0	-100	0	230	101300000	1000	0	0	-1	0
20440515	3007	0	0	-100	0	230	101300000	1000	0	0	-1	0
20453075	3006	0	0	-100	0	230	101300000	1000	0	0	-1	0
20465635	3012	0	0	-100	0	230	101300000	1000	0	0	-1	0
20478195	3015	0	0	-100	0	230	101300000	1000	0	0	-1	0
20490755	3007	0	0	-100	0	230	101300000	1000	0	0	-1	0
20503315	3006	1	0	-100	0	230	101300000	1000	0	0	-1	0
20515875	3005	0	0	-100	0	230	101300000	1000	0	0	-1	0
20528435	3008	0	0	-100	0	230	101300000	1000	0	0	-1	0
20540995	3011	0	0	-100	0	230	101300000	1000	0	0	-1	0
20553555	3012	0	0	-100	0	230	101300000	1000	0	0	-1	0
20566115	3016	0	0	-100	0	230	101300000	1000	0	0	-1	0
20578675	3009	0	0	-100	0	230	101300000	1000	0	0	-1	0
20591235	3006	4	0	-100	0	230	101300000	1000	0	0	-1	0
20603795	3006	0	0	-100	0	230	101300000	1000	0	0	-1	0
20616355	3012	0	0	-100	0	230	101300000	1000	0	0	-1	0
20628915	3011	0	0	-100	0	230	101300000	1000	0	0	-1	0
20641475	3008	0	0	-100	0	230	101300000	1000	0	0	-1	0
20654035	3007	2	0	-100	0	230	101300000	1000	0	0	-1	0
20666595	3003	0	0	-100	0	230	101300000	1000	0	0	-1	0
20679155	3010	0	0	-100	0	230	101300000	1000	0	0	-1	0
20691715	3011	0	0	-100	0	230	101300000	1000	0	0	-1	0
20704275	3010	0	0	-100	0	230	101300000	1000	0	0	-1	0
20716835	3006	1	0	-100	0	230	101300000	1000	0	0	-1	0
20729395	3005	0	0	-100	0	230	101300000	1000	0	0	-1	0
20741955	3007	0	0	-100	0	230	101300000	1000	0	0	-1	0
20754515	3011	0	0	-100	0	230	101300000	1000	0	0	-1	0
20767075	3013	0	0	-100	0	230	101300000	1000	0	0	-1	0
20779635	3012	0	0	-100	0	230	101300000	1000	0	0	-1	0
20792195	3007	0	0	-100	0	230	101300000	1000	0	0	-1	0
20804755	3005	3	0	-100	0	230	101300000	1000	0	0	-1	0
20817315	3007	2	0	-100	0	230	101300000	1000	0	0	-1	0
20829875	3008	0	0	-100	0	230	101300000	1000	0	0	-1	0
20842435	3008	0	0	-100	0	230	101300000	1000	0	0	-1	0
20854995	3009	0	0	-100	0	230	101300000	1000	0	0	-1	0
20867555	3012	0	0	-100	0	230	101300000	1000	0	0	-1	0
20880115	3013	0	0	-100	0	230	101300000	1000	0	0	-1	0
20892675	3010	0	0	-100	0	230	101300000	1000	0	0	-1	0
20905235	3012	0	0	-100	0	230	101300000	1000	0	0	-1	0
20917795	3013	0	0	-100	0	230	101300000	1000	0	0	-1	0
20930355	3012	0	0	-100	0	230	101300000	1000	0	0	-1	0
20942915	3012	0	0	-100	0	230	101300000	1000	0	0	-1	0
20955475	3008	0	0	-100	0	230	101300000	1000	0	0	-1	0
20968035	3005	0	0	-100	0	230	101300000	1000	0	0	-1	0
20980595	3007	0	0	-100	0	230	101300000	1000	0	0	-1	0
20993155	3004	0	0	-100	0	230	101300000	1000	0	0	-1	0
21005715	3008	3	0	-100	0	230	101300000	1000	0	0	-1	0
21018275	3005	2	0	-100	0	230	101300000	1000	0	0	-1	0
21030835	3006	3	0	-100	0	230	101300000	1000	0	0	-1	0
21043395	3008	0	0	-100	0	230	101300000	1000	0	0	-1	0
21055955	3008	0	0	-100	0	230	101300000	1000	0	0	-1	0
21068515	3003	0	0	-100	0	230	101300000	1000	0	0	-1	0
21081075	3007	0	0	-100	0	230	101300000	1000	0	0	-1	0
21093635	3006	0	0	-100	0	230	101300000	1000	0	0	-1	0
21106195	3013	0	0	-100	0	230	101300000	1000	0	0	-1	0
21118755	3014	0	0	-100	0	230	101300000	1000	0	0	-1	0
21131315	3008	0	0	-100	0	230	101300000	1000	0	0	-1	0
21143875	3006	2	0	-100	0	230	101300000	1000	0	0	-1	0
21156435	3007	1	0	-100	0	230	101300000	1000	0	0	-1	0
21168995	3006	0	0	-100	0	230	101300000	1000	0	0	-1	0
21181555	3013	0	0	-100	0	230	101300000	1000	0	0	-1	0
21194115	3012	0	0	-100	0	230	101300000	1000	0	0	-1	0
21206675	3011	0	0	-100	0	230	101300000	1000	0	0	-1	0
21219235	3004	1	0	-100	0	230	101300000	1000	0	0	-1	0
21231795	3007	0	0	-100	0	230	101300000	1000	0	0	-1	0
21244355	3011	0	0	-100	0	230	101300000	1000	0	0	-1	0
21256915	3015	0	0	-100	0	230	101300000	1000	0	0	-1	0
21269475	3006	1	0	-100	0	230	101300000	1000	0	0	-1	0
21282035	3008	0	0	-100	0	230	101300000	1000	0	0	-1	0
21294595	3009	0	0	-100	0	230	101300000	1000	0	0	-1	0
21307155	3013	0	0	-100	0	230	101300000	1000	0	0	-1	0
21319715	3011	0	0	-100	0	230	101300000	1000	0	0	-1	0
21332275	3006	1	0	-100	0	230	101300000	1000	0	0	-1	0
21344835	3007	1	0	-100	0	230	101300000	1000	0	0	-1	0
21357395	3005	0	0	-100	0	230	101300000	1000	0	0	-1	0
21369955	3010	0	0	-100	0	230	101300000	1000	0	0	-1	0
21382515	3012	0	0	-100	0	230	101300000	1000	0	0	-1	0
21395075	3008	0	0	-100	0	230	101300000	1000	0	0	-1	0
21407635	3006	1	0	-100	0	230	101300000	1000	0	0	-1	0
21420195	3009	1	0	-100	0	230	101300000	1000	0	0	-1	0
21432755	3006	0	0	-100	0	230	101300000	1000	0	0	-1	0
21445315	3012	0	0	-100	0	230	101300000	1000	0	0	-1	0
21457875	3016	0	0	-100	0	230	101300000	1000	0	0	-1	0
21470435	3004	0	0	-100	0	230	101300000	1000	0	0	-1	0
21482995	3008	0	0	-100	0	230	101300000	1000	0	0	-1	0
21495555	3008	3	0	-100	0	230	101300000	1000	0	0	-1	0
21508115	3006	0	0	-100	0	230	101300000	1000	0	0	-1	0
21520675	3008	0	0	-100	0	230	101300000	1000	0	0	-1	0
21533235	3013	0	0	-100	0	230	101300000	1000	0	0	-1	0
21545795	3012	0	0	-100	0	230	101300000	1000	0	0	-1	0
21558355	3013	0	0	-100	0	230	101300000	1000	0	0	-1	0
21570915	3003	2	0	-100	0	230	101300000	1000	0	0	-1	0
21583475	3008	0	0	-100	0	230	101300000	1000	0	0	-1	0
21596035	3010	0	0	-100	0	230	101300000	1000	0	0	-1	0
21608595	3009	0	0	-100	0	230	101300000	1000	0	0	-1	0
21621155	3012	0	0	-100	0	230	101300000	1000	0	0	-1	0
21633715	3007	0	0	-100	0	230	101300000	1000	0	0	-1	0
21646275	3005	2	0	-100	0	230	101300000	1000	0	0	-1	0
21658835	3007	1	0	-100	0	230	101300000	1000	0	0	-1	0
21671395	3002	0	0	-100	0	230	101300000	1000	0	0	-1	0
21683955	3011	0	0	-100	0	230	101300000	1000	0	0	-1	0
21696515	3010	0	0	-100	0	230	101300000	1000	0	0	-1	0
21709075	3012	0	0	-100	0	230	101300000	1000	0	0	-1	0
21721635	3012	0	0	-100	0	230	101300000	1000	0	0	-1	0
21734195	3006	0	0	-100	0	230	101300000	1000	0	0	-1	0
21746755	3008	3	0	-100	0	230	101300000	1000	0	0	-1	0
21759315	3010	0	0	-100	0	230	101300000	1000	0	0	-1	0
21771875	3008	0	0	-100	0	230	101300000	1000	0	0	-1	0
21784435	3010	0	0	-100	0	230	101300000	1000	0	0	-1	0
21796995	3009	4	0	-100	0	230	101300000	1000	0	0	-1	0
21809555	3004	2	0	-100	0	230	101300000	1000	0	0	-1	0
21822115	3008	0	0	-100	0	230	101300000	1000	0	0	-1	0
21834675	3007	0	0	-100	0	230	101300000	1000	0	0	-1	0
21847235	3008	0	0	-100	0	230	101300000	1000	0	0	-1	0
21859795	3016	0	0	-100	0	230	101300000	1000	0	0	-1	0
21872355	3004	0	0	-100	0	230	101300000	1000	0	0	-1	0
21884915	3007	1	0	-100	0	230	101300000	1000	0	0	-1	0
21897475	3008	4	0	-100	0	230	101300000	1000	0	0	-1	0
21910035	3006	3	0	-100	0	230	101300000	1000	0	0	-1	0
21922595	3009	0	0	-100	0	230	101300000	1000	0	0	-1	0
21935155	3001	0	0	-100	0	230	101300000	1000	0	0	-1	0
21947715	3005	0	0	-100	0	230	101300000	1000	0	0	-1	0
21960275	3007	0	0	-100	0	230	101300000	1000	0	0	-1	0
21972835	3004	0	0	-100	0	230	101300000	1000	0	0	-1	0
21985395	3005	0	0	-100	0	230	101300000	1000	0	0	-1	0
21997955	3004	0	0	-100	0	230	101300000	1000	0	0	-1	0
22010515	3008	0	0	-100	0	230	101300000	1000	0	0	-1	0
22023075	3005	0	0	-100	0	230	101300000	1000	0	0	-1	0
22035635	3006	0	0	-100	0	230	101300000	1000	0	0	-1	0
22048195	3006	0	0	-100	0	230	101300000	1000	0	0	-1	0
22060755	3011	0	0	-100	0	230	101300000	1000	0	0	-1	0
22073315	3009	0	0	-100	0	230	101300000	1000	0	0	-1	0
22085875	3014	0	0	-100	0	230	101300000	1000	0	0	-1	0
22098435	3012	0	0	-100	0	230	101300000	1000	0	0	-1	0
22110995	3009	3	0	-100	0	230	101300000	1000	0	0	-1	0
22123555	3006	1	0	-100	0	230	101300000	1000	0	0	-1	0
22136115	3004	0	0	-100	0	230	101300000	1000	0	0	-1	0
22148675	3004	1	0	-100	0	230	101300000	1000	0	0	-1	0
22161235	3006	1	0	-100	0	230	101300000	1000	0	0	-1	0
22173795	3004	1	0	-100	0	230	101300000	1000	0	0	-1	0
22186355	3005	3	0	-100	0	230	101300000	1000	0	0	-1	0
22198915	3008	0	0	-100	0	230	101300000	1000	0	0	-1	0
22211475	3001	0	0	-100	0	230	101300000	1000	0	0	-1	0
22224035	3005	0	0	-100	0	230	101300000	1000	0	0	-1	0
22236595	3008	0	0	-100	0	230	101300000	1000	0	0	-1	0
22249155	3008	0	0	-100	0	230	101300000	1000	0	0	-1	0
22261715	3021	0	0	-100	0	230	101300000	1000	0	0	-1	0
22274275	3012	0	0	-100	0	230	101300000	1000	0	0	-1	0
22286835	3014	0	0	-100	0	230	101300000	1000	0	0	-1	0
22299395	3008	0	0	-100	0	230	101300000	1000	0	0	-1	0
22311955	3003	1	0	-100	0	230	101300000	1000	0	0	-1	0
22324515	3004	3	0	-100	0	230	101300000	1000	0	0	-1	0
22337075	3008	3	0	-100	0	230	101300000	1000	0	0	-1	0
22349635	3005	4	0	-100	0	230	101300000	1000	0	0	-1	0
22362195	3007	0	0	-100	0	230	101300000	1000	0	0	-1	0
22374755	3011	0	0	-100	0	230	101300000	1000	0	0	-1	0
22387315	3013	0	0	-100	0	230	101300000	1000	0	0	-1	0
22399875	3012	0	0	-100	0	230	101300000	1000	0	0	-1	0
22412435	3010	0	0	-100	0	230	101300000	1000	0	0	-1	0
22424995	3012	2	0	-100	0	230	101300000	1000	0	0	-1	0
22437555	3009	0	0	-100	0	230	101300000	1000	0	0	-1	0
22450115	3004	0	0	-100	0	230	101300000	1000	0	0	-1	0
22462675	3009	3	0	-100	0	230	101300000	1000	0	0	-1	0
22475235	3007	2	0	-100	0	230	101300000	1000	0	0	-1	0
22487795	3008	2	0	-100	0	230	101300000	1000	0	0	-1	0
22500355	3005	0	0	-100	0	230	101300000	1000	0	0	-1	0
22512915	3005	0	0	-100	0	230	101300000	1000	0	0	-1	0
22525475	3012	0	0	-100	0	230	101300000	1000	0	0	-1	0
22538035	3011	0	0	-100	0	230	101300000	1000	0	0	-1	0
22550595	3012	0	0	-100	0	230	101300000	1000	0	0	-1	0
22563155	3009	0	0	-100	0	230	101300000	1000	0	0	-1	0
22575715	3005	0	0	-100	0	230	101300000	1000	0	0	-1	0
22588275	3005	3	0	-100	0	230	101300000	1000	0	0	-1	0
22600835	3012	0	0	-100	0	230	101300000	1000	0	0	-1	0
22613395	3004	0	0	-100	0	230	101300000	1000	0	0	-1	0
22625955	3008	0	0	-100	0	230	101300000	1000	0	0	-1	0
22638515	3015	0	0	-100	0	230	101300000	1000	0	0	-1	0
22651075	3008	0	0	-100	0	230	101300000	1000	0	0	-1	0
22663635	3007	1	0	-100	0	230	101300000	1000	0	0	-1	0
22676195	3006	0	0	-100	0	230	101300000	1000	0	0	-1	0
22688755	3006	0	0	-100	0	230	101300000	1000	0	0	-1	0
22701315	3012	0	0	-100	0	230	101300000	1000	0	0	-1	0
22713875	3004	0	0	-100	0	230	101300000	1000	0	0	-1	0
22726435	3008	0	0	-100	0	230	101300000	1000	0	0	-1	0
22738995	3010	0	0	-100	0	230	101300000	1000	0	0	-1	0
22751555	3012	0	0	-100	0	230	101300000	1000	0	0	-1	0
22764115	3006	1	0	-100	0	230	101300000	1000	0	0	-1	0
22776675	3007	0	0	-100	0	230	101300000	1000	0	0	-1	0
22789235	3007	0	0	-100	0	230	101300000	1000	0	0	-1	0
22801795	3012	0	0	-100	0	230	101300000	1000	0	0	-1	0
22814355	3016	0	0	-100	0	230	101300000	1000	0	0	-1	0
22826915	3004	0	0	-100	0	230	101300000	1000	0	0	-1	0
22839475	3008	0	0	-100	0	230	101300000	1000	0	0	-1	0
22852035	3007	0	0	-100	0	230	101300000	1000	0	0	-1	0
22864595	3012	0	0	-100	0	230	101300000	1000	0	0	-1	0
22877155	3006	0	0	-100	0	230	101300000	1000	0	0	-1	0
22889715	3004	0	0	-100	0	230	101300000	1000	0	0	-1	0
22902275	3013	0	0	-100	0	230	101300000	1000	0	0	-1	0
22914835	3013	0	0	-100	0	230	101300000	1000	0	0	-1	0
22927395	3007	0	0	-100	0	230	101300000	1000	0	0	-1	0
22939955	3005	3	0	-100	0	230	101300000	1000	0	0	-1	0
22952515	3004	0	0	-100	0	230	101300000	1000	0	0	-1	0
22965075	3011	0	0	-100	0	230	101300000	1000	0	0	-1	0
22977635	3012	0	0	-100	0	230	101300000	1000	0	0	-1	0
22990195	3011	0	0	-100	0	230	101300000	1000	0	0	-1	0
23002755	3016	0	0	-100	0	230	101300000	1000	0	0	-1	0
23015315	3009	0	0	-100	0	230	101300000	1000	0	0	-1	0
23027875	3003	3	0	-100	0	230	101300000	1000	0	0	-1	0
23040435	3008	4	0	-100	0	230	101300000	1000	0	0	-1	0
23052995	3004	0	0	-100	0	230	101300000	1000	0	0	-1	0
23065555	3008	0	0	-100	0	230	101300000	1000	0	0	-1	0
23078115	3013	0	0	-100	0	230	101300000	1000	0	0	-1	0
23090675	3016	0	0	-100	0	230	101300000	1000	0	0	-1	0
23103235	3007	0	0	-100	0	230	101300000	1000	0	0	-1	0
23115795	3007	2	0	-100	0	230	101300000	1000	0	0	-1	0
23128355	3006	0	0	-100	0	230	101300000	1000	0	0	-1	0
23140915	3011	0	0	-100	0	230	101300000	1000	0	0	-1	0
23153475	3012	0	0	-100	0	230	101300000	1000	0	0	-1	0
23166035	3013	0	0	-100	0	230	101300000	1000	0	0	-1	0
23178595	3005	0	0	-100	0	230	101300000	1000	0	0	-1	0
23191155	3004	0	0	-100	0	230	101300000	1000	0	0	-1	0
23203715	3007	1	0	-100	0	230	101300000	1000	0	0	-1	0
23216275	3007	2	0	-100	0	230	101300000	1000	0	0	-1	0
23228835	3005	3	0	-100	0	230	101300000	1000	0	0	-1	0
23241395	3007	0	0	-100	0	230	101300000	1000	0	0	-1	0
23253955	3005	0	0	-100	0	230	101300000	1000	0	0	-1	0
23266515	3008	0	0	-100	0	230	101300000	1000	0	0	-1	0
23279075	3013	0	0	-100	0	230	101300000	1000	0	0	-1	0
23291635	3013	0	0	-100	0	230	101300000	1000	0	0	-1	0
23304195	3004	1	0	-100	0	230	101300000	1000	0	0	-1	0
23316755	3008	2	0	-100	0	230	101300000	1000	0	0	-1	0
23329315	3011	3	0	-100	0	230	101300000	1000	0	0	-1	0
23341875	3006	0	0	-100	0	230	101300000	1000	0	0	-1	0
23354435	3008	0	0	-100	0	230	101300000	1000	0	0	-1	0
23366995	3012	0	0	-100	0	230	101300000	1000	0	0	-1	0
23379555	3012	0	0	-100	0	230	101300000	1000	0	0	-1	0
23392115	3003	1	0	-100	0	230	101300000	1000	0	0	-1	0
23404675	3005	3	0	-100	0	230	101300000	1000	0	0	-1	0
23417235	3004	0	0	-100	0	230	101300000	1000	0	0	-1	0
23429795	3008	0	0	-100	0	230	101300000	1000	0	0	-1	0
23442355	3013	0	0	-100	0	230	101300000	1000	0	0	-1	0
23454915	3013	0	0	-100	0	230	101300000	1000	0	0	-1	0
23467475	3013	0	0	-100	0	230	101300000	1000	0	0	-1	0
23480035	3015	0	0	-100	0	230	101300000	1000	0	0	-1	0
23492595	3008	0	0	-100	0	230	101300000	1000	0	0	-1	0
23505155	3004	0	0	-100	0	230	101300000	1000	0	0	-1	0
23517715	3009	1	0	-100	0	230	101300000	1000	0	0	-1	0
23530275	3006	2	0	-100	0	230	101300000	1000	0	0	-1	0
23542835	3005	0	0	-100	0	230	101300000	1000	0	0	-1	0
23555395	3006	0	0	-100	0	230	101300000	1000	0	0	-1	0
23567955	3008	0	0	-100	0	230	101300000	1000	0	0	-1	0
23580515	3012	0	0	-100	0	230	101300000	1000	0	0	-1	0
23593075	3013	0	0	-100	0	230	101300000	1000	0	0	-1	0
23605635	3011	0	0	-100	0	230	101300000	1000	0	0	-1	0
23618195	3015	0	0	-100	0	230	101300000	1000	0	0	-1	0
23630755	3008	0	0	-100	0	230	101300000	1000	0	0	-1	0
23643315	3008	0	0	-100	0	230	101300000	1000	0	0	-1	0
23655875	3006	2	0	-100	0	230	101300000	1000	0	0	-1	0
23668435	3006	0	0	-100	0	230	101300000	1000	0	0	-1	0
23680995	3008	0	0	-100	0	230	101300000	1000	0	0	-1	0
23693555	3006	0	0	-100	0	230	101300000	1000	0	0	-1	0
23706115	3013	0	0	-100	0	230	101300000	1000	0	0	-1	0
23718675	3008	0	0	-100	0	230	101300000	1000	0	0	-1	0
23731235	3006	3	0	-100	0	230	101300000	1000	0	0	-1	0
23743795	3008	0	0	-100	0	230	101300000	1000	0	0	-1	0
23756355	3011	0	0	-100	0	230	101300000	1000	0	0	-1	0
23768915	3010	0	0	-100	0	230	101300000	1000	0	0	-1	0
23781475	3012	0	0	-100	0	230	101300000	1000	0	0	-1	0
23794035	3006	0	0	-100	0	230	101300000	1000	0	0	-1	0
23806595	3004	1	0	-100	0	230	101300000	1000	0	0	-1	0
23819155	3008	3	0	-100	0	230	101300000	1000	0	0	-1	0
23831715	3007	0	0	-100	0	230	101300000	1000	0	0	-1	0
23844275	3011	0	0	-100	0	230	101300000	1000	0	0	-1	0
23856835	3016	0	0	-100	0	230	101300000	1000	0	0	-1	0
23869395	3006	2	0	-100	0	230	101300000	1000	0	0	-1	0
23881955	3008	0	0	-100	0	230	101300000	1000	0	0	-1	0
23894515	3011	0	0	-100	0	230	101300000	1000	0	0	-1	0
23907075	3004	3	0	-100	0	230	101300000	1000	0	0	-1	0
23919635	3007	0	0	-100	0	230	101300000	1000	0	0	-1	0
23932195	3011	0	0	-100	0	230	101300000	1000	0	0	-1	0
23944755	3012	0	0	-100	0	230	101300000	1000	0	0	-1	0
23957315	3007	0	0	-100	0	230	101300000	1000	0	0	-1	0
23969875	3006	2	0	-100	0	230	101300000	1000	0	0	-1	0
23982435	3004	0	0	-100	0	230	101300000	1000	0	0	-1	0
23994995	3008	0	0	-100	0	230	101300000	1000	0	0	-1	0
24007555	3016	0	0	-100	0	230	101300000	1000	0	0	-1	0
24020115	3006	3	0	-100	0	230	101300000	1000	0	0	-1	0
24032675	3006	0	0	-100	0	230	101300000	1000	0	0	-1	0
24045235	3012	0	0	-100	0	230	101300000	1000	0	0	-1	0
24057795	3012	0	0	-100	0	230	101300000	1000	0	0	-1	0
24070355	3004	0	0	-100	0	230	101300000	1000	0	0	-1	0
24082915	3008	3	0	-100	0	230	101300000	1000	0	0	-1	0
24095475	3003	0	0	-100	0	230	101300000	1000	0	0	-1	0
24108035	3012	0	0	-100	0	230	101300000	1000	0	0	-1	0
24120595	3012	0	0	-100	0	230	101300000	1000	0	0	-1	0
24133155	3004	0	0	-100	0	230	101300000	1000	0	0	-1	0
24145715	3006	4	0	-100	0	230	101300000	1000	0	0	-1	0
24158275	3011	0	0	-100	0	230	101300000	1000	0	0	-1	0
24170835	3012	0	0	-100	0	230	101300000	1000	0	0	-1	0
24183395	3009	3	0	-100	0	230	101300000	1000	0	0	-1	0
24195955	3007	0	0	-100	0	230	101300000	1000	0	0	-1	0
24208515	3011	0	0	-100	0	230	101300000	1000	0	0	-1	0
24221075	3006	1	0	-100	0	230	101300000	1000	0	0	-1	0
24233635	3005	0	0	-100	0	230	101300000	1000	0	0	-1	0
24246195	3013	0	0	-100	0	230	101300000	1000	0	0	-1	0
24258755	3011	0	0	-100	0	230	101300000	1000	0	0	-1	0
24271315	3005	4	0	-100	0	230	101300000	1000	0	0	-1	0
24283875	3008	0	0	-100	0	230	101300000	1000	0	0	-1	0
24296435	3013	0	0	-100	0	230	101300000	1000	0	0	-1	0
24308995	3007	0	0	-100	0	230	101300000	1000	0	0	-1	0
24321555	3008	0	0	-100	0	230	101300000	1000	0	0	-1	0
24334115	3009	0	0	-100	0	230	101300000	1000	0	0	-1	0
24346675	3011	0	0	-100	0	230	101300000	1000	0	0	-1	0
24359235	3008	0	0	-100	0	230	101300000	1000	0	0	-1	0
24371795	3004	1	0	-100	0	230	101300000	1000	0	0	-1	0
24384355	3008	4	0	-100	0	230	101300000	1000	0	0	-1	0
24396915	3008	0	0	-100	0	230	101300000	1000	0	0	-1	0
24409475	3006	0	0	-100	0	230	101300000	1000	0	0	-1	0
24422035	3012	0	0	-100	0	230	101300000	1000	0	0	-1	0
24434595	3013	0	0	-100	0	230	101300000	1000	0	0	-1	0
24447155	3008	0	0	-100	0	230	101300000	1000	0	0	-1	0
24459715	3005	0	0	-100	0	230	101300000	1000	0	0	-1	0
24472275	3004	3	0	-100	0	230	101300000	1000	0	0	-1	0
24484835	3004	0	0	-100	0	230	101300000	1000	0	0	-1	0
24497395	3012	0	0	-100	0	230	101300000	1000	0	0	-1	0
24509955	3007	0	0	-100	0	230	101300000	1000	0	0	-1	0
24522515	3009	0	0	-100	0	230	101300000	1000	0	0	-1	0
24535075	3012	0	0	-100	0	230	101300000	1000	0	0	-1	0
24547635	3007	1	0	-100	0	230	101300000	1000	0	0	-1	0
24560195	3006	0	0	-100	0	230	101300000	1000	0	0	-1	0
24572755	3006	0	0	-100	0	230	101300000	1000	0	0	-1	0
24585315	3012	0	0	-100	0	230	101300000	1000	0	0	-1	0
24597875	3006	0	0	-100	0	230	101300000	1000	0	0	-1	0
24610435	3004	0	0	-100	0	230	101300000	1000	0	0	-1	0
24622995	3015	0	0	-100	0	230	101300000	1000	0	0	-1	0
24635555	3005	0	0	-100	0	230	101300000	1000	0	0	-1	0
24648115	3004	0	0	-100	0	230	101300000	1000	0	0	-1	0
24660675	3013	0	0	-100	0	230	101300000	1000	0	0	-1	0
24673235	3012	0	0	-100	0	230	101300000	1000	0	0	-1	0
24685795	3006	2	0	-100	0	230	101300000	1000	0	0	-1	0
24698355	3008	0	0	-100	0	230	101300000	1000	0	0	-1	0
24710915	3010	0	0	-100	0	230	101300000	1000	0	0	-1	0
24723475	3004	1	0	-100	0	230	101300000	1000	0	0	-1	0
24736035	3010	0	0	-100	0	230	101300000	1000	0	0	-1	0
24748595	3010	0	0	-100	0	230	101300000	1000	0	0	-1	0
24761155	3009	0	0	-100	0	230	101300000	1000	0	0	-1	0
24773715	3008	4	0	-100	0	230	101300000	1000	0	0	-1	0
24786275	3008	0	0	-100	0	230	101300000	1000	0	0	-1	0
24798835	3005	0	0	-100	0	230	101300000	1000	0	0	-1	0
24811395	3003	0	0	-100	0	230	101300000	1000	0	0	-1	0
24823955	3015	0	0	-100	0	230	101300000	1000	0	0	-1	0
24836515	3006	0	0	-100	0	230	101300000	1000	0	0	-1	0
24849075	3008	0	0	-100	0	230	101300000	1000	0	0	-1	0
24861635	3009	0	0	-100	0	230	101300000	1000	0	0	-1	0
24874195	3011	0	0	-100	0	230	101300000	1000	0	0	-1	0
24886755	3008	2	0	-100	0	230	101300000	1000	0	0	-1	0
24899315	3008	0	0	-100	0	230	101300000	1000	0	0	-1	0
24911875	3007	0	0	-100	0	230	101300000	1000	0	0	-1	0
24924435	3010	0	0	-100	0	230	101300000	1000	0	0	-1	0
24936995	3012	0	0	-100	0	230	101300000	1000	0	0	-1	0
24949555	3007	0	0	-100	0	230	101300000	1000	0	0	-1	0
24962115	3004	0	0	-100	0	230	101300000	1000	0	0	-1	0
24974675	3011	0	0	-100	0	230	101300000	1000	0	0	-1	0
24987235	3005	1	0	-100	0	230	101300000	1000	0	0	-1	0
24999795	3008	0	0	-100	0	230	101300000	1000	0	0	-1	0
25012355	3011	0	0	-100	0	230	101300000	1000	0	0	-1	0
25024915	3008	1	0	-100	0	230	101300000	1000	0	0	-1	0
25037475	3007	0	0	-100	0	230	101300000	1000	0	0	-1	0
25050035	3012	0	0	-100	0	230	101300000	1000	0	0	-1	0
25062595	3004	2	0	-100	0	230	101300000	1000	0	0	-1	0
25075155	3004	0	0	-100	0	230	101300000	1000	0	0	-1	0
25087715	3012	0	0	-100	0	230	101300000	1000	0	0	-1	0
25100275	3009	2	0	-100	0	230	101300000	1000	0	0	-1	0
25112835	3012	0	0	-100	0	230	101300000	1000	0	0	-1	0
25125395	3004	2	0	-100	0	230	101300000	1000	0	0	-1	0
25137955	3007	0	0	-100	0	230	101300000	1000	0	0	-1	0
25150515	3012	0	0	-100	0	230	101300000	1000	0	0	-1	0
25163075	3003	2	0	-100	0	230	101300000	1000	0	0	-1	0
25175635	3012	0	0	-100	0	230	101300000	1000	0	0	-1	0
25188195	3005	0	0	-100	0	230	101300000	1000	0	0	-1	0
25200755	3008	0	0	-100	0	230	101300000	1000	0	0	-1	0
25213315	3009	0	0	-100	0	230	101300000	1000	0	0	-1	0
25225875	3008	4	0	-100	0	230	101300000	1000	0	0	-1	0
25238435	3012	0	0	-100	0	230	101300000	1000	0	0	-1	0
25250995	3004	0	0	-100	0	230	101300000	1000	0	0	-1	0
25263555	3011	0	0	-100	0	230	101300000	1000	0	0	-1	0
25276115	3008	0	0	-100	0	230	101300000	1000	0	0	-1	0
25288675	3005	2	0	-100	0	230	101300000	1000	0	0	-1	0
25301235	3016	0	0	-100	0	230	101300000	1000	0	0	-1	0
25313795	3009	0	0	-100	0	230	101300000	1000	0	0	-1	0
25326355	3008	0	0	-100	0	230	101300000	1000	0	0	-1	0
25338915	3013	0	0	-100	0	230	101300000	1000	0	0	-1	0
25351475	3006	1	0	-100	0	230	101300000	1000	0	0	-1	0
25364035	3007	0	0	-100	0	230	101300000	1000	0	0	-1	0
25376595	3014	0	0	-100	0	230	101300000	1000	0	0	-1	0
25389155	3004	1	0	-100	0	230	101300000	1000	0	0	-1	0
25401715	3011	0	0	-100	0	230	101300000	1000	0	0	-1	0
25414275	3012	0	0	-100	0	230	101300000	1000	0	0	-1	0
25426835	3008	4	0	-100	0	230	101300000	1000	0	0	-1	0
25439395	3012	0	0	-100	0	230	101300000	1000	0	0	-1	0
25451955	3011	0	0	-100	0	230	101300000	1000	0	0	-1	0
25464515	3006	2	0	-100	0	230	101300000	1000	0	0	-1	0
25477075	3008	0	0	-100	0	230	101300000	1000	0	0	-1	0
25489635	3011	0	0	-100	0	230	101300000	1000	0	0	-1	0
25502195	3008	4	0	-100	0	230	101300000	1000	0	0	-1	0
25514755	3009	0	0	-100	0	230	101300000	1000	0	0	-1	0
25527315	3008	0	0	-100	0	230	101300000	1000	0	0	-1	0
25539875	3008	0	0	-100	0	230	101300000	1000	0	0	-1	0
25552435	3012	0	0	-100	0	230	101300000	1000	0	0	-1	0
25564995	3005	0	0	-100	0	230	101300000	1000	0	0	-1	0
25577555	3009	0	0	-100	0	230	101300000	1000	0	0	-1	0
25590115	3003	3	0	-100	0	230	101300000	1000	0	0	-1	0
25602675	3010	0	0	-100	0	230	101300000	1000	0	0	-1	0
25615235	3011	0	0	-100	0	230	101300000	1000	0	0	-1	0
25627795	3005	0	0	-100	0	230	101300000	1000	0	0	-1	0
25640355	3011	0	0	-100	0	230	101300000	1000	0	0	-1	0
25652915	3006	0	0	-100	0	230	101300000	1000	0	0	-1	0
25665475	3005	3	0	-100	0	230	101300000	1000	0	0	-1	0
25678035	3010	0	0	-100	0	230	101300000	1000	0	0	-1	0
25690595	3007	0	0	-100	0	230	101300000	1000	0	0	-1	0
25703155	3004	0	0	-100	0	230	101300000	1000	0	0	-1	0
25715715	3012	0	0	-100	0	230	101300000	1000	0	0	-1	0
25728275	3007	1	0	-100	0	230	101300000	1000	0	0	-1	0
25740835	3010	0	0	-100	0	230	101300000	1000	0	0	-1	0
25753395	3012	0	0	-100	0	230	101300000	1000	0	0	-1	0
25765955	3004	1	0	-100	0	230	101300000	1000	0	0	-1	0
25778515	3005	0	0	-100	0	230	101300000	1000	0	0	-1	0
25791075	3010	0	0	-100	0	230	101300000	1000	0	0	-1	0
25803635	3009	0	0	-100	0	230	101300000	1000	0	0	-1	0
25816195	3004	0	0	-100	0	230	101300000	1000	0	0	-1	0
25828755	3012	0	0	-100	0	230	101300000	1000	0	0	-1	0
25841315	3008	0	0	-100	0	230	101300000	1000	0	0	-1	0
25853875	3006	0	0	-100	0	230	101300000	1000	0	0	-1	0
25866435	3012	0	0	-100	0	230	101300000	1000	0	0	-1	0
25878995	3012	1	0	-100	0	230	101300000	1000	0	0	-1	0
25891555	3004	2	0	-100	0	230	101300000	1000	0	0	-1	0
25904115	3012	0	0	-100	0	230	101300000	1000	0	0	-1	0
25916675	3013	0	0	-100	0	230	101300000	1000	0	0	-1	0
25929235	3006	3	0	-100	0	230	101300000	1000	0	0	-1	0
25941795	3008	0	0	-100	0	230	101300000	1000	0	0	-1	0
25954355	3011	0	0	-100	0	230	101300000	1000	0	0	-1	0
25966915	3008	0	0	-100	0	230	101300000	1000	0	0	-1	0
25979475	3007	2	0	-100	0	230	101300000	1000	0	0	-1	0
25992035	3005	0	0	-100	0	230	101300000	1000	0	0	-1	0
26004595	3004	0	0	-100	0	230	101300000	1000	0	0	-1	0
26017155	3009	0	0	-100	0	230	101300000	1000	0	0	-1	0
26029715	3012	0	0	-100	0	230	101300000	1000	0	0	-1	0
26042275	3008	1	0	-100	0	230	101300000	1000	0	0	-1	0
26054835	3004	0	0	-100	0	230	101300000	1000	0	0	-1	0
26067395	3008	0	0	-100	0	230	101300000	1000	0	0	-1	0
26079955	3012	0	0	-100	0	230	101300000	1000	0	0	-1	0
26092515	3006	0	0	-100	0	230	101300000	1000	0	0	-1	0
26105075	3008	0	0	-100	0	230	101300000	1000	0	0	-1	0
26117635	3010	0	0	-100	0	230	101300000	1000	0	0	-1	0
26130195	3012	0	0	-100	0	230	101300000	1000	0	0	-1	0
26142755	3008	0	0	-100	0	230	101300000	1000	0	0	-1	0
26155315	3005	3	0	-100	0	230	101300000	1000	0	0	-1	0
26167875	3007	0	0	-100	0	230	101300000	1000	0	0	-1	0
26180435	3012	0	0	-100	0	230	101300000	1000	0	0	-1	0
26192995	3012	0	0	-100	0	230	101300000	1000	0	0	-1	0
26205555	3014	0	0	-100	0	230	101300000	1000	0	0	-1	0
26218115	3006	3	0	-100	0	230	101300000	1000	0	0	-1	0
26230675	3004	0	0	-100	0	230	101300000	1000	0	0	-1	0
26243235	3008	0	0	-100	0	230	101300000	1000	0	0	-1	0
26255795	3013	0	0	-100	0	230	101300000	1000	0	0	-1	0
26268355	3013	0	0	-100	0	230	101300000	1000	0	0	-1	0
26280915	3008	0	0	-100	0	230	101300000	1000	0	0	-1	0
26293475	3006	2	0	-100	0	230	101300000	1000	0	0	-1	0
26306035	3004	3	0	-100	0	230	101300000	1000	0	0	-1	0
26318595	3008	0	0	-100	0	230	101300000	1000	0	0	-1	0
26331155	3004	0	0	-100	0	230	101300000	1000	0	0	-1	0
26343715	3008	0	0	-100	0	230	101300000	1000	0	0	-1	0
26356275	3009	0	0	-100	0	230	101300000	1000	0	0	-1	0
26368835	3013	0	0	-100	0	230	101300000	1000	0	0	-1	0
26381395	3013	0	0	-100	0	230	101300000	1000	0	0	-1	0
26393955	3006	0	0	-100	0	230	101300000	1000	0	0	-1	0
26406515	3008	3	0	-100	0	230	101300000	1000	0	0	-1	0
26419075	3006	2	0	-100	0	230	101300000	1000	0	0	-1	0
26431635	3005	0	0	-100	0	230	101300000	1000	0	0	-1	0
26444195	3008	0	0	-100	0	230	101300000	1000	0	0	-1	0
26456755	3008	0	0	-100	0	230	101300000	1000	0	0	-1	0
26469315	3009	0	0	-100	0	230	101300000	1000	0	0	-1	0
26481875	3012	0	0	-100	0	230	101300000	1000	0	0	-1	0
26494435	3016	0	0	-100	0	230	101300000	1000	0	0	-1	0
26506995	3008	0	0	-100	0	230	101300000	1000	0	0	-1	0
26519555	3006	1	0	-100	0	230	101300000	1000	0	0	-1	0
26532115	3006	2	0	-100	0	230	101300000	1000	0	0	-1	0
26544675	3006	0	0	-100	0	230	101300000	1000	0	0	-1	0
26557235	3012	0	0	-100	0	230	101300000	1000	0	0	-1	0
26569795	3016	0	0	-100	0	230	101300000	1000	0	0	-1	0
26582355	3005	0	0	-100	0	230	101300000	1000	0	0	-1	0
26594915	3008	0	0	-100	0	230	101300000	1000	0	0	-1	0
26607475	3009	0	0	-100	0	230	101300000	1000	0	0	-1	0
26620035	3016	0	0	-100	0	230	101300000	1000	0	0	-1	0
26632595	3004	2	0	-100	0	230	101300000	1000	0	0	-1	0
26645155	3007	0	0	-100	0	230	101300000	1000	0	0	-1	0
26657715	3012	0	0	-100	0	230	101300000	1000	0	0	-1	0
26670275	3008	0	0	-100	0	230	101300000	1000	0	0	-1	0
26682835	3006	1	0	-100	0	230	101300000	1000	0	0	-1	0
26695395	3004	0	0	-100	0	230	101300000	1000	0	0	-1	0
26707955	3012	0	0	-100	0	230	101300000	1000	0	0	-1	0
26720515	3005	0	0	-100	0	230	101300000	1000	0	0	-1	0
26733075	3006	0	0	-100	0	230	101300000	1000	0	0	-1	0
26745635	3012	0	0	-100	0	230	101300000	1000	0	0	-1	0
26758195	3006	0	0	-100	0	230	101300000	1000	0	0	-1	0
26770755	3008	1	0	-100	0	230	101300000	1000	0	0	-1	0
26783315	3012	0	0	-100	0	230	101300000	1000	0	0	-1	0
26795875	3008	0	0	-100	0	230	101300000	1000	0	0	-1	0
26808435	3002	0	0	-100	0	230	101300000	1000	0	0	-1	0
26820995	3012	2	0	-100	0	230	101300000	1000	0	0	-1	0
26833555	3004	3	0	-100	0	230	101300000	1000	0	0	-1	0
26846115	3011	0	0	-100	0	230	101300000	1000	0	0	-1	0
26858675	3015	0	0	-100	0	230	101300000	1000	0	0	-1	0
26871235	3005	3	0	-100	0	230	101300000	1000	0	0	-1	0
26883795	3008	0	0	-100	0	230	101300000	1000	0	0	-1	0
26896355	3012	0	0	-100	0	230	101300000	1000	0	0	-1	0
26908915	3004	0	0	-100	0	230	101300000	1000	0	0	-1	0
26921475	3007	2	0	-100	0	230	101300000	1000	0	0	-1	0
26934035	3008	0	0	-100	0	230	101300000	1000	0	0	-1	0
26946595	3012	0	0	-100	0	230	101300000	1000	0	0	-1	0
26959155	3003	0	0	-100	0	230	101300000	1000	0	0	-1	0
26971715	3000	0	0	-100	0	230	101300000	1000	0	0	-1	0
26984275	3015	0	0	-100	0	230	101300000	1000	0	0	-1	0
26996835	3006	2	0	-100	0	230	101300000	1000	0	0	-1	0
27009395	3010	0	0	-100	0	230	101300000	1000	0	0	-1	0
27021955	3010	0	0	-100	0	230	101300000	1000	0	0	-1	0
27034515	3006	2	0	-100	0	230	101300000	1000	0	0	-1	0
27047075	3012	0	0	-100	0	230	101300000	1000	0	0	-1	0
