timestamp	voltage	current	windSpeed	pitchAngle	rpm	temperature	ambientPressure	humidity	accelerationX	accelerationY	accelerationZ	currentSink
7037070	3507	1	0	-100	0	230	101300000	1000	0	0	-1	0
7044523	3510	2	0	-100	0	230	101300000	1000	0	0	-1	0
7057083	3509	0	0	-100	0	230	101300000	1000	0	0	-1	0
7069643	3510	0	0	-100	0	230	101300000	1000	0	0	-1	0
7082203	3512	0	0	-100	0	230	101300000	1000	0	0	-1	0
7094763	3513	0	0	-100	0	230	101300000	1000	0	0	-1	0
7107323	3509	0	0	-100	0	230	101300000	1000	0	0	-1	0
7119883	3512	0	0	-100	0	230	101300000	1000	0	0	-1	0
7132443	3506	0	0	-100	0	230	101300000	1000	0	0	-1	0
7145004	3510	0	0	-100	0	230	101300000	1000	0	0	-1	0
7157563	3508	0	0	-100	0	230	101300000	1000	0	0	-1	0
7170123	3504	0	0	-100	0	230	101300000	1000	0	0	-1	0
7182683	3506	0	0	-100	0	230	101300000	1000	0	0	-1	0
7195243	3509	2	0	-100	0	230	101300000	1000	0	0	-1	0
7207803	3506	1	0	-100	0	230	101300000	1000	0	0	-1	0
7220363	3508	0	0	-100	0	230	101300000	1000	0	0	-1	0
7232923	3510	0	0	-100	0	230	101300000	1000	0	0	-1	0
7245483	3514	0	0	-100	0	230	101300000	1000	0	0	-1	0
7258043	3509	0	0	-100	0	230	101300000	1000	0	0	-1	0
7270603	3509	0	0	-100	0	230	101300000	1000	0	0	-1	0
7283163	3501	4	0	-100	0	230	101300000	1000	0	0	-1	0
7295723	3503	1	0	-100	0	230	101300000	1000	0	0	-1	0
7308283	3505	0	0	-100	0	230	101300000	1000	0	0	-1	0
7320843	3510	0	0	-100	0	230	101300000	1000	0	0	-1	0
7333403	3512	0	0	-100	0	230	101300000	1000	0	0	-1	0
7345963	3513	0	0	-100	0	230	101300000	1000	0	0	-1	0
7689115	3506	0	0	-100	0	230	101300000	1000	0	0	-1	0
7701675	3505	0	0	-100	0	230	101300000	1000	0	0	-1	0
7714235	3514	0	0	-100	0	230	101300000	1000	0	0	-1	0
7726795	3512	0	0	-100	0	230	101300000	1000	0	0	-1	0
7739355	3504	0	0	-100	0	230	101300000	1000	0	0	-1	0
7751915	3509	1	0	-100	0	230	101300000	1000	0	0	-1	0
7764475	3517	0	0	-100	0	230	101300000	1000	0	0	-1	0
7777035	3507	0	0	-100	0	230	101300000	1000	0	0	-1	0
7789595	3506	0	0	-100	0	230	101300000	1000	0	0	-1	0
7802155	3504	3	0	-100	0	230	101300000	1000	0	0	-1	0
7814715	3510	0	0	-100	0	230	101300000	1000	0	0	-1	0
7827275	3513	0	0	-100	0	230	101300000	1000	0	0	-1	0
7839835	3508	0	0	-100	0	230	101300000	1000	0	0	-1	0
7852395	3509	2	0	-100	0	230	101300000	1000	0	0	-1	0
7864955	3506	1	0	-100	0	230	101300000	1000	0	0	-1	0
7877515	3509	0	0	-100	0	230	101300000	1000	0	0	-1	0
7890075	3513	0	0	-100	0	230	101300000	1000	0	0	-1	0
7902635	3513	0	0	-100	0	230	101300000	1000	0	0	-1	0
7915195	3509	0	0	-100	0	230	101300000	1000	0	0	-1	0
7927755	3505	0	0	-100	0	230	101300000	1000	0	0	-1	0
7940315	3509	3	0	-100	0	230	101300000	1000	0	0	-1	0
7952875	3504	3	0	-100	0	230	101300000	1000	0	0	-1	0
7965435	3506	1	0	-100	0	230	101300000	1000	0	0	-1	0
7977995	3506	0	0	-100	0	230	101300000	1000	0	0	-1	0
7990555	3507	0	0	-100	0	230	101300000	1000	0	0	-1	0
8003115	3512	0	0	-100	0	230	101300000	1000	0	0	-1	0
8015675	3512	0	0	-100	0	230	101300000	1000	0	0	-1	0
8028235	3509	0	0	-100	0	230	101300000	1000	0	0	-1	0
8040795	3508	0	0	-100	0	230	101300000	1000	0	0	-1	0
8053355	3502	0	0	-100	0	230	101300000	1000	0	0	-1	0
8065915	3510	0	0	-100	0	230	101300000	1000	0	0	-1	0
8078475	3506	3	0	-100	0	230	101300000	1000	0	0	-1	0
8091035	3502	2	0	-100	0	230	101300000	1000	0	0	-1	0
8103595	3509	1	0	-100	0	230	101300000	1000	0	0	-1	0
8116155	3503	0	0	-100	0	230	101300000	1000	0	0	-1	0
8128715	3513	0	0	-100	0	230	101300000	1000	0	0	-1	0
8141275	3509	0	0	-100	0	230	101300000	1000	0	0	-1	0
8153835	3505	0	0	-100	0	230	101300000	1000	0	0	-1	0
8166395	3509	2	0	-100	0	230	101300000	1000	0	0	-1	0
8178955	3504	1	0	-100	0	230	101300000	1000	0	0	-1	0
8191515	3507	0	0	-100	0	230	101300000	1000	0	0	-1	0
8204075	3516	0	0	-100	0	230	101300000	1000	0	0	-1	0
8216635	3512	0	0	-100	0	230	101300000	1000	0	0	-1	0
8229195	3511	0	0	-100	0	230	101300000	1000	0	0	-1	0
8241755	3515	0	0	-100	0	230	101300000	1000	0	0	-1	0
8254315	3510	0	0	-100	0	230	101300000	1000	0	0	-1	0
8266875	3511	0	0	-100	0	230	101300000	1000	0	0	-1	0
8279435	3509	0	0	-100	0	230	101300000	1000	0	0	-1	0
8291995	3505	0	0	-100	0	230	101300000	1000	0	0	-1	0
8304555	3506	0	0	-100	0	230	101300000	1000	0	0	-1	0
8317115	3514	0	0	-100	0	230	101300000	1000	0	0	-1	0
8329675	3511	0	0	-100	0	230	101300000	1000	0	0	-1	0
8342235	3508	0	0	-100	0	230	101300000	1000	0	0	-1	0
8354795	3502	3	0	-100	0	230	101300000	1000	0	0	-1	0
8367355	3508	0	0	-100	0	230	101300000	1000	0	0	-1	0
8379915	3512	0	0	-100	0	230	101300000	1000	0	0	-1	0
8392475	3504	0	0	-100	0	230	101300000	1000	0	0	-1	0
8405035	3507	1	0	-100	0	230	101300000	1000	0	0	-1	0
8417595	3515	0	0	-100	0	230	101300000	1000	0	0	-1	0
8430155	3505	0	0	-100	0	230	101300000	1000	0	0	-1	0
8442715	3504	0	0	-100	0	230	101300000	1000	0	0	-1	0
8455275	3504	3	0	-100	0	230	101300000	1000	0	0	-1	0
8467835	3505	0	0	-100	0	230	101300000	1000	0	0	-1	0
8480395	3513	0	0	-100	0	230	101300000	1000	0	0	-1	0
8492955	3505	0	0	-100	0	230	101300000	1000	0	0	-1	0
8505515	3509	0	0	-100	0	230	101300000	1000	0	0	-1	0
8518075	3504	3	0	-100	0	230	101300000	1000	0	0	-1	0
8530635	3507	1	0	-100	0	230	101300000	1000	0	0	-1	0
8543195	3508	0	0	-100	0	230	101300000	1000	0	0	-1	0
8555755	3512	0	0	-100	0	230	101300000	1000	0	0	-1	0
8568315	3510	0	0	-100	0	230	101300000	1000	0	0	-1	0
8580875	3509	0	0	-100	0	230	101300000	1000	0	0	-1	0
8593435	3504	0	0	-100	0	230	101300000	1000	0	0	-1	0
8605995	3509	0	0	-100	0	230	101300000	1000	0	0	-1	0
8618555	3517	0	0	-100	0	230	101300000	1000	0	0	-1	0
8631115	3513	0	0	-100	0	230	101300000	1000	0	0	-1	0
8643675	3511	0	0	-100	0	230	101300000	1000	0	0	-1	0
8656235	3505	0	0	-100	0	230	101300000	1000	0	0	-1	0
8668795	3505	0	0	-100	0	230	101300000	1000	0	0	-1	0
8681355	3509	2	0	-100	0	230	101300000	1000	0	0	-1	0
8693915	3503	0	0	-100	0	230	101300000	1000	0	0	-1	0
8706475	3510	0	0	-100	0	230	101300000	1000	0	0	-1	0
8719035	3510	0	0	-100	0	230	101300000	1000	0	0	-1	0
8731595	3510	0	0	-100	0	230	101300000	1000	0	0	-1	0
8744155	3509	0	0	-100	0	230	101300000	1000	0	0	-1	0
8756715	3511	0	0	-100	0	230	101300000	1000	0	0	-1	0
8769275	3506	0	0	-100	0	230	101300000	1000	0	0	-1	0
8781835	3508	0	0	-100	0	230	101300000	1000	0	0	-1	0
8794395	3504	0	0	-100	0	230	101300000	1000	0	0	-1	0
8806955	3507	0	0	-100	0	230	101300000	1000	0	0	-1	0
8819515	3508	3	0	-100	0	230	101300000	1000	0	0	-1	0
8832075	3506	3	0	-100	0	230	101300000	1000	0	0	-1	0
8844635	3509	2	0	-100	0	230	101300000	1000	0	0	-1	0
8857195	3505	2	0	-100	0	230	101300000	1000	0	0	-1	0
8869755	3506	1	0	-100	0	230	101300000	1000	0	0	-1	0
8882315	3507	1	0	-100	0	230	101300000	1000	0	0	-1	0
8894875	3504	0	0	-100	0	230	101300000	1000	0	0	-1	0
8907435	3506	0	0	-100	0	230	101300000	1000	0	0	-1	0
8919995	3514	0	0	-100	0	230	101300000	1000	0	0	-1	0
8932555	3514	0	0	-100	0	230	101300000	1000	0	0	-1	0
8945115	3513	0	0	-100	0	230	101300000	1000	0	0	-1	0
8957675	3512	0	0	-100	0	230	101300000	1000	0	0	-1	0
8970235	3513	0	0	-100	0	230	101300000	1000	0	0	-1	0
8982795	3509	0	0	-100	0	230	101300000	1000	0	0	-1	0
8995355	3506	0	0	-100	0	230	101300000	1000	0	0	-1	0
9007915	3505	0	0	-100	0	230	101300000	1000	0	0	-1	0
9020475	3509	1	0	-100	0	230	101300000	1000	0	0	-1	0
9033035	3508	1	0	-100	0	230	101300000	1000	0	0	-1	0
9045595	3509	2	0	-100	0	230	101300000	1000	0	0	-1	0
9058155	3504	4	0	-100	0	230	101300000	1000	0	0	-1	0
9070715	3505	2	0	-100	0	230	101300000	1000	0	0	-1	0
9083275	3508	3	0	-100	0	230	101300000	1000	0	0	-1	0
9095835	3506	2	0	-100	0	230	101300000	1000	0	0	-1	0
9108395	3505	2	0	-100	0	230	101300000	1000	0	0	-1	0
9120955	3508	2	0	-100	0	230	101300000	1000	0	0	-1	0
9133515	3504	2	0	-100	0	230	101300000	1000	0	0	-1	0
9146075	3507	2	0	-100	0	230	101300000	1000	0	0	-1	0
9158635	3506	0	0	-100	0	230	101300000	1000	0	0	-1	0
9171195	3506	0	0	-100	0	230	101300000	1000	0	0	-1	0
9183755	3514	0	0	-100	0	230	101300000	1000	0	0	-1	0
9196315	3512	0	0	-100	0	230	101300000	1000	0	0	-1	0
9208875	3512	0	0	-100	0	230	101300000	1000	0	0	-1	0
9221435	3510	0	0	-100	0	230	101300000	1000	0	0	-1	0
9233995	3508	0	0	-100	0	230	101300000	1000	0	0	-1	0
9246555	3509	0	0	-100	0	230	101300000	1000	0	0	-1	0
9259115	3508	0	0	-100	0	230	101300000	1000	0	0	-1	0
9271675	3506	2	0	-100	0	230	101300000	1000	0	0	-1	0
9284235	3508	3	0	-100	0	230	101300000	1000	0	0	-1	0
9296795	3505	0	0	-100	0	230	101300000	1000	0	0	-1	0
9309355	3510	0	0	-100	0	230	101300000	1000	0	0	-1	0
9321915	3514	0	0	-100	0	230	101300000	1000	0	0	-1	0
9334475	3511	0	0	-100	0	230	101300000	1000	0	0	-1	0
9347035	3513	0	0	-100	0	230	101300000	1000	0	0	-1	0
9359595	3512	0	0	-100	0	230	101300000	1000	0	0	-1	0
9372155	3503	0	0	-100	0	230	101300000	1000	0	0	-1	0
9384715	3505	0	0	-100	0	230	101300000	1000	0	0	-1	0
9397275	3507	3	0	-100	0	230	101300000	1000	0	0	-1	0
9409835	3505	2	0	-100	0	230	101300000	1000	0	0	-1	0
9422395	3509	0	0	-100	0	230	101300000	1000	0	0	-1	0
9434955	3505	0	0	-100	0	230	101300000	1000	0	0	-1	0
9447515	3514	0	0	-100	0	230	101300000	1000	0	0	-1	0
9460075	3513	0	0	-100	0	230	101300000	1000	0	0	-1	0
9472635	3511	0	0	-100	0	230	101300000	1000	0	0	-1	0
9485195	3515	0	0	-100	0	230	101300000	1000	0	0	-1	0
9497755	3511	0	0	-100	0	230	101300000	1000	0	0	-1	0
9510315	3507	0	0	-100	0	230	101300000	1000	0	0	-1	0
9522875	3508	0	0	-100	0	230	101300000	1000	0	0	-1	0
9535435	3504	0	0	-100	0	230	101300000	1000	0	0	-1	0
9547995	3505	0	0	-100	0	230	101300000	1000	0	0	-1	0
9560555	3506	0	0	-100	0	230	101300000	1000	0	0	-1	0
9573115	3504	0	0	-100	0	230	101300000	1000	0	0	-1	0
9585675	3505	3	0	-100	0	230	101300000	1000	0	0	-1	0
9598235	3509	2	0	-100	0	230	101300000	1000	0	0	-1	0
9610795	3504	1	0	-100	0	230	101300000	1000	0	0	-1	0
9623355	3509	0	0	-100	0	230	101300000	1000	0	0	-1	0
9635915	3508	0	0	-100	0	230	101300000	1000	0	0	-1	0
9648475	3509	0	0	-100	0	230	101300000	1000	0	0	-1	0
9661035	3509	0	0	-100	0	230	101300000	1000	0	0	-1	0
9673595	3504	1	0	-100	0	230	101300000	1000	0	0	-1	0
9686155	3504	3	0	-100	0	230	101300000	1000	0	0	-1	0
9698715	3504	3	0	-100	0	230	101300000	1000	0	0	-1	0
9711275	3509	0	0	-100	0	230	101300000	1000	0	0	-1	0
9723835	3506	0	0	-100	0	230	101300000	1000	0	0	-1	0
9736395	3505	0	0	-100	0	230	101300000	1000	0	0	-1	0
9748955	3506	0	0	-100	0	230	101300000	1000	0	0	-1	0
9761515	3504	0	0	-100	0	230	101300000	1000	0	0	-1	0
9774075	3503	1	0	-100	0	230	101300000	1000	0	0	-1	0
9786635	3514	0	0	-100	0	230	101300000	1000	0	0	-1	0
9799195	3510	0	0	-100	0	230	101300000	1000	0	0	-1	0
9811755	3505	0	0	-100	0	230	101300000	1000	0	0	-1	0
9824315	3507	1	0	-100	0	230	101300000	1000	0	0	-1	0
9836875	3508	0	0	-100	0	230	101300000	1000	0	0	-1	0
9849435	3503	0	0	-100	0	230	101300000	1000	0	0	-1	0
9861995	3514	2	0	-100	0	230	101300000	1000	0	0	-1	0
9874555	3505	0	0	-100	0	230	101300000	1000	0	0	-1	0
9887115	3506	1	0	-100	0	230	101300000	1000	0	0	-1	0
9899675	3512	0	0	-100	0	230	101300000	1000	0	0	-1	0
9912235	3502	0	0	-100	0	230	101300000	1000	0	0	-1	0
9924795	3508	1	0	-100	0	230	101300000	1000	0	0	-1	0
9937355	3515	0	0	-100	0	230	101300000	1000	0	0	-1	0
9949915	3504	0	0	-100	0	230	101300000	1000	0	0	-1	0
9962475	3505	1	0	-100	0	230	101300000	1000	0	0	-1	0
9975035	3513	0	0	-100	0	230	101300000	1000	0	0	-1	0
9987595	3511	0	0	-100	0	230	101300000	1000	0	0	-1	0
10000155	3504	4	0	-100	0	230	101300000	1000	0	0	-1	0
10012715	3506	0	0	-100	0	230	101300000	1000	0	0	-1	0
10025275	3513	0	0	-100	0	230	101300000	1000	0	0	-1	0
10037835	3507	0	0	-100	0	230	101300000	1000	0	0	-1	0
10050395	3504	0	0	-100	0	230	101300000	1000	0	0	-1	0
10062955	3512	0	0	-100	0	230	101300000	1000	0	0	-1	0
10075515	3505	0	0	-100	0	230	101300000	1000	0	0	-1	0
10088075	3506	2	0	-100	0	230	101300000	1000	0	0	-1	0
10100635	3511	0	0	-100	0	230	101300000	1000	0	0	-1	0
10113195	3505	0	0	-100	0	230	101300000	1000	0	0	-1	0
10125755	3508	3	0	-100	0	230	101300000	1000	0	0	-1	0
10138315	3509	0	0	-100	0	230	101300000	1000	0	0	-1	0
10150875	3512	0	0	-100	0	230	101300000	1000	0	0	-1	0
10163435	3511	0	0	-100	0	230	101300000	1000	0	0	-1	0
10175995	3508	0	0	-100	0	230	101300000	1000	0	0	-1	0
10188555	3510	0	0	-100	0	230	101300000	1000	0	0	-1	0
10201115	3509	2	0	-100	0	230	101300000	1000	0	0	-1	0
10213675	3515	0	0	-100	0	230	101300000	1000	0	0	-1	0
10226235	3510	0	0	-100	0	230	101300000	1000	0	0	-1	0
10238795	3507	2	0	-100	0	230	101300000	1000	0	0	-1	0
10251355	3514	0	0	-100	0	230	101300000	1000	0	0	-1	0
10263915	3509	0	0	-100	0	230	101300000	1000	0	0	-1	0
10276475	3507	3	0	-100	0	230	101300000	1000	0	0	-1	0
10289035	3513	0	0	-100	0	230	101300000	1000	0	0	-1	0
10301595	3513	0	0	-100	0	230	101300000	1000	0	0	-1	0
10314155	3500	6	0	-100	0	230	101300000	1000	0	0	-1	0
10326715	3514	0	0	-100	0	230	101300000	1000	0	0	-1	0
10339275	3510	0	0	-100	0	230	101300000	1000	0	0	-1	0
10351835	3506	2	0	-100	0	230	101300000	1000	0	0	-1	0
10364395	3515	0	0	-100	0	230	101300000	1000	0	0	-1	0
10376955	3510	0	0	-100	0	230	101300000	1000	0	0	-1	0
10389515	3509	4	0	-100	0	230	101300000	1000	0	0	-1	0
10402075	3506	0	0	-100	0	230	101300000	1000	0	0	-1	0
10414635	3513	0	0	-100	0	230	101300000	1000	0	0	-1	0
10427195	3505	0	0	-100	0	230	101300000	1000	0	0	-1	0
10439755	3504	3	0	-100	0	230	101300000	1000	0	0	-1	0
10452315	3513	0	0	-100	0	230	101300000	1000	0	0	-1	0
10464875	3512	0	0	-100	0	230	101300000	1000	0	0	-1	0
10477435	3506	0	0	-100	0	230	101300000	1000	0	0	-1	0
10489995	3509	0	0	-100	0	230	101300000	1000	0	0	-1	0
10502555	3506	0	0	-100	0	230	101300000	1000	0	0	-1	0
10515115	3513	0	0	-100	0	230	101300000	1000	0	0	-1	0
10527675	3513	0	0	-100	0	230	101300000	1000	0	0	-1	0
10540235	3507	0	0	-100	0	230	101300000	1000	0	0	-1	0
10552795	3503	0	0	-100	0	230	101300000	1000	0	0	-1	0
10565355	3512	0	0	-100	0	230	101300000	1000	0	0	-1	0
10577915	3507	0	0	-100	0	230	101300000	1000	0	0	-1	0
10590475	3506	1	0	-100	0	230	101300000	1000	0	0	-1	0
10603035	3510	0	0	-100	0	230	101300000	1000	0	0	-1	0
10615595	3508	0	0	-100	0	230	101300000	1000	0	0	-1	0
10628155	3498	0	0	-100	0	230	101300000	1000	0	0	-1	0
10640715	3508	3	0	-100	0	230	101300000	1000	0	0	-1	0
10653275	3507	0	0	-100	0	230	101300000	1000	0	0	-1	0
10665835	3512	0	0	-100	0	230	101300000	1000	0	0	-1	0
10678395	3507	0	0	-100	0	230	101300000	1000	0	0	-1	0
10690955	3509	0	0	-100	0	230	101300000	1000	0	0	-1	0
10703515	3510	0	0	-100	0	230	101300000	1000	0	0	-1	0
10716075	3508	3	0	-100	0	230	101300000	1000	0	0	-1	0
10728635	3509	0	0	-100	0	230	101300000	1000	0	0	-1	0
10741195	3513	0	0	-100	0	230	101300000	1000	0	0	-1	0
10753755	3505	0	0	-100	0	230	101300000	1000	0	0	-1	0
10766315	3503	0	0	-100	0	230	101300000	1000	0	0	-1	0
10778875	3516	0	0	-100	0	230	101300000	1000	0	0	-1	0
10791435	3505	0	0	-100	0	230	101300000	1000	0	0	-1	0
10803995	3510	0	0	-100	0	230	101300000	1000	0	0	-1	0
10816555	3514	0	0	-100	0	230	101300000	1000	0	0	-1	0
10829115	3507	0	0	-100	0	230	101300000	1000	0	0	-1	0
10841675	3507	2	0	-100	0	230	101300000	1000	0	0	-1	0
10854235	3511	0	0	-100	0	230	101300000	1000	0	0	-1	0
10866795	3510	0	0	-100	0	230	101300000	1000	0	0	-1	0
10879355	3506	3	0	-100	0	230	101300000	1000	0	0	-1	0
10891915	3506	0	0	-100	0	230	101300000	1000	0	0	-1	0
10904475	3513	0	0	-100	0	230	101300000	1000	0	0	-1	0
10917035	3513	0	0	-100	0	230	101300000	1000	0	0	-1	0
10929595	3514	0	0	-100	0	230	101300000	1000	0	0	-1	0
10942155	3510	0	0	-100	0	230	101300000	1000	0	0	-1	0
10954715	3509	0	0	-100	0	230	101300000	1000	0	0	-1	0
10967275	3510	0	0	-100	0	230	101300000	1000	0	0	-1	0
10979835	3507	0	0	-100	0	230	101300000	1000	0	0	-1	0
10992395	3508	4	0	-100	0	230	101300000	1000	0	0	-1	0
11004955	3510	1	0	-100	0	230	101300000	1000	0	0	-1	0
11017515	3509	0	0	-100	0	230	101300000	1000	0	0	-1	0
11030075	3513	0	0	-100	0	230	101300000	1000	0	0	-1	0
11042635	3513	0	0	-100	0	230	101300000	1000	0	0	-1	0
11055195	3512	0	0	-100	0	230	101300000	1000	0	0	-1	0
11067755	3510	0	0	-100	0	230	101300000	1000	0	0	-1	0
11080315	3510	0	0	-100	0	230	101300000	1000	0	0	-1	0
11092875	3505	1	0	-100	0	230	101300000	1000	0	0	-1	0
11105435	3515	0	0	-100	0	230	101300000	1000	0	0	-1	0
11117995	3511	3	0	-100	0	230	101300000	1000	0	0	-1	0
11130555	3508	0	0	-100	0	230	101300000	1000	0	0	-1	0
11143115	3507	0	0	-100	0	230	101300000	1000	0	0	-1	0
11155675	3505	3	0	-100	0	230	101300000	1000	0	0	-1	0
11168235	3509	0	0	-100	0	230	101300000	1000	0	0	-1	0
11180795	3513	0	0	-100	0	230	101300000	1000	0	0	-1	0
11193355	3512	0	0	-100	0	230	101300000	1000	0	0	-1	0
11205915	3511	0	0	-100	0	230	101300000	1000	0	0	-1	0
11218475	3514	0	0	-100	0	230	101300000	1000	0	0	-1	0
11231035	3510	0	0	-100	0	230	101300000	1000	0	0	-1	0
11243595	3509	0	0	-100	0	230	101300000	1000	0	0	-1	0
11256155	3504	2	0	-100	0	230	101300000	1000	0	0	-1	0
11268715	3504	4	0	-100	0	230	101300000	1000	0	0	-1	0
11281275	3508	0	0	-100	0	230	101300000	1000	0	0	-1	0
11293835	3509	0	0	-100	0	230	101300000	1000	0	0	-1	0
11306395	3516	0	0	-100	0	230	101300000	1000	0	0	-1	0
11318955	3507	0	0	-100	0	230	101300000	1000	0	0	-1	0
11331515	3504	2	0	-100	0	230	101300000	1000	0	0	-1	0
11344075	3509	0	0	-100	0	230	101300000	1000	0	0	-1	0
11356635	3512	0	0	-100	0	230	101300000	1000	0	0	-1	0
11369195	3508	0	0	-100	0	230	101300000	1000	0	0	-1	0
11381755	3507	2	0	-100	0	230	101300000	1000	0	0	-1	0
11394315	3513	0	0	-100	0	230	101300000	1000	0	0	-1	0
11406875	3510	0	0	-100	0	230	101300000	1000	0	0	-1	0
11419435	3509	1	0	-100	0	230	101300000	1000	0	0	-1	0
11431995	3510	4	0	-100	0	230	101300000	1000	0	0	-1	0
11444555	3505	0	0	-100	0	230	101300000	1000	0	0	-1	0
11457115	3506	0	0	-100	0	230	101300000	1000	0	0	-1	0
11469675	3513	0	0	-100	0	230	101300000	1000	0	0	-1	0
11482235	3504	0	0	-100	0	230	101300000	1000	0	0	-1	0
11494795	3506	1	0	-100	0	230	101300000	1000	0	0	-1	0
11507355	3516	0	0	-100	0	230	101300000	1000	0	0	-1	0
11519915	3508	0	0	-100	0	230	101300000	1000	0	0	-1	0
11532475	3506	3	0	-100	0	230	101300000	1000	0	0	-1	0
11545035	3516	0	0	-100	0	230	101300000	1000	0	0	-1	0
11557595	3507	0	0	-100	0	230	101300000	1000	0	0	-1	0
11570155	3501	4	0	-100	0	230	101300000	1000	0	0	-1	0
11582715	3513	0	0	-100	0	230	101300000	1000	0	0	-1	0
11595275	3506	0	0	-100	0	230	101300000	1000	0	0	-1	0
11607835	3509	0	0	-100	0	230	101300000	1000	0	0	-1	0
11620395	3511	0	0	-100	0	230	101300000	1000	0	0	-1	0
11632955	3505	3	0	-100	0	230	101300000	1000	0	0	-1	0
11645515	3516	0	0	-100	0	230	101300000	1000	0	0	-1	0
11658075	3510	0	0	-100	0	230	101300000	1000	0	0	-1	0
11670635	3506	3	0	-100	0	230	101300000	1000	0	0	-1	0
11683195	3513	0	0	-100	0	230	101300000	1000	0	0	-1	0
11695755	3510	0	0	-100	0	230	101300000	1000	0	0	-1	0
11708315	3504	4	0	-100	0	230	101300000	1000	0	0	-1	0
11720875	3511	0	0	-100	0	230	101300000	1000	0	0	-1	0
11733435	3507	0	0	-100	0	230	101300000	1000	0	0	-1	0
11745995	3509	0	0	-100	0	230	101300000	1000	0	0	-1	0
11758555	3508	0	0	-100	0	230	101300000	1000	0	0	-1	0
11771115	3512	0	0	-100	0	230	101300000	1000	0	0	-1	0
11783675	3509	0	0	-100	0	230	101300000	1000	0	0	-1	0
11796235	3504	3	0	-100	0	230	101300000	1000	0	0	-1	0
11808795	3514	0	0	-100	0	230	101300000	1000	0	0	-1	0
11821355	3514	0	0	-100	0	230	101300000	1000	0	0	-1	0
11833915	3504	0	0	-100	0	230	101300000	1000	0	0	-1	0
11846475	3504	2	0	-100	0	230	101300000	1000	0	0	-1	0
11859035	3509	0	0	-100	0	230	101300000	1000	0	0	-1	0
11871595	3515	0	0	-100	0	230	101300000	1000	0	0	-1	0
11884155	3504	0	0	-100	0	230	101300000	1000	0	0	-1	0
11896715	3506	0	0	-100	0	230	101300000	1000	0	0	-1	0
11909275	3512	0	0	-100	0	230	101300000	1000	0	0	-1	0
11921835	3513	0	0	-100	0	230	101300000	1000	0	0	-1	0
11934395	3505	0	0	-100	0	230	101300000	1000	0	0	-1	0
11946955	3507	2	0	-100	0	230	101300000	1000	0	0	-1	0
11959515	3513	0	0	-100	0	230	101300000	1000	0	0	-1	0
11972075	3504	0	0	-100	0	230	101300000	1000	0	0	-1	0
11984635	3507	0	0	-100	0	230	101300000	1000	0	0	-1	0
11997195	3512	0	0	-100	0	230	101300000	1000	0	0	-1	0
12009755	3509	1	0	-100	0	230	101300000	1000	0	0	-1	0
12022315	3511	0	0	-100	0	230	101300000	1000	0	0	-1	0
12034875	3513	0	0	-100	0	230	101300000	1000	0	0	-1	0
12047435	3508	0	0	-100	0	230	101300000	1000	0	0	-1	0
12059995	3515	5	0	-100	0	230	101300000	1000	0	0	-1	0
12072555	3504	0	0	-100	0	230	101300000	1000	0	0	-1	0
12085115	3510	0	0	-100	0	230	101300000	1000	0	0	-1	0
12097675	3510	0	0	-100	0	230	101300000	1000	0	0	-1	0
12110235	3506	1	0	-100	0	230	101300000	1000	0	0	-1	0
12122795	3513	0	0	-100	0	230	101300000	1000	0	0	-1	0
12135355	3505	3	0	-100	0	230	101300000	1000	0	0	-1	0
12147915	3514	0	0	-100	0	230	101300000	1000	0	0	-1	0
12160475	3507	0	0	-100	0	230	101300000	1000	0	0	-1	0
12173035	3506	1	0	-100	0	230	101300000	1000	0	0	-1	0
12185595	3514	0	0	-100	0	230	101300000	1000	0	0	-1	0
12198155	3504	0	0	-100	0	230	101300000	1000	0	0	-1	0
12210715	3506	0	0	-100	0	230	101300000	1000	0	0	-1	0
12223275	3513	0	0	-100	0	230	101300000	1000	0	0	-1	0
12235835	3507	4	0	-100	0	230	101300000	1000	0	0	-1	0
12248395	3511	0	0	-100	0	230	101300000	1000	0	0	-1	0
12260955	3512	0	0	-100	0	230	101300000	1000	0	0	-1	0
12273515	3509	0	0	-100	0	230	101300000	1000	0	0	-1	0
12286075	3508	0	0	-100	0	230	101300000	1000	0	0	-1	0
12298635	3514	0	0	-100	0	230	101300000	1000	0	0	-1	0
12311195	3508	0	0	-100	0	230	101300000	1000	0	0	-1	0
12323755	3507	3	0	-100	0	230	101300000	1000	0	0	-1	0
12336315	3508	0	0	-100	0	230	101300000	1000	0	0	-1	0
12348875	3514	0	0	-100	0	230	101300000	1000	0	0	-1	0
12361435	3509	0	0	-100	0	230	101300000	1000	0	0	-1	0
12373995	3502	0	0	-100	0	230	101300000	1000	0	0	-1	0
12386555	3509	0	0	-100	0	230	101300000	1000	0	0	-1	0
12399115	3509	0	0	-100	0	230	101300000	1000	0	0	-1	0
12411675	3506	0	0	-100	0	230	101300000	1000	0	0	-1	0
12424235	3508	1	0	-100	0	230	101300000	1000	0	0	-1	0
12436795	3507	0	0	-100	0	230	101300000	1000	0	0	-1	0
12449355	3510	0	0	-100	0	230	101300000	1000	0	0	-1	0
12461915	3508	0	0	-100	0	230	101300000	1000	0	0	-1	0
12474475	3506	0	0	-100	0	230	101300000	1000	0	0	-1	0
12487035	3511	0	0	-100	0	230	101300000	1000	0	0	-1	0
12499595	3515	0	0	-100	0	230	101300000	1000	0	0	-1	0
12512155	3497	0	0	-100	0	230	101300000	1000	0	0	-1	0
12524715	3509	2	0	-100	0	230	101300000	1000	0	0	-1	0
12537275	3506	0	0	-100	0	230	101300000	1000	0	0	-1	0
12549835	3513	0	0	-100	0	230	101300000	1000	0	0	-1	0
12562395	3510	0	0	-100	0	230	101300000	1000	0	0	-1	0
12574955	3503	1	0	-100	0	230	101300000	1000	0	0	-1	0
12587515	3514	0	0	-100	0	230	101300000	1000	0	0	-1	0
12600075	3509	0	0	-100	0	230	101300000	1000	0	0	-1	0
12612635	3506	2	0	-100	0	230	101300000	1000	0	0	-1	0
12625195	3509	0	0	-100	0	230	101300000	1000	0	0	-1	0
12637755	3514	0	0	-100	0	230	101300000	1000	0	0	-1	0
12650315	3505	0	0	-100	0	230	101300000	1000	0	0	-1	0
12662875	3508	3	0	-100	0	230	101300000	1000	0	0	-1	0
12675435	3515	0	0	-100	0	230	101300000	1000	0	0	-1	0
12687995	3506	0	0	-100	0	230	101300000	1000	0	0	-1	0
12700555	3509	1	0	-100	0	230	101300000	1000	0	0	-1	0
12713115	3512	0	0	-100	0	230	101300000	1000	0	0	-1	0
12725675	3512	0	0	-100	0	230	101300000	1000	0	0	-1	0
12738235	3504	0	0	-100	0	230	101300000	1000	0	0	-1	0
12750795	3505	0	0	-100	0	230	101300000	1000	0	0	-1	0
12763355	3504	0	0	-100	0	230	101300000	1000	0	0	-1	0
12775915	3510	0	0	-100	0	230	101300000	1000	0	0	-1	0
12788475	3510	0	0	-100	0	230	101300000	1000	0	0	-1	0
12801035	3506	2	0	-100	0	230	101300000	1000	0	0	-1	0
12813595	3512	0	0	-100	0	230	101300000	1000	0	0	-1	0
12826155	3507	0	0	-100	0	230	101300000	1000	0	0	-1	0
12838715	3508	0	0	-100	0	230	101300000	1000	0	0	-1	0
12851275	3506	0	0	-100	0	230	101300000	1000	0	0	-1	0
12863835	3513	0	0	-100	0	230	101300000	1000	0	0	-1	0
12876395	3507	0	0	-100	0	230	101300000	1000	0	0	-1	0
12888955	3505	3	0	-100	0	230	101300000	1000	0	0	-1	0
12901515	3510	0	0	-100	0	230	101300000	1000	0	0	-1	0
12914075	3511	0	0	-100	0	230	101300000	1000	0	0	-1	0
12926635	3505	0	0	-100	0	230	101300000	1000	0	0	-1	0
12939195	3509	3	0	-100	0	230	101300000	1000	0	0	-1	0
12951755	3509	0	0	-100	0	230	101300000	1000	0	0	-1	0
12964315	3513	0	0	-100	0	230	101300000	1000	0	0	-1	0
12976875	3505	0	0	-100	0	230	101300000	1000	0	0	-1	0
12989435	3505	2	0	-100	0	230	101300000	1000	0	0	-1	0
13001995	3515	4	0	-100	0	230	101300000	1000	0	0	-1	0
13014555	3506	0	0	-100	0	230	101300000	1000	0	0	-1	0
13027115	3507	3	0	-100	0	230	101300000	1000	0	0	-1	0
13039675	3514	0	0	-100	0	230	101300000	1000	0	0	-1	0
13052235	3510	0	0	-100	0	230	101300000	1000	0	0	-1	0
13064795	3506	0	0	-100	0	230	101300000	1000	0	0	-1	0
13077355	3506	2	0	-100	0	230	101300000	1000	0	0	-1	0
13089915	3514	0	0	-100	0	230	101300000	1000	0	0	-1	0
13102475	3512	0	0	-100	0	230	101300000	1000	0	0	-1	0
13115035	3502	0	0	-100	0	230	101300000	1000	0	0	-1	0
13127595	3506	1	0	-100	0	230	101300000	1000	0	0	-1	0
13140155	3507	0	0	-100	0	230	101300000	1000	0	0	-1	0
13152715	3510	0	0	-100	0	230	101300000	1000	0	0	-1	0
13165275	3505	0	0	-100	0	230	101300000	1000	0	0	-1	0
13177835	3508	3	0	-100	0	230	101300000	1000	0	0	-1	0
13190395	3508	0	0	-100	0	230	101300000	1000	0	0	-1	0
13202955	3514	0	0	-100	0	230	101300000	1000	0	0	-1	0
13215515	3505	0	0	-100	0	230	101300000	1000	0	0	-1	0
13228075	3505	3	0	-100	0	230	101300000	1000	0	0	-1	0
13240635	3510	0	0	-100	0	230	101300000	1000	0	0	-1	0
13253195	3513	0	0	-100	0	230	101300000	1000	0	0	-1	0
13265755	3512	0	0	-100	0	230	101300000	1000	0	0	-1	0
13278315	3505	3	0	-100	0	230	101300000	1000	0	0	-1	0
13290875	3512	0	0	-100	0	230	101300000	1000	0	0	-1	0
13303435	3509	0	0	-100	0	230	101300000	1000	0	0	-1	0
13315995	3504	0	0	-100	0	230	101300000	1000	0	0	-1	0
13328555	3508	0	0	-100	0	230	101300000	1000	0	0	-1	0
13341115	3508	4	0	-100	0	230	101300000	1000	0	0	-1	0
13353675	3514	0	0	-100	0	230	101300000	1000	0	0	-1	0
13366235	3507	0	0	-100	0	230	101300000	1000	0	0	-1	0
13378795	3501	1	0	-100	0	230	101300000	1000	0	0	-1	0
13391355	3508	0	0	-100	0	230	101300000	1000	0	0	-1	0
13403915	3508	0	0	-100	0	230	101300000	1000	0	0	-1	0
13416475	3510	0	0	-100	0	230	101300000	1000	0	0	-1	0
13429035	3509	0	0	-100	0	230	101300000	1000	0	0	-1	0
13441595	3510	0	0	-100	0	230	101300000	1000	0	0	-1	0
13454155	3505	0	0	-100	0	230	101300000	1000	0	0	-1	0
13466715	3511	0	0	-100	0	230	101300000	1000	0	0	-1	0
13479275	3512	0	0	-100	0	230	101300000	1000	0	0	-1	0
13491835	3509	1	0	-100	0	230	101300000	1000	0	0	-1	0
13504395	3509	0	0	-100	0	230	101300000	1000	0	0	-1	0
13516955	3513	0	0	-100	0	230	101300000	1000	0	0	-1	0
13529515	3507	0	0	-100	0	230	101300000	1000	0	0	-1	0
13542075	3509	4	0	-100	0	230	101300000	1000	0	0	-1	0
13554635	3502	0	0	-100	0	230	101300000	1000	0	0	-1	0
13567195	3512	0	0	-100	0	230	101300000	1000	0	0	-1	0
13579755	3508	0	0	-100	0	230	101300000	1000	0	0	-1	0
13592315	3505	2	0	-100	0	230	101300000	1000	0	0	-1	0
13604875	3515	0	0	-100	0	230	101300000	1000	0	0	-1	0
13617435	3507	0	0	-100	0	230	101300000	1000	0	0	-1	0
13629995	3502	0	0	-100	0	230	101300000	1000	0	0	-1	0
13642555	3512	0	0	-100	0	230	101300000	1000	0	0	-1	0
13655115	3509	0	0	-100	0	230	101300000	1000	0	0	-1	0
13667675	3505	2	0	-100	0	230	101300000	1000	0	0	-1	0
13680235	3516	0	0	-100	0	230	101300000	1000	0	0	-1	0
13692795	3508	0	0	-100	0	230	101300000	1000	0	0	-1	0
13705355	3510	2	0	-100	0	230	101300000	1000	0	0	-1	0
13717915	3506	0	0	-100	0	230	101300000	1000	0	0	-1	0
13730475	3512	0	0	-100	0	230	101300000	1000	0	0	-1	0
13743035	3508	0	0	-100	0	230	101300000	1000	0	0	-1	0
13755595	3506	1	0	-100	0	230	101300000	1000	0	0	-1	0
13768155	3503	2	0	-100	0	230	101300000	1000	0	0	-1	0
13780715	3514	0	0	-100	0	230	101300000	1000	0	0	-1	0
13793275	3506	0	0	-100	0	230	101300000	1000	0	0	-1	0
13805835	3510	2	0	-100	0	230	101300000	1000	0	0	-1	0
13818395	3510	0	0	-100	0	230	101300000	1000	0	0	-1	0
13830955	3512	0	0	-100	0	230	101300000	1000	0	0	-1	0
13843515	3509	0	0	-100	0	230	101300000	1000	0	0	-1	0
13856075	3505	3	0	-100	0	230	101300000	1000	0	0	-1	0
13868635	3505	0	0	-100	0	230	101300000	1000	0	0	-1	0
13881195	3515	0	0	-100	0	230	101300000	1000	0	0	-1	0
13893755	3508	0	0	-100	0	230	101300000	1000	0	0	-1	0
13906315	3506	0	0	-100	0	230	101300000	1000	0	0	-1	0
13918875	3506	4	0	-100	0	230	101300000	1000	0	0	-1	0
13931435	3506	0	0	-100	0	230	101300000	1000	0	0	-1	0
13943995	3513	3	0	-100	0	230	101300000	1000	0	0	-1	0
13956555	3509	0	0	-100	0	230	101300000	1000	0	0	-1	0
13969115	3504	0	0	-100	0	230	101300000	1000	0	0	-1	0
13981675	3505	1	0	-100	0	230	101300000	1000	0	0	-1	0
13994235	3510	0	0	-100	0	230	101300000	1000	0	0	-1	0
14006795	3514	0	0	-100	0	230	101300000	1000	0	0	-1	0
14019355	3509	0	0	-100	0	230	101300000	1000	0	0	-1	0
14031915	3507	0	0	-100	0	230	101300000	1000	0	0	-1	0
14044475	3509	2	0	-100	0	230	101300000	1000	0	0	-1	0
14057035	3508	0	0	-100	0	230	101300000	1000	0	0	-1	0
14069595	3511	0	0	-100	0	230	101300000	1000	0	0	-1	0
14082155	3504	0	0	-100	0	230	101300000	1000	0	0	-1	0
14094715	3506	2	0	-100	0	230	101300000	1000	0	0	-1	0
14107275	3508	0	0	-100	0	230	101300000	1000	0	0	-1	0
14119835	3515	0	0	-100	0	230	101300000	1000	0	0	-1	0
14132395	3502	0	0	-100	0	230	101300000	1000	0	0	-1	0
14144955	3505	0	0	-100	0	230	101300000	1000	0	0	-1	0
14157515	3510	0	0	-100	0	230	101300000	1000	0	0	-1	0
14170075	3501	0	0	-100	0	230	101300000	1000	0	0	-1	0
14182635	3506	0	0	-100	0	230	101300000	1000	0	0	-1	0
14195195	3511	0	0	-100	0	230	101300000	1000	0	0	-1	0
14207755	3505	0	0	-100	0	230	101300000	1000	0	0	-1	0
14220315	3504	3	0	-100	0	230	101300000	1000	0	0	-1	0
14232875	3510	0	0	-100	0	230	101300000	1000	0	0	-1	0
14245435	3513	0	0	-100	0	230	101300000	1000	0	0	-1	0
14257995	3504	0	0	-100	0	230	101300000	1000	0	0	-1	0
14270555	3507	0	0	-100	0	230	101300000	1000	0	0	-1	0
14283115	3513	0	0	-100	0	230	101300000	1000	0	0	-1	0
14295675	3507	0	0	-100	0	230	101300000	1000	0	0	-1	0
14308235	3504	3	0	-100	0	230	101300000	1000	0	0	-1	0
14320795	3509	0	0	-100	0	230	101300000	1000	0	0	-1	0
14333355	3511	0	0	-100	0	230	101300000	1000	0	0	-1	0
14345915	3506	0	0	-100	0	230	101300000	1000	0	0	-1	0
14358475	3504	0	0	-100	0	230	101300000	1000	0	0	-1	0
14371035	3512	0	0	-100	0	230	101300000	1000	0	0	-1	0
14383595	3508	0	0	-100	0	230	101300000	1000	0	0	-1	0
14396155	3502	3	0	-100	0	230	101300000	1000	0	0	-1	0
14408715	3514	0	0	-100	0	230	101300000	1000	0	0	-1	0
14421275	3513	0	0	-100	0	230	101300000	1000	0	0	-1	0
14433835	3506	0	0	-100	0	230	101300000	1000	0	0	-1	0
14446395	3509	0	0	-100	0	230	101300000	1000	0	0	-1	0
14458955	3512	0	0	-100	0	230	101300000	1000	0	0	-1	0
14471515	3508	0	0	-100	0	230	101300000	1000	0	0	-1	0
14484075	3505	3	0	-100	0	230	101300000	1000	0	0	-1	0
14496635	3508	0	0	-100	0	230	101300000	1000	0	0	-1	0
14509195	3512	0	0	-100	0	230	101300000	1000	0	0	-1	0
14521755	3503	0	0	-100	0	230	101300000	1000	0	0	-1	0
14534315	3509	0	0	-100	0	230	101300000	1000	0	0	-1	0
14546875	3515	0	0	-100	0	230	101300000	1000	0	0	-1	0
14559435	3513	0	0	-100	0	230	101300000	1000	0	0	-1	0
14571995	3504	0	0	-100	0	230	101300000	1000	0	0	-1	0
14584555	3507	1	0	-100	0	230	101300000	1000	0	0	-1	0
14597115	3513	0	0	-100	0	230	101300000	1000	0	0	-1	0
14609675	3504	0	0	-100	0	230	101300000	1000	0	0	-1	0
14622235	3505	1	0	-100	0	230	101300000	1000	0	0	-1	0
14634795	3515	0	0	-100	0	230	101300000	1000	0	0	-1	0
14647355	3509	0	0	-100	0	230	101300000	1000	0	0	-1	0
14659915	3505	0	0	-100	0	230	101300000	1000	0	0	-1	0
14672475	3505	0	0	-100	0	230	101300000	1000	0	0	-1	0
14685035	3509	3	0	-100	0	230	101300000	1000	0	0	-1	0
14697595	3508	0	0	-100	0	230	101300000	1000	0	0	-1	0
14710155	3505	0	0	-100	0	230	101300000	1000	0	0	-1	0
14722715	3506	0	0	-100	0	230	101300000	1000	0	0	-1	0
14735275	3506	2	0	-100	0	230	101300000	1000	0	0	-1	0
14747835	3511	0	0	-100	0	230	101300000	1000	0	0	-1	0
14760395	3509	0	0	-100	0	230	101300000	1000	0	0	-1	0
14772955	3507	0	0	-100	0	230	101300000	1000	0	0	-1	0
14785515	3510	2	0	-100	0	230	101300000	1000	0	0	-1	0
14798075	3514	0	0	-100	0	230	101300000	1000	0	0	-1	0
14810635	3508	0	0	-100	0	230	101300000	1000	0	0	-1	0
14823195	3508	0	0	-100	0	230	101300000	1000	0	0	-1	0
14835755	3503	1	0	-100	0	230	101300000	1000	0	0	-1	0
14848315	3504	0	0	-100	0	230	101300000	1000	0	0	-1	0
14860875	3515	0	0	-100	0	230	101300000	1000	0	0	-1	0
14873435	3510	0	0	-100	0	230	101300000	1000	0	0	-1	0
14885995	3510	0	0	-100	0	230	101300000	1000	0	0	-1	0
14898555	3507	0	0	-100	0	230	101300000	1000	0	0	-1	0
14911115	3508	0	0	-100	0	230	101300000	1000	0	0	-1	0
14923675	3509	1	0	-100	0	230	101300000	1000	0	0	-1	0
14936235	3506	0	0	-100	0	230	101300000	1000	0	0	-1	0
14948795	3513	0	0	-100	0	230	101300000	1000	0	0	-1	0
14961355	3510	0	0	-100	0	230	101300000	1000	0	0	-1	0
14973915	3510	0	0	-100	0	230	101300000	1000	0	0	-1	0
14986475	3506	0	0	-100	0	230	101300000	1000	0	0	-1	0
14999035	3513	0	0	-100	0	230	101300000	1000	0	0	-1	0
15011595	3504	0	0	-100	0	230	101300000	1000	0	0	-1	0
15024155	3502	4	0	-100	0	230	101300000	1000	0	0	-1	0
15036715	3507	0	0	-100	0	230	101300000	1000	0	0	-1	0
15049275	3514	0	0	-100	0	230	101300000	1000	0	0	-1	0
15061835	3508	0	0	-100	0	230	101300000	1000	0	0	-1	0
15074395	3505	2	0	-100	0	230	101300000	1000	0	0	-1	0
15086955	3508	0	0	-100	0	230	101300000	1000	0	0	-1	0
15099515	3512	0	0	-100	0	230	101300000	1000	0	0	-1	0
15112075	3510	0	0	-100	0	230	101300000	1000	0	0	-1	0
15124635	3506	0	0	-100	0	230	101300000	1000	0	0	-1	0
15137195	3508	3	0	-100	0	230	101300000	1000	0	0	-1	0
15149755	3504	0	0	-100	0	230	101300000	1000	0	0	-1	0
15162315	3514	0	0	-100	0	230	101300000	1000	0	0	-1	0
15174875	3503	0	0	-100	0	230	101300000	1000	0	0	-1	0
15187435	3506	0	0	-100	0	230	101300000	1000	0	0	-1	0
15199995	3512	1	0	-100	0	230	101300000	1000	0	0	-1	0
15212555	3505	2	0	-100	0	230	101300000	1000	0	0	-1	0
15225115	3513	0	0	-100	0	230	101300000	1000	0	0	-1	0
15237675	3510	0	0	-100	0	230	101300000	1000	0	0	-1	0
15250235	3506	2	0	-100	0	230	101300000	1000	0	0	-1	0
15262795	3515	0	0	-100	0	230	101300000	1000	0	0	-1	0
15275355	3505	0	0	-100	0	230	101300000	1000	0	0	-1	0
15287915	3507	0	0	-100	0	230	101300000	1000	0	0	-1	0
15300475	3512	0	0	-100	0	230	101300000	1000	0	0	-1	0
15313035	3504	1	0	-100	0	230	101300000	1000	0	0	-1	0
15325595	3512	0	0	-100	0	230	101300000	1000	0	0	-1	0
15338155	3504	0	0	-100	0	230	101300000	1000	0	0	-1	0
15350715	3505	3	0	-100	0	230	101300000	1000	0	0	-1	0
15363275	3505	0	0	-100	0	230	101300000	1000	0	0	-1	0
15375835	3511	0	0	-100	0	230	101300000	1000	0	0	-1	0
15388395	3506	0	0	-100	0	230	101300000	1000	0	0	-1	0
15400955	3508	0	0	-100	0	230	101300000	1000	0	0	-1	0
15413515	3512	0	0	-100	0	230	101300000	1000	0	0	-1	0
15426075	3503	0	0	-100	0	230	101300000	1000	0	0	-1	0
15438635	3505	0	0	-100	0	230	101300000	1000	0	0	-1	0
15451195	3513	0	0	-100	0	230	101300000	1000	0	0	-1	0
15463755	3507	0	0	-100	0	230	101300000	1000	0	0	-1	0
15476315	3504	1	0	-100	0	230	101300000	1000	0	0	-1	0
15488875	3511	0	0	-100	0	230	101300000	1000	0	0	-1	0
15501435	3507	0	0	-100	0	230	101300000	1000	0	0	-1	0
15513995	3506	0	0	-100	0	230	101300000	1000	0	0	-1	0
15526555	3510	0	0	-100	0	230	101300000	1000	0	0	-1	0
15539115	3511	0	0	-100	0	230	101300000	1000	0	0	-1	0
15551675	3506	0	0	-100	0	230	101300000	1000	0	0	-1	0
15564235	3501	0	0	-100	0	230	101300000	1000	0	0	-1	0
15576795	3515	0	0	-100	0	230	101300000	1000	0	0	-1	0
15589355	3508	0	0	-100	0	230	101300000	1000	0	0	-1	0
15601915	3510	1	0	-100	0	230	101300000	1000	0	0	-1	0
15614475	3506	0	0	-100	0	230	101300000	1000	0	0	-1	0
15627035	3513	0	0	-100	0	230	101300000	1000	0	0	-1	0
15639595	3508	0	0	-100	0	230	101300000	1000	0	0	-1	0
15652155	3499	3	0	-100	0	230	101300000	1000	0	0	-1	0
15664715	3511	0	0	-100	0	230	101300000	1000	0	0	-1	0
15677275	3512	0	0	-100	0	230	101300000	1000	0	0	-1	0
15689835	3508	0	0	-100	0	230	101300000	1000	0	0	-1	0
15702395	3508	0	0	-100	0	230	101300000	1000	0	0	-1	0
15714955	3511	0	0	-100	0	230	101300000	1000	0	0	-1	0
15727515	3508	0	0	-100	0	230	101300000	1000	0	0	-1	0
15740075	3511	0	0	-100	0	230	101300000	1000	0	0	-1	0
15752635	3508	0	0	-100	0	230	101300000	1000	0	0	-1	0
15765195	3508	4	0	-100	0	230	101300000	1000	0	0	-1	0
15777755	3509	0	0	-100	0	230	101300000	1000	0	0	-1	0
15790315	3514	0	0	-100	0	230	101300000	1000	0	0	-1	0
15802875	3506	0	0	-100	0	230	101300000	1000	0	0	-1	0
15815435	3505	3	0	-100	0	230	101300000	1000	0	0	-1	0
15827995	3510	0	0	-100	0	230	101300000	1000	0	0	-1	0
15840555	3511	0	0	-100	0	230	101300000	1000	0	0	-1	0
15853115	3504	0	0	-100	0	230	101300000	1000	0	0	-1	0
15865675	3506	1	0	-100	0	230	101300000	1000	0	0	-1	0
15878235	3515	0	0	-100	0	230	101300000	1000	0	0	-1	0
15890795	3510	0	0	-100	0	230	101300000	1000	0	0	-1	0
15903355	3510	3	0	-100	0	230	101300000	1000	0	0	-1	0
15915915	3509	0	0	-100	0	230	101300000	1000	0	0	-1	0
15928475	3508	0	0	-100	0	230	101300000	1000	0	0	-1	0
15941035	3505	2	0	-100	0	230	101300000	1000	0	0	-1	0
15953595	3513	0	0	-100	0	230	101300000	1000	0	0	-1	0
15966155	3505	0	0	-100	0	230	101300000	1000	0	0	-1	0
15978715	3513	3	0	-100	0	230	101300000	1000	0	0	-1	0
15991275	3513	0	0	-100	0	230	101300000	1000	0	0	-1	0
16003835	3510	0	0	-100	0	230	101300000	1000	0	0	-1	0
16016395	3506	1	0	-100	0	230	101300000	1000	0	0	-1	0
16028955	3513	0	0	-100	0	230	101300000	1000	0	0	-1	0
16041515	3511	3	0	-100	0	230	101300000	1000	0	0	-1	0
16054075	3514	0	0	-100	0	230	101300000	1000	0	0	-1	0
16066635	3508	0	0	-100	0	230	101300000	1000	0	0	-1	0
16079195	3508	3	0	-100	0	230	101300000	1000	0	0	-1	0
16091755	3512	0	0	-100	0	230	101300000	1000	0	0	-1	0
16104315	3510	0	0	-100	0	230	101300000	1000	0	0	-1	0
16116875	3507	4	0	-100	0	230	101300000	1000	0	0	-1	0
16129435	3509	0	0	-100	0	230	101300000	1000	0	0	-1	0
16141995	3514	3	0	-100	0	230	101300000	1000	0	0	-1	0
16154555	3509	0	0	-100	0	230	101300000	1000	0	0	-1	0
16167115	3508	0	0	-100	0	230	101300000	1000	0	0	-1	0
16179675	3510	0	0	-100	0	230	101300000	1000	0	0	-1	0
16192235	3505	0	0	-100	0	230	101300000	1000	0	0	-1	0
16204795	3508	0	0	-100	0	230	101300000	1000	0	0	-1	0
16217355	3511	0	0	-100	0	230	101300000	1000	0	0	-1	0
16229915	3507	0	0	-100	0	230	101300000	1000	0	0	-1	0
16242475	3507	3	0	-100	0	230	101300000	1000	0	0	-1	0
16255035	3509	0	0	-100	0	230	101300000	1000	0	0	-1	0
16267595	3513	0	0	-100	0	230	101300000	1000	0	0	-1	0
16280155	3501	0	0	-100	0	230	101300000	1000	0	0	-1	0
16292715	3503	1	0	-100	0	230	101300000	1000	0	0	-1	0
16305275	3516	0	0	-100	0	230	101300000	1000	0	0	-1	0
16317835	3508	0	0	-100	0	230	101300000	1000	0	0	-1	0
16330395	3504	0	0	-100	0	230	101300000	1000	0	0	-1	0
16342955	3506	2	0	-100	0	230	101300000	1000	0	0	-1	0
16355515	3514	0	0	-100	0	230	101300000	1000	0	0	-1	0
16368075	3510	0	0	-100	0	230	101300000	1000	0	0	-1	0
16380635	3504	0	0	-100	0	230	101300000	1000	0	0	-1	0
16393195	3504	1	0	-100	0	230	101300000	1000	0	0	-1	0
16405755	3515	0	0	-100	0	230	101300000	1000	0	0	-1	0
16418315	3510	0	0	-100	0	230	101300000	1000	0	0	-1	0
16430875	3507	0	0	-100	0	230	101300000	1000	0	0	-1	0
16443435	3511	0	0	-100	0	230	101300000	1000	0	0	-1	0
16455995	3512	4	0	-100	0	230	101300000	1000	0	0	-1	0
16468555	3504	0	0	-100	0	230	101300000	1000	0	0	-1	0
16481115	3507	0	0	-100	0	230	101300000	1000	0	0	-1	0
16493675	3504	0	0	-100	0	230	101300000	1000	0	0	-1	0
16506235	3518	0	0	-100	0	230	101300000	1000	0	0	-1	0
16518795	3508	0	0	-100	0	230	101300000	1000	0	0	-1	0
16531355	3503	2	0	-100	0	230	101300000	1000	0	0	-1	0
16543915	3507	0	0	-100	0	230	101300000	1000	0	0	-1	0
16556475	3510	0	0	-100	0	230	101300000	1000	0	0	-1	0
16569035	3504	0	0	-100	0	230	101300000	1000	0	0	-1	0
16581595	3509	2	0	-100	0	230	101300000	1000	0	0	-1	0
16594155	3503	0	0	-100	0	230	101300000	1000	0	0	-1	0
16606715	3504	0	0	-100	0	230	101300000	1000	0	0	-1	0
16619275	3507	0	0	-100	0	230	101300000	1000	0	0	-1	0
16631835	3513	0	0	-100	0	230	101300000	1000	0	0	-1	0
16644395	3507	0	0	-100	0	230	101300000	1000	0	0	-1	0
16656955	3502	0	0	-100	0	230	101300000	1000	0	0	-1	0
16669515	3512	0	0	-100	0	230	101300000	1000	0	0	-1	0
16682075	3504	0	0	-100	0	230	101300000	1000	0	0	-1	0
16694635	3505	0	0	-100	0	230	101300000	1000	0	0	-1	0
16707195	3515	0	0	-100	0	230	101300000	1000	0	0	-1	0
16719755	3508	0	0	-100	0	230	101300000	1000	0	0	-1	0
16732315	3512	0	0	-100	0	230	101300000	1000	0	0	-1	0
16744875	3508	0	0	-100	0	230	101300000	1000	0	0	-1	0
16757435	3507	0	0	-100	0	230	101300000	1000	0	0	-1	0
16769995	3513	1	0	-100	0	230	101300000	1000	0	0	-1	0
16782555	3508	0	0	-100	0	230	101300000	1000	0	0	-1	0
16795115	3508	0	0	-100	0	230	101300000	1000	0	0	-1	0
16807675	3509	0	0	-100	0	230	101300000	1000	0	0	-1	0
16820235	3509	2	0	-100	0	230	101300000	1000	0	0	-1	0
16832795	3515	0	0	-100	0	230	101300000	1000	0	0	-1	0
16845355	3508	0	0	-100	0	230	101300000	1000	0	0	-1	0
16857915	3505	1	0	-100	0	230	101300000	1000	0	0	-1	0
16870475	3513	0	0	-100	0	230	101300000	1000	0	0	-1	0
16883035	3511	0	0	-100	0	230	101300000	1000	0	0	-1	0
16895595	3508	0	0	-100	0	230	101300000	1000	0	0	-1	0
16908155	3506	0	0	-100	0	230	101300000	1000	0	0	-1	0
16920715	3511	2	0	-100	0	230	101300000	1000	0	0	-1	0
16933275	3506	0	0	-100	0	230	101300000	1000	0	0	-1	0
16945835	3512	0	0	-100	0	230	101300000	1000	0	0	-1	0
16958395	3513	0	0	-100	0	230	101300000	1000	0	0	-1	0
16970955	3506	0	0	-100	0	230	101300000	1000	0	0	-1	0
16983515	3512	0	0	-100	0	230	101300000	1000	0	0	-1	0
16996075	3505	0	0	-100	0	230	101300000	1000	0	0	-1	0
17008635	3507	0	0	-100	0	230	101300000	1000	0	0	-1	0
17021195	3510	0	0	-100	0	230	101300000	1000	0	0	-1	0
17033755	3504	3	0	-100	0	230	101300000	1000	0	0	-1	0
17046315	3509	0	0	-100	0	230	101300000	1000	0	0	-1	0
17058875	3509	0	0	-100	0	230	101300000	1000	0	0	-1	0
17071435	3504	4	0	-100	0	230	101300000	1000	0	0	-1	0
17083995	3509	0	0	-100	0	230	101300000	1000	0	0	-1	0
17096555	3512	0	0	-100	0	230	101300000	1000	0	0	-1	0
17109115	3503	0	0	-100	0	230	101300000	1000	0	0	-1	0
17121675	3510	1	0	-100	0	230	101300000	1000	0	0	-1	0
17134235	3511	0	0	-100	0	230	101300000	1000	0	0	-1	0
17146795	3511	0	0	-100	0	230	101300000	1000	0	0	-1	0
17159355	3505	1	0	-100	0	230	101300000	1000	0	0	-1	0
17171915	3512	0	0	-100	0	230	101300000	1000	0	0	-1	0
17184475	3507	0	0	-100	0	230	101300000	1000	0	0	-1	0
17197035	3506	0	0	-100	0	230	101300000	1000	0	0	-1	0
17209595	3510	0	0	-100	0	230	101300000	1000	0	0	-1	0
17222155	3504	0	0	-100	0	230	101300000	1000	0	0	-1	0
17234715	3504	0	0	-100	0	230	101300000	1000	0	0	-1	0
17247275	3505	0	0	-100	0	230	101300000	1000	0	0	-1	0
17259835	3508	0	0	-100	0	230	101300000	1000	0	0	-1	0
17272395	3512	0	0	-100	0	230	101300000	1000	0	0	-1	0
17284955	3512	0	0	-100	0	230	101300000	1000	0	0	-1	0
17297515	3504	0	0	-100	0	230	101300000	1000	0	0	-1	0
17310075	3509	2	0	-100	0	230	101300000	1000	0	0	-1	0
17322635	3509	2	0	-100	0	230	101300000	1000	0	0	-1	0
17335195	3506	0	0	-100	0	230	101300000	1000	0	0	-1	0
17347755	3514	0	0	-100	0	230	101300000	1000	0	0	-1	0
17360315	3512	0	0	-100	0	230	101300000	1000	0	0	-1	0
17372875	3505	0	0	-100	0	230	101300000	1000	0	0	-1	0
17385435	3508	3	0	-100	0	230	101300000	1000	0	0	-1	0
17397995	3505	0	0	-100	0	230	101300000	1000	0	0	-1	0
17410555	3507	0	0	-100	0	230	101300000	1000	0	0	-1	0
17423115	3516	0	0	-100	0	230	101300000	1000	0	0	-1	0
17435675	3513	0	0	-100	0	230	101300000	1000	0	0	-1	0
17448235	3510	0	0	-100	0	230	101300000	1000	0	0	-1	0
17460795	3510	0	0	-100	0	230	101300000	1000	0	0	-1	0
17473355	3501	0	0	-100	0	230	101300000	1000	0	0	-1	0
17485915	3506	2	0	-100	0	230	101300000	1000	0	0	-1	0
17498475	3506	0	0	-100	0	230	101300000	1000	0	0	-1	0
17511035	3513	0	0	-100	0	230	101300000	1000	0	0	-1	0
17523595	3506	0	0	-100	0	230	101300000	1000	0	0	-1	0
17536155	3500	1	0	-100	0	230	101300000	1000	0	0	-1	0
17548715	3514	0	0	-100	0	230	101300000	1000	0	0	-1	0
17561275	3509	0	0	-100	0	230	101300000	1000	0	0	-1	0
17573835	3507	3	0	-100	0	230	101300000	1000	0	0	-1	0
17586395	3507	0	0	-100	0	230	101300000	1000	0	0	-1	0
17598955	3514	0	0	-100	0	230	101300000	1000	0	0	-1	0
17611515	3510	0	0	-100	0	230	101300000	1000	0	0	-1	0
17624075	3509	0	0	-100	0	230	101300000	1000	0	0	-1	0
17636635	3505	0	0	-100	0	230	101300000	1000	0	0	-1	0
17649195	3508	0	0	-100	0	230	101300000	1000	0	0	-1	0
17661755	3507	0	0	-100	0	230	101300000	1000	0	0	-1	0
17674315	3512	0	0	-100	0	230	101300000	1000	0	0	-1	0
17686875	3509	0	0	-100	0	230	101300000	1000	0	0	-1	0
17699435	3509	0	0	-100	0	230	101300000	1000	0	0	-1	0
17711995	3511	0	0	-100	0	230	101300000	1000	0	0	-1	0
17724555	3511	2	0	-100	0	230	101300000	1000	0	0	-1	0
17737115	3513	0	0	-100	0	230	101300000	1000	0	0	-1	0
17749675	3510	0	0	-100	0	230	101300000	1000	0	0	-1	0
17762235	3506	0	0	-100	0	230	101300000	1000	0	0	-1	0
17774795	3505	0	0	-100	0	230	101300000	1000	0	0	-1	0
17787355	3512	0	0	-100	0	230	101300000	1000	0	0	-1	0
17799915	3508	0	0	-100	0	230	101300000	1000	0	0	-1	0
17812475	3509	1	0	-100	0	230	101300000	1000	0	0	-1	0
17825035	3513	0	0	-100	0	230	101300000	1000	0	0	-1	0
17837595	3506	0	0	-100	0	230	101300000	1000	0	0	-1	0
17850155	3502	4	0	-100	0	230	101300000	1000	0	0	-1	0
17862715	3515	0	0	-100	0	230	101300000	1000	0	0	-1	0
17875275	3506	0	0	-100	0	230	101300000	1000	0	0	-1	0
17887835	3505	2	0	-100	0	230	101300000	1000	0	0	-1	0
17900395	3517	0	0	-100	0	230	101300000	1000	0	0	-1	0
17912955	3506	0	0	-100	0	230	101300000	1000	0	0	-1	0
17925515	3504	2	0	-100	0	230	101300000	1000	0	0	-1	0
17938075	3508	0	0	-100	0	230	101300000	1000	0	0	-1	0
17950635	3510	0	0	-100	0	230	101300000	1000	0	0	-1	0
17963195	3504	0	0	-100	0	230	101300000	1000	0	0	-1	0
17975755	3505	0	0	-100	0	230	101300000	1000	0	0	-1	0
17988315	3510	0	0	-100	0	230	101300000	1000	0	0	-1	0
18000875	3509	0	0	-100	0	230	101300000	1000	0	0	-1	0
18013435	3503	2	0	-100	0	230	101300000	1000	0	0	-1	0
18025995	3509	0	0	-100	0	230	101300000	1000	0	0	-1	0
18038555	3516	0	0	-100	0	230	101300000	1000	0	0	-1	0
18051115	3512	0	0	-100	0	230	101300000	1000	0	0	-1	0
18063675	3513	0	0	-100	0	230	101300000	1000	0	0	-1	0
18076235	3508	0	0	-100	0	230	101300000	1000	0	0	-1	0
18088795	3508	2	0	-100	0	230	101300000	1000	0	0	-1	0
18101355	3505	1	0	-100	0	230	101300000	1000	0	0	-1	0
18113915	3508	0	0	-100	0	230	101300000	1000	0	0	-1	0
18126475	3516	0	0	-100	0	230	101300000	1000	0	0	-1	0
18139035	3512	0	0	-100	0	230	101300000	1000	0	0	-1	0
18151595	3509	0	0	-100	0	230	101300000	1000	0	0	-1	0
18164155	3504	0	0	-100	0	230	101300000	1000	0	0	-1	0
18176715	3506	1	0	-100	0	230	101300000	1000	0	0	-1	0
18189275	3511	0	0	-100	0	230	101300000	1000	0	0	-1	0
18201835	3514	0	0	-100	0	230	101300000	1000	0	0	-1	0
18214395	3504	0	0	-100	0	230	101300000	1000	0	0	-1	0
18226955	3504	0	0	-100	0	230	101300000	1000	0	0	-1	0
18239515	3505	0	0	-100	0	230	101300000	1000	0	0	-1	0
18252075	3502	0	0	-100	0	230	101300000	1000	0	0	-1	0
18264635	3509	2	0	-100	0	230	101300000	1000	0	0	-1	0
18277195	3507	1	0	-100	0	230	101300000	1000	0	0	-1	0
18289755	3507	0	0	-100	0	230	101300000	1000	0	0	-1	0
18302315	3512	0	0	-100	0	230	101300000	1000	0	0	-1	0
18314875	3509	0	0	-100	0	230	101300000	1000	0	0	-1	0
18327435	3508	0	0	-100	0	230	101300000	1000	0	0	-1	0
18339995	3505	0	0	-100	0	230	101300000	1000	0	0	-1	0
18352555	3504	3	0	-100	0	230	101300000	1000	0	0	-1	0
18365115	3506	0	0	-100	0	230	101300000	1000	0	0	-1	0
18377675	3509	0	0	-100	0	230	101300000	1000	0	0	-1	0
18390235	3511	0	0	-100	0	230	101300000	1000	0	0	-1	0
18402795	3516	0	0	-100	0	230	101300000	1000	0	0	-1	0
18415355	3513	0	0	-100	0	230	101300000	1000	0	0	-1	0
18427915	3513	0	0	-100	0	230	101300000	1000	0	0	-1	0
18440475	3512	0	0	-100	0	230	101300000	1000	0	0	-1	0
18453035	3506	0	0	-100	0	230	101300000	1000	0	0	-1	0
18465595	3513	0	0	-100	0	230	101300000	1000	0	0	-1	0
18478155	3506	0	0	-100	0	230	101300000	1000	0	0	-1	0
18490715	3504	0	0	-100	0	230	101300000	1000	0	0	-1	0
18503275	3506	0	0	-100	0	230	101300000	1000	0	0	-1	0
18515835	3503	0	0	-100	0	230	101300000	1000	0	0	-1	0
18528395	3504	1	0	-100	0	230	101300000	1000	0	0	-1	0
18540955	3515	0	0	-100	0	230	101300000	1000	0	0	-1	0
18553515	3507	0	0	-100	0	230	101300000	1000	0	0	-1	0
18566075	3507	3	0	-100	0	230	101300000	1000	0	0	-1	0
18578635	3512	0	0	-100	0	230	101300000	1000	0	0	-1	0
18591195	3509	0	0	-100	0	230	101300000	1000	0	0	-1	0
18603755	3504	0	0	-100	0	230	101300000	1000	0	0	-1	0
18616315	3506	2	0	-100	0	230	101300000	1000	0	0	-1	0
18628875	3504	0	0	-100	0	230	101300000	1000	0	0	-1	0
18641435	3513	0	0	-100	0	230	101300000	1000	0	0	-1	0
18653995	3507	0	0	-100	0	230	101300000	1000	0	0	-1	0
18666555	3510	0	0	-100	0	230	101300000	1000	0	0	-1	0
18679115	3509	0	0	-100	0	230	101300000	1000	0	0	-1	0
18691675	3509	0	0	-100	0	230	101300000	1000	0	0	-1	0
18704235	3513	0	0	-100	0	230	101300000	1000	0	0	-1	0
18716795	3504	0	0	-100	0	230	101300000	1000	0	0	-1	0
18729355	3506	4	0	-100	0	230	101300000	1000	0	0	-1	0
18741915	3505	3	0	-100	0	230	101300000	1000	0	0	-1	0
18754475	3504	0	0	-100	0	230	101300000	1000	0	0	-1	0
18767035	3511	0	0	-100	0	230	101300000	1000	0	0	-1	0
18779595	3515	0	0	-100	0	230	101300000	1000	0	0	-1	0
18792155	3504	0	0	-100	0	230	101300000	1000	0	0	-1	0
18804715	3515	0	0	-100	0	230	101300000	1000	0	0	-1	0
18817275	3512	0	0	-100	0	230	101300000	1000	0	0	-1	0
18829835	3508	0	0	-100	0	230	101300000	1000	0	0	-1	0
18842395	3513	0	0	-100	0	230	101300000	1000	0	0	-1	0
18854955	3504	0	0	-100	0	230	101300000	1000	0	0	-1	0
18867515	3508	4	0	-100	0	230	101300000	1000	0	0	-1	0
18880075	3509	2	0	-100	0	230	101300000	1000	0	0	-1	0
18892635	3505	1	0	-100	0	230	101300000	1000	0	0	-1	0
18905195	3507	0	0	-100	0	230	101300000	1000	0	0	-1	0
18917755	3513	0	0	-100	0	230	101300000	1000	0	0	-1	0
18930315	3513	0	0	-100	0	230	101300000	1000	0	0	-1	0
18942875	3509	0	0	-100	0	230	101300000	1000	0	0	-1	0
18955435	3503	0	0	-100	0	230	101300000	1000	0	0	-1	0
18967995	3508	0	0	-100	0	230	101300000	1000	0	0	-1	0
18980555	3505	2	0	-100	0	230	101300000	1000	0	0	-1	0
18993115	3503	0	0	-100	0	230	101300000	1000	0	0	-1	0
19005675	3509	0	0	-100	0	230	101300000	1000	0	0	-1	0
19018235	3514	0	0	-100	0	230	101300000	1000	0	0	-1	0
19030795	3511	0	0	-100	0	230	101300000	1000	0	0	-1	0
19043355	3514	0	0	-100	0	230	101300000	1000	0	0	-1	0
19055915	3511	0	0	-100	0	230	101300000	1000	0	0	-1	0
19068475	3504	0	0	-100	0	230	101300000	1000	0	0	-1	0
19081035	3509	1	0	-100	0	230	101300000	1000	0	0	-1	0
19093595	3507	0	0	-100	0	230	101300000	1000	0	0	-1	0
19106155	3507	0	0	-100	0	230	101300000	1000	0	0	-1	0
19118715	3510	0	0	-100	0	230	101300000	1000	0	0	-1	0
19131275	3509	0	0	-100	0	230	101300000	1000	0	0	-1	0
19143835	3501	0	0	-100	0	230	101300000	1000	0	0	-1	0
19156395	3507	3	0	-100	0	230	101300000	1000	0	0	-1	0
19168955	3505	2	0	-100	0	230	101300000	1000	0	0	-1	0
19181515	3506	1	0	-100	0	230	101300000	1000	0	0	-1	0
19194075	3504	2	0	-100	0	230	101300000	1000	0	0	-1	0
19206635	3503	0	0	-100	0	230	101300000	1000	0	0	-1	0
19219195	3507	0	0	-100	0	230	101300000	1000	0	0	-1	0
19231755	3511	0	0	-100	0	230	101300000	1000	0	0	-1	0
19244315	3514	0	0	-100	0	230	101300000	1000	0	0	-1	0
19256875	3511	0	0	-100	0	230	101300000	1000	0	0	-1	0
19269435	3510	0	0	-100	0	230	101300000	1000	0	0	-1	0
19281995	3514	2	0	-100	0	230	101300000	1000	0	0	-1	0
19294555	3509	0	0	-100	0	230	101300000	1000	0	0	-1	0
19307115	3509	0	0	-100	0	230	101300000	1000	0	0	-1	0
19319675	3504	0	0	-100	0	230	101300000	1000	0	0	-1	0
19332235	3505	0	0	-100	0	230	101300000	1000	0	0	-1	0
19344795	3505	2	0	-100	0	230	101300000	1000	0	0	-1	0
19357355	3507	1	0	-100	0	230	101300000	1000	0	0	-1	0
19369915	3504	0	0	-100	0	230	101300000	1000	0	0	-1	0
19382475	3513	0	0	-100	0	230	101300000	1000	0	0	-1	0
19395035	3514	0	0	-100	0	230	101300000	1000	0	0	-1	0
19407595	3515	0	0	-100	0	230	101300000	1000	0	0	-1	0
19420155	3506	0	0	-100	0	230	101300000	1000	0	0	-1	0
19432715	3504	0	0	-100	0	230	101300000	1000	0	0	-1	0
19445275	3506	3	0	-100	0	230	101300000	1000	0	0	-1	0
19457835	3509	0	0	-100	0	230	101300000	1000	0	0	-1	0
19470395	3510	0	0	-100	0	230	101300000	1000	0	0	-1	0
19482955	3510	0	0	-100	0	230	101300000	1000	0	0	-1	0
19495515	3502	0	0	-100	0	230	101300000	1000	0	0	-1	0
19508075	3507	1	0	-100	0	230	101300000	1000	0	0	-1	0
19520635	3508	0	0	-100	0	230	101300000	1000	0	0	-1	0
19533195	3513	0	0	-100	0	230	101300000	1000	0	0	-1	0
19545755	3513	0	0	-100	0	230	101300000	1000	0	0	-1	0
19558315	3507	0	0	-100	0	230	101300000	1000	0	0	-1	0
19570875	3505	4	0	-100	0	230	101300000	1000	0	0	-1	0
19583435	3509	0	0	-100	0	230	101300000	1000	0	0	-1	0
19595995	3513	4	0	-100	0	230	101300000	1000	0	0	-1	0
19608555	3512	0	0	-100	0	230	101300000	1000	0	0	-1	0
19621115	3510	0	0	-100	0	230	101300000	1000	0	0	-1	0
19633675	3507	0	0	-100	0	230	101300000	1000	0	0	-1	0
19646235	3505	1	0	-100	0	230	101300000	1000	0	0	-1	0
19658795	3507	0	0	-100	0	230	101300000	1000	0	0	-1	0
19671355	3511	0	0	-100	0	230	101300000	1000	0	0	-1	0
19683915	3518	0	0	-100	0	230	101300000	1000	0	0	-1	0
19696475	3507	0	0	-100	0	230	101300000	1000	0	0	-1	0
19709035	3509	0	0	-100	0	230	101300000	1000	0	0	-1	0
19721595	3504	0	0	-100	0	230	101300000	1000	0	0	-1	0
19734155	3501	4	0	-100	0	230	101300000	1000	0	0	-1	0
19746715	3509	0	0	-100	0	230	101300000	1000	0	0	-1	0
19759275	3512	0	0	-100	0	230	101300000	1000	0	0	-1	0
19771835	3502	0	0	-100	0	230	101300000	1000	0	0	-1	0
19784395	3504	0	0	-100	0	230	101300000	1000	0	0	-1	0
19796955	3510	0	0	-100	0	230	101300000	1000	0	0	-1	0
19809515	3513	0	0	-100	0	230	101300000	1000	0	0	-1	0
19822075	3506	0	0	-100	0	230	101300000	1000	0	0	-1	0
19834635	3508	4	0	-100	0	230	101300000	1000	0	0	-1	0
19847195	3509	0	0	-100	0	230	101300000	1000	0	0	-1	0
19859755	3514	0	0	-100	0	230	101300000	1000	0	0	-1	0
19872315	3510	0	0	-100	0	230	101300000	1000	0	0	-1	0
19884875	3507	0	0	-100	0	230	101300000	1000	0	0	-1	0
19897435	3510	1	0	-100	0	230	101300000	1000	0	0	-1	0
19909995	3505	0	0	-100	0	230	101300000	1000	0	0	-1	0
19922555	3514	0	0	-100	0	230	101300000	1000	0	0	-1	0
19935115	3513	0	0	-100	0	230	101300000	1000	0	0	-1	0
19947675	3505	0	0	-100	0	230	101300000	1000	0	0	-1	0
19960235	3505	0	0	-100	0	230	101300000	1000	0	0	-1	0
19972795	3506	2	0	-100	0	230	101300000	1000	0	0	-1	0
19985355	3508	0	0	-100	0	230	101300000	1000	0	0	-1	0
19997915	3510	0	0	-100	0	230	101300000	1000	0	0	-1	0
20010475	3512	0	0	-100	0	230	101300000	1000	0	0	-1	0
20023035	3515	0	0	-100	0	230	101300000	1000	0	0	-1	0
20035595	3506	0	0	-100	0	230	101300000	1000	0	0	-1	0
20048155	3503	0	0	-100	0	230	101300000	1000	0	0	-1	0
20060715	3512	0	0	-100	0	230	101300000	1000	0	0	-1	0
20073275	3505	0	0	-100	0	230	101300000	1000	0	0	-1	0
20085835	3507	4	0	-100	0	230	101300000	1000	0	0	-1	0
20098395	3505	0	0	-100	0	230	101300000	1000	0	0	-1	0
20110955	3511	0	0	-100	0	230	101300000	1000	0	0	-1	0
20123515	3513	0	0	-100	0	230	101300000	1000	0	0	-1	0
20136075	3511	0	0	-100	0	230	101300000	1000	0	0	-1	0
20148635	3502	0	0	-100	0	230	101300000	1000	0	0	-1	0
20161195	3510	2	0	-100	0	230	101300000	1000	0	0	-1	0
20173755	3507	3	0	-100	0	230	101300000	1000	0	0	-1	0
20186315	3505	0	0	-100	0	230	101300000	1000	0	0	-1	0
20198875	3518	0	0	-100	0	230	101300000	1000	0	0	-1	0
20211435	3512	0	0	-100	0	230	101300000	1000	0	0	-1	0
20223995	3514	1	0	-100	0	230	101300000	1000	0	0	-1	0
20236555	3511	0	0	-100	0	230	101300000	1000	0	0	-1	0
20249115	3506	0	0	-100	0	230	101300000	1000	0	0	-1	0
20261675	3509	0	0	-100	0	230	101300000	1000	0	0	-1	0
20274235	3506	0	0	-100	0	230	101300000	1000	0	0	-1	0
20286795	3510	0	0	-100	0	230	101300000	1000	0	0	-1	0
20299355	3512	0	0	-100	0	230	101300000	1000	0	0	-1	0
20311915	3507	0	0	-100	0	230	101300000	1000	0	0	-1	0
20324475	3506	0	0	-100	0	230	101300000	1000	0	0	-1	0
20337035	3504	2	0	-100	0	230	101300000	1000	0	0	-1	0
20349595	3503	0	0	-100	0	230	101300000	1000	0	0	-1	0
20362155	3502	0	0	-100	0	230	101300000	1000	0	0	-1	0
20374715	3513	0	0	-100	0	230	101300000	1000	0	0	-1	0
20387275	3505	0	0	-100	0	230	101300000	1000	0	0	-1	0
20399835	3506	1	0	-100	0	230	101300000	1000	0	0	-1	0
20412395	3514	0	0	-100	0	230	101300000	1000	0	0	-1	0
20424955	3507	4	0	-100	0	230	101300000	1000	0	0	-1	0
20437515	3509	0	0	-100	0	230	101300000	1000	0	0	-1	0
20450075	3504	0	0	-100	0	230	101300000	1000	0	0	-1	0
20462635	3509	0	0	-100	0	230	101300000	1000	0	0	-1	0
20475195	3506	1	0	-100	0	230	101300000	1000	0	0	-1	0
20487755	3509	0	0	-100	0	230	101300000	1000	0	0	-1	0
20500315	3508	1	0	-100	0	230	101300000	1000	0	0	-1	0
20512875	3510	0	0	-100	0	230	101300000	1000	0	0	-1	0
20525435	3506	3	0	-100	0	230	101300000	1000	0	0	-1	0
20537995	3508	0	0	-100	0	230	101300000	1000	0	0	-1	0
20550555	3511	0	0	-100	0	230	101300000	1000	0	0	-1	0
20563115	3510	2	0	-100	0	230	101300000	1000	0	0	-1	0
20575675	3513	0	0	-100	0	230	101300000	1000	0	0	-1	0
20588235	3504	0	0	-100	0	230	101300000	1000	0	0	-1	0
20600795	3510	0	0	-100	0	230	101300000	1000	0	0	-1	0
20613355	3506	0	0	-100	0	230	101300000	1000	0	0	-1	0
20625915	3506	0	0	-100	0	230	101300000	1000	0	0	-1	0
20638475	3518	0	0	-100	0	230	101300000	1000	0	0	-1	0
20651035	3504	1	0	-100	0	230	101300000	1000	0	0	-1	0
20663595	3512	0	0	-100	0	230	101300000	1000	0	0	-1	0
20676155	3500	4	0	-100	0	230	101300000	1000	0	0	-1	0
20688715	3511	0	0	-100	0	230	101300000	1000	0	0	-1	0
20701275	3508	0	0	-100	0	230	101300000	1000	0	0	-1	0
20713835	3505	3	0	-100	0	230	101300000	1000	0	0	-1	0
20726395	3512	0	0	-100	0	230	101300000	1000	0	0	-1	0
20738955	3506	0	0	-100	0	230	101300000	1000	0	0	-1	0
20751515	3503	0	0	-100	0	230	101300000	1000	0	0	-1	0
20764075	3515	0	0	-100	0	230	101300000	1000	0	0	-1	0
20776635	3508	0	0	-100	0	230	101300000	1000	0	0	-1	0
20789195	3508	0	0	-100	0	230	101300000	1000	0	0	-1	0
20801755	3514	0	0	-100	0	230	101300000	1000	0	0	-1	0
20814315	3503	0	0	-100	0	230	101300000	1000	0	0	-1	0
20826875	3504	2	0	-100	0	230	101300000	1000	0	0	-1	0
20839435	3513	0	0	-100	0	230	101300000	1000	0	0	-1	0
20851995	3509	0	0	-100	0	230	101300000	1000	0	0	-1	0
20864555	3508	0	0	-100	0	230	101300000	1000	0	0	-1	0
20877115	3503	0	0	-100	0	230	101300000	1000	0	0	-1	0
20889675	3513	0	0	-100	0	230	101300000	1000	0	0	-1	0
20902235	3507	0	0	-100	0	230	101300000	1000	0	0	-1	0
20914795	3511	0	0	-100	0	230	101300000	1000	0	0	-1	0
20927355	3510	0	0	-100	0	230	101300000	1000	0	0	-1	0
20939915	3509	2	0	-100	0	230	101300000	1000	0	0	-1	0
20952475	3510	0	0	-100	0	230	101300000	1000	0	0	-1	0
20965035	3514	0	0	-100	0	230	101300000	1000	0	0	-1	0
20977595	3506	0	0	-100	0	230	101300000	1000	0	0	-1	0
20990155	3499	4	0	-100	0	230	101300000	1000	0	0	-1	0
21002715	3511	0	0	-100	0	230	101300000	1000	0	0	-1	0
21015275	3507	0	0	-100	0	230	101300000	1000	0	0	-1	0
21027835	3511	0	0	-100	0	230	101300000	1000	0	0	-1	0
21040395	3506	0	0	-100	0	230	101300000	1000	0	0	-1	0
21052955	3506	1	0	-100	0	230	101300000	1000	0	0	-1	0
21065515	3509	0	0	-100	0	230	101300000	1000	0	0	-1	0
21078075	3513	0	0	-100	0	230	101300000	1000	0	0	-1	0
21090635	3504	0	0	-100	0	230	101300000	1000	0	0	-1	0
21103195	3506	2	0	-100	0	230	101300000	1000	0	0	-1	0
21115755	3510	0	0	-100	0	230	101300000	1000	0	0	-1	0
21128315	3513	0	0	-100	0	230	101300000	1000	0	0	-1	0
21140875	3509	0	0	-100	0	230	101300000	1000	0	0	-1	0
21153435	3504	4	0	-100	0	230	101300000	1000	0	0	-1	0
21165995	3506	0	0	-100	0	230	101300000	1000	0	0	-1	0
21178555	3511	0	0	-100	0	230	101300000	1000	0	0	-1	0
21191115	3504	0	0	-100	0	230	101300000	1000	0	0	-1	0
21203675	3509	3	0	-100	0	230	101300000	1000	0	0	-1	0
21216235	3503	0	0	-100	0	230	101300000	1000	0	0	-1	0
21228795	3514	0	0	-100	0	230	101300000	1000	0	0	-1	0
21241355	3509	0	0	-100	0	230	101300000	1000	0	0	-1	0
21253915	3502	0	0	-100	0	230	101300000	1000	0	0	-1	0
21266475	3505	3	0	-100	0	230	101300000	1000	0	0	-1	0
21279035	3511	0	0	-100	0	230	101300000	1000	0	0	-1	0
21291595	3511	0	0	-100	0	230	101300000	1000	0	0	-1	0
21304155	3503	0	0	-100	0	230	101300000	1000	0	0	-1	0
21316715	3510	0	0	-100	0	230	101300000	1000	0	0	-1	0
21329275	3510	0	0	-100	0	230	101300000	1000	0	0	-1	0
21341835	3509	0	0	-100	0	230	101300000	1000	0	0	-1	0
21354395	3504	0	0	-100	0	230	101300000	1000	0	0	-1	0
21366955	3516	0	0	-100	0	230	101300000	1000	0	0	-1	0
21379515	3511	0	0	-100	0	230	101300000	1000	0	0	-1	0
21392075	3505	0	0	-100	0	230	101300000	1000	0	0	-1	0
21404635	3504	0	0	-100	0	230	101300000	1000	0	0	-1	0
21417195	3516	0	0	-100	0	230	101300000	1000	0	0	-1	0
21429755	3510	0	0	-100	0	230	101300000	1000	0	0	-1	0
21442315	3509	0	0	-100	0	230	101300000	1000	0	0	-1	0
21454875	3503	0	0	-100	0	230	101300000	1000	0	0	-1	0
21467435	3513	0	0	-100	0	230	101300000	1000	0	0	-1	0
21479995	3512	0	0	-100	0	230	101300000	1000	0	0	-1	0
21492555	3505	4	0	-100	0	230	101300000	1000	0	0	-1	0
21505115	3514	0	0	-100	0	230	101300000	1000	0	0	-1	0
21517675	3508	0	0	-100	0	230	101300000	1000	0	0	-1	0
21530235	3505	1	0	-100	0	230	101300000	1000	0	0	-1	0
21542795	3511	0	0	-100	0	230	101300000	1000	0	0	-1	0
21555355	3506	0	0	-100	0	230	101300000	1000	0	0	-1	0
21567915	3505	2	0	-100	0	230	101300000	1000	0	0	-1	0
21580475	3513	0	0	-100	0	230	101300000	1000	0	0	-1	0
21593035	3507	0	0	-100	0	230	101300000	1000	0	0	-1	0
21605595	3509	2	0	-100	0	230	101300000	1000	0	0	-1	0
21618155	3509	0	0	-100	0	230	101300000	1000	0	0	-1	0
21630715	3505	0	0	-100	0	230	101300000	1000	0	0	-1	0
21643275	3508	2	0	-100	0	230	101300000	1000	0	0	-1	0
21655835	3513	0	0	-100	0	230	101300000	1000	0	0	-1	0
21668395	3507	0	0	-100	0	230	101300000	1000	0	0	-1	0
21680955	3510	2	0	-100	0	230	101300000	1000	0	0	-1	0
21693515	3513	0	0	-100	0	230	101300000	1000	0	0	-1	0
21706075	3510	0	0	-100	0	230	101300000	1000	0	0	-1	0
21718635	3510	3	0	-100	0	230	101300000	1000	0	0	-1	0
21731195	3505	0	0	-100	0	230	101300000	1000	0	0	-1	0
21743755	3511	0	0	-100	0	230	101300000	1000	0	0	-1	0
21756315	3509	2	0	-100	0	230	101300000	1000	0	0	-1	0
21768875	3512	0	0	-100	0	230	101300000	1000	0	0	-1	0
21781435	3512	0	0	-100	0	230	101300000	1000	0	0	-1	0
21793995	3501	0	0	-100	0	230	101300000	1000	0	0	-1	0
21806555	3504	0	0	-100	0	230	101300000	1000	0	0	-1	0
21819115	3511	0	0	-100	0	230	101300000	1000	0	0	-1	0
21831675	3504	0	0	-100	0	230	101300000	1000	0	0	-1	0
21844235	3506	0	0	-100	0	230	101300000	1000	0	0	-1	0
21856795	3514	0	0	-100	0	230	101300000	1000	0	0	-1	0
21869355	3510	0	0	-100	0	230	101300000	1000	0	0	-1	0
21881915	3510	0	0	-100	0	230	101300000	1000	0	0	-1	0
21894475	3507	1	0	-100	0	230	101300000	1000	0	0	-1	0
21907035	3507	0	0	-100	0	230	101300000	1000	0	0	-1	0
21919595	3515	0	0	-100	0	230	101300000	1000	0	0	-1	0
21932155	3505	0	0	-100	0	230	101300000	1000	0	0	-1	0
21944715	3509	0	0	-100	0	230	101300000	1000	0	0	-1	0
21957275	3506	1	0	-100	0	230	101300000	1000	0	0	-1	0
21969835	3514	0	0	-100	0	230	101300000	1000	0	0	-1	0
21982395	3513	0	0	-100	0	230	101300000	1000	0	0	-1	0
21994955	3506	0	0	-100	0	230	101300000	1000	0	0	-1	0
22007515	3510	0	0	-100	0	230	101300000	1000	0	0	-1	0
22020075	3512	0	0	-100	0	230	101300000	1000	0	0	-1	0
22032635	3505	0	0	-100	0	230	101300000	1000	0	0	-1	0
22045195	3507	0	0	-100	0	230	101300000	1000	0	0	-1	0
22057755	3514	0	0	-100	0	230	101300000	1000	0	0	-1	0
22070315	3505	1	0	-100	0	230	101300000	1000	0	0	-1	0
22082875	3513	0	0	-100	0	230	101300000	1000	0	0	-1	0
22095435	3502	3	0	-100	0	230	101300000	1000	0	0	-1	0
22107995	3517	4	0	-100	0	230	101300000	1000	0	0	-1	0
22120555	3511	0	0	-100	0	230	101300000	1000	0	0	-1	0
22133115	3504	0	0	-100	0	230	101300000	1000	0	0	-1	0
22145675	3505	0	0	-100	0	230	101300000	1000	0	0	-1	0
22158235	3511	0	0	-100	0	230	101300000	1000	0	0	-1	0
22170795	3505	0	0	-100	0	230	101300000	1000	0	0	-1	0
22183355	3508	1	0	-100	0	230	101300000	1000	0	0	-1	0
22195915	3512	0	0	-100	0	230	101300000	1000	0	0	-1	0
22208475	3508	0	0	-100	0	230	101300000	1000	0	0	-1	0
22221035	3508	3	0	-100	0	230	101300000	1000	0	0	-1	0
22233595	3510	0	0	-100	0	230	101300000	1000	0	0	-1	0
22246155	3506	0	0	-100	0	230	101300000	1000	0	0	-1	0
22258715	3504	0	0	-100	0	230	101300000	1000	0	0	-1	0
22271275	3504	0	0	-100	0	230	101300000	1000	0	0	-1	0
22283835	3510	0	0	-100	0	230	101300000	1000	0	0	-1	0
22296395	3513	0	0	-100	0	230	101300000	1000	0	0	-1	0
22308955	3508	0	0	-100	0	230	101300000	1000	0	0	-1	0
22321515	3508	0	0	-100	0	230	101300000	1000	0	0	-1	0
22334075	3504	1	0	-100	0	230	101300000	1000	0	0	-1	0
22346635	3512	0	0	-100	0	230	101300000	1000	0	0	-1	0
22359195	3511	0	0	-100	0	230	101300000	1000	0	0	-1	0
22371755	3504	0	0	-100	0	230	101300000	1000	0	0	-1	0
22384315	3507	0	0	-100	0	230	101300000	1000	0	0	-1	0
22396875	3509	2	0	-100	0	230	101300000	1000	0	0	-1	0
22409435	3504	0	0	-100	0	230	101300000	1000	0	0	-1	0
22421995	3515	4	0	-100	0	230	101300000	1000	0	0	-1	0
22434555	3509	0	0	-100	0	230	101300000	1000	0	0	-1	0
22447115	3506	0	0	-100	0	230	101300000	1000	0	0	-1	0
22459675	3507	1	0	-100	0	230	101300000	1000	0	0	-1	0
22472235	3506	0	0	-100	0	230	101300000	1000	0	0	-1	0
22484795	3513	0	0	-100	0	230	101300000	1000	0	0	-1	0
22497355	3505	0	0	-100	0	230	101300000	1000	0	0	-1	0
22509915	3503	0	0	-100	0	230	101300000	1000	0	0	-1	0
22522475	3512	0	0	-100	0	230	101300000	1000	0	0	-1	0
22535035	3509	0	0	-100	0	230	101300000	1000	0	0	-1	0
22547595	3507	0	0	-100	0	230	101300000	1000	0	0	-1	0
22560155	3507	0	0	-100	0	230	101300000	1000	0	0	-1	0
22572715	3505	0	0	-100	0	230	101300000	1000	0	0	-1	0
22585275	3510	0	0	-100	0	230	101300000	1000	0	0	-1	0
22597835	3505	0	0	-100	0	230	101300000	1000	0	0	-1	0
22610395	3502	0	0	-100	0	230	101300000	1000	0	0	-1	0
22622955	3512	0	0	-100	0	230	101300000	1000	0	0	-1	0
22635515	3506	3	0	-100	0	230	101300000	1000	0	0	-1	0
22648075	3508	0	0	-100	0	230	101300000	1000	0	0	-1	0
22660635	3514	0	0	-100	0	230	101300000	1000	0	0	-1	0
22673195	3505	0	0	-100	0	230	101300000	1000	0	0	-1	0
22685755	3505	1	0	-100	0	230	101300000	1000	0	0	-1	0
22698315	3510	0	0	-100	0	230	101300000	1000	0	0	-1	0
22710875	3511	0	0	-100	0	230	101300000	1000	0	0	-1	0
22723435	3508	2	0	-100	0	230	101300000	1000	0	0	-1	0
22735995	3512	3	0	-100	0	230	101300000	1000	0	0	-1	0
22748555	3507	0	0	-100	0	230	101300000	1000	0	0	-1	0
22761115	3509	0	0	-100	0	230	101300000	1000	0	0	-1	0
22773675	3510	0	0	-100	0	230	101300000	1000	0	0	-1	0
22786235	3509	0	0	-100	0	230	101300000	1000	0	0	-1	0
22798795	3507	0	0	-100	0	230	101300000	1000	0	0	-1	0
22811355	3503	0	0	-100	0	230	101300000	1000	0	0	-1	0
22823915	3512	0	0	-100	0	230	101300000	1000	0	0	-1	0
22836475	3504	0	0	-100	0	230	101300000	1000	0	0	-1	0
22849035	3504	3	0	-100	0	230	101300000	1000	0	0	-1	0
22861595	3509	0	0	-100	0	230	101300000	1000	0	0	-1	0
22874155	3506	0	0	-100	0	230	101300000	1000	0	0	-1	0
22886715	3510	0	0	-100	0	230	101300000	1000	0	0	-1	0
22899275	3511	0	0	-100	0	230	101300000	1000	0	0	-1	0
22911835	3507	0	0	-100	0	230	101300000	1000	0	0	-1	0
22924395	3515	0	0	-100	0	230	101300000	1000	0	0	-1	0
22936955	3510	0	0	-100	0	230	101300000	1000	0	0	-1	0
22949515	3504	3	0	-100	0	230	101300000	1000	0	0	-1	0
22962075	3506	0	0	-100	0	230	101300000	1000	0	0	-1	0
22974635	3509	0	0	-100	0	230	101300000	1000	0	0	-1	0
22987195	3508	0	0	-100	0	230	101300000	1000	0	0	-1	0
22999755	3508	0	0	-100	0	230	101300000	1000	0	0	-1	0
23012315	3510	0	0	-100	0	230	101300000	1000	0	0	-1	0
23024875	3509	0	0	-100	0	230	101300000	1000	0	0	-1	0
23037435	3507	0	0	-100	0	230	101300000	1000	0	0	-1	0
23049995	3512	3	0	-100	0	230	101300000	1000	0	0	-1	0
23062555	3510	0	0	-100	0	230	101300000	1000	0	0	-1	0
23075115	3505	1	0	-100	0	230	101300000	1000	0	0	-1	0
23087675	3509	0	0	-100	0	230	101300000	1000	0	0	-1	0
23100235	3508	4	0	-100	0	230	101300000	1000	0	0	-1	0
23112795	3512	0	0	-100	0	230	101300000	1000	0	0	-1	0
23125355	3504	0	0	-100	0	230	101300000	1000	0	0	-1	0
23137915	3510	0	0	-100	0	230	101300000	1000	0	0	-1	0
23150475	3510	0	0	-100	0	230	101300000	1000	0	0	-1	0
23163035	3509	1	0	-100	0	230	101300000	1000	0	0	-1	0
23175595	3504	0	0	-100	0	230	101300000	1000	0	0	-1	0
23188155	3506	0	0	-100	0	230	101300000	1000	0	0	-1	0
23200715	3505	0	0	-100	0	230	101300000	1000	0	0	-1	0
23213275	3508	3	0	-100	0	230	101300000	1000	0	0	-1	0
23225835	3515	0	0	-100	0	230	101300000	1000	0	0	-1	0
23238395	3504	0	0	-100	0	230	101300000	1000	0	0	-1	0
23250955	3504	0	0	-100	0	230	101300000	1000	0	0	-1	0
23263515	3515	0	0	-100	0	230	101300000	1000	0	0	-1	0
23276075	3508	1	0	-100	0	230	101300000	1000	0	0	-1	0
23288635	3511	0	0	-100	0	230	101300000	1000	0	0	-1	0
23301195	3509	0	0	-100	0	230	101300000	1000	0	0	-1	0
23313755	3504	0	0	-100	0	230	101300000	1000	0	0	-1	0
23326315	3513	0	0	-100	0	230	101300000	1000	0	0	-1	0
23338875	3505	0	0	-100	0	230	101300000	1000	0	0	-1	0
23351435	3504	0	0	-100	0	230	101300000	1000	0	0	-1	0
23363995	3510	1	0	-100	0	230	101300000	1000	0	0	-1	0
23376555	3505	2	0	-100	0	230	101300000	1000	0	0	-1	0
23389115	3510	0	0	-100	0	230	101300000	1000	0	0	-1	0
23401675	3505	0	0	-100	0	230	101300000	1000	0	0	-1	0
23414235	3505	0	0	-100	0	230	101300000	1000	0	0	-1	0
23426795	3513	0	0	-100	0	230	101300000	1000	0	0	-1	0
23439355	3509	3	0	-100	0	230	101300000	1000	0	0	-1	0
23451915	3513	0	0	-100	0	230	101300000	1000	0	0	-1	0
23464475	3506	0	0	-100	0	230	101300000	1000	0	0	-1	0
23477035	3506	0	0	-100	0	230	101300000	1000	0	0	-1	0
23489595	3508	0	0	-100	0	230	101300000	1000	0	0	-1	0
23502155	3503	0	0	-100	0	230	101300000	1000	0	0	-1	0
23514715	3504	1	0	-100	0	230	101300000	1000	0	0	-1	0
23527275	3514	0	0	-100	0	230	101300000	1000	0	0	-1	0
23539835	3513	0	0	-100	0	230	101300000	1000	0	0	-1	0
23552395	3503	0	0	-100	0	230	101300000	1000	0	0	-1	0
23564955	3509	2	0	-100	0	230	101300000	1000	0	0	-1	0
23577515	3508	0	0	-100	0	230	101300000	1000	0	0	-1	0
23590075	3514	0	0	-100	0	230	101300000	1000	0	0	-1	0
23602635	3508	0	0	-100	0	230	101300000	1000	0	0	-1	0
23615195	3507	1	0	-100	0	230	101300000	1000	0	0	-1	0
23627755	3513	0	0	-100	0	230	101300000	1000	0	0	-1	0
23640315	3513	0	0	-100	0	230	101300000	1000	0	0	-1	0
23652875	3505	0	0	-100	0	230	101300000	1000	0	0	-1	0
23665435	3505	2	0	-100	0	230	101300000	1000	0	0	-1	0
23677995	3509	0	0	-100	0	230	101300000	1000	0	0	-1	0
23690555	3510	0	0	-100	0	230	101300000	1000	0	0	-1	0
23703115	3509	2	0	-100	0	230	101300000	1000	0	0	-1	0
23715675	3513	0	0	-100	0	230	101300000	1000	0	0	-1	0
23728235	3507	0	0	-100	0	230	101300000	1000	0	0	-1	0
23740795	3514	0	0	-100	0	230	101300000	1000	0	0	-1	0
23753355	3504	0	0	-100	0	230	101300000	1000	0	0	-1	0
23765915	3516	0	0	-100	0	230	101300000	1000	0	0	-1	0
23778475	3508	0	0	-100	0	230	101300000	1000	0	0	-1	0
23791035	3506	0	0	-100	0	230	101300000	1000	0	0	-1	0
23803595	3509	0	0	-100	0	230	101300000	1000	0	0	-1	0
23816155	3500	2	0	-100	0	230	101300000	1000	0	0	-1	0
23828715	3513	0	0	-100	0	230	101300000	1000	0	0	-1	0
23841275	3506	0	0	-100	0	230	101300000	1000	0	0	-1	0
23853835	3505	0	0	-100	0	230	101300000	1000	0	0	-1	0
23866395	3508	0	0	-100	0	230	101300000	1000	0	0	-1	0
23878955	3506	0	0	-100	0	230	101300000	1000	0	0	-1	0
23891515	3505	0	0	-100	0	230	101300000	1000	0	0	-1	0
23904075	3509	0	0	-100	0	230	101300000	1000	0	0	-1	0
23916635	3506	0	0	-100	0	230	101300000	1000	0	0	-1	0
23929195	3511	0	0	-100	0	230	101300000	1000	0	0	-1	0
23941755	3507	0	0	-100	0	230	101300000	1000	0	0	-1	0
23954315	3509	0	0	-100	0	230	101300000	1000	0	0	-1	0
23966875	3509	0	0	-100	0	230	101300000	1000	0	0	-1	0
23979435	3509	0	0	-100	0	230	101300000	1000	0	0	-1	0
23991995	3515	3	0	-100	0	230	101300000	1000	0	0	-1	0
24004555	3507	2	0	-100	0	230	101300000	1000	0	0	-1	0
24017115	3513	0	0	-100	0	230	101300000	1000	0	0	-1	0
24029675	3510	0	0	-100	0	230	101300000	1000	0	0	-1	0
24042235	3509	4	0	-100	0	230	101300000	1000	0	0	-1	0
24054795	3509	0	0	-100	0	230	101300000	1000	0	0	-1	0
24067355	3512	0	0	-100	0	230	101300000	1000	0	0	-1	0
24079915	3510	1	0	-100	0	230	101300000	1000	0	0	-1	0
24092475	3505	0	0	-100	0	230	101300000	1000	0	0	-1	0
24105035	3512	0	0	-100	0	230	101300000	1000	0	0	-1	0
24117595	3507	4	0	-100	0	230	101300000	1000	0	0	-1	0
24130155	3507	0	0	-100	0	230	101300000	1000	0	0	-1	0
24142715	3508	0	0	-100	0	230	101300000	1000	0	0	-1	0
24155275	3506	0	0	-100	0	230	101300000	1000	0	0	-1	0
24167835	3509	0	0	-100	0	230	101300000	1000	0	0	-1	0
24180395	3504	0	0	-100	0	230	101300000	1000	0	0	-1	0
24192955	3505	1	0	-100	0	230	101300000	1000	0	0	-1	0
24205515	3511	0	0	-100	0	230	101300000	1000	0	0	-1	0
24218075	3511	0	0	-100	0	230	101300000	1000	0	0	-1	0
24230635	3505	1	0	-100	0	230	101300000	1000	0	0	-1	0
24243195	3508	0	0	-100	0	230	101300000	1000	0	0	-1	0
24255755	3511	0	0	-100	0	230	101300000	1000	0	0	-1	0
24268315	3505	0	0	-100	0	230	101300000	1000	0	0	-1	0
24280875	3506	0	0	-100	0	230	101300000	1000	0	0	-1	0
24293435	3511	0	0	-100	0	230	101300000	1000	0	0	-1	0
24305995	3504	0	0	-100	0	230	101300000	1000	0	0	-1	0
24318555	3507	0	0	-100	0	230	101300000	1000	0	0	-1	0
24331115	3513	0	0	-100	0	230	101300000	1000	0	0	-1	0
24343675	3507	0	0	-100	0	230	101300000	1000	0	0	-1	0
24356235	3510	0	0	-100	0	230	101300000	1000	0	0	-1	0
24368795	3508	0	0	-100	0	230	101300000	1000	0	0	-1	0
24381355	3505	1	0	-100	0	230	101300000	1000	0	0	-1	0
24393915	3511	0	0	-100	0	230	101300000	1000	0	0	-1	0
24406475	3507	0	0	-100	0	230	101300000	1000	0	0	-1	0
24419035	3505	3	0	-100	0	230	101300000	1000	0	0	-1	0
24431595	3513	0	0	-100	0	230	101300000	1000	0	0	-1	0
24444155	3505	0	0	-100	0	230	101300000	1000	0	0	-1	0
24456715	3508	3	0	-100	0	230	101300000	1000	0	0	-1	0
24469275	3506	0	0	-100	0	230	101300000	1000	0	0	-1	0
24481835	3511	0	0	-100	0	230	101300000	1000	0	0	-1	0
24494395	3508	0	0	-100	0	230	101300000	1000	0	0	-1	0
24506955	3506	0	0	-100	0	230	101300000	1000	0	0	-1	0
24519515	3515	0	0	-100	0	230	101300000	1000	0	0	-1	0
24532075	3508	0	0	-100	0	230	101300000	1000	0	0	-1	0
24544635	3504	0	0	-100	0	230	101300000	1000	0	0	-1	0
24557195	3504	0	0	-100	0	230	101300000	1000	0	0	-1	0
24569755	3512	0	0	-100	0	230	101300000	1000	0	0	-1	0
24582315	3508	0	0	-100	0	230	101300000	1000	0	0	-1	0
24594875	3503	3	0	-100	0	230	101300000	1000	0	0	-1	0
24607435	3513	0	0	-100	0	230	101300000	1000	0	0	-1	0
24619995	3513	0	0	-100	0	230	101300000	1000	0	0	-1	0
24632555	3504	0	0	-100	0	230	101300000	1000	0	0	-1	0
24645115	3511	0	0	-100	0	230	101300000	1000	0	0	-1	0
24657675	3506	1	0	-100	0	230	101300000	1000	0	0	-1	0
24670235	3505	0	0	-100	0	230	101300000	1000	0	0	-1	0
24682795	3515	0	0	-100	0	230	101300000	1000	0	0	-1	0
24695355	3512	0	0	-100	0	230	101300000	1000	0	0	-1	0
24707915	3503	0	0	-100	0	230	101300000	1000	0	0	-1	0
24720475	3509	1	0	-100	0	230	101300000	1000	0	0	-1	0
24733035	3508	0	0	-100	0	230	101300000	1000	0	0	-1	0
24745595	3513	0	0	-100	0	230	101300000	1000	0	0	-1	0
24758155	3505	0	0	-100	0	230	101300000	1000	0	0	-1	0
24770715	3505	0	0	-100	0	230	101300000	1000	0	0	-1	0
24783275	3507	2	0	-100	0	230	101300000	1000	0	0	-1	0
24795835	3510	0	0	-100	0	230	101300000	1000	0	0	-1	0
24808395	3515	0	0	-100	0	230	101300000	1000	0	0	-1	0
24820955	3506	0	0	-100	0	230	101300000	1000	0	0	-1	0
24833515	3504	0	0	-100	0	230	101300000	1000	0	0	-1	0
24846075	3509	2	0	-100	0	230	101300000	1000	0	0	-1	0
24858635	3510	0	0	-100	0	230	101300000	1000	0	0	-1	0
24871195	3513	0	0	-100	0	230	101300000	1000	0	0	-1	0
24883755	3507	0	0	-100	0	230	101300000	1000	0	0	-1	0
24896315	3505	0	0	-100	0	230	101300000	1000	0	0	-1	0
24908875	3506	2	0	-100	0	230	101300000	1000	0	0	-1	0
24921435	3508	0	0	-100	0	230	101300000	1000	0	0	-1	0
24933995	3510	4	0	-100	0	230	101300000	1000	0	0	-1	0
24946555	3510	0	0	-100	0	230	101300000	1000	0	0	-1	0
24959115	3506	0	0	-100	0	230	101300000	1000	0	0	-1	0
24971675	3506	1	0	-100	0	230	101300000	1000	0	0	-1	0
24984235	3509	0	0	-100	0	230	101300000	1000	0	0	-1	0
24996795	3511	0	0	-100	0	230	101300000	1000	0	0	-1	0
25009355	3505	0	0	-100	0	230	101300000	1000	0	0	-1	0
25021915	3508	4	0	-100	0	230	101300000	1000	0	0	-1	0
25034475	3504	0	0	-100	0	230	101300000	1000	0	0	-1	0
25047035	3511	0	0	-100	0	230	101300000	1000	0	0	-1	0
25059595	3514	0	0	-100	0	230	101300000	1000	0	0	-1	0
25072155	3505	0	0	-100	0	230	101300000	1000	0	0	-1	0
25084715	3509	0	0	-100	0	230	101300000	1000	0	0	-1	0
25097275	3509	0	0	-100	0	230	101300000	1000	0	0	-1	0
25109835	3514	0	0	-100	0	230	101300000	1000	0	0	-1	0
25122395	3512	0	0	-100	0	230	101300000	1000	0	0	-1	0
25134955	3501	0	0	-100	0	230	101300000	1000	0	0	-1	0
25147515	3505	3	0	-100	0	230	101300000	1000	0	0	-1	0
25160075	3510	0	0	-100	0	230	101300000	1000	0	0	-1	0
25172635	3509	0	0	-100	0	230	101300000	1000	0	0	-1	0
25185195	3508	0	0	-100	0	230	101300000	1000	0	0	-1	0
25197755	3507	0	0	-100	0	230	101300000	1000	0	0	-1	0
25210315	3508	0	0	-100	0	230	101300000	1000	0	0	-1	0
25222875	3510	0	0	-100	0	230	101300000	1000	0	0	-1	0
25235435	3506	0	0	-100	0	230	101300000	1000	0	0	-1	0
25247995	3505	0	0	-100	0	230	101300000	1000	0	0	-1	0
25260555	3513	0	0	-100	0	230	101300000	1000	0	0	-1	0
25273115	3509	0	0	-100	0	230	101300000	1000	0	0	-1	0
25285675	3507	0	0	-100	0	230	101300000	1000	0	0	-1	0
25298235	3506	2	0	-100	0	230	101300000	1000	0	0	-1	0
25310795	3505	0	0	-100	0	230	101300000	1000	0	0	-1	0
25323355	3514	0	0	-100	0	230	101300000	1000	0	0	-1	0
25335915	3509	0	0	-100	0	230	101300000	1000	0	0	-1	0
25348475	3504	0	0	-100	0	230	101300000	1000	0	0	-1	0
25361035	3509	0	0	-100	0	230	101300000	1000	0	0	-1	0
25373595	3513	0	0	-100	0	230	101300000	1000	0	0	-1	0
25386155	3505	0	0	-100	0	230	101300000	1000	0	0	-1	0
25398715	3507	3	0	-100	0	230	101300000	1000	0	0	-1	0
25411275	3508	0	0	-100	0	230	101300000	1000	0	0	-1	0
25423835	3513	0	0	-100	0	230	101300000	1000	0	0	-1	0
25436395	3504	0	0	-100	0	230	101300000	1000	0	0	-1	0
25448955	3502	1	0	-100	0	230	101300000	1000	0	0	-1	0
25461515	3514	0	0	-100	0	230	101300000	1000	0	0	-1	0
25474075	3510	0	0	-100	0	230	101300000	1000	0	0	-1	0
25486635	3507	0	0	-100	0	230	101300000	1000	0	0	-1	0
25499195	3506	0	0	-100	0	230	101300000	1000	0	0	-1	0
25511755	3509	0	0	-100	0	230	101300000	1000	0	0	-1	0
25524315	3505	0	0	-100	0	230	101300000	1000	0	0	-1	0
25536875	3505	2	0	-100	0	230	101300000	1000	0	0	-1	0
25549435	3509	0	0	-100	0	230	101300000	1000	0	0	-1	0
25561995	3513	3	0	-100	0	230	101300000	1000	0	0	-1	0
25574555	3512	0	0	-100	0	230	101300000	1000	0	0	-1	0
25587115	3508	0	0	-100	0	230	101300000	1000	0	0	-1	0
25599675	3504	0	0	-100	0	230	101300000	1000	0	0	-1	0
25612235	3504	2	0	-100	0	230	101300000	1000	0	0	-1	0
25624795	3506	1	0	-100	0	230	101300000	1000	0	0	-1	0
25637355	3510	0	0	-100	0	230	101300000	1000	0	0	-1	0
25649915	3511	0	0	-100	0	230	101300000	1000	0	0	-1	0
25662475	3511	0	0	-100	0	230	101300000	1000	0	0	-1	0
25675035	3504	0	0	-100	0	230	101300000	1000	0	0	-1	0
25687595	3507	3	0	-100	0	230	101300000	1000	0	0	-1	0
25700155	3502	1	0	-100	0	230	101300000	1000	0	0	-1	0
25712715	3508	0	0	-100	0	230	101300000	1000	0	0	-1	0
25725275	3504	0	0	-100	0	230	101300000	1000	0	0	-1	0
25737835	3507	0	0	-100	0	230	101300000	1000	0	0	-1	0
25750395	3507	0	0	-100	0	230	101300000	1000	0	0	-1	0
25762955	3512	0	0	-100	0	230	101300000	1000	0	0	-1	0
25775515	3510	0	0	-100	0	230	101300000	1000	0	0	-1	0
25788075	3510	0	0	-100	0	230	101300000	1000	0	0	-1	0
25800635	3509	1	0	-100	0	230	101300000	1000	0	0	-1	0
25813195	3507	1	0	-100	0	230	101300000	1000	0	0	-1	0
25825755	3507	0	0	-100	0	230	101300000	1000	0	0	-1	0
25838315	3508	0	0	-100	0	230	101300000	1000	0	0	-1	0
25850875	3506	0	0	-100	0	230	101300000	1000	0	0	-1	0
25863435	3511	0	0	-100	0	230	101300000	1000	0	0	-1	0
25875995	3511	0	0	-100	0	230	101300000	1000	0	0	-1	0
25888555	3506	0	0	-100	0	230	101300000	1000	0	0	-1	0
25901115	3507	3	0	-100	0	230	101300000	1000	0	0	-1	0
25913675	3504	0	0	-100	0	230	101300000	1000	0	0	-1	0
25926235	3506	0	0	-100	0	230	101300000	1000	0	0	-1	0
25938795	3509	0	0	-100	0	230	101300000	1000	0	0	-1	0
25951355	3514	0	0	-100	0	230	101300000	1000	0	0	-1	0
25963915	3513	0	0	-100	0	230	101300000	1000	0	0	-1	0
25976475	3512	0	0	-100	0	230	101300000	1000	0	0	-1	0
25989035	3510	0	0	-100	0	230	101300000	1000	0	0	-1	0
26001595	3508	0	0	-100	0	230	101300000	1000	0	0	-1	0
26014155	3501	0	0	-100	0	230	101300000	1000	0	0	-1	0
26026715	3507	0	0	-100	0	230	101300000	1000	0	0	-1	0
26039275	3505	2	0	-100	0	230	101300000	1000	0	0	-1	0
26051835	3505	2	0	-100	0	230	101300000	1000	0	0	-1	0
26064395	3506	2	0	-100	0	230	101300000	1000	0	0	-1	0
26076955	3509	3	0	-100	0	230	101300000	1000	0	0	-1	0
26089515	3504	0	0	-100	0	230	101300000	1000	0	0	-1	0
26102075	3508	0	0	-100	0	230	101300000	1000	0	0	-1	0
26114635	3504	3	0	-100	0	230	101300000	1000	0	0	-1	0
26127195	3505	0	0	-100	0	230	101300000	1000	0	0	-1	0
26139755	3519	0	0	-100	0	230	101300000	1000	0	0	-1	0
26152315	3508	0	0	-100	0	230	101300000	1000	0	0	-1	0
26164875	3508	0	0	-100	0	230	101300000	1000	0	0	-1	0
26177435	3507	0	0	-100	0	230	101300000	1000	0	0	-1	0
26189995	3508	0	0	-100	0	230	101300000	1000	0	0	-1	0
26202555	3510	0	0	-100	0	230	101300000	1000	0	0	-1	0
26215115	3508	0	0	-100	0	230	101300000	1000	0	0	-1	0
26227675	3509	0	0	-100	0	230	101300000	1000	0	0	-1	0
26240235	3515	0	0	-100	0	230	101300000	1000	0	0	-1	0
26252795	3509	0	0	-100	0	230	101300000	1000	0	0	-1	0
26265355	3512	0	0	-100	0	230	101300000	1000	0	0	-1	0
26277915	3513	0	0	-100	0	230	101300000	1000	0	0	-1	0
26290475	3510	0	0	-100	0	230	101300000	1000	0	0	-1	0
26303035	3516	0	0	-100	0	230	101300000	1000	0	0	-1	0
26315595	3507	0	0	-100	0	230	101300000	1000	0	0	-1	0
26328155	3502	0	0	-100	0	230	101300000	1000	0	0	-1	0
26340715	3509	0	0	-100	0	230	101300000	1000	0	0	-1	0
26353275	3504	0	0	-100	0	230	101300000	1000	0	0	-1	0
26365835	3507	1	0	-100	0	230	101300000	1000	0	0	-1	0
26378395	3508	3	0	-100	0	230	101300000	1000	0	0	-1	0
26390955	3503	3	0	-100	0	230	101300000	1000	0	0	-1	0
26403515	3510	1	0	-100	0	230	101300000	1000	0	0	-1	0
26416075	3506	2	0	-100	0	230	101300000	1000	0	0	-1	0
26428635	3508	0	0	-100	0	230	101300000	1000	0	0	-1	0
26441195	3509	0	0	-100	0	230	101300000	1000	0	0	-1	0
26453755	3502	0	0	-100	0	230	101300000	1000	0	0	-1	0
26466315	3504	0	0	-100	0	230	101300000	1000	0	0	-1	0
26478875	3505	0	0	-100	0	230	101300000	1000	0	0	-1	0
26491435	3506	0	0	-100	0	230	101300000	1000	0	0	-1	0
26503995	3508	0	0	-100	0	230	101300000	1000	0	0	-1	0
26516555	3510	0	0	-100	0	230	101300000	1000	0	0	-1	0
26529115	3508	0	0	-100	0	230	101300000	1000	0	0	-1	0
26541675	3513	0	0	-100	0	230	101300000	1000	0	0	-1	0
26554235	3513	0	0	-100	0	230	101300000	1000	0	0	-1	0
26566795	3516	0	0	-100	0	230	101300000	1000	0	0	-1	0
26579355	3513	0	0	-100	0	230	101300000	1000	0	0	-1	0
26591915	3505	0	0	-100	0	230	101300000	1000	0	0	-1	0
26604475	3508	0	0	-100	0	230	101300000	1000	0	0	-1	0
26617035	3505	0	0	-100	0	230	101300000	1000	0	0	-1	0
26629595	3506	1	0	-100	0	230	101300000	1000	0	0	-1	0
26642155	3503	4	0	-100	0	230	101300000	1000	0	0	-1	0
26654715	3506	2	0	-100	0	230	101300000	1000	0	0	-1	0
26667275	3505	3	0	-100	0	230	101300000	1000	0	0	-1	0
26679835	3505	1	0	-100	0	230	101300000	1000	0	0	-1	0
26692395	3505	0	0	-100	0	230	101300000	1000	0	0	-1	0
26704955	3504	1	0	-100	0	230	101300000	1000	0	0	-1	0
26717515	3507	0	0	-100	0	230	101300000	1000	0	0	-1	0
26730075	3504	3	0	-100	0	230	101300000	1000	0	0	-1	0
26742635	3506	2	0	-100	0	230	101300000	1000	0	0	-1	0
26755195	3505	0	0	-100	0	230	101300000	1000	0	0	-1	0
26767755	3510	0	0	-100	0	230	101300000	1000	0	0	-1	0
26780315	3508	0	0	-100	0	230	101300000	1000	0	0	-1	0
26792875	3502	2	0	-100	0	230	101300000	1000	0	0	-1	0
26805435	3509	0	0	-100	0	230	101300000	1000	0	0	-1	0
26817995	3512	1	0	-100	0	230	101300000	1000	0	0	-1	0
26830555	3502	0	0	-100	0	230	101300000	1000	0	0	-1	0
26843115	3506	0	0	-100	0	230	101300000	1000	0	0	-1	0
26855675	3514	0	0	-100	0	230	101300000	1000	0	0	-1	0
26868235	3512	0	0	-100	0	230	101300000	1000	0	0	-1	0
26880795	3508	0	0	-100	0	230	101300000	1000	0	0	-1	0
26893355	3506	1	0	-100	0	230	101300000	1000	0	0	-1	0
26905915	3505	0	0	-100	0	230	101300000	1000	0	0	-1	0
26918475	3510	0	0	-100	0	230	101300000	1000	0	0	-1	0
26931035	3513	0	0	-100	0	230	101300000	1000	0	0	-1	0
26943595	3511	0	0	-100	0	230	101300000	1000	0	0	-1	0
26956155	3505	0	0	-100	0	230	101300000	1000	0	0	-1	0
26968715	3509	0	0	-100	0	230	101300000	1000	0	0	-1	0
26981275	3508	0	0	-100	0	230	101300000	1000	0	0	-1	0
26993835	3505	3	0	-100	0	230	101300000	1000	0	0	-1	0
27006395	3509	0	0	-100	0	230	101300000	1000	0	0	-1	0
27018955	3517	0	0	-100	0	230	101300000	1000	0	0	-1	0
27031515	3513	0	0	-100	0	230	101300000	1000	0	0	-1	0
27044075	3513	0	0	-100	0	230	101300000	1000	0	0	-1	0
