timestamp	voltage	current	windSpeed	pitchAngle	rpm	temperature	ambientPressure	humidity	accelerationX	accelerationY	accelerationZ	currentSink
7037070	4006	4	0	-100	0	230	101300000	1000	0	0	-1	0
7044523	4002	0	0	-100	0	230	101300000	1000	0	0	-1	0
7057083	4003	0	0	-100	0	230	101300000	1000	0	0	-1	0
7069643	3998	0	0	-100	0	230	101300000	1000	0	0	-1	0
7082203	4001	2	0	-100	0	230	101300000	1000	0	0	-1	0
7094763	4006	3	0	-100	0	230	101300000	1000	0	0	-1	0
7107323	4004	2	0	-100	0	230	101300000	1000	0	0	-1	0
7119883	4006	4	0	-100	0	230	101300000	1000	0	0	-1	0
7132443	4002	4	0	-100	0	230	101300000	1000	0	0	-1	0
7145004	4006	0	0	-100	0	230	101300000	1000	0	0	-1	0
7157563	4003	4	0	-100	0	230	101300000	1000	0	0	-1	0
7170123	4002	2	0	-100	0	230	101300000	1000	0	0	-1	0
7182683	4000	2	0	-100	0	230	101300000	1000	0	0	-1	0
7195243	4007	0	0	-100	0	230	101300000	1000	0	0	-1	0
7207803	4009	0	0	-100	0	230	101300000	1000	0	0	-1	0
7220363	4008	0	0	-100	0	230	101300000	1000	0	0	-1	0
7232923	4009	0	0	-100	0	230	101300000	1000	0	0	-1	0
7245483	4004	0	0	-100	0	230	101300000	1000	0	0	-1	0
7258043	4003	0	0	-100	0	230	101300000	1000	0	0	-1	0
7270603	4000	4	0	-100	0	230	101300000	1000	0	0	-1	0
7283163	4011	0	0	-100	0	230	101300000	1000	0	0	-1	0
7295723	4009	0	0	-100	0	230	101300000	1000	0	0	-1	0
7308283	4006	0	0	-100	0	230	101300000	1000	0	0	-1	0
7320843	4004	0	0	-100	0	230	101300000	1000	0	0	-1	0
7333403	4005	0	0	-100	0	230	101300000	1000	0	0	-1	0
7345963	4006	0	0	-100	0	230	101300000	1000	0	0	-1	0
7714235	4003	4	0	-100	0	230	101300000	1000	0	0	-1	0
7726795	4002	2	0	-100	0	230	101300000	1000	0	0	-1	0
7739355	4004	1	0	-100	0	230	101300000	1000	0	0	-1	0
7751915	4000	0	0	-100	0	230	101300000	1000	0	0	-1	0
7764475	4001	2	0	-100	0	230	101300000	1000	0	0	-1	0
7777035	4005	3	0	-100	0	230	101300000	1000	0	0	-1	0
7789595	4002	4	0	-100	0	230	101300000	1000	0	0	-1	0
7802155	4008	2	0	-100	0	230	101300000	1000	0	0	-1	0
7814715	4003	2	0	-100	0	230	101300000	1000	0	0	-1	0
7827275	4000	1	0	-100	0	230	101300000	1000	0	0	-1	0
7839835	4005	0	0	-100	0	230	101300000	1000	0	0	-1	0
7852395	4006	0	0	-100	0	230	101300000	1000	0	0	-1	0
7864955	4004	0	0	-100	0	230	101300000	1000	0	0	-1	0
7877515	4003	1	0	-100	0	230	101300000	1000	0	0	-1	0
7890075	4004	0	0	-100	0	230	101300000	1000	0	0	-1	0
7902635	4005	0	0	-100	0	230	101300000	1000	0	0	-1	0
7915195	4011	0	0	-100	0	230	101300000	1000	0	0	-1	0
7927755	4003	0	0	-100	0	230	101300000	1000	0	0	-1	0
7940315	4006	1	0	-100	0	230	101300000	1000	0	0	-1	0
7952875	4004	0	0	-100	0	230	101300000	1000	0	0	-1	0
7965435	4006	0	0	-100	0	230	101300000	1000	0	0	-1	0
7977995	4002	0	0	-100	0	230	101300000	1000	0	0	-1	0
7990555	4003	2	0	-100	0	230	101300000	1000	0	0	-1	0
8003115	4008	0	0	-100	0	230	101300000	1000	0	0	-1	0
8015675	4002	0	0	-100	0	230	101300000	1000	0	0	-1	0
8028235	4001	2	0	-100	0	230	101300000	1000	0	0	-1	0
8040795	4006	0	0	-100	0	230	101300000	1000	0	0	-1	0
8053355	4006	0	0	-100	0	230	101300000	1000	0	0	-1	0
8065915	3998	0	0	-100	0	230	101300000	1000	0	0	-1	0
8078475	4004	1	0	-100	0	230	101300000	1000	0	0	-1	0
8091035	4004	3	0	-100	0	230	101300000	1000	0	0	-1	0
8103595	4002	1	0	-100	0	230	101300000	1000	0	0	-1	0
8116155	4015	0	0	-100	0	230	101300000	1000	0	0	-1	0
8128715	4008	0	0	-100	0	230	101300000	1000	0	0	-1	0
8141275	4005	0	0	-100	0	230	101300000	1000	0	0	-1	0
8153835	4011	0	0	-100	0	230	101300000	1000	0	0	-1	0
8166395	4011	0	0	-100	0	230	101300000	1000	0	0	-1	0
8178955	4008	0	0	-100	0	230	101300000	1000	0	0	-1	0
8191515	4009	0	0	-100	0	230	101300000	1000	0	0	-1	0
8204075	4006	0	0	-100	0	230	101300000	1000	0	0	-1	0
8216635	4003	0	0	-100	0	230	101300000	1000	0	0	-1	0
8229195	4000	0	0	-100	0	230	101300000	1000	0	0	-1	0
8241755	4001	0	0	-100	0	230	101300000	1000	0	0	-1	0
8254315	4004	3	0	-100	0	230	101300000	1000	0	0	-1	0
8266875	4004	0	0	-100	0	230	101300000	1000	0	0	-1	0
8279435	4004	0	0	-100	0	230	101300000	1000	0	0	-1	0
8291995	4006	0	0	-100	0	230	101300000	1000	0	0	-1	0
8304555	4007	0	0	-100	0	230	101300000	1000	0	0	-1	0
8317115	4004	0	0	-100	0	230	101300000	1000	0	0	-1	0
8329675	4002	4	0	-100	0	230	101300000	1000	0	0	-1	0
8342235	4005	0	0	-100	0	230	101300000	1000	0	0	-1	0
8354795	4008	0	0	-100	0	230	101300000	1000	0	0	-1	0
8367355	4000	0	0	-100	0	230	101300000	1000	0	0	-1	0
8379915	4005	2	0	-100	0	230	101300000	1000	0	0	-1	0
8392475	4001	1	0	-100	0	230	101300000	1000	0	0	-1	0
8405035	4010	0	0	-100	0	230	101300000	1000	0	0	-1	0
8417595	4011	0	0	-100	0	230	101300000	1000	0	0	-1	0
8430155	4011	0	0	-100	0	230	101300000	1000	0	0	-1	0
8442715	4001	4	0	-100	0	230	101300000	1000	0	0	-1	0
8455275	4003	0	0	-100	0	230	101300000	1000	0	0	-1	0
8467835	4005	0	0	-100	0	230	101300000	1000	0	0	-1	0
8480395	4007	0	0	-100	0	230	101300000	1000	0	0	-1	0
8492955	4005	0	0	-100	0	230	101300000	1000	0	0	-1	0
8505515	4003	0	0	-100	0	230	101300000	1000	0	0	-1	0
8518075	4002	3	0	-100	0	230	101300000	1000	0	0	-1	0
8530635	3999	0	0	-100	0	230	101300000	1000	0	0	-1	0
8543195	4003	0	0	-100	0	230	101300000	1000	0	0	-1	0
8555755	4015	0	0	-100	0	230	101300000	1000	0	0	-1	0
8568315	4011	0	0	-100	0	230	101300000	1000	0	0	-1	0
8580875	4006	0	0	-100	0	230	101300000	1000	0	0	-1	0
8593435	4004	0	0	-100	0	230	101300000	1000	0	0	-1	0
8605995	3999	0	0	-100	0	230	101300000	1000	0	0	-1	0
8618555	4005	1	0	-100	0	230	101300000	1000	0	0	-1	0
8631115	4000	0	0	-100	0	230	101300000	1000	0	0	-1	0
8643675	4008	0	0	-100	0	230	101300000	1000	0	0	-1	0
8656235	4009	0	0	-100	0	230	101300000	1000	0	0	-1	0
8668795	4003	0	0	-100	0	230	101300000	1000	0	0	-1	0
8681355	4002	0	0	-100	0	230	101300000	1000	0	0	-1	0
8693915	4002	3	0	-100	0	230	101300000	1000	0	0	-1	0
8706475	4006	0	0	-100	0	230	101300000	1000	0	0	-1	0
8719035	4008	0	0	-100	0	230	101300000	1000	0	0	-1	0
8731595	4008	0	0	-100	0	230	101300000	1000	0	0	-1	0
8744155	4008	0	0	-100	0	230	101300000	1000	0	0	-1	0
8756715	4007	4	0	-100	0	230	101300000	1000	0	0	-1	0
8769275	4003	2	0	-100	0	230	101300000	1000	0	0	-1	0
8781835	4010	0	0	-100	0	230	101300000	1000	0	0	-1	0
8794395	4008	0	0	-100	0	230	101300000	1000	0	0	-1	0
8806955	4004	0	0	-100	0	230	101300000	1000	0	0	-1	0
8819515	4004	0	0	-100	0	230	101300000	1000	0	0	-1	0
8832075	4000	0	0	-100	0	230	101300000	1000	0	0	-1	0
8844635	4002	1	0	-100	0	230	101300000	1000	0	0	-1	0
8857195	4005	2	0	-100	0	230	101300000	1000	0	0	-1	0
8869755	4005	4	0	-100	0	230	101300000	1000	0	0	-1	0
8882315	4001	3	0	-100	0	230	101300000	1000	0	0	-1	0
8894875	4002	2	0	-100	0	230	101300000	1000	0	0	-1	0
8907435	4000	3	0	-100	0	230	101300000	1000	0	0	-1	0
8919995	4001	0	0	-100	0	230	101300000	1000	0	0	-1	0
8932555	4001	2	0	-100	0	230	101300000	1000	0	0	-1	0
8945115	4002	4	0	-100	0	230	101300000	1000	0	0	-1	0
8957675	4005	4	0	-100	0	230	101300000	1000	0	0	-1	0
8970235	4004	4	0	-100	0	230	101300000	1000	0	0	-1	0
8982795	4004	4	0	-100	0	230	101300000	1000	0	0	-1	0
8995355	4003	5	0	-100	0	230	101300000	1000	0	0	-1	0
9007915	4003	4	0	-100	0	230	101300000	1000	0	0	-1	0
9020475	4004	0	0	-100	0	230	101300000	1000	0	0	-1	0
9033035	4003	0	0	-100	0	230	101300000	1000	0	0	-1	0
9045595	4003	4	0	-100	0	230	101300000	1000	0	0	-1	0
9058155	4007	3	0	-100	0	230	101300000	1000	0	0	-1	0
9070715	4004	3	0	-100	0	230	101300000	1000	0	0	-1	0
9083275	4000	4	0	-100	0	230	101300000	1000	0	0	-1	0
9095835	4004	3	0	-100	0	230	101300000	1000	0	0	-1	0
9108395	4001	3	0	-100	0	230	101300000	1000	0	0	-1	0
9120955	4001	1	0	-100	0	230	101300000	1000	0	0	-1	0
9133515	4005	0	0	-100	0	230	101300000	1000	0	0	-1	0
9146075	4009	0	0	-100	0	230	101300000	1000	0	0	-1	0
9158635	4010	0	0	-100	0	230	101300000	1000	0	0	-1	0
9171195	4006	0	0	-100	0	230	101300000	1000	0	0	-1	0
9183755	4005	0	0	-100	0	230	101300000	1000	0	0	-1	0
9196315	4011	0	0	-100	0	230	101300000	1000	0	0	-1	0
9208875	4008	0	0	-100	0	230	101300000	1000	0	0	-1	0
9221435	4006	0	0	-100	0	230	101300000	1000	0	0	-1	0
9233995	4003	0	0	-100	0	230	101300000	1000	0	0	-1	0
9246555	4001	1	0	-100	0	230	101300000	1000	0	0	-1	0
9259115	4004	4	0	-100	0	230	101300000	1000	0	0	-1	0
9271675	4004	3	0	-100	0	230	101300000	1000	0	0	-1	0
9284235	3998	2	0	-100	0	230	101300000	1000	0	0	-1	0
9296795	4004	2	0	-100	0	230	101300000	1000	0	0	-1	0
9309355	4004	0	0	-100	0	230	101300000	1000	0	0	-1	0
9321915	4010	0	0	-100	0	230	101300000	1000	0	0	-1	0
9334475	4009	0	0	-100	0	230	101300000	1000	0	0	-1	0
9347035	4009	0	0	-100	0	230	101300000	1000	0	0	-1	0
9359595	4008	0	0	-100	0	230	101300000	1000	0	0	-1	0
9372155	4012	3	0	-100	0	230	101300000	1000	0	0	-1	0
9384715	4006	0	0	-100	0	230	101300000	1000	0	0	-1	0
9397275	4005	0	0	-100	0	230	101300000	1000	0	0	-1	0
9409835	4001	0	0	-100	0	230	101300000	1000	0	0	-1	0
9422395	4003	3	0	-100	0	230	101300000	1000	0	0	-1	0
9434955	4011	0	0	-100	0	230	101300000	1000	0	0	-1	0
9447515	4005	0	0	-100	0	230	101300000	1000	0	0	-1	0
9460075	3999	0	0	-100	0	230	101300000	1000	0	0	-1	0
9472635	4004	1	0	-100	0	230	101300000	1000	0	0	-1	0
9485195	4003	0	0	-100	0	230	101300000	1000	0	0	-1	0
9497755	4003	0	0	-100	0	230	101300000	1000	0	0	-1	0
9510315	4002	0	0	-100	0	230	101300000	1000	0	0	-1	0
9522875	4008	0	0	-100	0	230	101300000	1000	0	0	-1	0
9535435	4000	0	0	-100	0	230	101300000	1000	0	0	-1	0
9547995	4001	0	0	-100	0	230	101300000	1000	0	0	-1	0
9560555	4008	0	0	-100	0	230	101300000	1000	0	0	-1	0
9573115	4000	0	0	-100	0	230	101300000	1000	0	0	-1	0
9585675	4004	0	0	-100	0	230	101300000	1000	0	0	-1	0
9598235	4006	0	0	-100	0	230	101300000	1000	0	0	-1	0
9610795	4003	4	0	-100	0	230	101300000	1000	0	0	-1	0
9623355	4004	0	0	-100	0	230	101300000	1000	0	0	-1	0
9635915	4008	0	0	-100	0	230	101300000	1000	0	0	-1	0
9648475	4004	4	0	-100	0	230	101300000	1000	0	0	-1	0
9661035	4006	0	0	-100	0	230	101300000	1000	0	0	-1	0
9673595	4005	0	0	-100	0	230	101300000	1000	0	0	-1	0
9686155	4005	3	0	-100	0	230	101300000	1000	0	0	-1	0
9698715	4009	0	0	-100	0	230	101300000	1000	0	0	-1	0
9711275	4006	0	0	-100	0	230	101300000	1000	0	0	-1	0
9723835	4003	4	0	-100	0	230	101300000	1000	0	0	-1	0
9736395	4004	0	0	-100	0	230	101300000	1000	0	0	-1	0
9748955	4002	0	0	-100	0	230	101300000	1000	0	0	-1	0
9761515	3999	0	0	-100	0	230	101300000	1000	0	0	-1	0
9774075	4004	2	0	-100	0	230	101300000	1000	0	0	-1	0
9786635	4008	0	0	-100	0	230	101300000	1000	0	0	-1	0
9799195	4002	0	0	-100	0	230	101300000	1000	0	0	-1	0
9811755	4004	0	0	-100	0	230	101300000	1000	0	0	-1	0
9824315	4006	0	0	-100	0	230	101300000	1000	0	0	-1	0
9836875	4005	4	0	-100	0	230	101300000	1000	0	0	-1	0
9849435	4010	0	0	-100	0	230	101300000	1000	0	0	-1	0
9861995	3999	0	0	-100	0	230	101300000	1000	0	0	-1	0
9874555	4001	1	0	-100	0	230	101300000	1000	0	0	-1	0
9887115	4009	0	0	-100	0	230	101300000	1000	0	0	-1	0
9899675	4003	0	0	-100	0	230	101300000	1000	0	0	-1	0
9912235	4000	0	0	-100	0	230	101300000	1000	0	0	-1	0
9924795	4008	0	0	-100	0	230	101300000	1000	0	0	-1	0
9937355	4003	0	0	-100	0	230	101300000	1000	0	0	-1	0
9949915	4002	0	0	-100	0	230	101300000	1000	0	0	-1	0
9962475	4008	0	0	-100	0	230	101300000	1000	0	0	-1	0
9975035	4003	0	0	-100	0	230	101300000	1000	0	0	-1	0
9987595	4002	1	0	-100	0	230	101300000	1000	0	0	-1	0
10000155	4016	0	0	-100	0	230	101300000	1000	0	0	-1	0
10012715	4005	4	0	-100	0	230	101300000	1000	0	0	-1	0
10025275	4011	0	0	-100	0	230	101300000	1000	0	0	-1	0
10037835	4001	0	0	-100	0	230	101300000	1000	0	0	-1	0
10050395	4004	0	0	-100	0	230	101300000	1000	0	0	-1	0
10062955	4005	0	0	-100	0	230	101300000	1000	0	0	-1	0
10075515	4003	4	0	-100	0	230	101300000	1000	0	0	-1	0
10088075	4006	0	0	-100	0	230	101300000	1000	0	0	-1	0
10100635	4002	3	0	-100	0	230	101300000	1000	0	0	-1	0
10113195	4009	0	0	-100	0	230	101300000	1000	0	0	-1	0
10125755	4000	0	0	-100	0	230	101300000	1000	0	0	-1	0
10138315	4008	0	0	-100	0	230	101300000	1000	0	0	-1	0
10150875	4002	0	0	-100	0	230	101300000	1000	0	0	-1	0
10163435	4002	4	0	-100	0	230	101300000	1000	0	0	-1	0
10175995	4011	4	0	-100	0	230	101300000	1000	0	0	-1	0
10188555	4003	0	0	-100	0	230	101300000	1000	0	0	-1	0
10201115	4002	3	0	-100	0	230	101300000	1000	0	0	-1	0
10213675	4010	0	0	-100	0	230	101300000	1000	0	0	-1	0
10226235	4002	0	0	-100	0	230	101300000	1000	0	0	-1	0
10238795	4000	4	0	-100	0	230	101300000	1000	0	0	-1	0
10251355	4012	0	0	-100	0	230	101300000	1000	0	0	-1	0
10263915	4005	0	0	-100	0	230	101300000	1000	0	0	-1	0
10276475	4005	5	0	-100	0	230	101300000	1000	0	0	-1	0
10289035	4009	0	0	-100	0	230	101300000	1000	0	0	-1	0
10301595	4003	0	0	-100	0	230	101300000	1000	0	0	-1	0
10314155	4010	2	0	-100	0	230	101300000	1000	0	0	-1	0
10326715	4006	0	0	-100	0	230	101300000	1000	0	0	-1	0
10339275	3999	0	0	-100	0	230	101300000	1000	0	0	-1	0
10351835	4005	0	0	-100	0	230	101300000	1000	0	0	-1	0
10364395	4009	0	0	-100	0	230	101300000	1000	0	0	-1	0
10376955	4009	4	0	-100	0	230	101300000	1000	0	0	-1	0
10389515	4003	0	0	-100	0	230	101300000	1000	0	0	-1	0
10402075	4002	0	0	-100	0	230	101300000	1000	0	0	-1	0
10414635	4005	5	0	-100	0	230	101300000	1000	0	0	-1	0
10427195	4004	0	0	-100	0	230	101300000	1000	0	0	-1	0
10439755	4005	0	0	-100	0	230	101300000	1000	0	0	-1	0
10452315	4003	4	0	-100	0	230	101300000	1000	0	0	-1	0
10464875	4006	0	0	-100	0	230	101300000	1000	0	0	-1	0
10477435	4000	0	0	-100	0	230	101300000	1000	0	0	-1	0
10489995	4004	0	0	-100	0	230	101300000	1000	0	0	-1	0
10502555	4009	0	0	-100	0	230	101300000	1000	0	0	-1	0
10515115	4003	3	0	-100	0	230	101300000	1000	0	0	-1	0
10527675	4009	0	0	-100	0	230	101300000	1000	0	0	-1	0
10540235	4005	3	0	-100	0	230	101300000	1000	0	0	-1	0
10552795	4009	0	0	-100	0	230	101300000	1000	0	0	-1	0
10565355	4001	4	0	-100	0	230	101300000	1000	0	0	-1	0
10577915	4008	0	0	-100	0	230	101300000	1000	0	0	-1	0
10590475	4002	6	0	-100	0	230	101300000	1000	0	0	-1	0
10603035	4005	0	0	-100	0	230	101300000	1000	0	0	-1	0
10615595	4007	4	0	-100	0	230	101300000	1000	0	0	-1	0
10628155	4015	0	0	-100	0	230	101300000	1000	0	0	-1	0
10640715	4000	3	0	-100	0	230	101300000	1000	0	0	-1	0
10653275	4011	0	0	-100	0	230	101300000	1000	0	0	-1	0
10665835	4000	2	0	-100	0	230	101300000	1000	0	0	-1	0
10678395	4008	0	0	-100	0	230	101300000	1000	0	0	-1	0
10690955	4002	1	0	-100	0	230	101300000	1000	0	0	-1	0
10703515	4001	0	0	-100	0	230	101300000	1000	0	0	-1	0
10716075	4004	0	0	-100	0	230	101300000	1000	0	0	-1	0
10728635	4006	0	0	-100	0	230	101300000	1000	0	0	-1	0
10741195	4000	2	0	-100	0	230	101300000	1000	0	0	-1	0
10753755	4011	0	0	-100	0	230	101300000	1000	0	0	-1	0
10766315	3999	0	0	-100	0	230	101300000	1000	0	0	-1	0
10778875	4005	0	0	-100	0	230	101300000	1000	0	0	-1	0
10791435	4004	0	0	-100	0	230	101300000	1000	0	0	-1	0
10803995	4001	0	0	-100	0	230	101300000	1000	0	0	-1	0
10816555	4009	0	0	-100	0	230	101300000	1000	0	0	-1	0
10829115	4001	0	0	-100	0	230	101300000	1000	0	0	-1	0
10841675	4000	2	0	-100	0	230	101300000	1000	0	0	-1	0
10854235	4006	0	0	-100	0	230	101300000	1000	0	0	-1	0
10866795	4001	3	0	-100	0	230	101300000	1000	0	0	-1	0
10879355	4009	0	0	-100	0	230	101300000	1000	0	0	-1	0
10891915	4003	0	0	-100	0	230	101300000	1000	0	0	-1	0
10904475	3999	3	0	-100	0	230	101300000	1000	0	0	-1	0
10917035	4011	0	0	-100	0	230	101300000	1000	0	0	-1	0
10929595	4007	4	0	-100	0	230	101300000	1000	0	0	-1	0
10942155	4017	0	0	-100	0	230	101300000	1000	0	0	-1	0
10954715	4002	0	0	-100	0	230	101300000	1000	0	0	-1	0
10967275	4006	0	0	-100	0	230	101300000	1000	0	0	-1	0
10979835	4003	0	0	-100	0	230	101300000	1000	0	0	-1	0
10992395	4005	1	0	-100	0	230	101300000	1000	0	0	-1	0
11004955	4008	0	0	-100	0	230	101300000	1000	0	0	-1	0
11017515	4000	0	0	-100	0	230	101300000	1000	0	0	-1	0
11030075	4006	0	0	-100	0	230	101300000	1000	0	0	-1	0
11042635	4001	0	0	-100	0	230	101300000	1000	0	0	-1	0
11055195	4004	1	0	-100	0	230	101300000	1000	0	0	-1	0
11067755	4005	0	0	-100	0	230	101300000	1000	0	0	-1	0
11080315	4003	4	0	-100	0	230	101300000	1000	0	0	-1	0
11092875	4012	0	0	-100	0	230	101300000	1000	0	0	-1	0
11105435	4004	0	0	-100	0	230	101300000	1000	0	0	-1	0
11117995	4005	0	0	-100	0	230	101300000	1000	0	0	-1	0
11130555	4008	0	0	-100	0	230	101300000	1000	0	0	-1	0
11143115	4006	0	0	-100	0	230	101300000	1000	0	0	-1	0
11155675	4004	4	0	-100	0	230	101300000	1000	0	0	-1	0
11168235	4005	0	0	-100	0	230	101300000	1000	0	0	-1	0
11180795	4004	0	0	-100	0	230	101300000	1000	0	0	-1	0
11193355	4001	0	0	-100	0	230	101300000	1000	0	0	-1	0
11205915	4002	3	0	-100	0	230	101300000	1000	0	0	-1	0
11218475	4010	0	0	-100	0	230	101300000	1000	0	0	-1	0
11231035	4004	0	0	-100	0	230	101300000	1000	0	0	-1	0
11243595	4003	4	0	-100	0	230	101300000	1000	0	0	-1	0
11256155	4018	0	0	-100	0	230	101300000	1000	0	0	-1	0
11268715	4000	0	0	-100	0	230	101300000	1000	0	0	-1	0
11281275	4000	4	0	-100	0	230	101300000	1000	0	0	-1	0
11293835	4009	0	0	-100	0	230	101300000	1000	0	0	-1	0
11306395	4003	1	0	-100	0	230	101300000	1000	0	0	-1	0
11318955	4005	0	0	-100	0	230	101300000	1000	0	0	-1	0
11331515	4004	0	0	-100	0	230	101300000	1000	0	0	-1	0
11344075	3998	2	0	-100	0	230	101300000	1000	0	0	-1	0
11356635	4009	0	0	-100	0	230	101300000	1000	0	0	-1	0
11369195	3999	0	0	-100	0	230	101300000	1000	0	0	-1	0
11381755	4001	0	0	-100	0	230	101300000	1000	0	0	-1	0
11394315	4010	0	0	-100	0	230	101300000	1000	0	0	-1	0
11406875	4000	0	0	-100	0	230	101300000	1000	0	0	-1	0
11419435	4004	3	0	-100	0	230	101300000	1000	0	0	-1	0
11431995	4004	0	0	-100	0	230	101300000	1000	0	0	-1	0
11444555	4009	0	0	-100	0	230	101300000	1000	0	0	-1	0
11457115	4000	0	0	-100	0	230	101300000	1000	0	0	-1	0
11469675	4000	0	0	-100	0	230	101300000	1000	0	0	-1	0
11482235	4008	0	0	-100	0	230	101300000	1000	0	0	-1	0
11494795	4002	0	0	-100	0	230	101300000	1000	0	0	-1	0
11507355	4003	0	0	-100	0	230	101300000	1000	0	0	-1	0
11519915	4010	0	0	-100	0	230	101300000	1000	0	0	-1	0
11532475	3999	0	0	-100	0	230	101300000	1000	0	0	-1	0
11545035	4002	1	0	-100	0	230	101300000	1000	0	0	-1	0
11557595	4007	0	0	-100	0	230	101300000	1000	0	0	-1	0
11570155	4008	0	0	-100	0	230	101300000	1000	0	0	-1	0
11582715	4000	4	0	-100	0	230	101300000	1000	0	0	-1	0
11595275	4006	0	0	-100	0	230	101300000	1000	0	0	-1	0
11607835	4004	0	0	-100	0	230	101300000	1000	0	0	-1	0
11620395	3998	0	0	-100	0	230	101300000	1000	0	0	-1	0
11632955	4004	0	0	-100	0	230	101300000	1000	0	0	-1	0
11645515	4005	0	0	-100	0	230	101300000	1000	0	0	-1	0
11658075	4004	4	0	-100	0	230	101300000	1000	0	0	-1	0
11670635	4008	0	0	-100	0	230	101300000	1000	0	0	-1	0
11683195	4001	0	0	-100	0	230	101300000	1000	0	0	-1	0
11695755	4000	2	0	-100	0	230	101300000	1000	0	0	-1	0
11708315	4009	0	0	-100	0	230	101300000	1000	0	0	-1	0
11720875	4004	3	0	-100	0	230	101300000	1000	0	0	-1	0
11733435	4014	0	0	-100	0	230	101300000	1000	0	0	-1	0
11745995	4003	0	0	-100	0	230	101300000	1000	0	0	-1	0
11758555	4000	2	0	-100	0	230	101300000	1000	0	0	-1	0
11771115	4011	0	0	-100	0	230	101300000	1000	0	0	-1	0
11783675	3997	0	0	-100	0	230	101300000	1000	0	0	-1	0
11796235	4002	1	0	-100	0	230	101300000	1000	0	0	-1	0
11808795	4008	0	0	-100	0	230	101300000	1000	0	0	-1	0
11821355	4005	1	0	-100	0	230	101300000	1000	0	0	-1	0
11833915	4004	0	0	-100	0	230	101300000	1000	0	0	-1	0
11846475	4003	0	0	-100	0	230	101300000	1000	0	0	-1	0
11859035	4001	0	0	-100	0	230	101300000	1000	0	0	-1	0
11871595	4010	0	0	-100	0	230	101300000	1000	0	0	-1	0
11884155	4007	3	0	-100	0	230	101300000	1000	0	0	-1	0
11896715	4009	0	0	-100	0	230	101300000	1000	0	0	-1	0
11909275	4000	4	0	-100	0	230	101300000	1000	0	0	-1	0
11921835	4005	0	0	-100	0	230	101300000	1000	0	0	-1	0
11934395	4005	3	0	-100	0	230	101300000	1000	0	0	-1	0
11946955	4006	0	0	-100	0	230	101300000	1000	0	0	-1	0
11959515	4006	0	0	-100	0	230	101300000	1000	0	0	-1	0
11972075	4006	0	0	-100	0	230	101300000	1000	0	0	-1	0
11984635	4005	0	0	-100	0	230	101300000	1000	0	0	-1	0
11997195	4004	0	0	-100	0	230	101300000	1000	0	0	-1	0
12009755	4009	0	0	-100	0	230	101300000	1000	0	0	-1	0
12022315	4004	4	0	-100	0	230	101300000	1000	0	0	-1	0
12034875	4008	0	0	-100	0	230	101300000	1000	0	0	-1	0
12047435	3999	1	0	-100	0	230	101300000	1000	0	0	-1	0
12059995	4008	0	0	-100	0	230	101300000	1000	0	0	-1	0
12072555	4000	2	0	-100	0	230	101300000	1000	0	0	-1	0
12085115	4004	0	0	-100	0	230	101300000	1000	0	0	-1	0
12097675	4005	3	0	-100	0	230	101300000	1000	0	0	-1	0
12110235	4009	0	0	-100	0	230	101300000	1000	0	0	-1	0
12122795	3998	2	0	-100	0	230	101300000	1000	0	0	-1	0
12135355	4002	0	0	-100	0	230	101300000	1000	0	0	-1	0
12147915	4007	0	0	-100	0	230	101300000	1000	0	0	-1	0
12160475	4004	2	0	-100	0	230	101300000	1000	0	0	-1	0
12173035	4006	0	0	-100	0	230	101300000	1000	0	0	-1	0
12185595	3999	1	0	-100	0	230	101300000	1000	0	0	-1	0
12198155	4009	0	0	-100	0	230	101300000	1000	0	0	-1	0
12210715	4006	0	0	-100	0	230	101300000	1000	0	0	-1	0
12223275	4002	5	0	-100	0	230	101300000	1000	0	0	-1	0
12235835	4006	0	0	-100	0	230	101300000	1000	0	0	-1	0
12248395	4010	0	0	-100	0	230	101300000	1000	0	0	-1	0
12260955	4001	0	0	-100	0	230	101300000	1000	0	0	-1	0
12273515	4010	0	0	-100	0	230	101300000	1000	0	0	-1	0
12286075	4000	4	0	-100	0	230	101300000	1000	0	0	-1	0
12298635	4003	0	0	-100	0	230	101300000	1000	0	0	-1	0
12311195	4010	0	0	-100	0	230	101300000	1000	0	0	-1	0
12323755	4002	0	0	-100	0	230	101300000	1000	0	0	-1	0
12336315	4003	0	0	-100	0	230	101300000	1000	0	0	-1	0
12348875	4009	0	0	-100	0	230	101300000	1000	0	0	-1	0
12361435	3998	2	0	-100	0	230	101300000	1000	0	0	-1	0
12373995	4004	0	0	-100	0	230	101300000	1000	0	0	-1	0
12386555	4010	0	0	-100	0	230	101300000	1000	0	0	-1	0
12399115	4006	4	0	-100	0	230	101300000	1000	0	0	-1	0
12411675	4009	0	0	-100	0	230	101300000	1000	0	0	-1	0
12424235	4002	4	0	-100	0	230	101300000	1000	0	0	-1	0
12436795	4006	0	0	-100	0	230	101300000	1000	0	0	-1	0
12449355	3999	2	0	-100	0	230	101300000	1000	0	0	-1	0
12461915	4000	0	0	-100	0	230	101300000	1000	0	0	-1	0
12474475	4006	0	0	-100	0	230	101300000	1000	0	0	-1	0
12487035	4005	0	0	-100	0	230	101300000	1000	0	0	-1	0
12499595	4006	0	0	-100	0	230	101300000	1000	0	0	-1	0
12512155	4014	0	0	-100	0	230	101300000	1000	0	0	-1	0
12524715	4008	0	0	-100	0	230	101300000	1000	0	0	-1	0
12537275	4006	0	0	-100	0	230	101300000	1000	0	0	-1	0
12549835	4008	0	0	-100	0	230	101300000	1000	0	0	-1	0
12562395	4002	0	0	-100	0	230	101300000	1000	0	0	-1	0
12574955	4005	3	0	-100	0	230	101300000	1000	0	0	-1	0
12587515	4000	0	0	-100	0	230	101300000	1000	0	0	-1	0
12600075	4004	0	0	-100	0	230	101300000	1000	0	0	-1	0
12612635	4011	0	0	-100	0	230	101300000	1000	0	0	-1	0
12625195	4000	0	0	-100	0	230	101300000	1000	0	0	-1	0
12637755	4003	3	0	-100	0	230	101300000	1000	0	0	-1	0
12650315	4004	0	0	-100	0	230	101300000	1000	0	0	-1	0
12662875	4006	0	0	-100	0	230	101300000	1000	0	0	-1	0
12675435	4003	2	0	-100	0	230	101300000	1000	0	0	-1	0
12687995	4002	0	0	-100	0	230	101300000	1000	0	0	-1	0
12700555	4005	0	0	-100	0	230	101300000	1000	0	0	-1	0
12713115	4008	0	0	-100	0	230	101300000	1000	0	0	-1	0
12725675	4004	0	0	-100	0	230	101300000	1000	0	0	-1	0
12738235	4006	0	0	-100	0	230	101300000	1000	0	0	-1	0
12750795	4003	1	0	-100	0	230	101300000	1000	0	0	-1	0
12763355	4003	4	0	-100	0	230	101300000	1000	0	0	-1	0
12775915	4003	4	0	-100	0	230	101300000	1000	0	0	-1	0
12788475	4004	3	0	-100	0	230	101300000	1000	0	0	-1	0
12801035	4003	0	0	-100	0	230	101300000	1000	0	0	-1	0
12813595	4010	0	0	-100	0	230	101300000	1000	0	0	-1	0
12826155	4005	3	0	-100	0	230	101300000	1000	0	0	-1	0
12838715	3999	0	0	-100	0	230	101300000	1000	0	0	-1	0
12851275	4008	0	0	-100	0	230	101300000	1000	0	0	-1	0
12863835	4004	0	0	-100	0	230	101300000	1000	0	0	-1	0
12876395	4005	2	0	-100	0	230	101300000	1000	0	0	-1	0
12888955	4008	0	0	-100	0	230	101300000	1000	0	0	-1	0
12901515	4003	0	0	-100	0	230	101300000	1000	0	0	-1	0
12914075	4003	0	0	-100	0	230	101300000	1000	0	0	-1	0
12926635	4010	0	0	-100	0	230	101300000	1000	0	0	-1	0
12939195	3999	0	0	-100	0	230	101300000	1000	0	0	-1	0
12951755	4010	0	0	-100	0	230	101300000	1000	0	0	-1	0
12964315	4000	0	0	-100	0	230	101300000	1000	0	0	-1	0
12976875	4010	0	0	-100	0	230	101300000	1000	0	0	-1	0
12989435	4009	0	0	-100	0	230	101300000	1000	0	0	-1	0
13001995	4000	0	0	-100	0	230	101300000	1000	0	0	-1	0
13014555	4010	0	0	-100	0	230	101300000	1000	0	0	-1	0
13027115	4006	3	0	-100	0	230	101300000	1000	0	0	-1	0
13039675	4006	0	0	-100	0	230	101300000	1000	0	0	-1	0
13052235	4001	0	0	-100	0	230	101300000	1000	0	0	-1	0
13064795	4000	0	0	-100	0	230	101300000	1000	0	0	-1	0
13077355	4004	0	0	-100	0	230	101300000	1000	0	0	-1	0
13089915	4000	3	0	-100	0	230	101300000	1000	0	0	-1	0
13102475	4006	0	0	-100	0	230	101300000	1000	0	0	-1	0
13115035	4001	1	0	-100	0	230	101300000	1000	0	0	-1	0
13127595	4005	0	0	-100	0	230	101300000	1000	0	0	-1	0
13140155	4008	1	0	-100	0	230	101300000	1000	0	0	-1	0
13152715	4004	0	0	-100	0	230	101300000	1000	0	0	-1	0
13165275	4000	3	0	-100	0	230	101300000	1000	0	0	-1	0
13177835	4009	0	0	-100	0	230	101300000	1000	0	0	-1	0
13190395	4004	3	0	-100	0	230	101300000	1000	0	0	-1	0
13202955	4006	0	0	-100	0	230	101300000	1000	0	0	-1	0
13215515	4004	0	0	-100	0	230	101300000	1000	0	0	-1	0
13228075	4003	0	0	-100	0	230	101300000	1000	0	0	-1	0
13240635	3995	0	0	-100	0	230	101300000	1000	0	0	-1	0
13265755	4006	0	0	-100	0	230	1000000	1000	0	0	-1	0
13278315	4003	0	0	-100	0	230	101300000	1000	0	0	-1	0
13290875	4007	0	0	-100	0	230	101300000	1000	0	0	-1	0
13303435	3996	0	0	-100	0	230	101300000	1000	0	0	-1	0
13315995	4008	3	0	-100	0	230	101300000	1000	0	0	-1	0
13328555	4000	4	0	-100	0	230	101300000	1000	0	0	-1	0
13341115	4005	0	0	-100	0	230	101300000	1000	0	0	-1	0
13353675	4001	1	0	-100	0	230	101300000	1000	0	0	-1	0
13366235	4006	0	0	-100	0	230	101300000	1000	0	0	-1	0
13378795	4003	0	0	-100	0	230	101300000	1000	0	0	-1	0
13391355	4004	0	0	-100	0	230	101300000	1000	0	0	-1	0
13403915	4007	0	0	-100	0	230	101300000	1000	0	0	-1	0
13416475	4004	1	0	-100	0	230	101300000	1000	0	0	-1	0
13429035	4008	0	0	-100	0	230	101300000	1000	0	0	-1	0
13441595	4002	4	0	-100	0	230	101300000	1000	0	0	-1	0
13454155	4015	0	0	-100	0	230	101300000	1000	0	0	-1	0
13466715	3999	1	0	-100	0	230	101300000	1000	0	0	-1	0
13479275	3999	0	0	-100	0	230	101300000	1000	0	0	-1	0
13491835	4002	0	0	-100	0	230	101300000	1000	0	0	-1	0
13504395	3997	0	0	-100	0	230	101300000	1000	0	0	-1	0
13516955	4009	0	0	-100	0	230	101300000	1000	0	0	-1	0
13529515	4000	4	0	-100	0	230	101300000	1000	0	0	-1	0
13542075	4004	0	0	-100	0	230	101300000	1000	0	0	-1	0
13554635	4004	1	0	-100	0	230	101300000	1000	0	0	-1	0
13567195	4004	0	0	-100	0	230	101300000	1000	0	0	-1	0
13579755	4008	0	0	-100	0	230	101300000	1000	0	0	-1	0
13592315	4003	4	0	-100	0	230	101300000	1000	0	0	-1	0
13604875	4004	0	0	-100	0	230	101300000	1000	0	0	-1	0
13617435	4004	0	0	-100	0	230	101300000	1000	0	0	-1	0
13629995	4003	0	0	-100	0	230	101300000	1000	0	0	-1	0
13642555	4010	0	0	-100	0	230	101300000	1000	0	0	-1	0
13655115	4001	2	0	-100	0	230	101300000	1000	0	0	-1	0
13667675	4003	0	0	-100	0	230	101300000	1000	0	0	-1	0
13680235	4006	0	0	-100	0	230	101300000	1000	0	0	-1	0
13692795	4002	4	0	-100	0	230	101300000	1000	0	0	-1	0
13705355	4001	0	0	-100	0	230	101300000	1000	0	0	-1	0
13717915	4011	0	0	-100	0	230	101300000	1000	0	0	-1	0
13730475	3999	0	0	-100	0	230	101300000	1000	0	0	-1	0
13743035	4006	0	0	-100	0	230	101300000	1000	0	0	-1	0
13755595	4005	3	0	-100	0	230	101300000	1000	0	0	-1	0
13768155	4016	0	0	-100	0	230	101300000	1000	0	0	-1	0
13780715	3999	1	0	-100	0	230	101300000	1000	0	0	-1	0
13793275	4003	0	0	-100	0	230	101300000	1000	0	0	-1	0
13805835	4006	0	0	-100	0	230	101300000	1000	0	0	-1	0
13818395	4001	4	0	-100	0	230	101300000	1000	0	0	-1	0
13830955	4009	0	0	-100	0	230	101300000	1000	0	0	-1	0
13843515	4002	0	0	-100	0	230	101300000	1000	0	0	-1	0
13856075	3998	0	0	-100	0	230	101300000	1000	0	0	-1	0
13868635	4006	0	0	-100	0	230	101300000	1000	0	0	-1	0
13881195	4000	3	0	-100	0	230	101300000	1000	0	0	-1	0
13893755	4008	0	0	-100	0	230	101300000	1000	0	0	-1	0
13906315	4001	2	0	-100	0	230	101300000	1000	0	0	-1	0
13918875	4009	0	0	-100	0	230	101300000	1000	0	0	-1	0
13931435	4003	2	0	-100	0	230	101300000	1000	0	0	-1	0
13943995	4005	2	0	-100	0	230	101300000	1000	0	0	-1	0
13956555	4002	4	0	-100	0	230	101300000	1000	0	0	-1	0
13969115	4010	0	0	-100	0	230	101300000	1000	0	0	-1	0
13981675	4003	2	0	-100	0	230	101300000	1000	0	0	-1	0
13994235	4012	0	0	-100	0	230	101300000	1000	0	0	-1	0
14006795	4003	0	0	-100	0	230	101300000	1000	0	0	-1	0
14019355	4002	1	0	-100	0	230	101300000	1000	0	0	-1	0
14031915	4005	0	0	-100	0	230	101300000	1000	0	0	-1	0
14044475	4000	2	0	-100	0	230	101300000	1000	0	0	-1	0
14057035	4003	0	0	-100	0	230	101300000	1000	0	0	-1	0
14069595	4005	0	0	-100	0	230	101300000	1000	0	0	-1	0
14082155	4011	0	0	-100	0	230	101300000	1000	0	0	-1	0
14094715	4011	0	0	-100	0	230	101300000	1000	0	0	-1	0
14107275	3999	4	0	-100	0	230	101300000	1000	0	0	-1	0
14119835	4006	0	0	-100	0	230	101300000	1000	0	0	-1	0
14132395	4007	4	0	-100	0	230	101300000	1000	0	0	-1	0
14144955	4008	0	0	-100	0	230	101300000	1000	0	0	-1	0
14157515	4001	0	0	-100	0	230	101300000	1000	0	0	-1	0
14170075	4008	0	0	-100	0	230	101300000	1000	0	0	-1	0
14182635	4000	4	0	-100	0	230	101300000	1000	0	0	-1	0
14195195	4009	0	0	-100	0	230	101300000	1000	0	0	-1	0
14207755	4004	3	0	-100	0	230	101300000	1000	0	0	-1	0
14220315	4001	0	0	-100	0	230	101300000	1000	0	0	-1	0
14232875	4010	0	0	-100	0	230	101300000	1000	0	0	-1	0
14245435	4002	4	0	-100	0	230	101300000	1000	0	0	-1	0
14257995	4008	1	0	-100	0	230	101300000	1000	0	0	-1	0
14270555	4000	3	0	-100	0	230	101300000	1000	0	0	-1	0
14283115	4009	0	0	-100	0	230	101300000	1000	0	0	-1	0
14295675	4002	1	0	-100	0	230	101300000	1000	0	0	-1	0
14308235	4004	0	0	-100	0	230	101300000	1000	0	0	-1	0
14320795	4004	0	0	-100	0	230	101300000	1000	0	0	-1	0
14333355	4002	0	0	-100	0	230	101300000	1000	0	0	-1	0
14345915	4005	0	0	-100	0	230	101300000	1000	0	0	-1	0
14358475	4001	4	0	-100	0	230	101300000	1000	0	0	-1	0
14371035	4008	0	0	-100	0	230	101300000	1000	0	0	-1	0
14383595	4001	4	0	-100	0	230	101300000	1000	0	0	-1	0
14396155	4016	0	0	-100	0	230	101300000	1000	0	0	-1	0
14408715	4001	1	0	-100	0	230	101300000	1000	0	0	-1	0
14421275	4003	0	0	-100	0	230	101300000	1000	0	0	-1	0
14433835	4004	0	0	-100	0	230	101300000	1000	0	0	-1	0
14446395	4005	4	0	-100	0	230	101300000	1000	0	0	-1	0
14458955	4005	0	0	-100	0	230	101300000	1000	0	0	-1	0
14471515	4004	0	0	-100	0	230	101300000	1000	0	0	-1	0
14484075	3996	0	0	-100	0	230	101300000	1000	0	0	-1	0
14496635	4009	0	0	-100	0	230	101300000	1000	0	0	-1	0
14509195	4001	0	0	-100	0	230	101300000	1000	0	0	-1	0
14521755	4002	0	0	-100	0	230	101300000	1000	0	0	-1	0
14534315	4008	0	0	-100	0	230	101300000	1000	0	0	-1	0
14546875	4000	0	0	-100	0	230	101300000	1000	0	0	-1	0
14559435	4006	0	0	-100	0	230	101300000	1000	0	0	-1	0
14571995	4003	0	0	-100	0	230	101300000	1000	0	0	-1	0
14584555	4004	0	0	-100	0	230	101300000	1000	0	0	-1	0
14597115	4001	1	0	-100	0	230	101300000	1000	0	0	-1	0
14609675	4003	0	0	-100	0	230	101300000	1000	0	0	-1	0
14622235	4007	0	0	-100	0	230	101300000	1000	0	0	-1	0
14634795	4004	5	0	-100	0	230	101300000	1000	0	0	-1	0
14647355	4008	0	0	-100	0	230	101300000	1000	0	0	-1	0
14659915	4004	0	0	-100	0	230	101300000	1000	0	0	-1	0
14672475	4001	0	0	-100	0	230	101300000	1000	0	0	-1	0
14685035	4006	0	0	-100	0	230	101300000	1000	0	0	-1	0
14697595	3999	4	0	-100	0	230	101300000	1000	0	0	-1	0
14710155	4011	0	0	-100	0	230	101300000	1000	0	0	-1	0
14722715	4010	0	0	-100	0	230	101300000	1000	0	0	-1	0
14735275	4006	4	0	-100	0	230	101300000	1000	0	0	-1	0
14747835	4009	0	0	-100	0	230	101300000	1000	0	0	-1	0
14760395	4003	4	0	-100	0	230	101300000	1000	0	0	-1	0
14772955	4009	0	0	-100	0	230	101300000	1000	0	0	-1	0
14785515	4006	3	0	-100	0	230	101300000	1000	0	0	-1	0
14798075	4010	0	0	-100	0	230	101300000	1000	0	0	-1	0
14810635	4001	0	0	-100	0	230	101300000	1000	0	0	-1	0
14823195	4009	0	0	-100	0	230	101300000	1000	0	0	-1	0
14835755	4002	0	0	-100	0	230	101300000	1000	0	0	-1	0
14848315	4006	0	0	-100	0	230	101300000	1000	0	0	-1	0
14860875	4001	0	0	-100	0	230	101300000	1000	0	0	-1	0
14873435	4003	1	0	-100	0	230	101300000	1000	0	0	-1	0
14885995	3999	0	0	-100	0	230	101300000	1000	0	0	-1	0
14898555	4009	0	0	-100	0	230	101300000	1000	0	0	-1	0
14911115	4004	0	0	-100	0	230	101300000	1000	0	0	-1	0
14923675	4009	0	0	-100	0	230	101300000	1000	0	0	-1	0
14936235	4003	0	0	-100	0	230	101300000	1000	0	0	-1	0
14948795	4003	2	0	-100	0	230	101300000	1000	0	0	-1	0
14961355	4004	0	0	-100	0	230	101300000	1000	0	0	-1	0
14973915	4000	2	0	-100	0	230	101300000	1000	0	0	-1	0
14986475	4001	0	0	-100	0	230	101300000	1000	0	0	-1	0
14999035	4005	0	0	-100	0	230	101300000	1000	0	0	-1	0
15011595	4001	0	0	-100	0	230	101300000	1000	0	0	-1	0
15024155	4015	0	0	-100	0	230	101300000	1000	0	0	-1	0
15036715	3999	0	0	-100	0	230	101300000	1000	0	0	-1	0
15049275	4006	0	0	-100	0	230	101300000	1000	0	0	-1	0
15061835	4001	0	0	-100	0	230	101300000	1000	0	0	-1	0
15074395	3999	2	0	-100	0	230	101300000	1000	0	0	-1	0
15086955	4002	0	0	-100	0	230	101300000	1000	0	0	-1	0
15099515	4005	0	0	-100	0	230	101300000	1000	0	0	-1	0
15112075	4004	0	0	-100	0	230	101300000	1000	0	0	-1	0
15124635	4009	0	0	-100	0	230	101300000	1000	0	0	-1	0
15137195	4004	4	0	-100	0	230	101300000	1000	0	0	-1	0
15149755	4009	0	0	-100	0	230	101300000	1000	0	0	-1	0
15162315	4000	2	0	-100	0	230	101300000	1000	0	0	-1	0
15174875	4005	0	0	-100	0	230	101300000	1000	0	0	-1	0
15187435	4004	0	0	-100	0	230	101300000	1000	0	0	-1	0
15199995	3999	0	0	-100	0	230	101300000	1000	0	0	-1	0
15212555	4006	0	0	-100	0	230	101300000	1000	0	0	-1	0
15225115	3998	0	0	-100	0	230	101300000	1000	0	0	-1	0
15237675	4008	0	0	-100	0	230	101300000	1000	0	0	-1	0
15250235	4001	2	0	-100	0	230	101300000	1000	0	0	-1	0
15262795	4004	0	0	-100	0	230	101300000	1000	0	0	-1	0
15275355	4009	0	0	-100	0	230	101300000	1000	0	0	-1	0
15287915	4001	0	0	-100	0	230	101300000	1000	0	0	-1	0
15300475	4007	0	0	-100	0	230	101300000	1000	0	0	-1	0
15313035	4003	4	0	-100	0	230	101300000	1000	0	0	-1	0
15325595	4006	0	0	-100	0	230	101300000	1000	0	0	-1	0
15338155	4008	2	0	-100	0	230	101300000	1000	0	0	-1	0
15350715	4008	0	0	-100	0	230	101300000	1000	0	0	-1	0
15363275	4002	3	0	-100	0	230	101300000	1000	0	0	-1	0
15375835	4006	0	0	-100	0	230	101300000	1000	0	0	-1	0
15388395	3999	2	0	-100	0	230	101300000	1000	0	0	-1	0
15400955	4003	0	0	-100	0	230	101300000	1000	0	0	-1	0
15413515	4010	0	0	-100	0	230	101300000	1000	0	0	-1	0
15426075	4001	1	0	-100	0	230	101300000	1000	0	0	-1	0
15438635	4008	0	0	-100	0	230	101300000	1000	0	0	-1	0
15451195	4005	2	0	-100	0	230	101300000	1000	0	0	-1	0
15463755	4005	0	0	-100	0	230	101300000	1000	0	0	-1	0
15476315	4001	1	0	-100	0	230	101300000	1000	0	0	-1	0
15488875	4004	0	0	-100	0	230	101300000	1000	0	0	-1	0
15501435	4004	0	0	-100	0	230	101300000	1000	0	0	-1	0
15513995	4002	0	0	-100	0	230	101300000	1000	0	0	-1	0
15526555	4001	1	0	-100	0	230	101300000	1000	0	0	-1	0
15539115	4004	0	0	-100	0	230	101300000	1000	0	0	-1	0
15551675	4005	0	0	-100	0	230	101300000	1000	0	0	-1	0
15564235	4000	0	0	-100	0	230	101300000	1000	0	0	-1	0
15576795	4003	0	0	-100	0	230	101300000	1000	0	0	-1	0
15589355	4001	0	0	-100	0	230	101300000	1000	0	0	-1	0
15601915	4008	0	0	-100	0	230	101300000	1000	0	0	-1	0
15614475	4000	0	0	-100	0	230	101300000	1000	0	0	-1	0
15627035	4010	0	0	-100	0	230	101300000	1000	0	0	-1	0
15639595	3998	0	0	-100	0	230	101300000	1000	0	0	-1	0
15652155	4016	0	0	-100	0	230	101300000	1000	0	0	-1	0
15664715	4005	4	0	-100	0	230	101300000	1000	0	0	-1	0
15677275	4008	0	0	-100	0	230	101300000	1000	0	0	-1	0
15689835	4003	4	0	-100	0	230	101300000	1000	0	0	-1	0
15702395	4003	0	0	-100	0	230	101300000	1000	0	0	-1	0
15714955	4004	3	0	-100	0	230	101300000	1000	0	0	-1	0
15727515	4005	0	0	-100	0	230	101300000	1000	0	0	-1	0
15740075	4001	3	0	-100	0	230	101300000	1000	0	0	-1	0
15752635	4008	0	0	-100	0	230	101300000	1000	0	0	-1	0
15765195	4001	3	0	-100	0	230	101300000	1000	0	0	-1	0
15777755	4009	0	0	-100	0	230	101300000	1000	0	0	-1	0
15790315	4004	3	0	-100	0	230	101300000	1000	0	0	-1	0
15802875	4006	0	0	-100	0	230	101300000	1000	0	0	-1	0
15815435	4003	0	0	-100	0	230	101300000	1000	0	0	-1	0
15827995	4010	4	0	-100	0	230	101300000	1000	0	0	-1	0
15840555	4000	0	0	-100	0	230	101300000	1000	0	0	-1	0
15853115	4009	0	0	-100	0	230	101300000	1000	0	0	-1	0
15865675	4005	0	0	-100	0	230	101300000	1000	0	0	-1	0
15878235	4009	0	0	-100	0	230	101300000	1000	0	0	-1	0
15890795	4001	2	0	-100	0	230	101300000	1000	0	0	-1	0
15903355	4001	0	0	-100	0	230	101300000	1000	0	0	-1	0
15915915	4005	0	0	-100	0	230	101300000	1000	0	0	-1	0
15928475	4003	0	0	-100	0	230	101300000	1000	0	0	-1	0
15941035	4009	0	0	-100	0	230	101300000	1000	0	0	-1	0
15953595	4000	2	0	-100	0	230	101300000	1000	0	0	-1	0
15966155	4009	0	0	-100	0	230	101300000	1000	0	0	-1	0
15978715	4009	0	0	-100	0	230	101300000	1000	0	0	-1	0
15991275	4001	2	0	-100	0	230	101300000	1000	0	0	-1	0
16003835	4000	0	0	-100	0	230	101300000	1000	0	0	-1	0
16016395	4009	0	0	-100	0	230	101300000	1000	0	0	-1	0
16028955	4000	2	0	-100	0	230	101300000	1000	0	0	-1	0
16041515	4003	3	0	-100	0	230	101300000	1000	0	0	-1	0
16054075	4008	0	0	-100	0	230	101300000	1000	0	0	-1	0
16066635	4009	0	0	-100	0	230	101300000	1000	0	0	-1	0
16079195	4004	4	0	-100	0	230	101300000	1000	0	0	-1	0
16091755	4005	0	0	-100	0	230	101300000	1000	0	0	-1	0
16104315	4008	0	0	-100	0	230	101300000	1000	0	0	-1	0
16116875	3999	3	0	-100	0	230	101300000	1000	0	0	-1	0
16129435	4001	0	0	-100	0	230	101300000	1000	0	0	-1	0
16141995	4008	4	0	-100	0	230	101300000	1000	0	0	-1	0
16154555	4003	3	0	-100	0	230	101300000	1000	0	0	-1	0
16167115	4000	0	0	-100	0	230	101300000	1000	0	0	-1	0
16179675	4004	0	0	-100	0	230	101300000	1000	0	0	-1	0
16192235	4006	0	0	-100	0	230	101300000	1000	0	0	-1	0
16204795	4004	4	0	-100	0	230	101300000	1000	0	0	-1	0
16217355	4005	0	0	-100	0	230	101300000	1000	0	0	-1	0
16229915	4003	0	0	-100	0	230	101300000	1000	0	0	-1	0
16242475	3998	0	0	-100	0	230	101300000	1000	0	0	-1	0
16255035	4009	0	0	-100	0	230	101300000	1000	0	0	-1	0
16267595	4002	0	0	-100	0	230	101300000	1000	0	0	-1	0
16280155	4011	1	0	-100	0	230	101300000	1000	0	0	-1	0
16292715	4006	0	0	-100	0	230	101300000	1000	0	0	-1	0
16305275	4004	0	0	-100	0	230	101300000	1000	0	0	-1	0
16317835	3998	0	0	-100	0	230	101300000	1000	0	0	-1	0
16330395	4009	0	0	-100	0	230	101300000	1000	0	0	-1	0
16342955	4000	3	0	-100	0	230	101300000	1000	0	0	-1	0
16355515	4006	0	0	-100	0	230	101300000	1000	0	0	-1	0
16368075	4004	0	0	-100	0	230	101300000	1000	0	0	-1	0
16380635	4002	0	0	-100	0	230	101300000	1000	0	0	-1	0
16393195	4005	0	0	-100	0	230	101300000	1000	0	0	-1	0
16405755	4001	2	0	-100	0	230	101300000	1000	0	0	-1	0
16418315	4002	0	0	-100	0	230	101300000	1000	0	0	-1	0
16430875	4009	0	0	-100	0	230	101300000	1000	0	0	-1	0
16443435	4005	3	0	-100	0	230	101300000	1000	0	0	-1	0
16455995	4004	0	0	-100	0	230	101300000	1000	0	0	-1	0
16468555	4005	0	0	-100	0	230	101300000	1000	0	0	-1	0
16481115	3998	0	0	-100	0	230	101300000	1000	0	0	-1	0
16493675	4014	0	0	-100	0	230	101300000	1000	0	0	-1	0
16506235	4000	4	0	-100	0	230	101300000	1000	0	0	-1	0
16518795	4006	0	0	-100	0	230	101300000	1000	0	0	-1	0
16531355	4004	2	0	-100	0	230	101300000	1000	0	0	-1	0
16543915	4002	0	0	-100	0	230	101300000	1000	0	0	-1	0
16556475	4004	0	0	-100	0	230	101300000	1000	0	0	-1	0
16569035	4002	0	0	-100	0	230	101300000	1000	0	0	-1	0
16581595	4004	0	0	-100	0	230	101300000	1000	0	0	-1	0
16594155	4011	2	0	-100	0	230	101300000	1000	0	0	-1	0
16606715	4004	0	0	-100	0	230	101300000	1000	0	0	-1	0
16619275	4010	0	0	-100	0	230	101300000	1000	0	0	-1	0
16631835	4002	2	0	-100	0	230	101300000	1000	0	0	-1	0
16644395	4004	0	0	-100	0	230	101300000	1000	0	0	-1	0
16656955	4003	0	0	-100	0	230	101300000	1000	0	0	-1	0
16669515	4005	0	0	-100	0	230	101300000	1000	0	0	-1	0
16682075	4004	0	0	-100	0	230	101300000	1000	0	0	-1	0
16694635	4003	0	0	-100	0	230	101300000	1000	0	0	-1	0
16707195	4002	0	0	-100	0	230	101300000	1000	0	0	-1	0
16719755	4008	0	0	-100	0	230	101300000	1000	0	0	-1	0
16732315	4002	5	0	-100	0	230	101300000	1000	0	0	-1	0
16744875	4006	0	0	-100	0	230	101300000	1000	0	0	-1	0
16757435	4003	0	0	-100	0	230	101300000	1000	0	0	-1	0
16769995	4006	1	0	-100	0	230	101300000	1000	0	0	-1	0
16782555	3999	0	0	-100	0	230	101300000	1000	0	0	-1	0
16795115	4004	0	0	-100	0	230	101300000	1000	0	0	-1	0
16807675	4003	0	0	-100	0	230	101300000	1000	0	0	-1	0
16820235	4001	0	0	-100	0	230	101300000	1000	0	0	-1	0
16832795	4010	0	0	-100	0	230	101300000	1000	0	0	-1	0
16845355	4000	4	0	-100	0	230	101300000	1000	0	0	-1	0
16857915	4009	0	0	-100	0	230	101300000	1000	0	0	-1	0
16870475	4004	3	0	-100	0	230	101300000	1000	0	0	-1	0
16883035	4005	0	0	-100	0	230	101300000	1000	0	0	-1	0
16895595	4008	0	0	-100	0	230	101300000	1000	0	0	-1	0
16908155	4014	0	0	-100	0	230	101300000	1000	0	0	-1	0
16920715	4000	0	0	-100	0	230	101300000	1000	0	0	-1	0
16933275	4011	0	0	-100	0	230	101300000	1000	0	0	-1	0
16945835	4000	0	0	-100	0	230	101300000	1000	0	0	-1	0
16958395	4001	0	0	-100	0	230	101300000	1000	0	0	-1	0
16970955	4004	0	0	-100	0	230	101300000	1000	0	0	-1	0
16983515	3997	1	0	-100	0	230	101300000	1000	0	0	-1	0
16996075	4003	0	0	-100	0	230	101300000	1000	0	0	-1	0
17008635	4004	1	0	-100	0	230	101300000	1000	0	0	-1	0
17021195	4006	0	0	-100	0	230	101300000	1000	0	0	-1	0
17033755	4004	0	0	-100	0	230	101300000	1000	0	0	-1	0
17046315	4006	0	0	-100	0	230	101300000	1000	0	0	-1	0
17058875	3998	0	0	-100	0	230	101300000	1000	0	0	-1	0
17071435	4001	0	0	-100	0	230	101300000	1000	0	0	-1	0
17083995	4008	1	0	-100	0	230	101300000	1000	0	0	-1	0
17096555	4003	0	0	-100	0	230	101300000	1000	0	0	-1	0
17109115	3999	1	0	-100	0	230	101300000	1000	0	0	-1	0
17121675	4005	0	0	-100	0	230	101300000	1000	0	0	-1	0
17134235	4004	4	0	-100	0	230	101300000	1000	0	0	-1	0
17146795	4008	0	0	-100	0	230	101300000	1000	0	0	-1	0
17159355	4004	0	0	-100	0	230	101300000	1000	0	0	-1	0
17171915	4005	3	0	-100	0	230	101300000	1000	0	0	-1	0
17184475	4008	0	0	-100	0	230	101300000	1000	0	0	-1	0
17197035	4002	0	0	-100	0	230	101300000	1000	0	0	-1	0
17209595	4003	4	0	-100	0	230	101300000	1000	0	0	-1	0
17222155	4016	0	0	-100	0	230	101300000	1000	0	0	-1	0
17234715	4006	0	0	-100	0	230	101300000	1000	0	0	-1	0
17247275	3998	1	0	-100	0	230	101300000	1000	0	0	-1	0
17259835	4003	0	0	-100	0	230	101300000	1000	0	0	-1	0
17272395	4003	3	0	-100	0	230	101300000	1000	0	0	-1	0
17284955	4004	0	0	-100	0	230	101300000	1000	0	0	-1	0
17297515	4004	0	0	-100	0	230	101300000	1000	0	0	-1	0
17310075	4000	0	0	-100	0	230	101300000	1000	0	0	-1	0
17322635	4008	0	0	-100	0	230	101300000	1000	0	0	-1	0
17335195	4003	4	0	-100	0	230	101300000	1000	0	0	-1	0
17347755	4008	0	0	-100	0	230	101300000	1000	0	0	-1	0
17360315	4002	4	0	-100	0	230	101300000	1000	0	0	-1	0
17372875	4008	0	0	-100	0	230	101300000	1000	0	0	-1	0
17385435	4004	0	0	-100	0	230	101300000	1000	0	0	-1	0
17397995	4000	0	0	-100	0	230	101300000	1000	0	0	-1	0
17410555	4009	0	0	-100	0	230	101300000	1000	0	0	-1	0
17423115	4000	3	0	-100	0	230	101300000	1000	0	0	-1	0
17435675	4009	0	0	-100	0	230	101300000	1000	0	0	-1	0
17448235	4002	1	0	-100	0	230	101300000	1000	0	0	-1	0
17460795	4005	0	0	-100	0	230	101300000	1000	0	0	-1	0
17473355	4003	3	0	-100	0	230	101300000	1000	0	0	-1	0
17485915	4006	0	0	-100	0	230	101300000	1000	0	0	-1	0
17498475	4003	4	0	-100	0	230	101300000	1000	0	0	-1	0
17511035	4006	0	0	-100	0	230	101300000	1000	0	0	-1	0
17523595	4005	4	0	-100	0	230	101300000	1000	0	0	-1	0
17536155	4016	0	0	-100	0	230	101300000	1000	0	0	-1	0
17548715	4002	3	0	-100	0	230	101300000	1000	0	0	-1	0
17561275	4008	0	0	-100	0	230	101300000	1000	0	0	-1	0
17573835	4002	0	0	-100	0	230	101300000	1000	0	0	-1	0
17586395	4004	0	0	-100	0	230	101300000	1000	0	0	-1	0
17598955	4010	0	0	-100	0	230	101300000	1000	0	0	-1	0
17611515	4003	4	0	-100	0	230	101300000	1000	0	0	-1	0
17624075	4004	0	0	-100	0	230	101300000	1000	0	0	-1	0
17636635	4003	0	0	-100	0	230	101300000	1000	0	0	-1	0
17649195	3998	0	0	-100	0	230	101300000	1000	0	0	-1	0
17661755	4008	0	0	-100	0	230	101300000	1000	0	0	-1	0
17674315	4001	2	0	-100	0	230	101300000	1000	0	0	-1	0
17686875	3999	0	0	-100	0	230	101300000	1000	0	0	-1	0
17699435	4010	0	0	-100	0	230	101300000	1000	0	0	-1	0
17711995	4005	0	0	-100	0	230	101300000	1000	0	0	-1	0
17724555	4004	0	0	-100	0	230	101300000	1000	0	0	-1	0
17737115	4002	0	0	-100	0	230	101300000	1000	0	0	-1	0
17749675	4003	0	0	-100	0	230	101300000	1000	0	0	-1	0
17762235	4005	0	0	-100	0	230	101300000	1000	0	0	-1	0
17774795	4006	4	0	-100	0	230	101300000	1000	0	0	-1	0
17787355	4014	0	0	-100	0	230	101300000	1000	0	0	-1	0
17799915	4001	3	0	-100	0	230	101300000	1000	0	0	-1	0
17812475	4004	0	0	-100	0	230	101300000	1000	0	0	-1	0
17825035	4006	0	0	-100	0	230	101300000	1000	0	0	-1	0
17837595	4006	1	0	-100	0	230	101300000	1000	0	0	-1	0
17850155	4011	0	0	-100	0	230	101300000	1000	0	0	-1	0
17862715	4006	0	0	-100	0	230	101300000	1000	0	0	-1	0
17875275	4005	4	0	-100	0	230	101300000	1000	0	0	-1	0
17887835	4011	0	0	-100	0	230	101300000	1000	0	0	-1	0
17900395	4000	0	0	-100	0	230	101300000	1000	0	0	-1	0
17912955	4002	0	0	-100	0	230	101300000	1000	0	0	-1	0
17925515	4005	0	0	-100	0	230	101300000	1000	0	0	-1	0
17938075	4003	4	0	-100	0	230	101300000	1000	0	0	-1	0
17950635	4006	0	0	-100	0	230	101300000	1000	0	0	-1	0
17963195	3999	0	0	-100	0	230	101300000	1000	0	0	-1	0
17975755	4007	0	0	-100	0	230	101300000	1000	0	0	-1	0
17988315	4004	0	0	-100	0	230	101300000	1000	0	0	-1	0
18000875	4002	0	0	-100	0	230	101300000	1000	0	0	-1	0
18013435	4004	2	0	-100	0	230	101300000	1000	0	0	-1	0
18025995	4006	0	0	-100	0	230	101300000	1000	0	0	-1	0
18038555	4000	1	0	-100	0	230	101300000	1000	0	0	-1	0
18051115	4006	0	0	-100	0	230	101300000	1000	0	0	-1	0
18063675	4003	0	0	-100	0	230	101300000	1000	0	0	-1	0
18076235	4000	0	0	-100	0	230	101300000	1000	0	0	-1	0
18088795	4010	0	0	-100	0	230	101300000	1000	0	0	-1	0
18101355	4000	4	0	-100	0	230	101300000	1000	0	0	-1	0
18113915	4002	0	0	-100	0	230	101300000	1000	0	0	-1	0
18126475	4010	0	0	-100	0	230	101300000	1000	0	0	-1	0
18139035	4003	4	0	-100	0	230	101300000	1000	0	0	-1	0
18151595	4008	0	0	-100	0	230	101300000	1000	0	0	-1	0
18164155	4006	2	0	-100	0	230	101300000	1000	0	0	-1	0
18176715	4009	0	0	-100	0	230	101300000	1000	0	0	-1	0
18189275	4005	0	0	-100	0	230	101300000	1000	0	0	-1	0
18201835	4006	2	0	-100	0	230	101300000	1000	0	0	-1	0
18214395	4009	0	0	-100	0	230	101300000	1000	0	0	-1	0
18226955	4008	0	0	-100	0	230	101300000	1000	0	0	-1	0
18239515	4003	1	0	-100	0	230	101300000	1000	0	0	-1	0
18252075	4009	0	0	-100	0	230	101300000	1000	0	0	-1	0
18264635	4000	0	0	-100	0	230	101300000	1000	0	0	-1	0
18277195	4015	0	0	-100	0	230	101300000	1000	0	0	-1	0
18289755	4002	0	0	-100	0	230	101300000	1000	0	0	-1	0
18302315	4010	0	0	-100	0	230	101300000	1000	0	0	-1	0
18314875	4001	0	0	-100	0	230	101300000	1000	0	0	-1	0
18327435	4008	0	0	-100	0	230	101300000	1000	0	0	-1	0
18339995	3999	0	0	-100	0	230	101300000	1000	0	0	-1	0
18352555	4010	0	0	-100	0	230	101300000	1000	0	0	-1	0
18365115	4001	0	0	-100	0	230	101300000	1000	0	0	-1	0
18377675	4006	0	0	-100	0	230	101300000	1000	0	0	-1	0
18390235	4004	3	0	-100	0	230	101300000	1000	0	0	-1	0
18402795	4003	0	0	-100	0	230	101300000	1000	0	0	-1	0
18415355	4005	3	0	-100	0	230	101300000	1000	0	0	-1	0
18427915	4009	0	0	-100	0	230	101300000	1000	0	0	-1	0
18440475	4005	4	0	-100	0	230	101300000	1000	0	0	-1	0
18453035	4011	0	0	-100	0	230	101300000	1000	0	0	-1	0
18465595	4006	3	0	-100	0	230	101300000	1000	0	0	-1	0
18478155	4016	0	0	-100	0	230	101300000	1000	0	0	-1	0
18490715	4002	0	0	-100	0	230	101300000	1000	0	0	-1	0
18503275	4004	0	0	-100	0	230	101300000	1000	0	0	-1	0
18515835	4000	0	0	-100	0	230	101300000	1000	0	0	-1	0
18528395	4004	0	0	-100	0	230	101300000	1000	0	0	-1	0
18540955	3999	0	0	-100	0	230	101300000	1000	0	0	-1	0
18553515	4004	0	0	-100	0	230	101300000	1000	0	0	-1	0
18566075	4000	0	0	-100	0	230	101300000	1000	0	0	-1	0
18578635	4007	0	0	-100	0	230	101300000	1000	0	0	-1	0
18591195	4002	0	0	-100	0	230	101300000	1000	0	0	-1	0
18603755	4010	0	0	-100	0	230	101300000	1000	0	0	-1	0
18616315	4001	3	0	-100	0	230	101300000	1000	0	0	-1	0
18628875	4008	0	0	-100	0	230	101300000	1000	0	0	-1	0
18641435	4000	2	0	-100	0	230	101300000	1000	0	0	-1	0
18653995	4008	0	0	-100	0	230	101300000	1000	0	0	-1	0
18666555	3999	1	0	-100	0	230	101300000	1000	0	0	-1	0
18679115	4003	0	0	-100	0	230	101300000	1000	0	0	-1	0
18691675	4009	0	0	-100	0	230	101300000	1000	0	0	-1	0
18704235	4003	0	0	-100	0	230	101300000	1000	0	0	-1	0
18716795	4010	0	0	-100	0	230	101300000	1000	0	0	-1	0
18729355	4004	0	0	-100	0	230	101300000	1000	0	0	-1	0
18741915	4002	0	0	-100	0	230	101300000	1000	0	0	-1	0
18754475	4007	0	0	-100	0	230	101300000	1000	0	0	-1	0
18767035	4000	1	0	-100	0	230	101300000	1000	0	0	-1	0
18779595	4006	0	0	-100	0	230	101300000	1000	0	0	-1	0
18792155	4009	3	0	-100	0	230	101300000	1000	0	0	-1	0
18804715	4008	0	0	-100	0	230	101300000	1000	0	0	-1	0
18817275	4003	4	0	-100	0	230	101300000	1000	0	0	-1	0
18829835	4005	0	0	-100	0	230	101300000	1000	0	0	-1	0
18842395	4000	3	0	-100	0	230	101300000	1000	0	0	-1	0
18854955	4009	0	0	-100	0	230	101300000	1000	0	0	-1	0
18867515	4000	3	0	-100	0	230	101300000	1000	0	0	-1	0
18880075	4006	0	0	-100	0	230	101300000	1000	0	0	-1	0
18892635	4004	1	0	-100	0	230	101300000	1000	0	0	-1	0
18905195	4005	0	0	-100	0	230	101300000	1000	0	0	-1	0
18917755	4002	3	0	-100	0	230	101300000	1000	0	0	-1	0
18930315	4009	0	0	-100	0	230	101300000	1000	0	0	-1	0
18942875	4000	3	0	-100	0	230	101300000	1000	0	0	-1	0
18955435	4008	0	0	-100	0	230	101300000	1000	0	0	-1	0
18967995	4002	0	0	-100	0	230	101300000	1000	0	0	-1	0
18980555	4005	0	0	-100	0	230	101300000	1000	0	0	-1	0
18993115	4003	4	0	-100	0	230	101300000	1000	0	0	-1	0
19005675	4006	0	0	-100	0	230	101300000	1000	0	0	-1	0
19018235	4007	3	0	-100	0	230	101300000	1000	0	0	-1	0
19030795	4009	0	0	-100	0	230	101300000	1000	0	0	-1	0
19043355	4000	3	0	-100	0	230	101300000	1000	0	0	-1	0
19055915	4008	0	0	-100	0	230	101300000	1000	0	0	-1	0
19068475	4000	0	0	-100	0	230	101300000	1000	0	0	-1	0
19081035	4000	0	0	-100	0	230	101300000	1000	0	0	-1	0
19093595	4012	0	0	-100	0	230	101300000	1000	0	0	-1	0
19106155	4009	0	0	-100	0	230	101300000	1000	0	0	-1	0
19118715	4005	0	0	-100	0	230	101300000	1000	0	0	-1	0
19131275	4005	5	0	-100	0	230	101300000	1000	0	0	-1	0
19143835	4008	0	0	-100	0	230	101300000	1000	0	0	-1	0
19156395	4004	2	0	-100	0	230	101300000	1000	0	0	-1	0
19168955	4005	0	0	-100	0	230	101300000	1000	0	0	-1	0
19181515	4003	0	0	-100	0	230	101300000	1000	0	0	-1	0
19194075	4000	0	0	-100	0	230	101300000	1000	0	0	-1	0
19206635	4008	0	0	-100	0	230	101300000	1000	0	0	-1	0
19219195	4001	3	0	-100	0	230	101300000	1000	0	0	-1	0
19231755	4006	0	0	-100	0	230	101300000	1000	0	0	-1	0
19244315	4006	0	0	-100	0	230	101300000	1000	0	0	-1	0
19256875	4005	3	0	-100	0	230	101300000	1000	0	0	-1	0
19269435	4008	0	0	-100	0	230	101300000	1000	0	0	-1	0
19281995	4008	4	0	-100	0	230	101300000	1000	0	0	-1	0
19319675	4005	0	0	-100	0	230	101300000	1000	0	0	-1	0
19332235	4003	0	0	-100	0	230	101300000	1000	0	0	-1	0
19344795	4000	0	0	-100	0	230	101300000	1000	0	0	-1	0
19357355	4010	0	0	-100	0	230	101300000	1000	0	0	-1	0
19369915	4004	2	0	-100	0	230	101300000	1000	0	0	-1	0
19382475	4003	0	0	-100	0	230	101300000	1000	0	0	-1	0
19395035	4006	0	0	-100	0	230	101300000	1000	0	0	-1	0
19407595	4002	2	0	-100	0	230	101300000	1000	0	0	-1	0
19420155	4004	0	0	-100	0	230	101300000	1000	0	0	-1	0
19432715	4008	0	0	-100	0	230	101300000	1000	0	0	-1	0
19445275	4001	0	0	-100	0	230	101300000	1000	0	0	-1	0
19457835	4001	0	0	-100	0	230	101300000	1000	0	0	-1	0
19470395	4008	0	0	-100	0	230	101300000	1000	0	0	-1	0
19482955	4009	0	0	-100	0	230	101300000	1000	0	0	-1	0
19495515	4002	2	0	-100	0	230	101300000	1000	0	0	-1	0
19508075	4003	0	0	-100	0	230	101300000	1000	0	0	-1	0
19520635	4005	0	0	-100	0	230	101300000	1000	0	0	-1	0
19533195	4000	4	0	-100	0	230	101300000	1000	0	0	-1	0
19545755	4005	0	0	-100	0	230	101300000	1000	0	0	-1	0
19558315	4000	1	0	-100	0	230	101300000	1000	0	0	-1	0
19570875	4001	0	0	-100	0	230	101300000	1000	0	0	-1	0
19583435	4008	0	0	-100	0	230	101300000	1000	0	0	-1	0
19595995	3999	0	0	-100	0	230	101300000	1000	0	0	-1	0
19608555	4006	0	0	-100	0	230	101300000	1000	0	0	-1	0
19621115	4006	0	0	-100	0	230	101300000	1000	0	0	-1	0
19633675	4003	3	0	-100	0	230	101300000	1000	0	0	-1	0
19646235	4002	0	0	-100	0	230	101300000	1000	0	0	-1	0
19658795	4008	0	0	-100	0	230	101300000	1000	0	0	-1	0
19671355	4003	4	0	-100	0	230	101300000	1000	0	0	-1	0
19683915	4005	0	0	-100	0	230	101300000	1000	0	0	-1	0
19696475	4004	0	0	-100	0	230	101300000	1000	0	0	-1	0
19709035	3999	4	0	-100	0	230	101300000	1000	0	0	-1	0
19721595	4005	0	0	-100	0	230	101300000	1000	0	0	-1	0
19734155	4013	0	0	-100	0	230	101300000	1000	0	0	-1	0
19746715	4001	0	0	-100	0	230	101300000	1000	0	0	-1	0
19759275	4005	0	0	-100	0	230	101300000	1000	0	0	-1	0
19771835	4003	5	0	-100	0	230	101300000	1000	0	0	-1	0
19784395	4006	0	0	-100	0	230	101300000	1000	0	0	-1	0
19796955	4001	2	0	-100	0	230	101300000	1000	0	0	-1	0
19809515	4004	0	0	-100	0	230	101300000	1000	0	0	-1	0
19822075	4006	0	0	-100	0	230	101300000	1000	0	0	-1	0
19834635	4003	4	0	-100	0	230	101300000	1000	0	0	-1	0
19847195	4001	0	0	-100	0	230	101300000	1000	0	0	-1	0
19859755	4009	0	0	-100	0	230	101300000	1000	0	0	-1	0
19872315	4004	4	0	-100	0	230	101300000	1000	0	0	-1	0
19884875	4006	0	0	-100	0	230	101300000	1000	0	0	-1	0
19897435	3999	3	0	-100	0	230	101300000	1000	0	0	-1	0
19909995	4006	0	0	-100	0	230	101300000	1000	0	0	-1	0
19922555	4001	1	0	-100	0	230	101300000	1000	0	0	-1	0
19935115	4003	0	0	-100	0	230	101300000	1000	0	0	-1	0
19947675	4009	0	0	-100	0	230	101300000	1000	0	0	-1	0
19960235	4004	3	0	-100	0	230	101300000	1000	0	0	-1	0
19972795	4009	0	0	-100	0	230	101300000	1000	0	0	-1	0
19985355	4001	0	0	-100	0	230	101300000	1000	0	0	-1	0
19997915	3997	0	0	-100	0	230	101300000	1000	0	0	-1	0
20010475	4012	0	0	-100	0	230	101300000	1000	0	0	-1	0
20023035	3997	0	0	-100	0	230	101300000	1000	0	0	-1	0
20035595	4006	0	0	-100	0	230	101300000	1000	0	0	-1	0
20048155	4012	0	0	-100	0	230	101300000	1000	0	0	-1	0
20060715	3999	4	0	-100	0	230	101300000	1000	0	0	-1	0
20073275	4010	0	0	-100	0	230	101300000	1000	0	0	-1	0
20085835	4005	1	0	-100	0	230	101300000	1000	0	0	-1	0
20098395	4005	0	0	-100	0	230	101300000	1000	0	0	-1	0
20110955	4005	4	0	-100	0	230	101300000	1000	0	0	-1	0
20123515	4008	0	0	-100	0	230	101300000	1000	0	0	-1	0
20136075	4002	2	0	-100	0	230	101300000	1000	0	0	-1	0
20148635	4010	0	0	-100	0	230	101300000	1000	0	0	-1	0
20161195	4000	0	0	-100	0	230	101300000	1000	0	0	-1	0
20173755	4009	0	0	-100	0	230	101300000	1000	0	0	-1	0
20186315	3999	0	0	-100	0	230	101300000	1000	0	0	-1	0
20198875	4008	0	0	-100	0	230	101300000	1000	0	0	-1	0
20211435	4003	0	0	-100	0	230	101300000	1000	0	0	-1	0
20223995	4006	4	0	-100	0	230	101300000	1000	0	0	-1	0
20236555	4002	1	0	-100	0	230	101300000	1000	0	0	-1	0
20249115	4009	0	0	-100	0	230	101300000	1000	0	0	-1	0
20261675	3999	1	0	-100	0	230	101300000	1000	0	0	-1	0
20274235	4006	0	0	-100	0	230	101300000	1000	0	0	-1	0
20286795	4009	0	0	-100	0	230	101300000	1000	0	0	-1	0
20299355	4003	5	0	-100	0	230	101300000	1000	0	0	-1	0
20311915	4006	0	0	-100	0	230	101300000	1000	0	0	-1	0
20324475	4002	0	0	-100	0	230	101300000	1000	0	0	-1	0
20337035	4003	0	0	-100	0	230	101300000	1000	0	0	-1	0
20349595	4010	0	0	-100	0	230	101300000	1000	0	0	-1	0
20362155	4010	4	0	-100	0	230	101300000	1000	0	0	-1	0
20374715	4003	0	0	-100	0	230	101300000	1000	0	0	-1	0
20387275	4003	0	0	-100	0	230	101300000	1000	0	0	-1	0
20399835	3997	0	0	-100	0	230	101300000	1000	0	0	-1	0
20412395	4010	0	0	-100	0	230	101300000	1000	0	0	-1	0
20424955	3999	0	0	-100	0	230	101300000	1000	0	0	-1	0
20437515	4004	4	0	-100	0	230	101300000	1000	0	0	-1	0
20450075	4003	0	0	-100	0	230	101300000	1000	0	0	-1	0
20462635	4005	0	0	-100	0	230	101300000	1000	0	0	-1	0
20475195	4003	2	0	-100	0	230	101300000	1000	0	0	-1	0
20487755	4004	0	0	-100	0	230	101300000	1000	0	0	-1	0
20500315	4008	0	0	-100	0	230	101300000	1000	0	0	-1	0
20512875	4003	3	0	-100	0	230	101300000	1000	0	0	-1	0
20525435	3998	0	0	-100	0	230	101300000	1000	0	0	-1	0
20537995	4005	3	0	-100	0	230	101300000	1000	0	0	-1	0
20550555	4002	1	0	-100	0	230	101300000	1000	0	0	-1	0
20563115	4002	0	0	-100	0	230	101300000	1000	0	0	-1	0
20575675	4009	0	0	-100	0	230	101300000	1000	0	0	-1	0
20588235	4001	0	0	-100	0	230	101300000	1000	0	0	-1	0
20600795	4003	4	0	-100	0	230	101300000	1000	0	0	-1	0
20613355	4006	0	0	-100	0	230	101300000	1000	0	0	-1	0
20625915	4004	0	0	-100	0	230	101300000	1000	0	0	-1	0
20638475	4000	0	0	-100	0	230	101300000	1000	0	0	-1	0
20651035	4008	0	0	-100	0	230	101300000	1000	0	0	-1	0
20663595	3998	1	0	-100	0	230	101300000	1000	0	0	-1	0
20676155	4012	0	0	-100	0	230	101300000	1000	0	0	-1	0
20688715	4008	0	0	-100	0	230	101300000	1000	0	0	-1	0
20701275	4006	0	0	-100	0	230	101300000	1000	0	0	-1	0
20713835	4002	1	0	-100	0	230	101300000	1000	0	0	-1	0
20726395	4006	1	0	-100	0	230	101300000	1000	0	0	-1	0
20738955	4003	0	0	-100	0	230	101300000	1000	0	0	-1	0
20751515	4009	0	0	-100	0	230	101300000	1000	0	0	-1	0
20764075	4006	0	0	-100	0	230	101300000	1000	0	0	-1	0
20776635	4004	0	0	-100	0	230	101300000	1000	0	0	-1	0
20789195	4002	4	0	-100	0	230	101300000	1000	0	0	-1	0
20801755	4003	1	0	-100	0	230	101300000	1000	0	0	-1	0
20814315	4003	0	0	-100	0	230	101300000	1000	0	0	-1	0
20826875	4008	0	0	-100	0	230	101300000	1000	0	0	-1	0
20839435	4008	0	0	-100	0	230	101300000	1000	0	0	-1	0
20851995	4003	0	0	-100	0	230	101300000	1000	0	0	-1	0
20864555	4001	0	0	-100	0	230	101300000	1000	0	0	-1	0
20877115	4006	0	0	-100	0	230	101300000	1000	0	0	-1	0
20889675	4002	2	0	-100	0	230	101300000	1000	0	0	-1	0
20902235	4002	0	0	-100	0	230	101300000	1000	0	0	-1	0
20914795	4011	0	0	-100	0	230	101300000	1000	0	0	-1	0
20927355	4000	4	0	-100	0	230	101300000	1000	0	0	-1	0
20939915	4005	0	0	-100	0	230	101300000	1000	0	0	-1	0
20952475	4010	0	0	-100	0	230	101300000	1000	0	0	-1	0
20965035	4002	0	0	-100	0	230	101300000	1000	0	0	-1	0
20977595	4006	0	0	-100	0	230	101300000	1000	0	0	-1	0
20990155	4010	1	0	-100	0	230	101300000	1000	0	0	-1	0
21002715	4003	0	0	-100	0	230	101300000	1000	0	0	-1	0
21015275	4010	0	0	-100	0	230	101300000	1000	0	0	-1	0
21027835	4003	4	0	-100	0	230	101300000	1000	0	0	-1	0
21040395	4005	0	0	-100	0	230	101300000	1000	0	0	-1	0
21052955	4005	0	0	-100	0	230	101300000	1000	0	0	-1	0
21065515	4000	0	0	-100	0	230	101300000	1000	0	0	-1	0
21078075	4006	0	0	-100	0	230	101300000	1000	0	0	-1	0
21090635	4005	1	0	-100	0	230	101300000	1000	0	0	-1	0
21103195	3999	4	0	-100	0	230	101300000	1000	0	0	-1	0
21115755	4002	0	0	-100	0	230	101300000	1000	0	0	-1	0
21128315	4009	0	0	-100	0	230	101300000	1000	0	0	-1	0
21140875	4000	0	0	-100	0	230	101300000	1000	0	0	-1	0
21153435	4009	0	0	-100	0	230	101300000	1000	0	0	-1	0
21165995	4005	0	0	-100	0	230	101300000	1000	0	0	-1	0
21178555	4005	0	0	-100	0	230	101300000	1000	0	0	-1	0
21191115	4000	1	0	-100	0	230	101300000	1000	0	0	-1	0
21203675	4000	0	0	-100	0	230	101300000	1000	0	0	-1	0
21216235	4008	0	0	-100	0	230	101300000	1000	0	0	-1	0
21228795	4003	4	0	-100	0	230	101300000	1000	0	0	-1	0
21241355	4004	0	0	-100	0	230	101300000	1000	0	0	-1	0
21253915	4006	0	0	-100	0	230	101300000	1000	0	0	-1	0
21266475	4005	2	0	-100	0	230	101300000	1000	0	0	-1	0
21279035	4006	0	0	-100	0	230	101300000	1000	0	0	-1	0
21291595	4006	0	0	-100	0	230	101300000	1000	0	0	-1	0
21304155	4008	4	0	-100	0	230	101300000	1000	0	0	-1	0
21316715	4004	0	0	-100	0	230	101300000	1000	0	0	-1	0
21329275	4012	0	0	-100	0	230	101300000	1000	0	0	-1	0
21341835	4002	3	0	-100	0	230	101300000	1000	0	0	-1	0
21354395	4004	0	0	-100	0	230	101300000	1000	0	0	-1	0
21366955	4005	0	0	-100	0	230	101300000	1000	0	0	-1	0
21379515	4001	0	0	-100	0	230	101300000	1000	0	0	-1	0
21392075	4000	0	0	-100	0	230	101300000	1000	0	0	-1	0
21404635	4006	0	0	-100	0	230	101300000	1000	0	0	-1	0
21417195	4000	1	0	-100	0	230	101300000	1000	0	0	-1	0
21429755	4006	2	0	-100	0	230	101300000	1000	0	0	-1	0
21442315	4006	0	0	-100	0	230	101300000	1000	0	0	-1	0
21454875	4007	0	0	-100	0	230	101300000	1000	0	0	-1	0
21467435	4004	3	0	-100	0	230	101300000	1000	0	0	-1	0
21479995	4008	0	0	-100	0	230	101300000	1000	0	0	-1	0
21492555	4004	1	0	-100	0	230	101300000	1000	0	0	-1	0
21505115	4002	0	0	-100	0	230	101300000	1000	0	0	-1	0
21517675	4003	0	0	-100	0	230	101300000	1000	0	0	-1	0
21530235	4008	0	0	-100	0	230	101300000	1000	0	0	-1	0
21542795	4003	0	0	-100	0	230	101300000	1000	0	0	-1	0
21555355	4004	5	0	-100	0	230	101300000	1000	0	0	-1	0
21567915	4006	0	0	-100	0	230	101300000	1000	0	0	-1	0
21580475	4003	0	0	-100	0	230	101300000	1000	0	0	-1	0
21593035	3999	0	0	-100	0	230	101300000	1000	0	0	-1	0
21605595	4004	0	0	-100	0	230	101300000	1000	0	0	-1	0
21618155	4008	0	0	-100	0	230	101300000	1000	0	0	-1	0
21630715	4005	2	0	-100	0	230	101300000	1000	0	0	-1	0
21643275	4006	0	0	-100	0	230	101300000	1000	0	0	-1	0
21655835	4001	2	0	-100	0	230	101300000	1000	0	0	-1	0
21668395	4002	0	0	-100	0	230	101300000	1000	0	0	-1	0
21680955	4006	0	0	-100	0	230	101300000	1000	0	0	-1	0
21693515	4004	1	0	-100	0	230	101300000	1000	0	0	-1	0
21706075	4004	0	0	-100	0	230	101300000	1000	0	0	-1	0
21718635	4010	0	0	-100	0	230	101300000	1000	0	0	-1	0
21731195	4003	0	0	-100	0	230	101300000	1000	0	0	-1	0
21743755	4009	0	0	-100	0	230	101300000	1000	0	0	-1	0
21756315	4000	2	0	-100	0	230	101300000	1000	0	0	-1	0
21768875	4006	0	0	-100	0	230	101300000	1000	0	0	-1	0
21781435	4008	0	0	-100	0	230	101300000	1000	0	0	-1	0
21793995	4002	0	0	-100	0	230	101300000	1000	0	0	-1	0
21806555	4005	0	0	-100	0	230	101300000	1000	0	0	-1	0
21819115	4001	3	0	-100	0	230	101300000	1000	0	0	-1	0
21831675	4006	0	0	-100	0	230	101300000	1000	0	0	-1	0
21844235	4006	0	0	-100	0	230	101300000	1000	0	0	-1	0
21856795	4000	0	0	-100	0	230	101300000	1000	0	0	-1	0
21869355	4011	0	0	-100	0	230	101300000	1000	0	0	-1	0
21881915	4000	3	0	-100	0	230	101300000	1000	0	0	-1	0
21894475	4003	0	0	-100	0	230	101300000	1000	0	0	-1	0
21907035	4004	0	0	-100	0	230	101300000	1000	0	0	-1	0
21919595	3999	0	0	-100	0	230	101300000	1000	0	0	-1	0
21932155	4016	0	0	-100	0	230	101300000	1000	0	0	-1	0
21944715	4002	2	0	-100	0	230	101300000	1000	0	0	-1	0
21957275	4001	0	0	-100	0	230	101300000	1000	0	0	-1	0
21969835	4009	0	0	-100	0	230	101300000	1000	0	0	-1	0
21982395	4004	4	0	-100	0	230	101300000	1000	0	0	-1	0
21994955	4010	0	0	-100	0	230	101300000	1000	0	0	-1	0
22007515	4003	1	0	-100	0	230	101300000	1000	0	0	-1	0
22020075	4000	0	0	-100	0	230	101300000	1000	0	0	-1	0
22032635	4006	0	0	-100	0	230	101300000	1000	0	0	-1	0
22045195	4001	4	0	-100	0	230	101300000	1000	0	0	-1	0
22057755	4006	0	0	-100	0	230	101300000	1000	0	0	-1	0
22070315	4002	3	0	-100	0	230	101300000	1000	0	0	-1	0
22082875	4002	0	0	-100	0	230	101300000	1000	0	0	-1	0
22095435	4004	0	0	-100	0	230	101300000	1000	0	0	-1	0
22107995	4002	0	0	-100	0	230	101300000	1000	0	0	-1	0
22120555	4004	0	0	-100	0	230	101300000	1000	0	0	-1	0
22133115	4005	2	0	-100	0	230	101300000	1000	0	0	-1	0
22145675	4006	0	0	-100	0	230	101300000	1000	0	0	-1	0
22183355	3999	0	0	-100	0	230	101300000	1000	0	0	-1	0
22195915	4004	0	0	-100	0	230	101300000	1000	0	0	-1	0
22208475	4006	0	0	-100	0	230	101300000	1000	0	0	-1	0
22221035	4001	2	0	-100	0	230	101300000	1000	0	0	-1	0
22233595	4006	0	0	-100	0	230	101300000	1000	0	0	-1	0
22246155	4010	0	0	-100	0	230	101300000	1000	0	0	-1	0
22258715	4006	0	0	-100	0	230	101300000	1000	0	0	-1	0
22271275	4009	1	0	-100	0	230	101300000	1000	0	0	-1	0
22283835	3998	0	0	-100	0	230	101300000	1000	0	0	-1	0
22296395	4011	0	0	-100	0	230	101300000	1000	0	0	-1	0
22308955	4005	4	0	-100	0	230	101300000	1000	0	0	-1	0
22346635	4007	0	0	-100	0	230	101300000	1000	0	0	-1	0
22359195	4001	4	0	-100	0	230	101300000	1000	0	0	-1	0
22371755	4009	0	0	-100	0	230	101300000	1000	0	0	-1	0
22384315	3999	3	0	-100	0	230	101300000	1000	0	0	-1	0
22396875	4004	0	0	-100	0	230	101300000	1000	0	0	-1	0
22409435	4004	2	0	-100	0	230	101300000	1000	0	0	-1	0
22421995	4008	2	0	-100	0	230	101300000	1000	0	0	-1	0
22434555	4006	2	0	-100	0	230	101300000	1000	0	0	-1	0
22447115	4009	0	0	-100	0	230	101300000	1000	0	0	-1	0
22459675	4002	0	0	-100	0	230	101300000	1000	0	0	-1	0
22472235	4006	2	0	-100	0	230	101300000	1000	0	0	-1	0
22484795	4010	0	0	-100	0	230	101300000	1000	0	0	-1	0
22497355	4001	0	0	-100	0	230	101300000	1000	0	0	-1	0
22509915	4005	0	0	-100	0	230	101300000	1000	0	0	-1	0
22522475	4001	0	0	-100	0	230	101300000	1000	0	0	-1	0
22535035	4006	0	0	-100	0	230	101300000	1000	0	0	-1	0
22547595	4004	0	0	-100	0	230	101300000	1000	0	0	-1	0
22560155	4008	1	0	-100	0	230	101300000	1000	0	0	-1	0
22572715	4008	0	0	-100	0	230	101300000	1000	0	0	-1	0
22585275	4004	4	0	-100	0	230	101300000	1000	0	0	-1	0
22597835	4007	0	0	-100	0	230	101300000	1000	0	0	-1	0
22610395	4002	0	0	-100	0	230	101300000	1000	0	0	-1	0
22622955	3998	0	0	-100	0	230	101300000	1000	0	0	-1	0
22635515	4005	0	0	-100	0	230	101300000	1000	0	0	-1	0
22648075	4004	2	0	-100	0	230	101300000	1000	0	0	-1	0
22660635	4006	0	0	-100	0	230	101300000	1000	0	0	-1	0
22673195	4004	0	0	-100	0	230	101300000	1000	0	0	-1	0
22685755	4000	4	0	-100	0	230	101300000	1000	0	0	-1	0
22698315	4008	0	0	-100	0	230	101300000	1000	0	0	-1	0
22710875	4004	5	0	-100	0	230	101300000	1000	0	0	-1	0
22723435	4006	0	0	-100	0	230	101300000	1000	0	0	-1	0
22735995	3998	0	0	-100	0	230	101300000	1000	0	0	-1	0
22748555	4004	0	0	-100	0	230	101300000	1000	0	0	-1	0
22761115	4004	0	0	-100	0	230	101300000	1000	0	0	-1	0
22773675	4002	3	0	-100	0	230	101300000	1000	0	0	-1	0
22786235	4008	0	0	-100	0	230	101300000	1000	0	0	-1	0
22798795	4004	4	0	-100	0	230	101300000	1000	0	0	-1	0
22811355	4008	0	0	-100	0	230	101300000	1000	0	0	-1	0
22823915	4003	0	0	-100	0	230	101300000	1000	0	0	-1	0
22836475	4005	0	0	-100	0	230	101300000	1000	0	0	-1	0
22849035	4004	0	0	-100	0	230	101300000	1000	0	0	-1	0
22861595	4001	3	0	-100	0	230	101300000	1000	0	0	-1	0
22874155	4016	0	0	-100	0	230	101300000	1000	0	0	-1	0
22886715	4001	4	0	-100	0	230	101300000	1000	0	0	-1	0
22899275	4006	0	0	-100	0	230	101300000	1000	0	0	-1	0
22911835	4003	0	0	-100	0	230	101300000	1000	0	0	-1	0
22924395	4006	0	0	-100	0	230	101300000	1000	0	0	-1	0
22936955	3998	0	0	-100	0	230	101300000	1000	0	0	-1	0
22949515	4004	0	0	-100	0	230	101300000	1000	0	0	-1	0
22962075	4002	4	0	-100	0	230	101300000	1000	0	0	-1	0
22974635	4005	0	0	-100	0	230	101300000	1000	0	0	-1	0
22987195	3998	3	0	-100	0	230	101300000	1000	0	0	-1	0
22999755	4004	0	0	-100	0	230	101300000	1000	0	0	-1	0
23012315	4004	1	0	-100	0	230	101300000	1000	0	0	-1	0
23024875	4004	0	0	-100	0	230	101300000	1000	0	0	-1	0
23037435	4002	2	0	-100	0	230	101300000	1000	0	0	-1	0
23049995	4009	0	0	-100	0	230	101300000	1000	0	0	-1	0
23062555	4003	4	0	-100	0	230	101300000	1000	0	0	-1	0
23075115	4008	0	0	-100	0	230	101300000	1000	0	0	-1	0
23087675	4004	0	0	-100	0	230	101300000	1000	0	0	-1	0
23100235	4008	0	0	-100	0	230	101300000	1000	0	0	-1	0
23112795	4005	0	0	-100	0	230	101300000	1000	0	0	-1	0
23125355	4008	0	0	-100	0	230	101300000	1000	0	0	-1	0
23137915	4004	2	0	-100	0	230	101300000	1000	0	0	-1	0
23150475	4009	0	0	-100	0	230	101300000	1000	0	0	-1	0
23163035	3998	1	0	-100	0	230	101300000	1000	0	0	-1	0
23175595	4004	0	0	-100	0	230	101300000	1000	0	0	-1	0
23188155	4007	2	0	-100	0	230	101300000	1000	0	0	-1	0
23200715	4002	0	0	-100	0	230	101300000	1000	0	0	-1	0
23213275	4006	0	0	-100	0	230	101300000	1000	0	0	-1	0
23225835	3999	0	0	-100	0	230	101300000	1000	0	0	-1	0
23238395	4006	0	0	-100	0	230	101300000	1000	0	0	-1	0
23250955	4003	4	0	-100	0	230	101300000	1000	0	0	-1	0
23263515	4005	0	0	-100	0	230	101300000	1000	0	0	-1	0
23276075	4002	1	0	-100	0	230	101300000	1000	0	0	-1	0
23288635	4002	0	0	-100	0	230	101300000	1000	0	0	-1	0
23301195	4005	0	0	-100	0	230	101300000	1000	0	0	-1	0
23313755	4004	2	0	-100	0	230	101300000	1000	0	0	-1	0
23326315	4008	0	0	-100	0	230	101300000	1000	0	0	-1	0
23338875	4003	0	0	-100	0	230	101300000	1000	0	0	-1	0
23351435	4012	0	0	-100	0	230	101300000	1000	0	0	-1	0
23363995	3998	0	0	-100	0	230	101300000	1000	0	0	-1	0
23376555	4009	0	0	-100	0	230	101300000	1000	0	0	-1	0
23389115	4003	0	0	-100	0	230	101300000	1000	0	0	-1	0
23401675	4006	0	0	-100	0	230	101300000	1000	0	0	-1	0
23414235	4002	0	0	-100	0	230	101300000	1000	0	0	-1	0
23426795	4010	0	0	-100	0	230	101300000	1000	0	0	-1	0
23439355	4001	3	0	-100	0	230	101300000	1000	0	0	-1	0
23451915	4010	0	0	-100	0	230	101300000	1000	0	0	-1	0
23464475	4000	4	0	-100	0	230	101300000	1000	0	0	-1	0
23477035	4008	0	0	-100	0	230	101300000	1000	0	0	-1	0
23489595	4000	4	0	-100	0	230	101300000	1000	0	0	-1	0
23502155	4011	0	0	-100	0	230	101300000	1000	0	0	-1	0
23514715	4001	0	0	-100	0	230	101300000	1000	0	0	-1	0
23527275	4002	0	0	-100	0	230	101300000	1000	0	0	-1	0
23539835	4004	0	0	-100	0	230	101300000	1000	0	0	-1	0
23552395	4003	0	0	-100	0	230	101300000	1000	0	0	-1	0
23564955	4008	0	0	-100	0	230	101300000	1000	0	0	-1	0
23577515	4001	3	0	-100	0	230	101300000	1000	0	0	-1	0
23590075	4011	0	0	-100	0	230	101300000	1000	0	0	-1	0
23602635	4000	4	0	-100	0	230	101300000	1000	0	0	-1	0
23615195	4006	0	0	-100	0	230	101300000	1000	0	0	-1	0
23627755	4002	2	0	-100	0	230	101300000	1000	0	0	-1	0
23640315	4009	0	0	-100	0	230	101300000	1000	0	0	-1	0
23652875	4000	0	0	-100	0	230	101300000	1000	0	0	-1	0
23665435	4006	0	0	-100	0	230	101300000	1000	0	0	-1	0
23677995	4003	0	0	-100	0	230	101300000	1000	0	0	-1	0
23690555	4011	0	0	-100	0	230	101300000	1000	0	0	-1	0
23703115	3998	0	0	-100	0	230	101300000	1000	0	0	-1	0
23715675	4005	0	0	-100	0	230	101300000	1000	0	0	-1	0
23728235	4008	0	0	-100	0	230	101300000	1000	0	0	-1	0
23740795	4002	1	0	-100	0	230	101300000	1000	0	0	-1	0
23753355	4009	0	0	-100	0	230	101300000	1000	0	0	-1	0
23765915	4002	3	0	-100	0	230	101300000	1000	0	0	-1	0
23778475	4004	0	0	-100	0	230	101300000	1000	0	0	-1	0
23791035	4001	1	0	-100	0	230	101300000	1000	0	0	-1	0
23803595	4004	0	0	-100	0	230	101300000	1000	0	0	-1	0
23816155	4006	0	0	-100	0	230	101300000	1000	0	0	-1	0
23828715	4005	0	0	-100	0	230	101300000	1000	0	0	-1	0
23841275	4004	0	0	-100	0	230	101300000	1000	0	0	-1	0
23853835	3999	4	0	-100	0	230	101300000	1000	0	0	-1	0
23866395	4005	0	0	-100	0	230	101300000	1000	0	0	-1	0
23878955	4001	0	0	-100	0	230	101300000	1000	0	0	-1	0
23891515	4002	2	0	-100	0	230	101300000	1000	0	0	-1	0
23904075	4009	0	0	-100	0	230	101300000	1000	0	0	-1	0
23916635	4000	4	0	-100	0	230	101300000	1000	0	0	-1	0
23929195	4010	0	0	-100	0	230	101300000	1000	0	0	-1	0
23941755	3999	0	0	-100	0	230	101300000	1000	0	0	-1	0
23954315	4004	0	0	-100	0	230	101300000	1000	0	0	-1	0
23966875	4002	0	0	-100	0	230	101300000	1000	0	0	-1	0
23979435	4001	1	0	-100	0	230	101300000	1000	0	0	-1	0
23991995	4006	0	0	-100	0	230	101300000	1000	0	0	-1	0
24004555	3999	3	0	-100	0	230	101300000	1000	0	0	-1	0
24017115	4009	0	0	-100	0	230	101300000	1000	0	0	-1	0
24029675	4005	0	0	-100	0	230	101300000	1000	0	0	-1	0
24042235	3999	3	0	-100	0	230	101300000	1000	0	0	-1	0
24054795	4010	0	0	-100	0	230	101300000	1000	0	0	-1	0
24067355	4001	0	0	-100	0	230	101300000	1000	0	0	-1	0
24079915	4002	0	0	-100	0	230	101300000	1000	0	0	-1	0
24092475	4002	0	0	-100	0	230	101300000	1000	0	0	-1	0
24105035	4006	0	0	-100	0	230	101300000	1000	0	0	-1	0
24117595	3998	0	0	-100	0	230	101300000	1000	0	0	-1	0
24130155	4009	3	0	-100	0	230	101300000	1000	0	0	-1	0
24142715	4009	0	0	-100	0	230	101300000	1000	0	0	-1	0
24155275	4002	0	0	-100	0	230	101300000	1000	0	0	-1	0
24167835	4002	1	0	-100	0	230	101300000	1000	0	0	-1	0
24180395	4003	0	0	-100	0	230	101300000	1000	0	0	-1	0
24192955	4006	1	0	-100	0	230	101300000	1000	0	0	-1	0
24205515	4006	0	0	-100	0	230	101300000	1000	0	0	-1	0
24218075	4002	0	0	-100	0	230	101300000	1000	0	0	-1	0
24230635	4006	0	0	-100	0	230	101300000	1000	0	0	-1	0
24243195	4000	2	0	-100	0	230	101300000	1000	0	0	-1	0
24255755	4004	0	0	-100	0	230	101300000	1000	0	0	-1	0
24268315	4004	4	0	-100	0	230	101300000	1000	0	0	-1	0
24280875	4008	0	0	-100	0	230	101300000	1000	0	0	-1	0
24293435	4004	4	0	-100	0	230	101300000	1000	0	0	-1	0
24305995	4008	4	0	-100	0	230	101300000	1000	0	0	-1	0
24318555	4004	1	0	-100	0	230	101300000	1000	0	0	-1	0
24331115	4011	0	0	-100	0	230	101300000	1000	0	0	-1	0
24343675	4000	0	0	-100	0	230	101300000	1000	0	0	-1	0
24356235	4002	1	0	-100	0	230	101300000	1000	0	0	-1	0
24368795	4005	0	0	-100	0	230	101300000	1000	0	0	-1	0
24381355	4003	1	0	-100	0	230	101300000	1000	0	0	-1	0
24393915	4002	0	0	-100	0	230	101300000	1000	0	0	-1	0
24406475	4004	0	0	-100	0	230	101300000	1000	0	0	-1	0
24419035	4003	0	0	-100	0	230	101300000	1000	0	0	-1	0
24431595	4004	0	0	-100	0	230	101300000	1000	0	0	-1	0
24444155	4014	0	0	-100	0	230	101300000	1000	0	0	-1	0
24456715	4000	2	0	-100	0	230	101300000	1000	0	0	-1	0
24469275	4010	0	0	-100	0	230	101300000	1000	0	0	-1	0
24481835	4004	4	0	-100	0	230	101300000	1000	0	0	-1	0
24494395	4008	0	0	-100	0	230	101300000	1000	0	0	-1	0
24506955	4000	0	0	-100	0	230	101300000	1000	0	0	-1	0
24519515	4005	0	0	-100	0	230	101300000	1000	0	0	-1	0
24532075	4006	0	0	-100	0	230	101300000	1000	0	0	-1	0
24544635	4002	3	0	-100	0	230	101300000	1000	0	0	-1	0
24557195	4005	0	0	-100	0	230	101300000	1000	0	0	-1	0
24569755	4003	0	0	-100	0	230	101300000	1000	0	0	-1	0
24582315	4002	0	0	-100	0	230	101300000	1000	0	0	-1	0
24594875	4008	0	0	-100	0	230	101300000	1000	0	0	-1	0
24607435	4002	0	0	-100	0	230	101300000	1000	0	0	-1	0
24619995	4007	4	0	-100	0	230	101300000	1000	0	0	-1	0
24632555	4004	0	0	-100	0	230	101300000	1000	0	0	-1	0
24645115	4004	2	0	-100	0	230	101300000	1000	0	0	-1	0
24657675	4006	0	0	-100	0	230	101300000	1000	0	0	-1	0
24670235	4002	0	0	-100	0	230	101300000	1000	0	0	-1	0
24682795	4001	0	0	-100	0	230	101300000	1000	0	0	-1	0
24695355	4008	0	0	-100	0	230	101300000	1000	0	0	-1	0
24707915	4005	3	0	-100	0	230	101300000	1000	0	0	-1	0
24720475	4010	0	0	-100	0	230	101300000	1000	0	0	-1	0
24733035	3999	0	0	-100	0	230	101300000	1000	0	0	-1	0
24745595	4005	0	0	-100	0	230	101300000	1000	0	0	-1	0
24758155	4011	2	0	-100	0	230	101300000	1000	0	0	-1	0
24770715	4009	0	0	-100	0	230	101300000	1000	0	0	-1	0
24783275	4003	2	0	-100	0	230	101300000	1000	0	0	-1	0
24795835	4006	0	0	-100	0	230	101300000	1000	0	0	-1	0
24808395	4004	4	0	-100	0	230	101300000	1000	0	0	-1	0
24820955	4009	0	0	-100	0	230	101300000	1000	0	0	-1	0
24833515	4004	4	0	-100	0	230	101300000	1000	0	0	-1	0
24846075	4010	0	0	-100	0	230	101300000	1000	0	0	-1	0
24858635	4000	0	0	-100	0	230	101300000	1000	0	0	-1	0
24871195	4004	0	0	-100	0	230	101300000	1000	0	0	-1	0
24883755	4004	0	0	-100	0	230	101300000	1000	0	0	-1	0
24896315	4002	3	0	-100	0	230	101300000	1000	0	0	-1	0
24908875	4008	0	0	-100	0	230	101300000	1000	0	0	-1	0
24921435	3999	0	0	-100	0	230	101300000	1000	0	0	-1	0
24933995	4000	0	0	-100	0	230	101300000	1000	0	0	-1	0
24946555	4006	0	0	-100	0	230	101300000	1000	0	0	-1	0
24959115	4001	3	0	-100	0	230	101300000	1000	0	0	-1	0
24971675	4006	0	0	-100	0	230	101300000	1000	0	0	-1	0
24984235	4004	2	0	-100	0	230	101300000	1000	0	0	-1	0
24996795	4005	0	0	-100	0	230	101300000	1000	0	0	-1	0
25009355	3999	0	0	-100	0	230	101300000	1000	0	0	-1	0
25021915	3999	1	0	-100	0	230	101300000	1000	0	0	-1	0
25034475	4008	0	0	-100	0	230	101300000	1000	0	0	-1	0
25047035	4000	0	0	-100	0	230	101300000	1000	0	0	-1	0
25059595	4000	1	0	-100	0	230	101300000	1000	0	0	-1	0
25072155	4012	0	0	-100	0	230	101300000	1000	0	0	-1	0
25084715	4000	1	0	-100	0	230	101300000	1000	0	0	-1	0
25097275	4008	0	0	-100	0	230	101300000	1000	0	0	-1	0
25109835	4003	1	0	-100	0	230	101300000	1000	0	0	-1	0
25122395	4001	0	0	-100	0	230	101300000	1000	0	0	-1	0
25134955	4005	0	0	-100	0	230	101300000	1000	0	0	-1	0
25147515	4002	0	0	-100	0	230	101300000	1000	0	0	-1	0
25160075	4008	0	0	-100	0	230	101300000	1000	0	0	-1	0
25172635	4005	0	0	-100	0	230	101300000	1000	0	0	-1	0
25185195	4009	0	0	-100	0	230	101300000	1000	0	0	-1	0
25210315	4009	0	0	-100	0	230	101300000	1000	0	0	-1	0
25222875	4002	3	0	-100	0	230	101300000	1000	0	0	-1	0
25235435	4006	0	0	-100	0	230	101300000	1000	0	0	-1	0
25247995	4005	0	0	-100	0	230	101300000	1000	0	0	-1	0
25260555	4005	0	0	-100	0	230	101300000	1000	0	0	-1	0
25273115	4001	3	0	-100	0	230	101300000	1000	0	0	-1	0
25285675	4006	0	0	-100	0	230	101300000	1000	0	0	-1	0
25298235	4005	3	0	-100	0	230	101300000	1000	0	0	-1	0
25310795	4014	0	0	-100	0	230	101300000	1000	0	0	-1	0
25323355	4004	0	0	-100	0	230	101300000	1000	0	0	-1	0
25335915	4001	4	0	-100	0	230	101300000	1000	0	0	-1	0
25348475	4006	0	0	-100	0	230	101300000	1000	0	0	-1	0
25361035	4000	4	0	-100	0	230	101300000	1000	0	0	-1	0
25373595	4006	0	0	-100	0	230	101300000	1000	0	0	-1	0
25386155	4011	0	0	-100	0	230	101300000	1000	0	0	-1	0
25398715	4001	1	0	-100	0	230	101300000	1000	0	0	-1	0
25411275	4005	0	0	-100	0	230	101300000	1000	0	0	-1	0
25423835	4005	0	0	-100	0	230	101300000	1000	0	0	-1	0
25436395	4004	0	0	-100	0	230	101300000	1000	0	0	-1	0
25448955	4002	4	0	-100	0	230	101300000	1000	0	0	-1	0
25461515	4006	0	0	-100	0	230	101300000	1000	0	0	-1	0
25474075	4003	0	0	-100	0	230	101300000	1000	0	0	-1	0
25486635	4001	1	0	-100	0	230	101300000	1000	0	0	-1	0
25499195	4008	0	0	-100	0	230	101300000	1000	0	0	-1	0
25511755	4001	0	0	-100	0	230	101300000	1000	0	0	-1	0
25524315	3999	1	0	-100	0	230	101300000	1000	0	0	-1	0
25536875	4008	0	0	-100	0	230	101300000	1000	0	0	-1	0
25549435	4004	0	0	-100	0	230	101300000	1000	0	0	-1	0
25561995	3999	0	0	-100	0	230	101300000	1000	0	0	-1	0
25574555	4005	0	0	-100	0	230	101300000	1000	0	0	-1	0
25587115	3999	0	0	-100	0	230	101300000	1000	0	0	-1	0
25599675	4000	4	0	-100	0	230	101300000	1000	0	0	-1	0
25612235	4011	0	0	-100	0	230	101300000	1000	0	0	-1	0
25624795	4000	0	0	-100	0	230	101300000	1000	0	0	-1	0
25637355	4000	0	0	-100	0	230	101300000	1000	0	0	-1	0
25649915	4005	0	0	-100	0	230	101300000	1000	0	0	-1	0
25662475	3998	0	0	-100	0	230	101300000	1000	0	0	-1	0
25675035	4000	1	0	-100	0	230	101300000	1000	0	0	-1	0
25687595	4010	0	0	-100	0	230	101300000	1000	0	0	-1	0
25700155	4006	0	0	-100	0	230	101300000	1000	0	0	-1	0
25712715	4001	0	0	-100	0	230	101300000	1000	0	0	-1	0
25725275	4010	0	0	-100	0	230	101300000	1000	0	0	-1	0
25737835	4000	0	0	-100	0	230	101300000	1000	0	0	-1	0
25750395	4000	2	0	-100	0	230	101300000	1000	0	0	-1	0
25762955	4006	0	0	-100	0	230	101300000	1000	0	0	-1	0
25775515	4000	0	0	-100	0	230	101300000	1000	0	0	-1	0
25788075	4001	1	0	-100	0	230	101300000	1000	0	0	-1	0
25800635	4006	0	0	-100	0	230	101300000	1000	0	0	-1	0
25813195	4003	0	0	-100	0	230	101300000	1000	0	0	-1	0
25825755	4002	4	0	-100	0	230	101300000	1000	0	0	-1	0
25838315	4008	0	0	-100	0	230	101300000	1000	0	0	-1	0
25850875	4006	0	0	-100	0	230	101300000	1000	0	0	-1	0
25863435	4001	3	0	-100	0	230	101300000	1000	0	0	-1	0
25875995	4007	3	0	-100	0	230	101300000	1000	0	0	-1	0
25888555	4006	0	0	-100	0	230	101300000	1000	0	0	-1	0
25901115	4001	4	0	-100	0	230	101300000	1000	0	0	-1	0
25913675	4009	0	0	-100	0	230	101300000	1000	0	0	-1	0
25926235	4006	0	0	-100	0	230	101300000	1000	0	0	-1	0
25938795	4003	0	0	-100	0	230	101300000	1000	0	0	-1	0
25951355	4006	4	0	-100	0	230	101300000	1000	0	0	-1	0
25963915	4003	2	0	-100	0	230	101300000	1000	0	0	-1	0
25976475	4006	0	0	-100	0	230	101300000	1000	0	0	-1	0
25989035	4008	0	0	-100	0	230	101300000	1000	0	0	-1	0
26001595	4004	1	0	-100	0	230	101300000	1000	0	0	-1	0
26014155	4010	0	0	-100	0	230	101300000	1000	0	0	-1	0
26026715	4008	0	0	-100	0	230	101300000	1000	0	0	-1	0
26039275	3998	0	0	-100	0	230	101300000	1000	0	0	-1	0
26051835	4001	0	0	-100	0	230	101300000	1000	0	0	-1	0
26064395	4006	0	0	-100	0	230	101300000	1000	0	0	-1	0
26076955	4005	0	0	-100	0	230	101300000	1000	0	0	-1	0
26089515	4004	4	0	-100	0	230	101300000	1000	0	0	-1	0
26102075	4003	1	0	-100	0	230	101300000	1000	0	0	-1	0
26114635	4010	0	0	-100	0	230	101300000	1000	0	0	-1	0
26127195	4004	0	0	-100	0	230	101300000	1000	0	0	-1	0
26139755	3998	0	0	-100	0	230	101300000	1000	0	0	-1	0
26152315	4006	3	0	-100	0	230	101300000	1000	0	0	-1	0
26164875	4007	0	0	-100	0	230	101300000	1000	0	0	-1	0
26177435	4006	0	0	-100	0	230	101300000	1000	0	0	-1	0
26189995	4003	0	0	-100	0	230	101300000	1000	0	0	-1	0
26202555	4002	2	0	-100	0	230	101300000	1000	0	0	-1	0
26215115	4010	0	0	-100	0	230	101300000	1000	0	0	-1	0
26227675	4008	0	0	-100	0	230	101300000	1000	0	0	-1	0
26240235	4004	1	0	-100	0	230	101300000	1000	0	0	-1	0
26252795	4004	0	0	-100	0	230	101300000	1000	0	0	-1	0
26265355	4006	0	0	-100	0	230	101300000	1000	0	0	-1	0
26277915	4000	0	0	-100	0	230	101300000	1000	0	0	-1	0
26290475	4004	4	0	-100	0	230	101300000	1000	0	0	-1	0
26303035	4000	1	0	-100	0	230	101300000	1000	0	0	-1	0
26315595	4010	0	0	-100	0	230	101300000	1000	0	0	-1	0
26328155	4014	0	0	-100	0	230	101300000	1000	0	0	-1	0
26340715	3999	0	0	-100	0	230	101300000	1000	0	0	-1	0
26353275	4003	4	0	-100	0	230	101300000	1000	0	0	-1	0
26365835	4004	0	0	-100	0	230	101300000	1000	0	0	-1	0
26378395	4006	0	0	-100	0	230	101300000	1000	0	0	-1	0
26390955	4006	0	0	-100	0	230	101300000	1000	0	0	-1	0
26403515	4001	0	0	-100	0	230	101300000	1000	0	0	-1	0
26416075	4002	3	0	-100	0	230	101300000	1000	0	0	-1	0
26428635	4004	0	0	-100	0	230	101300000	1000	0	0	-1	0
26441195	4009	0	0	-100	0	230	101300000	1000	0	0	-1	0
26453755	4008	0	0	-100	0	230	101300000	1000	0	0	-1	0
26466315	4008	0	0	-100	0	230	101300000	1000	0	0	-1	0
26478875	4001	3	0	-100	0	230	101300000	1000	0	0	-1	0
26491435	4009	0	0	-100	0	230	101300000	1000	0	0	-1	0
26503995	4006	0	0	-100	0	230	101300000	1000	0	0	-1	0
26516555	3999	0	0	-100	0	230	101300000	1000	0	0	-1	0
26529115	4003	0	0	-100	0	230	101300000	1000	0	0	-1	0
26541675	4004	0	0	-100	0	230	101300000	1000	0	0	-1	0
26554235	4004	2	0	-100	0	230	101300000	1000	0	0	-1	0
26566795	4006	0	0	-100	0	230	101300000	1000	0	0	-1	0
26579355	4003	4	0	-100	0	230	101300000	1000	0	0	-1	0
26591915	4006	0	0	-100	0	230	101300000	1000	0	0	-1	0
26604475	4004	0	0	-100	0	230	101300000	1000	0	0	-1	0
26617035	4001	3	0	-100	0	230	101300000	1000	0	0	-1	0
26629595	4010	0	0	-100	0	230	101300000	1000	0	0	-1	0
26642155	4010	0	0	-100	0	230	101300000	1000	0	0	-1	0
26654715	4002	3	0	-100	0	230	101300000	1000	0	0	-1	0
26667275	4005	0	0	-100	0	230	101300000	1000	0	0	-1	0
26679835	4004	0	0	-100	0	230	101300000	1000	0	0	-1	0
26692395	4009	0	0	-100	0	230	101300000	1000	0	0	-1	0
26704955	4001	0	0	-100	0	230	101300000	1000	0	0	-1	0
26717515	4002	0	0	-100	0	230	101300000	1000	0	0	-1	0
26730075	4008	0	0	-100	0	230	101300000	1000	0	0	-1	0
26742635	4000	3	0	-100	0	230	101300000	1000	0	0	-1	0
26755195	4005	0	0	-100	0	230	101300000	1000	0	0	-1	0
26767755	3999	0	0	-100	0	230	101300000	1000	0	0	-1	0
26780315	4008	0	0	-100	0	230	101300000	1000	0	0	-1	0
26792875	4001	0	0	-100	0	230	101300000	1000	0	0	-1	0
26805435	4005	0	0	-100	0	230	101300000	1000	0	0	-1	0
26817995	3998	0	0	-100	0	230	101300000	1000	0	0	-1	0
26830555	4004	1	0	-100	0	230	101300000	1000	0	0	-1	0
26843115	4005	0	0	-100	0	230	101300000	1000	0	0	-1	0
26855675	4005	2	0	-100	0	230	101300000	1000	0	0	-1	0
26868235	4010	0	0	-100	0	230	101300000	1000	0	0	-1	0
26880795	4001	3	0	-100	0	230	101300000	1000	0	0	-1	0
26893355	4010	0	0	-100	0	230	101300000	1000	0	0	-1	0
26905915	4000	4	0	-100	0	230	101300000	1000	0	0	-1	0
26918475	4006	0	0	-100	0	230	101300000	1000	0	0	-1	0
26931035	4003	4	0	-100	0	230	101300000	1000	0	0	-1	0
26943595	4009	0	0	-100	0	230	101300000	1000	0	0	-1	0
26956155	4006	0	0	-100	0	230	101300000	1000	0	0	-1	0
26968715	4003	2	0	-100	0	230	101300000	1000	0	0	-1	0
26981275	4005	0	0	-100	0	230	101300000	1000	0	0	-1	0
26993835	3999	3	0	-100	0	230	101300000	1000	0	0	-1	0
27006395	4005	0	0	-100	0	230	101300000	1000	0	0	-1	0
27018955	3998	4	0	-100	0	230	101300000	1000	0	0	-1	0
27031515	4005	0	0	-100	0	230	101300000	1000	0	0	-1	0
27044075	3999	3	0	-100	0	230	101300000	1000	0	0	-1	0
