timestamp	voltage	current	windSpeed	pitchAngle	rpm	temperature	ambientPressure	humidity	accelerationX	accelerationY	accelerationZ	currentSink
7037070	4509	1	0	-100	0	230	101300000	1000	0	0	-1	0
7044523	4512	0	0	-100	0	230	101300000	1000	0	0	-1	0
7057083	4515	0	0	-100	0	230	101300000	1000	0	0	-1	0
7069643	4515	0	0	-100	0	230	101300000	1000	0	0	-1	0
7082203	4513	2	0	-100	0	230	101300000	1000	0	0	-1	0
7094763	4509	0	0	-100	0	230	101300000	1000	0	0	-1	0
7107323	4512	0	0	-100	0	230	101300000	1000	0	0	-1	0
7119883	4518	0	0	-100	0	230	101300000	1000	0	0	-1	0
7132443	4508	1	0	-100	0	230	101300000	1000	0	0	-1	0
7145004	4509	0	0	-100	0	230	101300000	1000	0	0	-1	0
7157563	4514	0	0	-100	0	230	101300000	1000	0	0	-1	0
7170123	4518	0	0	-100	0	230	101300000	1000	0	0	-1	0
7182683	4507	1	0	-100	0	230	101300000	1000	0	0	-1	0
7195243	4514	0	0	-100	0	230	101300000	1000	0	0	-1	0
7207803	4512	0	0	-100	0	230	101300000	1000	0	0	-1	0
7220363	4516	0	0	-100	0	230	101300000	1000	0	0	-1	0
7232923	4516	0	0	-100	0	230	101300000	1000	0	0	-1	0
7245483	4508	0	0	-100	0	230	101300000	1000	0	0	-1	0
7258043	4510	4	0	-100	0	230	101300000	1000	0	0	-1	0
7270603	4510	0	0	-100	0	230	101300000	1000	0	0	-1	0
7283163	4510	0	0	-100	0	230	101300000	1000	0	0	-1	0
7295723	4515	0	0	-100	0	230	101300000	1000	0	0	-1	0
7308283	4515	0	0	-100	0	230	101300000	1000	0	0	-1	0
7320843	4515	0	0	-100	0	230	101300000	1000	0	0	-1	0
7333403	4513	0	0	-100	0	230	101300000	1000	0	0	-1	0
7345963	4506	3	0	-100	0	230	101300000	1000	0	0	-1	0
7701675	4514	0	0	-100	0	230	101300000	1000	0	0	-1	0
7714235	4518	0	0	-100	0	230	101300000	1000	0	0	-1	0
7726795	4516	0	0	-100	0	230	101300000	1000	0	0	-1	0
7739355	4507	0	0	-100	0	230	101300000	1000	0	0	-1	0
7751915	4508	0	0	-100	0	230	101300000	1000	0	0	-1	0
7764475	4514	0	0	-100	0	230	101300000	1000	0	0	-1	0
7777035	4513	0	0	-100	0	230	101300000	1000	0	0	-1	0
7789595	4515	2	0	-100	0	230	101300000	1000	0	0	-1	0
7802155	4510	0	0	-100	0	230	101300000	1000	0	0	-1	0
7814715	4519	0	0	-100	0	230	101300000	1000	0	0	-1	0
7827275	4510	3	0	-100	0	230	101300000	1000	0	0	-1	0
7839835	4506	0	0	-100	0	230	101300000	1000	0	0	-1	0
7852395	4516	0	0	-100	0	230	101300000	1000	0	0	-1	0
7864955	4508	0	0	-100	0	230	101300000	1000	0	0	-1	0
7877515	4510	0	0	-100	0	230	101300000	1000	0	0	-1	0
7890075	4513	0	0	-100	0	230	101300000	1000	0	0	-1	0
7902635	4515	0	0	-100	0	230	101300000	1000	0	0	-1	0
7915195	4513	0	0	-100	0	230	101300000	1000	0	0	-1	0
7927755	4512	1	0	-100	0	230	101300000	1000	0	0	-1	0
7940315	4514	0	0	-100	0	230	101300000	1000	0	0	-1	0
7952875	4515	0	0	-100	0	230	101300000	1000	0	0	-1	0
7965435	4509	3	0	-100	0	230	101300000	1000	0	0	-1	0
7977995	4510	0	0	-100	0	230	101300000	1000	0	0	-1	0
7990555	4518	0	0	-100	0	230	101300000	1000	0	0	-1	0
8003115	4514	0	0	-100	0	230	101300000	1000	0	0	-1	0
8015675	4514	0	0	-100	0	230	101300000	1000	0	0	-1	0
8028235	4509	4	0	-100	0	230	101300000	1000	0	0	-1	0
8040795	4516	0	0	-100	0	230	101300000	1000	0	0	-1	0
8053355	4515	0	0	-100	0	230	101300000	1000	0	0	-1	0
8065915	4508	1	0	-100	0	230	101300000	1000	0	0	-1	0
8078475	4509	0	0	-100	0	230	101300000	1000	0	0	-1	0
8091035	4514	0	0	-100	0	230	101300000	1000	0	0	-1	0
8103595	4515	0	0	-100	0	230	101300000	1000	0	0	-1	0
8116155	4514	0	0	-100	0	230	101300000	1000	0	0	-1	0
8128715	4509	1	0	-100	0	230	101300000	1000	0	0	-1	0
8141275	4509	3	0	-100	0	230	101300000	1000	0	0	-1	0
8153835	4509	0	0	-100	0	230	101300000	1000	0	0	-1	0
8166395	4512	0	0	-100	0	230	101300000	1000	0	0	-1	0
8178955	4513	0	0	-100	0	230	101300000	1000	0	0	-1	0
8191515	4510	0	0	-100	0	230	101300000	1000	0	0	-1	0
8204075	4508	0	0	-100	0	230	101300000	1000	0	0	-1	0
8216635	4516	0	0	-100	0	230	101300000	1000	0	0	-1	0
8229195	4509	0	0	-100	0	230	101300000	1000	0	0	-1	0
8241755	4509	1	0	-100	0	230	101300000	1000	0	0	-1	0
8254315	4510	0	0	-100	0	230	101300000	1000	0	0	-1	0
8266875	4515	0	0	-100	0	230	101300000	1000	0	0	-1	0
8279435	4514	0	0	-100	0	230	101300000	1000	0	0	-1	0
8291995	4519	0	0	-100	0	230	101300000	1000	0	0	-1	0
8304555	4512	0	0	-100	0	230	101300000	1000	0	0	-1	0
8317115	4515	0	0	-100	0	230	101300000	1000	0	0	-1	0
8329675	4516	0	0	-100	0	230	101300000	1000	0	0	-1	0
8342235	4516	0	0	-100	0	230	101300000	1000	0	0	-1	0
8354795	4520	0	0	-100	0	230	101300000	1000	0	0	-1	0
8367355	4513	0	0	-100	0	230	101300000	1000	0	0	-1	0
8379915	4518	0	0	-100	0	230	101300000	1000	0	0	-1	0
8392475	4520	0	0	-100	0	230	101300000	1000	0	0	-1	0
8405035	4509	0	0	-100	0	230	101300000	1000	0	0	-1	0
8417595	4512	0	0	-100	0	230	101300000	1000	0	0	-1	0
8430155	4508	1	0	-100	0	230	101300000	1000	0	0	-1	0
8442715	4509	3	0	-100	0	230	101300000	1000	0	0	-1	0
8455275	4514	0	0	-100	0	230	101300000	1000	0	0	-1	0
8467835	4507	0	0	-100	0	230	101300000	1000	0	0	-1	0
8480395	4509	0	0	-100	0	230	101300000	1000	0	0	-1	0
8492955	4513	0	0	-100	0	230	101300000	1000	0	0	-1	0
8505515	4513	0	0	-100	0	230	101300000	1000	0	0	-1	0
8518075	4518	0	0	-100	0	230	101300000	1000	0	0	-1	0
8530635	4515	0	0	-100	0	230	101300000	1000	0	0	-1	0
8543195	4516	0	0	-100	0	230	101300000	1000	0	0	-1	0
8555755	4514	0	0	-100	0	230	101300000	1000	0	0	-1	0
8568315	4509	2	0	-100	0	230	101300000	1000	0	0	-1	0
8580875	4510	2	0	-100	0	230	101300000	1000	0	0	-1	0
8593435	4513	4	0	-100	0	230	101300000	1000	0	0	-1	0
8605995	4508	0	0	-100	0	230	101300000	1000	0	0	-1	0
8618555	4513	0	0	-100	0	230	101300000	1000	0	0	-1	0
8631115	4518	0	0	-100	0	230	101300000	1000	0	0	-1	0
8643675	4515	0	0	-100	0	230	101300000	1000	0	0	-1	0
8656235	4513	0	0	-100	0	230	101300000	1000	0	0	-1	0
8668795	4513	0	0	-100	0	230	101300000	1000	0	0	-1	0
8681355	4513	0	0	-100	0	230	101300000	1000	0	0	-1	0
8693915	4515	0	0	-100	0	230	101300000	1000	0	0	-1	0
8706475	4512	0	0	-100	0	230	101300000	1000	0	0	-1	0
8719035	4512	2	0	-100	0	230	101300000	1000	0	0	-1	0
8731595	4509	0	0	-100	0	230	101300000	1000	0	0	-1	0
8744155	4510	0	0	-100	0	230	101300000	1000	0	0	-1	0
8756715	4516	0	0	-100	0	230	101300000	1000	0	0	-1	0
8769275	4518	0	0	-100	0	230	101300000	1000	0	0	-1	0
8781835	4516	0	0	-100	0	230	101300000	1000	0	0	-1	0
8844635	4515	0	0	-100	0	230	101300000	1000	0	0	-1	0
8857195	4518	0	0	-100	0	230	101300000	1000	0	0	-1	0
8869755	4510	0	0	-100	0	230	101300000	1000	0	0	-1	0
8882315	4509	2	0	-100	0	230	101300000	1000	0	0	-1	0
8894875	4513	2	0	-100	0	230	101300000	1000	0	0	-1	0
8907435	4510	0	0	-100	0	230	101300000	1000	0	0	-1	0
8919995	4508	0	0	-100	0	230	101300000	1000	0	0	-1	0
8932555	4510	0	0	-100	0	230	101300000	1000	0	0	-1	0
8945115	4514	0	0	-100	0	230	101300000	1000	0	0	-1	0
8957675	4516	0	0	-100	0	230	101300000	1000	0	0	-1	0
8970235	4518	0	0	-100	0	230	101300000	1000	0	0	-1	0
8982795	4509	0	0	-100	0	230	101300000	1000	0	0	-1	0
8995355	4514	1	0	-100	0	230	101300000	1000	0	0	-1	0
9007915	4510	3	0	-100	0	230	101300000	1000	0	0	-1	0
9020475	4512	4	0	-100	0	230	101300000	1000	0	0	-1	0
9033035	4510	0	0	-100	0	230	101300000	1000	0	0	-1	0
9045595	4513	0	0	-100	0	230	101300000	1000	0	0	-1	0
9058155	4514	0	0	-100	0	230	101300000	1000	0	0	-1	0
9070715	4518	0	0	-100	0	230	101300000	1000	0	0	-1	0
9083275	4509	0	0	-100	0	230	101300000	1000	0	0	-1	0
9095835	4513	3	0	-100	0	230	101300000	1000	0	0	-1	0
9108395	4506	0	0	-100	0	230	101300000	1000	0	0	-1	0
9120955	4509	0	0	-100	0	230	101300000	1000	0	0	-1	0
9133515	4512	0	0	-100	0	230	101300000	1000	0	0	-1	0
9146075	4514	0	0	-100	0	230	101300000	1000	0	0	-1	0
9158635	4514	0	0	-100	0	230	101300000	1000	0	0	-1	0
9171195	4514	0	0	-100	0	230	101300000	1000	0	0	-1	0
9183755	4520	0	0	-100	0	230	101300000	1000	0	0	-1	0
9196315	4509	0	0	-100	0	230	101300000	1000	0	0	-1	0
9208875	4512	3	0	-100	0	230	101300000	1000	0	0	-1	0
9221435	4510	1	0	-100	0	230	101300000	1000	0	0	-1	0
9233995	4509	0	0	-100	0	230	101300000	1000	0	0	-1	0
9246555	4513	0	0	-100	0	230	101300000	1000	0	0	-1	0
9259115	4508	2	0	-100	0	230	101300000	1000	0	0	-1	0
9271675	4510	0	0	-100	0	230	101300000	1000	0	0	-1	0
9284235	4514	0	0	-100	0	230	101300000	1000	0	0	-1	0
9296795	4519	0	0	-100	0	230	101300000	1000	0	0	-1	0
9309355	4509	0	0	-100	0	230	101300000	1000	0	0	-1	0
9321915	4508	0	0	-100	0	230	101300000	1000	0	0	-1	0
9334475	4515	0	0	-100	0	230	101300000	1000	0	0	-1	0
9347035	4515	0	0	-100	0	230	101300000	1000	0	0	-1	0
9359595	4510	0	0	-100	0	230	101300000	1000	0	0	-1	0
9372155	4512	4	0	-100	0	230	101300000	1000	0	0	-1	0
9384715	4507	0	0	-100	0	230	101300000	1000	0	0	-1	0
9397275	4513	0	0	-100	0	230	101300000	1000	0	0	-1	0
9409835	4516	0	0	-100	0	230	101300000	1000	0	0	-1	0
9422395	4513	0	0	-100	0	230	101300000	1000	0	0	-1	0
9434955	4516	0	0	-100	0	230	101300000	1000	0	0	-1	0
9447515	4508	0	0	-100	0	230	101300000	1000	0	0	-1	0
9460075	4510	2	0	-100	0	230	101300000	1000	0	0	-1	0
9472635	4510	3	0	-100	0	230	101300000	1000	0	0	-1	0
9485195	4509	0	0	-100	0	230	101300000	1000	0	0	-1	0
9497755	4510	0	0	-100	0	230	101300000	1000	0	0	-1	0
9510315	4513	0	0	-100	0	230	101300000	1000	0	0	-1	0
9522875	4519	0	0	-100	0	230	101300000	1000	0	0	-1	0
9535435	4512	0	0	-100	0	230	101300000	1000	0	0	-1	0
9547995	4509	0	0	-100	0	230	101300000	1000	0	0	-1	0
9560555	4509	0	0	-100	0	230	101300000	1000	0	0	-1	0
9573115	4513	0	0	-100	0	230	101300000	1000	0	0	-1	0
9585675	4513	0	0	-100	0	230	101300000	1000	0	0	-1	0
9598235	4518	0	0	-100	0	230	101300000	1000	0	0	-1	0
9610795	4519	0	0	-100	0	230	101300000	1000	0	0	-1	0
9623355	4507	0	0	-100	0	230	101300000	1000	0	0	-1	0
9635915	4510	2	0	-100	0	230	101300000	1000	0	0	-1	0
9648475	4507	0	0	-100	0	230	101300000	1000	0	0	-1	0
9661035	4510	0	0	-100	0	230	101300000	1000	0	0	-1	0
9673595	4515	0	0	-100	0	230	101300000	1000	0	0	-1	0
9686155	4516	0	0	-100	0	230	101300000	1000	0	0	-1	0
9698715	4513	0	0	-100	0	230	101300000	1000	0	0	-1	0
9711275	4512	2	0	-100	0	230	101300000	1000	0	0	-1	0
9723835	4504	0	0	-100	0	230	101300000	1000	0	0	-1	0
9736395	4515	0	0	-100	0	230	101300000	1000	0	0	-1	0
9748955	4518	0	0	-100	0	230	101300000	1000	0	0	-1	0
9761515	4508	0	0	-100	0	230	101300000	1000	0	0	-1	0
9774075	4513	2	0	-100	0	230	101300000	1000	0	0	-1	0
9786635	4507	0	0	-100	0	230	101300000	1000	0	0	-1	0
9799195	4513	0	0	-100	0	230	101300000	1000	0	0	-1	0
9811755	4516	0	0	-100	0	230	101300000	1000	0	0	-1	0
9824315	4513	0	0	-100	0	230	101300000	1000	0	0	-1	0
9836875	4514	3	0	-100	0	230	101300000	1000	0	0	-1	0
9849435	4509	0	0	-100	0	230	101300000	1000	0	0	-1	0
9861995	4509	0	0	-100	0	230	101300000	1000	0	0	-1	0
9874555	4514	0	0	-100	0	230	101300000	1000	0	0	-1	0
9887115	4513	0	0	-100	0	230	101300000	1000	0	0	-1	0
9899675	4518	0	0	-100	0	230	101300000	1000	0	0	-1	0
9912235	4523	0	0	-100	0	230	101300000	1000	0	0	-1	0
9924795	4513	0	0	-100	0	230	101300000	1000	0	0	-1	0
9937355	4514	0	0	-100	0	230	101300000	1000	0	0	-1	0
9949915	4520	0	0	-100	0	230	101300000	1000	0	0	-1	0
9962475	4519	0	0	-100	0	230	101300000	1000	0	0	-1	0
9975035	4515	0	0	-100	0	230	101300000	1000	0	0	-1	0
9987595	4509	0	0	-100	0	230	101300000	1000	0	0	-1	0
10000155	4510	0	0	-100	0	230	101300000	1000	0	0	-1	0
10012715	4512	2	0	-100	0	230	101300000	1000	0	0	-1	0
10025275	4510	2	0	-100	0	230	101300000	1000	0	0	-1	0
10037835	4512	3	0	-100	0	230	101300000	1000	0	0	-1	0
10050395	4509	0	0	-100	0	230	101300000	1000	0	0	-1	0
10062955	4510	0	0	-100	0	230	101300000	1000	0	0	-1	0
10075515	4515	0	0	-100	0	230	101300000	1000	0	0	-1	0
10088075	4513	0	0	-100	0	230	101300000	1000	0	0	-1	0
10100635	4515	0	0	-100	0	230	101300000	1000	0	0	-1	0
10113195	4520	0	0	-100	0	230	101300000	1000	0	0	-1	0
10125755	4512	0	0	-100	0	230	101300000	1000	0	0	-1	0
10138315	4518	0	0	-100	0	230	101300000	1000	0	0	-1	0
10150875	4513	0	0	-100	0	230	101300000	1000	0	0	-1	0
10163435	4507	1	0	-100	0	230	101300000	1000	0	0	-1	0
10175995	4508	0	0	-100	0	230	101300000	1000	0	0	-1	0
10188555	4514	2	0	-100	0	230	101300000	1000	0	0	-1	0
10201115	4509	0	0	-100	0	230	101300000	1000	0	0	-1	0
10213675	4509	0	0	-100	0	230	101300000	1000	0	0	-1	0
10226235	4508	0	0	-100	0	230	101300000	1000	0	0	-1	0
10238795	4507	0	0	-100	0	230	101300000	1000	0	0	-1	0
10251355	4510	0	0	-100	0	230	101300000	1000	0	0	-1	0
10263915	4510	0	0	-100	0	230	101300000	1000	0	0	-1	0
10276475	4515	0	0	-100	0	230	101300000	1000	0	0	-1	0
10289035	4516	0	0	-100	0	230	101300000	1000	0	0	-1	0
10301595	4516	0	0	-100	0	230	101300000	1000	0	0	-1	0
10314155	4514	0	0	-100	0	230	101300000	1000	0	0	-1	0
10326715	4510	0	0	-100	0	230	101300000	1000	0	0	-1	0
10339275	4514	4	0	-100	0	230	101300000	1000	0	0	-1	0
10351835	4512	0	0	-100	0	230	101300000	1000	0	0	-1	0
10364395	4518	0	0	-100	0	230	101300000	1000	0	0	-1	0
10376955	4512	0	0	-100	0	230	101300000	1000	0	0	-1	0
10389515	4513	2	0	-100	0	230	101300000	1000	0	0	-1	0
10402075	4510	0	0	-100	0	230	101300000	1000	0	0	-1	0
10414635	4519	0	0	-100	0	230	101300000	1000	0	0	-1	0
10427195	4514	0	0	-100	0	230	101300000	1000	0	0	-1	0
10439755	4516	0	0	-100	0	230	101300000	1000	0	0	-1	0
10452315	4509	2	0	-100	0	230	101300000	1000	0	0	-1	0
10464875	4510	1	0	-100	0	230	101300000	1000	0	0	-1	0
10477435	4512	0	0	-100	0	230	101300000	1000	0	0	-1	0
10489995	4518	0	0	-100	0	230	101300000	1000	0	0	-1	0
10502555	4510	0	0	-100	0	230	101300000	1000	0	0	-1	0
10515115	4514	3	0	-100	0	230	101300000	1000	0	0	-1	0
10527675	4512	0	0	-100	0	230	101300000	1000	0	0	-1	0
10540235	4515	0	0	-100	0	230	101300000	1000	0	0	-1	0
10552795	4512	2	0	-100	0	230	101300000	1000	0	0	-1	0
10565355	4509	0	0	-100	0	230	101300000	1000	0	0	-1	0
10577915	4515	0	0	-100	0	230	101300000	1000	0	0	-1	0
10590475	4516	0	0	-100	0	230	101300000	1000	0	0	-1	0
10603035	4513	0	0	-100	0	230	101300000	1000	0	0	-1	0
10615595	4512	0	0	-100	0	230	101300000	1000	0	0	-1	0
10628155	4508	0	0	-100	0	230	101300000	1000	0	0	-1	0
10640715	4510	2	0	-100	0	230	101300000	1000	0	0	-1	0
10653275	4512	1	0	-100	0	230	101300000	1000	0	0	-1	0
10665835	4510	4	0	-100	0	230	101300000	1000	0	0	-1	0
10678395	4508	0	0	-100	0	230	101300000	1000	0	0	-1	0
10690955	4508	0	0	-100	0	230	101300000	1000	0	0	-1	0
10703515	4506	0	0	-100	0	230	101300000	1000	0	0	-1	0
10716075	4515	0	0	-100	0	230	101300000	1000	0	0	-1	0
10728635	4515	0	0	-100	0	230	101300000	1000	0	0	-1	0
10741195	4518	0	0	-100	0	230	101300000	1000	0	0	-1	0
10753755	4515	0	0	-100	0	230	101300000	1000	0	0	-1	0
10766315	4510	0	0	-100	0	230	101300000	1000	0	0	-1	0
10778875	4513	0	0	-100	0	230	101300000	1000	0	0	-1	0
10791435	4516	0	0	-100	0	230	101300000	1000	0	0	-1	0
10803995	4515	4	0	-100	0	230	101300000	1000	0	0	-1	0
10816555	4510	0	0	-100	0	230	101300000	1000	0	0	-1	0
10829115	4510	3	0	-100	0	230	101300000	1000	0	0	-1	0
10841675	4510	2	0	-100	0	230	101300000	1000	0	0	-1	0
10854235	4506	0	0	-100	0	230	101300000	1000	0	0	-1	0
10866795	4512	0	0	-100	0	230	101300000	1000	0	0	-1	0
10879355	4516	0	0	-100	0	230	101300000	1000	0	0	-1	0
10891915	4520	0	0	-100	0	230	101300000	1000	0	0	-1	0
10904475	4515	0	0	-100	0	230	101300000	1000	0	0	-1	0
10917035	4516	0	0	-100	0	230	101300000	1000	0	0	-1	0
10929595	4510	0	0	-100	0	230	101300000	1000	0	0	-1	0
10942155	4509	2	0	-100	0	230	101300000	1000	0	0	-1	0
10954715	4514	0	0	-100	0	230	101300000	1000	0	0	-1	0
10967275	4515	0	0	-100	0	230	101300000	1000	0	0	-1	0
10979835	4508	1	0	-100	0	230	101300000	1000	0	0	-1	0
10992395	4508	0	0	-100	0	230	101300000	1000	0	0	-1	0
11004955	4515	0	0	-100	0	230	101300000	1000	0	0	-1	0
11017515	4509	1	0	-100	0	230	101300000	1000	0	0	-1	0
11030075	4513	0	0	-100	0	230	101300000	1000	0	0	-1	0
11042635	4519	0	0	-100	0	230	101300000	1000	0	0	-1	0
11055195	4512	1	0	-100	0	230	101300000	1000	0	0	-1	0
11067755	4513	0	0	-100	0	230	101300000	1000	0	0	-1	0
11080315	4510	0	0	-100	0	230	101300000	1000	0	0	-1	0
11092875	4508	0	0	-100	0	230	101300000	1000	0	0	-1	0
11105435	4514	0	0	-100	0	230	101300000	1000	0	0	-1	0
11117995	4510	0	0	-100	0	230	101300000	1000	0	0	-1	0
11130555	4513	4	0	-100	0	230	101300000	1000	0	0	-1	0
11143115	4516	0	0	-100	0	230	101300000	1000	0	0	-1	0
11155675	4514	0	0	-100	0	230	101300000	1000	0	0	-1	0
11168235	4512	2	0	-100	0	230	101300000	1000	0	0	-1	0
11180795	4514	0	0	-100	0	230	101300000	1000	0	0	-1	0
11193355	4518	0	0	-100	0	230	101300000	1000	0	0	-1	0
11205915	4512	2	0	-100	0	230	101300000	1000	0	0	-1	0
11218475	4520	0	0	-100	0	230	101300000	1000	0	0	-1	0
11231035	4510	0	0	-100	0	230	101300000	1000	0	0	-1	0
11243595	4507	0	0	-100	0	230	101300000	1000	0	0	-1	0
11256155	4515	0	0	-100	0	230	101300000	1000	0	0	-1	0
11268715	4515	0	0	-100	0	230	101300000	1000	0	0	-1	0
11281275	4508	2	0	-100	0	230	101300000	1000	0	0	-1	0
11293835	4509	0	0	-100	0	230	101300000	1000	0	0	-1	0
11306395	4518	0	0	-100	0	230	101300000	1000	0	0	-1	0
11318955	4509	0	0	-100	0	230	101300000	1000	0	0	-1	0
11331515	4507	0	0	-100	0	230	101300000	1000	0	0	-1	0
11344075	4513	0	0	-100	0	230	101300000	1000	0	0	-1	0
11356635	4518	2	0	-100	0	230	101300000	1000	0	0	-1	0
11369195	4515	0	0	-100	0	230	101300000	1000	0	0	-1	0
11381755	4513	0	0	-100	0	230	101300000	1000	0	0	-1	0
11394315	4512	0	0	-100	0	230	101300000	1000	0	0	-1	0
11406875	4515	0	0	-100	0	230	101300000	1000	0	0	-1	0
11419435	4514	4	0	-100	0	230	101300000	1000	0	0	-1	0
11431995	4519	0	0	-100	0	230	101300000	1000	0	0	-1	0
11444555	4510	0	0	-100	0	230	101300000	1000	0	0	-1	0
11457115	4512	0	0	-100	0	230	101300000	1000	0	0	-1	0
11469675	4512	2	0	-100	0	230	101300000	1000	0	0	-1	0
11482235	4508	0	0	-100	0	230	101300000	1000	0	0	-1	0
11494795	4519	0	0	-100	0	230	101300000	1000	0	0	-1	0
11507355	4515	0	0	-100	0	230	101300000	1000	0	0	-1	0
11519915	4508	3	0	-100	0	230	101300000	1000	0	0	-1	0
11532475	4513	0	0	-100	0	230	101300000	1000	0	0	-1	0
11545035	4509	0	0	-100	0	230	101300000	1000	0	0	-1	0
11557595	4516	0	0	-100	0	230	101300000	1000	0	0	-1	0
11570155	4519	0	0	-100	0	230	101300000	1000	0	0	-1	0
11582715	4508	1	0	-100	0	230	101300000	1000	0	0	-1	0
11595275	4514	0	0	-100	0	230	101300000	1000	0	0	-1	0
11607835	4513	0	0	-100	0	230	101300000	1000	0	0	-1	0
11620395	4516	0	0	-100	0	230	101300000	1000	0	0	-1	0
11632955	4512	0	0	-100	0	230	101300000	1000	0	0	-1	0
11645515	4508	2	0	-100	0	230	101300000	1000	0	0	-1	0
11658075	4506	0	0	-100	0	230	101300000	1000	0	0	-1	0
11670635	4512	0	0	-100	0	230	101300000	1000	0	0	-1	0
11683195	4514	0	0	-100	0	230	101300000	1000	0	0	-1	0
11695755	4518	0	0	-100	0	230	101300000	1000	0	0	-1	0
11708315	4510	0	0	-100	0	230	101300000	1000	0	0	-1	0
11720875	4510	2	0	-100	0	230	101300000	1000	0	0	-1	0
11733435	4510	0	0	-100	0	230	101300000	1000	0	0	-1	0
11745995	4514	1	0	-100	0	230	101300000	1000	0	0	-1	0
11758555	4504	0	0	-100	0	230	101300000	1000	0	0	-1	0
11771115	4512	0	0	-100	0	230	101300000	1000	0	0	-1	0
11783675	4516	0	0	-100	0	230	101300000	1000	0	0	-1	0
11796235	4518	0	0	-100	0	230	101300000	1000	0	0	-1	0
11808795	4510	3	0	-100	0	230	101300000	1000	0	0	-1	0
11821355	4507	0	0	-100	0	230	101300000	1000	0	0	-1	0
11833915	4515	0	0	-100	0	230	101300000	1000	0	0	-1	0
11846475	4510	0	0	-100	0	230	101300000	1000	0	0	-1	0
11859035	4512	0	0	-100	0	230	101300000	1000	0	0	-1	0
11871595	4515	0	0	-100	0	230	101300000	1000	0	0	-1	0
11884155	4513	0	0	-100	0	230	101300000	1000	0	0	-1	0
11896715	4510	3	0	-100	0	230	101300000	1000	0	0	-1	0
11909275	4510	0	0	-100	0	230	101300000	1000	0	0	-1	0
11921835	4515	0	0	-100	0	230	101300000	1000	0	0	-1	0
11934395	4512	1	0	-100	0	230	101300000	1000	0	0	-1	0
11946955	4508	0	0	-100	0	230	101300000	1000	0	0	-1	0
11959515	4515	0	0	-100	0	230	101300000	1000	0	0	-1	0
11972075	4519	0	0	-100	0	230	101300000	1000	0	0	-1	0
11984635	4506	1	0	-100	0	230	101300000	1000	0	0	-1	0
11997195	4508	0	0	-100	0	230	101300000	1000	0	0	-1	0
12009755	4514	0	0	-100	0	230	101300000	1000	0	0	-1	0
12022315	4513	0	0	-100	0	230	101300000	1000	0	0	-1	0
12034875	4518	0	0	-100	0	230	101300000	1000	0	0	-1	0
12047435	4514	0	0	-100	0	230	101300000	1000	0	0	-1	0
12059995	4510	0	0	-100	0	230	101300000	1000	0	0	-1	0
12072555	4515	2	0	-100	0	230	101300000	1000	0	0	-1	0
12085115	4508	0	0	-100	0	230	101300000	1000	0	0	-1	0
12097675	4510	0	0	-100	0	230	101300000	1000	0	0	-1	0
12110235	4518	0	0	-100	0	230	101300000	1000	0	0	-1	0
12122795	4515	0	0	-100	0	230	101300000	1000	0	0	-1	0
12135355	4520	0	0	-100	0	230	101300000	1000	0	0	-1	0
12147915	4512	0	0	-100	0	230	101300000	1000	0	0	-1	0
12160475	4510	2	0	-100	0	230	101300000	1000	0	0	-1	0
12173035	4514	1	0	-100	0	230	101300000	1000	0	0	-1	0
12185595	4510	0	0	-100	0	230	101300000	1000	0	0	-1	0
12198155	4516	0	0	-100	0	230	101300000	1000	0	0	-1	0
12210715	4518	0	0	-100	0	230	101300000	1000	0	0	-1	0
12223275	4515	0	0	-100	0	230	101300000	1000	0	0	-1	0
12235835	4507	1	0	-100	0	230	101300000	1000	0	0	-1	0
12248395	4512	2	0	-100	0	230	101300000	1000	0	0	-1	0
12260955	4508	3	0	-100	0	230	101300000	1000	0	0	-1	0
12273515	4509	4	0	-100	0	230	101300000	1000	0	0	-1	0
12286075	4509	0	0	-100	0	230	101300000	1000	0	0	-1	0
12298635	4513	0	0	-100	0	230	101300000	1000	0	0	-1	0
12311195	4515	0	0	-100	0	230	101300000	1000	0	0	-1	0
12323755	4513	0	0	-100	0	230	101300000	1000	0	0	-1	0
12336315	4513	0	0	-100	0	230	101300000	1000	0	0	-1	0
12348875	4510	4	0	-100	0	230	101300000	1000	0	0	-1	0
12361435	4509	0	0	-100	0	230	101300000	1000	0	0	-1	0
12373995	4518	0	0	-100	0	230	101300000	1000	0	0	-1	0
12386555	4512	0	0	-100	0	230	101300000	1000	0	0	-1	0
12399115	4513	3	0	-100	0	230	101300000	1000	0	0	-1	0
12411675	4514	0	0	-100	0	230	101300000	1000	0	0	-1	0
12424235	4515	0	0	-100	0	230	101300000	1000	0	0	-1	0
12436795	4512	0	0	-100	0	230	101300000	1000	0	0	-1	0
12449355	4512	4	0	-100	0	230	101300000	1000	0	0	-1	0
12461915	4510	0	0	-100	0	230	101300000	1000	0	0	-1	0
12474475	4518	0	0	-100	0	230	101300000	1000	0	0	-1	0
12487035	4513	0	0	-100	0	230	101300000	1000	0	0	-1	0
12499595	4507	4	0	-100	0	230	101300000	1000	0	0	-1	0
12512155	4506	0	0	-100	0	230	101300000	1000	0	0	-1	0
12524715	4508	0	0	-100	0	230	101300000	1000	0	0	-1	0
12537275	4513	0	0	-100	0	230	101300000	1000	0	0	-1	0
12549835	4518	0	0	-100	0	230	101300000	1000	0	0	-1	0
12562395	4515	0	0	-100	0	230	101300000	1000	0	0	-1	0
12574955	4515	0	0	-100	0	230	101300000	1000	0	0	-1	0
12587515	4510	0	0	-100	0	230	101300000	1000	0	0	-1	0
12600075	4512	0	0	-100	0	230	101300000	1000	0	0	-1	0
12612635	4513	2	0	-100	0	230	101300000	1000	0	0	-1	0
12625195	4512	4	0	-100	0	230	101300000	1000	0	0	-1	0
12637755	4512	0	0	-100	0	230	101300000	1000	0	0	-1	0
12650315	4510	0	0	-100	0	230	101300000	1000	0	0	-1	0
12662875	4508	0	0	-100	0	230	101300000	1000	0	0	-1	0
12675435	4514	0	0	-100	0	230	101300000	1000	0	0	-1	0
12687995	4512	1	0	-100	0	230	101300000	1000	0	0	-1	0
12700555	4508	2	0	-100	0	230	101300000	1000	0	0	-1	0
12713115	4512	0	0	-100	0	230	101300000	1000	0	0	-1	0
12725675	4512	0	0	-100	0	230	101300000	1000	0	0	-1	0
12738235	4518	0	0	-100	0	230	101300000	1000	0	0	-1	0
12750795	4514	0	0	-100	0	230	101300000	1000	0	0	-1	0
12763355	4512	0	0	-100	0	230	101300000	1000	0	0	-1	0
12775915	4510	3	0	-100	0	230	101300000	1000	0	0	-1	0
12788475	4504	0	0	-100	0	230	101300000	1000	0	0	-1	0
12801035	4512	0	0	-100	0	230	101300000	1000	0	0	-1	0
12813595	4518	0	0	-100	0	230	101300000	1000	0	0	-1	0
12826155	4513	0	0	-100	0	230	101300000	1000	0	0	-1	0
12838715	4514	0	0	-100	0	230	101300000	1000	0	0	-1	0
12851275	4516	0	0	-100	0	230	101300000	1000	0	0	-1	0
12863835	4510	0	0	-100	0	230	101300000	1000	0	0	-1	0
12876395	4509	2	0	-100	0	230	101300000	1000	0	0	-1	0
12888955	4512	0	0	-100	0	230	101300000	1000	0	0	-1	0
12901515	4514	0	0	-100	0	230	101300000	1000	0	0	-1	0
12914075	4516	0	0	-100	0	230	101300000	1000	0	0	-1	0
12926635	4516	0	0	-100	0	230	101300000	1000	0	0	-1	0
12939195	4513	0	0	-100	0	230	101300000	1000	0	0	-1	0
12951755	4512	1	0	-100	0	230	101300000	1000	0	0	-1	0
12964315	4510	4	0	-100	0	230	101300000	1000	0	0	-1	0
12976875	4508	0	0	-100	0	230	101300000	1000	0	0	-1	0
12989435	4512	0	0	-100	0	230	101300000	1000	0	0	-1	0
13001995	4515	2	0	-100	0	230	101300000	1000	0	0	-1	0
13014555	4516	0	0	-100	0	230	101300000	1000	0	0	-1	0
13027115	4512	1	0	-100	0	230	101300000	1000	0	0	-1	0
13039675	4513	3	0	-100	0	230	101300000	1000	0	0	-1	0
13052235	4514	0	0	-100	0	230	101300000	1000	0	0	-1	0
13064795	4507	0	0	-100	0	230	101300000	1000	0	0	-1	0
13077355	4506	0	0	-100	0	230	101300000	1000	0	0	-1	0
13089915	4509	0	0	-100	0	230	101300000	1000	0	0	-1	0
13102475	4510	0	0	-100	0	230	101300000	1000	0	0	-1	0
13115035	4513	0	0	-100	0	230	101300000	1000	0	0	-1	0
13127595	4512	0	0	-100	0	230	101300000	1000	0	0	-1	0
13140155	4515	0	0	-100	0	230	101300000	1000	0	0	-1	0
13152715	4523	0	0	-100	0	230	101300000	1000	0	0	-1	0
13165275	4510	0	0	-100	0	230	101300000	1000	0	0	-1	0
13177835	4507	1	0	-100	0	230	101300000	1000	0	0	-1	0
13190395	4514	3	0	-100	0	230	101300000	1000	0	0	-1	0
13202955	4510	0	0	-100	0	230	101300000	1000	0	0	-1	0
13215515	4513	0	0	-100	0	230	101300000	1000	0	0	-1	0
13228075	4515	0	0	-100	0	230	101300000	1000	0	0	-1	0
13240635	4514	0	0	-100	0	230	101300000	1000	0	0	-1	0
13253195	4515	0	0	-100	0	230	101300000	1000	0	0	-1	0
13265755	4508	0	0	-100	0	230	101300000	1000	0	0	-1	0
13278315	4507	0	0	-100	0	230	101300000	1000	0	0	-1	0
13290875	4508	3	0	-100	0	230	101300000	1000	0	0	-1	0
13303435	4510	0	0	-100	0	230	101300000	1000	0	0	-1	0
13315995	4512	0	0	-100	0	230	101300000	1000	0	0	-1	0
13328555	4509	0	0	-100	0	230	101300000	1000	0	0	-1	0
13341115	4514	0	0	-100	0	230	101300000	1000	0	0	-1	0
13353675	4515	0	0	-100	0	230	101300000	1000	0	0	-1	0
13366235	4514	0	0	-100	0	230	101300000	1000	0	0	-1	0
13378795	4515	0	0	-100	0	230	101300000	1000	0	0	-1	0
13391355	4514	0	0	-100	0	230	101300000	1000	0	0	-1	0
13403915	4512	0	0	-100	0	230	101300000	1000	0	0	-1	0
13416475	4510	0	0	-100	0	230	101300000	1000	0	0	-1	0
13429035	4509	3	0	-100	0	230	101300000	1000	0	0	-1	0
13441595	4513	0	0	-100	0	230	101300000	1000	0	0	-1	0
13454155	4508	0	0	-100	0	230	101300000	1000	0	0	-1	0
13466715	4514	0	0	-100	0	230	101300000	1000	0	0	-1	0
13479275	4516	0	0	-100	0	230	101300000	1000	0	0	-1	0
13491835	4513	0	0	-100	0	230	101300000	1000	0	0	-1	0
13504395	4507	0	0	-100	0	230	101300000	1000	0	0	-1	0
13516955	4510	3	0	-100	0	230	101300000	1000	0	0	-1	0
13529515	4503	0	0	-100	0	230	101300000	1000	0	0	-1	0
13542075	4509	0	0	-100	0	230	101300000	1000	0	0	-1	0
13554635	4518	0	0	-100	0	230	101300000	1000	0	0	-1	0
13567195	4515	0	0	-100	0	230	101300000	1000	0	0	-1	0
13579755	4510	0	0	-100	0	230	101300000	1000	0	0	-1	0
13592315	4512	2	0	-100	0	230	101300000	1000	0	0	-1	0
13604875	4512	2	0	-100	0	230	101300000	1000	0	0	-1	0
13617435	4510	0	0	-100	0	230	101300000	1000	0	0	-1	0
13629995	4510	0	0	-100	0	230	101300000	1000	0	0	-1	0
13642555	4515	0	0	-100	0	230	101300000	1000	0	0	-1	0
13655115	4518	0	0	-100	0	230	101300000	1000	0	0	-1	0
13667675	4509	0	0	-100	0	230	101300000	1000	0	0	-1	0
13680235	4508	1	0	-100	0	230	101300000	1000	0	0	-1	0
13692795	4509	2	0	-100	0	230	101300000	1000	0	0	-1	0
13705355	4507	0	0	-100	0	230	101300000	1000	0	0	-1	0
13717915	4514	0	0	-100	0	230	101300000	1000	0	0	-1	0
13730475	4516	0	0	-100	0	230	101300000	1000	0	0	-1	0
13743035	4513	0	0	-100	0	230	101300000	1000	0	0	-1	0
13755595	4513	4	0	-100	0	230	101300000	1000	0	0	-1	0
13768155	4510	0	0	-100	0	230	101300000	1000	0	0	-1	0
13780715	4514	0	0	-100	0	230	101300000	1000	0	0	-1	0
13793275	4510	0	0	-100	0	230	101300000	1000	0	0	-1	0
13805835	4512	4	0	-100	0	230	101300000	1000	0	0	-1	0
13818395	4508	0	0	-100	0	230	101300000	1000	0	0	-1	0
13830955	4516	0	0	-100	0	230	101300000	1000	0	0	-1	0
13843515	4512	0	0	-100	0	230	101300000	1000	0	0	-1	0
13856075	4514	3	0	-100	0	230	101300000	1000	0	0	-1	0
13868635	4508	0	0	-100	0	230	101300000	1000	0	0	-1	0
13881195	4513	0	0	-100	0	230	101300000	1000	0	0	-1	0
13893755	4518	0	0	-100	0	230	101300000	1000	0	0	-1	0
13906315	4508	1	0	-100	0	230	101300000	1000	0	0	-1	0
13918875	4508	0	0	-100	0	230	101300000	1000	0	0	-1	0
13931435	4516	0	0	-100	0	230	101300000	1000	0	0	-1	0
13943995	4514	1	0	-100	0	230	101300000	1000	0	0	-1	0
13956555	4512	0	0	-100	0	230	101300000	1000	0	0	-1	0
13969115	4512	3	0	-100	0	230	101300000	1000	0	0	-1	0
13981675	4508	0	0	-100	0	230	101300000	1000	0	0	-1	0
13994235	4515	0	0	-100	0	230	101300000	1000	0	0	-1	0
14006795	4519	0	0	-100	0	230	101300000	1000	0	0	-1	0
14019355	4510	1	0	-100	0	230	101300000	1000	0	0	-1	0
14031915	4506	0	0	-100	0	230	101300000	1000	0	0	-1	0
14044475	4513	0	0	-100	0	230	101300000	1000	0	0	-1	0
14057035	4519	0	0	-100	0	230	101300000	1000	0	0	-1	0
14069595	4510	3	0	-100	0	230	101300000	1000	0	0	-1	0
14082155	4510	0	0	-100	0	230	101300000	1000	0	0	-1	0
14094715	4515	0	0	-100	0	230	101300000	1000	0	0	-1	0
14107275	4513	0	0	-100	0	230	101300000	1000	0	0	-1	0
14119835	4509	2	0	-100	0	230	101300000	1000	0	0	-1	0
14132395	4510	2	0	-100	0	230	101300000	1000	0	0	-1	0
14144955	4513	2	0	-100	0	230	101300000	1000	0	0	-1	0
14157515	4510	0	0	-100	0	230	101300000	1000	0	0	-1	0
14170075	4509	0	0	-100	0	230	101300000	1000	0	0	-1	0
14182635	4510	0	0	-100	0	230	101300000	1000	0	0	-1	0
14195195	4513	0	0	-100	0	230	101300000	1000	0	0	-1	0
14207755	4513	0	0	-100	0	230	101300000	1000	0	0	-1	0
14220315	4516	0	0	-100	0	230	101300000	1000	0	0	-1	0
14232875	4516	0	0	-100	0	230	101300000	1000	0	0	-1	0
14245435	4509	0	0	-100	0	230	101300000	1000	0	0	-1	0
14257995	4509	0	0	-100	0	230	101300000	1000	0	0	-1	0
14270555	4508	0	0	-100	0	230	101300000	1000	0	0	-1	0
14283115	4508	0	0	-100	0	230	101300000	1000	0	0	-1	0
14295675	4518	0	0	-100	0	230	101300000	1000	0	0	-1	0
14308235	4510	0	0	-100	0	230	101300000	1000	0	0	-1	0
14320795	4507	4	0	-100	0	230	101300000	1000	0	0	-1	0
14333355	4512	0	0	-100	0	230	101300000	1000	0	0	-1	0
14345915	4515	0	0	-100	0	230	101300000	1000	0	0	-1	0
14358475	4512	0	0	-100	0	230	101300000	1000	0	0	-1	0
14371035	4513	3	0	-100	0	230	101300000	1000	0	0	-1	0
14383595	4509	0	0	-100	0	230	101300000	1000	0	0	-1	0
14396155	4515	0	0	-100	0	230	101300000	1000	0	0	-1	0
14408715	4513	2	0	-100	0	230	101300000	1000	0	0	-1	0
14421275	4508	0	0	-100	0	230	101300000	1000	0	0	-1	0
14433835	4515	0	0	-100	0	230	101300000	1000	0	0	-1	0
14446395	4509	0	0	-100	0	230	101300000	1000	0	0	-1	0
14458955	4512	4	0	-100	0	230	101300000	1000	0	0	-1	0
14471515	4513	0	0	-100	0	230	101300000	1000	0	0	-1	0
14484075	4513	0	0	-100	0	230	101300000	1000	0	0	-1	0
14496635	4512	0	0	-100	0	230	101300000	1000	0	0	-1	0
14509195	4513	4	0	-100	0	230	101300000	1000	0	0	-1	0
14521755	4510	0	0	-100	0	230	101300000	1000	0	0	-1	0
14534315	4516	0	0	-100	0	230	101300000	1000	0	0	-1	0
14546875	4510	0	0	-100	0	230	101300000	1000	0	0	-1	0
14559435	4512	3	0	-100	0	230	101300000	1000	0	0	-1	0
14571995	4513	0	0	-100	0	230	101300000	1000	0	0	-1	0
14584555	4513	0	0	-100	0	230	101300000	1000	0	0	-1	0
14597115	4518	0	0	-100	0	230	101300000	1000	0	0	-1	0
14609675	4507	0	0	-100	0	230	101300000	1000	0	0	-1	0
14622235	4508	2	0	-100	0	230	101300000	1000	0	0	-1	0
14634795	4508	0	0	-100	0	230	101300000	1000	0	0	-1	0
14647355	4514	0	0	-100	0	230	101300000	1000	0	0	-1	0
14659915	4515	0	0	-100	0	230	101300000	1000	0	0	-1	0
14672475	4513	0	0	-100	0	230	101300000	1000	0	0	-1	0
14685035	4510	4	0	-100	0	230	101300000	1000	0	0	-1	0
14697595	4515	0	0	-100	0	230	101300000	1000	0	0	-1	0
14710155	4519	0	0	-100	0	230	101300000	1000	0	0	-1	0
14722715	4508	3	0	-100	0	230	101300000	1000	0	0	-1	0
14735275	4513	2	0	-100	0	230	101300000	1000	0	0	-1	0
14747835	4508	0	0	-100	0	230	101300000	1000	0	0	-1	0
14760395	4519	0	0	-100	0	230	101300000	1000	0	0	-1	0
14772955	4514	0	0	-100	0	230	101300000	1000	0	0	-1	0
14785515	4512	2	0	-100	0	230	101300000	1000	0	0	-1	0
14798075	4514	1	0	-100	0	230	101300000	1000	0	0	-1	0
14810635	4513	0	0	-100	0	230	101300000	1000	0	0	-1	0
14823195	4513	0	0	-100	0	230	101300000	1000	0	0	-1	0
14835755	4514	0	0	-100	0	230	101300000	1000	0	0	-1	0
14848315	4510	2	0	-100	0	230	101300000	1000	0	0	-1	0
14860875	4504	0	0	-100	0	230	101300000	1000	0	0	-1	0
14873435	4514	0	0	-100	0	230	101300000	1000	0	0	-1	0
14885995	4513	2	0	-100	0	230	101300000	1000	0	0	-1	0
14898555	4512	1	0	-100	0	230	101300000	1000	0	0	-1	0
14911115	4514	0	0	-100	0	230	101300000	1000	0	0	-1	0
14923675	4513	0	0	-100	0	230	101300000	1000	0	0	-1	0
14936235	4510	0	0	-100	0	230	101300000	1000	0	0	-1	0
14948795	4513	0	0	-100	0	230	101300000	1000	0	0	-1	0
14961355	4514	0	0	-100	0	230	101300000	1000	0	0	-1	0
14973915	4513	3	0	-100	0	230	101300000	1000	0	0	-1	0
14986475	4514	0	0	-100	0	230	101300000	1000	0	0	-1	0
14999035	4518	0	0	-100	0	230	101300000	1000	0	0	-1	0
15011595	4510	3	0	-100	0	230	101300000	1000	0	0	-1	0
15024155	4513	0	0	-100	0	230	101300000	1000	0	0	-1	0
15036715	4516	0	0	-100	0	230	101300000	1000	0	0	-1	0
15049275	4515	1	0	-100	0	230	101300000	1000	0	0	-1	0
15061835	4507	0	0	-100	0	230	101300000	1000	0	0	-1	0
15074395	4519	0	0	-100	0	230	101300000	1000	0	0	-1	0
15086955	4507	2	0	-100	0	230	101300000	1000	0	0	-1	0
15099515	4514	0	0	-100	0	230	101300000	1000	0	0	-1	0
15112075	4514	0	0	-100	0	230	101300000	1000	0	0	-1	0
15124635	4508	0	0	-100	0	230	101300000	1000	0	0	-1	0
15137195	4514	0	0	-100	0	230	101300000	1000	0	0	-1	0
15149755	4518	0	0	-100	0	230	101300000	1000	0	0	-1	0
15162315	4509	3	0	-100	0	230	101300000	1000	0	0	-1	0
15174875	4513	0	0	-100	0	230	101300000	1000	0	0	-1	0
15187435	4519	0	0	-100	0	230	101300000	1000	0	0	-1	0
15199995	4509	0	0	-100	0	230	101300000	1000	0	0	-1	0
15212555	4509	0	0	-100	0	230	101300000	1000	0	0	-1	0
15225115	4514	0	0	-100	0	230	101300000	1000	0	0	-1	0
15237675	4516	0	0	-100	0	230	101300000	1000	0	0	-1	0
15250235	4508	1	0	-100	0	230	101300000	1000	0	0	-1	0
15262795	4508	0	0	-100	0	230	101300000	1000	0	0	-1	0
15275355	4514	0	0	-100	0	230	101300000	1000	0	0	-1	0
15287915	4509	0	0	-100	0	230	101300000	1000	0	0	-1	0
15300475	4508	0	0	-100	0	230	101300000	1000	0	0	-1	0
15313035	4518	0	0	-100	0	230	101300000	1000	0	0	-1	0
15325595	4509	0	0	-100	0	230	101300000	1000	0	0	-1	0
15338155	4512	3	0	-100	0	230	101300000	1000	0	0	-1	0
15350715	4510	0	0	-100	0	230	101300000	1000	0	0	-1	0
15363275	4507	0	0	-100	0	230	101300000	1000	0	0	-1	0
15375835	4509	0	0	-100	0	230	101300000	1000	0	0	-1	0
15388395	4513	0	0	-100	0	230	101300000	1000	0	0	-1	0
15400955	4515	0	0	-100	0	230	101300000	1000	0	0	-1	0
15413515	4518	0	0	-100	0	230	101300000	1000	0	0	-1	0
15426075	4516	0	0	-100	0	230	101300000	1000	0	0	-1	0
15438635	4516	0	0	-100	0	230	101300000	1000	0	0	-1	0
15451195	4519	0	0	-100	0	230	101300000	1000	0	0	-1	0
15463755	4516	0	0	-100	0	230	101300000	1000	0	0	-1	0
15476315	4519	0	0	-100	0	230	101300000	1000	0	0	-1	0
15488875	4518	0	0	-100	0	230	101300000	1000	0	0	-1	0
15501435	4515	0	0	-100	0	230	101300000	1000	0	0	-1	0
15513995	4519	2	0	-100	0	230	101300000	1000	0	0	-1	0
15526555	4514	0	0	-100	0	230	101300000	1000	0	0	-1	0
15539115	4509	0	0	-100	0	230	101300000	1000	0	0	-1	0
15551675	4508	2	0	-100	0	230	101300000	1000	0	0	-1	0
15564235	4512	0	0	-100	0	230	101300000	1000	0	0	-1	0
15576795	4510	0	0	-100	0	230	101300000	1000	0	0	-1	0
15589355	4509	0	0	-100	0	230	101300000	1000	0	0	-1	0
15601915	4510	0	0	-100	0	230	101300000	1000	0	0	-1	0
15614475	4513	0	0	-100	0	230	101300000	1000	0	0	-1	0
15627035	4515	0	0	-100	0	230	101300000	1000	0	0	-1	0
15639595	4515	0	0	-100	0	230	101300000	1000	0	0	-1	0
15652155	4516	0	0	-100	0	230	101300000	1000	0	0	-1	0
15664715	4512	0	0	-100	0	230	101300000	1000	0	0	-1	0
15677275	4512	0	0	-100	0	230	101300000	1000	0	0	-1	0
15689835	4512	0	0	-100	0	230	101300000	1000	0	0	-1	0
15702395	4507	0	0	-100	0	230	101300000	1000	0	0	-1	0
15714955	4516	0	0	-100	0	230	101300000	1000	0	0	-1	0
15727515	4510	0	0	-100	0	230	101300000	1000	0	0	-1	0
15740075	4515	0	0	-100	0	230	101300000	1000	0	0	-1	0
15752635	4518	0	0	-100	0	230	101300000	1000	0	0	-1	0
15765195	4515	0	0	-100	0	230	101300000	1000	0	0	-1	0
15777755	4516	0	0	-100	0	230	101300000	1000	0	0	-1	0
15790315	4514	0	0	-100	0	230	101300000	1000	0	0	-1	0
15802875	4507	0	0	-100	0	230	101300000	1000	0	0	-1	0
15815435	4509	1	0	-100	0	230	101300000	1000	0	0	-1	0
15827995	4510	0	0	-100	0	230	101300000	1000	0	0	-1	0
15840555	4512	4	0	-100	0	230	101300000	1000	0	0	-1	0
15853115	4507	0	0	-100	0	230	101300000	1000	0	0	-1	0
15865675	4508	0	0	-100	0	230	101300000	1000	0	0	-1	0
15878235	4514	0	0	-100	0	230	101300000	1000	0	0	-1	0
15890795	4516	0	0	-100	0	230	101300000	1000	0	0	-1	0
15903355	4513	0	0	-100	0	230	101300000	1000	0	0	-1	0
15915915	4514	0	0	-100	0	230	101300000	1000	0	0	-1	0
15928475	4515	0	0	-100	0	230	101300000	1000	0	0	-1	0
15941035	4513	0	0	-100	0	230	101300000	1000	0	0	-1	0
15953595	4525	0	0	-100	0	230	101300000	1000	0	0	-1	0
15966155	4514	0	0	-100	0	230	101300000	1000	0	0	-1	0
15978715	4519	0	0	-100	0	230	101300000	1000	0	0	-1	0
15991275	4512	0	0	-100	0	230	101300000	1000	0	0	-1	0
16003835	4508	1	0	-100	0	230	101300000	1000	0	0	-1	0
16016395	4510	2	0	-100	0	230	101300000	1000	0	0	-1	0
16028955	4508	0	0	-100	0	230	101300000	1000	0	0	-1	0
16041515	4508	0	0	-100	0	230	101300000	1000	0	0	-1	0
16054075	4512	0	0	-100	0	230	101300000	1000	0	0	-1	0
16066635	4510	1	0	-100	0	230	101300000	1000	0	0	-1	0
16079195	4512	4	0	-100	0	230	101300000	1000	0	0	-1	0
16091755	4509	3	0	-100	0	230	101300000	1000	0	0	-1	0
16104315	4512	0	0	-100	0	230	101300000	1000	0	0	-1	0
16116875	4512	0	0	-100	0	230	101300000	1000	0	0	-1	0
16129435	4514	0	0	-100	0	230	101300000	1000	0	0	-1	0
16141995	4515	0	0	-100	0	230	101300000	1000	0	0	-1	0
16154555	4514	0	0	-100	0	230	101300000	1000	0	0	-1	0
16167115	4507	0	0	-100	0	230	101300000	1000	0	0	-1	0
16179675	4510	4	0	-100	0	230	101300000	1000	0	0	-1	0
16192235	4506	0	0	-100	0	230	101300000	1000	0	0	-1	0
16204795	4508	0	0	-100	0	230	101300000	1000	0	0	-1	0
16217355	4513	0	0	-100	0	230	101300000	1000	0	0	-1	0
16229915	4512	0	0	-100	0	230	101300000	1000	0	0	-1	0
16242475	4515	0	0	-100	0	230	101300000	1000	0	0	-1	0
16255035	4513	0	0	-100	0	230	101300000	1000	0	0	-1	0
16267595	4509	1	0	-100	0	230	101300000	1000	0	0	-1	0
16280155	4512	2	0	-100	0	230	101300000	1000	0	0	-1	0
16292715	4512	0	0	-100	0	230	101300000	1000	0	0	-1	0
16305275	4512	0	0	-100	0	230	101300000	1000	0	0	-1	0
16317835	4519	0	0	-100	0	230	101300000	1000	0	0	-1	0
16330395	4516	0	0	-100	0	230	101300000	1000	0	0	-1	0
16342955	4515	0	0	-100	0	230	101300000	1000	0	0	-1	0
16355515	4514	0	0	-100	0	230	101300000	1000	0	0	-1	0
16368075	4508	2	0	-100	0	230	101300000	1000	0	0	-1	0
16380635	4510	3	0	-100	0	230	101300000	1000	0	0	-1	0
16393195	4508	0	0	-100	0	230	101300000	1000	0	0	-1	0
16405755	4508	0	0	-100	0	230	101300000	1000	0	0	-1	0
16418315	4512	0	0	-100	0	230	101300000	1000	0	0	-1	0
16430875	4514	0	0	-100	0	230	101300000	1000	0	0	-1	0
16443435	4516	0	0	-100	0	230	101300000	1000	0	0	-1	0
16455995	4519	3	0	-100	0	230	101300000	1000	0	0	-1	0
16468555	4512	0	0	-100	0	230	101300000	1000	0	0	-1	0
16481115	4512	0	0	-100	0	230	101300000	1000	0	0	-1	0
16493675	4513	0	0	-100	0	230	101300000	1000	0	0	-1	0
16506235	4514	0	0	-100	0	230	101300000	1000	0	0	-1	0
16518795	4513	0	0	-100	0	230	101300000	1000	0	0	-1	0
16531355	4514	4	0	-100	0	230	101300000	1000	0	0	-1	0
16543915	4513	0	0	-100	0	230	101300000	1000	0	0	-1	0
16556475	4516	0	0	-100	0	230	101300000	1000	0	0	-1	0
16569035	4513	3	0	-100	0	230	101300000	1000	0	0	-1	0
16581595	4515	0	0	-100	0	230	101300000	1000	0	0	-1	0
16594155	4516	0	0	-100	0	230	101300000	1000	0	0	-1	0
16606715	4509	0	0	-100	0	230	101300000	1000	0	0	-1	0
16619275	4509	0	0	-100	0	230	101300000	1000	0	0	-1	0
16631835	4513	0	0	-100	0	230	101300000	1000	0	0	-1	0
16644395	4508	0	0	-100	0	230	101300000	1000	0	0	-1	0
16656955	4512	0	0	-100	0	230	101300000	1000	0	0	-1	0
16669515	4520	0	0	-100	0	230	101300000	1000	0	0	-1	0
16682075	4510	0	0	-100	0	230	101300000	1000	0	0	-1	0
16694635	4512	0	0	-100	0	230	101300000	1000	0	0	-1	0
16707195	4512	0	0	-100	0	230	101300000	1000	0	0	-1	0
16719755	4516	0	0	-100	0	230	101300000	1000	0	0	-1	0
16732315	4510	0	0	-100	0	230	101300000	1000	0	0	-1	0
16744875	4510	3	0	-100	0	230	101300000	1000	0	0	-1	0
16757435	4510	0	0	-100	0	230	101300000	1000	0	0	-1	0
16769995	4515	1	0	-100	0	230	101300000	1000	0	0	-1	0
16782555	4510	0	0	-100	0	230	101300000	1000	0	0	-1	0
16795115	4513	3	0	-100	0	230	101300000	1000	0	0	-1	0
16807675	4508	0	0	-100	0	230	101300000	1000	0	0	-1	0
16820235	4513	0	0	-100	0	230	101300000	1000	0	0	-1	0
16832795	4515	0	0	-100	0	230	101300000	1000	0	0	-1	0
16845355	4513	0	0	-100	0	230	101300000	1000	0	0	-1	0
16857915	4514	0	0	-100	0	230	101300000	1000	0	0	-1	0
16870475	4507	0	0	-100	0	230	101300000	1000	0	0	-1	0
16883035	4508	0	0	-100	0	230	101300000	1000	0	0	-1	0
16895595	4514	0	0	-100	0	230	101300000	1000	0	0	-1	0
16908155	4512	0	0	-100	0	230	101300000	1000	0	0	-1	0
16920715	4514	4	0	-100	0	230	101300000	1000	0	0	-1	0
16933275	4509	0	0	-100	0	230	101300000	1000	0	0	-1	0
16945835	4513	0	0	-100	0	230	101300000	1000	0	0	-1	0
16958395	4510	1	0	-100	0	230	101300000	1000	0	0	-1	0
16970955	4514	0	0	-100	0	230	101300000	1000	0	0	-1	0
16983515	4513	0	0	-100	0	230	101300000	1000	0	0	-1	0
16996075	4508	0	0	-100	0	230	101300000	1000	0	0	-1	0
17008635	4514	0	0	-100	0	230	101300000	1000	0	0	-1	0
17021195	4508	0	0	-100	0	230	101300000	1000	0	0	-1	0
17033755	4516	0	0	-100	0	230	101300000	1000	0	0	-1	0
17046315	4504	0	0	-100	0	230	101300000	1000	0	0	-1	0
17058875	4516	0	0	-100	0	230	101300000	1000	0	0	-1	0
17071435	4512	3	0	-100	0	230	101300000	1000	0	0	-1	0
17083995	4515	0	0	-100	0	230	101300000	1000	0	0	-1	0
17096555	4510	2	0	-100	0	230	101300000	1000	0	0	-1	0
17109115	4516	0	0	-100	0	230	101300000	1000	0	0	-1	0
17121675	4515	2	0	-100	0	230	101300000	1000	0	0	-1	0
17134235	4513	0	0	-100	0	230	101300000	1000	0	0	-1	0
17146795	4506	2	0	-100	0	230	101300000	1000	0	0	-1	0
17159355	4516	0	0	-100	0	230	101300000	1000	0	0	-1	0
17171915	4509	1	0	-100	0	230	101300000	1000	0	0	-1	0
17184475	4510	0	0	-100	0	230	101300000	1000	0	0	-1	0
17197035	4514	0	0	-100	0	230	101300000	1000	0	0	-1	0
17209595	4512	0	0	-100	0	230	101300000	1000	0	0	-1	0
17222155	4514	0	0	-100	0	230	101300000	1000	0	0	-1	0
17234715	4513	0	0	-100	0	230	101300000	1000	0	0	-1	0
17247275	4512	0	0	-100	0	230	101300000	1000	0	0	-1	0
17259835	4513	0	0	-100	0	230	101300000	1000	0	0	-1	0
17272395	4515	0	0	-100	0	230	101300000	1000	0	0	-1	0
17284955	4508	4	0	-100	0	230	101300000	1000	0	0	-1	0
17297515	4514	0	0	-100	0	230	101300000	1000	0	0	-1	0
17310075	4515	0	0	-100	0	230	101300000	1000	0	0	-1	0
17322635	4507	0	0	-100	0	230	101300000	1000	0	0	-1	0
17335195	4515	0	0	-100	0	230	101300000	1000	0	0	-1	0
17347755	4509	3	0	-100	0	230	101300000	1000	0	0	-1	0
17360315	4515	0	0	-100	0	230	101300000	1000	0	0	-1	0
17372875	4508	2	0	-100	0	230	101300000	1000	0	0	-1	0
17385435	4514	0	0	-100	0	230	101300000	1000	0	0	-1	0
17397995	4509	0	0	-100	0	230	101300000	1000	0	0	-1	0
17410555	4512	0	0	-100	0	230	101300000	1000	0	0	-1	0
17423115	4510	0	0	-100	0	230	101300000	1000	0	0	-1	0
17435675	4512	0	0	-100	0	230	101300000	1000	0	0	-1	0
17448235	4516	0	0	-100	0	230	101300000	1000	0	0	-1	0
17460795	4510	0	0	-100	0	230	101300000	1000	0	0	-1	0
17473355	4516	0	0	-100	0	230	101300000	1000	0	0	-1	0
17485915	4508	1	0	-100	0	230	101300000	1000	0	0	-1	0
17498475	4518	0	0	-100	0	230	101300000	1000	0	0	-1	0
17511035	4512	0	0	-100	0	230	101300000	1000	0	0	-1	0
17523595	4508	0	0	-100	0	230	101300000	1000	0	0	-1	0
17536155	4515	0	0	-100	0	230	101300000	1000	0	0	-1	0
17548715	4507	4	0	-100	0	230	101300000	1000	0	0	-1	0
17561275	4512	0	0	-100	0	230	101300000	1000	0	0	-1	0
17573835	4513	0	0	-100	0	230	101300000	1000	0	0	-1	0
17586395	4508	0	0	-100	0	230	101300000	1000	0	0	-1	0
17598955	4518	0	0	-100	0	230	101300000	1000	0	0	-1	0
17611515	4510	1	0	-100	0	230	101300000	1000	0	0	-1	0
17624075	4515	0	0	-100	0	230	101300000	1000	0	0	-1	0
17636635	4515	0	0	-100	0	230	101300000	1000	0	0	-1	0
17649195	4509	2	0	-100	0	230	101300000	1000	0	0	-1	0
17661755	4515	0	0	-100	0	230	101300000	1000	0	0	-1	0
17674315	4512	1	0	-100	0	230	101300000	1000	0	0	-1	0
17686875	4510	0	0	-100	0	230	101300000	1000	0	0	-1	0
17699435	4516	0	0	-100	0	230	101300000	1000	0	0	-1	0
17711995	4513	0	0	-100	0	230	101300000	1000	0	0	-1	0
17724555	4512	0	0	-100	0	230	101300000	1000	0	0	-1	0
17737115	4516	0	0	-100	0	230	101300000	1000	0	0	-1	0
17749675	4509	2	0	-100	0	230	101300000	1000	0	0	-1	0
17762235	4506	0	0	-100	0	230	101300000	1000	0	0	-1	0
17774795	4518	0	0	-100	0	230	101300000	1000	0	0	-1	0
17787355	4515	0	0	-100	0	230	101300000	1000	0	0	-1	0
17799915	4507	0	0	-100	0	230	101300000	1000	0	0	-1	0
17812475	4510	4	0	-100	0	230	101300000	1000	0	0	-1	0
17825035	4504	0	0	-100	0	230	101300000	1000	0	0	-1	0
17837595	4513	0	0	-100	0	230	101300000	1000	0	0	-1	0
17850155	4516	0	0	-100	0	230	101300000	1000	0	0	-1	0
17862715	4512	0	0	-100	0	230	101300000	1000	0	0	-1	0
17875275	4509	1	0	-100	0	230	101300000	1000	0	0	-1	0
17887835	4509	1	0	-100	0	230	101300000	1000	0	0	-1	0
17900395	4509	0	0	-100	0	230	101300000	1000	0	0	-1	0
17912955	4512	0	0	-100	0	230	101300000	1000	0	0	-1	0
17925515	4512	0	0	-100	0	230	101300000	1000	0	0	-1	0
17938075	4516	0	0	-100	0	230	101300000	1000	0	0	-1	0
17950635	4518	0	0	-100	0	230	101300000	1000	0	0	-1	0
17963195	4514	0	0	-100	0	230	101300000	1000	0	0	-1	0
17975755	4510	2	0	-100	0	230	101300000	1000	0	0	-1	0
17988315	4509	1	0	-100	0	230	101300000	1000	0	0	-1	0
18000875	4508	0	0	-100	0	230	101300000	1000	0	0	-1	0
18013435	4510	0	0	-100	0	230	101300000	1000	0	0	-1	0
18025995	4512	0	0	-100	0	230	101300000	1000	0	0	-1	0
18038555	4515	0	0	-100	0	230	101300000	1000	0	0	-1	0
18051115	4515	0	0	-100	0	230	101300000	1000	0	0	-1	0
18063675	4514	0	0	-100	0	230	101300000	1000	0	0	-1	0
18076235	4520	0	0	-100	0	230	101300000	1000	0	0	-1	0
18088795	4516	0	0	-100	0	230	101300000	1000	0	0	-1	0
18101355	4514	0	0	-100	0	230	101300000	1000	0	0	-1	0
18113915	4514	0	0	-100	0	230	101300000	1000	0	0	-1	0
18126475	4515	0	0	-100	0	230	101300000	1000	0	0	-1	0
18139035	4518	0	0	-100	0	230	101300000	1000	0	0	-1	0
18151595	4514	0	0	-100	0	230	101300000	1000	0	0	-1	0
18164155	4508	0	0	-100	0	230	101300000	1000	0	0	-1	0
18176715	4509	0	0	-100	0	230	101300000	1000	0	0	-1	0
18189275	4508	1	0	-100	0	230	101300000	1000	0	0	-1	0
18201835	4508	2	0	-100	0	230	101300000	1000	0	0	-1	0
18214395	4515	2	0	-100	0	230	101300000	1000	0	0	-1	0
18226955	4513	2	0	-100	0	230	101300000	1000	0	0	-1	0
18239515	4510	3	0	-100	0	230	101300000	1000	0	0	-1	0
18252075	4508	3	0	-100	0	230	101300000	1000	0	0	-1	0
18264635	4508	0	0	-100	0	230	101300000	1000	0	0	-1	0
18277195	4512	0	0	-100	0	230	101300000	1000	0	0	-1	0
18289755	4513	0	0	-100	0	230	101300000	1000	0	0	-1	0
18302315	4513	0	0	-100	0	230	101300000	1000	0	0	-1	0
18314875	4514	0	0	-100	0	230	101300000	1000	0	0	-1	0
18327435	4518	0	0	-100	0	230	101300000	1000	0	0	-1	0
18339995	4514	0	0	-100	0	230	101300000	1000	0	0	-1	0
18352555	4510	0	0	-100	0	230	101300000	1000	0	0	-1	0
18365115	4514	1	0	-100	0	230	101300000	1000	0	0	-1	0
18377675	4510	2	0	-100	0	230	101300000	1000	0	0	-1	0
18390235	4507	0	0	-100	0	230	101300000	1000	0	0	-1	0
18402795	4512	0	0	-100	0	230	101300000	1000	0	0	-1	0
18415355	4514	0	0	-100	0	230	101300000	1000	0	0	-1	0
18427915	4515	0	0	-100	0	230	101300000	1000	0	0	-1	0
18440475	4513	0	0	-100	0	230	101300000	1000	0	0	-1	0
18453035	4513	0	0	-100	0	230	101300000	1000	0	0	-1	0
18465595	4512	0	0	-100	0	230	101300000	1000	0	0	-1	0
18478155	4510	0	0	-100	0	230	101300000	1000	0	0	-1	0
18490715	4516	0	0	-100	0	230	101300000	1000	0	0	-1	0
18503275	4509	0	0	-100	0	230	101300000	1000	0	0	-1	0
18515835	4515	0	0	-100	0	230	101300000	1000	0	0	-1	0
18528395	4516	0	0	-100	0	230	101300000	1000	0	0	-1	0
18540955	4512	0	0	-100	0	230	101300000	1000	0	0	-1	0
18553515	4512	0	0	-100	0	230	101300000	1000	0	0	-1	0
18566075	4508	0	0	-100	0	230	101300000	1000	0	0	-1	0
18578635	4513	3	0	-100	0	230	101300000	1000	0	0	-1	0
18591195	4510	0	0	-100	0	230	101300000	1000	0	0	-1	0
18603755	4509	0	0	-100	0	230	101300000	1000	0	0	-1	0
18616315	4513	0	0	-100	0	230	101300000	1000	0	0	-1	0
18628875	4507	0	0	-100	0	230	101300000	1000	0	0	-1	0
18641435	4509	0	0	-100	0	230	101300000	1000	0	0	-1	0
18653995	4512	0	0	-100	0	230	101300000	1000	0	0	-1	0
18666555	4515	0	0	-100	0	230	101300000	1000	0	0	-1	0
18679115	4514	0	0	-100	0	230	101300000	1000	0	0	-1	0
18691675	4519	0	0	-100	0	230	101300000	1000	0	0	-1	0
18704235	4513	0	0	-100	0	230	101300000	1000	0	0	-1	0
18716795	4509	0	0	-100	0	230	101300000	1000	0	0	-1	0
18729355	4510	3	0	-100	0	230	101300000	1000	0	0	-1	0
18741915	4512	1	0	-100	0	230	101300000	1000	0	0	-1	0
18754475	4507	0	0	-100	0	230	101300000	1000	0	0	-1	0
18767035	4512	0	0	-100	0	230	101300000	1000	0	0	-1	0
18779595	4513	0	0	-100	0	230	101300000	1000	0	0	-1	0
18792155	4516	0	0	-100	0	230	101300000	1000	0	0	-1	0
18804715	4508	2	0	-100	0	230	101300000	1000	0	0	-1	0
18817275	4514	0	0	-100	0	230	101300000	1000	0	0	-1	0
18829835	4509	0	0	-100	0	230	101300000	1000	0	0	-1	0
18842395	4508	0	0	-100	0	230	101300000	1000	0	0	-1	0
18854955	4513	0	0	-100	0	230	101300000	1000	0	0	-1	0
18867515	4506	0	0	-100	0	230	101300000	1000	0	0	-1	0
18880075	4510	0	0	-100	0	230	101300000	1000	0	0	-1	0
18892635	4507	0	0	-100	0	230	101300000	1000	0	0	-1	0
18905195	4506	0	0	-100	0	230	101300000	1000	0	0	-1	0
18917755	4512	0	0	-100	0	230	101300000	1000	0	0	-1	0
18930315	4510	0	0	-100	0	230	101300000	1000	0	0	-1	0
18942875	4508	0	0	-100	0	230	101300000	1000	0	0	-1	0
18955435	4509	0	0	-100	0	230	101300000	1000	0	0	-1	0
18967995	4508	0	0	-100	0	230	101300000	1000	0	0	-1	0
18980555	4507	0	0	-100	0	230	101300000	1000	0	0	-1	0
18993115	4510	0	0	-100	0	230	101300000	1000	0	0	-1	0
19005675	4510	0	0	-100	0	230	101300000	1000	0	0	-1	0
19018235	4515	0	0	-100	0	230	101300000	1000	0	0	-1	0
19030795	4516	0	0	-100	0	230	101300000	1000	0	0	-1	0
19043355	4506	1	0	-100	0	230	101300000	1000	0	0	-1	0
19055915	4512	0	0	-100	0	230	101300000	1000	0	0	-1	0
19068475	4516	0	0	-100	0	230	101300000	1000	0	0	-1	0
19081035	4508	1	0	-100	0	230	101300000	1000	0	0	-1	0
19093595	4512	0	0	-100	0	230	101300000	1000	0	0	-1	0
19106155	4510	0	0	-100	0	230	101300000	1000	0	0	-1	0
19118715	4516	0	0	-100	0	230	101300000	1000	0	0	-1	0
19131275	4514	0	0	-100	0	230	101300000	1000	0	0	-1	0
19143835	4509	1	0	-100	0	230	101300000	1000	0	0	-1	0
19156395	4512	3	0	-100	0	230	101300000	1000	0	0	-1	0
19168955	4509	0	0	-100	0	230	101300000	1000	0	0	-1	0
19181515	4515	0	0	-100	0	230	101300000	1000	0	0	-1	0
19194075	4518	0	0	-100	0	230	101300000	1000	0	0	-1	0
19206635	4512	2	0	-100	0	230	101300000	1000	0	0	-1	0
19219195	4513	0	0	-100	0	230	101300000	1000	0	0	-1	0
19231755	4512	0	0	-100	0	230	101300000	1000	0	0	-1	0
19244315	4510	2	0	-100	0	230	101300000	1000	0	0	-1	0
19256875	4509	0	0	-100	0	230	101300000	1000	0	0	-1	0
19269435	4516	0	0	-100	0	230	101300000	1000	0	0	-1	0
19281995	4518	1	0	-100	0	230	101300000	1000	0	0	-1	0
19294555	4512	0	0	-100	0	230	101300000	1000	0	0	-1	0
19307115	4512	0	0	-100	0	230	101300000	1000	0	0	-1	0
19319675	4513	0	0	-100	0	230	101300000	1000	0	0	-1	0
19332235	4513	0	0	-100	0	230	101300000	1000	0	0	-1	0
19344795	4509	0	0	-100	0	230	101300000	1000	0	0	-1	0
19357355	4514	0	0	-100	0	230	101300000	1000	0	0	-1	0
19369915	4512	2	0	-100	0	230	101300000	1000	0	0	-1	0
19382475	4514	0	0	-100	0	230	101300000	1000	0	0	-1	0
19395035	4512	0	0	-100	0	230	101300000	1000	0	0	-1	0
19407595	4515	0	0	-100	0	230	101300000	1000	0	0	-1	0
19420155	4509	4	0	-100	0	230	101300000	1000	0	0	-1	0
19432715	4515	0	0	-100	0	230	101300000	1000	0	0	-1	0
19445275	4509	1	0	-100	0	230	101300000	1000	0	0	-1	0
19457835	4515	0	0	-100	0	230	101300000	1000	0	0	-1	0
19470395	4510	0	0	-100	0	230	101300000	1000	0	0	-1	0
19482955	4514	0	0	-100	0	230	101300000	1000	0	0	-1	0
19495515	4510	3	0	-100	0	230	101300000	1000	0	0	-1	0
19508075	4513	0	0	-100	0	230	101300000	1000	0	0	-1	0
19520635	4510	0	0	-100	0	230	101300000	1000	0	0	-1	0
19533195	4516	0	0	-100	0	230	101300000	1000	0	0	-1	0
19545755	4506	0	0	-100	0	230	101300000	1000	0	0	-1	0
19558315	4520	0	0	-100	0	230	101300000	1000	0	0	-1	0
19570875	4509	0	0	-100	0	230	101300000	1000	0	0	-1	0
19583435	4508	0	0	-100	0	230	101300000	1000	0	0	-1	0
19595995	4515	0	0	-100	0	230	101300000	1000	0	0	-1	0
19608555	4508	3	0	-100	0	230	101300000	1000	0	0	-1	0
19621115	4514	0	0	-100	0	230	101300000	1000	0	0	-1	0
19633675	4510	0	0	-100	0	230	101300000	1000	0	0	-1	0
19646235	4518	0	0	-100	0	230	101300000	1000	0	0	-1	0
19658795	4509	0	0	-100	0	230	101300000	1000	0	0	-1	0
19671355	4516	0	0	-100	0	230	101300000	1000	0	0	-1	0
19683915	4510	0	0	-100	0	230	101300000	1000	0	0	-1	0
19696475	4516	0	0	-100	0	230	101300000	1000	0	0	-1	0
19709035	4513	0	0	-100	0	230	101300000	1000	0	0	-1	0
19721595	4514	0	0	-100	0	230	101300000	1000	0	0	-1	0
19734155	4508	4	0	-100	0	230	101300000	1000	0	0	-1	0
19746715	4512	0	0	-100	0	230	101300000	1000	0	0	-1	0
19759275	4509	0	0	-100	0	230	101300000	1000	0	0	-1	0
19771835	4520	0	0	-100	0	230	101300000	1000	0	0	-1	0
19784395	4508	0	0	-100	0	230	101300000	1000	0	0	-1	0
19796955	4513	0	0	-100	0	230	101300000	1000	0	0	-1	0
19809515	4508	0	0	-100	0	230	101300000	1000	0	0	-1	0
19822075	4510	0	0	-100	0	230	101300000	1000	0	0	-1	0
19834635	4513	0	0	-100	0	230	101300000	1000	0	0	-1	0
19847195	4508	1	0	-100	0	230	101300000	1000	0	0	-1	0
19859755	4514	0	0	-100	0	230	101300000	1000	0	0	-1	0
19872315	4513	2	0	-100	0	230	101300000	1000	0	0	-1	0
19884875	4516	0	0	-100	0	230	101300000	1000	0	0	-1	0
19897435	4512	0	0	-100	0	230	101300000	1000	0	0	-1	0
19909995	4509	0	0	-100	0	230	101300000	1000	0	0	-1	0
19922555	4515	0	0	-100	0	230	101300000	1000	0	0	-1	0
19935115	4510	3	0	-100	0	230	101300000	1000	0	0	-1	0
19947675	4512	0	0	-100	0	230	101300000	1000	0	0	-1	0
19960235	4510	1	0	-100	0	230	101300000	1000	0	0	-1	0
19972795	4516	0	0	-100	0	230	101300000	1000	0	0	-1	0
19985355	4510	0	0	-100	0	230	101300000	1000	0	0	-1	0
19997915	4509	0	0	-100	0	230	101300000	1000	0	0	-1	0
20010475	4519	0	0	-100	0	230	101300000	1000	0	0	-1	0
20023035	4508	0	0	-100	0	230	101300000	1000	0	0	-1	0
20035595	4516	0	0	-100	0	230	101300000	1000	0	0	-1	0
20048155	4508	0	0	-100	0	230	101300000	1000	0	0	-1	0
20060715	4516	0	0	-100	0	230	101300000	1000	0	0	-1	0
20073275	4510	1	0	-100	0	230	101300000	1000	0	0	-1	0
20085835	4507	0	0	-100	0	230	101300000	1000	0	0	-1	0
20098395	4519	0	0	-100	0	230	101300000	1000	0	0	-1	0
20110955	4509	4	0	-100	0	230	101300000	1000	0	0	-1	0
20123515	4510	0	0	-100	0	230	101300000	1000	0	0	-1	0
20136075	4518	0	0	-100	0	230	101300000	1000	0	0	-1	0
20148635	4509	2	0	-100	0	230	101300000	1000	0	0	-1	0
20161195	4512	0	0	-100	0	230	101300000	1000	0	0	-1	0
20173755	4514	0	0	-100	0	230	101300000	1000	0	0	-1	0
20186315	4508	0	0	-100	0	230	101300000	1000	0	0	-1	0
20198875	4510	0	0	-100	0	230	101300000	1000	0	0	-1	0
20211435	4516	0	0	-100	0	230	101300000	1000	0	0	-1	0
20223995	4513	0	0	-100	0	230	101300000	1000	0	0	-1	0
20236555	4510	0	0	-100	0	230	101300000	1000	0	0	-1	0
20249115	4514	0	0	-100	0	230	101300000	1000	0	0	-1	0
20261675	4510	0	0	-100	0	230	101300000	1000	0	0	-1	0
20274235	4508	4	0	-100	0	230	101300000	1000	0	0	-1	0
20286795	4513	0	0	-100	0	230	101300000	1000	0	0	-1	0
20299355	4520	0	0	-100	0	230	101300000	1000	0	0	-1	0
20311915	4512	2	0	-100	0	230	101300000	1000	0	0	-1	0
20324475	4509	0	0	-100	0	230	101300000	1000	0	0	-1	0
20337035	4518	0	0	-100	0	230	101300000	1000	0	0	-1	0
20349595	4509	0	0	-100	0	230	101300000	1000	0	0	-1	0
20362155	4509	1	0	-100	0	230	101300000	1000	0	0	-1	0
20374715	4509	0	0	-100	0	230	101300000	1000	0	0	-1	0
20387275	4512	0	0	-100	0	230	101300000	1000	0	0	-1	0
20399835	4513	0	0	-100	0	230	101300000	1000	0	0	-1	0
20412395	4512	2	0	-100	0	230	101300000	1000	0	0	-1	0
20424955	4512	0	0	-100	0	230	101300000	1000	0	0	-1	0
20437515	4514	0	0	-100	0	230	101300000	1000	0	0	-1	0
20450075	4510	2	0	-100	0	230	101300000	1000	0	0	-1	0
20462635	4516	0	0	-100	0	230	101300000	1000	0	0	-1	0
20475195	4514	0	0	-100	0	230	101300000	1000	0	0	-1	0
20487755	4508	2	0	-100	0	230	101300000	1000	0	0	-1	0
20500315	4512	0	0	-100	0	230	101300000	1000	0	0	-1	0
20512875	4515	0	0	-100	0	230	101300000	1000	0	0	-1	0
20525435	4513	0	0	-100	0	230	101300000	1000	0	0	-1	0
20537995	4509	0	0	-100	0	230	101300000	1000	0	0	-1	0
20550555	4510	3	0	-100	0	230	101300000	1000	0	0	-1	0
20563115	4509	0	0	-100	0	230	101300000	1000	0	0	-1	0
20575675	4514	0	0	-100	0	230	101300000	1000	0	0	-1	0
20588235	4513	0	0	-100	0	230	101300000	1000	0	0	-1	0
20600795	4514	2	0	-100	0	230	101300000	1000	0	0	-1	0
20613355	4513	0	0	-100	0	230	101300000	1000	0	0	-1	0
20625915	4509	0	0	-100	0	230	101300000	1000	0	0	-1	0
20638475	4516	0	0	-100	0	230	101300000	1000	0	0	-1	0
20651035	4507	0	0	-100	0	230	101300000	1000	0	0	-1	0
20663595	4506	0	0	-100	0	230	101300000	1000	0	0	-1	0
20676155	4516	0	0	-100	0	230	101300000	1000	0	0	-1	0
20688715	4514	0	0	-100	0	230	101300000	1000	0	0	-1	0
20701275	4510	1	0	-100	0	230	101300000	1000	0	0	-1	0
20713835	4508	0	0	-100	0	230	101300000	1000	0	0	-1	0
20726395	4513	0	0	-100	0	230	101300000	1000	0	0	-1	0
20738955	4516	0	0	-100	0	230	101300000	1000	0	0	-1	0
20751515	4509	0	0	-100	0	230	101300000	1000	0	0	-1	0
20764075	4508	3	0	-100	0	230	101300000	1000	0	0	-1	0
20776635	4512	0	0	-100	0	230	101300000	1000	0	0	-1	0
20789195	4516	0	0	-100	0	230	101300000	1000	0	0	-1	0
20801755	4509	3	0	-100	0	230	101300000	1000	0	0	-1	0
20814315	4516	0	0	-100	0	230	101300000	1000	0	0	-1	0
20826875	4512	0	0	-100	0	230	101300000	1000	0	0	-1	0
20839435	4508	1	0	-100	0	230	101300000	1000	0	0	-1	0
20851995	4510	0	0	-100	0	230	101300000	1000	0	0	-1	0
20864555	4516	0	0	-100	0	230	101300000	1000	0	0	-1	0
20877115	4509	0	0	-100	0	230	101300000	1000	0	0	-1	0
20889675	4509	0	0	-100	0	230	101300000	1000	0	0	-1	0
20902235	4513	0	0	-100	0	230	101300000	1000	0	0	-1	0
20914795	4514	0	0	-100	0	230	101300000	1000	0	0	-1	0
20927355	4509	4	0	-100	0	230	101300000	1000	0	0	-1	0
20939915	4509	0	0	-100	0	230	101300000	1000	0	0	-1	0
20952475	4513	0	0	-100	0	230	101300000	1000	0	0	-1	0
20965035	4515	0	0	-100	0	230	101300000	1000	0	0	-1	0
20977595	4510	2	0	-100	0	230	101300000	1000	0	0	-1	0
20990155	4507	0	0	-100	0	230	101300000	1000	0	0	-1	0
21002715	4514	0	0	-100	0	230	101300000	1000	0	0	-1	0
21015275	4513	0	0	-100	0	230	101300000	1000	0	0	-1	0
21027835	4508	0	0	-100	0	230	101300000	1000	0	0	-1	0
21040395	4508	0	0	-100	0	230	101300000	1000	0	0	-1	0
21052955	4519	0	0	-100	0	230	101300000	1000	0	0	-1	0
21065515	4513	1	0	-100	0	230	101300000	1000	0	0	-1	0
21078075	4514	0	0	-100	0	230	101300000	1000	0	0	-1	0
21090635	4510	1	0	-100	0	230	101300000	1000	0	0	-1	0
21103195	4509	0	0	-100	0	230	101300000	1000	0	0	-1	0
21115755	4515	0	0	-100	0	230	101300000	1000	0	0	-1	0
21128315	4504	2	0	-100	0	230	101300000	1000	0	0	-1	0
21140875	4512	0	0	-100	0	230	101300000	1000	0	0	-1	0
21153435	4520	0	0	-100	0	230	101300000	1000	0	0	-1	0
21165995	4509	0	0	-100	0	230	101300000	1000	0	0	-1	0
21178555	4512	0	0	-100	0	230	101300000	1000	0	0	-1	0
21191115	4513	0	0	-100	0	230	101300000	1000	0	0	-1	0
21203675	4512	0	0	-100	0	230	101300000	1000	0	0	-1	0
21216235	4515	0	0	-100	0	230	101300000	1000	0	0	-1	0
21228795	4507	1	0	-100	0	230	101300000	1000	0	0	-1	0
21241355	4514	0	0	-100	0	230	101300000	1000	0	0	-1	0
21253915	4512	0	0	-100	0	230	101300000	1000	0	0	-1	0
21266475	4510	0	0	-100	0	230	101300000	1000	0	0	-1	0
21279035	4513	0	0	-100	0	230	101300000	1000	0	0	-1	0
21291595	4508	0	0	-100	0	230	101300000	1000	0	0	-1	0
21304155	4507	0	0	-100	0	230	101300000	1000	0	0	-1	0
21316715	4514	0	0	-100	0	230	101300000	1000	0	0	-1	0
21329275	4508	2	0	-100	0	230	101300000	1000	0	0	-1	0
21341835	4512	0	0	-100	0	230	101300000	1000	0	0	-1	0
21354395	4518	0	0	-100	0	230	101300000	1000	0	0	-1	0
21366955	4509	3	0	-100	0	230	101300000	1000	0	0	-1	0
21379515	4512	0	0	-100	0	230	101300000	1000	0	0	-1	0
21392075	4509	1	0	-100	0	230	101300000	1000	0	0	-1	0
21404635	4508	0	0	-100	0	230	101300000	1000	0	0	-1	0
21417195	4519	0	0	-100	0	230	101300000	1000	0	0	-1	0
21429755	4509	2	0	-100	0	230	101300000	1000	0	0	-1	0
21442315	4512	0	0	-100	0	230	101300000	1000	0	0	-1	0
21454875	4513	0	0	-100	0	230	101300000	1000	0	0	-1	0
21467435	4507	0	0	-100	0	230	101300000	1000	0	0	-1	0
21479995	4518	0	0	-100	0	230	101300000	1000	0	0	-1	0
21492555	4509	0	0	-100	0	230	101300000	1000	0	0	-1	0
21505115	4510	0	0	-100	0	230	101300000	1000	0	0	-1	0
21517675	4510	0	0	-100	0	230	101300000	1000	0	0	-1	0
21530235	4508	0	0	-100	0	230	101300000	1000	0	0	-1	0
21542795	4514	0	0	-100	0	230	101300000	1000	0	0	-1	0
21555355	4508	3	0	-100	0	230	101300000	1000	0	0	-1	0
21567915	4514	0	0	-100	0	230	101300000	1000	0	0	-1	0
21580475	4509	0	0	-100	0	230	101300000	1000	0	0	-1	0
21593035	4513	0	0	-100	0	230	101300000	1000	0	0	-1	0
21605595	4509	0	0	-100	0	230	101300000	1000	0	0	-1	0
21618155	4512	0	0	-100	0	230	101300000	1000	0	0	-1	0
21630715	4508	0	0	-100	0	230	101300000	1000	0	0	-1	0
21643275	4519	0	0	-100	0	230	101300000	1000	0	0	-1	0
21655835	4510	0	0	-100	0	230	101300000	1000	0	0	-1	0
21668395	4514	0	0	-100	0	230	101300000	1000	0	0	-1	0
21680955	4513	3	0	-100	0	230	101300000	1000	0	0	-1	0
21693515	4516	0	0	-100	0	230	101300000	1000	0	0	-1	0
21706075	4507	0	0	-100	0	230	101300000	1000	0	0	-1	0
21718635	4510	0	0	-100	0	230	101300000	1000	0	0	-1	0
21731195	4512	0	0	-100	0	230	101300000	1000	0	0	-1	0
21743755	4508	0	0	-100	0	230	101300000	1000	0	0	-1	0
21756315	4520	0	0	-100	0	230	101300000	1000	0	0	-1	0
21768875	4508	0	0	-100	0	230	101300000	1000	0	0	-1	0
21781435	4519	0	0	-100	0	230	101300000	1000	0	0	-1	0
21793995	4508	0	0	-100	0	230	101300000	1000	0	0	-1	0
21806555	4514	0	0	-100	0	230	101300000	1000	0	0	-1	0
21819115	4512	0	0	-100	0	230	101300000	1000	0	0	-1	0
21831675	4515	0	0	-100	0	230	101300000	1000	0	0	-1	0
21844235	4508	0	0	-100	0	230	101300000	1000	0	0	-1	0
21856795	4516	0	0	-100	0	230	101300000	1000	0	0	-1	0
21869355	4510	1	0	-100	0	230	101300000	1000	0	0	-1	0
21881915	4509	0	0	-100	0	230	101300000	1000	0	0	-1	0
21894475	4519	0	0	-100	0	230	101300000	1000	0	0	-1	0
21907035	4509	3	0	-100	0	230	101300000	1000	0	0	-1	0
21919595	4514	0	0	-100	0	230	101300000	1000	0	0	-1	0
21932155	4512	0	0	-100	0	230	101300000	1000	0	0	-1	0
21944715	4513	1	0	-100	0	230	101300000	1000	0	0	-1	0
21957275	4516	0	0	-100	0	230	101300000	1000	0	0	-1	0
21969835	4512	0	0	-100	0	230	101300000	1000	0	0	-1	0
21982395	4510	0	0	-100	0	230	101300000	1000	0	0	-1	0
21994955	4518	0	0	-100	0	230	101300000	1000	0	0	-1	0
22007515	4510	1	0	-100	0	230	101300000	1000	0	0	-1	0
22020075	4510	0	0	-100	0	230	101300000	1000	0	0	-1	0
22032635	4518	0	0	-100	0	230	101300000	1000	0	0	-1	0
22045195	4510	3	0	-100	0	230	101300000	1000	0	0	-1	0
22057755	4515	0	0	-100	0	230	101300000	1000	0	0	-1	0
22070315	4509	0	0	-100	0	230	101300000	1000	0	0	-1	0
22082875	4508	0	0	-100	0	230	101300000	1000	0	0	-1	0
22095435	4519	0	0	-100	0	230	101300000	1000	0	0	-1	0
22107995	4509	0	0	-100	0	230	101300000	1000	0	0	-1	0
22120555	4514	0	0	-100	0	230	101300000	1000	0	0	-1	0
22133115	4509	0	0	-100	0	230	101300000	1000	0	0	-1	0
22145675	4509	0	0	-100	0	230	101300000	1000	0	0	-1	0
22158235	4514	0	0	-100	0	230	101300000	1000	0	0	-1	0
22170795	4512	4	0	-100	0	230	101300000	1000	0	0	-1	0
22183355	4513	0	0	-100	0	230	101300000	1000	0	0	-1	0
22195915	4516	0	0	-100	0	230	101300000	1000	0	0	-1	0
22208475	4510	0	0	-100	0	230	101300000	1000	0	0	-1	0
22221035	4516	0	0	-100	0	230	101300000	1000	0	0	-1	0
22233595	4510	0	0	-100	0	230	101300000	1000	0	0	-1	0
22246155	4507	0	0	-100	0	230	101300000	1000	0	0	-1	0
22258715	4515	0	0	-100	0	230	101300000	1000	0	0	-1	0
22271275	4512	0	0	-100	0	230	101300000	1000	0	0	-1	0
22283835	4510	0	0	-100	0	230	101300000	1000	0	0	-1	0
22296395	4519	0	0	-100	0	230	101300000	1000	0	0	-1	0
22308955	4515	0	0	-100	0	230	101300000	1000	0	0	-1	0
22321515	4508	1	0	-100	0	230	101300000	1000	0	0	-1	0
22334075	4509	0	0	-100	0	230	101300000	1000	0	0	-1	0
22346635	4515	0	0	-100	0	230	101300000	1000	0	0	-1	0
22359195	4514	0	0	-100	0	230	101300000	1000	0	0	-1	0
22371755	4510	3	0	-100	0	230	101300000	1000	0	0	-1	0
22384315	4509	0	0	-100	0	230	101300000	1000	0	0	-1	0
22396875	4514	0	0	-100	0	230	101300000	1000	0	0	-1	0
22409435	4510	4	0	-100	0	230	101300000	1000	0	0	-1	0
22421995	4515	0	0	-100	0	230	101300000	1000	0	0	-1	0
22434555	4510	0	0	-100	0	230	101300000	1000	0	0	-1	0
22447115	4508	0	0	-100	0	230	101300000	1000	0	0	-1	0
22459675	4518	0	0	-100	0	230	101300000	1000	0	0	-1	0
22472235	4512	3	0	-100	0	230	101300000	1000	0	0	-1	0
22484795	4514	0	0	-100	0	230	101300000	1000	0	0	-1	0
22497355	4513	0	0	-100	0	230	101300000	1000	0	0	-1	0
22509915	4507	0	0	-100	0	230	101300000	1000	0	0	-1	0
22522475	4515	0	0	-100	0	230	101300000	1000	0	0	-1	0
22535035	4510	2	0	-100	0	230	101300000	1000	0	0	-1	0
22547595	4514	0	0	-100	0	230	101300000	1000	0	0	-1	0
22560155	4510	0	0	-100	0	230	101300000	1000	0	0	-1	0
22572715	4514	0	0	-100	0	230	101300000	1000	0	0	-1	0
22585275	4510	0	0	-100	0	230	101300000	1000	0	0	-1	0
22597835	4510	0	0	-100	0	230	101300000	1000	0	0	-1	0
22610395	4515	0	0	-100	0	230	101300000	1000	0	0	-1	0
22622955	4509	0	0	-100	0	230	101300000	1000	0	0	-1	0
22635515	4519	0	0	-100	0	230	101300000	1000	0	0	-1	0
22648075	4510	3	0	-100	0	230	101300000	1000	0	0	-1	0
22660635	4514	0	0	-100	0	230	101300000	1000	0	0	-1	0
22673195	4509	0	0	-100	0	230	101300000	1000	0	0	-1	0
22685755	4510	0	0	-100	0	230	101300000	1000	0	0	-1	0
22698315	4518	0	0	-100	0	230	101300000	1000	0	0	-1	0
22710875	4512	1	0	-100	0	230	101300000	1000	0	0	-1	0
22723435	4513	0	0	-100	0	230	101300000	1000	0	0	-1	0
22735995	4519	2	0	-100	0	230	101300000	1000	0	0	-1	0
22748555	4509	2	0	-100	0	230	101300000	1000	0	0	-1	0
22761115	4513	0	0	-100	0	230	101300000	1000	0	0	-1	0
22773675	4516	0	0	-100	0	230	101300000	1000	0	0	-1	0
22786235	4510	2	0	-100	0	230	101300000	1000	0	0	-1	0
22798795	4509	0	0	-100	0	230	101300000	1000	0	0	-1	0
22811355	4518	0	0	-100	0	230	101300000	1000	0	0	-1	0
22823915	4509	0	0	-100	0	230	101300000	1000	0	0	-1	0
22836475	4510	0	0	-100	0	230	101300000	1000	0	0	-1	0
22849035	4515	0	0	-100	0	230	101300000	1000	0	0	-1	0
22861595	4515	0	0	-100	0	230	101300000	1000	0	0	-1	0
22874155	4514	1	0	-100	0	230	101300000	1000	0	0	-1	0
22886715	4509	0	0	-100	0	230	101300000	1000	0	0	-1	0
22899275	4516	0	0	-100	0	230	101300000	1000	0	0	-1	0
22911835	4513	0	0	-100	0	230	101300000	1000	0	0	-1	0
22924395	4507	3	0	-100	0	230	101300000	1000	0	0	-1	0
22936955	4513	0	0	-100	0	230	101300000	1000	0	0	-1	0
22949515	4507	0	0	-100	0	230	101300000	1000	0	0	-1	0
22962075	4509	0	0	-100	0	230	101300000	1000	0	0	-1	0
22974635	4516	0	0	-100	0	230	101300000	1000	0	0	-1	0
22987195	4506	0	0	-100	0	230	101300000	1000	0	0	-1	0
22999755	4509	0	0	-100	0	230	101300000	1000	0	0	-1	0
23012315	4515	0	0	-100	0	230	101300000	1000	0	0	-1	0
23024875	4506	1	0	-100	0	230	101300000	1000	0	0	-1	0
23037435	4509	0	0	-100	0	230	101300000	1000	0	0	-1	0
23049995	4513	1	0	-100	0	230	101300000	1000	0	0	-1	0
23062555	4509	2	0	-100	0	230	101300000	1000	0	0	-1	0
23075115	4514	0	0	-100	0	230	101300000	1000	0	0	-1	0
23087675	4514	0	0	-100	0	230	101300000	1000	0	0	-1	0
23100235	4507	0	0	-100	0	230	101300000	1000	0	0	-1	0
23112795	4513	0	0	-100	0	230	101300000	1000	0	0	-1	0
23125355	4509	2	0	-100	0	230	101300000	1000	0	0	-1	0
23137915	4512	0	0	-100	0	230	101300000	1000	0	0	-1	0
23150475	4512	0	0	-100	0	230	101300000	1000	0	0	-1	0
23163035	4508	0	0	-100	0	230	101300000	1000	0	0	-1	0
23175595	4519	0	0	-100	0	230	101300000	1000	0	0	-1	0
23188155	4508	0	0	-100	0	230	101300000	1000	0	0	-1	0
23200715	4518	0	0	-100	0	230	101300000	1000	0	0	-1	0
23213275	4504	0	0	-100	0	230	101300000	1000	0	0	-1	0
23225835	4518	0	0	-100	0	230	101300000	1000	0	0	-1	0
23238395	4509	0	0	-100	0	230	101300000	1000	0	0	-1	0
23250955	4510	0	0	-100	0	230	101300000	1000	0	0	-1	0
23263515	4507	0	0	-100	0	230	101300000	1000	0	0	-1	0
23276075	4516	0	0	-100	0	230	101300000	1000	0	0	-1	0
23288635	4508	0	0	-100	0	230	101300000	1000	0	0	-1	0
23301195	4519	0	0	-100	0	230	101300000	1000	0	0	-1	0
23313755	4508	4	0	-100	0	230	101300000	1000	0	0	-1	0
23326315	4516	0	0	-100	0	230	101300000	1000	0	0	-1	0
23338875	4513	2	0	-100	0	230	101300000	1000	0	0	-1	0
23351435	4515	0	0	-100	0	230	101300000	1000	0	0	-1	0
23363995	4508	0	0	-100	0	230	101300000	1000	0	0	-1	0
23376555	4512	0	0	-100	0	230	101300000	1000	0	0	-1	0
23389115	4507	1	0	-100	0	230	101300000	1000	0	0	-1	0
23401675	4508	0	0	-100	0	230	101300000	1000	0	0	-1	0
23414235	4518	0	0	-100	0	230	101300000	1000	0	0	-1	0
23426795	4513	4	0	-100	0	230	101300000	1000	0	0	-1	0
23439355	4516	0	0	-100	0	230	101300000	1000	0	0	-1	0
23451915	4510	2	0	-100	0	230	101300000	1000	0	0	-1	0
23464475	4513	0	0	-100	0	230	101300000	1000	0	0	-1	0
23477035	4513	1	0	-100	0	230	101300000	1000	0	0	-1	0
23489595	4514	0	0	-100	0	230	101300000	1000	0	0	-1	0
23502155	4508	0	0	-100	0	230	101300000	1000	0	0	-1	0
23514715	4509	0	0	-100	0	230	101300000	1000	0	0	-1	0
23527275	4516	0	0	-100	0	230	101300000	1000	0	0	-1	0
23539835	4509	0	0	-100	0	230	101300000	1000	0	0	-1	0
23552395	4518	0	0	-100	0	230	101300000	1000	0	0	-1	0
23564955	4510	3	0	-100	0	230	101300000	1000	0	0	-1	0
23577515	4516	0	0	-100	0	230	101300000	1000	0	0	-1	0
23590075	4508	3	0	-100	0	230	101300000	1000	0	0	-1	0
23602635	4516	0	0	-100	0	230	101300000	1000	0	0	-1	0
23615195	4510	0	0	-100	0	230	101300000	1000	0	0	-1	0
23627755	4508	0	0	-100	0	230	101300000	1000	0	0	-1	0
23640315	4515	0	0	-100	0	230	101300000	1000	0	0	-1	0
23652875	4510	0	0	-100	0	230	101300000	1000	0	0	-1	0
23665435	4520	0	0	-100	0	230	101300000	1000	0	0	-1	0
23677995	4513	0	0	-100	0	230	101300000	1000	0	0	-1	0
23690555	4515	0	0	-100	0	230	101300000	1000	0	0	-1	0
23703115	4508	0	0	-100	0	230	101300000	1000	0	0	-1	0
23715675	4513	0	0	-100	0	230	101300000	1000	0	0	-1	0
23728235	4512	0	0	-100	0	230	101300000	1000	0	0	-1	0
23740795	4513	0	0	-100	0	230	101300000	1000	0	0	-1	0
23753355	4519	0	0	-100	0	230	101300000	1000	0	0	-1	0
23765915	4510	1	0	-100	0	230	101300000	1000	0	0	-1	0
23778475	4515	0	0	-100	0	230	101300000	1000	0	0	-1	0
23791035	4513	0	0	-100	0	230	101300000	1000	0	0	-1	0
23803595	4510	0	0	-100	0	230	101300000	1000	0	0	-1	0
23816155	4515	0	0	-100	0	230	101300000	1000	0	0	-1	0
23828715	4512	0	0	-100	0	230	101300000	1000	0	0	-1	0
23841275	4513	0	0	-100	0	230	101300000	1000	0	0	-1	0
23853835	4510	0	0	-100	0	230	101300000	1000	0	0	-1	0
23866395	4514	0	0	-100	0	230	101300000	1000	0	0	-1	0
23878955	4514	1	0	-100	0	230	101300000	1000	0	0	-1	0
23891515	4514	0	0	-100	0	230	101300000	1000	0	0	-1	0
23904075	4510	0	0	-100	0	230	101300000	1000	0	0	-1	0
23916635	4518	0	0	-100	0	230	101300000	1000	0	0	-1	0
23929195	4512	1	0	-100	0	230	101300000	1000	0	0	-1	0
23941755	4514	0	0	-100	0	230	101300000	1000	0	0	-1	0
23954315	4513	0	0	-100	0	230	101300000	1000	0	0	-1	0
23966875	4513	0	0	-100	0	230	101300000	1000	0	0	-1	0
23979435	4509	4	0	-100	0	230	101300000	1000	0	0	-1	0
23991995	4513	0	0	-100	0	230	101300000	1000	0	0	-1	0
24004555	4508	4	0	-100	0	230	101300000	1000	0	0	-1	0
24017115	4513	0	0	-100	0	230	101300000	1000	0	0	-1	0
24029675	4508	3	0	-100	0	230	101300000	1000	0	0	-1	0
24042235	4515	0	0	-100	0	230	101300000	1000	0	0	-1	0
24054795	4513	3	0	-100	0	230	101300000	1000	0	0	-1	0
24067355	4515	0	0	-100	0	230	101300000	1000	0	0	-1	0
24079915	4507	1	0	-100	0	230	101300000	1000	0	0	-1	0
24092475	4509	0	0	-100	0	230	101300000	1000	0	0	-1	0
24105035	4519	0	0	-100	0	230	101300000	1000	0	0	-1	0
24117595	4512	3	0	-100	0	230	101300000	1000	0	0	-1	0
24130155	4513	0	0	-100	0	230	101300000	1000	0	0	-1	0
24142715	4510	0	0	-100	0	230	101300000	1000	0	0	-1	0
24155275	4510	0	0	-100	0	230	101300000	1000	0	0	-1	0
24167835	4514	0	0	-100	0	230	101300000	1000	0	0	-1	0
24180395	4509	0	0	-100	0	230	101300000	1000	0	0	-1	0
24192955	4509	0	0	-100	0	230	101300000	1000	0	0	-1	0
24205515	4520	0	0	-100	0	230	101300000	1000	0	0	-1	0
24218075	4514	0	0	-100	0	230	101300000	1000	0	0	-1	0
24230635	4515	0	0	-100	0	230	101300000	1000	0	0	-1	0
24243195	4513	3	0	-100	0	230	101300000	1000	0	0	-1	0
24255755	4516	0	0	-100	0	230	101300000	1000	0	0	-1	0
24268315	4510	2	0	-100	0	230	101300000	1000	0	0	-1	0
24280875	4512	0	0	-100	0	230	101300000	1000	0	0	-1	0
24293435	4515	0	0	-100	0	230	101300000	1000	0	0	-1	0
24305995	4507	0	0	-100	0	230	101300000	1000	0	0	-1	0
24318555	4512	0	0	-100	0	230	101300000	1000	0	0	-1	0
24331115	4514	0	0	-100	0	230	101300000	1000	0	0	-1	0
24343675	4507	0	0	-100	0	230	101300000	1000	0	0	-1	0
24356235	4521	0	0	-100	0	230	101300000	1000	0	0	-1	0
24368795	4507	1	0	-100	0	230	101300000	1000	0	0	-1	0
24381355	4516	0	0	-100	0	230	101300000	1000	0	0	-1	0
24393915	4512	3	0	-100	0	230	101300000	1000	0	0	-1	0
24406475	4512	0	0	-100	0	230	101300000	1000	0	0	-1	0
24419035	4513	0	0	-100	0	230	101300000	1000	0	0	-1	0
24431595	4518	0	0	-100	0	230	101300000	1000	0	0	-1	0
24444155	4512	1	0	-100	0	230	101300000	1000	0	0	-1	0
24456715	4518	0	0	-100	0	230	101300000	1000	0	0	-1	0
24469275	4508	4	0	-100	0	230	101300000	1000	0	0	-1	0
24481835	4516	0	0	-100	0	230	101300000	1000	0	0	-1	0
24494395	4512	4	0	-100	0	230	101300000	1000	0	0	-1	0
24506955	4513	0	0	-100	0	230	101300000	1000	0	0	-1	0
24519515	4513	0	0	-100	0	230	101300000	1000	0	0	-1	0
24532075	4510	0	0	-100	0	230	101300000	1000	0	0	-1	0
24544635	4508	0	0	-100	0	230	101300000	1000	0	0	-1	0
24557195	4514	0	0	-100	0	230	101300000	1000	0	0	-1	0
24569755	4509	0	0	-100	0	230	101300000	1000	0	0	-1	0
24582315	4509	0	0	-100	0	230	101300000	1000	0	0	-1	0
24594875	4514	0	0	-100	0	230	101300000	1000	0	0	-1	0
24607435	4506	0	0	-100	0	230	101300000	1000	0	0	-1	0
24619995	4514	3	0	-100	0	230	101300000	1000	0	0	-1	0
24632555	4508	0	0	-100	0	230	101300000	1000	0	0	-1	0
24645115	4513	0	0	-100	0	230	101300000	1000	0	0	-1	0
24657675	4509	1	0	-100	0	230	101300000	1000	0	0	-1	0
24670235	4510	0	0	-100	0	230	101300000	1000	0	0	-1	0
24682795	4508	1	0	-100	0	230	101300000	1000	0	0	-1	0
24695355	4516	0	0	-100	0	230	101300000	1000	0	0	-1	0
24707915	4509	1	0	-100	0	230	101300000	1000	0	0	-1	0
24720475	4514	0	0	-100	0	230	101300000	1000	0	0	-1	0
24733035	4508	3	0	-100	0	230	101300000	1000	0	0	-1	0
24745595	4513	0	0	-100	0	230	101300000	1000	0	0	-1	0
24758155	4509	0	0	-100	0	230	101300000	1000	0	0	-1	0
24770715	4508	0	0	-100	0	230	101300000	1000	0	0	-1	0
24783275	4514	0	0	-100	0	230	101300000	1000	0	0	-1	0
24795835	4509	1	0	-100	0	230	101300000	1000	0	0	-1	0
24808395	4515	0	0	-100	0	230	101300000	1000	0	0	-1	0
24820955	4513	0	0	-100	0	230	101300000	1000	0	0	-1	0
24833515	4508	0	0	-100	0	230	101300000	1000	0	0	-1	0
24846075	4513	0	0	-100	0	230	101300000	1000	0	0	-1	0
24858635	4510	0	0	-100	0	230	101300000	1000	0	0	-1	0
24871195	4508	0	0	-100	0	230	101300000	1000	0	0	-1	0
24883755	4520	0	0	-100	0	230	101300000	1000	0	0	-1	0
24896315	4510	0	0	-100	0	230	101300000	1000	0	0	-1	0
24908875	4519	0	0	-100	0	230	101300000	1000	0	0	-1	0
24921435	4504	0	0	-100	0	230	101300000	1000	0	0	-1	0
24933995	4515	2	0	-100	0	230	101300000	1000	0	0	-1	0
24946555	4510	3	0	-100	0	230	101300000	1000	0	0	-1	0
24959115	4519	0	0	-100	0	230	101300000	1000	0	0	-1	0
24971675	4508	2	0	-100	0	230	101300000	1000	0	0	-1	0
24984235	4513	0	0	-100	0	230	101300000	1000	0	0	-1	0
24996795	4512	1	0	-100	0	230	101300000	1000	0	0	-1	0
25009355	4513	0	0	-100	0	230	101300000	1000	0	0	-1	0
25021915	4513	0	0	-100	0	230	101300000	1000	0	0	-1	0
25034475	4509	0	0	-100	0	230	101300000	1000	0	0	-1	0
25047035	4516	0	0	-100	0	230	101300000	1000	0	0	-1	0
25059595	4510	0	0	-100	0	230	101300000	1000	0	0	-1	0
25072155	4515	0	0	-100	0	230	101300000	1000	0	0	-1	0
25084715	4509	1	0	-100	0	230	101300000	1000	0	0	-1	0
25097275	4514	0	0	-100	0	230	101300000	1000	0	0	-1	0
25109835	4509	0	0	-100	0	230	101300000	1000	0	0	-1	0
25122395	4516	0	0	-100	0	230	101300000	1000	0	0	-1	0
25134955	4513	0	0	-100	0	230	101300000	1000	0	0	-1	0
25147515	4510	0	0	-100	0	230	101300000	1000	0	0	-1	0
25160075	4512	0	0	-100	0	230	101300000	1000	0	0	-1	0
25172635	4514	0	0	-100	0	230	101300000	1000	0	0	-1	0
25185195	4509	2	0	-100	0	230	101300000	1000	0	0	-1	0
25197755	4516	0	0	-100	0	230	101300000	1000	0	0	-1	0
25210315	4507	1	0	-100	0	230	101300000	1000	0	0	-1	0
25222875	4508	0	0	-100	0	230	101300000	1000	0	0	-1	0
25235435	4519	0	0	-100	0	230	101300000	1000	0	0	-1	0
25247995	4508	0	0	-100	0	230	101300000	1000	0	0	-1	0
25260555	4513	0	0	-100	0	230	101300000	1000	0	0	-1	0
25273115	4516	0	0	-100	0	230	101300000	1000	0	0	-1	0
25285675	4507	3	0	-100	0	230	101300000	1000	0	0	-1	0
25298235	4514	0	0	-100	0	230	101300000	1000	0	0	-1	0
25310795	4516	0	0	-100	0	230	101300000	1000	0	0	-1	0
25323355	4510	2	0	-100	0	230	101300000	1000	0	0	-1	0
25335915	4509	0	0	-100	0	230	101300000	1000	0	0	-1	0
25348475	4514	0	0	-100	0	230	101300000	1000	0	0	-1	0
25361035	4512	2	0	-100	0	230	101300000	1000	0	0	-1	0
25373595	4513	0	0	-100	0	230	101300000	1000	0	0	-1	0
25386155	4515	0	0	-100	0	230	101300000	1000	0	0	-1	0
25398715	4512	2	0	-100	0	230	101300000	1000	0	0	-1	0
25411275	4509	0	0	-100	0	230	101300000	1000	0	0	-1	0
25423835	4512	0	0	-100	0	230	101300000	1000	0	0	-1	0
25436395	4509	0	0	-100	0	230	101300000	1000	0	0	-1	0
25448955	4513	0	0	-100	0	230	101300000	1000	0	0	-1	0
25461515	4512	2	0	-100	0	230	101300000	1000	0	0	-1	0
25474075	4513	0	0	-100	0	230	101300000	1000	0	0	-1	0
25486635	4513	0	0	-100	0	230	101300000	1000	0	0	-1	0
25499195	4507	0	0	-100	0	230	101300000	1000	0	0	-1	0
25511755	4519	0	0	-100	0	230	101300000	1000	0	0	-1	0
25524315	4506	3	0	-100	0	230	101300000	1000	0	0	-1	0
25536875	4514	0	0	-100	0	230	101300000	1000	0	0	-1	0
25549435	4508	0	0	-100	0	230	101300000	1000	0	0	-1	0
25561995	4513	0	0	-100	0	230	101300000	1000	0	0	-1	0
25574555	4515	0	0	-100	0	230	101300000	1000	0	0	-1	0
25587115	4508	4	0	-100	0	230	101300000	1000	0	0	-1	0
25599675	4510	0	0	-100	0	230	101300000	1000	0	0	-1	0
25612235	4514	0	0	-100	0	230	101300000	1000	0	0	-1	0
25624795	4509	0	0	-100	0	230	101300000	1000	0	0	-1	0
25637355	4509	2	0	-100	0	230	101300000	1000	0	0	-1	0
25649915	4512	0	0	-100	0	230	101300000	1000	0	0	-1	0
25662475	4515	0	0	-100	0	230	101300000	1000	0	0	-1	0
25675035	4512	0	0	-100	0	230	101300000	1000	0	0	-1	0
25687595	4504	0	0	-100	0	230	101300000	1000	0	0	-1	0
25700155	4514	0	0	-100	0	230	101300000	1000	0	0	-1	0
25712715	4513	0	0	-100	0	230	101300000	1000	0	0	-1	0
25725275	4509	0	0	-100	0	230	101300000	1000	0	0	-1	0
25737835	4516	0	0	-100	0	230	101300000	1000	0	0	-1	0
25750395	4513	0	0	-100	0	230	101300000	1000	0	0	-1	0
25762955	4512	1	0	-100	0	230	101300000	1000	0	0	-1	0
25775515	4513	0	0	-100	0	230	101300000	1000	0	0	-1	0
25788075	4510	0	0	-100	0	230	101300000	1000	0	0	-1	0
25800635	4509	0	0	-100	0	230	101300000	1000	0	0	-1	0
25813195	4518	0	0	-100	0	230	101300000	1000	0	0	-1	0
25825755	4509	2	0	-100	0	230	101300000	1000	0	0	-1	0
25838315	4515	0	0	-100	0	230	101300000	1000	0	0	-1	0
25850875	4510	4	0	-100	0	230	101300000	1000	0	0	-1	0
25863435	4513	0	0	-100	0	230	101300000	1000	0	0	-1	0
25875995	4512	2	0	-100	0	230	101300000	1000	0	0	-1	0
25888555	4506	0	0	-100	0	230	101300000	1000	0	0	-1	0
25901115	4516	0	0	-100	0	230	101300000	1000	0	0	-1	0
25913675	4512	0	0	-100	0	230	101300000	1000	0	0	-1	0
25926235	4508	0	0	-100	0	230	101300000	1000	0	0	-1	0
25938795	4519	0	0	-100	0	230	101300000	1000	0	0	-1	0
25951355	4506	4	0	-100	0	230	101300000	1000	0	0	-1	0
25963915	4515	0	0	-100	0	230	101300000	1000	0	0	-1	0
25976475	4509	2	0	-100	0	230	101300000	1000	0	0	-1	0
25989035	4515	0	0	-100	0	230	101300000	1000	0	0	-1	0
26001595	4508	0	0	-100	0	230	101300000	1000	0	0	-1	0
26014155	4513	0	0	-100	0	230	101300000	1000	0	0	-1	0
26026715	4509	0	0	-100	0	230	101300000	1000	0	0	-1	0
26039275	4512	0	0	-100	0	230	101300000	1000	0	0	-1	0
26051835	4516	0	0	-100	0	230	101300000	1000	0	0	-1	0
26064395	4514	0	0	-100	0	230	101300000	1000	0	0	-1	0
26076955	4515	0	0	-100	0	230	101300000	1000	0	0	-1	0
26089515	4509	1	0	-100	0	230	101300000	1000	0	0	-1	0
26102075	4513	0	0	-100	0	230	101300000	1000	0	0	-1	0
26114635	4507	0	0	-100	0	230	101300000	1000	0	0	-1	0
26127195	4509	0	0	-100	0	230	101300000	1000	0	0	-1	0
26139755	4515	0	0	-100	0	230	101300000	1000	0	0	-1	0
26152315	4509	0	0	-100	0	230	101300000	1000	0	0	-1	0
26164875	4514	0	0	-100	0	230	101300000	1000	0	0	-1	0
26177435	4509	0	0	-100	0	230	101300000	1000	0	0	-1	0
26189995	4509	0	0	-100	0	230	101300000	1000	0	0	-1	0
26202555	4510	0	0	-100	0	230	101300000	1000	0	0	-1	0
26215115	4513	0	0	-100	0	230	101300000	1000	0	0	-1	0
26227675	4506	0	0	-100	0	230	101300000	1000	0	0	-1	0
26240235	4516	0	0	-100	0	230	101300000	1000	0	0	-1	0
26252795	4512	3	0	-100	0	230	101300000	1000	0	0	-1	0
26265355	4516	0	0	-100	0	230	101300000	1000	0	0	-1	0
26277915	4512	1	0	-100	0	230	101300000	1000	0	0	-1	0
26290475	4513	0	0	-100	0	230	101300000	1000	0	0	-1	0
26303035	4509	0	0	-100	0	230	101300000	1000	0	0	-1	0
26315595	4514	0	0	-100	0	230	101300000	1000	0	0	-1	0
26328155	4510	0	0	-100	0	230	101300000	1000	0	0	-1	0
26340715	4509	0	0	-100	0	230	101300000	1000	0	0	-1	0
26353275	4514	0	0	-100	0	230	101300000	1000	0	0	-1	0
26365835	4508	4	0	-100	0	230	101300000	1000	0	0	-1	0
26378395	4518	0	0	-100	0	230	101300000	1000	0	0	-1	0
26390955	4507	2	0	-100	0	230	101300000	1000	0	0	-1	0
26403515	4513	0	0	-100	0	230	101300000	1000	0	0	-1	0
26416075	4514	3	0	-100	0	230	101300000	1000	0	0	-1	0
26428635	4512	0	0	-100	0	230	101300000	1000	0	0	-1	0
26441195	4509	1	0	-100	0	230	101300000	1000	0	0	-1	0
26453755	4518	0	0	-100	0	230	101300000	1000	0	0	-1	0
26466315	4509	3	0	-100	0	230	101300000	1000	0	0	-1	0
26478875	4518	0	0	-100	0	230	101300000	1000	0	0	-1	0
26491435	4512	1	0	-100	0	230	101300000	1000	0	0	-1	0
26503995	4512	0	0	-100	0	230	101300000	1000	0	0	-1	0
26516555	4512	0	0	-100	0	230	101300000	1000	0	0	-1	0
26529115	4513	0	0	-100	0	230	101300000	1000	0	0	-1	0
26541675	4512	0	0	-100	0	230	101300000	1000	0	0	-1	0
26554235	4509	0	0	-100	0	230	101300000	1000	0	0	-1	0
26566795	4510	0	0	-100	0	230	101300000	1000	0	0	-1	0
26579355	4509	0	0	-100	0	230	101300000	1000	0	0	-1	0
26591915	4515	0	0	-100	0	230	101300000	1000	0	0	-1	0
26604475	4513	0	0	-100	0	230	101300000	1000	0	0	-1	0
26617035	4510	1	0	-100	0	230	101300000	1000	0	0	-1	0
26629595	4512	0	0	-100	0	230	101300000	1000	0	0	-1	0
26642155	4507	0	0	-100	0	230	101300000	1000	0	0	-1	0
26654715	4514	0	0	-100	0	230	101300000	1000	0	0	-1	0
26667275	4509	2	0	-100	0	230	101300000	1000	0	0	-1	0
26679835	4515	0	0	-100	0	230	101300000	1000	0	0	-1	0
26692395	4509	0	0	-100	0	230	101300000	1000	0	0	-1	0
26704955	4514	0	0	-100	0	230	101300000	1000	0	0	-1	0
26717515	4507	0	0	-100	0	230	101300000	1000	0	0	-1	0
26730075	4513	0	0	-100	0	230	101300000	1000	0	0	-1	0
26742635	4512	0	0	-100	0	230	101300000	1000	0	0	-1	0
26755195	4515	0	0	-100	0	230	101300000	1000	0	0	-1	0
26767755	4510	1	0	-100	0	230	101300000	1000	0	0	-1	0
26780315	4516	0	0	-100	0	230	101300000	1000	0	0	-1	0
26792875	4510	3	0	-100	0	230	101300000	1000	0	0	-1	0
26805435	4512	0	0	-100	0	230	101300000	1000	0	0	-1	0
26817995	4513	2	0	-100	0	230	101300000	1000	0	0	-1	0
26830555	4509	0	0	-100	0	230	101300000	1000	0	0	-1	0
26843115	4513	0	0	-100	0	230	101300000	1000	0	0	-1	0
26855675	4509	0	0	-100	0	230	101300000	1000	0	0	-1	0
26868235	4513	0	0	-100	0	230	101300000	1000	0	0	-1	0
26880795	4512	0	0	-100	0	230	101300000	1000	0	0	-1	0
26893355	4520	0	0	-100	0	230	101300000	1000	0	0	-1	0
26905915	4510	0	0	-100	0	230	101300000	1000	0	0	-1	0
26918475	4514	0	0	-100	0	230	101300000	1000	0	0	-1	0
26931035	4508	3	0	-100	0	230	101300000	1000	0	0	-1	0
26943595	4516	0	0	-100	0	230	101300000	1000	0	0	-1	0
26956155	4510	3	0	-100	0	230	101300000	1000	0	0	-1	0
26968715	4515	0	0	-100	0	230	101300000	1000	0	0	-1	0
26981275	4510	4	0	-100	0	230	101300000	1000	0	0	-1	0
26993835	4515	0	0	-100	0	230	101300000	1000	0	0	-1	0
27006395	4508	0	0	-100	0	230	101300000	1000	0	0	-1	0
27018955	4509	0	0	-100	0	230	101300000	1000	0	0	-1	0
27031515	4515	0	0	-100	0	230	101300000	1000	0	0	-1	0
27044075	4509	0	0	-100	0	230	101300000	1000	0	0	-1	0
