timestamp	voltage	current	windSpeed	pitchAngle	rpm	temperature	ambientPressure	humidity	accelerationX	accelerationY	accelerationZ	currentSink
7038070	5006	3	0	-100	0	230	101300000	1000	0	0	-1	0
7045523	5012	3	0	-100	0	230	101300000	1000	0	0	-1	0
7058083	5020	0	0	-100	0	230	101300000	1000	0	0	-1	0
7070643	5017	0	0	-100	0	230	101300000	1000	0	0	-1	0
7083203	5010	3	0	-100	0	230	101300000	1000	0	0	-1	0
7095763	5018	0	0	-100	0	230	101300000	1000	0	0	-1	0
7108323	5015	0	0	-100	0	230	101300000	1000	0	0	-1	0
7120883	5014	3	0	-100	0	230	101300000	1000	0	0	-1	0
7133443	5015	0	0	-100	0	230	101300000	1000	0	0	-1	0
7146004	5016	0	0	-100	0	230	101300000	1000	0	0	-1	0
7158563	5010	2	0	-100	0	230	101300000	1000	0	0	-1	0
7171123	5020	0	0	-100	0	230	101300000	1000	0	0	-1	0
7183683	5010	0	0	-100	0	230	101300000	1000	0	0	-1	0
7196243	5013	0	0	-100	0	230	101300000	1000	0	0	-1	0
7208803	5007	0	0	-100	0	230	101300000	1000	0	0	-1	0
7221363	5018	0	0	-100	0	230	101300000	1000	0	0	-1	0
7233923	5015	4	0	-100	0	230	101300000	1000	0	0	-1	0
7246483	5017	0	0	-100	0	230	101300000	1000	0	0	-1	0
7259043	5012	2	0	-100	0	230	101300000	1000	0	0	-1	0
7271603	5017	0	0	-100	0	230	101300000	1000	0	0	-1	0
7284163	5009	2	0	-100	0	230	101300000	1000	0	0	-1	0
7296723	5017	0	0	-100	0	230	101300000	1000	0	0	-1	0
7309283	5010	2	0	-100	0	230	101300000	1000	0	0	-1	0
7321843	5014	0	0	-100	0	230	101300000	1000	0	0	-1	0
7334403	5012	0	0	-100	0	230	101300000	1000	0	0	-1	0
7346963	5011	0	0	-100	0	230	101300000	1000	0	0	-1	0
7702675	5014	0	0	-100	0	230	101300000	1000	0	0	-1	0
7715235	5014	0	0	-100	0	230	101300000	1000	0	0	-1	0
7727795	5017	0	0	-100	0	230	101300000	1000	0	0	-1	0
7740355	5011	0	0	-100	0	230	101300000	1000	0	0	-1	0
7752915	5018	0	0	-100	0	230	101300000	1000	0	0	-1	0
7765475	5010	2	0	-100	0	230	101300000	1000	0	0	-1	0
7778035	5011	0	0	-100	0	230	101300000	1000	0	0	-1	0
7790595	5017	0	0	-100	0	230	101300000	1000	0	0	-1	0
7803155	5011	1	0	-100	0	230	101300000	1000	0	0	-1	0
7815715	5017	0	0	-100	0	230	101300000	1000	0	0	-1	0
7828275	5011	0	0	-100	0	230	101300000	1000	0	0	-1	0
7840835	5010	0	0	-100	0	230	101300000	1000	0	0	-1	0
7853395	5018	0	0	-100	0	230	101300000	1000	0	0	-1	0
7865955	5009	1	0	-100	0	230	101300000	1000	0	0	-1	0
7878515	5011	0	0	-100	0	230	101300000	1000	0	0	-1	0
7891075	5018	0	0	-100	0	230	101300000	1000	0	0	-1	0
7903635	5012	4	0	-100	0	230	101300000	1000	0	0	-1	0
7916195	5019	0	0	-100	0	230	101300000	1000	0	0	-1	0
7928755	5010	0	0	-100	0	230	101300000	1000	0	0	-1	0
7941315	5010	1	0	-100	0	230	101300000	1000	0	0	-1	0
7953875	5017	0	0	-100	0	230	101300000	1000	0	0	-1	0
7966435	5011	4	0	-100	0	230	101300000	1000	0	0	-1	0
7978995	5018	3	0	-100	0	230	101300000	1000	0	0	-1	0
7991555	5015	0	0	-100	0	230	101300000	1000	0	0	-1	0
8004115	5011	3	0	-100	0	230	101300000	1000	0	0	-1	0
8016675	5017	0	0	-100	0	230	101300000	1000	0	0	-1	0
8029235	5010	2	0	-100	0	230	101300000	1000	0	0	-1	0
8041795	5017	0	0	-100	0	230	101300000	1000	0	0	-1	0
8054355	5015	3	0	-100	0	230	101300000	1000	0	0	-1	0
8066915	5017	0	0	-100	0	230	101300000	1000	0	0	-1	0
8079475	5012	2	0	-100	0	230	101300000	1000	0	0	-1	0
8092035	5018	0	0	-100	0	230	101300000	1000	0	0	-1	0
8104595	5014	0	0	-100	0	230	101300000	1000	0	0	-1	0
8117155	5021	0	0	-100	0	230	101300000	1000	0	0	-1	0
8129715	5008	0	0	-100	0	230	101300000	1000	0	0	-1	0
8142275	5015	0	0	-100	0	230	101300000	1000	0	0	-1	0
8154835	5016	0	0	-100	0	230	101300000	1000	0	0	-1	0
8167395	5010	0	0	-100	0	230	101300000	1000	0	0	-1	0
8179955	5017	0	0	-100	0	230	101300000	1000	0	0	-1	0
8192515	5015	3	0	-100	0	230	101300000	1000	0	0	-1	0
8205075	5014	0	0	-100	0	230	101300000	1000	0	0	-1	0
8217635	5011	0	0	-100	0	230	101300000	1000	0	0	-1	0
8230195	5014	0	0	-100	0	230	101300000	1000	0	0	-1	0
8242755	5015	0	0	-100	0	230	101300000	1000	0	0	-1	0
8255315	5011	2	0	-100	0	230	101300000	1000	0	0	-1	0
8267875	5017	0	0	-100	0	230	101300000	1000	0	0	-1	0
8280435	5016	0	0	-100	0	230	101300000	1000	0	0	-1	0
8292995	5014	0	0	-100	0	230	101300000	1000	0	0	-1	0
8305555	5018	0	0	-100	0	230	101300000	1000	0	0	-1	0
8318115	5011	0	0	-100	0	230	101300000	1000	0	0	-1	0
8330675	5015	0	0	-100	0	230	101300000	1000	0	0	-1	0
8343235	5015	0	0	-100	0	230	101300000	1000	0	0	-1	0
8355795	5015	0	0	-100	0	230	101300000	1000	0	0	-1	0
8368355	5018	0	0	-100	0	230	101300000	1000	0	0	-1	0
8380915	5012	0	0	-100	0	230	101300000	1000	0	0	-1	0
8393475	5012	1	0	-100	0	230	101300000	1000	0	0	-1	0
8406035	5012	0	0	-100	0	230	101300000	1000	0	0	-1	0
8418595	5015	0	0	-100	0	230	101300000	1000	0	0	-1	0
8431155	5014	0	0	-100	0	230	101300000	1000	0	0	-1	0
8443715	5017	0	0	-100	0	230	101300000	1000	0	0	-1	0
8456275	5014	0	0	-100	0	230	101300000	1000	0	0	-1	0
8468835	5010	0	0	-100	0	230	101300000	1000	0	0	-1	0
8481395	5017	0	0	-100	0	230	101300000	1000	0	0	-1	0
8493955	5016	0	0	-100	0	230	101300000	1000	0	0	-1	0
8506515	5012	0	0	-100	0	230	101300000	1000	0	0	-1	0
8519075	5016	0	0	-100	0	230	101300000	1000	0	0	-1	0
8531635	5015	3	0	-100	0	230	101300000	1000	0	0	-1	0
8544195	5012	0	0	-100	0	230	101300000	1000	0	0	-1	0
8556755	5016	4	0	-100	0	230	101300000	1000	0	0	-1	0
8569315	5016	0	0	-100	0	230	101300000	1000	0	0	-1	0
8581875	5007	0	0	-100	0	230	101300000	1000	0	0	-1	0
8594435	5015	0	0	-100	0	230	101300000	1000	0	0	-1	0
8606995	5011	0	0	-100	0	230	101300000	1000	0	0	-1	0
8619555	5011	3	0	-100	0	230	101300000	1000	0	0	-1	0
8632115	5021	0	0	-100	0	230	101300000	1000	0	0	-1	0
8644675	5007	0	0	-100	0	230	101300000	1000	0	0	-1	0
8657235	5015	2	0	-100	0	230	101300000	1000	0	0	-1	0
8669795	5014	0	0	-100	0	230	101300000	1000	0	0	-1	0
8682355	5008	0	0	-100	0	230	101300000	1000	0	0	-1	0
8694915	5015	0	0	-100	0	230	101300000	1000	0	0	-1	0
8707475	5013	0	0	-100	0	230	101300000	1000	0	0	-1	0
8720035	5011	2	0	-100	0	230	101300000	1000	0	0	-1	0
8732595	5018	0	0	-100	0	230	101300000	1000	0	0	-1	0
8745155	5010	0	0	-100	0	230	101300000	1000	0	0	-1	0
8757715	5011	2	0	-100	0	230	101300000	1000	0	0	-1	0
8770275	5016	0	0	-100	0	230	101300000	1000	0	0	-1	0
8782835	5012	0	0	-100	0	230	101300000	1000	0	0	-1	0
8795395	5014	3	0	-100	0	230	101300000	1000	0	0	-1	0
8807955	5017	0	0	-100	0	230	101300000	1000	0	0	-1	0
8820515	5008	0	0	-100	0	230	101300000	1000	0	0	-1	0
8833075	5014	2	0	-100	0	230	101300000	1000	0	0	-1	0
8845635	5012	0	0	-100	0	230	101300000	1000	0	0	-1	0
8858195	5009	0	0	-100	0	230	101300000	1000	0	0	-1	0
8870755	5017	0	0	-100	0	230	101300000	1000	0	0	-1	0
8883315	5014	0	0	-100	0	230	101300000	1000	0	0	-1	0
8895875	5017	2	0	-100	0	230	101300000	1000	0	0	-1	0
8908435	5018	0	0	-100	0	230	101300000	1000	0	0	-1	0
8920995	5014	0	0	-100	0	230	101300000	1000	0	0	-1	0
8933555	5014	1	0	-100	0	230	101300000	1000	0	0	-1	0
8946115	5017	0	0	-100	0	230	101300000	1000	0	0	-1	0
8958675	5014	0	0	-100	0	230	101300000	1000	0	0	-1	0
8971235	5012	4	0	-100	0	230	101300000	1000	0	0	-1	0
8983795	5010	0	0	-100	0	230	101300000	1000	0	0	-1	0
8996355	5022	0	0	-100	0	230	101300000	1000	0	0	-1	0
9008915	5014	0	0	-100	0	230	101300000	1000	0	0	-1	0
9021475	5009	0	0	-100	0	230	101300000	1000	0	0	-1	0
9034035	5015	0	0	-100	0	230	101300000	1000	0	0	-1	0
9046595	5015	0	0	-100	0	230	101300000	1000	0	0	-1	0
9059155	5019	0	0	-100	0	230	101300000	1000	0	0	-1	0
9071715	5014	0	0	-100	0	230	101300000	1000	0	0	-1	0
9084275	5011	0	0	-100	0	230	101300000	1000	0	0	-1	0
9096835	5014	0	0	-100	0	230	101300000	1000	0	0	-1	0
9109395	5012	0	0	-100	0	230	101300000	1000	0	0	-1	0
9121955	5011	2	0	-100	0	230	101300000	1000	0	0	-1	0
9134515	5027	0	0	-100	0	230	101300000	1000	0	0	-1	0
9147075	5015	0	0	-100	0	230	101300000	1000	0	0	-1	0
9159635	5011	0	0	-100	0	230	101300000	1000	0	0	-1	0
9172195	5015	2	0	-100	0	230	101300000	1000	0	0	-1	0
9184755	5007	2	0	-100	0	230	101300000	1000	0	0	-1	0
9197315	5020	0	0	-100	0	230	101300000	1000	0	0	-1	0
9209875	5016	0	0	-100	0	230	101300000	1000	0	0	-1	0
9222435	5014	0	0	-100	0	230	101300000	1000	0	0	-1	0
9234995	5015	0	0	-100	0	230	101300000	1000	0	0	-1	0
9247555	5010	3	0	-100	0	230	101300000	1000	0	0	-1	0
9260115	5012	0	0	-100	0	230	101300000	1000	0	0	-1	0
9272675	5019	0	0	-100	0	230	101300000	1000	0	0	-1	0
9285235	5013	0	0	-100	0	230	101300000	1000	0	0	-1	0
9297795	5013	0	0	-100	0	230	101300000	1000	0	0	-1	0
9310355	5012	4	0	-100	0	230	101300000	1000	0	0	-1	0
9322915	5012	0	0	-100	0	230	101300000	1000	0	0	-1	0
9335475	5019	0	0	-100	0	230	101300000	1000	0	0	-1	0
9348035	5011	0	0	-100	0	230	101300000	1000	0	0	-1	0
9360595	5008	0	0	-100	0	230	101300000	1000	0	0	-1	0
9373155	5016	0	0	-100	0	230	101300000	1000	0	0	-1	0
9385715	5007	0	0	-100	0	230	101300000	1000	0	0	-1	0
9398275	5010	2	0	-100	0	230	101300000	1000	0	0	-1	0
9410835	5017	0	0	-100	0	230	101300000	1000	0	0	-1	0
9423395	5016	0	0	-100	0	230	101300000	1000	0	0	-1	0
9498755	5011	0	0	-100	0	230	101300000	1000	0	0	-1	0
9511315	5012	2	0	-100	0	230	101300000	1000	0	0	-1	0
9523875	5020	0	0	-100	0	230	101300000	1000	0	0	-1	0
9536435	5017	0	0	-100	0	230	101300000	1000	0	0	-1	0
9548995	5009	0	0	-100	0	230	101300000	1000	0	0	-1	0
9561555	5011	0	0	-100	0	230	101300000	1000	0	0	-1	0
9574115	5018	0	0	-100	0	230	101300000	1000	0	0	-1	0
9586675	5014	0	0	-100	0	230	101300000	1000	0	0	-1	0
9599235	5020	0	0	-100	0	230	101300000	1000	0	0	-1	0
9611795	5015	0	0	-100	0	230	101300000	1000	0	0	-1	0
9624355	5012	2	0	-100	0	230	101300000	1000	0	0	-1	0
9636915	5015	0	0	-100	0	230	101300000	1000	0	0	-1	0
9674595	5015	0	0	-100	0	230	101300000	1000	0	0	-1	0
9687155	5017	0	0	-100	0	230	101300000	1000	0	0	-1	0
9699715	5011	0	0	-100	0	230	101300000	1000	0	0	-1	0
9712275	5021	0	0	-100	0	230	101300000	1000	0	0	-1	0
9724835	5005	0	0	-100	0	230	101300000	1000	0	0	-1	0
9737395	5016	3	0	-100	0	230	101300000	1000	0	0	-1	0
9749955	5017	0	0	-100	0	230	101300000	1000	0	0	-1	0
9762515	5014	0	0	-100	0	230	101300000	1000	0	0	-1	0
9775075	5019	0	0	-100	0	230	101300000	1000	0	0	-1	0
9787635	5007	0	0	-100	0	230	101300000	1000	0	0	-1	0
9800195	5010	0	0	-100	0	230	101300000	1000	0	0	-1	0
9812755	5010	2	0	-100	0	230	101300000	1000	0	0	-1	0
9825315	5009	1	0	-100	0	230	101300000	1000	0	0	-1	0
9837875	5023	0	0	-100	0	230	101300000	1000	0	0	-1	0
9850435	5018	0	0	-100	0	230	101300000	1000	0	0	-1	0
9862995	5013	0	0	-100	0	230	101300000	1000	0	0	-1	0
9875555	5017	0	0	-100	0	230	101300000	1000	0	0	-1	0
9888115	5011	0	0	-100	0	230	101300000	1000	0	0	-1	0
9900675	5010	0	0	-100	0	230	101300000	1000	0	0	-1	0
9913235	5015	4	0	-100	0	230	101300000	1000	0	0	-1	0
9925795	5008	2	0	-100	0	230	101300000	1000	0	0	-1	0
9938355	5011	0	0	-100	0	230	101300000	1000	0	0	-1	0
9950915	5010	1	0	-100	0	230	101300000	1000	0	0	-1	0
9963475	5014	0	0	-100	0	230	101300000	1000	0	0	-1	0
9976035	5013	0	0	-100	0	230	101300000	1000	0	0	-1	0
9988595	5012	0	0	-100	0	230	101300000	1000	0	0	-1	0
10001155	5011	0	0	-100	0	230	101300000	1000	0	0	-1	0
10013715	5020	0	0	-100	0	230	101300000	1000	0	0	-1	0
10026275	5015	0	0	-100	0	230	101300000	1000	0	0	-1	0
10038835	5017	0	0	-100	0	230	101300000	1000	0	0	-1	0
10051395	5017	0	0	-100	0	230	101300000	1000	0	0	-1	0
10063955	5013	0	0	-100	0	230	101300000	1000	0	0	-1	0
10076515	5015	0	0	-100	0	230	101300000	1000	0	0	-1	0
10089075	5016	0	0	-100	0	230	101300000	1000	0	0	-1	0
10101635	5011	0	0	-100	0	230	101300000	1000	0	0	-1	0
10114195	5017	4	0	-100	0	230	101300000	1000	0	0	-1	0
10126755	5009	0	0	-100	0	230	101300000	1000	0	0	-1	0
10139315	5016	0	0	-100	0	230	101300000	1000	0	0	-1	0
10151875	5020	0	0	-100	0	230	101300000	1000	0	0	-1	0
10164435	5015	0	0	-100	0	230	101300000	1000	0	0	-1	0
10176995	5017	0	0	-100	0	230	101300000	1000	0	0	-1	0
10189555	5016	0	0	-100	0	230	101300000	1000	0	0	-1	0
10202115	5014	0	0	-100	0	230	101300000	1000	0	0	-1	0
10214675	5013	0	0	-100	0	230	101300000	1000	0	0	-1	0
10227235	5008	0	0	-100	0	230	101300000	1000	0	0	-1	0
10239795	5012	3	0	-100	0	230	101300000	1000	0	0	-1	0
10252355	5012	1	0	-100	0	230	101300000	1000	0	0	-1	0
10264915	5014	0	0	-100	0	230	101300000	1000	0	0	-1	0
10277475	5015	0	0	-100	0	230	101300000	1000	0	0	-1	0
10290035	5018	0	0	-100	0	230	101300000	1000	0	0	-1	0
10302595	5015	0	0	-100	0	230	101300000	1000	0	0	-1	0
10315155	5011	0	0	-100	0	230	101300000	1000	0	0	-1	0
10327715	5011	0	0	-100	0	230	101300000	1000	0	0	-1	0
10340275	5011	2	0	-100	0	230	101300000	1000	0	0	-1	0
10352835	5012	1	0	-100	0	230	101300000	1000	0	0	-1	0
10365395	5010	0	0	-100	0	230	101300000	1000	0	0	-1	0
10377955	5018	0	0	-100	0	230	101300000	1000	0	0	-1	0
10390515	5014	0	0	-100	0	230	101300000	1000	0	0	-1	0
10403075	5015	0	0	-100	0	230	101300000	1000	0	0	-1	0
10415635	5018	0	0	-100	0	230	101300000	1000	0	0	-1	0
10428195	5014	0	0	-100	0	230	101300000	1000	0	0	-1	0
10440755	5016	0	0	-100	0	230	101300000	1000	0	0	-1	0
10453315	5015	0	0	-100	0	230	101300000	1000	0	0	-1	0
10465875	5007	0	0	-100	0	230	101300000	1000	0	0	-1	0
10478435	5014	0	0	-100	0	230	101300000	1000	0	0	-1	0
10490995	5008	0	0	-100	0	230	101300000	1000	0	0	-1	0
10503555	5009	0	0	-100	0	230	101300000	1000	0	0	-1	0
10516115	5012	0	0	-100	0	230	101300000	1000	0	0	-1	0
10528675	5014	0	0	-100	0	230	101300000	1000	0	0	-1	0
10541235	5014	0	0	-100	0	230	101300000	1000	0	0	-1	0
10553795	5010	3	0	-100	0	230	101300000	1000	0	0	-1	0
10566355	5007	1	0	-100	0	230	101300000	1000	0	0	-1	0
10578915	5015	0	0	-100	0	230	101300000	1000	0	0	-1	0
10591475	5017	0	0	-100	0	230	101300000	1000	0	0	-1	0
10604035	5016	0	0	-100	0	230	101300000	1000	0	0	-1	0
10616595	5009	0	0	-100	0	230	101300000	1000	0	0	-1	0
10629155	5011	0	0	-100	0	230	101300000	1000	0	0	-1	0
10641715	5010	1	0	-100	0	230	101300000	1000	0	0	-1	0
10654275	5018	0	0	-100	0	230	101300000	1000	0	0	-1	0
10666835	5013	0	0	-100	0	230	101300000	1000	0	0	-1	0
10679395	5016	0	0	-100	0	230	101300000	1000	0	0	-1	0
10691955	5019	0	0	-100	0	230	101300000	1000	0	0	-1	0
10704515	5009	0	0	-100	0	230	101300000	1000	0	0	-1	0
10717075	5014	0	0	-100	0	230	101300000	1000	0	0	-1	0
10729635	5008	0	0	-100	0	230	101300000	1000	0	0	-1	0
10742195	5012	4	0	-100	0	230	101300000	1000	0	0	-1	0
10754755	5015	0	0	-100	0	230	101300000	1000	0	0	-1	0
10767315	5015	0	0	-100	0	230	101300000	1000	0	0	-1	0
10779875	5015	0	0	-100	0	230	101300000	1000	0	0	-1	0
10792435	5015	0	0	-100	0	230	101300000	1000	0	0	-1	0
10804995	5012	0	0	-100	0	230	101300000	1000	0	0	-1	0
10817555	5016	0	0	-100	0	230	101300000	1000	0	0	-1	0
10830115	5010	0	0	-100	0	230	101300000	1000	0	0	-1	0
10842675	5014	0	0	-100	0	230	101300000	1000	0	0	-1	0
10855235	5021	0	0	-100	0	230	101300000	1000	0	0	-1	0
10867795	5012	0	0	-100	0	230	101300000	1000	0	0	-1	0
10880355	5014	0	0	-100	0	230	101300000	1000	0	0	-1	0
10892915	5015	1	0	-100	0	230	101300000	1000	0	0	-1	0
10905475	5006	0	0	-100	0	230	101300000	1000	0	0	-1	0
10918035	5018	0	0	-100	0	230	101300000	1000	0	0	-1	0
10930595	5015	0	0	-100	0	230	101300000	1000	0	0	-1	0
10943155	5007	0	0	-100	0	230	101300000	1000	0	0	-1	0
10955715	5015	2	0	-100	0	230	101300000	1000	0	0	-1	0
10968275	5010	0	0	-100	0	230	101300000	1000	0	0	-1	0
10980835	5017	0	0	-100	0	230	101300000	1000	0	0	-1	0
10993395	5015	0	0	-100	0	230	101300000	1000	0	0	-1	0
11005955	5010	3	0	-100	0	230	101300000	1000	0	0	-1	0
11018515	5012	0	0	-100	0	230	101300000	1000	0	0	-1	0
11031075	5018	0	0	-100	0	230	101300000	1000	0	0	-1	0
11043635	5016	0	0	-100	0	230	101300000	1000	0	0	-1	0
11056195	5016	0	0	-100	0	230	101300000	1000	0	0	-1	0
11068755	5010	0	0	-100	0	230	101300000	1000	0	0	-1	0
11081315	5010	0	0	-100	0	230	101300000	1000	0	0	-1	0
11093875	5012	1	0	-100	0	230	101300000	1000	0	0	-1	0
11106435	5007	1	0	-100	0	230	101300000	1000	0	0	-1	0
11118995	5014	0	0	-100	0	230	101300000	1000	0	0	-1	0
11131555	5011	0	0	-100	0	230	101300000	1000	0	0	-1	0
11144115	5012	1	0	-100	0	230	101300000	1000	0	0	-1	0
11156675	5017	0	0	-100	0	230	101300000	1000	0	0	-1	0
11169235	5011	2	0	-100	0	230	101300000	1000	0	0	-1	0
11181795	5007	2	0	-100	0	230	101300000	1000	0	0	-1	0
11194355	5011	0	0	-100	0	230	101300000	1000	0	0	-1	0
11206915	5006	0	0	-100	0	230	101300000	1000	0	0	-1	0
11219475	5014	0	0	-100	0	230	101300000	1000	0	0	-1	0
11232035	5014	0	0	-100	0	230	101300000	1000	0	0	-1	0
11244595	5014	0	0	-100	0	230	101300000	1000	0	0	-1	0
11257155	5019	0	0	-100	0	230	101300000	1000	0	0	-1	0
11269715	5017	0	0	-100	0	230	101300000	1000	0	0	-1	0
11282275	5016	0	0	-100	0	230	101300000	1000	0	0	-1	0
11294835	5011	0	0	-100	0	230	101300000	1000	0	0	-1	0
11307395	5008	3	0	-100	0	230	101300000	1000	0	0	-1	0
11319955	5012	0	0	-100	0	230	101300000	1000	0	0	-1	0
11332515	5016	0	0	-100	0	230	101300000	1000	0	0	-1	0
11345075	5016	0	0	-100	0	230	101300000	1000	0	0	-1	0
11357635	5017	0	0	-100	0	230	101300000	1000	0	0	-1	0
11370195	5010	0	0	-100	0	230	101300000	1000	0	0	-1	0
11382755	5009	1	0	-100	0	230	101300000	1000	0	0	-1	0
11395315	5022	0	0	-100	0	230	101300000	1000	0	0	-1	0
11407875	5015	0	0	-100	0	230	101300000	1000	0	0	-1	0
11420435	5011	0	0	-100	0	230	101300000	1000	0	0	-1	0
11432995	5016	0	0	-100	0	230	101300000	1000	0	0	-1	0
11445555	5005	1	0	-100	0	230	101300000	1000	0	0	-1	0
11458115	5017	0	0	-100	0	230	101300000	1000	0	0	-1	0
11470675	5021	0	0	-100	0	230	101300000	1000	0	0	-1	0
11483235	5017	0	0	-100	0	230	101300000	1000	0	0	-1	0
11495795	5016	0	0	-100	0	230	101300000	1000	0	0	-1	0
11508355	5007	0	0	-100	0	230	101300000	1000	0	0	-1	0
11520915	5011	2	0	-100	0	230	101300000	1000	0	0	-1	0
11533475	5015	0	0	-100	0	230	101300000	1000	0	0	-1	0
11546035	5015	0	0	-100	0	230	101300000	1000	0	0	-1	0
11558595	5023	0	0	-100	0	230	101300000	1000	0	0	-1	0
11571155	5015	0	0	-100	0	230	101300000	1000	0	0	-1	0
11583715	5007	0	0	-100	0	230	101300000	1000	0	0	-1	0
11596275	5018	4	0	-100	0	230	101300000	1000	0	0	-1	0
11608835	5009	0	0	-100	0	230	101300000	1000	0	0	-1	0
11621395	5016	0	0	-100	0	230	101300000	1000	0	0	-1	0
11633955	5018	0	0	-100	0	230	101300000	1000	0	0	-1	0
11646515	5008	0	0	-100	0	230	101300000	1000	0	0	-1	0
11659075	5015	0	0	-100	0	230	101300000	1000	0	0	-1	0
11671635	5011	0	0	-100	0	230	101300000	1000	0	0	-1	0
11684195	5018	0	0	-100	0	230	101300000	1000	0	0	-1	0
11696755	5013	0	0	-100	0	230	101300000	1000	0	0	-1	0
11709315	5011	3	0	-100	0	230	101300000	1000	0	0	-1	0
11721875	5011	1	0	-100	0	230	101300000	1000	0	0	-1	0
11734435	5021	0	0	-100	0	230	101300000	1000	0	0	-1	0
11746995	5015	0	0	-100	0	230	101300000	1000	0	0	-1	0
11759555	5011	0	0	-100	0	230	101300000	1000	0	0	-1	0
11772115	5015	1	0	-100	0	230	101300000	1000	0	0	-1	0
11784675	5015	0	0	-100	0	230	101300000	1000	0	0	-1	0
11797235	5015	0	0	-100	0	230	101300000	1000	0	0	-1	0
11809795	5010	3	0	-100	0	230	101300000	1000	0	0	-1	0
11822355	5013	0	0	-100	0	230	101300000	1000	0	0	-1	0
11834915	5009	0	0	-100	0	230	101300000	1000	0	0	-1	0
11847475	5010	0	0	-100	0	230	101300000	1000	0	0	-1	0
11860035	5017	0	0	-100	0	230	101300000	1000	0	0	-1	0
11872595	5015	0	0	-100	0	230	101300000	1000	0	0	-1	0
11885155	5006	0	0	-100	0	230	101300000	1000	0	0	-1	0
11897715	5011	1	0	-100	0	230	101300000	1000	0	0	-1	0
11910275	5020	0	0	-100	0	230	101300000	1000	0	0	-1	0
11922835	5015	0	0	-100	0	230	101300000	1000	0	0	-1	0
11935395	5012	0	0	-100	0	230	101300000	1000	0	0	-1	0
11947955	5011	4	0	-100	0	230	101300000	1000	0	0	-1	0
11960515	5008	1	0	-100	0	230	101300000	1000	0	0	-1	0
11973075	5021	0	0	-100	0	230	101300000	1000	0	0	-1	0
11985635	5012	0	0	-100	0	230	101300000	1000	0	0	-1	0
11998195	5012	0	0	-100	0	230	101300000	1000	0	0	-1	0
12010755	5017	2	0	-100	0	230	101300000	1000	0	0	-1	0
12023315	5014	0	0	-100	0	230	101300000	1000	0	0	-1	0
12035875	5021	0	0	-100	0	230	101300000	1000	0	0	-1	0
12048435	5006	0	0	-100	0	230	101300000	1000	0	0	-1	0
12060995	5012	0	0	-100	0	230	101300000	1000	0	0	-1	0
12073555	5027	0	0	-100	0	230	101300000	1000	0	0	-1	0
12086115	5011	0	0	-100	0	230	101300000	1000	0	0	-1	0
12098675	5011	0	0	-100	0	230	101300000	1000	0	0	-1	0
12111235	5010	2	0	-100	0	230	101300000	1000	0	0	-1	0
12123795	5013	0	0	-100	0	230	101300000	1000	0	0	-1	0
12136355	5016	0	0	-100	0	230	101300000	1000	0	0	-1	0
12148915	5008	3	0	-100	0	230	101300000	1000	0	0	-1	0
12161475	5012	0	0	-100	0	230	101300000	1000	0	0	-1	0
12174035	5019	0	0	-100	0	230	101300000	1000	0	0	-1	0
12186595	5011	0	0	-100	0	230	101300000	1000	0	0	-1	0
12199155	5011	0	0	-100	0	230	101300000	1000	0	0	-1	0
12211715	5014	0	0	-100	0	230	101300000	1000	0	0	-1	0
12224275	5009	0	0	-100	0	230	101300000	1000	0	0	-1	0
12236835	5012	2	0	-100	0	230	101300000	1000	0	0	-1	0
12249395	5017	0	0	-100	0	230	101300000	1000	0	0	-1	0
12261955	5010	0	0	-100	0	230	101300000	1000	0	0	-1	0
12274515	5014	0	0	-100	0	230	101300000	1000	0	0	-1	0
12287075	5015	0	0	-100	0	230	101300000	1000	0	0	-1	0
12299635	5011	0	0	-100	0	230	101300000	1000	0	0	-1	0
12312195	5020	0	0	-100	0	230	101300000	1000	0	0	-1	0
12324755	5012	0	0	-100	0	230	101300000	1000	0	0	-1	0
12337315	5015	3	0	-100	0	230	101300000	1000	0	0	-1	0
12349875	5012	0	0	-100	0	230	101300000	1000	0	0	-1	0
12387555	5010	1	0	-100	0	230	101300000	1000	0	0	-1	0
12400115	5017	0	0	-100	0	230	101300000	1000	0	0	-1	0
12412675	5014	0	0	-100	0	230	101300000	1000	0	0	-1	0
12425235	5006	2	0	-100	0	230	101300000	1000	0	0	-1	0
12437795	5018	0	0	-100	0	230	101300000	1000	0	0	-1	0
12450355	5014	0	0	-100	0	230	101300000	1000	0	0	-1	0
12462915	5011	3	0	-100	0	230	101300000	1000	0	0	-1	0
12475475	5021	0	0	-100	0	230	101300000	1000	0	0	-1	0
12488035	5012	0	0	-100	0	230	101300000	1000	0	0	-1	0
12500595	5010	0	0	-100	0	230	101300000	1000	0	0	-1	0
12513155	5012	0	0	-100	0	230	101300000	1000	0	0	-1	0
12525715	5016	0	0	-100	0	230	101300000	1000	0	0	-1	0
12613635	5016	0	0	-100	0	230	101300000	1000	0	0	-1	0
12626195	5007	2	0	-100	0	230	101300000	1000	0	0	-1	0
12638755	5017	0	0	-100	0	230	101300000	1000	0	0	-1	0
12651315	5015	0	0	-100	0	230	101300000	1000	0	0	-1	0
12663875	5011	3	0	-100	0	230	101300000	1000	0	0	-1	0
12676435	5023	0	0	-100	0	230	101300000	1000	0	0	-1	0
12688995	5011	0	0	-100	0	230	101300000	1000	0	0	-1	0
12701555	5012	0	0	-100	0	230	101300000	1000	0	0	-1	0
12714115	5010	2	0	-100	0	230	101300000	1000	0	0	-1	0
12726675	5017	0	0	-100	0	230	101300000	1000	0	0	-1	0
12739235	5016	0	0	-100	0	230	101300000	1000	0	0	-1	0
12751795	5011	0	0	-100	0	230	101300000	1000	0	0	-1	0
12764355	5010	4	0	-100	0	230	101300000	1000	0	0	-1	0
12776915	5014	0	0	-100	0	230	101300000	1000	0	0	-1	0
12789475	5016	0	0	-100	0	230	101300000	1000	0	0	-1	0
12802035	5016	0	0	-100	0	230	101300000	1000	0	0	-1	0
12814595	5015	3	0	-100	0	230	101300000	1000	0	0	-1	0
12827155	5012	0	0	-100	0	230	101300000	1000	0	0	-1	0
12839715	5019	0	0	-100	0	230	101300000	1000	0	0	-1	0
12852275	5011	0	0	-100	0	230	101300000	1000	0	0	-1	0
12864835	5008	2	0	-100	0	230	101300000	1000	0	0	-1	0
12877395	5022	0	0	-100	0	230	101300000	1000	0	0	-1	0
12889955	5012	0	0	-100	0	230	101300000	1000	0	0	-1	0
12902515	5012	3	0	-100	0	230	101300000	1000	0	0	-1	0
12915075	5010	0	0	-100	0	230	101300000	1000	0	0	-1	0
12927635	5015	0	0	-100	0	230	101300000	1000	0	0	-1	0
12940195	5011	0	0	-100	0	230	101300000	1000	0	0	-1	0
12952755	5011	1	0	-100	0	230	101300000	1000	0	0	-1	0
12965315	5008	0	0	-100	0	230	101300000	1000	0	0	-1	0
12977875	5012	0	0	-100	0	230	101300000	1000	0	0	-1	0
12990435	5010	3	0	-100	0	230	101300000	1000	0	0	-1	0
13002995	5009	0	0	-100	0	230	101300000	1000	0	0	-1	0
13015555	5017	0	0	-100	0	230	101300000	1000	0	0	-1	0
13028115	5009	0	0	-100	0	230	101300000	1000	0	0	-1	0
13040675	5008	0	0	-100	0	230	101300000	1000	0	0	-1	0
13053235	5012	0	0	-100	0	230	101300000	1000	0	0	-1	0
13065795	5016	0	0	-100	0	230	101300000	1000	0	0	-1	0
13078355	5011	0	0	-100	0	230	101300000	1000	0	0	-1	0
13090915	5010	0	0	-100	0	230	101300000	1000	0	0	-1	0
13103475	5014	0	0	-100	0	230	101300000	1000	0	0	-1	0
13116035	5008	0	0	-100	0	230	101300000	1000	0	0	-1	0
13128595	5008	2	0	-100	0	230	101300000	1000	0	0	-1	0
13141155	5018	0	0	-100	0	230	101300000	1000	0	0	-1	0
13153715	5017	0	0	-100	0	230	101300000	1000	0	0	-1	0
13166275	5006	0	0	-100	0	230	101300000	1000	0	0	-1	0
13178835	5012	0	0	-100	0	230	101300000	1000	0	0	-1	0
13191395	5017	0	0	-100	0	230	101300000	1000	0	0	-1	0
13203955	5011	0	0	-100	0	230	101300000	1000	0	0	-1	0
13216515	5016	2	0	-100	0	230	101300000	1000	0	0	-1	0
13229075	5010	0	0	-100	0	230	101300000	1000	0	0	-1	0
13241635	5017	0	0	-100	0	230	101300000	1000	0	0	-1	0
13254195	5015	0	0	-100	0	230	101300000	1000	0	0	-1	0
13266755	5007	2	0	-100	0	230	101300000	1000	0	0	-1	0
13279315	5016	0	0	-100	0	230	101300000	1000	0	0	-1	0
13291875	5008	0	0	-100	0	230	101300000	1000	0	0	-1	0
13304435	5012	0	0	-100	0	230	101300000	1000	0	0	-1	0
13316995	5016	0	0	-100	0	230	101300000	1000	0	0	-1	0
13329555	5012	3	0	-100	0	230	101300000	1000	0	0	-1	0
13342115	5011	0	0	-100	0	230	101300000	1000	0	0	-1	0
13354675	5017	0	0	-100	0	230	101300000	1000	0	0	-1	0
13367235	5007	0	0	-100	0	230	101300000	1000	0	0	-1	0
13379795	5011	0	0	-100	0	230	101300000	1000	0	0	-1	0
13392355	5019	0	0	-100	0	230	101300000	1000	0	0	-1	0
13404915	5016	0	0	-100	0	230	101300000	1000	0	0	-1	0
13417475	5014	1	0	-100	0	230	101300000	1000	0	0	-1	0
13430035	5022	0	0	-100	0	230	101300000	1000	0	0	-1	0
13442595	5010	0	0	-100	0	230	101300000	1000	0	0	-1	0
13455155	5012	0	0	-100	0	230	101300000	1000	0	0	-1	0
13467715	5015	0	0	-100	0	230	101300000	1000	0	0	-1	0
13480275	5011	3	0	-100	0	230	101300000	1000	0	0	-1	0
13492835	5021	0	0	-100	0	230	101300000	1000	0	0	-1	0
13505395	5011	0	0	-100	0	230	101300000	1000	0	0	-1	0
13517955	5015	5	0	-100	0	230	101300000	1000	0	0	-1	0
13530515	5016	0	0	-100	0	230	101300000	1000	0	0	-1	0
13543075	5012	0	0	-100	0	230	101300000	1000	0	0	-1	0
13555635	5011	0	0	-100	0	230	101300000	1000	0	0	-1	0
13568195	5013	0	0	-100	0	230	101300000	1000	0	0	-1	0
13580755	5008	3	0	-100	0	230	101300000	1000	0	0	-1	0
13593315	5023	0	0	-100	0	230	101300000	1000	0	0	-1	0
13605875	5006	0	0	-100	0	230	101300000	1000	0	0	-1	0
13618435	5010	0	0	-100	0	230	101300000	1000	0	0	-1	0
13630995	5016	0	0	-100	0	230	101300000	1000	0	0	-1	0
13643555	5008	0	0	-100	0	230	101300000	1000	0	0	-1	0
13656115	5014	0	0	-100	0	230	101300000	1000	0	0	-1	0
13668675	5013	0	0	-100	0	230	101300000	1000	0	0	-1	0
13681235	5008	0	0	-100	0	230	101300000	1000	0	0	-1	0
13693795	5011	0	0	-100	0	230	101300000	1000	0	0	-1	0
13706355	5016	0	0	-100	0	230	101300000	1000	0	0	-1	0
13718915	5009	0	0	-100	0	230	101300000	1000	0	0	-1	0
13731475	5011	0	0	-100	0	230	101300000	1000	0	0	-1	0
13744035	5012	0	0	-100	0	230	101300000	1000	0	0	-1	0
13756595	5014	0	0	-100	0	230	101300000	1000	0	0	-1	0
13769155	5010	1	0	-100	0	230	101300000	1000	0	0	-1	0
13781715	5021	0	0	-100	0	230	101300000	1000	0	0	-1	0
13794275	5016	0	0	-100	0	230	101300000	1000	0	0	-1	0
13806835	5007	4	0	-100	0	230	101300000	1000	0	0	-1	0
13819395	5015	0	0	-100	0	230	101300000	1000	0	0	-1	0
13831955	5018	0	0	-100	0	230	101300000	1000	0	0	-1	0
13844515	5007	0	0	-100	0	230	101300000	1000	0	0	-1	0
13857075	5012	0	0	-100	0	230	101300000	1000	0	0	-1	0
13869635	5012	3	0	-100	0	230	101300000	1000	0	0	-1	0
13882195	5012	2	0	-100	0	230	101300000	1000	0	0	-1	0
13894755	5011	1	0	-100	0	230	101300000	1000	0	0	-1	0
13907315	5006	1	0	-100	0	230	101300000	1000	0	0	-1	0
13919875	5012	0	0	-100	0	230	101300000	1000	0	0	-1	0
13932435	5016	0	0	-100	0	230	101300000	1000	0	0	-1	0
13944995	5016	2	0	-100	0	230	101300000	1000	0	0	-1	0
13957555	5016	0	0	-100	0	230	101300000	1000	0	0	-1	0
13970115	5015	0	0	-100	0	230	101300000	1000	0	0	-1	0
13982675	5013	0	0	-100	0	230	101300000	1000	0	0	-1	0
13995235	5018	0	0	-100	0	230	101300000	1000	0	0	-1	0
14007795	5009	0	0	-100	0	230	101300000	1000	0	0	-1	0
14020355	5008	0	0	-100	0	230	101300000	1000	0	0	-1	0
14032915	5014	4	0	-100	0	230	101300000	1000	0	0	-1	0
14045475	5008	4	0	-100	0	230	101300000	1000	0	0	-1	0
14058035	5011	0	0	-100	0	230	101300000	1000	0	0	-1	0
14070595	5010	0	0	-100	0	230	101300000	1000	0	0	-1	0
14083155	5020	0	0	-100	0	230	101300000	1000	0	0	-1	0
14095715	5019	0	0	-100	0	230	101300000	1000	0	0	-1	0
14108275	5011	0	0	-100	0	230	101300000	1000	0	0	-1	0
14120835	5011	2	0	-100	0	230	101300000	1000	0	0	-1	0
14133395	5021	0	0	-100	0	230	101300000	1000	0	0	-1	0
14145955	5011	0	0	-100	0	230	101300000	1000	0	0	-1	0
14158515	5016	0	0	-100	0	230	101300000	1000	0	0	-1	0
14171075	5008	1	0	-100	0	230	101300000	1000	0	0	-1	0
14183635	5015	0	0	-100	0	230	101300000	1000	0	0	-1	0
14196195	5009	0	0	-100	0	230	101300000	1000	0	0	-1	0
14208755	5010	0	0	-100	0	230	101300000	1000	0	0	-1	0
14221315	5014	0	0	-100	0	230	101300000	1000	0	0	-1	0
14233875	5016	0	0	-100	0	230	101300000	1000	0	0	-1	0
14246435	5014	0	0	-100	0	230	101300000	1000	0	0	-1	0
14258995	5015	0	0	-100	0	230	101300000	1000	0	0	-1	0
14271555	5015	0	0	-100	0	230	101300000	1000	0	0	-1	0
14284115	5011	0	0	-100	0	230	101300000	1000	0	0	-1	0
14296675	5022	0	0	-100	0	230	101300000	1000	0	0	-1	0
14309235	5012	0	0	-100	0	230	101300000	1000	0	0	-1	0
14321795	5009	1	0	-100	0	230	101300000	1000	0	0	-1	0
14334355	5017	0	0	-100	0	230	101300000	1000	0	0	-1	0
14346915	5010	0	0	-100	0	230	101300000	1000	0	0	-1	0
14359475	5012	0	0	-100	0	230	101300000	1000	0	0	-1	0
14372035	5013	0	0	-100	0	230	101300000	1000	0	0	-1	0
14384595	5010	3	0	-100	0	230	101300000	1000	0	0	-1	0
14397155	5017	0	0	-100	0	230	101300000	1000	0	0	-1	0
14409715	5011	0	0	-100	0	230	101300000	1000	0	0	-1	0
14422275	5012	2	0	-100	0	230	101300000	1000	0	0	-1	0
14434835	5019	0	0	-100	0	230	101300000	1000	0	0	-1	0
14447395	5007	0	0	-100	0	230	101300000	1000	0	0	-1	0
14459955	5010	0	0	-100	0	230	101300000	1000	0	0	-1	0
14472515	5018	0	0	-100	0	230	101300000	1000	0	0	-1	0
14485075	5006	0	0	-100	0	230	101300000	1000	0	0	-1	0
14497635	5014	3	0	-100	0	230	101300000	1000	0	0	-1	0
14510195	5017	0	0	-100	0	230	101300000	1000	0	0	-1	0
14522755	5007	0	0	-100	0	230	101300000	1000	0	0	-1	0
14535315	5012	0	0	-100	0	230	101300000	1000	0	0	-1	0
14547875	5012	0	0	-100	0	230	101300000	1000	0	0	-1	0
14560435	5014	2	0	-100	0	230	101300000	1000	0	0	-1	0
14572995	5017	2	0	-100	0	230	101300000	1000	0	0	-1	0
14585555	5011	0	0	-100	0	230	101300000	1000	0	0	-1	0
14598115	5012	3	0	-100	0	230	101300000	1000	0	0	-1	0
14610675	5017	0	0	-100	0	230	101300000	1000	0	0	-1	0
14623235	5011	0	0	-100	0	230	101300000	1000	0	0	-1	0
14635795	5011	3	0	-100	0	230	101300000	1000	0	0	-1	0
14648355	5017	0	0	-100	0	230	101300000	1000	0	0	-1	0
14660915	5013	0	0	-100	0	230	101300000	1000	0	0	-1	0
14673475	5008	0	0	-100	0	230	101300000	1000	0	0	-1	0
14686035	5007	3	0	-100	0	230	101300000	1000	0	0	-1	0
14698595	5021	0	0	-100	0	230	101300000	1000	0	0	-1	0
14711155	5015	0	0	-100	0	230	101300000	1000	0	0	-1	0
14723715	5011	0	0	-100	0	230	101300000	1000	0	0	-1	0
14736275	5011	0	0	-100	0	230	101300000	1000	0	0	-1	0
14748835	5013	0	0	-100	0	230	101300000	1000	0	0	-1	0
14761395	5009	0	0	-100	0	230	101300000	1000	0	0	-1	0
14773955	5013	0	0	-100	0	230	101300000	1000	0	0	-1	0
14786515	5006	0	0	-100	0	230	101300000	1000	0	0	-1	0
14799075	5014	0	0	-100	0	230	101300000	1000	0	0	-1	0
14811635	5015	0	0	-100	0	230	101300000	1000	0	0	-1	0
14824195	5010	2	0	-100	0	230	101300000	1000	0	0	-1	0
14836755	5019	0	0	-100	0	230	101300000	1000	0	0	-1	0
14849315	5011	0	0	-100	0	230	101300000	1000	0	0	-1	0
14861875	5015	1	0	-100	0	230	101300000	1000	0	0	-1	0
14874435	5018	0	0	-100	0	230	101300000	1000	0	0	-1	0
14886995	5015	0	0	-100	0	230	101300000	1000	0	0	-1	0
14899555	5010	0	0	-100	0	230	101300000	1000	0	0	-1	0
14912115	5014	2	0	-100	0	230	101300000	1000	0	0	-1	0
14924675	5010	1	0	-100	0	230	101300000	1000	0	0	-1	0
14937235	5019	0	0	-100	0	230	101300000	1000	0	0	-1	0
14949795	5014	0	0	-100	0	230	101300000	1000	0	0	-1	0
14962355	5014	3	0	-100	0	230	101300000	1000	0	0	-1	0
14974915	5018	0	0	-100	0	230	101300000	1000	0	0	-1	0
14987475	5011	0	0	-100	0	230	101300000	1000	0	0	-1	0
15000035	5011	2	0	-100	0	230	101300000	1000	0	0	-1	0
15012595	5017	0	0	-100	0	230	101300000	1000	0	0	-1	0
15025155	5010	0	0	-100	0	230	101300000	1000	0	0	-1	0
15037715	5018	0	0	-100	0	230	101300000	1000	0	0	-1	0
15050275	5014	0	0	-100	0	230	101300000	1000	0	0	-1	0
15062835	5007	0	0	-100	0	230	101300000	1000	0	0	-1	0
15075395	5021	0	0	-100	0	230	101300000	1000	0	0	-1	0
15087955	5011	0	0	-100	0	230	101300000	1000	0	0	-1	0
15100515	5010	2	0	-100	0	230	101300000	1000	0	0	-1	0
15113075	5022	0	0	-100	0	230	101300000	1000	0	0	-1	0
15125635	5012	0	0	-100	0	230	101300000	1000	0	0	-1	0
15138195	5012	3	0	-100	0	230	101300000	1000	0	0	-1	0
15150755	5017	0	0	-100	0	230	101300000	1000	0	0	-1	0
15163315	5015	0	0	-100	0	230	101300000	1000	0	0	-1	0
15175875	5020	0	0	-100	0	230	101300000	1000	0	0	-1	0
15188435	5007	1	0	-100	0	230	101300000	1000	0	0	-1	0
15200995	5018	4	0	-100	0	230	101300000	1000	0	0	-1	0
15213555	5019	0	0	-100	0	230	101300000	1000	0	0	-1	0
15226115	5012	0	0	-100	0	230	101300000	1000	0	0	-1	0
15238675	5007	0	0	-100	0	230	101300000	1000	0	0	-1	0
15251235	5011	0	0	-100	0	230	101300000	1000	0	0	-1	0
15263795	5009	0	0	-100	0	230	101300000	1000	0	0	-1	0
15276355	5022	0	0	-100	0	230	101300000	1000	0	0	-1	0
15288915	5012	0	0	-100	0	230	101300000	1000	0	0	-1	0
15301475	5011	0	0	-100	0	230	101300000	1000	0	0	-1	0
15314035	5014	0	0	-100	0	230	101300000	1000	0	0	-1	0
15326595	5017	0	0	-100	0	230	101300000	1000	0	0	-1	0
15339155	5016	0	0	-100	0	230	101300000	1000	0	0	-1	0
15351715	5012	0	0	-100	0	230	101300000	1000	0	0	-1	0
15364275	5009	2	0	-100	0	230	101300000	1000	0	0	-1	0
15376835	5017	0	0	-100	0	230	101300000	1000	0	0	-1	0
15389395	5018	0	0	-100	0	230	101300000	1000	0	0	-1	0
15401955	5011	0	0	-100	0	230	101300000	1000	0	0	-1	0
15414515	5012	3	0	-100	0	230	101300000	1000	0	0	-1	0
15427075	5016	0	0	-100	0	230	101300000	1000	0	0	-1	0
15439635	5012	0	0	-100	0	230	101300000	1000	0	0	-1	0
15452195	5014	0	0	-100	0	230	101300000	1000	0	0	-1	0
15464755	5016	0	0	-100	0	230	101300000	1000	0	0	-1	0
15477315	5016	0	0	-100	0	230	101300000	1000	0	0	-1	0
15489875	5012	1	0	-100	0	230	101300000	1000	0	0	-1	0
15502435	5015	0	0	-100	0	230	101300000	1000	0	0	-1	0
15514995	5018	1	0	-100	0	230	101300000	1000	0	0	-1	0
15527555	5010	0	0	-100	0	230	101300000	1000	0	0	-1	0
15540115	5016	0	0	-100	0	230	101300000	1000	0	0	-1	0
15552675	5012	0	0	-100	0	230	101300000	1000	0	0	-1	0
15565235	5017	0	0	-100	0	230	101300000	1000	0	0	-1	0
15577795	5013	0	0	-100	0	230	101300000	1000	0	0	-1	0
15590355	5012	0	0	-100	0	230	101300000	1000	0	0	-1	0
15602915	5007	3	0	-100	0	230	101300000	1000	0	0	-1	0
15615475	5016	0	0	-100	0	230	101300000	1000	0	0	-1	0
15628035	5012	0	0	-100	0	230	101300000	1000	0	0	-1	0
15640595	5015	4	0	-100	0	230	101300000	1000	0	0	-1	0
15653155	5014	0	0	-100	0	230	101300000	1000	0	0	-1	0
15665715	5017	0	0	-100	0	230	101300000	1000	0	0	-1	0
15678275	5016	0	0	-100	0	230	101300000	1000	0	0	-1	0
15690835	5014	3	0	-100	0	230	101300000	1000	0	0	-1	0
15703395	5010	1	0	-100	0	230	101300000	1000	0	0	-1	0
15715955	5018	0	0	-100	0	230	101300000	1000	0	0	-1	0
15728515	5011	0	0	-100	0	230	101300000	1000	0	0	-1	0
15741075	5011	0	0	-100	0	230	101300000	1000	0	0	-1	0
15753635	5012	4	0	-100	0	230	101300000	1000	0	0	-1	0
15766195	5007	0	0	-100	0	230	101300000	1000	0	0	-1	0
15778755	5019	0	0	-100	0	230	101300000	1000	0	0	-1	0
15791315	5018	0	0	-100	0	230	101300000	1000	0	0	-1	0
15803875	5010	0	0	-100	0	230	101300000	1000	0	0	-1	0
15816435	5012	2	0	-100	0	230	101300000	1000	0	0	-1	0
15828995	5012	0	0	-100	0	230	101300000	1000	0	0	-1	0
15841555	5016	0	0	-100	0	230	101300000	1000	0	0	-1	0
15854115	5010	0	0	-100	0	230	101300000	1000	0	0	-1	0
15866675	5006	0	0	-100	0	230	101300000	1000	0	0	-1	0
15879235	5019	0	0	-100	0	230	101300000	1000	0	0	-1	0
15891795	5017	0	0	-100	0	230	101300000	1000	0	0	-1	0
15904355	5011	2	0	-100	0	230	101300000	1000	0	0	-1	0
15916915	5021	0	0	-100	0	230	101300000	1000	0	0	-1	0
15929475	5016	0	0	-100	0	230	101300000	1000	0	0	-1	0
15942035	5011	0	0	-100	0	230	101300000	1000	0	0	-1	0
15954595	5015	0	0	-100	0	230	101300000	1000	0	0	-1	0
15967155	5015	0	0	-100	0	230	101300000	1000	0	0	-1	0
15979715	5013	0	0	-100	0	230	101300000	1000	0	0	-1	0
15992275	5018	0	0	-100	0	230	101300000	1000	0	0	-1	0
16004835	5017	0	0	-100	0	230	101300000	1000	0	0	-1	0
16017395	5017	3	0	-100	0	230	101300000	1000	0	0	-1	0
16029955	5011	0	0	-100	0	230	101300000	1000	0	0	-1	0
16042515	5014	0	0	-100	0	230	101300000	1000	0	0	-1	0
16055075	5008	0	0	-100	0	230	101300000	1000	0	0	-1	0
16067635	5011	0	0	-100	0	230	101300000	1000	0	0	-1	0
16080195	5021	0	0	-100	0	230	101300000	1000	0	0	-1	0
16092755	5012	0	0	-100	0	230	101300000	1000	0	0	-1	0
16105315	5009	2	0	-100	0	230	101300000	1000	0	0	-1	0
16117875	5023	0	0	-100	0	230	101300000	1000	0	0	-1	0
16130435	5015	0	0	-100	0	230	101300000	1000	0	0	-1	0
16142995	5008	0	0	-100	0	230	101300000	1000	0	0	-1	0
16155555	5016	2	0	-100	0	230	101300000	1000	0	0	-1	0
16168115	5014	0	0	-100	0	230	101300000	1000	0	0	-1	0
16180675	5013	0	0	-100	0	230	101300000	1000	0	0	-1	0
16193235	5010	0	0	-100	0	230	101300000	1000	0	0	-1	0
16205795	5012	1	0	-100	0	230	101300000	1000	0	0	-1	0
16218355	5020	0	0	-100	0	230	101300000	1000	0	0	-1	0
16230915	5018	0	0	-100	0	230	101300000	1000	0	0	-1	0
16243475	5012	0	0	-100	0	230	101300000	1000	0	0	-1	0
16256035	5013	0	0	-100	0	230	101300000	1000	0	0	-1	0
16268595	5010	1	0	-100	0	230	101300000	1000	0	0	-1	0
16281155	5012	0	0	-100	0	230	101300000	1000	0	0	-1	0
16293715	5020	0	0	-100	0	230	101300000	1000	0	0	-1	0
16306275	5015	0	0	-100	0	230	101300000	1000	0	0	-1	0
16318835	5017	0	0	-100	0	230	101300000	1000	0	0	-1	0
16331395	5010	0	0	-100	0	230	101300000	1000	0	0	-1	0
16343955	5014	0	0	-100	0	230	101300000	1000	0	0	-1	0
16356515	5017	2	0	-100	0	230	101300000	1000	0	0	-1	0
16369075	5009	0	0	-100	0	230	101300000	1000	0	0	-1	0
16381635	5016	0	0	-100	0	230	101300000	1000	0	0	-1	0
16394195	5016	0	0	-100	0	230	101300000	1000	0	0	-1	0
16406755	5007	0	0	-100	0	230	101300000	1000	0	0	-1	0
16419315	5008	2	0	-100	0	230	101300000	1000	0	0	-1	0
16431875	5022	0	0	-100	0	230	101300000	1000	0	0	-1	0
16444435	5012	0	0	-100	0	230	101300000	1000	0	0	-1	0
16456995	5014	0	0	-100	0	230	101300000	1000	0	0	-1	0
16469555	5012	0	0	-100	0	230	101300000	1000	0	0	-1	0
16482115	5009	0	0	-100	0	230	101300000	1000	0	0	-1	0
16494675	5014	0	0	-100	0	230	101300000	1000	0	0	-1	0
16507235	5010	2	0	-100	0	230	101300000	1000	0	0	-1	0
16519795	5018	0	0	-100	0	230	101300000	1000	0	0	-1	0
16532355	5012	4	0	-100	0	230	101300000	1000	0	0	-1	0
16544915	5015	0	0	-100	0	230	101300000	1000	0	0	-1	0
16557475	5010	0	0	-100	0	230	101300000	1000	0	0	-1	0
16570035	5011	0	0	-100	0	230	101300000	1000	0	0	-1	0
16582595	5015	0	0	-100	0	230	101300000	1000	0	0	-1	0
16595155	5016	1	0	-100	0	230	101300000	1000	0	0	-1	0
16607715	5017	0	0	-100	0	230	101300000	1000	0	0	-1	0
16620275	5010	0	0	-100	0	230	101300000	1000	0	0	-1	0
16632835	5011	2	0	-100	0	230	101300000	1000	0	0	-1	0
16645395	5019	0	0	-100	0	230	101300000	1000	0	0	-1	0
16657955	5015	0	0	-100	0	230	101300000	1000	0	0	-1	0
16670515	5012	1	0	-100	0	230	101300000	1000	0	0	-1	0
16683075	5017	0	0	-100	0	230	101300000	1000	0	0	-1	0
16695635	5011	0	0	-100	0	230	101300000	1000	0	0	-1	0
16708195	5011	0	0	-100	0	230	101300000	1000	0	0	-1	0
16720755	5015	0	0	-100	0	230	101300000	1000	0	0	-1	0
16733315	5012	3	0	-100	0	230	101300000	1000	0	0	-1	0
16745875	5017	0	0	-100	0	230	101300000	1000	0	0	-1	0
16758435	5018	0	0	-100	0	230	101300000	1000	0	0	-1	0
16770995	5012	0	0	-100	0	230	101300000	1000	0	0	-1	0
16783555	5018	0	0	-100	0	230	101300000	1000	0	0	-1	0
16796115	5015	0	0	-100	0	230	101300000	1000	0	0	-1	0
16808675	5010	1	0	-100	0	230	101300000	1000	0	0	-1	0
16821235	5019	0	0	-100	0	230	101300000	1000	0	0	-1	0
16833795	5014	4	0	-100	0	230	101300000	1000	0	0	-1	0
16846355	5017	0	0	-100	0	230	101300000	1000	0	0	-1	0
16858915	5014	0	0	-100	0	230	101300000	1000	0	0	-1	0
16871475	5018	0	0	-100	0	230	101300000	1000	0	0	-1	0
16884035	5010	1	0	-100	0	230	101300000	1000	0	0	-1	0
16896595	5021	0	0	-100	0	230	101300000	1000	0	0	-1	0
16909155	5009	0	0	-100	0	230	101300000	1000	0	0	-1	0
16921715	5012	0	0	-100	0	230	101300000	1000	0	0	-1	0
16934275	5016	0	0	-100	0	230	101300000	1000	0	0	-1	0
16946835	5006	2	0	-100	0	230	101300000	1000	0	0	-1	0
16959395	5018	0	0	-100	0	230	101300000	1000	0	0	-1	0
16971955	5014	1	0	-100	0	230	101300000	1000	0	0	-1	0
16984515	5010	0	0	-100	0	230	101300000	1000	0	0	-1	0
16997075	5019	0	0	-100	0	230	101300000	1000	0	0	-1	0
17009635	5010	3	0	-100	0	230	101300000	1000	0	0	-1	0
17022195	5016	0	0	-100	0	230	101300000	1000	0	0	-1	0
17034755	5012	0	0	-100	0	230	101300000	1000	0	0	-1	0
17047315	5011	1	0	-100	0	230	101300000	1000	0	0	-1	0
17059875	5011	0	0	-100	0	230	101300000	1000	0	0	-1	0
17072435	5017	0	0	-100	0	230	101300000	1000	0	0	-1	0
17084995	5011	0	0	-100	0	230	101300000	1000	0	0	-1	0
17097555	5016	3	0	-100	0	230	101300000	1000	0	0	-1	0
17110115	5010	0	0	-100	0	230	101300000	1000	0	0	-1	0
17122675	5017	0	0	-100	0	230	101300000	1000	0	0	-1	0
17135235	5018	0	0	-100	0	230	101300000	1000	0	0	-1	0
17147795	5010	0	0	-100	0	230	101300000	1000	0	0	-1	0
17160355	5012	3	0	-100	0	230	101300000	1000	0	0	-1	0
17172915	5012	0	0	-100	0	230	101300000	1000	0	0	-1	0
17185475	5014	0	0	-100	0	230	101300000	1000	0	0	-1	0
17198035	5017	0	0	-100	0	230	101300000	1000	0	0	-1	0
17210595	5014	0	0	-100	0	230	101300000	1000	0	0	-1	0
17223155	5009	1	0	-100	0	230	101300000	1000	0	0	-1	0
17235715	5023	0	0	-100	0	230	101300000	1000	0	0	-1	0
17248275	5014	0	0	-100	0	230	101300000	1000	0	0	-1	0
17260835	5014	0	0	-100	0	230	101300000	1000	0	0	-1	0
17273395	5012	1	0	-100	0	230	101300000	1000	0	0	-1	0
17285955	5016	0	0	-100	0	230	101300000	1000	0	0	-1	0
17298515	5019	0	0	-100	0	230	101300000	1000	0	0	-1	0
17311075	5008	0	0	-100	0	230	101300000	1000	0	0	-1	0
17323635	5011	2	0	-100	0	230	101300000	1000	0	0	-1	0
17336195	5019	0	0	-100	0	230	101300000	1000	0	0	-1	0
17348755	5011	0	0	-100	0	230	101300000	1000	0	0	-1	0
17361315	5016	1	0	-100	0	230	101300000	1000	0	0	-1	0
17373875	5010	3	0	-100	0	230	101300000	1000	0	0	-1	0
17386435	5012	0	0	-100	0	230	101300000	1000	0	0	-1	0
17398995	5018	2	0	-100	0	230	101300000	1000	0	0	-1	0
17411555	5012	0	0	-100	0	230	101300000	1000	0	0	-1	0
17424115	5010	3	0	-100	0	230	101300000	1000	0	0	-1	0
17436675	5015	0	0	-100	0	230	101300000	1000	0	0	-1	0
17449235	5016	0	0	-100	0	230	101300000	1000	0	0	-1	0
17461795	5010	0	0	-100	0	230	101300000	1000	0	0	-1	0
17474355	5012	1	0	-100	0	230	101300000	1000	0	0	-1	0
17486915	5018	0	0	-100	0	230	101300000	1000	0	0	-1	0
17499475	5016	0	0	-100	0	230	101300000	1000	0	0	-1	0
17512035	5010	4	0	-100	0	230	101300000	1000	0	0	-1	0
17524595	5016	0	0	-100	0	230	101300000	1000	0	0	-1	0
17537155	5016	0	0	-100	0	230	101300000	1000	0	0	-1	0
17549715	5012	1	0	-100	0	230	101300000	1000	0	0	-1	0
17562275	5017	0	0	-100	0	230	101300000	1000	0	0	-1	0
17574835	5013	0	0	-100	0	230	101300000	1000	0	0	-1	0
17587395	5010	2	0	-100	0	230	101300000	1000	0	0	-1	0
17599955	5017	0	0	-100	0	230	101300000	1000	0	0	-1	0
17612515	5013	0	0	-100	0	230	101300000	1000	0	0	-1	0
17625075	5012	2	0	-100	0	230	101300000	1000	0	0	-1	0
17637635	5015	0	0	-100	0	230	101300000	1000	0	0	-1	0
17650195	5017	0	0	-100	0	230	101300000	1000	0	0	-1	0
17662755	5011	0	0	-100	0	230	101300000	1000	0	0	-1	0
17675315	5012	0	0	-100	0	230	101300000	1000	0	0	-1	0
17687875	5009	2	0	-100	0	230	101300000	1000	0	0	-1	0
17700435	5011	0	0	-100	0	230	101300000	1000	0	0	-1	0
17712995	5018	2	0	-100	0	230	101300000	1000	0	0	-1	0
17725555	5008	0	0	-100	0	230	101300000	1000	0	0	-1	0
17738115	5012	4	0	-100	0	230	101300000	1000	0	0	-1	0
17750675	5014	0	0	-100	0	230	101300000	1000	0	0	-1	0
17763235	5016	0	0	-100	0	230	101300000	1000	0	0	-1	0
17775795	5017	0	0	-100	0	230	101300000	1000	0	0	-1	0
17788355	5010	0	0	-100	0	230	101300000	1000	0	0	-1	0
17800915	5012	1	0	-100	0	230	101300000	1000	0	0	-1	0
17813475	5018	0	0	-100	0	230	101300000	1000	0	0	-1	0
17826035	5012	0	0	-100	0	230	101300000	1000	0	0	-1	0
17838595	5014	4	0	-100	0	230	101300000	1000	0	0	-1	0
17851155	5016	0	0	-100	0	230	101300000	1000	0	0	-1	0
17863715	5015	0	0	-100	0	230	101300000	1000	0	0	-1	0
17876275	5016	0	0	-100	0	230	101300000	1000	0	0	-1	0
17888835	5009	1	0	-100	0	230	101300000	1000	0	0	-1	0
17901395	5018	0	0	-100	0	230	101300000	1000	0	0	-1	0
17913955	5017	0	0	-100	0	230	101300000	1000	0	0	-1	0
17926515	5008	0	0	-100	0	230	101300000	1000	0	0	-1	0
17939075	5014	3	0	-100	0	230	101300000	1000	0	0	-1	0
17951635	5011	0	0	-100	0	230	101300000	1000	0	0	-1	0
17964195	5017	0	0	-100	0	230	101300000	1000	0	0	-1	0
17976755	5018	0	0	-100	0	230	101300000	1000	0	0	-1	0
17989315	5008	0	0	-100	0	230	101300000	1000	0	0	-1	0
18001875	5012	3	0	-100	0	230	101300000	1000	0	0	-1	0
18014435	5017	0	0	-100	0	230	101300000	1000	0	0	-1	0
18026995	5011	0	0	-100	0	230	101300000	1000	0	0	-1	0
18039555	5012	0	0	-100	0	230	101300000	1000	0	0	-1	0
18052115	5011	0	0	-100	0	230	101300000	1000	0	0	-1	0
18064675	5017	0	0	-100	0	230	101300000	1000	0	0	-1	0
18077235	5012	0	0	-100	0	230	101300000	1000	0	0	-1	0
18089795	5015	0	0	-100	0	230	101300000	1000	0	0	-1	0
18102355	5016	0	0	-100	0	230	101300000	1000	0	0	-1	0
18114915	5015	4	0	-100	0	230	101300000	1000	0	0	-1	0
18127475	5011	0	0	-100	0	230	101300000	1000	0	0	-1	0
18140035	5012	0	0	-100	0	230	101300000	1000	0	0	-1	0
18152595	5011	2	0	-100	0	230	101300000	1000	0	0	-1	0
18165155	5016	0	0	-100	0	230	101300000	1000	0	0	-1	0
18177715	5017	4	0	-100	0	230	101300000	1000	0	0	-1	0
18190275	5017	0	0	-100	0	230	101300000	1000	0	0	-1	0
18202835	5006	0	0	-100	0	230	101300000	1000	0	0	-1	0
18215395	5011	3	0	-100	0	230	101300000	1000	0	0	-1	0
18227955	5017	0	0	-100	0	230	101300000	1000	0	0	-1	0
18240515	5017	0	0	-100	0	230	101300000	1000	0	0	-1	0
18253075	5011	2	0	-100	0	230	101300000	1000	0	0	-1	0
18265635	5014	0	0	-100	0	230	101300000	1000	0	0	-1	0
18278195	5012	0	0	-100	0	230	101300000	1000	0	0	-1	0
18290755	5012	0	0	-100	0	230	101300000	1000	0	0	-1	0
18303315	5013	0	0	-100	0	230	101300000	1000	0	0	-1	0
18315875	5014	0	0	-100	0	230	101300000	1000	0	0	-1	0
18328435	5011	2	0	-100	0	230	101300000	1000	0	0	-1	0
18340995	5019	1	0	-100	0	230	101300000	1000	0	0	-1	0
18353555	5014	0	0	-100	0	230	101300000	1000	0	0	-1	0
18366115	5007	2	0	-100	0	230	101300000	1000	0	0	-1	0
18378675	5021	0	0	-100	0	230	101300000	1000	0	0	-1	0
18391235	5015	0	0	-100	0	230	101300000	1000	0	0	-1	0
18403795	5007	0	0	-100	0	230	101300000	1000	0	0	-1	0
18416355	5015	1	0	-100	0	230	101300000	1000	0	0	-1	0
18428915	5017	0	0	-100	0	230	101300000	1000	0	0	-1	0
18441475	5007	0	0	-100	0	230	101300000	1000	0	0	-1	0
18454035	5022	0	0	-100	0	230	101300000	1000	0	0	-1	0
18466595	5010	3	0	-100	0	230	101300000	1000	0	0	-1	0
18479155	5015	0	0	-100	0	230	101300000	1000	0	0	-1	0
18491715	5016	2	0	-100	0	230	101300000	1000	0	0	-1	0
18504275	5017	0	0	-100	0	230	101300000	1000	0	0	-1	0
18516835	5015	0	0	-100	0	230	101300000	1000	0	0	-1	0
18529395	5021	0	0	-100	0	230	101300000	1000	0	0	-1	0
18541955	5012	0	0	-100	0	230	101300000	1000	0	0	-1	0
18554515	5019	0	0	-100	0	230	101300000	1000	0	0	-1	0
18567075	5005	0	0	-100	0	230	101300000	1000	0	0	-1	0
18579635	5021	0	0	-100	0	230	101300000	1000	0	0	-1	0
18592195	5011	0	0	-100	0	230	101300000	1000	0	0	-1	0
18604755	5014	0	0	-100	0	230	101300000	1000	0	0	-1	0
18617315	5012	0	0	-100	0	230	101300000	1000	0	0	-1	0
18629875	5017	0	0	-100	0	230	101300000	1000	0	0	-1	0
18642435	5011	0	0	-100	0	230	101300000	1000	0	0	-1	0
18654995	5018	3	0	-100	0	230	101300000	1000	0	0	-1	0
18667555	5006	0	0	-100	0	230	101300000	1000	0	0	-1	0
18680115	5016	0	0	-100	0	230	101300000	1000	0	0	-1	0
18692675	5011	0	0	-100	0	230	101300000	1000	0	0	-1	0
18705235	5010	0	0	-100	0	230	101300000	1000	0	0	-1	0
18717795	5012	0	0	-100	0	230	101300000	1000	0	0	-1	0
18730355	5008	0	0	-100	0	230	101300000	1000	0	0	-1	0
18742915	5008	3	0	-100	0	230	101300000	1000	0	0	-1	0
18755475	5017	0	0	-100	0	230	101300000	1000	0	0	-1	0
18768035	5011	0	0	-100	0	230	101300000	1000	0	0	-1	0
18780595	5011	0	0	-100	0	230	101300000	1000	0	0	-1	0
18793155	5017	0	0	-100	0	230	101300000	1000	0	0	-1	0
18805715	5010	3	0	-100	0	230	101300000	1000	0	0	-1	0
18818275	5014	0	0	-100	0	230	101300000	1000	0	0	-1	0
18830835	5018	0	0	-100	0	230	101300000	1000	0	0	-1	0
18843395	5009	0	0	-100	0	230	101300000	1000	0	0	-1	0
18855955	5017	0	0	-100	0	230	101300000	1000	0	0	-1	0
18868515	5016	0	0	-100	0	230	101300000	1000	0	0	-1	0
18881075	5010	0	0	-100	0	230	101300000	1000	0	0	-1	0
18893635	5013	0	0	-100	0	230	101300000	1000	0	0	-1	0
18906195	5010	1	0	-100	0	230	101300000	1000	0	0	-1	0
18918755	5012	0	0	-100	0	230	101300000	1000	0	0	-1	0
18931315	5014	0	0	-100	0	230	101300000	1000	0	0	-1	0
18943875	5008	0	0	-100	0	230	101300000	1000	0	0	-1	0
18956435	5016	0	0	-100	0	230	101300000	1000	0	0	-1	0
18968995	5011	0	0	-100	0	230	101300000	1000	0	0	-1	0
18981555	5010	0	0	-100	0	230	101300000	1000	0	0	-1	0
18994115	5016	0	0	-100	0	230	101300000	1000	0	0	-1	0
19006675	5010	0	0	-100	0	230	101300000	1000	0	0	-1	0
19019235	5011	0	0	-100	0	230	101300000	1000	0	0	-1	0
19031795	5015	0	0	-100	0	230	101300000	1000	0	0	-1	0
19044355	5011	1	0	-100	0	230	101300000	1000	0	0	-1	0
19056915	5018	0	0	-100	0	230	101300000	1000	0	0	-1	0
19069475	5014	2	0	-100	0	230	101300000	1000	0	0	-1	0
19082035	5017	0	0	-100	0	230	101300000	1000	0	0	-1	0
19094595	5014	0	0	-100	0	230	101300000	1000	0	0	-1	0
19107155	5009	0	0	-100	0	230	101300000	1000	0	0	-1	0
19119715	5016	0	0	-100	0	230	101300000	1000	0	0	-1	0
19132275	5010	2	0	-100	0	230	101300000	1000	0	0	-1	0
19144835	5013	0	0	-100	0	230	101300000	1000	0	0	-1	0
19157395	5014	2	0	-100	0	230	101300000	1000	0	0	-1	0
19169955	5016	0	0	-100	0	230	101300000	1000	0	0	-1	0
19182515	5008	0	0	-100	0	230	101300000	1000	0	0	-1	0
19195075	5016	0	0	-100	0	230	101300000	1000	0	0	-1	0
19207635	5006	0	0	-100	0	230	101300000	1000	0	0	-1	0
19220195	5011	1	0	-100	0	230	101300000	1000	0	0	-1	0
19232755	5016	0	0	-100	0	230	101300000	1000	0	0	-1	0
19245315	5011	1	0	-100	0	230	101300000	1000	0	0	-1	0
19257875	5021	0	0	-100	0	230	101300000	1000	0	0	-1	0
19270435	5012	0	0	-100	0	230	101300000	1000	0	0	-1	0
19282995	5016	4	0	-100	0	230	101300000	1000	0	0	-1	0
19295555	5011	0	0	-100	0	230	101300000	1000	0	0	-1	0
19308115	5011	0	0	-100	0	230	101300000	1000	0	0	-1	0
19320675	5011	0	0	-100	0	230	101300000	1000	0	0	-1	0
19333235	5010	2	0	-100	0	230	101300000	1000	0	0	-1	0
19345795	5018	0	0	-100	0	230	101300000	1000	0	0	-1	0
19358355	5011	0	0	-100	0	230	101300000	1000	0	0	-1	0
19370915	5010	0	0	-100	0	230	101300000	1000	0	0	-1	0
19383475	5016	0	0	-100	0	230	101300000	1000	0	0	-1	0
19396035	5011	0	0	-100	0	230	101300000	1000	0	0	-1	0
19408595	5012	0	0	-100	0	230	101300000	1000	0	0	-1	0
19421155	5016	0	0	-100	0	230	101300000	1000	0	0	-1	0
19433715	5015	3	0	-100	0	230	101300000	1000	0	0	-1	0
19446275	5012	0	0	-100	0	230	101300000	1000	0	0	-1	0
19458835	5016	0	0	-100	0	230	101300000	1000	0	0	-1	0
19471395	5014	4	0	-100	0	230	101300000	1000	0	0	-1	0
19483955	5008	0	0	-100	0	230	101300000	1000	0	0	-1	0
19496515	5019	0	0	-100	0	230	101300000	1000	0	0	-1	0
19509075	5008	0	0	-100	0	230	101300000	1000	0	0	-1	0
19521635	5010	2	0	-100	0	230	101300000	1000	0	0	-1	0
19534195	5022	0	0	-100	0	230	101300000	1000	0	0	-1	0
19546755	5013	0	0	-100	0	230	101300000	1000	0	0	-1	0
19559315	5012	0	0	-100	0	230	101300000	1000	0	0	-1	0
19571875	5012	1	0	-100	0	230	101300000	1000	0	0	-1	0
19584435	5018	0	0	-100	0	230	101300000	1000	0	0	-1	0
19596995	5016	0	0	-100	0	230	101300000	1000	0	0	-1	0
19609555	5007	0	0	-100	0	230	101300000	1000	0	0	-1	0
19622115	5011	0	0	-100	0	230	101300000	1000	0	0	-1	0
19634675	5017	0	0	-100	0	230	101300000	1000	0	0	-1	0
19647235	5008	0	0	-100	0	230	101300000	1000	0	0	-1	0
19659795	5012	1	0	-100	0	230	101300000	1000	0	0	-1	0
19672355	5020	0	0	-100	0	230	101300000	1000	0	0	-1	0
19684915	5015	0	0	-100	0	230	101300000	1000	0	0	-1	0
19697475	5015	0	0	-100	0	230	101300000	1000	0	0	-1	0
19710035	5012	0	0	-100	0	230	101300000	1000	0	0	-1	0
19722595	5017	0	0	-100	0	230	101300000	1000	0	0	-1	0
19735155	5011	0	0	-100	0	230	101300000	1000	0	0	-1	0
19747715	5012	2	0	-100	0	230	101300000	1000	0	0	-1	0
19760275	5010	2	0	-100	0	230	101300000	1000	0	0	-1	0
19772835	5016	0	0	-100	0	230	101300000	1000	0	0	-1	0
19785395	5016	0	0	-100	0	230	101300000	1000	0	0	-1	0
19797955	5016	0	0	-100	0	230	101300000	1000	0	0	-1	0
19810515	5010	2	0	-100	0	230	101300000	1000	0	0	-1	0
19823075	5018	0	0	-100	0	230	101300000	1000	0	0	-1	0
19835635	5015	0	0	-100	0	230	101300000	1000	0	0	-1	0
19848195	5010	3	0	-100	0	230	101300000	1000	0	0	-1	0
19860755	5017	0	0	-100	0	230	101300000	1000	0	0	-1	0
19873315	5016	0	0	-100	0	230	101300000	1000	0	0	-1	0
19885875	5008	0	0	-100	0	230	101300000	1000	0	0	-1	0
19898435	5015	1	0	-100	0	230	101300000	1000	0	0	-1	0
19910995	5012	0	0	-100	0	230	101300000	1000	0	0	-1	0
19923555	5013	0	0	-100	0	230	101300000	1000	0	0	-1	0
19936115	5012	0	0	-100	0	230	101300000	1000	0	0	-1	0
19948675	5010	3	0	-100	0	230	101300000	1000	0	0	-1	0
19961235	5020	0	0	-100	0	230	101300000	1000	0	0	-1	0
19973795	5019	0	0	-100	0	230	101300000	1000	0	0	-1	0
19986355	5006	0	0	-100	0	230	101300000	1000	0	0	-1	0
19998915	5012	2	0	-100	0	230	101300000	1000	0	0	-1	0
20011475	5016	0	0	-100	0	230	101300000	1000	0	0	-1	0
20024035	5018	0	0	-100	0	230	101300000	1000	0	0	-1	0
20036595	5018	0	0	-100	0	230	101300000	1000	0	0	-1	0
20049155	5016	0	0	-100	0	230	101300000	1000	0	0	-1	0
20061715	5007	0	0	-100	0	230	101300000	1000	0	0	-1	0
20074275	5012	3	0	-100	0	230	101300000	1000	0	0	-1	0
20086835	5009	0	0	-100	0	230	101300000	1000	0	0	-1	0
20099395	5018	0	0	-100	0	230	101300000	1000	0	0	-1	0
20111955	5018	0	0	-100	0	230	101300000	1000	0	0	-1	0
20124515	5011	0	0	-100	0	230	101300000	1000	0	0	-1	0
20137075	5014	3	0	-100	0	230	101300000	1000	0	0	-1	0
20149635	5010	0	0	-100	0	230	101300000	1000	0	0	-1	0
20162195	5021	0	0	-100	0	230	101300000	1000	0	0	-1	0
20174755	5016	0	0	-100	0	230	101300000	1000	0	0	-1	0
20187315	5011	0	0	-100	0	230	101300000	1000	0	0	-1	0
20199875	5012	0	0	-100	0	230	101300000	1000	0	0	-1	0
20212435	5013	0	0	-100	0	230	101300000	1000	0	0	-1	0
20224995	5011	0	0	-100	0	230	101300000	1000	0	0	-1	0
20237555	5019	0	0	-100	0	230	101300000	1000	0	0	-1	0
20250115	5008	0	0	-100	0	230	101300000	1000	0	0	-1	0
20262675	5012	0	0	-100	0	230	101300000	1000	0	0	-1	0
20275235	5018	0	0	-100	0	230	101300000	1000	0	0	-1	0
20287795	5007	0	0	-100	0	230	101300000	1000	0	0	-1	0
20300355	5011	3	0	-100	0	230	101300000	1000	0	0	-1	0
20312915	5019	0	0	-100	0	230	101300000	1000	0	0	-1	0
20325475	5011	0	0	-100	0	230	101300000	1000	0	0	-1	0
20338035	5017	0	0	-100	0	230	101300000	1000	0	0	-1	0
20350595	5011	0	0	-100	0	230	101300000	1000	0	0	-1	0
20363155	5010	0	0	-100	0	230	101300000	1000	0	0	-1	0
20375715	5015	0	0	-100	0	230	101300000	1000	0	0	-1	0
20388275	5009	1	0	-100	0	230	101300000	1000	0	0	-1	0
20400835	5017	0	0	-100	0	230	101300000	1000	0	0	-1	0
20413395	5016	3	0	-100	0	230	101300000	1000	0	0	-1	0
20425955	5013	0	0	-100	0	230	101300000	1000	0	0	-1	0
20438515	5008	0	0	-100	0	230	101300000	1000	0	0	-1	0
20451075	5011	0	0	-100	0	230	101300000	1000	0	0	-1	0
20463635	5015	0	0	-100	0	230	101300000	1000	0	0	-1	0
20476195	5014	2	0	-100	0	230	101300000	1000	0	0	-1	0
20488755	5015	0	0	-100	0	230	101300000	1000	0	0	-1	0
20501315	5011	0	0	-100	0	230	101300000	1000	0	0	-1	0
20513875	5012	4	0	-100	0	230	101300000	1000	0	0	-1	0
20526435	5016	0	0	-100	0	230	101300000	1000	0	0	-1	0
20538995	5017	1	0	-100	0	230	101300000	1000	0	0	-1	0
20551555	5013	0	0	-100	0	230	101300000	1000	0	0	-1	0
20564115	5012	0	0	-100	0	230	101300000	1000	0	0	-1	0
20576675	5015	0	0	-100	0	230	101300000	1000	0	0	-1	0
20589235	5017	0	0	-100	0	230	101300000	1000	0	0	-1	0
20601795	5012	0	0	-100	0	230	101300000	1000	0	0	-1	0
20614355	5014	0	0	-100	0	230	101300000	1000	0	0	-1	0
20626915	5011	3	0	-100	0	230	101300000	1000	0	0	-1	0
20639475	5008	1	0	-100	0	230	101300000	1000	0	0	-1	0
20652035	5021	0	0	-100	0	230	101300000	1000	0	0	-1	0
20664595	5021	0	0	-100	0	230	101300000	1000	0	0	-1	0
20677155	5017	0	0	-100	0	230	101300000	1000	0	0	-1	0
20689715	5012	3	0	-100	0	230	101300000	1000	0	0	-1	0
20702275	5008	1	0	-100	0	230	101300000	1000	0	0	-1	0
20714835	5017	0	0	-100	0	230	101300000	1000	0	0	-1	0
20727395	5009	0	0	-100	0	230	101300000	1000	0	0	-1	0
20739955	5011	4	0	-100	0	230	101300000	1000	0	0	-1	0
20752515	5019	0	0	-100	0	230	101300000	1000	0	0	-1	0
20765075	5013	0	0	-100	0	230	101300000	1000	0	0	-1	0
20777635	5010	0	0	-100	0	230	101300000	1000	0	0	-1	0
20790195	5012	2	0	-100	0	230	101300000	1000	0	0	-1	0
20802755	5018	0	0	-100	0	230	101300000	1000	0	0	-1	0
20815315	5018	0	0	-100	0	230	101300000	1000	0	0	-1	0
20827875	5011	2	0	-100	0	230	101300000	1000	0	0	-1	0
20840435	5016	0	0	-100	0	230	101300000	1000	0	0	-1	0
20852995	5012	0	0	-100	0	230	101300000	1000	0	0	-1	0
20865555	5011	1	0	-100	0	230	101300000	1000	0	0	-1	0
20878115	5021	0	0	-100	0	230	101300000	1000	0	0	-1	0
20890675	5015	0	0	-100	0	230	101300000	1000	0	0	-1	0
20903235	5011	0	0	-100	0	230	101300000	1000	0	0	-1	0
20915795	5017	0	0	-100	0	230	101300000	1000	0	0	-1	0
20928355	5008	0	0	-100	0	230	101300000	1000	0	0	-1	0
20940915	5011	1	0	-100	0	230	101300000	1000	0	0	-1	0
20953475	5018	0	0	-100	0	230	101300000	1000	0	0	-1	0
20966035	5006	0	0	-100	0	230	101300000	1000	0	0	-1	0
20978595	5008	0	0	-100	0	230	101300000	1000	0	0	-1	0
20991155	5017	0	0	-100	0	230	101300000	1000	0	0	-1	0
21003715	5008	0	0	-100	0	230	101300000	1000	0	0	-1	0
21016275	5014	0	0	-100	0	230	101300000	1000	0	0	-1	0
21028835	5016	0	0	-100	0	230	101300000	1000	0	0	-1	0
21041395	5010	4	0	-100	0	230	101300000	1000	0	0	-1	0
21053955	5017	0	0	-100	0	230	101300000	1000	0	0	-1	0
21066515	5008	0	0	-100	0	230	101300000	1000	0	0	-1	0
21079075	5014	0	0	-100	0	230	101300000	1000	0	0	-1	0
21091635	5019	0	0	-100	0	230	101300000	1000	0	0	-1	0
21104195	5012	0	0	-100	0	230	101300000	1000	0	0	-1	0
21116755	5014	2	0	-100	0	230	101300000	1000	0	0	-1	0
21129315	5022	0	0	-100	0	230	101300000	1000	0	0	-1	0
21141875	5011	0	0	-100	0	230	101300000	1000	0	0	-1	0
21154435	5015	1	0	-100	0	230	101300000	1000	0	0	-1	0
21166995	5014	2	0	-100	0	230	101300000	1000	0	0	-1	0
21179555	5012	0	0	-100	0	230	101300000	1000	0	0	-1	0
21192115	5014	2	0	-100	0	230	101300000	1000	0	0	-1	0
21204675	5015	0	0	-100	0	230	101300000	1000	0	0	-1	0
21217235	5015	0	0	-100	0	230	101300000	1000	0	0	-1	0
21229795	5012	0	0	-100	0	230	101300000	1000	0	0	-1	0
21242355	5016	0	0	-100	0	230	101300000	1000	0	0	-1	0
21254915	5017	0	0	-100	0	230	101300000	1000	0	0	-1	0
21267475	5012	0	0	-100	0	230	101300000	1000	0	0	-1	0
21280035	5013	0	0	-100	0	230	101300000	1000	0	0	-1	0
21292595	5015	3	0	-100	0	230	101300000	1000	0	0	-1	0
21305155	5015	0	0	-100	0	230	101300000	1000	0	0	-1	0
21317715	5012	0	0	-100	0	230	101300000	1000	0	0	-1	0
21330275	5012	3	0	-100	0	230	101300000	1000	0	0	-1	0
21342835	5018	0	0	-100	0	230	101300000	1000	0	0	-1	0
21355395	5010	0	0	-100	0	230	101300000	1000	0	0	-1	0
21367955	5011	0	0	-100	0	230	101300000	1000	0	0	-1	0
21380515	5016	0	0	-100	0	230	101300000	1000	0	0	-1	0
21393075	5011	3	0	-100	0	230	101300000	1000	0	0	-1	0
21405635	5013	0	0	-100	0	230	101300000	1000	0	0	-1	0
21418195	5010	0	0	-100	0	230	101300000	1000	0	0	-1	0
21430755	5012	0	0	-100	0	230	101300000	1000	0	0	-1	0
21443315	5015	0	0	-100	0	230	101300000	1000	0	0	-1	0
21455875	5016	4	0	-100	0	230	101300000	1000	0	0	-1	0
21468435	5016	0	0	-100	0	230	101300000	1000	0	0	-1	0
21480995	5006	0	0	-100	0	230	101300000	1000	0	0	-1	0
21493555	5016	0	0	-100	0	230	101300000	1000	0	0	-1	0
21506115	5010	0	0	-100	0	230	101300000	1000	0	0	-1	0
21518675	5015	0	0	-100	0	230	101300000	1000	0	0	-1	0
21531235	5018	0	0	-100	0	230	101300000	1000	0	0	-1	0
21543795	5009	0	0	-100	0	230	101300000	1000	0	0	-1	0
21556355	5017	0	0	-100	0	230	101300000	1000	0	0	-1	0
21568915	5012	2	0	-100	0	230	101300000	1000	0	0	-1	0
21581475	5017	0	0	-100	0	230	101300000	1000	0	0	-1	0
21594035	5011	0	0	-100	0	230	101300000	1000	0	0	-1	0
21606595	5012	0	0	-100	0	230	101300000	1000	0	0	-1	0
21619155	5011	0	0	-100	0	230	101300000	1000	0	0	-1	0
21631715	5022	0	0	-100	0	230	101300000	1000	0	0	-1	0
21644275	5007	0	0	-100	0	230	101300000	1000	0	0	-1	0
21656835	5020	0	0	-100	0	230	101300000	1000	0	0	-1	0
21669395	5013	0	0	-100	0	230	101300000	1000	0	0	-1	0
21681955	5012	2	0	-100	0	230	101300000	1000	0	0	-1	0
21694515	5014	0	0	-100	0	230	101300000	1000	0	0	-1	0
21707075	5010	0	0	-100	0	230	101300000	1000	0	0	-1	0
21719635	5008	1	0	-100	0	230	101300000	1000	0	0	-1	0
21732195	5019	0	0	-100	0	230	101300000	1000	0	0	-1	0
21744755	5007	0	0	-100	0	230	101300000	1000	0	0	-1	0
21757315	5012	2	0	-100	0	230	101300000	1000	0	0	-1	0
21769875	5015	0	0	-100	0	230	101300000	1000	0	0	-1	0
21782435	5011	0	0	-100	0	230	101300000	1000	0	0	-1	0
21794995	5014	0	0	-100	0	230	101300000	1000	0	0	-1	0
21807555	5011	0	0	-100	0	230	101300000	1000	0	0	-1	0
21820115	5017	0	0	-100	0	230	101300000	1000	0	0	-1	0
21832675	5012	0	0	-100	0	230	101300000	1000	0	0	-1	0
21845235	5011	2	0	-100	0	230	101300000	1000	0	0	-1	0
21857795	5019	0	0	-100	0	230	101300000	1000	0	0	-1	0
21870355	5012	0	0	-100	0	230	101300000	1000	0	0	-1	0
21882915	5015	4	0	-100	0	230	101300000	1000	0	0	-1	0
21895475	5011	0	0	-100	0	230	101300000	1000	0	0	-1	0
21908035	5016	0	0	-100	0	230	101300000	1000	0	0	-1	0
21920595	5016	0	0	-100	0	230	101300000	1000	0	0	-1	0
21933155	5009	0	0	-100	0	230	101300000	1000	0	0	-1	0
21945715	5011	2	0	-100	0	230	101300000	1000	0	0	-1	0
21958275	5015	0	0	-100	0	230	101300000	1000	0	0	-1	0
21970835	5017	0	0	-100	0	230	101300000	1000	0	0	-1	0
21983395	5014	0	0	-100	0	230	101300000	1000	0	0	-1	0
21995955	5013	0	0	-100	0	230	101300000	1000	0	0	-1	0
22008515	5010	1	0	-100	0	230	101300000	1000	0	0	-1	0
22021075	5015	0	0	-100	0	230	101300000	1000	0	0	-1	0
22033635	5018	0	0	-100	0	230	101300000	1000	0	0	-1	0
22046195	5014	0	0	-100	0	230	101300000	1000	0	0	-1	0
22058755	5014	1	0	-100	0	230	101300000	1000	0	0	-1	0
22071315	5011	1	0	-100	0	230	101300000	1000	0	0	-1	0
22083875	5016	0	0	-100	0	230	101300000	1000	0	0	-1	0
22096435	5018	0	0	-100	0	230	101300000	1000	0	0	-1	0
22108995	5010	0	0	-100	0	230	101300000	1000	0	0	-1	0
22121555	5012	3	0	-100	0	230	101300000	1000	0	0	-1	0
22134115	5011	4	0	-100	0	230	101300000	1000	0	0	-1	0
22146675	5011	0	0	-100	0	230	101300000	1000	0	0	-1	0
22159235	5018	0	0	-100	0	230	101300000	1000	0	0	-1	0
22171795	5015	0	0	-100	0	230	101300000	1000	0	0	-1	0
22184355	5015	0	0	-100	0	230	101300000	1000	0	0	-1	0
22196915	5014	0	0	-100	0	230	101300000	1000	0	0	-1	0
22209475	5011	2	0	-100	0	230	101300000	1000	0	0	-1	0
22222035	5009	0	0	-100	0	230	101300000	1000	0	0	-1	0
22234595	5019	0	0	-100	0	230	101300000	1000	0	0	-1	0
22247155	5016	0	0	-100	0	230	101300000	1000	0	0	-1	0
22259715	5014	0	0	-100	0	230	101300000	1000	0	0	-1	0
22272275	5017	2	0	-100	0	230	101300000	1000	0	0	-1	0
22284835	5006	1	0	-100	0	230	101300000	1000	0	0	-1	0
22297395	5019	0	0	-100	0	230	101300000	1000	0	0	-1	0
22309955	5013	0	0	-100	0	230	101300000	1000	0	0	-1	0
22322515	5010	0	0	-100	0	230	101300000	1000	0	0	-1	0
22335075	5012	0	0	-100	0	230	101300000	1000	0	0	-1	0
22347635	5009	0	0	-100	0	230	101300000	1000	0	0	-1	0
22360195	5012	0	0	-100	0	230	101300000	1000	0	0	-1	0
22372755	5018	0	0	-100	0	230	101300000	1000	0	0	-1	0
22385315	5014	0	0	-100	0	230	101300000	1000	0	0	-1	0
22397875	5013	0	0	-100	0	230	101300000	1000	0	0	-1	0
22410435	5010	2	0	-100	0	230	101300000	1000	0	0	-1	0
22422995	5020	4	0	-100	0	230	101300000	1000	0	0	-1	0
22435555	5016	0	0	-100	0	230	101300000	1000	0	0	-1	0
22448115	5010	0	0	-100	0	230	101300000	1000	0	0	-1	0
22460675	5014	3	0	-100	0	230	101300000	1000	0	0	-1	0
22473235	5014	0	0	-100	0	230	101300000	1000	0	0	-1	0
22485795	5014	0	0	-100	0	230	101300000	1000	0	0	-1	0
22498355	5007	0	0	-100	0	230	101300000	1000	0	0	-1	0
22510915	5011	2	0	-100	0	230	101300000	1000	0	0	-1	0
22523475	5018	0	0	-100	0	230	101300000	1000	0	0	-1	0
22536035	5017	0	0	-100	0	230	101300000	1000	0	0	-1	0
22548595	5010	0	0	-100	0	230	101300000	1000	0	0	-1	0
22561155	5010	2	0	-100	0	230	101300000	1000	0	0	-1	0
22573715	5016	0	0	-100	0	230	101300000	1000	0	0	-1	0
22586275	5010	0	0	-100	0	230	101300000	1000	0	0	-1	0
22598835	5014	2	0	-100	0	230	101300000	1000	0	0	-1	0
22611395	5018	0	0	-100	0	230	101300000	1000	0	0	-1	0
22623955	5012	0	0	-100	0	230	101300000	1000	0	0	-1	0
22636515	5015	3	0	-100	0	230	101300000	1000	0	0	-1	0
22649075	5018	0	0	-100	0	230	101300000	1000	0	0	-1	0
22661635	5011	0	0	-100	0	230	101300000	1000	0	0	-1	0
22674195	5016	2	0	-100	0	230	101300000	1000	0	0	-1	0
22686755	5010	0	0	-100	0	230	101300000	1000	0	0	-1	0
22699315	5021	0	0	-100	0	230	101300000	1000	0	0	-1	0
22711875	5012	4	0	-100	0	230	101300000	1000	0	0	-1	0
22724435	5012	0	0	-100	0	230	101300000	1000	0	0	-1	0
22736995	5016	0	0	-100	0	230	101300000	1000	0	0	-1	0
22749555	5012	2	0	-100	0	230	101300000	1000	0	0	-1	0
22762115	5018	0	0	-100	0	230	101300000	1000	0	0	-1	0
22774675	5013	0	0	-100	0	230	101300000	1000	0	0	-1	0
22787235	5012	3	0	-100	0	230	101300000	1000	0	0	-1	0
22799795	5021	0	0	-100	0	230	101300000	1000	0	0	-1	0
22812355	5014	0	0	-100	0	230	101300000	1000	0	0	-1	0
22824915	5012	0	0	-100	0	230	101300000	1000	0	0	-1	0
22837475	5016	0	0	-100	0	230	101300000	1000	0	0	-1	0
22850035	5014	2	0	-100	0	230	101300000	1000	0	0	-1	0
22862595	5018	0	0	-100	0	230	101300000	1000	0	0	-1	0
22875155	5011	0	0	-100	0	230	101300000	1000	0	0	-1	0
22887715	5007	0	0	-100	0	230	101300000	1000	0	0	-1	0
22900275	5019	0	0	-100	0	230	101300000	1000	0	0	-1	0
22912835	5012	2	0	-100	0	230	101300000	1000	0	0	-1	0
22925395	5013	0	0	-100	0	230	101300000	1000	0	0	-1	0
22937955	5011	4	0	-100	0	230	101300000	1000	0	0	-1	0
22950515	5017	0	0	-100	0	230	101300000	1000	0	0	-1	0
22963075	5012	2	0	-100	0	230	101300000	1000	0	0	-1	0
22975635	5017	0	0	-100	0	230	101300000	1000	0	0	-1	0
22988195	5012	2	0	-100	0	230	101300000	1000	0	0	-1	0
23000755	5022	0	0	-100	0	230	101300000	1000	0	0	-1	0
23013315	5012	0	0	-100	0	230	101300000	1000	0	0	-1	0
23025875	5007	1	0	-100	0	230	101300000	1000	0	0	-1	0
23038435	5016	0	0	-100	0	230	101300000	1000	0	0	-1	0
23050995	5009	0	0	-100	0	230	101300000	1000	0	0	-1	0
23063555	5015	0	0	-100	0	230	101300000	1000	0	0	-1	0
23076115	5015	1	0	-100	0	230	101300000	1000	0	0	-1	0
23088675	5017	0	0	-100	0	230	101300000	1000	0	0	-1	0
23101235	5008	0	0	-100	0	230	101300000	1000	0	0	-1	0
23113795	5014	0	0	-100	0	230	101300000	1000	0	0	-1	0
23126355	5015	0	0	-100	0	230	101300000	1000	0	0	-1	0
23138915	5014	0	0	-100	0	230	101300000	1000	0	0	-1	0
23151475	5015	0	0	-100	0	230	101300000	1000	0	0	-1	0
23164035	5011	0	0	-100	0	230	101300000	1000	0	0	-1	0
23176595	5014	3	0	-100	0	230	101300000	1000	0	0	-1	0
23189155	5017	0	0	-100	0	230	101300000	1000	0	0	-1	0
23201715	5016	0	0	-100	0	230	101300000	1000	0	0	-1	0
23214275	5014	2	0	-100	0	230	101300000	1000	0	0	-1	0
23226835	5016	0	0	-100	0	230	101300000	1000	0	0	-1	0
23239395	5015	0	0	-100	0	230	101300000	1000	0	0	-1	0
23251955	5014	4	0	-100	0	230	101300000	1000	0	0	-1	0
23264515	5014	0	0	-100	0	230	101300000	1000	0	0	-1	0
23277075	5017	0	0	-100	0	230	101300000	1000	0	0	-1	0
23289635	5014	4	0	-100	0	230	101300000	1000	0	0	-1	0
23302195	5016	0	0	-100	0	230	101300000	1000	0	0	-1	0
23314755	5012	0	0	-100	0	230	101300000	1000	0	0	-1	0
23327315	5007	0	0	-100	0	230	101300000	1000	0	0	-1	0
23339875	5016	0	0	-100	0	230	101300000	1000	0	0	-1	0
23352435	5014	0	0	-100	0	230	101300000	1000	0	0	-1	0
23364995	5010	0	0	-100	0	230	101300000	1000	0	0	-1	0
23377555	5015	0	0	-100	0	230	101300000	1000	0	0	-1	0
23390115	5011	0	0	-100	0	230	101300000	1000	0	0	-1	0
23402675	5017	0	0	-100	0	230	101300000	1000	0	0	-1	0
23415235	5011	0	0	-100	0	230	101300000	1000	0	0	-1	0
23427795	5008	0	0	-100	0	230	101300000	1000	0	0	-1	0
23440355	5011	0	0	-100	0	230	101300000	1000	0	0	-1	0
23452915	5019	0	0	-100	0	230	101300000	1000	0	0	-1	0
23465475	5012	0	0	-100	0	230	101300000	1000	0	0	-1	0
23478035	5017	0	0	-100	0	230	101300000	1000	0	0	-1	0
23490595	5016	0	0	-100	0	230	101300000	1000	0	0	-1	0
23503155	5018	0	0	-100	0	230	101300000	1000	0	0	-1	0
23515715	5010	0	0	-100	0	230	101300000	1000	0	0	-1	0
23528275	5014	0	0	-100	0	230	101300000	1000	0	0	-1	0
23540835	5011	0	0	-100	0	230	101300000	1000	0	0	-1	0
23553395	5016	0	0	-100	0	230	101300000	1000	0	0	-1	0
23565955	5011	0	0	-100	0	230	101300000	1000	0	0	-1	0
23578515	5011	0	0	-100	0	230	101300000	1000	0	0	-1	0
23591075	5017	0	0	-100	0	230	101300000	1000	0	0	-1	0
23603635	5011	2	0	-100	0	230	101300000	1000	0	0	-1	0
23616195	5021	0	0	-100	0	230	101300000	1000	0	0	-1	0
23628755	5011	0	0	-100	0	230	101300000	1000	0	0	-1	0
23641315	5011	3	0	-100	0	230	101300000	1000	0	0	-1	0
23653875	5017	0	0	-100	0	230	101300000	1000	0	0	-1	0
23666435	5010	0	0	-100	0	230	101300000	1000	0	0	-1	0
23678995	5014	0	0	-100	0	230	101300000	1000	0	0	-1	0
23691555	5016	0	0	-100	0	230	101300000	1000	0	0	-1	0
23704115	5012	1	0	-100	0	230	101300000	1000	0	0	-1	0
23716675	5021	0	0	-100	0	230	101300000	1000	0	0	-1	0
23729235	5010	0	0	-100	0	230	101300000	1000	0	0	-1	0
23741795	5015	0	0	-100	0	230	101300000	1000	0	0	-1	0
23754355	5011	0	0	-100	0	230	101300000	1000	0	0	-1	0
23766915	5010	0	0	-100	0	230	101300000	1000	0	0	-1	0
23779475	5016	0	0	-100	0	230	101300000	1000	0	0	-1	0
23792035	5015	4	0	-100	0	230	101300000	1000	0	0	-1	0
23804595	5018	0	0	-100	0	230	101300000	1000	0	0	-1	0
23817155	5012	0	0	-100	0	230	101300000	1000	0	0	-1	0
23829715	5014	0	0	-100	0	230	101300000	1000	0	0	-1	0
23842275	5012	0	0	-100	0	230	101300000	1000	0	0	-1	0
23854835	5012	0	0	-100	0	230	101300000	1000	0	0	-1	0
23867395	5014	0	0	-100	0	230	101300000	1000	0	0	-1	0
23879955	5012	2	0	-100	0	230	101300000	1000	0	0	-1	0
23892515	5014	0	0	-100	0	230	101300000	1000	0	0	-1	0
23905075	5012	0	0	-100	0	230	101300000	1000	0	0	-1	0
23917635	5009	0	0	-100	0	230	101300000	1000	0	0	-1	0
23930195	5018	0	0	-100	0	230	101300000	1000	0	0	-1	0
23942755	5008	3	0	-100	0	230	101300000	1000	0	0	-1	0
23955315	5018	0	0	-100	0	230	101300000	1000	0	0	-1	0
23967875	5010	0	0	-100	0	230	101300000	1000	0	0	-1	0
23980435	5011	0	0	-100	0	230	101300000	1000	0	0	-1	0
23992995	5018	0	0	-100	0	230	101300000	1000	0	0	-1	0
24005555	5007	1	0	-100	0	230	101300000	1000	0	0	-1	0
24018115	5014	0	0	-100	0	230	101300000	1000	0	0	-1	0
24030675	5017	0	0	-100	0	230	101300000	1000	0	0	-1	0
24043235	5008	3	0	-100	0	230	101300000	1000	0	0	-1	0
24055795	5017	0	0	-100	0	230	101300000	1000	0	0	-1	0
24068355	5010	0	0	-100	0	230	101300000	1000	0	0	-1	0
24080915	5010	0	0	-100	0	230	101300000	1000	0	0	-1	0
24093475	5018	0	0	-100	0	230	101300000	1000	0	0	-1	0
24106035	5008	0	0	-100	0	230	101300000	1000	0	0	-1	0
24118595	5016	0	0	-100	0	230	101300000	1000	0	0	-1	0
24131155	5010	0	0	-100	0	230	101300000	1000	0	0	-1	0
24143715	5017	0	0	-100	0	230	101300000	1000	0	0	-1	0
24156275	5014	0	0	-100	0	230	101300000	1000	0	0	-1	0
24168835	5011	0	0	-100	0	230	101300000	1000	0	0	-1	0
24181395	5019	0	0	-100	0	230	101300000	1000	0	0	-1	0
24193955	5015	3	0	-100	0	230	101300000	1000	0	0	-1	0
24206515	5016	0	0	-100	0	230	101300000	1000	0	0	-1	0
24219075	5010	2	0	-100	0	230	101300000	1000	0	0	-1	0
24231635	5008	0	0	-100	0	230	101300000	1000	0	0	-1	0
24244195	5014	0	0	-100	0	230	101300000	1000	0	0	-1	0
24256755	5011	3	0	-100	0	230	101300000	1000	0	0	-1	0
24269315	5016	0	0	-100	0	230	101300000	1000	0	0	-1	0
24281875	5019	0	0	-100	0	230	101300000	1000	0	0	-1	0
24294435	5011	2	0	-100	0	230	101300000	1000	0	0	-1	0
24306995	5015	0	0	-100	0	230	101300000	1000	0	0	-1	0
24319555	5010	0	0	-100	0	230	101300000	1000	0	0	-1	0
24332115	5012	0	0	-100	0	230	101300000	1000	0	0	-1	0
24344675	5015	0	0	-100	0	230	101300000	1000	0	0	-1	0
24357235	5016	2	0	-100	0	230	101300000	1000	0	0	-1	0
24369795	5015	0	0	-100	0	230	101300000	1000	0	0	-1	0
24382355	5015	0	0	-100	0	230	101300000	1000	0	0	-1	0
24394915	5012	0	0	-100	0	230	101300000	1000	0	0	-1	0
24407475	5020	0	0	-100	0	230	101300000	1000	0	0	-1	0
24420035	5015	0	0	-100	0	230	101300000	1000	0	0	-1	0
24432595	5021	0	0	-100	0	230	101300000	1000	0	0	-1	0
24445155	5009	0	0	-100	0	230	101300000	1000	0	0	-1	0
24457715	5015	0	0	-100	0	230	101300000	1000	0	0	-1	0
24470275	5012	0	0	-100	0	230	101300000	1000	0	0	-1	0
24482835	5011	3	0	-100	0	230	101300000	1000	0	0	-1	0
24495395	5017	0	0	-100	0	230	101300000	1000	0	0	-1	0
24507955	5010	0	0	-100	0	230	101300000	1000	0	0	-1	0
24520515	5010	2	0	-100	0	230	101300000	1000	0	0	-1	0
24533075	5021	0	0	-100	0	230	101300000	1000	0	0	-1	0
24545635	5007	0	0	-100	0	230	101300000	1000	0	0	-1	0
24558195	5011	0	0	-100	0	230	101300000	1000	0	0	-1	0
24570755	5017	0	0	-100	0	230	101300000	1000	0	0	-1	0
24583315	5010	0	0	-100	0	230	101300000	1000	0	0	-1	0
24595875	5012	0	0	-100	0	230	101300000	1000	0	0	-1	0
24608435	5018	0	0	-100	0	230	101300000	1000	0	0	-1	0
24620995	5011	0	0	-100	0	230	101300000	1000	0	0	-1	0
24633555	5016	0	0	-100	0	230	101300000	1000	0	0	-1	0
24646115	5010	4	0	-100	0	230	101300000	1000	0	0	-1	0
24658675	5016	0	0	-100	0	230	101300000	1000	0	0	-1	0
24671235	5011	3	0	-100	0	230	101300000	1000	0	0	-1	0
24683795	5021	0	0	-100	0	230	101300000	1000	0	0	-1	0
24696355	5012	0	0	-100	0	230	101300000	1000	0	0	-1	0
24708915	5014	0	0	-100	0	230	101300000	1000	0	0	-1	0
24721475	5013	0	0	-100	0	230	101300000	1000	0	0	-1	0
24734035	5015	1	0	-100	0	230	101300000	1000	0	0	-1	0
24746595	5013	0	0	-100	0	230	101300000	1000	0	0	-1	0
24759155	5010	1	0	-100	0	230	101300000	1000	0	0	-1	0
24771715	5016	0	0	-100	0	230	101300000	1000	0	0	-1	0
24784275	5010	3	0	-100	0	230	101300000	1000	0	0	-1	0
24796835	5017	0	0	-100	0	230	101300000	1000	0	0	-1	0
24809395	5012	0	0	-100	0	230	101300000	1000	0	0	-1	0
24821955	5012	0	0	-100	0	230	101300000	1000	0	0	-1	0
24834515	5010	0	0	-100	0	230	101300000	1000	0	0	-1	0
24847075	5012	0	0	-100	0	230	101300000	1000	0	0	-1	0
24859635	5010	2	0	-100	0	230	101300000	1000	0	0	-1	0
24872195	5018	0	0	-100	0	230	101300000	1000	0	0	-1	0
24884755	5012	1	0	-100	0	230	101300000	1000	0	0	-1	0
24897315	5016	0	0	-100	0	230	101300000	1000	0	0	-1	0
24909875	5012	1	0	-100	0	230	101300000	1000	0	0	-1	0
24922435	5015	0	0	-100	0	230	101300000	1000	0	0	-1	0
24934995	5014	0	0	-100	0	230	101300000	1000	0	0	-1	0
24947555	5012	0	0	-100	0	230	101300000	1000	0	0	-1	0
24960115	5013	0	0	-100	0	230	101300000	1000	0	0	-1	0
24972675	5011	2	0	-100	0	230	101300000	1000	0	0	-1	0
24985235	5015	0	0	-100	0	230	101300000	1000	0	0	-1	0
24997795	5010	0	0	-100	0	230	101300000	1000	0	0	-1	0
25010355	5014	0	0	-100	0	230	101300000	1000	0	0	-1	0
25022915	5013	0	0	-100	0	230	101300000	1000	0	0	-1	0
25035475	5015	2	0	-100	0	230	101300000	1000	0	0	-1	0
25048035	5013	0	0	-100	0	230	101300000	1000	0	0	-1	0
25060595	5011	3	0	-100	0	230	101300000	1000	0	0	-1	0
25073155	5016	0	0	-100	0	230	101300000	1000	0	0	-1	0
25085715	5011	3	0	-100	0	230	101300000	1000	0	0	-1	0
25098275	5014	0	0	-100	0	230	101300000	1000	0	0	-1	0
25110835	5011	3	0	-100	0	230	101300000	1000	0	0	-1	0
25123395	5015	0	0	-100	0	230	101300000	1000	0	0	-1	0
25135955	5016	3	0	-100	0	230	101300000	1000	0	0	-1	0
25148515	5017	0	0	-100	0	230	101300000	1000	0	0	-1	0
25161075	5008	0	0	-100	0	230	101300000	1000	0	0	-1	0
25173635	5021	0	0	-100	0	230	101300000	1000	0	0	-1	0
25186195	5010	0	0	-100	0	230	101300000	1000	0	0	-1	0
25198755	5011	0	0	-100	0	230	101300000	1000	0	0	-1	0
25211315	5017	0	0	-100	0	230	101300000	1000	0	0	-1	0
25223875	5012	2	0	-100	0	230	101300000	1000	0	0	-1	0
25236435	5019	0	0	-100	0	230	101300000	1000	0	0	-1	0
25248995	5011	0	0	-100	0	230	101300000	1000	0	0	-1	0
25261555	5020	0	0	-100	0	230	101300000	1000	0	0	-1	0
25274115	5015	0	0	-100	0	230	101300000	1000	0	0	-1	0
25286675	5008	4	0	-100	0	230	101300000	1000	0	0	-1	0
25299235	5011	0	0	-100	0	230	101300000	1000	0	0	-1	0
25311795	5013	0	0	-100	0	230	101300000	1000	0	0	-1	0
25324355	5011	0	0	-100	0	230	101300000	1000	0	0	-1	0
25336915	5014	4	0	-100	0	230	101300000	1000	0	0	-1	0
25349475	5014	0	0	-100	0	230	101300000	1000	0	0	-1	0
25362035	5018	0	0	-100	0	230	101300000	1000	0	0	-1	0
25374595	5008	0	0	-100	0	230	101300000	1000	0	0	-1	0
25387155	5009	0	0	-100	0	230	101300000	1000	0	0	-1	0
25399715	5018	0	0	-100	0	230	101300000	1000	0	0	-1	0
25412275	5013	0	0	-100	0	230	101300000	1000	0	0	-1	0
25424835	5009	1	0	-100	0	230	101300000	1000	0	0	-1	0
25437395	5019	0	0	-100	0	230	101300000	1000	0	0	-1	0
25449955	5014	0	0	-100	0	230	101300000	1000	0	0	-1	0
25462515	5009	2	0	-100	0	230	101300000	1000	0	0	-1	0
25475075	5019	0	0	-100	0	230	101300000	1000	0	0	-1	0
25487635	5012	0	0	-100	0	230	101300000	1000	0	0	-1	0
25500195	5012	0	0	-100	0	230	101300000	1000	0	0	-1	0
25512755	5018	0	0	-100	0	230	101300000	1000	0	0	-1	0
25525315	5007	0	0	-100	0	230	101300000	1000	0	0	-1	0
25537875	5014	4	0	-100	0	230	101300000	1000	0	0	-1	0
25550435	5019	0	0	-100	0	230	101300000	1000	0	0	-1	0
25562995	5017	0	0	-100	0	230	101300000	1000	0	0	-1	0
25575555	5008	0	0	-100	0	230	101300000	1000	0	0	-1	0
25588115	5009	1	0	-100	0	230	101300000	1000	0	0	-1	0
25600675	5018	0	0	-100	0	230	101300000	1000	0	0	-1	0
25613235	5018	0	0	-100	0	230	101300000	1000	0	0	-1	0
25625795	5006	0	0	-100	0	230	101300000	1000	0	0	-1	0
25638355	5010	2	0	-100	0	230	101300000	1000	0	0	-1	0
25650915	5021	0	0	-100	0	230	101300000	1000	0	0	-1	0
25663475	5016	0	0	-100	0	230	101300000	1000	0	0	-1	0
25676035	5009	0	0	-100	0	230	101300000	1000	0	0	-1	0
25688595	5007	0	0	-100	0	230	101300000	1000	0	0	-1	0
25701155	5018	0	0	-100	0	230	101300000	1000	0	0	-1	0
25713715	5016	0	0	-100	0	230	101300000	1000	0	0	-1	0
25726275	5011	0	0	-100	0	230	101300000	1000	0	0	-1	0
25738835	5012	0	0	-100	0	230	101300000	1000	0	0	-1	0
25751395	5017	0	0	-100	0	230	101300000	1000	0	0	-1	0
25763955	5012	0	0	-100	0	230	101300000	1000	0	0	-1	0
25776515	5015	2	0	-100	0	230	101300000	1000	0	0	-1	0
25789075	5019	0	0	-100	0	230	101300000	1000	0	0	-1	0
25801635	5008	0	0	-100	0	230	101300000	1000	0	0	-1	0
25814195	5012	1	0	-100	0	230	101300000	1000	0	0	-1	0
25826755	5015	0	0	-100	0	230	101300000	1000	0	0	-1	0
25839315	5011	2	0	-100	0	230	101300000	1000	0	0	-1	0
25851875	5018	0	0	-100	0	230	101300000	1000	0	0	-1	0
25864435	5010	3	0	-100	0	230	101300000	1000	0	0	-1	0
25876995	5016	1	0	-100	0	230	101300000	1000	0	0	-1	0
25889555	5010	2	0	-100	0	230	101300000	1000	0	0	-1	0
25902115	5016	0	0	-100	0	230	101300000	1000	0	0	-1	0
25914675	5014	0	0	-100	0	230	101300000	1000	0	0	-1	0
25927235	5017	0	0	-100	0	230	101300000	1000	0	0	-1	0
25939795	5011	0	0	-100	0	230	101300000	1000	0	0	-1	0
25952355	5015	2	0	-100	0	230	101300000	1000	0	0	-1	0
25964915	5012	0	0	-100	0	230	101300000	1000	0	0	-1	0
25977475	5018	0	0	-100	0	230	101300000	1000	0	0	-1	0
25990035	5010	0	0	-100	0	230	101300000	1000	0	0	-1	0
26002595	5012	2	0	-100	0	230	101300000	1000	0	0	-1	0
26015155	5016	0	0	-100	0	230	101300000	1000	0	0	-1	0
26027715	5017	0	0	-100	0	230	101300000	1000	0	0	-1	0
26040275	5016	0	0	-100	0	230	101300000	1000	0	0	-1	0
26052835	5008	0	0	-100	0	230	101300000	1000	0	0	-1	0
26065395	5011	2	0	-100	0	230	101300000	1000	0	0	-1	0
26077955	5018	0	0	-100	0	230	101300000	1000	0	0	-1	0
26090515	5018	0	0	-100	0	230	101300000	1000	0	0	-1	0
26103075	5009	0	0	-100	0	230	101300000	1000	0	0	-1	0
26115635	5014	1	0	-100	0	230	101300000	1000	0	0	-1	0
26128195	5016	0	0	-100	0	230	101300000	1000	0	0	-1	0
26140755	5018	0	0	-100	0	230	101300000	1000	0	0	-1	0
26153315	5013	0	0	-100	0	230	101300000	1000	0	0	-1	0
26165875	5008	3	0	-100	0	230	101300000	1000	0	0	-1	0
26178435	5015	0	0	-100	0	230	101300000	1000	0	0	-1	0
26190995	5016	2	0	-100	0	230	101300000	1000	0	0	-1	0
26203555	5014	0	0	-100	0	230	101300000	1000	0	0	-1	0
26216115	5013	0	0	-100	0	230	101300000	1000	0	0	-1	0
26228675	5009	0	0	-100	0	230	101300000	1000	0	0	-1	0
26241235	5013	0	0	-100	0	230	101300000	1000	0	0	-1	0
26253795	5011	0	0	-100	0	230	101300000	1000	0	0	-1	0
26266355	5007	0	0	-100	0	230	101300000	1000	0	0	-1	0
26278915	5016	0	0	-100	0	230	101300000	1000	0	0	-1	0
26291475	5015	3	0	-100	0	230	101300000	1000	0	0	-1	0
26304035	5018	0	0	-100	0	230	101300000	1000	0	0	-1	0
26316595	5016	0	0	-100	0	230	101300000	1000	0	0	-1	0
26329155	5010	4	0	-100	0	230	101300000	1000	0	0	-1	0
26341715	5014	0	0	-100	0	230	101300000	1000	0	0	-1	0
26354275	5016	0	0	-100	0	230	101300000	1000	0	0	-1	0
26366835	5012	3	0	-100	0	230	101300000	1000	0	0	-1	0
26379395	5014	0	0	-100	0	230	101300000	1000	0	0	-1	0
26391955	5016	0	0	-100	0	230	101300000	1000	0	0	-1	0
26404515	5010	3	0	-100	0	230	101300000	1000	0	0	-1	0
26417075	5020	0	0	-100	0	230	101300000	1000	0	0	-1	0
26429635	5015	0	0	-100	0	230	101300000	1000	0	0	-1	0
26442195	5011	3	0	-100	0	230	101300000	1000	0	0	-1	0
26454755	5019	0	0	-100	0	230	101300000	1000	0	0	-1	0
26467315	5014	0	0	-100	0	230	101300000	1000	0	0	-1	0
26479875	5011	2	0	-100	0	230	101300000	1000	0	0	-1	0
26492435	5017	0	0	-100	0	230	101300000	1000	0	0	-1	0
26504995	5008	0	0	-100	0	230	101300000	1000	0	0	-1	0
26517555	5018	0	0	-100	0	230	101300000	1000	0	0	-1	0
26530115	5010	0	0	-100	0	230	101300000	1000	0	0	-1	0
26542675	5011	0	0	-100	0	230	101300000	1000	0	0	-1	0
26555235	5017	0	0	-100	0	230	101300000	1000	0	0	-1	0
26567795	5011	4	0	-100	0	230	101300000	1000	0	0	-1	0
26580355	5017	0	0	-100	0	230	101300000	1000	0	0	-1	0
26592915	5014	0	0	-100	0	230	101300000	1000	0	0	-1	0
26605475	5012	0	0	-100	0	230	101300000	1000	0	0	-1	0
26618035	5011	0	0	-100	0	230	101300000	1000	0	0	-1	0
26630595	5015	0	0	-100	0	230	101300000	1000	0	0	-1	0
26643155	5011	0	0	-100	0	230	101300000	1000	0	0	-1	0
26655715	5008	0	0	-100	0	230	101300000	1000	0	0	-1	0
26668275	5017	0	0	-100	0	230	101300000	1000	0	0	-1	0
26680835	5010	4	0	-100	0	230	101300000	1000	0	0	-1	0
26693395	5016	0	0	-100	0	230	101300000	1000	0	0	-1	0
26705955	5016	0	0	-100	0	230	101300000	1000	0	0	-1	0
26718515	5011	2	0	-100	0	230	101300000	1000	0	0	-1	0
26731075	5019	0	0	-100	0	230	101300000	1000	0	0	-1	0
26743635	5017	0	0	-100	0	230	101300000	1000	0	0	-1	0
26756195	5018	0	0	-100	0	230	101300000	1000	0	0	-1	0
26768755	5008	0	0	-100	0	230	101300000	1000	0	0	-1	0
26781315	5012	0	0	-100	0	230	101300000	1000	0	0	-1	0
26793875	5015	0	0	-100	0	230	101300000	1000	0	0	-1	0
26806435	5011	1	0	-100	0	230	101300000	1000	0	0	-1	0
26818995	5017	1	0	-100	0	230	101300000	1000	0	0	-1	0
26831555	5016	4	0	-100	0	230	101300000	1000	0	0	-1	0
26844115	5012	0	0	-100	0	230	101300000	1000	0	0	-1	0
26856675	5014	0	0	-100	0	230	101300000	1000	0	0	-1	0
26869235	5012	2	0	-100	0	230	101300000	1000	0	0	-1	0
26881795	5014	0	0	-100	0	230	101300000	1000	0	0	-1	0
26894355	5012	0	0	-100	0	230	101300000	1000	0	0	-1	0
26906915	5008	0	0	-100	0	230	101300000	1000	0	0	-1	0
26919475	5017	0	0	-100	0	230	101300000	1000	0	0	-1	0
26932035	5015	3	0	-100	0	230	101300000	1000	0	0	-1	0
26944595	5012	0	0	-100	0	230	101300000	1000	0	0	-1	0
26957155	5010	0	0	-100	0	230	101300000	1000	0	0	-1	0
26969715	5011	0	0	-100	0	230	101300000	1000	0	0	-1	0
26982275	5015	0	0	-100	0	230	101300000	1000	0	0	-1	0
26994835	5012	0	0	-100	0	230	101300000	1000	0	0	-1	0
27007395	5010	2	0	-100	0	230	101300000	1000	0	0	-1	0
27019955	5014	0	0	-100	0	230	101300000	1000	0	0	-1	0
27032515	5017	0	0	-100	0	230	101300000	1000	0	0	-1	0
27045075	5011	3	0	-100	0	230	101300000	1000	0	0	-1	0
