timestamp	voltage	current	windSpeed	pitchAngle	rpm	temperature	ambientPressure	humidity	accelerationX	accelerationY	accelerationZ	currentSink
7037070	5519	0	0	-100	0	230	101300000	1000	0	0	-1	0
7044523	5508	0	0	-100	0	230	101300000	1000	0	0	-1	0
7057083	5509	0	0	-100	0	230	101300000	1000	0	0	-1	0
7069643	5504	0	0	-100	0	230	101300000	1000	0	0	-1	0
7082203	5509	0	0	-100	0	230	101300000	1000	0	0	-1	0
7094763	5509	0	0	-100	0	230	101300000	1000	0	0	-1	0
7107323	5508	0	0	-100	0	230	101300000	1000	0	0	-1	0
7119883	5509	0	0	-100	0	230	101300000	1000	0	0	-1	0
7132443	5509	0	0	-100	0	230	101300000	1000	0	0	-1	0
7145004	5516	0	0	-100	0	230	101300000	1000	0	0	-1	0
7157563	5502	0	0	-100	0	230	101300000	1000	0	0	-1	0
7170123	5512	0	0	-100	0	230	101300000	1000	0	0	-1	0
7182683	5507	3	0	-100	0	230	101300000	1000	0	0	-1	0
7195243	5504	0	0	-100	0	230	101300000	1000	0	0	-1	0
7207803	5509	0	0	-100	0	230	101300000	1000	0	0	-1	0
7220363	5510	0	0	-100	0	230	101300000	1000	0	0	-1	0
7232923	5513	0	0	-100	0	230	101300000	1000	0	0	-1	0
7245483	5504	1	0	-100	0	230	101300000	1000	0	0	-1	0
7258043	5505	0	0	-100	0	230	101300000	1000	0	0	-1	0
7270603	5512	0	0	-100	0	230	101300000	1000	0	0	-1	0
7283163	5522	0	0	-100	0	230	101300000	1000	0	0	-1	0
7295723	5508	4	0	-100	0	230	101300000	1000	0	0	-1	0
7308283	5508	0	0	-100	0	230	101300000	1000	0	0	-1	0
7320843	5510	0	0	-100	0	230	101300000	1000	0	0	-1	0
7333403	5507	0	0	-100	0	230	101300000	1000	0	0	-1	0
7345963	5506	5	0	-100	0	230	101300000	1000	0	0	-1	0
7701675	5505	4	0	-100	0	230	101300000	1000	0	0	-1	0
7714235	5510	0	0	-100	0	230	101300000	1000	0	0	-1	0
7726795	5511	0	0	-100	0	230	101300000	1000	0	0	-1	0
7739355	5505	1	0	-100	0	230	101300000	1000	0	0	-1	0
7751915	5508	4	0	-100	0	230	101300000	1000	0	0	-1	0
7764475	5505	0	0	-100	0	230	101300000	1000	0	0	-1	0
7777035	5509	0	0	-100	0	230	101300000	1000	0	0	-1	0
7789595	5505	0	0	-100	0	230	101300000	1000	0	0	-1	0
7802155	5508	0	0	-100	0	230	101300000	1000	0	0	-1	0
7814715	5511	0	0	-100	0	230	101300000	1000	0	0	-1	0
7827275	5505	1	0	-100	0	230	101300000	1000	0	0	-1	0
7839835	5500	0	0	-100	0	230	101300000	1000	0	0	-1	0
7852395	5514	0	0	-100	0	230	101300000	1000	0	0	-1	0
7864955	5512	0	0	-100	0	230	101300000	1000	0	0	-1	0
7877515	5504	2	0	-100	0	230	101300000	1000	0	0	-1	0
7890075	5505	0	0	-100	0	230	101300000	1000	0	0	-1	0
7902635	5507	0	0	-100	0	230	101300000	1000	0	0	-1	0
7915195	5513	0	0	-100	0	230	101300000	1000	0	0	-1	0
7927755	5505	1	0	-100	0	230	101300000	1000	0	0	-1	0
7940315	5508	4	0	-100	0	230	101300000	1000	0	0	-1	0
7952875	5505	0	0	-100	0	230	101300000	1000	0	0	-1	0
7965435	5509	0	0	-100	0	230	101300000	1000	0	0	-1	0
7977995	5508	0	0	-100	0	230	101300000	1000	0	0	-1	0
7990555	5507	2	0	-100	0	230	101300000	1000	0	0	-1	0
8003115	5507	0	0	-100	0	230	101300000	1000	0	0	-1	0
8015675	5515	0	0	-100	0	230	101300000	1000	0	0	-1	0
8028235	5506	0	0	-100	0	230	101300000	1000	0	0	-1	0
8040795	5505	4	0	-100	0	230	101300000	1000	0	0	-1	0
8053355	5508	0	0	-100	0	230	101300000	1000	0	0	-1	0
8065915	5511	0	0	-100	0	230	101300000	1000	0	0	-1	0
8078475	5505	2	0	-100	0	230	101300000	1000	0	0	-1	0
8091035	5505	0	0	-100	0	230	101300000	1000	0	0	-1	0
8103595	5509	0	0	-100	0	230	101300000	1000	0	0	-1	0
8116155	5510	1	0	-100	0	230	101300000	1000	0	0	-1	0
8128715	5505	0	0	-100	0	230	101300000	1000	0	0	-1	0
8141275	5509	0	0	-100	0	230	101300000	1000	0	0	-1	0
8153835	5511	0	0	-100	0	230	101300000	1000	0	0	-1	0
8166395	5508	4	0	-100	0	230	101300000	1000	0	0	-1	0
8178955	5511	0	0	-100	0	230	101300000	1000	0	0	-1	0
8191515	5511	0	0	-100	0	230	101300000	1000	0	0	-1	0
8204075	5505	0	0	-100	0	230	101300000	1000	0	0	-1	0
8216635	5511	0	0	-100	0	230	101300000	1000	0	0	-1	0
8229195	5504	0	0	-100	0	230	101300000	1000	0	0	-1	0
8241755	5512	0	0	-100	0	230	101300000	1000	0	0	-1	0
8254315	5508	4	0	-100	0	230	101300000	1000	0	0	-1	0
8266875	5510	0	0	-100	0	230	101300000	1000	0	0	-1	0
8279435	5505	2	0	-100	0	230	101300000	1000	0	0	-1	0
8291995	5511	0	0	-100	0	230	101300000	1000	0	0	-1	0
8304555	5507	3	0	-100	0	230	101300000	1000	0	0	-1	0
8317115	5511	0	0	-100	0	230	101300000	1000	0	0	-1	0
8329675	5508	4	0	-100	0	230	101300000	1000	0	0	-1	0
8342235	5512	0	0	-100	0	230	101300000	1000	0	0	-1	0
8354795	5508	0	0	-100	0	230	101300000	1000	0	0	-1	0
8367355	5514	0	0	-100	0	230	101300000	1000	0	0	-1	0
8379915	5505	0	0	-100	0	230	101300000	1000	0	0	-1	0
8392475	5508	3	0	-100	0	230	101300000	1000	0	0	-1	0
8405035	5509	0	0	-100	0	230	101300000	1000	0	0	-1	0
8417595	5509	4	0	-100	0	230	101300000	1000	0	0	-1	0
8430155	5519	0	0	-100	0	230	101300000	1000	0	0	-1	0
8442715	5510	4	0	-100	0	230	101300000	1000	0	0	-1	0
8455275	5512	0	0	-100	0	230	101300000	1000	0	0	-1	0
8467835	5507	4	0	-100	0	230	101300000	1000	0	0	-1	0
8480395	5516	0	0	-100	0	230	101300000	1000	0	0	-1	0
8492955	5509	4	0	-100	0	230	101300000	1000	0	0	-1	0
8505515	5511	0	0	-100	0	230	101300000	1000	0	0	-1	0
8518075	5509	0	0	-100	0	230	101300000	1000	0	0	-1	0
8530635	5509	4	0	-100	0	230	101300000	1000	0	0	-1	0
8543195	5509	0	0	-100	0	230	101300000	1000	0	0	-1	0
8555755	5508	0	0	-100	0	230	101300000	1000	0	0	-1	0
8568315	5509	0	0	-100	0	230	101300000	1000	0	0	-1	0
8580875	5509	0	0	-100	0	230	101300000	1000	0	0	-1	0
8593435	5509	4	0	-100	0	230	101300000	1000	0	0	-1	0
8605995	5514	4	0	-100	0	230	101300000	1000	0	0	-1	0
8618555	5508	0	0	-100	0	230	101300000	1000	0	0	-1	0
8631115	5505	4	0	-100	0	230	101300000	1000	0	0	-1	0
8643675	5515	0	0	-100	0	230	101300000	1000	0	0	-1	0
8656235	5509	0	0	-100	0	230	101300000	1000	0	0	-1	0
8668795	5507	3	0	-100	0	230	101300000	1000	0	0	-1	0
8681355	5509	0	0	-100	0	230	101300000	1000	0	0	-1	0
8693915	5508	0	0	-100	0	230	101300000	1000	0	0	-1	0
8706475	5511	0	0	-100	0	230	101300000	1000	0	0	-1	0
8719035	5504	0	0	-100	0	230	101300000	1000	0	0	-1	0
8731595	5508	2	0	-100	0	230	101300000	1000	0	0	-1	0
8744155	5520	0	0	-100	0	230	101300000	1000	0	0	-1	0
8756715	5506	0	0	-100	0	230	101300000	1000	0	0	-1	0
8769275	5505	1	0	-100	0	230	101300000	1000	0	0	-1	0
8781835	5509	0	0	-100	0	230	101300000	1000	0	0	-1	0
8794395	5507	4	0	-100	0	230	101300000	1000	0	0	-1	0
8806955	5509	0	0	-100	0	230	101300000	1000	0	0	-1	0
8819515	5507	3	0	-100	0	230	101300000	1000	0	0	-1	0
8832075	5513	0	0	-100	0	230	101300000	1000	0	0	-1	0
8844635	5509	0	0	-100	0	230	101300000	1000	0	0	-1	0
8857195	5508	4	0	-100	0	230	101300000	1000	0	0	-1	0
8869755	5511	0	0	-100	0	230	101300000	1000	0	0	-1	0
8882315	5505	0	0	-100	0	230	101300000	1000	0	0	-1	0
8894875	5506	4	0	-100	0	230	101300000	1000	0	0	-1	0
8907435	5513	0	0	-100	0	230	101300000	1000	0	0	-1	0
8919995	5511	0	0	-100	0	230	101300000	1000	0	0	-1	0
8932555	5506	0	0	-100	0	230	101300000	1000	0	0	-1	0
8945115	5504	4	0	-100	0	230	101300000	1000	0	0	-1	0
8957675	5514	0	0	-100	0	230	101300000	1000	0	0	-1	0
8970235	5512	0	0	-100	0	230	101300000	1000	0	0	-1	0
8982795	5509	0	0	-100	0	230	101300000	1000	0	0	-1	0
8995355	5505	2	0	-100	0	230	101300000	1000	0	0	-1	0
9007915	5516	0	0	-100	0	230	101300000	1000	0	0	-1	0
9020475	5509	0	0	-100	0	230	101300000	1000	0	0	-1	0
9033035	5506	0	0	-100	0	230	101300000	1000	0	0	-1	0
9045595	5504	4	0	-100	0	230	101300000	1000	0	0	-1	0
9058155	5515	0	0	-100	0	230	101300000	1000	0	0	-1	0
9070715	5511	0	0	-100	0	230	101300000	1000	0	0	-1	0
9083275	5512	0	0	-100	0	230	101300000	1000	0	0	-1	0
9095835	5506	0	0	-100	0	230	101300000	1000	0	0	-1	0
9108395	5505	4	0	-100	0	230	101300000	1000	0	0	-1	0
9120955	5516	0	0	-100	0	230	101300000	1000	0	0	-1	0
9133515	5512	0	0	-100	0	230	101300000	1000	0	0	-1	0
9146075	5509	4	0	-100	0	230	101300000	1000	0	0	-1	0
9158635	5510	0	0	-100	0	230	101300000	1000	0	0	-1	0
9171195	5513	0	0	-100	0	230	101300000	1000	0	0	-1	0
9183755	5501	0	0	-100	0	230	101300000	1000	0	0	-1	0
9196315	5508	2	0	-100	0	230	101300000	1000	0	0	-1	0
9208875	5513	0	0	-100	0	230	101300000	1000	0	0	-1	0
9221435	5506	0	0	-100	0	230	101300000	1000	0	0	-1	0
9233995	5513	4	0	-100	0	230	101300000	1000	0	0	-1	0
9246555	5511	0	0	-100	0	230	101300000	1000	0	0	-1	0
9259115	5502	0	0	-100	0	230	101300000	1000	0	0	-1	0
9271675	5507	3	0	-100	0	230	101300000	1000	0	0	-1	0
9284235	5508	0	0	-100	0	230	101300000	1000	0	0	-1	0
9296795	5508	0	0	-100	0	230	101300000	1000	0	0	-1	0
9309355	5504	0	0	-100	0	230	101300000	1000	0	0	-1	0
9321915	5504	3	0	-100	0	230	101300000	1000	0	0	-1	0
9334475	5513	0	0	-100	0	230	101300000	1000	0	0	-1	0
9347035	5506	0	0	-100	0	230	101300000	1000	0	0	-1	0
9359595	5505	4	0	-100	0	230	101300000	1000	0	0	-1	0
9372155	5515	0	0	-100	0	230	101300000	1000	0	0	-1	0
9384715	5507	0	0	-100	0	230	101300000	1000	0	0	-1	0
9397275	5510	0	0	-100	0	230	101300000	1000	0	0	-1	0
9409835	5506	0	0	-100	0	230	101300000	1000	0	0	-1	0
9422395	5503	3	0	-100	0	230	101300000	1000	0	0	-1	0
9434955	5513	0	0	-100	0	230	101300000	1000	0	0	-1	0
9447515	5510	0	0	-100	0	230	101300000	1000	0	0	-1	0
9460075	5514	2	0	-100	0	230	101300000	1000	0	0	-1	0
9472635	5505	0	0	-100	0	230	101300000	1000	0	0	-1	0
9485195	5511	0	0	-100	0	230	101300000	1000	0	0	-1	0
9497755	5509	0	0	-100	0	230	101300000	1000	0	0	-1	0
9510315	5508	4	0	-100	0	230	101300000	1000	0	0	-1	0
9522875	5511	0	0	-100	0	230	101300000	1000	0	0	-1	0
9535435	5511	0	0	-100	0	230	101300000	1000	0	0	-1	0
9547995	5504	0	0	-100	0	230	101300000	1000	0	0	-1	0
9560555	5508	1	0	-100	0	230	101300000	1000	0	0	-1	0
9573115	5515	0	0	-100	0	230	101300000	1000	0	0	-1	0
9585675	5511	0	0	-100	0	230	101300000	1000	0	0	-1	0
9598235	5508	3	0	-100	0	230	101300000	1000	0	0	-1	0
9610795	5509	0	0	-100	0	230	101300000	1000	0	0	-1	0
9623355	5510	0	0	-100	0	230	101300000	1000	0	0	-1	0
9635915	5508	0	0	-100	0	230	101300000	1000	0	0	-1	0
9648475	5508	4	0	-100	0	230	101300000	1000	0	0	-1	0
9661035	5507	0	0	-100	0	230	101300000	1000	0	0	-1	0
9673595	5509	0	0	-100	0	230	101300000	1000	0	0	-1	0
9686155	5510	0	0	-100	0	230	101300000	1000	0	0	-1	0
9698715	5508	0	0	-100	0	230	101300000	1000	0	0	-1	0
9711275	5512	0	0	-100	0	230	101300000	1000	0	0	-1	0
9723835	5505	0	0	-100	0	230	101300000	1000	0	0	-1	0
9736395	5505	1	0	-100	0	230	101300000	1000	0	0	-1	0
9748955	5514	0	0	-100	0	230	101300000	1000	0	0	-1	0
9761515	5505	0	0	-100	0	230	101300000	1000	0	0	-1	0
9774075	5509	4	0	-100	0	230	101300000	1000	0	0	-1	0
9786635	5508	0	0	-100	0	230	101300000	1000	0	0	-1	0
9799195	5512	0	0	-100	0	230	101300000	1000	0	0	-1	0
9811755	5508	0	0	-100	0	230	101300000	1000	0	0	-1	0
9824315	5504	4	0	-100	0	230	101300000	1000	0	0	-1	0
9836875	5515	0	0	-100	0	230	101300000	1000	0	0	-1	0
9849435	5504	0	0	-100	0	230	101300000	1000	0	0	-1	0
9861995	5509	0	0	-100	0	230	101300000	1000	0	0	-1	0
9874555	5515	0	0	-100	0	230	101300000	1000	0	0	-1	0
9887115	5504	0	0	-100	0	230	101300000	1000	0	0	-1	0
9899675	5506	0	0	-100	0	230	101300000	1000	0	0	-1	0
9912235	5511	0	0	-100	0	230	101300000	1000	0	0	-1	0
9924795	5504	0	0	-100	0	230	101300000	1000	0	0	-1	0
9937355	5505	2	0	-100	0	230	101300000	1000	0	0	-1	0
9949915	5515	0	0	-100	0	230	101300000	1000	0	0	-1	0
9962475	5507	0	0	-100	0	230	101300000	1000	0	0	-1	0
9975035	5508	1	0	-100	0	230	101300000	1000	0	0	-1	0
9987595	5510	0	0	-100	0	230	101300000	1000	0	0	-1	0
10000155	5514	0	0	-100	0	230	101300000	1000	0	0	-1	0
10012715	5509	3	0	-100	0	230	101300000	1000	0	0	-1	0
10025275	5513	0	0	-100	0	230	101300000	1000	0	0	-1	0
10037835	5514	0	0	-100	0	230	101300000	1000	0	0	-1	0
10050395	5505	0	0	-100	0	230	101300000	1000	0	0	-1	0
10062955	5508	3	0	-100	0	230	101300000	1000	0	0	-1	0
10075515	5508	1	0	-100	0	230	101300000	1000	0	0	-1	0
10088075	5512	0	0	-100	0	230	101300000	1000	0	0	-1	0
10100635	5509	0	0	-100	0	230	101300000	1000	0	0	-1	0
10113195	5508	4	0	-100	0	230	101300000	1000	0	0	-1	0
10125755	5518	0	0	-100	0	230	101300000	1000	0	0	-1	0
10138315	5508	0	0	-100	0	230	101300000	1000	0	0	-1	0
10150875	5508	4	0	-100	0	230	101300000	1000	0	0	-1	0
10163435	5511	0	0	-100	0	230	101300000	1000	0	0	-1	0
10175995	5514	0	0	-100	0	230	101300000	1000	0	0	-1	0
10188555	5505	4	0	-100	0	230	101300000	1000	0	0	-1	0
10201115	5511	0	0	-100	0	230	101300000	1000	0	0	-1	0
10213675	5506	0	0	-100	0	230	101300000	1000	0	0	-1	0
10226235	5505	3	0	-100	0	230	101300000	1000	0	0	-1	0
10238795	5509	0	0	-100	0	230	101300000	1000	0	0	-1	0
10251355	5506	0	0	-100	0	230	101300000	1000	0	0	-1	0
10263915	5507	3	0	-100	0	230	101300000	1000	0	0	-1	0
10276475	5515	0	0	-100	0	230	101300000	1000	0	0	-1	0
10289035	5509	0	0	-100	0	230	101300000	1000	0	0	-1	0
10301595	5504	4	0	-100	0	230	101300000	1000	0	0	-1	0
10314155	5520	0	0	-100	0	230	101300000	1000	0	0	-1	0
10326715	5507	4	0	-100	0	230	101300000	1000	0	0	-1	0
10339275	5514	0	0	-100	0	230	101300000	1000	0	0	-1	0
10351835	5511	0	0	-100	0	230	101300000	1000	0	0	-1	0
10364395	5509	0	0	-100	0	230	101300000	1000	0	0	-1	0
10376955	5511	0	0	-100	0	230	101300000	1000	0	0	-1	0
10389515	5509	3	0	-100	0	230	101300000	1000	0	0	-1	0
10402075	5513	0	0	-100	0	230	101300000	1000	0	0	-1	0
10414635	5510	0	0	-100	0	230	101300000	1000	0	0	-1	0
10427195	5507	3	0	-100	0	230	101300000	1000	0	0	-1	0
10439755	5512	0	0	-100	0	230	101300000	1000	0	0	-1	0
10452315	5509	0	0	-100	0	230	101300000	1000	0	0	-1	0
10464875	5504	1	0	-100	0	230	101300000	1000	0	0	-1	0
10477435	5512	0	0	-100	0	230	101300000	1000	0	0	-1	0
10489995	5505	0	0	-100	0	230	101300000	1000	0	0	-1	0
10502555	5512	0	0	-100	0	230	101300000	1000	0	0	-1	0
10515115	5507	3	0	-100	0	230	101300000	1000	0	0	-1	0
10527675	5516	0	0	-100	0	230	101300000	1000	0	0	-1	0
10540235	5504	0	0	-100	0	230	101300000	1000	0	0	-1	0
10552795	5519	0	0	-100	0	230	101300000	1000	0	0	-1	0
10565355	5507	4	0	-100	0	230	101300000	1000	0	0	-1	0
10577915	5511	0	0	-100	0	230	101300000	1000	0	0	-1	0
10590475	5507	2	0	-100	0	230	101300000	1000	0	0	-1	0
10603035	5507	0	0	-100	0	230	101300000	1000	0	0	-1	0
10615595	5509	0	0	-100	0	230	101300000	1000	0	0	-1	0
10628155	5511	0	0	-100	0	230	101300000	1000	0	0	-1	0
10640715	5512	0	0	-100	0	230	101300000	1000	0	0	-1	0
10653275	5508	1	0	-100	0	230	101300000	1000	0	0	-1	0
10665835	5504	0	0	-100	0	230	101300000	1000	0	0	-1	0
10678395	5511	0	0	-100	0	230	101300000	1000	0	0	-1	0
10690955	5508	0	0	-100	0	230	101300000	1000	0	0	-1	0
10703515	5511	0	0	-100	0	230	101300000	1000	0	0	-1	0
10716075	5504	0	0	-100	0	230	101300000	1000	0	0	-1	0
10728635	5512	0	0	-100	0	230	101300000	1000	0	0	-1	0
10741195	5507	0	0	-100	0	230	101300000	1000	0	0	-1	0
10753755	5512	0	0	-100	0	230	101300000	1000	0	0	-1	0
10766315	5505	5	0	-100	0	230	101300000	1000	0	0	-1	0
10778875	5509	0	0	-100	0	230	101300000	1000	0	0	-1	0
10791435	5507	0	0	-100	0	230	101300000	1000	0	0	-1	0
10803995	5516	5	0	-100	0	230	101300000	1000	0	0	-1	0
10816555	5509	3	0	-100	0	230	101300000	1000	0	0	-1	0
10829115	5511	0	0	-100	0	230	101300000	1000	0	0	-1	0
10841675	5504	4	0	-100	0	230	101300000	1000	0	0	-1	0
10854235	5513	0	0	-100	0	230	101300000	1000	0	0	-1	0
10866795	5507	3	0	-100	0	230	101300000	1000	0	0	-1	0
10879355	5511	0	0	-100	0	230	101300000	1000	0	0	-1	0
10891915	5509	2	0	-100	0	230	101300000	1000	0	0	-1	0
10904475	5510	0	0	-100	0	230	101300000	1000	0	0	-1	0
10917035	5505	2	0	-100	0	230	101300000	1000	0	0	-1	0
10929595	5508	0	0	-100	0	230	101300000	1000	0	0	-1	0
10942155	5509	0	0	-100	0	230	101300000	1000	0	0	-1	0
10954715	5510	0	0	-100	0	230	101300000	1000	0	0	-1	0
10967275	5505	2	0	-100	0	230	101300000	1000	0	0	-1	0
10979835	5511	0	0	-100	0	230	101300000	1000	0	0	-1	0
10992395	5508	4	0	-100	0	230	101300000	1000	0	0	-1	0
11004955	5509	0	0	-100	0	230	101300000	1000	0	0	-1	0
11017515	5508	5	0	-100	0	230	101300000	1000	0	0	-1	0
11030075	5512	0	0	-100	0	230	101300000	1000	0	0	-1	0
11042635	5505	0	0	-100	0	230	101300000	1000	0	0	-1	0
11055195	5514	0	0	-100	0	230	101300000	1000	0	0	-1	0
11067755	5509	0	0	-100	0	230	101300000	1000	0	0	-1	0
11080315	5506	1	0	-100	0	230	101300000	1000	0	0	-1	0
11092875	5511	0	0	-100	0	230	101300000	1000	0	0	-1	0
11105435	5508	4	0	-100	0	230	101300000	1000	0	0	-1	0
11117995	5515	4	0	-100	0	230	101300000	1000	0	0	-1	0
11130555	5507	4	0	-100	0	230	101300000	1000	0	0	-1	0
11143115	5509	0	0	-100	0	230	101300000	1000	0	0	-1	0
11155675	5508	0	0	-100	0	230	101300000	1000	0	0	-1	0
11168235	5507	0	0	-100	0	230	101300000	1000	0	0	-1	0
11180795	5511	0	0	-100	0	230	101300000	1000	0	0	-1	0
11193355	5508	0	0	-100	0	230	101300000	1000	0	0	-1	0
11205915	5505	0	0	-100	0	230	101300000	1000	0	0	-1	0
11218475	5509	0	0	-100	0	230	101300000	1000	0	0	-1	0
11231035	5507	0	0	-100	0	230	101300000	1000	0	0	-1	0
11243595	5504	0	0	-100	0	230	101300000	1000	0	0	-1	0
11256155	5517	0	0	-100	0	230	101300000	1000	0	0	-1	0
11268715	5508	4	0	-100	0	230	101300000	1000	0	0	-1	0
11281275	5510	0	0	-100	0	230	101300000	1000	0	0	-1	0
11293835	5511	0	0	-100	0	230	101300000	1000	0	0	-1	0
11306395	5507	4	0	-100	0	230	101300000	1000	0	0	-1	0
11318955	5510	0	0	-100	0	230	101300000	1000	0	0	-1	0
11331515	5511	0	0	-100	0	230	101300000	1000	0	0	-1	0
11344075	5503	0	0	-100	0	230	101300000	1000	0	0	-1	0
11356635	5511	0	0	-100	0	230	101300000	1000	0	0	-1	0
11369195	5507	1	0	-100	0	230	101300000	1000	0	0	-1	0
11381755	5501	0	0	-100	0	230	101300000	1000	0	0	-1	0
11394315	5515	0	0	-100	0	230	101300000	1000	0	0	-1	0
11406875	5507	2	0	-100	0	230	101300000	1000	0	0	-1	0
11419435	5504	0	0	-100	0	230	101300000	1000	0	0	-1	0
11431995	5516	3	0	-100	0	230	101300000	1000	0	0	-1	0
11444555	5505	0	0	-100	0	230	101300000	1000	0	0	-1	0
11457115	5511	0	0	-100	0	230	101300000	1000	0	0	-1	0
11469675	5505	0	0	-100	0	230	101300000	1000	0	0	-1	0
11482235	5513	0	0	-100	0	230	101300000	1000	0	0	-1	0
11494795	5506	0	0	-100	0	230	101300000	1000	0	0	-1	0
11507355	5514	0	0	-100	0	230	101300000	1000	0	0	-1	0
11519915	5505	0	0	-100	0	230	101300000	1000	0	0	-1	0
11532475	5516	0	0	-100	0	230	101300000	1000	0	0	-1	0
11545035	5511	1	0	-100	0	230	101300000	1000	0	0	-1	0
11557595	5511	0	0	-100	0	230	101300000	1000	0	0	-1	0
11570155	5517	3	0	-100	0	230	101300000	1000	0	0	-1	0
11582715	5509	0	0	-100	0	230	101300000	1000	0	0	-1	0
11595275	5511	0	0	-100	0	230	101300000	1000	0	0	-1	0
11607835	5508	0	0	-100	0	230	101300000	1000	0	0	-1	0
11620395	5504	0	0	-100	0	230	101300000	1000	0	0	-1	0
11632955	5514	0	0	-100	0	230	101300000	1000	0	0	-1	0
11645515	5505	1	0	-100	0	230	101300000	1000	0	0	-1	0
11658075	5509	0	0	-100	0	230	101300000	1000	0	0	-1	0
11670635	5509	0	0	-100	0	230	101300000	1000	0	0	-1	0
11683195	5504	0	0	-100	0	230	101300000	1000	0	0	-1	0
11695755	5512	0	0	-100	0	230	101300000	1000	0	0	-1	0
11708315	5508	4	0	-100	0	230	101300000	1000	0	0	-1	0
11720875	5512	0	0	-100	0	230	101300000	1000	0	0	-1	0
11733435	5508	4	0	-100	0	230	101300000	1000	0	0	-1	0
11745995	5507	0	0	-100	0	230	101300000	1000	0	0	-1	0
11758555	5503	4	0	-100	0	230	101300000	1000	0	0	-1	0
11771115	5509	0	0	-100	0	230	101300000	1000	0	0	-1	0
11783675	5505	0	0	-100	0	230	101300000	1000	0	0	-1	0
11796235	5505	0	0	-100	0	230	101300000	1000	0	0	-1	0
11808795	5512	0	0	-100	0	230	101300000	1000	0	0	-1	0
11821355	5507	3	0	-100	0	230	101300000	1000	0	0	-1	0
11833915	5515	0	0	-100	0	230	101300000	1000	0	0	-1	0
11846475	5507	4	0	-100	0	230	101300000	1000	0	0	-1	0
11859035	5509	0	0	-100	0	230	101300000	1000	0	0	-1	0
11871595	5509	4	0	-100	0	230	101300000	1000	0	0	-1	0
11884155	5515	0	0	-100	0	230	101300000	1000	0	0	-1	0
11896715	5511	3	0	-100	0	230	101300000	1000	0	0	-1	0
11909275	5509	0	0	-100	0	230	101300000	1000	0	0	-1	0
11921835	5503	2	0	-100	0	230	101300000	1000	0	0	-1	0
11934395	5510	0	0	-100	0	230	101300000	1000	0	0	-1	0
11946955	5508	0	0	-100	0	230	101300000	1000	0	0	-1	0
11959515	5504	0	0	-100	0	230	101300000	1000	0	0	-1	0
11972075	5513	0	0	-100	0	230	101300000	1000	0	0	-1	0
11984635	5504	4	0	-100	0	230	101300000	1000	0	0	-1	0
11997195	5512	0	0	-100	0	230	101300000	1000	0	0	-1	0
12009755	5503	4	0	-100	0	230	101300000	1000	0	0	-1	0
12022315	5505	0	0	-100	0	230	101300000	1000	0	0	-1	0
12034875	5506	1	0	-100	0	230	101300000	1000	0	0	-1	0
12047435	5505	0	0	-100	0	230	101300000	1000	0	0	-1	0
12059995	5509	0	0	-100	0	230	101300000	1000	0	0	-1	0
12072555	5509	0	0	-100	0	230	101300000	1000	0	0	-1	0
12085115	5508	2	0	-100	0	230	101300000	1000	0	0	-1	0
12097675	5513	0	0	-100	0	230	101300000	1000	0	0	-1	0
12110235	5508	0	0	-100	0	230	101300000	1000	0	0	-1	0
12122795	5507	4	0	-100	0	230	101300000	1000	0	0	-1	0
12135355	5514	0	0	-100	0	230	101300000	1000	0	0	-1	0
12147915	5507	0	0	-100	0	230	101300000	1000	0	0	-1	0
12160475	5510	3	0	-100	0	230	101300000	1000	0	0	-1	0
12173035	5511	0	0	-100	0	230	101300000	1000	0	0	-1	0
12185595	5506	0	0	-100	0	230	101300000	1000	0	0	-1	0
12198155	5514	0	0	-100	0	230	101300000	1000	0	0	-1	0
12210715	5512	0	0	-100	0	230	101300000	1000	0	0	-1	0
12223275	5504	3	0	-100	0	230	101300000	1000	0	0	-1	0
12235835	5515	0	0	-100	0	230	101300000	1000	0	0	-1	0
12248395	5508	4	0	-100	0	230	101300000	1000	0	0	-1	0
12260955	5509	0	0	-100	0	230	101300000	1000	0	0	-1	0
12273515	5505	0	0	-100	0	230	101300000	1000	0	0	-1	0
12286075	5508	0	0	-100	0	230	101300000	1000	0	0	-1	0
12298635	5510	0	0	-100	0	230	101300000	1000	0	0	-1	0
12311195	5507	2	0	-100	0	230	101300000	1000	0	0	-1	0
12323755	5511	0	0	-100	0	230	101300000	1000	0	0	-1	0
12336315	5511	3	0	-100	0	230	101300000	1000	0	0	-1	0
12348875	5509	0	0	-100	0	230	101300000	1000	0	0	-1	0
12361435	5508	3	0	-100	0	230	101300000	1000	0	0	-1	0
12373995	5513	4	0	-100	0	230	101300000	1000	0	0	-1	0
12386555	5507	0	0	-100	0	230	101300000	1000	0	0	-1	0
12399115	5512	0	0	-100	0	230	101300000	1000	0	0	-1	0
12411675	5502	0	0	-100	0	230	101300000	1000	0	0	-1	0
12424235	5505	0	0	-100	0	230	101300000	1000	0	0	-1	0
12436795	5511	0	0	-100	0	230	101300000	1000	0	0	-1	0
12449355	5508	0	0	-100	0	230	101300000	1000	0	0	-1	0
12461915	5502	0	0	-100	0	230	101300000	1000	0	0	-1	0
12474475	5509	0	0	-100	0	230	101300000	1000	0	0	-1	0
12487035	5509	0	0	-100	0	230	101300000	1000	0	0	-1	0
12499595	5504	2	0	-100	0	230	101300000	1000	0	0	-1	0
12512155	5517	0	0	-100	0	230	101300000	1000	0	0	-1	0
12524715	5504	4	0	-100	0	230	101300000	1000	0	0	-1	0
12537275	5515	0	0	-100	0	230	101300000	1000	0	0	-1	0
12549835	5506	0	0	-100	0	230	101300000	1000	0	0	-1	0
12562395	5508	0	0	-100	0	230	101300000	1000	0	0	-1	0
12574955	5512	0	0	-100	0	230	101300000	1000	0	0	-1	0
12587515	5508	2	0	-100	0	230	101300000	1000	0	0	-1	0
12600075	5511	0	0	-100	0	230	101300000	1000	0	0	-1	0
12612635	5509	4	0	-100	0	230	101300000	1000	0	0	-1	0
12625195	5509	0	0	-100	0	230	101300000	1000	0	0	-1	0
12637755	5504	0	0	-100	0	230	101300000	1000	0	0	-1	0
12650315	5502	3	0	-100	0	230	101300000	1000	0	0	-1	0
12662875	5509	0	0	-100	0	230	101300000	1000	0	0	-1	0
12675435	5509	4	0	-100	0	230	101300000	1000	0	0	-1	0
12687995	5512	4	0	-100	0	230	101300000	1000	0	0	-1	0
12700555	5508	0	0	-100	0	230	101300000	1000	0	0	-1	0
12713115	5505	3	0	-100	0	230	101300000	1000	0	0	-1	0
12725675	5509	0	0	-100	0	230	101300000	1000	0	0	-1	0
12738235	5506	0	0	-100	0	230	101300000	1000	0	0	-1	0
12750795	5506	4	0	-100	0	230	101300000	1000	0	0	-1	0
12763355	5512	0	0	-100	0	230	101300000	1000	0	0	-1	0
12775915	5508	0	0	-100	0	230	101300000	1000	0	0	-1	0
12788475	5509	1	0	-100	0	230	101300000	1000	0	0	-1	0
12801035	5511	0	0	-100	0	230	101300000	1000	0	0	-1	0
12813595	5506	0	0	-100	0	230	101300000	1000	0	0	-1	0
12826155	5514	2	0	-100	0	230	101300000	1000	0	0	-1	0
12838715	5509	0	0	-100	0	230	101300000	1000	0	0	-1	0
12851275	5512	0	0	-100	0	230	101300000	1000	0	0	-1	0
12863835	5510	0	0	-100	0	230	101300000	1000	0	0	-1	0
12876395	5510	4	0	-100	0	230	101300000	1000	0	0	-1	0
12888955	5508	0	0	-100	0	230	101300000	1000	0	0	-1	0
12901515	5507	0	0	-100	0	230	101300000	1000	0	0	-1	0
12914075	5511	3	0	-100	0	230	101300000	1000	0	0	-1	0
12926635	5509	1	0	-100	0	230	101300000	1000	0	0	-1	0
12939195	5513	0	0	-100	0	230	101300000	1000	0	0	-1	0
12951755	5505	0	0	-100	0	230	101300000	1000	0	0	-1	0
12964315	5515	0	0	-100	0	230	101300000	1000	0	0	-1	0
12976875	5505	0	0	-100	0	230	101300000	1000	0	0	-1	0
12989435	5512	0	0	-100	0	230	101300000	1000	0	0	-1	0
13001995	5503	0	0	-100	0	230	101300000	1000	0	0	-1	0
13014555	5511	0	0	-100	0	230	101300000	1000	0	0	-1	0
13027115	5508	0	0	-100	0	230	101300000	1000	0	0	-1	0
13039675	5509	1	0	-100	0	230	101300000	1000	0	0	-1	0
13052235	5507	0	0	-100	0	230	101300000	1000	0	0	-1	0
13064795	5499	1	0	-100	0	230	101300000	1000	0	0	-1	0
13077355	5509	0	0	-100	0	230	101300000	1000	0	0	-1	0
13089915	5509	2	0	-100	0	230	101300000	1000	0	0	-1	0
13102475	5507	0	0	-100	0	230	101300000	1000	0	0	-1	0
13115035	5508	3	0	-100	0	230	101300000	1000	0	0	-1	0
13127595	5509	0	0	-100	0	230	101300000	1000	0	0	-1	0
13140155	5514	2	0	-100	0	230	101300000	1000	0	0	-1	0
13152715	5509	0	0	-100	0	230	101300000	1000	0	0	-1	0
13165275	5506	1	0	-100	0	230	101300000	1000	0	0	-1	0
13177835	5509	0	0	-100	0	230	101300000	1000	0	0	-1	0
13190395	5507	2	0	-100	0	230	101300000	1000	0	0	-1	0
13202955	5512	0	0	-100	0	230	101300000	1000	0	0	-1	0
13215515	5509	0	0	-100	0	230	101300000	1000	0	0	-1	0
13228075	5511	0	0	-100	0	230	101300000	1000	0	0	-1	0
13240635	5505	0	0	-100	0	230	101300000	1000	0	0	-1	0
13253195	5507	2	0	-100	0	230	101300000	1000	0	0	-1	0
13265755	5510	0	0	-100	0	230	101300000	1000	0	0	-1	0
13278315	5507	0	0	-100	0	230	101300000	1000	0	0	-1	0
13290875	5509	0	0	-100	0	230	101300000	1000	0	0	-1	0
13303435	5507	3	0	-100	0	230	101300000	1000	0	0	-1	0
13315995	5513	1	0	-100	0	230	101300000	1000	0	0	-1	0
13328555	5507	4	0	-100	0	230	101300000	1000	0	0	-1	0
13341115	5508	0	0	-100	0	230	101300000	1000	0	0	-1	0
13353675	5505	0	0	-100	0	230	101300000	1000	0	0	-1	0
13366235	5511	0	0	-100	0	230	101300000	1000	0	0	-1	0
13378795	5503	0	0	-100	0	230	101300000	1000	0	0	-1	0
13391355	5514	0	0	-100	0	230	101300000	1000	0	0	-1	0
13403915	5504	0	0	-100	0	230	101300000	1000	0	0	-1	0
13416475	5508	2	0	-100	0	230	101300000	1000	0	0	-1	0
13429035	5511	0	0	-100	0	230	101300000	1000	0	0	-1	0
13441595	5511	2	0	-100	0	230	101300000	1000	0	0	-1	0
13454155	5520	0	0	-100	0	230	101300000	1000	0	0	-1	0
13466715	5507	0	0	-100	0	230	101300000	1000	0	0	-1	0
13479275	5512	0	0	-100	0	230	101300000	1000	0	0	-1	0
13491835	5505	0	0	-100	0	230	101300000	1000	0	0	-1	0
13504395	5508	0	0	-100	0	230	101300000	1000	0	0	-1	0
13516955	5507	0	0	-100	0	230	101300000	1000	0	0	-1	0
13529515	5505	2	0	-100	0	230	101300000	1000	0	0	-1	0
13542075	5508	0	0	-100	0	230	101300000	1000	0	0	-1	0
13554635	5506	2	0	-100	0	230	101300000	1000	0	0	-1	0
13567195	5514	0	0	-100	0	230	101300000	1000	0	0	-1	0
13579755	5507	3	0	-100	0	230	101300000	1000	0	0	-1	0
13592315	5515	0	0	-100	0	230	101300000	1000	0	0	-1	0
13604875	5504	0	0	-100	0	230	101300000	1000	0	0	-1	0
13617435	5509	0	0	-100	0	230	101300000	1000	0	0	-1	0
13629995	5508	0	0	-100	0	230	101300000	1000	0	0	-1	0
13642555	5505	1	0	-100	0	230	101300000	1000	0	0	-1	0
13655115	5514	0	0	-100	0	230	101300000	1000	0	0	-1	0
13667675	5503	2	0	-100	0	230	101300000	1000	0	0	-1	0
13680235	5507	0	0	-100	0	230	101300000	1000	0	0	-1	0
13692795	5508	4	0	-100	0	230	101300000	1000	0	0	-1	0
13705355	5511	0	0	-100	0	230	101300000	1000	0	0	-1	0
13717915	5506	4	0	-100	0	230	101300000	1000	0	0	-1	0
13730475	5509	0	0	-100	0	230	101300000	1000	0	0	-1	0
13743035	5508	3	0	-100	0	230	101300000	1000	0	0	-1	0
13755595	5515	0	0	-100	0	230	101300000	1000	0	0	-1	0
13768155	5511	3	0	-100	0	230	101300000	1000	0	0	-1	0
13780715	5514	0	0	-100	0	230	101300000	1000	0	0	-1	0
13793275	5506	0	0	-100	0	230	101300000	1000	0	0	-1	0
13805835	5507	1	0	-100	0	230	101300000	1000	0	0	-1	0
13818395	5511	0	0	-100	0	230	101300000	1000	0	0	-1	0
13830955	5504	2	0	-100	0	230	101300000	1000	0	0	-1	0
13843515	5511	0	0	-100	0	230	101300000	1000	0	0	-1	0
13856075	5508	2	0	-100	0	230	101300000	1000	0	0	-1	0
13868635	5511	0	0	-100	0	230	101300000	1000	0	0	-1	0
13881195	5503	1	0	-100	0	230	101300000	1000	0	0	-1	0
13893755	5510	0	0	-100	0	230	101300000	1000	0	0	-1	0
13906315	5505	2	0	-100	0	230	101300000	1000	0	0	-1	0
13918875	5510	0	0	-100	0	230	101300000	1000	0	0	-1	0
13931435	5506	4	0	-100	0	230	101300000	1000	0	0	-1	0
13943995	5510	1	0	-100	0	230	101300000	1000	0	0	-1	0
13956555	5509	3	0	-100	0	230	101300000	1000	0	0	-1	0
13969115	5511	0	0	-100	0	230	101300000	1000	0	0	-1	0
13981675	5504	1	0	-100	0	230	101300000	1000	0	0	-1	0
13994235	5503	0	0	-100	0	230	101300000	1000	0	0	-1	0
14006795	5511	0	0	-100	0	230	101300000	1000	0	0	-1	0
14019355	5505	0	0	-100	0	230	101300000	1000	0	0	-1	0
14031915	5511	0	0	-100	0	230	101300000	1000	0	0	-1	0
14044475	5503	3	0	-100	0	230	101300000	1000	0	0	-1	0
14057035	5510	0	0	-100	0	230	101300000	1000	0	0	-1	0
14069595	5507	1	0	-100	0	230	101300000	1000	0	0	-1	0
14082155	5516	0	0	-100	0	230	101300000	1000	0	0	-1	0
14094715	5507	2	0	-100	0	230	101300000	1000	0	0	-1	0
14107275	5512	0	0	-100	0	230	101300000	1000	0	0	-1	0
14119835	5503	1	0	-100	0	230	101300000	1000	0	0	-1	0
14132395	5510	0	0	-100	0	230	101300000	1000	0	0	-1	0
14144955	5509	0	0	-100	0	230	101300000	1000	0	0	-1	0
14157515	5504	0	0	-100	0	230	101300000	1000	0	0	-1	0
14170075	5511	0	0	-100	0	230	101300000	1000	0	0	-1	0
14182635	5505	0	0	-100	0	230	101300000	1000	0	0	-1	0
14195195	5508	3	0	-100	0	230	101300000	1000	0	0	-1	0
14207755	5512	0	0	-100	0	230	101300000	1000	0	0	-1	0
14220315	5511	5	0	-100	0	230	101300000	1000	0	0	-1	0
14232875	5516	0	0	-100	0	230	101300000	1000	0	0	-1	0
14245435	5504	0	0	-100	0	230	101300000	1000	0	0	-1	0
14257995	5509	1	0	-100	0	230	101300000	1000	0	0	-1	0
14270555	5510	0	0	-100	0	230	101300000	1000	0	0	-1	0
14283115	5505	3	0	-100	0	230	101300000	1000	0	0	-1	0
14295675	5518	0	0	-100	0	230	101300000	1000	0	0	-1	0
14308235	5507	0	0	-100	0	230	101300000	1000	0	0	-1	0
14320795	5505	4	0	-100	0	230	101300000	1000	0	0	-1	0
14333355	5516	0	0	-100	0	230	101300000	1000	0	0	-1	0
14345915	5509	0	0	-100	0	230	101300000	1000	0	0	-1	0
14358475	5508	3	0	-100	0	230	101300000	1000	0	0	-1	0
14371035	5515	0	0	-100	0	230	101300000	1000	0	0	-1	0
14383595	5506	0	0	-100	0	230	101300000	1000	0	0	-1	0
14396155	5513	2	0	-100	0	230	101300000	1000	0	0	-1	0
14408715	5512	0	0	-100	0	230	101300000	1000	0	0	-1	0
14421275	5504	0	0	-100	0	230	101300000	1000	0	0	-1	0
14433835	5509	1	0	-100	0	230	101300000	1000	0	0	-1	0
14446395	5511	0	0	-100	0	230	101300000	1000	0	0	-1	0
14458955	5507	4	0	-100	0	230	101300000	1000	0	0	-1	0
14471515	5512	0	0	-100	0	230	101300000	1000	0	0	-1	0
14484075	5507	0	0	-100	0	230	101300000	1000	0	0	-1	0
14496635	5505	2	0	-100	0	230	101300000	1000	0	0	-1	0
14509195	5511	0	0	-100	0	230	101300000	1000	0	0	-1	0
14521755	5509	5	0	-100	0	230	101300000	1000	0	0	-1	0
14534315	5516	0	0	-100	0	230	101300000	1000	0	0	-1	0
14546875	5505	0	0	-100	0	230	101300000	1000	0	0	-1	0
14559435	5504	3	0	-100	0	230	101300000	1000	0	0	-1	0
14571995	5512	1	0	-100	0	230	101300000	1000	0	0	-1	0
14584555	5501	3	0	-100	0	230	101300000	1000	0	0	-1	0
14597115	5512	0	0	-100	0	230	101300000	1000	0	0	-1	0
14609675	5507	0	0	-100	0	230	101300000	1000	0	0	-1	0
14622235	5500	0	0	-100	0	230	101300000	1000	0	0	-1	0
14634795	5511	0	0	-100	0	230	101300000	1000	0	0	-1	0
14647355	5507	3	0	-100	0	230	101300000	1000	0	0	-1	0
14659915	5507	0	0	-100	0	230	101300000	1000	0	0	-1	0
14710155	5514	0	0	-100	0	230	101300000	1000	0	0	-1	0
14722715	5512	0	0	-100	0	230	101300000	1000	0	0	-1	0
14735275	5505	3	0	-100	0	230	101300000	1000	0	0	-1	0
14747835	5514	0	0	-100	0	230	101300000	1000	0	0	-1	0
14760395	5507	3	0	-100	0	230	101300000	1000	0	0	-1	0
14772955	5512	0	0	-100	0	230	101300000	1000	0	0	-1	0
14785515	5508	4	0	-100	0	230	101300000	1000	0	0	-1	0
14798075	5514	0	0	-100	0	230	101300000	1000	0	0	-1	0
14810635	5508	3	0	-100	0	230	101300000	1000	0	0	-1	0
14823195	5511	0	0	-100	0	230	101300000	1000	0	0	-1	0
14835755	5504	2	0	-100	0	230	101300000	1000	0	0	-1	0
14848315	5512	0	0	-100	0	230	101300000	1000	0	0	-1	0
14860875	5504	2	0	-100	0	230	101300000	1000	0	0	-1	0
14873435	5509	0	0	-100	0	230	101300000	1000	0	0	-1	0
14885995	5512	4	0	-100	0	230	101300000	1000	0	0	-1	0
14898555	5508	2	0	-100	0	230	101300000	1000	0	0	-1	0
14911115	5512	0	0	-100	0	230	101300000	1000	0	0	-1	0
14923675	5508	1	0	-100	0	230	101300000	1000	0	0	-1	0
14936235	5514	0	0	-100	0	230	101300000	1000	0	0	-1	0
14948795	5505	0	0	-100	0	230	101300000	1000	0	0	-1	0
14961355	5503	1	0	-100	0	230	101300000	1000	0	0	-1	0
14973915	5506	0	0	-100	0	230	101300000	1000	0	0	-1	0
14986475	5509	0	0	-100	0	230	101300000	1000	0	0	-1	0
14999035	5508	4	0	-100	0	230	101300000	1000	0	0	-1	0
15011595	5512	0	0	-100	0	230	101300000	1000	0	0	-1	0
15024155	5514	0	0	-100	0	230	101300000	1000	0	0	-1	0
15036715	5502	0	0	-100	0	230	101300000	1000	0	0	-1	0
15049275	5518	0	0	-100	0	230	101300000	1000	0	0	-1	0
15061835	5504	4	0	-100	0	230	101300000	1000	0	0	-1	0
15074395	5509	0	0	-100	0	230	101300000	1000	0	0	-1	0
15086955	5506	2	0	-100	0	230	101300000	1000	0	0	-1	0
15099515	5510	0	0	-100	0	230	101300000	1000	0	0	-1	0
15112075	5508	0	0	-100	0	230	101300000	1000	0	0	-1	0
15124635	5505	0	0	-100	0	230	101300000	1000	0	0	-1	0
15137195	5511	0	0	-100	0	230	101300000	1000	0	0	-1	0
15149755	5509	4	0	-100	0	230	101300000	1000	0	0	-1	0
15162315	5512	0	0	-100	0	230	101300000	1000	0	0	-1	0
15187435	5510	0	0	-100	0	230	101300000	1000	0	0	-1	0
15199995	5505	0	0	-100	0	230	101300000	1000	0	0	-1	0
15212555	5512	0	0	-100	0	230	101300000	1000	0	0	-1	0
15225115	5509	0	0	-100	0	230	101300000	1000	0	0	-1	0
15237675	5505	0	0	-100	0	230	101300000	1000	0	0	-1	0
15250235	5513	0	0	-100	0	230	101300000	1000	0	0	-1	0
15262795	5508	4	0	-100	0	230	101300000	1000	0	0	-1	0
15275355	5512	0	0	-100	0	230	101300000	1000	0	0	-1	0
15287915	5505	4	0	-100	0	230	101300000	1000	0	0	-1	0
15300475	5509	0	0	-100	0	230	101300000	1000	0	0	-1	0
15313035	5509	1	0	-100	0	230	101300000	1000	0	0	-1	0
15325595	5504	0	0	-100	0	230	101300000	1000	0	0	-1	0
15338155	5517	0	0	-100	0	230	101300000	1000	0	0	-1	0
15350715	5509	3	0	-100	0	230	101300000	1000	0	0	-1	0
15363275	5509	0	0	-100	0	230	101300000	1000	0	0	-1	0
15375835	5508	0	0	-100	0	230	101300000	1000	0	0	-1	0
15388395	5504	0	0	-100	0	230	101300000	1000	0	0	-1	0
15400955	5510	0	0	-100	0	230	101300000	1000	0	0	-1	0
15413515	5509	1	0	-100	0	230	101300000	1000	0	0	-1	0
15426075	5505	0	0	-100	0	230	101300000	1000	0	0	-1	0
15438635	5509	0	0	-100	0	230	101300000	1000	0	0	-1	0
15451195	5505	0	0	-100	0	230	101300000	1000	0	0	-1	0
15463755	5507	1	0	-100	0	230	101300000	1000	0	0	-1	0
15476315	5511	0	0	-100	0	230	101300000	1000	0	0	-1	0
15488875	5505	1	0	-100	0	230	101300000	1000	0	0	-1	0
15501435	5509	0	0	-100	0	230	101300000	1000	0	0	-1	0
15513995	5507	0	0	-100	0	230	101300000	1000	0	0	-1	0
15526555	5510	0	0	-100	0	230	101300000	1000	0	0	-1	0
15539115	5505	2	0	-100	0	230	101300000	1000	0	0	-1	0
15551675	5511	0	0	-100	0	230	101300000	1000	0	0	-1	0
15564235	5507	1	0	-100	0	230	101300000	1000	0	0	-1	0
15576795	5510	0	0	-100	0	230	101300000	1000	0	0	-1	0
15589355	5506	1	0	-100	0	230	101300000	1000	0	0	-1	0
15601915	5507	0	0	-100	0	230	101300000	1000	0	0	-1	0
15614475	5515	0	0	-100	0	230	101300000	1000	0	0	-1	0
15627035	5507	3	0	-100	0	230	101300000	1000	0	0	-1	0
15639595	5511	0	0	-100	0	230	101300000	1000	0	0	-1	0
15652155	5517	0	0	-100	0	230	101300000	1000	0	0	-1	0
15664715	5507	0	0	-100	0	230	101300000	1000	0	0	-1	0
15677275	5512	0	0	-100	0	230	101300000	1000	0	0	-1	0
15689835	5504	0	0	-100	0	230	101300000	1000	0	0	-1	0
15702395	5517	0	0	-100	0	230	101300000	1000	0	0	-1	0
15714955	5508	0	0	-100	0	230	101300000	1000	0	0	-1	0
15727515	5511	0	0	-100	0	230	101300000	1000	0	0	-1	0
15740075	5509	0	0	-100	0	230	101300000	1000	0	0	-1	0
15752635	5512	0	0	-100	0	230	101300000	1000	0	0	-1	0
15765195	5505	0	0	-100	0	230	101300000	1000	0	0	-1	0
15777755	5514	0	0	-100	0	230	101300000	1000	0	0	-1	0
15790315	5508	3	0	-100	0	230	101300000	1000	0	0	-1	0
15802875	5509	0	0	-100	0	230	101300000	1000	0	0	-1	0
15815435	5504	3	0	-100	0	230	101300000	1000	0	0	-1	0
15827995	5509	0	0	-100	0	230	101300000	1000	0	0	-1	0
15840555	5511	0	0	-100	0	230	101300000	1000	0	0	-1	0
15853115	5504	0	0	-100	0	230	101300000	1000	0	0	-1	0
15865675	5511	0	0	-100	0	230	101300000	1000	0	0	-1	0
15878235	5506	4	0	-100	0	230	101300000	1000	0	0	-1	0
15890795	5509	0	0	-100	0	230	101300000	1000	0	0	-1	0
15903355	5506	2	0	-100	0	230	101300000	1000	0	0	-1	0
15915915	5510	0	0	-100	0	230	101300000	1000	0	0	-1	0
15928475	5509	2	0	-100	0	230	101300000	1000	0	0	-1	0
15941035	5511	0	0	-100	0	230	101300000	1000	0	0	-1	0
15953595	5505	3	0	-100	0	230	101300000	1000	0	0	-1	0
15966155	5518	0	0	-100	0	230	101300000	1000	0	0	-1	0
15978715	5507	0	0	-100	0	230	101300000	1000	0	0	-1	0
15991275	5508	0	0	-100	0	230	101300000	1000	0	0	-1	0
16003835	5514	0	0	-100	0	230	101300000	1000	0	0	-1	0
16016395	5507	3	0	-100	0	230	101300000	1000	0	0	-1	0
16028955	5510	0	0	-100	0	230	101300000	1000	0	0	-1	0
16041515	5504	1	0	-100	0	230	101300000	1000	0	0	-1	0
16054075	5506	0	0	-100	0	230	101300000	1000	0	0	-1	0
16066635	5514	0	0	-100	0	230	101300000	1000	0	0	-1	0
16079195	5507	3	0	-100	0	230	101300000	1000	0	0	-1	0
16091755	5512	0	0	-100	0	230	101300000	1000	0	0	-1	0
16104315	5505	1	0	-100	0	230	101300000	1000	0	0	-1	0
16116875	5514	0	0	-100	0	230	101300000	1000	0	0	-1	0
16129435	5507	4	0	-100	0	230	101300000	1000	0	0	-1	0
16141995	5510	3	0	-100	0	230	101300000	1000	0	0	-1	0
16154555	5513	4	0	-100	0	230	101300000	1000	0	0	-1	0
16167115	5515	0	0	-100	0	230	101300000	1000	0	0	-1	0
16179675	5509	1	0	-100	0	230	101300000	1000	0	0	-1	0
16192235	5515	0	0	-100	0	230	101300000	1000	0	0	-1	0
16204795	5510	0	0	-100	0	230	101300000	1000	0	0	-1	0
16217355	5508	3	0	-100	0	230	101300000	1000	0	0	-1	0
16229915	5509	0	0	-100	0	230	101300000	1000	0	0	-1	0
16242475	5502	0	0	-100	0	230	101300000	1000	0	0	-1	0
16255035	5509	0	0	-100	0	230	101300000	1000	0	0	-1	0
16267595	5509	0	0	-100	0	230	101300000	1000	0	0	-1	0
16280155	5514	1	0	-100	0	230	101300000	1000	0	0	-1	0
16292715	5514	0	0	-100	0	230	101300000	1000	0	0	-1	0
16305275	5504	0	0	-100	0	230	101300000	1000	0	0	-1	0
16317835	5502	0	0	-100	0	230	101300000	1000	0	0	-1	0
16330395	5512	0	0	-100	0	230	101300000	1000	0	0	-1	0
16342955	5508	0	0	-100	0	230	101300000	1000	0	0	-1	0
16355515	5508	2	0	-100	0	230	101300000	1000	0	0	-1	0
16368075	5508	0	0	-100	0	230	101300000	1000	0	0	-1	0
16380635	5505	0	0	-100	0	230	101300000	1000	0	0	-1	0
16393195	5508	0	0	-100	0	230	101300000	1000	0	0	-1	0
16405755	5505	0	0	-100	0	230	101300000	1000	0	0	-1	0
16418315	5509	0	0	-100	0	230	101300000	1000	0	0	-1	0
16430875	5511	0	0	-100	0	230	101300000	1000	0	0	-1	0
16443435	5508	2	0	-100	0	230	101300000	1000	0	0	-1	0
16455995	5514	2	0	-100	0	230	101300000	1000	0	0	-1	0
16468555	5507	3	0	-100	0	230	101300000	1000	0	0	-1	0
16481115	5512	0	0	-100	0	230	101300000	1000	0	0	-1	0
16493675	5509	0	0	-100	0	230	101300000	1000	0	0	-1	0
16506235	5504	4	0	-100	0	230	101300000	1000	0	0	-1	0
16518795	5509	0	0	-100	0	230	101300000	1000	0	0	-1	0
16531355	5504	0	0	-100	0	230	101300000	1000	0	0	-1	0
16543915	5503	1	0	-100	0	230	101300000	1000	0	0	-1	0
16556475	5509	0	0	-100	0	230	101300000	1000	0	0	-1	0
16569035	5508	3	0	-100	0	230	101300000	1000	0	0	-1	0
16581595	5510	0	0	-100	0	230	101300000	1000	0	0	-1	0
16594155	5513	3	0	-100	0	230	101300000	1000	0	0	-1	0
16606715	5511	0	0	-100	0	230	101300000	1000	0	0	-1	0
16619275	5507	4	0	-100	0	230	101300000	1000	0	0	-1	0
16631835	5511	0	0	-100	0	230	101300000	1000	0	0	-1	0
16644395	5506	0	0	-100	0	230	101300000	1000	0	0	-1	0
16656955	5505	3	0	-100	0	230	101300000	1000	0	0	-1	0
16669515	5511	0	0	-100	0	230	101300000	1000	0	0	-1	0
16682075	5504	0	0	-100	0	230	101300000	1000	0	0	-1	0
16694635	5510	0	0	-100	0	230	101300000	1000	0	0	-1	0
16707195	5509	0	0	-100	0	230	101300000	1000	0	0	-1	0
16719755	5511	0	0	-100	0	230	101300000	1000	0	0	-1	0
16732315	5509	0	0	-100	0	230	101300000	1000	0	0	-1	0
16744875	5511	0	0	-100	0	230	101300000	1000	0	0	-1	0
16757435	5506	0	0	-100	0	230	101300000	1000	0	0	-1	0
16769995	5509	0	0	-100	0	230	101300000	1000	0	0	-1	0
16782555	5508	0	0	-100	0	230	101300000	1000	0	0	-1	0
16795115	5505	2	0	-100	0	230	101300000	1000	0	0	-1	0
16807675	5509	0	0	-100	0	230	101300000	1000	0	0	-1	0
16820235	5507	4	0	-100	0	230	101300000	1000	0	0	-1	0
16832795	5515	0	0	-100	0	230	101300000	1000	0	0	-1	0
16845355	5505	2	0	-100	0	230	101300000	1000	0	0	-1	0
16857915	5514	0	0	-100	0	230	101300000	1000	0	0	-1	0
16870475	5502	0	0	-100	0	230	101300000	1000	0	0	-1	0
16883035	5510	0	0	-100	0	230	101300000	1000	0	0	-1	0
16895595	5508	0	0	-100	0	230	101300000	1000	0	0	-1	0
16908155	5514	0	0	-100	0	230	101300000	1000	0	0	-1	0
16920715	5509	0	0	-100	0	230	101300000	1000	0	0	-1	0
16933275	5511	3	0	-100	0	230	101300000	1000	0	0	-1	0
16945835	5509	0	0	-100	0	230	101300000	1000	0	0	-1	0
16958395	5506	0	0	-100	0	230	101300000	1000	0	0	-1	0
16970955	5514	0	0	-100	0	230	101300000	1000	0	0	-1	0
16983515	5504	0	0	-100	0	230	101300000	1000	0	0	-1	0
16996075	5508	2	0	-100	0	230	101300000	1000	0	0	-1	0
17008635	5511	0	0	-100	0	230	101300000	1000	0	0	-1	0
17021195	5506	3	0	-100	0	230	101300000	1000	0	0	-1	0
17033755	5514	0	0	-100	0	230	101300000	1000	0	0	-1	0
17046315	5504	4	0	-100	0	230	101300000	1000	0	0	-1	0
17058875	5515	0	0	-100	0	230	101300000	1000	0	0	-1	0
17071435	5505	0	0	-100	0	230	101300000	1000	0	0	-1	0
17083995	5507	0	0	-100	0	230	101300000	1000	0	0	-1	0
17096555	5514	0	0	-100	0	230	101300000	1000	0	0	-1	0
17109115	5507	3	0	-100	0	230	101300000	1000	0	0	-1	0
17121675	5509	0	0	-100	0	230	101300000	1000	0	0	-1	0
17134235	5509	4	0	-100	0	230	101300000	1000	0	0	-1	0
17146795	5509	0	0	-100	0	230	101300000	1000	0	0	-1	0
17159355	5505	4	0	-100	0	230	101300000	1000	0	0	-1	0
17171915	5514	0	0	-100	0	230	101300000	1000	0	0	-1	0
17184475	5506	3	0	-100	0	230	101300000	1000	0	0	-1	0
17197035	5511	0	0	-100	0	230	101300000	1000	0	0	-1	0
17209595	5505	0	0	-100	0	230	101300000	1000	0	0	-1	0
17222155	5515	0	0	-100	0	230	101300000	1000	0	0	-1	0
17234715	5509	0	0	-100	0	230	101300000	1000	0	0	-1	0
17247275	5506	4	0	-100	0	230	101300000	1000	0	0	-1	0
17259835	5511	0	0	-100	0	230	101300000	1000	0	0	-1	0
17272395	5509	0	0	-100	0	230	101300000	1000	0	0	-1	0
17284955	5505	0	0	-100	0	230	101300000	1000	0	0	-1	0
17297515	5511	0	0	-100	0	230	101300000	1000	0	0	-1	0
17310075	5509	3	0	-100	0	230	101300000	1000	0	0	-1	0
17322635	5512	0	0	-100	0	230	101300000	1000	0	0	-1	0
17335195	5505	0	0	-100	0	230	101300000	1000	0	0	-1	0
17347755	5509	0	0	-100	0	230	101300000	1000	0	0	-1	0
17360315	5504	0	0	-100	0	230	101300000	1000	0	0	-1	0
17372875	5508	1	0	-100	0	230	101300000	1000	0	0	-1	0
17385435	5508	0	0	-100	0	230	101300000	1000	0	0	-1	0
17397995	5507	0	0	-100	0	230	101300000	1000	0	0	-1	0
17410555	5509	0	0	-100	0	230	101300000	1000	0	0	-1	0
17423115	5504	2	0	-100	0	230	101300000	1000	0	0	-1	0
17435675	5514	0	0	-100	0	230	101300000	1000	0	0	-1	0
17448235	5504	1	0	-100	0	230	101300000	1000	0	0	-1	0
17460795	5509	0	0	-100	0	230	101300000	1000	0	0	-1	0
17473355	5505	3	0	-100	0	230	101300000	1000	0	0	-1	0
17485915	5511	0	0	-100	0	230	101300000	1000	0	0	-1	0
17498475	5505	4	0	-100	0	230	101300000	1000	0	0	-1	0
17511035	5512	0	0	-100	0	230	101300000	1000	0	0	-1	0
17523595	5508	2	0	-100	0	230	101300000	1000	0	0	-1	0
17536155	5517	0	0	-100	0	230	101300000	1000	0	0	-1	0
17548715	5505	4	0	-100	0	230	101300000	1000	0	0	-1	0
17561275	5512	0	0	-100	0	230	101300000	1000	0	0	-1	0
17573835	5508	4	0	-100	0	230	101300000	1000	0	0	-1	0
17586395	5510	0	0	-100	0	230	101300000	1000	0	0	-1	0
17598955	5506	5	0	-100	0	230	101300000	1000	0	0	-1	0
17611515	5509	0	0	-100	0	230	101300000	1000	0	0	-1	0
17624075	5509	2	0	-100	0	230	101300000	1000	0	0	-1	0
17636635	5513	0	0	-100	0	230	101300000	1000	0	0	-1	0
17649195	5502	0	0	-100	0	230	101300000	1000	0	0	-1	0
17661755	5512	0	0	-100	0	230	101300000	1000	0	0	-1	0
17674315	5504	4	0	-100	0	230	101300000	1000	0	0	-1	0
17686875	5512	0	0	-100	0	230	101300000	1000	0	0	-1	0
17699435	5507	3	0	-100	0	230	101300000	1000	0	0	-1	0
17711995	5511	2	0	-100	0	230	101300000	1000	0	0	-1	0
17724555	5504	4	0	-100	0	230	101300000	1000	0	0	-1	0
17737115	5511	0	0	-100	0	230	101300000	1000	0	0	-1	0
17749675	5503	0	0	-100	0	230	101300000	1000	0	0	-1	0
17762235	5508	0	0	-100	0	230	101300000	1000	0	0	-1	0
17774795	5508	0	0	-100	0	230	101300000	1000	0	0	-1	0
17787355	5501	2	0	-100	0	230	101300000	1000	0	0	-1	0
17799915	5512	0	0	-100	0	230	101300000	1000	0	0	-1	0
17812475	5508	5	0	-100	0	230	101300000	1000	0	0	-1	0
17825035	5511	0	0	-100	0	230	101300000	1000	0	0	-1	0
17837595	5508	0	0	-100	0	230	101300000	1000	0	0	-1	0
17850155	5513	0	0	-100	0	230	101300000	1000	0	0	-1	0
17862715	5510	0	0	-100	0	230	101300000	1000	0	0	-1	0
17875275	5507	4	0	-100	0	230	101300000	1000	0	0	-1	0
17887835	5511	0	0	-100	0	230	101300000	1000	0	0	-1	0
17900395	5504	0	0	-100	0	230	101300000	1000	0	0	-1	0
17912955	5509	0	0	-100	0	230	101300000	1000	0	0	-1	0
17925515	5505	0	0	-100	0	230	101300000	1000	0	0	-1	0
17938075	5511	0	0	-100	0	230	101300000	1000	0	0	-1	0
17950635	5508	0	0	-100	0	230	101300000	1000	0	0	-1	0
17963195	5509	0	0	-100	0	230	101300000	1000	0	0	-1	0
17975755	5509	0	0	-100	0	230	101300000	1000	0	0	-1	0
17988315	5509	0	0	-100	0	230	101300000	1000	0	0	-1	0
18000875	5503	0	0	-100	0	230	101300000	1000	0	0	-1	0
18013435	5513	0	0	-100	0	230	101300000	1000	0	0	-1	0
18025995	5501	0	0	-100	0	230	101300000	1000	0	0	-1	0
18038555	5516	0	0	-100	0	230	101300000	1000	0	0	-1	0
18051115	5505	0	0	-100	0	230	101300000	1000	0	0	-1	0
18063675	5510	0	0	-100	0	230	101300000	1000	0	0	-1	0
18076235	5508	0	0	-100	0	230	101300000	1000	0	0	-1	0
18088795	5515	0	0	-100	0	230	101300000	1000	0	0	-1	0
18101355	5508	2	0	-100	0	230	101300000	1000	0	0	-1	0
18113915	5511	0	0	-100	0	230	101300000	1000	0	0	-1	0
18126475	5505	0	0	-100	0	230	101300000	1000	0	0	-1	0
18139035	5500	0	0	-100	0	230	101300000	1000	0	0	-1	0
18151595	5509	0	0	-100	0	230	101300000	1000	0	0	-1	0
18164155	5511	0	0	-100	0	230	101300000	1000	0	0	-1	0
18176715	5510	0	0	-100	0	230	101300000	1000	0	0	-1	0
18189275	5507	0	0	-100	0	230	101300000	1000	0	0	-1	0
18201835	5507	1	0	-100	0	230	101300000	1000	0	0	-1	0
18214395	5512	0	0	-100	0	230	101300000	1000	0	0	-1	0
18226955	5505	1	0	-100	0	230	101300000	1000	0	0	-1	0
18239515	5510	0	0	-100	0	230	101300000	1000	0	0	-1	0
18252075	5507	0	0	-100	0	230	101300000	1000	0	0	-1	0
18264635	5505	0	0	-100	0	230	101300000	1000	0	0	-1	0
18277195	5511	0	0	-100	0	230	101300000	1000	0	0	-1	0
18289755	5508	0	0	-100	0	230	101300000	1000	0	0	-1	0
18302315	5505	4	0	-100	0	230	101300000	1000	0	0	-1	0
18314875	5511	0	0	-100	0	230	101300000	1000	0	0	-1	0
18327435	5508	4	0	-100	0	230	101300000	1000	0	0	-1	0
18339995	5511	3	0	-100	0	230	101300000	1000	0	0	-1	0
18352555	5503	0	0	-100	0	230	101300000	1000	0	0	-1	0
18365115	5511	0	0	-100	0	230	101300000	1000	0	0	-1	0
18377675	5506	0	0	-100	0	230	101300000	1000	0	0	-1	0
18390235	5506	4	0	-100	0	230	101300000	1000	0	0	-1	0
18402795	5509	1	0	-100	0	230	101300000	1000	0	0	-1	0
18415355	5512	0	0	-100	0	230	101300000	1000	0	0	-1	0
18427915	5512	0	0	-100	0	230	101300000	1000	0	0	-1	0
18440475	5505	0	0	-100	0	230	101300000	1000	0	0	-1	0
18453035	5513	0	0	-100	0	230	101300000	1000	0	0	-1	0
18465595	5511	0	0	-100	0	230	101300000	1000	0	0	-1	0
18478155	5515	0	0	-100	0	230	101300000	1000	0	0	-1	0
18490715	5508	2	0	-100	0	230	101300000	1000	0	0	-1	0
18503275	5508	0	0	-100	0	230	101300000	1000	0	0	-1	0
18515835	5512	0	0	-100	0	230	101300000	1000	0	0	-1	0
18528395	5506	0	0	-100	0	230	101300000	1000	0	0	-1	0
18540955	5507	0	0	-100	0	230	101300000	1000	0	0	-1	0
18553515	5515	0	0	-100	0	230	101300000	1000	0	0	-1	0
18566075	5510	0	0	-100	0	230	101300000	1000	0	0	-1	0
18578635	5501	0	0	-100	0	230	101300000	1000	0	0	-1	0
18591195	5509	3	0	-100	0	230	101300000	1000	0	0	-1	0
18603755	5513	0	0	-100	0	230	101300000	1000	0	0	-1	0
18616315	5511	0	0	-100	0	230	101300000	1000	0	0	-1	0
18628875	5511	3	0	-100	0	230	101300000	1000	0	0	-1	0
18641435	5511	0	0	-100	0	230	101300000	1000	0	0	-1	0
18653995	5512	2	0	-100	0	230	101300000	1000	0	0	-1	0
18666555	5505	0	0	-100	0	230	101300000	1000	0	0	-1	0
18679115	5507	0	0	-100	0	230	101300000	1000	0	0	-1	0
18691675	5513	0	0	-100	0	230	101300000	1000	0	0	-1	0
18704235	5505	0	0	-100	0	230	101300000	1000	0	0	-1	0
18716795	5507	3	0	-100	0	230	101300000	1000	0	0	-1	0
18729355	5513	0	0	-100	0	230	101300000	1000	0	0	-1	0
18741915	5504	0	0	-100	0	230	101300000	1000	0	0	-1	0
18754475	5509	1	0	-100	0	230	101300000	1000	0	0	-1	0
18767035	5509	0	0	-100	0	230	101300000	1000	0	0	-1	0
18779595	5508	0	0	-100	0	230	101300000	1000	0	0	-1	0
18792155	5514	1	0	-100	0	230	101300000	1000	0	0	-1	0
18804715	5507	2	0	-100	0	230	101300000	1000	0	0	-1	0
18817275	5501	2	0	-100	0	230	101300000	1000	0	0	-1	0
18829835	5507	0	0	-100	0	230	101300000	1000	0	0	-1	0
18842395	5512	0	0	-100	0	230	101300000	1000	0	0	-1	0
18854955	5512	0	0	-100	0	230	101300000	1000	0	0	-1	0
18867515	5503	0	0	-100	0	230	101300000	1000	0	0	-1	0
18880075	5507	1	0	-100	0	230	101300000	1000	0	0	-1	0
18892635	5516	0	0	-100	0	230	101300000	1000	0	0	-1	0
18905195	5505	0	0	-100	0	230	101300000	1000	0	0	-1	0
18917755	5505	3	0	-100	0	230	101300000	1000	0	0	-1	0
18930315	5511	0	0	-100	0	230	101300000	1000	0	0	-1	0
18942875	5508	4	0	-100	0	230	101300000	1000	0	0	-1	0
18955435	5509	0	0	-100	0	230	101300000	1000	0	0	-1	0
18967995	5505	0	0	-100	0	230	101300000	1000	0	0	-1	0
18980555	5507	1	0	-100	0	230	101300000	1000	0	0	-1	0
18993115	5515	0	0	-100	0	230	101300000	1000	0	0	-1	0
19005675	5508	0	0	-100	0	230	101300000	1000	0	0	-1	0
19018235	5508	3	0	-100	0	230	101300000	1000	0	0	-1	0
19030795	5508	0	0	-100	0	230	101300000	1000	0	0	-1	0
19043355	5510	0	0	-100	0	230	101300000	1000	0	0	-1	0
19055915	5506	0	0	-100	0	230	101300000	1000	0	0	-1	0
19068475	5505	2	0	-100	0	230	101300000	1000	0	0	-1	0
19081035	5509	0	0	-100	0	230	101300000	1000	0	0	-1	0
19093595	5506	0	0	-100	0	230	101300000	1000	0	0	-1	0
19106155	5512	0	0	-100	0	230	101300000	1000	0	0	-1	0
19118715	5512	0	0	-100	0	230	101300000	1000	0	0	-1	0
19131275	5501	0	0	-100	0	230	101300000	1000	0	0	-1	0
19143835	5506	0	0	-100	0	230	101300000	1000	0	0	-1	0
19156395	5514	0	0	-100	0	230	101300000	1000	0	0	-1	0
19168955	5511	3	0	-100	0	230	101300000	1000	0	0	-1	0
19181515	5512	0	0	-100	0	230	101300000	1000	0	0	-1	0
19194075	5505	0	0	-100	0	230	101300000	1000	0	0	-1	0
19206635	5505	3	0	-100	0	230	101300000	1000	0	0	-1	0
19219195	5511	0	0	-100	0	230	101300000	1000	0	0	-1	0
19231755	5502	0	0	-100	0	230	101300000	1000	0	0	-1	0
19244315	5507	0	0	-100	0	230	101300000	1000	0	0	-1	0
19256875	5506	0	0	-100	0	230	101300000	1000	0	0	-1	0
19269435	5505	2	0	-100	0	230	101300000	1000	0	0	-1	0
19281995	5509	1	0	-100	0	230	101300000	1000	0	0	-1	0
19294555	5511	2	0	-100	0	230	101300000	1000	0	0	-1	0
19307115	5509	0	0	-100	0	230	101300000	1000	0	0	-1	0
19319675	5509	0	0	-100	0	230	101300000	1000	0	0	-1	0
19332235	5509	4	0	-100	0	230	101300000	1000	0	0	-1	0
19344795	5512	0	0	-100	0	230	101300000	1000	0	0	-1	0
19357355	5508	3	0	-100	0	230	101300000	1000	0	0	-1	0
19369915	5514	0	0	-100	0	230	101300000	1000	0	0	-1	0
19382475	5502	0	0	-100	0	230	101300000	1000	0	0	-1	0
19395035	5509	0	0	-100	0	230	101300000	1000	0	0	-1	0
19407595	5508	0	0	-100	0	230	101300000	1000	0	0	-1	0
19420155	5514	1	0	-100	0	230	101300000	1000	0	0	-1	0
19432715	5510	0	0	-100	0	230	101300000	1000	0	0	-1	0
19445275	5506	5	0	-100	0	230	101300000	1000	0	0	-1	0
19457835	5512	0	0	-100	0	230	101300000	1000	0	0	-1	0
19470395	5506	0	0	-100	0	230	101300000	1000	0	0	-1	0
19482955	5504	1	0	-100	0	230	101300000	1000	0	0	-1	0
19495515	5516	0	0	-100	0	230	101300000	1000	0	0	-1	0
19508075	5504	0	0	-100	0	230	101300000	1000	0	0	-1	0
19520635	5504	0	0	-100	0	230	101300000	1000	0	0	-1	0
19533195	5511	0	0	-100	0	230	101300000	1000	0	0	-1	0
19545755	5507	3	0	-100	0	230	101300000	1000	0	0	-1	0
19558315	5512	0	0	-100	0	230	101300000	1000	0	0	-1	0
19570875	5506	4	0	-100	0	230	101300000	1000	0	0	-1	0
19583435	5512	0	0	-100	0	230	101300000	1000	0	0	-1	0
19595995	5515	0	0	-100	0	230	101300000	1000	0	0	-1	0
19608555	5512	0	0	-100	0	230	101300000	1000	0	0	-1	0
19621115	5507	4	0	-100	0	230	101300000	1000	0	0	-1	0
19633675	5513	0	0	-100	0	230	101300000	1000	0	0	-1	0
19646235	5508	3	0	-100	0	230	101300000	1000	0	0	-1	0
19658795	5513	0	0	-100	0	230	101300000	1000	0	0	-1	0
19671355	5511	0	0	-100	0	230	101300000	1000	0	0	-1	0
19683915	5507	5	0	-100	0	230	101300000	1000	0	0	-1	0
19696475	5508	2	0	-100	0	230	101300000	1000	0	0	-1	0
19709035	5511	0	0	-100	0	230	101300000	1000	0	0	-1	0
19721595	5505	0	0	-100	0	230	101300000	1000	0	0	-1	0
19734155	5517	0	0	-100	0	230	101300000	1000	0	0	-1	0
19746715	5505	0	0	-100	0	230	101300000	1000	0	0	-1	0
19759275	5504	4	0	-100	0	230	101300000	1000	0	0	-1	0
19771835	5513	0	0	-100	0	230	101300000	1000	0	0	-1	0
19784395	5503	0	0	-100	0	230	101300000	1000	0	0	-1	0
19796955	5505	3	0	-100	0	230	101300000	1000	0	0	-1	0
19809515	5514	0	0	-100	0	230	101300000	1000	0	0	-1	0
19822075	5507	0	0	-100	0	230	101300000	1000	0	0	-1	0
19834635	5511	4	0	-100	0	230	101300000	1000	0	0	-1	0
19847195	5505	2	0	-100	0	230	101300000	1000	0	0	-1	0
19859755	5511	0	0	-100	0	230	101300000	1000	0	0	-1	0
19872315	5506	0	0	-100	0	230	101300000	1000	0	0	-1	0
19884875	5504	2	0	-100	0	230	101300000	1000	0	0	-1	0
19897435	5516	0	0	-100	0	230	101300000	1000	0	0	-1	0
19909995	5511	0	0	-100	0	230	101300000	1000	0	0	-1	0
19922555	5504	4	0	-100	0	230	101300000	1000	0	0	-1	0
19935115	5517	0	0	-100	0	230	101300000	1000	0	0	-1	0
19947675	5510	0	0	-100	0	230	101300000	1000	0	0	-1	0
19960235	5509	4	0	-100	0	230	101300000	1000	0	0	-1	0
19972795	5511	0	0	-100	0	230	101300000	1000	0	0	-1	0
19985355	5509	0	0	-100	0	230	101300000	1000	0	0	-1	0
19997915	5504	0	0	-100	0	230	101300000	1000	0	0	-1	0
20010475	5509	4	0	-100	0	230	101300000	1000	0	0	-1	0
20023035	5509	0	0	-100	0	230	101300000	1000	0	0	-1	0
20035595	5509	0	0	-100	0	230	101300000	1000	0	0	-1	0
20048155	5513	3	0	-100	0	230	101300000	1000	0	0	-1	0
20060715	5509	0	0	-100	0	230	101300000	1000	0	0	-1	0
20073275	5512	0	0	-100	0	230	101300000	1000	0	0	-1	0
20085835	5501	0	0	-100	0	230	101300000	1000	0	0	-1	0
20098395	5503	4	0	-100	0	230	101300000	1000	0	0	-1	0
20110955	5510	0	0	-100	0	230	101300000	1000	0	0	-1	0
20123515	5511	0	0	-100	0	230	101300000	1000	0	0	-1	0
20136075	5512	0	0	-100	0	230	101300000	1000	0	0	-1	0
20148635	5505	0	0	-100	0	230	101300000	1000	0	0	-1	0
20161195	5503	0	0	-100	0	230	101300000	1000	0	0	-1	0
20173755	5515	0	0	-100	0	230	101300000	1000	0	0	-1	0
20186315	5504	4	0	-100	0	230	101300000	1000	0	0	-1	0
20198875	5516	0	0	-100	0	230	101300000	1000	0	0	-1	0
20211435	5509	0	0	-100	0	230	101300000	1000	0	0	-1	0
20223995	5504	0	0	-100	0	230	101300000	1000	0	0	-1	0
20236555	5512	0	0	-100	0	230	101300000	1000	0	0	-1	0
20249115	5502	0	0	-100	0	230	101300000	1000	0	0	-1	0
20261675	5506	1	0	-100	0	230	101300000	1000	0	0	-1	0
20274235	5512	0	0	-100	0	230	101300000	1000	0	0	-1	0
20286795	5502	0	0	-100	0	230	101300000	1000	0	0	-1	0
20299355	5507	4	0	-100	0	230	101300000	1000	0	0	-1	0
20311915	5516	0	0	-100	0	230	101300000	1000	0	0	-1	0
20324475	5507	0	0	-100	0	230	101300000	1000	0	0	-1	0
20337035	5504	0	0	-100	0	230	101300000	1000	0	0	-1	0
20349595	5506	1	0	-100	0	230	101300000	1000	0	0	-1	0
20362155	5519	0	0	-100	0	230	101300000	1000	0	0	-1	0
20374715	5509	0	0	-100	0	230	101300000	1000	0	0	-1	0
20387275	5511	4	0	-100	0	230	101300000	1000	0	0	-1	0
20399835	5507	0	0	-100	0	230	101300000	1000	0	0	-1	0
20412395	5511	0	0	-100	0	230	101300000	1000	0	0	-1	0
20424955	5508	4	0	-100	0	230	101300000	1000	0	0	-1	0
20437515	5512	0	0	-100	0	230	101300000	1000	0	0	-1	0
20450075	5511	0	0	-100	0	230	101300000	1000	0	0	-1	0
20462635	5507	4	0	-100	0	230	101300000	1000	0	0	-1	0
20475195	5516	0	0	-100	0	230	101300000	1000	0	0	-1	0
20487755	5504	0	0	-100	0	230	101300000	1000	0	0	-1	0
20500315	5504	2	0	-100	0	230	101300000	1000	0	0	-1	0
20512875	5516	0	0	-100	0	230	101300000	1000	0	0	-1	0
20525435	5501	0	0	-100	0	230	101300000	1000	0	0	-1	0
20537995	5503	0	0	-100	0	230	101300000	1000	0	0	-1	0
20550555	5514	0	0	-100	0	230	101300000	1000	0	0	-1	0
20563115	5504	5	0	-100	0	230	101300000	1000	0	0	-1	0
20575675	5518	0	0	-100	0	230	101300000	1000	0	0	-1	0
20588235	5509	0	0	-100	0	230	101300000	1000	0	0	-1	0
20600795	5504	4	0	-100	0	230	101300000	1000	0	0	-1	0
20613355	5511	0	0	-100	0	230	101300000	1000	0	0	-1	0
20625915	5510	0	0	-100	0	230	101300000	1000	0	0	-1	0
20638475	5504	0	0	-100	0	230	101300000	1000	0	0	-1	0
20651035	5508	1	0	-100	0	230	101300000	1000	0	0	-1	0
20663595	5511	0	0	-100	0	230	101300000	1000	0	0	-1	0
20676155	5512	4	0	-100	0	230	101300000	1000	0	0	-1	0
20688715	5513	0	0	-100	0	230	101300000	1000	0	0	-1	0
20701275	5504	0	0	-100	0	230	101300000	1000	0	0	-1	0
20713835	5505	3	0	-100	0	230	101300000	1000	0	0	-1	0
20726395	5509	0	0	-100	0	230	101300000	1000	0	0	-1	0
20738955	5509	0	0	-100	0	230	101300000	1000	0	0	-1	0
20751515	5510	4	0	-100	0	230	101300000	1000	0	0	-1	0
20764075	5510	0	0	-100	0	230	101300000	1000	0	0	-1	0
20776635	5512	0	0	-100	0	230	101300000	1000	0	0	-1	0
20789195	5509	0	0	-100	0	230	101300000	1000	0	0	-1	0
20801755	5505	4	0	-100	0	230	101300000	1000	0	0	-1	0
20814315	5518	0	0	-100	0	230	101300000	1000	0	0	-1	0
20826875	5510	0	0	-100	0	230	101300000	1000	0	0	-1	0
20839435	5504	4	0	-100	0	230	101300000	1000	0	0	-1	0
20851995	5509	0	0	-100	0	230	101300000	1000	0	0	-1	0
20864555	5510	0	0	-100	0	230	101300000	1000	0	0	-1	0
20877115	5505	0	0	-100	0	230	101300000	1000	0	0	-1	0
20889675	5511	0	0	-100	0	230	101300000	1000	0	0	-1	0
20902235	5512	0	0	-100	0	230	101300000	1000	0	0	-1	0
20914795	5508	0	0	-100	0	230	101300000	1000	0	0	-1	0
20927355	5508	4	0	-100	0	230	101300000	1000	0	0	-1	0
20939915	5511	0	0	-100	0	230	101300000	1000	0	0	-1	0
20952475	5507	0	0	-100	0	230	101300000	1000	0	0	-1	0
20965035	5506	4	0	-100	0	230	101300000	1000	0	0	-1	0
20977595	5511	0	0	-100	0	230	101300000	1000	0	0	-1	0
20990155	5519	0	0	-100	0	230	101300000	1000	0	0	-1	0
21002715	5504	0	0	-100	0	230	101300000	1000	0	0	-1	0
21015275	5506	2	0	-100	0	230	101300000	1000	0	0	-1	0
21027835	5508	0	0	-100	0	230	101300000	1000	0	0	-1	0
21040395	5508	0	0	-100	0	230	101300000	1000	0	0	-1	0
21052955	5509	4	0	-100	0	230	101300000	1000	0	0	-1	0
21065515	5512	0	0	-100	0	230	101300000	1000	0	0	-1	0
21078075	5505	0	0	-100	0	230	101300000	1000	0	0	-1	0
21090635	5504	2	0	-100	0	230	101300000	1000	0	0	-1	0
21103195	5511	0	0	-100	0	230	101300000	1000	0	0	-1	0
21115755	5506	0	0	-100	0	230	101300000	1000	0	0	-1	0
21128315	5507	0	0	-100	0	230	101300000	1000	0	0	-1	0
21140875	5509	0	0	-100	0	230	101300000	1000	0	0	-1	0
21153435	5508	0	0	-100	0	230	101300000	1000	0	0	-1	0
21165995	5508	1	0	-100	0	230	101300000	1000	0	0	-1	0
21178555	5501	0	0	-100	0	230	101300000	1000	0	0	-1	0
21191115	5509	0	0	-100	0	230	101300000	1000	0	0	-1	0
21203675	5506	1	0	-100	0	230	101300000	1000	0	0	-1	0
21216235	5517	0	0	-100	0	230	101300000	1000	0	0	-1	0
21228795	5508	0	0	-100	0	230	101300000	1000	0	0	-1	0
21241355	5514	0	0	-100	0	230	101300000	1000	0	0	-1	0
21253915	5508	4	0	-100	0	230	101300000	1000	0	0	-1	0
21266475	5514	0	0	-100	0	230	101300000	1000	0	0	-1	0
21279035	5504	2	0	-100	0	230	101300000	1000	0	0	-1	0
21291595	5511	0	0	-100	0	230	101300000	1000	0	0	-1	0
21304155	5513	2	0	-100	0	230	101300000	1000	0	0	-1	0
21316715	5512	0	0	-100	0	230	101300000	1000	0	0	-1	0
21329275	5510	3	0	-100	0	230	101300000	1000	0	0	-1	0
21341835	5510	0	0	-100	0	230	101300000	1000	0	0	-1	0
21354395	5510	0	0	-100	0	230	101300000	1000	0	0	-1	0
21366955	5508	4	0	-100	0	230	101300000	1000	0	0	-1	0
21379515	5510	0	0	-100	0	230	101300000	1000	0	0	-1	0
21392075	5505	0	0	-100	0	230	101300000	1000	0	0	-1	0
21404635	5504	1	0	-100	0	230	101300000	1000	0	0	-1	0
21417195	5512	0	0	-100	0	230	101300000	1000	0	0	-1	0
21429755	5509	0	0	-100	0	230	101300000	1000	0	0	-1	0
21442315	5507	3	0	-100	0	230	101300000	1000	0	0	-1	0
21454875	5512	0	0	-100	0	230	101300000	1000	0	0	-1	0
21467435	5509	0	0	-100	0	230	101300000	1000	0	0	-1	0
21479995	5508	0	0	-100	0	230	101300000	1000	0	0	-1	0
21492555	5514	0	0	-100	0	230	101300000	1000	0	0	-1	0
21505115	5511	0	0	-100	0	230	101300000	1000	0	0	-1	0
21517675	5508	0	0	-100	0	230	101300000	1000	0	0	-1	0
21530235	5504	2	0	-100	0	230	101300000	1000	0	0	-1	0
21542795	5511	0	0	-100	0	230	101300000	1000	0	0	-1	0
21555355	5509	0	0	-100	0	230	101300000	1000	0	0	-1	0
21567915	5507	4	0	-100	0	230	101300000	1000	0	0	-1	0
21580475	5510	0	0	-100	0	230	101300000	1000	0	0	-1	0
21593035	5512	0	0	-100	0	230	101300000	1000	0	0	-1	0
21605595	5504	0	0	-100	0	230	101300000	1000	0	0	-1	0
21618155	5512	0	0	-100	0	230	101300000	1000	0	0	-1	0
21630715	5513	0	0	-100	0	230	101300000	1000	0	0	-1	0
21643275	5505	0	0	-100	0	230	101300000	1000	0	0	-1	0
21655835	5507	1	0	-100	0	230	101300000	1000	0	0	-1	0
21668395	5512	0	0	-100	0	230	101300000	1000	0	0	-1	0
21680955	5504	0	0	-100	0	230	101300000	1000	0	0	-1	0
21693515	5511	3	0	-100	0	230	101300000	1000	0	0	-1	0
21706075	5509	0	0	-100	0	230	101300000	1000	0	0	-1	0
21718635	5509	0	0	-100	0	230	101300000	1000	0	0	-1	0
21731195	5510	0	0	-100	0	230	101300000	1000	0	0	-1	0
21743755	5504	4	0	-100	0	230	101300000	1000	0	0	-1	0
21756315	5505	3	0	-100	0	230	101300000	1000	0	0	-1	0
21768875	5516	0	0	-100	0	230	101300000	1000	0	0	-1	0
21781435	5508	0	0	-100	0	230	101300000	1000	0	0	-1	0
21793995	5506	0	0	-100	0	230	101300000	1000	0	0	-1	0
21806555	5505	3	0	-100	0	230	101300000	1000	0	0	-1	0
21819115	5514	0	0	-100	0	230	101300000	1000	0	0	-1	0
21831675	5512	0	0	-100	0	230	101300000	1000	0	0	-1	0
21844235	5507	0	0	-100	0	230	101300000	1000	0	0	-1	0
21856795	5506	3	0	-100	0	230	101300000	1000	0	0	-1	0
21869355	5510	0	0	-100	0	230	101300000	1000	0	0	-1	0
21881915	5509	0	0	-100	0	230	101300000	1000	0	0	-1	0
21894475	5509	0	0	-100	0	230	101300000	1000	0	0	-1	0
21907035	5505	4	0	-100	0	230	101300000	1000	0	0	-1	0
21919595	5506	1	0	-100	0	230	101300000	1000	0	0	-1	0
21932155	5520	0	0	-100	0	230	101300000	1000	0	0	-1	0
21944715	5507	0	0	-100	0	230	101300000	1000	0	0	-1	0
21957275	5509	3	0	-100	0	230	101300000	1000	0	0	-1	0
21969835	5514	0	0	-100	0	230	101300000	1000	0	0	-1	0
21982395	5506	0	0	-100	0	230	101300000	1000	0	0	-1	0
21994955	5509	3	0	-100	0	230	101300000	1000	0	0	-1	0
22007515	5508	0	0	-100	0	230	101300000	1000	0	0	-1	0
22020075	5511	0	0	-100	0	230	101300000	1000	0	0	-1	0
22032635	5509	1	0	-100	0	230	101300000	1000	0	0	-1	0
22045195	5508	0	0	-100	0	230	101300000	1000	0	0	-1	0
22057755	5507	0	0	-100	0	230	101300000	1000	0	0	-1	0
22070315	5509	3	0	-100	0	230	101300000	1000	0	0	-1	0
22082875	5511	0	0	-100	0	230	101300000	1000	0	0	-1	0
22095435	5511	0	0	-100	0	230	101300000	1000	0	0	-1	0
22107995	5508	0	0	-100	0	230	101300000	1000	0	0	-1	0
22120555	5507	0	0	-100	0	230	101300000	1000	0	0	-1	0
22133115	5511	0	0	-100	0	230	101300000	1000	0	0	-1	0
22145675	5508	4	0	-100	0	230	101300000	1000	0	0	-1	0
22158235	5508	0	0	-100	0	230	101300000	1000	0	0	-1	0
22170795	5510	0	0	-100	0	230	101300000	1000	0	0	-1	0
22183355	5506	3	0	-100	0	230	101300000	1000	0	0	-1	0
22195915	5511	0	0	-100	0	230	101300000	1000	0	0	-1	0
22208475	5505	4	0	-100	0	230	101300000	1000	0	0	-1	0
22221035	5509	0	0	-100	0	230	101300000	1000	0	0	-1	0
22233595	5505	0	0	-100	0	230	101300000	1000	0	0	-1	0
22246155	5513	0	0	-100	0	230	101300000	1000	0	0	-1	0
22258715	5508	0	0	-100	0	230	101300000	1000	0	0	-1	0
22271275	5509	0	0	-100	0	230	101300000	1000	0	0	-1	0
22283835	5506	0	0	-100	0	230	101300000	1000	0	0	-1	0
22296395	5513	0	0	-100	0	230	101300000	1000	0	0	-1	0
22308955	5505	4	0	-100	0	230	101300000	1000	0	0	-1	0
22321515	5506	0	0	-100	0	230	101300000	1000	0	0	-1	0
22334075	5511	0	0	-100	0	230	101300000	1000	0	0	-1	0
22346635	5504	0	0	-100	0	230	101300000	1000	0	0	-1	0
22359195	5509	0	0	-100	0	230	101300000	1000	0	0	-1	0
22371755	5506	3	0	-100	0	230	101300000	1000	0	0	-1	0
22384315	5508	0	0	-100	0	230	101300000	1000	0	0	-1	0
22396875	5508	0	0	-100	0	230	101300000	1000	0	0	-1	0
22409435	5507	0	0	-100	0	230	101300000	1000	0	0	-1	0
22421995	5505	0	0	-100	0	230	101300000	1000	0	0	-1	0
22434555	5510	0	0	-100	0	230	101300000	1000	0	0	-1	0
22447115	5504	2	0	-100	0	230	101300000	1000	0	0	-1	0
22459675	5509	0	0	-100	0	230	101300000	1000	0	0	-1	0
22472235	5507	0	0	-100	0	230	101300000	1000	0	0	-1	0
22484795	5508	0	0	-100	0	230	101300000	1000	0	0	-1	0
22497355	5508	1	0	-100	0	230	101300000	1000	0	0	-1	0
22509915	5509	0	0	-100	0	230	101300000	1000	0	0	-1	0
22522475	5508	4	0	-100	0	230	101300000	1000	0	0	-1	0
22535035	5517	0	0	-100	0	230	101300000	1000	0	0	-1	0
22547595	5506	0	0	-100	0	230	101300000	1000	0	0	-1	0
22560155	5513	3	0	-100	0	230	101300000	1000	0	0	-1	0
22572715	5510	0	0	-100	0	230	101300000	1000	0	0	-1	0
22585275	5511	0	0	-100	0	230	101300000	1000	0	0	-1	0
22597835	5508	0	0	-100	0	230	101300000	1000	0	0	-1	0
22610395	5510	0	0	-100	0	230	101300000	1000	0	0	-1	0
22622955	5508	4	0	-100	0	230	101300000	1000	0	0	-1	0
22635515	5512	0	0	-100	0	230	101300000	1000	0	0	-1	0
22648075	5506	0	0	-100	0	230	101300000	1000	0	0	-1	0
22660635	5509	0	0	-100	0	230	101300000	1000	0	0	-1	0
22673195	5509	0	0	-100	0	230	101300000	1000	0	0	-1	0
22685755	5507	3	0	-100	0	230	101300000	1000	0	0	-1	0
22698315	5514	0	0	-100	0	230	101300000	1000	0	0	-1	0
22710875	5509	4	0	-100	0	230	101300000	1000	0	0	-1	0
22723435	5512	0	0	-100	0	230	101300000	1000	0	0	-1	0
22735995	5508	0	0	-100	0	230	101300000	1000	0	0	-1	0
22748555	5503	2	0	-100	0	230	101300000	1000	0	0	-1	0
22761115	5511	0	0	-100	0	230	101300000	1000	0	0	-1	0
22773675	5509	0	0	-100	0	230	101300000	1000	0	0	-1	0
22786235	5504	2	0	-100	0	230	101300000	1000	0	0	-1	0
22798795	5510	0	0	-100	0	230	101300000	1000	0	0	-1	0
22811355	5506	0	0	-100	0	230	101300000	1000	0	0	-1	0
22823915	5504	4	0	-100	0	230	101300000	1000	0	0	-1	0
22836475	5508	0	0	-100	0	230	101300000	1000	0	0	-1	0
22849035	5512	0	0	-100	0	230	101300000	1000	0	0	-1	0
22861595	5505	0	0	-100	0	230	101300000	1000	0	0	-1	0
22874155	5512	1	0	-100	0	230	101300000	1000	0	0	-1	0
22886715	5508	0	0	-100	0	230	101300000	1000	0	0	-1	0
22899275	5507	0	0	-100	0	230	101300000	1000	0	0	-1	0
22911835	5508	4	0	-100	0	230	101300000	1000	0	0	-1	0
22924395	5506	0	0	-100	0	230	101300000	1000	0	0	-1	0
22936955	5512	0	0	-100	0	230	101300000	1000	0	0	-1	0
22949515	5510	0	0	-100	0	230	101300000	1000	0	0	-1	0
22962075	5505	0	0	-100	0	230	101300000	1000	0	0	-1	0
22974635	5505	2	0	-100	0	230	101300000	1000	0	0	-1	0
22987195	5509	1	0	-100	0	230	101300000	1000	0	0	-1	0
22999755	5511	0	0	-100	0	230	101300000	1000	0	0	-1	0
23012315	5515	0	0	-100	0	230	101300000	1000	0	0	-1	0
23024875	5505	0	0	-100	0	230	101300000	1000	0	0	-1	0
23037435	5510	2	0	-100	0	230	101300000	1000	0	0	-1	0
23049995	5508	0	0	-100	0	230	101300000	1000	0	0	-1	0
23062555	5504	0	0	-100	0	230	101300000	1000	0	0	-1	0
23075115	5518	0	0	-100	0	230	101300000	1000	0	0	-1	0
23087675	5512	0	0	-100	0	230	101300000	1000	0	0	-1	0
23100235	5506	0	0	-100	0	230	101300000	1000	0	0	-1	0
23112795	5507	0	0	-100	0	230	101300000	1000	0	0	-1	0
23125355	5501	0	0	-100	0	230	101300000	1000	0	0	-1	0
23137915	5508	2	0	-100	0	230	101300000	1000	0	0	-1	0
23150475	5509	0	0	-100	0	230	101300000	1000	0	0	-1	0
23163035	5510	0	0	-100	0	230	101300000	1000	0	0	-1	0
23175595	5507	0	0	-100	0	230	101300000	1000	0	0	-1	0
23188155	5516	0	0	-100	0	230	101300000	1000	0	0	-1	0
23200715	5507	3	0	-100	0	230	101300000	1000	0	0	-1	0
23213275	5511	2	0	-100	0	230	101300000	1000	0	0	-1	0
23225835	5508	0	0	-100	0	230	101300000	1000	0	0	-1	0
23238395	5509	0	0	-100	0	230	101300000	1000	0	0	-1	0
23250955	5509	0	0	-100	0	230	101300000	1000	0	0	-1	0
23263515	5504	0	0	-100	0	230	101300000	1000	0	0	-1	0
23276075	5506	4	0	-100	0	230	101300000	1000	0	0	-1	0
23288635	5507	0	0	-100	0	230	101300000	1000	0	0	-1	0
23301195	5512	0	0	-100	0	230	101300000	1000	0	0	-1	0
23313755	5512	0	0	-100	0	230	101300000	1000	0	0	-1	0
23326315	5508	4	0	-100	0	230	101300000	1000	0	0	-1	0
23338875	5505	1	0	-100	0	230	101300000	1000	0	0	-1	0
23351435	5509	0	0	-100	0	230	101300000	1000	0	0	-1	0
23363995	5512	3	0	-100	0	230	101300000	1000	0	0	-1	0
23376555	5511	0	0	-100	0	230	101300000	1000	0	0	-1	0
23389115	5508	0	0	-100	0	230	101300000	1000	0	0	-1	0
23401675	5508	4	0	-100	0	230	101300000	1000	0	0	-1	0
23414235	5507	0	0	-100	0	230	101300000	1000	0	0	-1	0
23426795	5509	0	0	-100	0	230	101300000	1000	0	0	-1	0
23439355	5508	0	0	-100	0	230	101300000	1000	0	0	-1	0
23451915	5511	1	0	-100	0	230	101300000	1000	0	0	-1	0
23464475	5502	0	0	-100	0	230	101300000	1000	0	0	-1	0
23477035	5515	0	0	-100	0	230	101300000	1000	0	0	-1	0
23489595	5509	0	0	-100	0	230	101300000	1000	0	0	-1	0
23502155	5512	0	0	-100	0	230	101300000	1000	0	0	-1	0
23514715	5509	0	0	-100	0	230	101300000	1000	0	0	-1	0
23527275	5509	0	0	-100	0	230	101300000	1000	0	0	-1	0
23539835	5505	3	0	-100	0	230	101300000	1000	0	0	-1	0
23552395	5507	1	0	-100	0	230	101300000	1000	0	0	-1	0
23564955	5509	0	0	-100	0	230	101300000	1000	0	0	-1	0
23577515	5508	0	0	-100	0	230	101300000	1000	0	0	-1	0
23590075	5509	3	0	-100	0	230	101300000	1000	0	0	-1	0
23602635	5508	0	0	-100	0	230	101300000	1000	0	0	-1	0
23615195	5513	0	0	-100	0	230	101300000	1000	0	0	-1	0
23627755	5504	0	0	-100	0	230	101300000	1000	0	0	-1	0
23640315	5511	0	0	-100	0	230	101300000	1000	0	0	-1	0
23652875	5514	0	0	-100	0	230	101300000	1000	0	0	-1	0
23665435	5507	4	0	-100	0	230	101300000	1000	0	0	-1	0
23677995	5511	4	0	-100	0	230	101300000	1000	0	0	-1	0
23690555	5511	0	0	-100	0	230	101300000	1000	0	0	-1	0
23703115	5504	3	0	-100	0	230	101300000	1000	0	0	-1	0
23715675	5512	0	0	-100	0	230	101300000	1000	0	0	-1	0
23728235	5505	0	0	-100	0	230	101300000	1000	0	0	-1	0
23740795	5503	0	0	-100	0	230	101300000	1000	0	0	-1	0
23753355	5514	0	0	-100	0	230	101300000	1000	0	0	-1	0
23765915	5504	0	0	-100	0	230	101300000	1000	0	0	-1	0
23778475	5508	0	0	-100	0	230	101300000	1000	0	0	-1	0
23791035	5514	0	0	-100	0	230	101300000	1000	0	0	-1	0
23803595	5505	0	0	-100	0	230	101300000	1000	0	0	-1	0
23816155	5514	0	0	-100	0	230	101300000	1000	0	0	-1	0
23828715	5507	3	0	-100	0	230	101300000	1000	0	0	-1	0
23841275	5509	2	0	-100	0	230	101300000	1000	0	0	-1	0
23853835	5515	0	0	-100	0	230	101300000	1000	0	0	-1	0
23866395	5511	0	0	-100	0	230	101300000	1000	0	0	-1	0
23878955	5507	0	0	-100	0	230	101300000	1000	0	0	-1	0
23891515	5506	1	0	-100	0	230	101300000	1000	0	0	-1	0
23904075	5504	4	0	-100	0	230	101300000	1000	0	0	-1	0
23916635	5506	0	0	-100	0	230	101300000	1000	0	0	-1	0
23929195	5515	0	0	-100	0	230	101300000	1000	0	0	-1	0
23941755	5504	0	0	-100	0	230	101300000	1000	0	0	-1	0
23954315	5510	4	0	-100	0	230	101300000	1000	0	0	-1	0
23966875	5507	3	0	-100	0	230	101300000	1000	0	0	-1	0
23979435	5511	0	0	-100	0	230	101300000	1000	0	0	-1	0
23991995	5512	1	0	-100	0	230	101300000	1000	0	0	-1	0
24004555	5503	0	0	-100	0	230	101300000	1000	0	0	-1	0
24017115	5508	2	0	-100	0	230	101300000	1000	0	0	-1	0
24029675	5512	0	0	-100	0	230	101300000	1000	0	0	-1	0
24042235	5510	0	0	-100	0	230	101300000	1000	0	0	-1	0
24054795	5507	5	0	-100	0	230	101300000	1000	0	0	-1	0
24167835	5503	3	0	-100	0	230	101300000	1000	0	0	-1	0
24180395	5509	0	0	-100	0	230	101300000	1000	0	0	-1	0
24192955	5509	0	0	-100	0	230	101300000	1000	0	0	-1	0
24205515	5506	0	0	-100	0	230	101300000	1000	0	0	-1	0
24218075	5506	0	0	-100	0	230	101300000	1000	0	0	-1	0
24230635	5508	0	0	-100	0	230	101300000	1000	0	0	-1	0
24243195	5510	0	0	-100	0	230	101300000	1000	0	0	-1	0
24255755	5504	0	0	-100	0	230	101300000	1000	0	0	-1	0
24268315	5508	0	0	-100	0	230	101300000	1000	0	0	-1	0
24280875	5505	0	0	-100	0	230	101300000	1000	0	0	-1	0
24293435	5510	1	0	-100	0	230	101300000	1000	0	0	-1	0
24331115	5509	2	0	-100	0	230	101300000	1000	0	0	-1	0
24343675	5506	0	0	-100	0	230	101300000	1000	0	0	-1	0
24356235	5508	0	0	-100	0	230	101300000	1000	0	0	-1	0
24368795	5508	4	0	-100	0	230	101300000	1000	0	0	-1	0
24381355	5508	0	0	-100	0	230	101300000	1000	0	0	-1	0
24393915	5514	0	0	-100	0	230	101300000	1000	0	0	-1	0
24406475	5505	0	0	-100	0	230	101300000	1000	0	0	-1	0
24419035	5508	3	0	-100	0	230	101300000	1000	0	0	-1	0
24431595	5508	0	0	-100	0	230	101300000	1000	0	0	-1	0
24444155	5515	0	0	-100	0	230	101300000	1000	0	0	-1	0
24456715	5511	1	0	-100	0	230	101300000	1000	0	0	-1	0
24469275	5508	0	0	-100	0	230	101300000	1000	0	0	-1	0
24481835	5509	0	0	-100	0	230	101300000	1000	0	0	-1	0
24494395	5506	0	0	-100	0	230	101300000	1000	0	0	-1	0
24506955	5507	2	0	-100	0	230	101300000	1000	0	0	-1	0
24519515	5512	0	0	-100	0	230	101300000	1000	0	0	-1	0
24532075	5511	0	0	-100	0	230	101300000	1000	0	0	-1	0
24544635	5504	3	0	-100	0	230	101300000	1000	0	0	-1	0
24557195	5516	0	0	-100	0	230	101300000	1000	0	0	-1	0
24569755	5508	0	0	-100	0	230	101300000	1000	0	0	-1	0
24582315	5506	4	0	-100	0	230	101300000	1000	0	0	-1	0
24594875	5513	0	0	-100	0	230	101300000	1000	0	0	-1	0
24607435	5509	0	0	-100	0	230	101300000	1000	0	0	-1	0
24619995	5508	0	0	-100	0	230	101300000	1000	0	0	-1	0
24632555	5505	1	0	-100	0	230	101300000	1000	0	0	-1	0
24645115	5509	0	0	-100	0	230	101300000	1000	0	0	-1	0
24657675	5513	0	0	-100	0	230	101300000	1000	0	0	-1	0
24670235	5510	0	0	-100	0	230	101300000	1000	0	0	-1	0
24682795	5504	0	0	-100	0	230	101300000	1000	0	0	-1	0
24695355	5505	3	0	-100	0	230	101300000	1000	0	0	-1	0
24707915	5511	0	0	-100	0	230	101300000	1000	0	0	-1	0
24720475	5507	0	0	-100	0	230	101300000	1000	0	0	-1	0
24733035	5506	3	0	-100	0	230	101300000	1000	0	0	-1	0
24745595	5512	0	0	-100	0	230	101300000	1000	0	0	-1	0
24758155	5514	0	0	-100	0	230	101300000	1000	0	0	-1	0
24770715	5505	2	0	-100	0	230	101300000	1000	0	0	-1	0
24783275	5511	0	0	-100	0	230	101300000	1000	0	0	-1	0
24795835	5506	0	0	-100	0	230	101300000	1000	0	0	-1	0
24808395	5505	2	0	-100	0	230	101300000	1000	0	0	-1	0
24820955	5507	0	0	-100	0	230	101300000	1000	0	0	-1	0
24833515	5506	0	0	-100	0	230	101300000	1000	0	0	-1	0
24846075	5508	5	0	-100	0	230	101300000	1000	0	0	-1	0
24858635	5503	1	0	-100	0	230	101300000	1000	0	0	-1	0
24871195	5512	0	0	-100	0	230	101300000	1000	0	0	-1	0
24883755	5510	0	0	-100	0	230	101300000	1000	0	0	-1	0
24896315	5505	0	0	-100	0	230	101300000	1000	0	0	-1	0
24908875	5505	4	0	-100	0	230	101300000	1000	0	0	-1	0
24921435	5504	0	0	-100	0	230	101300000	1000	0	0	-1	0
24933995	5513	4	0	-100	0	230	101300000	1000	0	0	-1	0
24946555	5512	0	0	-100	0	230	101300000	1000	0	0	-1	0
24959115	5509	0	0	-100	0	230	101300000	1000	0	0	-1	0
24971675	5510	0	0	-100	0	230	101300000	1000	0	0	-1	0
24984235	5502	0	0	-100	0	230	101300000	1000	0	0	-1	0
24996795	5503	4	0	-100	0	230	101300000	1000	0	0	-1	0
25009355	5508	1	0	-100	0	230	101300000	1000	0	0	-1	0
25021915	5508	0	0	-100	0	230	101300000	1000	0	0	-1	0
25034475	5513	0	0	-100	0	230	101300000	1000	0	0	-1	0
25047035	5512	0	0	-100	0	230	101300000	1000	0	0	-1	0
25059595	5506	0	0	-100	0	230	101300000	1000	0	0	-1	0
25072155	5514	0	0	-100	0	230	101300000	1000	0	0	-1	0
25084715	5503	3	0	-100	0	230	101300000	1000	0	0	-1	0
25097275	5509	0	0	-100	0	230	101300000	1000	0	0	-1	0
25109835	5510	0	0	-100	0	230	101300000	1000	0	0	-1	0
25122395	5510	0	0	-100	0	230	101300000	1000	0	0	-1	0
25134955	5505	0	0	-100	0	230	101300000	1000	0	0	-1	0
25147515	5505	0	0	-100	0	230	101300000	1000	0	0	-1	0
25160075	5508	3	0	-100	0	230	101300000	1000	0	0	-1	0
25172635	5504	4	0	-100	0	230	101300000	1000	0	0	-1	0
25185195	5508	0	0	-100	0	230	101300000	1000	0	0	-1	0
25197755	5511	0	0	-100	0	230	101300000	1000	0	0	-1	0
25210315	5508	0	0	-100	0	230	101300000	1000	0	0	-1	0
25222875	5508	5	0	-100	0	230	101300000	1000	0	0	-1	0
25235435	5505	0	0	-100	0	230	101300000	1000	0	0	-1	0
25247995	5512	3	0	-100	0	230	101300000	1000	0	0	-1	0
25260555	5511	0	0	-100	0	230	101300000	1000	0	0	-1	0
25273115	5511	0	0	-100	0	230	101300000	1000	0	0	-1	0
25285675	5508	0	0	-100	0	230	101300000	1000	0	0	-1	0
25298235	5508	2	0	-100	0	230	101300000	1000	0	0	-1	0
25310795	5511	0	0	-100	0	230	101300000	1000	0	0	-1	0
25323355	5509	0	0	-100	0	230	101300000	1000	0	0	-1	0
25335915	5511	0	0	-100	0	230	101300000	1000	0	0	-1	0
25348475	5510	0	0	-100	0	230	101300000	1000	0	0	-1	0
25361035	5507	0	0	-100	0	230	101300000	1000	0	0	-1	0
25373595	5507	0	0	-100	0	230	101300000	1000	0	0	-1	0
25386155	5514	2	0	-100	0	230	101300000	1000	0	0	-1	0
25398715	5503	1	0	-100	0	230	101300000	1000	0	0	-1	0
25411275	5511	0	0	-100	0	230	101300000	1000	0	0	-1	0
25423835	5511	0	0	-100	0	230	101300000	1000	0	0	-1	0
25436395	5512	0	0	-100	0	230	101300000	1000	0	0	-1	0
25448955	5511	0	0	-100	0	230	101300000	1000	0	0	-1	0
25461515	5510	0	0	-100	0	230	101300000	1000	0	0	-1	0
25474075	5505	0	0	-100	0	230	101300000	1000	0	0	-1	0
25486635	5511	3	0	-100	0	230	101300000	1000	0	0	-1	0
25499195	5505	4	0	-100	0	230	101300000	1000	0	0	-1	0
25511755	5511	0	0	-100	0	230	101300000	1000	0	0	-1	0
25524315	5511	0	0	-100	0	230	101300000	1000	0	0	-1	0
25536875	5512	0	0	-100	0	230	101300000	1000	0	0	-1	0
25549435	5514	0	0	-100	0	230	101300000	1000	0	0	-1	0
25561995	5510	0	0	-100	0	230	101300000	1000	0	0	-1	0
25574555	5510	0	0	-100	0	230	101300000	1000	0	0	-1	0
25587115	5507	4	0	-100	0	230	101300000	1000	0	0	-1	0
25599675	5506	1	0	-100	0	230	101300000	1000	0	0	-1	0
25612235	5510	0	0	-100	0	230	101300000	1000	0	0	-1	0
25624795	5512	0	0	-100	0	230	101300000	1000	0	0	-1	0
25637355	5512	0	0	-100	0	230	101300000	1000	0	0	-1	0
25649915	5514	0	0	-100	0	230	101300000	1000	0	0	-1	0
25662475	5510	0	0	-100	0	230	101300000	1000	0	0	-1	0
25675035	5505	0	0	-100	0	230	101300000	1000	0	0	-1	0
25687595	5507	2	0	-100	0	230	101300000	1000	0	0	-1	0
25700155	5515	0	0	-100	0	230	101300000	1000	0	0	-1	0
25712715	5511	0	0	-100	0	230	101300000	1000	0	0	-1	0
25725275	5511	0	0	-100	0	230	101300000	1000	0	0	-1	0
25737835	5505	0	0	-100	0	230	101300000	1000	0	0	-1	0
25750395	5506	3	0	-100	0	230	101300000	1000	0	0	-1	0
25762955	5506	1	0	-100	0	230	101300000	1000	0	0	-1	0
25775515	5505	0	0	-100	0	230	101300000	1000	0	0	-1	0
25788075	5509	0	0	-100	0	230	101300000	1000	0	0	-1	0
25800635	5514	0	0	-100	0	230	101300000	1000	0	0	-1	0
25813195	5511	0	0	-100	0	230	101300000	1000	0	0	-1	0
25825755	5511	0	0	-100	0	230	101300000	1000	0	0	-1	0
25838315	5509	0	0	-100	0	230	101300000	1000	0	0	-1	0
25850875	5505	0	0	-100	0	230	101300000	1000	0	0	-1	0
25863435	5509	4	0	-100	0	230	101300000	1000	0	0	-1	0
25875995	5504	0	0	-100	0	230	101300000	1000	0	0	-1	0
25888555	5508	0	0	-100	0	230	101300000	1000	0	0	-1	0
25901115	5513	0	0	-100	0	230	101300000	1000	0	0	-1	0
25913675	5512	0	0	-100	0	230	101300000	1000	0	0	-1	0
25926235	5510	0	0	-100	0	230	101300000	1000	0	0	-1	0
25938795	5509	0	0	-100	0	230	101300000	1000	0	0	-1	0
25951355	5504	0	0	-100	0	230	101300000	1000	0	0	-1	0
25963915	5507	3	0	-100	0	230	101300000	1000	0	0	-1	0
25976475	5507	4	0	-100	0	230	101300000	1000	0	0	-1	0
25989035	5506	0	0	-100	0	230	101300000	1000	0	0	-1	0
26001595	5505	0	0	-100	0	230	101300000	1000	0	0	-1	0
26014155	5519	0	0	-100	0	230	101300000	1000	0	0	-1	0
26026715	5515	0	0	-100	0	230	101300000	1000	0	0	-1	0
26039275	5508	0	0	-100	0	230	101300000	1000	0	0	-1	0
26051835	5508	0	0	-100	0	230	101300000	1000	0	0	-1	0
26064395	5506	0	0	-100	0	230	101300000	1000	0	0	-1	0
26076955	5509	0	0	-100	0	230	101300000	1000	0	0	-1	0
26089515	5509	0	0	-100	0	230	101300000	1000	0	0	-1	0
26102075	5511	0	0	-100	0	230	101300000	1000	0	0	-1	0
26114635	5515	0	0	-100	0	230	101300000	1000	0	0	-1	0
26127195	5511	0	0	-100	0	230	101300000	1000	0	0	-1	0
26139755	5514	0	0	-100	0	230	101300000	1000	0	0	-1	0
26152315	5510	0	0	-100	0	230	101300000	1000	0	0	-1	0
26164875	5502	0	0	-100	0	230	101300000	1000	0	0	-1	0
26177435	5505	3	0	-100	0	230	101300000	1000	0	0	-1	0
26189995	5509	3	0	-100	0	230	101300000	1000	0	0	-1	0
26202555	5512	0	0	-100	0	230	101300000	1000	0	0	-1	0
26215115	5511	0	0	-100	0	230	101300000	1000	0	0	-1	0
26227675	5507	0	0	-100	0	230	101300000	1000	0	0	-1	0
26240235	5506	0	0	-100	0	230	101300000	1000	0	0	-1	0
26252795	5509	3	0	-100	0	230	101300000	1000	0	0	-1	0
26265355	5509	0	0	-100	0	230	101300000	1000	0	0	-1	0
26277915	5509	0	0	-100	0	230	101300000	1000	0	0	-1	0
26290475	5508	0	0	-100	0	230	101300000	1000	0	0	-1	0
26303035	5508	4	0	-100	0	230	101300000	1000	0	0	-1	0
26315595	5501	3	0	-100	0	230	101300000	1000	0	0	-1	0
26328155	5521	0	0	-100	0	230	101300000	1000	0	0	-1	0
26340715	5509	0	0	-100	0	230	101300000	1000	0	0	-1	0
26353275	5511	0	0	-100	0	230	101300000	1000	0	0	-1	0
26365835	5509	0	0	-100	0	230	101300000	1000	0	0	-1	0
26378395	5505	3	0	-100	0	230	101300000	1000	0	0	-1	0
26390955	5504	1	0	-100	0	230	101300000	1000	0	0	-1	0
26403515	5513	0	0	-100	0	230	101300000	1000	0	0	-1	0
26416075	5511	0	0	-100	0	230	101300000	1000	0	0	-1	0
26428635	5509	0	0	-100	0	230	101300000	1000	0	0	-1	0
26441195	5505	0	0	-100	0	230	101300000	1000	0	0	-1	0
26453755	5507	1	0	-100	0	230	101300000	1000	0	0	-1	0
26466315	5514	0	0	-100	0	230	101300000	1000	0	0	-1	0
26478875	5512	0	0	-100	0	230	101300000	1000	0	0	-1	0
26491435	5512	0	0	-100	0	230	101300000	1000	0	0	-1	0
26503995	5508	0	0	-100	0	230	101300000	1000	0	0	-1	0
26516555	5511	0	0	-100	0	230	101300000	1000	0	0	-1	0
26529115	5509	0	0	-100	0	230	101300000	1000	0	0	-1	0
26541675	5505	0	0	-100	0	230	101300000	1000	0	0	-1	0
26554235	5506	5	0	-100	0	230	101300000	1000	0	0	-1	0
26566795	5504	2	0	-100	0	230	101300000	1000	0	0	-1	0
26579355	5510	0	0	-100	0	230	101300000	1000	0	0	-1	0
26591915	5515	0	0	-100	0	230	101300000	1000	0	0	-1	0
26604475	5507	1	0	-100	0	230	101300000	1000	0	0	-1	0
26617035	5507	0	0	-100	0	230	101300000	1000	0	0	-1	0
26629595	5512	0	0	-100	0	230	101300000	1000	0	0	-1	0
26642155	5515	0	0	-100	0	230	101300000	1000	0	0	-1	0
26654715	5511	0	0	-100	0	230	101300000	1000	0	0	-1	0
26667275	5510	0	0	-100	0	230	101300000	1000	0	0	-1	0
26679835	5502	0	0	-100	0	230	101300000	1000	0	0	-1	0
26692395	5511	3	0	-100	0	230	101300000	1000	0	0	-1	0
26704955	5508	0	0	-100	0	230	101300000	1000	0	0	-1	0
26717515	5507	0	0	-100	0	230	101300000	1000	0	0	-1	0
26730075	5505	0	0	-100	0	230	101300000	1000	0	0	-1	0
26742635	5507	4	0	-100	0	230	101300000	1000	0	0	-1	0
26755195	5508	0	0	-100	0	230	101300000	1000	0	0	-1	0
26767755	5512	0	0	-100	0	230	101300000	1000	0	0	-1	0
26780315	5509	0	0	-100	0	230	101300000	1000	0	0	-1	0
26792875	5506	0	0	-100	0	230	101300000	1000	0	0	-1	0
26805435	5507	4	0	-100	0	230	101300000	1000	0	0	-1	0
26817995	5503	0	0	-100	0	230	101300000	1000	0	0	-1	0
26830555	5514	0	0	-100	0	230	101300000	1000	0	0	-1	0
26843115	5506	0	0	-100	0	230	101300000	1000	0	0	-1	0
26855675	5508	0	0	-100	0	230	101300000	1000	0	0	-1	0
26868235	5506	3	0	-100	0	230	101300000	1000	0	0	-1	0
26880795	5505	2	0	-100	0	230	101300000	1000	0	0	-1	0
26893355	5510	0	0	-100	0	230	101300000	1000	0	0	-1	0
26905915	5511	0	0	-100	0	230	101300000	1000	0	0	-1	0
26918475	5510	0	0	-100	0	230	101300000	1000	0	0	-1	0
26931035	5509	0	0	-100	0	230	101300000	1000	0	0	-1	0
26943595	5506	4	0	-100	0	230	101300000	1000	0	0	-1	0
26956155	5513	0	0	-100	0	230	101300000	1000	0	0	-1	0
26968715	5511	0	0	-100	0	230	101300000	1000	0	0	-1	0
26981275	5509	0	0	-100	0	230	101300000	1000	0	0	-1	0
26993835	5504	0	0	-100	0	230	101300000	1000	0	0	-1	0
27006395	5507	3	0	-100	0	230	101300000	1000	0	0	-1	0
27044075	5503	0	0	-100	0	230	101300000	1000	0	0	-1	0
