timestamp	voltage	current	windSpeed	pitchAngle	rpm	temperature	ambientPressure	humidity	accelerationX	accelerationY	accelerationZ	currentSink
7038070	6016	5	0	-100	0	230	101300000	1000	0	0	-1	0
7045523	6024	0	0	-100	0	230	101300000	1000	0	0	-1	0
7058083	6019	0	0	-100	0	230	101300000	1000	0	0	-1	0
7070643	6022	0	0	-100	0	230	101300000	1000	0	0	-1	0
7083203	6019	0	0	-100	0	230	101300000	1000	0	0	-1	0
7095763	6018	0	0	-100	0	230	101300000	1000	0	0	-1	0
7108323	6012	0	0	-100	0	230	101300000	1000	0	0	-1	0
7120883	6010	0	0	-100	0	230	101300000	1000	0	0	-1	0
7133443	6015	3	0	-100	0	230	101300000	1000	0	0	-1	0
7146004	6014	0	0	-100	0	230	101300000	1000	0	0	-1	0
7158563	6023	0	0	-100	0	230	101300000	1000	0	0	-1	0
7171123	6018	0	0	-100	0	230	101300000	1000	0	0	-1	0
7183683	6013	0	0	-100	0	230	101300000	1000	0	0	-1	0
7196243	6019	3	0	-100	0	230	101300000	1000	0	0	-1	0
7208803	6019	0	0	-100	0	230	101300000	1000	0	0	-1	0
7221363	6021	0	0	-100	0	230	101300000	1000	0	0	-1	0
7233923	6018	0	0	-100	0	230	101300000	1000	0	0	-1	0
7246483	6016	0	0	-100	0	230	101300000	1000	0	0	-1	0
7259043	6019	2	0	-100	0	230	101300000	1000	0	0	-1	0
7271603	6017	0	0	-100	0	230	101300000	1000	0	0	-1	0
7284163	6026	0	0	-100	0	230	101300000	1000	0	0	-1	0
7296723	6019	0	0	-100	0	230	101300000	1000	0	0	-1	0
7309283	6018	0	0	-100	0	230	101300000	1000	0	0	-1	0
7321843	6018	0	0	-100	0	230	101300000	1000	0	0	-1	0
7334403	6021	0	0	-100	0	230	101300000	1000	0	0	-1	0
7346963	6016	0	0	-100	0	230	101300000	1000	0	0	-1	0
7715235	6018	0	0	-100	0	230	101300000	1000	0	0	-1	0
7727795	6015	0	0	-100	0	230	101300000	1000	0	0	-1	0
7740355	6015	2	0	-100	0	230	101300000	1000	0	0	-1	0
7752915	6020	0	0	-100	0	230	101300000	1000	0	0	-1	0
7765475	6019	0	0	-100	0	230	101300000	1000	0	0	-1	0
7778035	6014	0	0	-100	0	230	101300000	1000	0	0	-1	0
7790595	6017	0	0	-100	0	230	101300000	1000	0	0	-1	0
7803155	6013	2	0	-100	0	230	101300000	1000	0	0	-1	0
7815715	6015	0	0	-100	0	230	101300000	1000	0	0	-1	0
7828275	6017	0	0	-100	0	230	101300000	1000	0	0	-1	0
7840835	6022	0	0	-100	0	230	101300000	1000	0	0	-1	0
7853395	6017	0	0	-100	0	230	101300000	1000	0	0	-1	0
7865955	6013	0	0	-100	0	230	101300000	1000	0	0	-1	0
7878515	6017	2	0	-100	0	230	101300000	1000	0	0	-1	0
7891075	6014	3	0	-100	0	230	101300000	1000	0	0	-1	0
7903635	6014	0	0	-100	0	230	101300000	1000	0	0	-1	0
7916195	6021	0	0	-100	0	230	101300000	1000	0	0	-1	0
7928755	6018	0	0	-100	0	230	101300000	1000	0	0	-1	0
7941315	6012	0	0	-100	0	230	101300000	1000	0	0	-1	0
7953875	6013	4	0	-100	0	230	101300000	1000	0	0	-1	0
7966435	6011	2	0	-100	0	230	101300000	1000	0	0	-1	0
7978995	6019	0	0	-100	0	230	101300000	1000	0	0	-1	0
7991555	6024	0	0	-100	0	230	101300000	1000	0	0	-1	0
8004115	6018	0	0	-100	0	230	101300000	1000	0	0	-1	0
8016675	6015	0	0	-100	0	230	101300000	1000	0	0	-1	0
8029235	6012	1	0	-100	0	230	101300000	1000	0	0	-1	0
8041795	6021	0	0	-100	0	230	101300000	1000	0	0	-1	0
8054355	6017	0	0	-100	0	230	101300000	1000	0	0	-1	0
8066915	6016	2	0	-100	0	230	101300000	1000	0	0	-1	0
8079475	6018	0	0	-100	0	230	101300000	1000	0	0	-1	0
8092035	6018	0	0	-100	0	230	101300000	1000	0	0	-1	0
8104595	6018	0	0	-100	0	230	101300000	1000	0	0	-1	0
8117155	6019	0	0	-100	0	230	101300000	1000	0	0	-1	0
8129715	6021	0	0	-100	0	230	101300000	1000	0	0	-1	0
8142275	6012	0	0	-100	0	230	101300000	1000	0	0	-1	0
8154835	6016	1	0	-100	0	230	101300000	1000	0	0	-1	0
8167395	6025	0	0	-100	0	230	101300000	1000	0	0	-1	0
8179955	6019	0	0	-100	0	230	101300000	1000	0	0	-1	0
8192515	6016	3	0	-100	0	230	101300000	1000	0	0	-1	0
8205075	6018	0	0	-100	0	230	101300000	1000	0	0	-1	0
8217635	6016	0	0	-100	0	230	101300000	1000	0	0	-1	0
8230195	6015	1	0	-100	0	230	101300000	1000	0	0	-1	0
8242755	6021	0	0	-100	0	230	101300000	1000	0	0	-1	0
8255315	6009	0	0	-100	0	230	101300000	1000	0	0	-1	0
8267875	6015	1	0	-100	0	230	101300000	1000	0	0	-1	0
8280435	6019	0	0	-100	0	230	101300000	1000	0	0	-1	0
8292995	6018	0	0	-100	0	230	101300000	1000	0	0	-1	0
8305555	6015	2	0	-100	0	230	101300000	1000	0	0	-1	0
8318115	6022	0	0	-100	0	230	101300000	1000	0	0	-1	0
8330675	6017	0	0	-100	0	230	101300000	1000	0	0	-1	0
8343235	6021	2	0	-100	0	230	101300000	1000	0	0	-1	0
8355795	6019	0	0	-100	0	230	101300000	1000	0	0	-1	0
8368355	6016	0	0	-100	0	230	101300000	1000	0	0	-1	0
8380915	6019	0	0	-100	0	230	101300000	1000	0	0	-1	0
8393475	6019	0	0	-100	0	230	101300000	1000	0	0	-1	0
8406035	6012	0	0	-100	0	230	101300000	1000	0	0	-1	0
8418595	6022	0	0	-100	0	230	101300000	1000	0	0	-1	0
8431155	6022	0	0	-100	0	230	101300000	1000	0	0	-1	0
8443715	6017	0	0	-100	0	230	101300000	1000	0	0	-1	0
8456275	6011	1	0	-100	0	230	101300000	1000	0	0	-1	0
8468835	6019	0	0	-100	0	230	101300000	1000	0	0	-1	0
8481395	6014	0	0	-100	0	230	101300000	1000	0	0	-1	0
8493955	6017	2	0	-100	0	230	101300000	1000	0	0	-1	0
8506515	6017	0	0	-100	0	230	101300000	1000	0	0	-1	0
8519075	6023	0	0	-100	0	230	101300000	1000	0	0	-1	0
8531635	6012	0	0	-100	0	230	101300000	1000	0	0	-1	0
8544195	6015	0	0	-100	0	230	101300000	1000	0	0	-1	0
8556755	6018	0	0	-100	0	230	101300000	1000	0	0	-1	0
8569315	6013	4	0	-100	0	230	101300000	1000	0	0	-1	0
8581875	6027	0	0	-100	0	230	101300000	1000	0	0	-1	0
8594435	6016	0	0	-100	0	230	101300000	1000	0	0	-1	0
8606995	6016	0	0	-100	0	230	101300000	1000	0	0	-1	0
8619555	6018	0	0	-100	0	230	101300000	1000	0	0	-1	0
8632115	6016	0	0	-100	0	230	101300000	1000	0	0	-1	0
8644675	6015	1	0	-100	0	230	101300000	1000	0	0	-1	0
8657235	6023	0	0	-100	0	230	101300000	1000	0	0	-1	0
8669795	6013	0	0	-100	0	230	101300000	1000	0	0	-1	0
8682355	6022	0	0	-100	0	230	101300000	1000	0	0	-1	0
8694915	6016	0	0	-100	0	230	101300000	1000	0	0	-1	0
8707475	6015	1	0	-100	0	230	101300000	1000	0	0	-1	0
8720035	6021	0	0	-100	0	230	101300000	1000	0	0	-1	0
8732595	6012	3	0	-100	0	230	101300000	1000	0	0	-1	0
8745155	6021	0	0	-100	0	230	101300000	1000	0	0	-1	0
8757715	6013	0	0	-100	0	230	101300000	1000	0	0	-1	0
8770275	6017	0	0	-100	0	230	101300000	1000	0	0	-1	0
8782835	6020	0	0	-100	0	230	101300000	1000	0	0	-1	0
8795395	6012	3	0	-100	0	230	101300000	1000	0	0	-1	0
8807955	6019	0	0	-100	0	230	101300000	1000	0	0	-1	0
8820515	6017	0	0	-100	0	230	101300000	1000	0	0	-1	0
8833075	6016	0	0	-100	0	230	101300000	1000	0	0	-1	0
8845635	6017	0	0	-100	0	230	101300000	1000	0	0	-1	0
8858195	6018	0	0	-100	0	230	101300000	1000	0	0	-1	0
8870755	6018	0	0	-100	0	230	101300000	1000	0	0	-1	0
8883315	6016	0	0	-100	0	230	101300000	1000	0	0	-1	0
8895875	6017	0	0	-100	0	230	101300000	1000	0	0	-1	0
8908435	6020	0	0	-100	0	230	101300000	1000	0	0	-1	0
8920995	6017	0	0	-100	0	230	101300000	1000	0	0	-1	0
8933555	6016	0	0	-100	0	230	101300000	1000	0	0	-1	0
8946115	6018	0	0	-100	0	230	101300000	1000	0	0	-1	0
8958675	6017	2	0	-100	0	230	101300000	1000	0	0	-1	0
8971235	6022	0	0	-100	0	230	101300000	1000	0	0	-1	0
8983795	6019	0	0	-100	0	230	101300000	1000	0	0	-1	0
8996355	6013	0	0	-100	0	230	101300000	1000	0	0	-1	0
9008915	6013	3	0	-100	0	230	101300000	1000	0	0	-1	0
9021475	6019	0	0	-100	0	230	101300000	1000	0	0	-1	0
9034035	6010	0	0	-100	0	230	101300000	1000	0	0	-1	0
9046595	6017	2	0	-100	0	230	101300000	1000	0	0	-1	0
9059155	6023	0	0	-100	0	230	101300000	1000	0	0	-1	0
9071715	6018	0	0	-100	0	230	101300000	1000	0	0	-1	0
9084275	6013	0	0	-100	0	230	101300000	1000	0	0	-1	0
9096835	6013	2	0	-100	0	230	101300000	1000	0	0	-1	0
9109395	6020	0	0	-100	0	230	101300000	1000	0	0	-1	0
9121955	6014	0	0	-100	0	230	101300000	1000	0	0	-1	0
9134515	6014	4	0	-100	0	230	101300000	1000	0	0	-1	0
9147075	6019	0	0	-100	0	230	101300000	1000	0	0	-1	0
9159635	6025	0	0	-100	0	230	101300000	1000	0	0	-1	0
9172195	6017	3	0	-100	0	230	101300000	1000	0	0	-1	0
9184755	6016	0	0	-100	0	230	101300000	1000	0	0	-1	0
9197315	6021	0	0	-100	0	230	101300000	1000	0	0	-1	0
9209875	6015	3	0	-100	0	230	101300000	1000	0	0	-1	0
9222435	6017	0	0	-100	0	230	101300000	1000	0	0	-1	0
9234995	6023	2	0	-100	0	230	101300000	1000	0	0	-1	0
9247555	6014	0	0	-100	0	230	101300000	1000	0	0	-1	0
9260115	6016	0	0	-100	0	230	101300000	1000	0	0	-1	0
9272675	6016	1	0	-100	0	230	101300000	1000	0	0	-1	0
9285235	6022	0	0	-100	0	230	101300000	1000	0	0	-1	0
9297795	6019	0	0	-100	0	230	101300000	1000	0	0	-1	0
9310355	6013	0	0	-100	0	230	101300000	1000	0	0	-1	0
9322915	6014	2	0	-100	0	230	101300000	1000	0	0	-1	0
9335475	6022	0	0	-100	0	230	101300000	1000	0	0	-1	0
9348035	6019	0	0	-100	0	230	101300000	1000	0	0	-1	0
9360595	6022	0	0	-100	0	230	101300000	1000	0	0	-1	0
9373155	6013	0	0	-100	0	230	101300000	1000	0	0	-1	0
9385715	6017	2	0	-100	0	230	101300000	1000	0	0	-1	0
9398275	6022	0	0	-100	0	230	101300000	1000	0	0	-1	0
9410835	6020	0	0	-100	0	230	101300000	1000	0	0	-1	0
9423395	6016	0	0	-100	0	230	101300000	1000	0	0	-1	0
9435955	6024	0	0	-100	0	230	101300000	1000	0	0	-1	0
9448515	6016	0	0	-100	0	230	101300000	1000	0	0	-1	0
9461075	6012	0	0	-100	0	230	101300000	1000	0	0	-1	0
9473635	6016	2	0	-100	0	230	101300000	1000	0	0	-1	0
9486195	6016	0	0	-100	0	230	101300000	1000	0	0	-1	0
9498755	6020	0	0	-100	0	230	101300000	1000	0	0	-1	0
9511315	6014	0	0	-100	0	230	101300000	1000	0	0	-1	0
9523875	6016	0	0	-100	0	230	101300000	1000	0	0	-1	0
9536435	6016	2	0	-100	0	230	101300000	1000	0	0	-1	0
9548995	6012	0	0	-100	0	230	101300000	1000	0	0	-1	0
9561555	6026	0	0	-100	0	230	101300000	1000	0	0	-1	0
9574115	6014	0	0	-100	0	230	101300000	1000	0	0	-1	0
9586675	6016	0	0	-100	0	230	101300000	1000	0	0	-1	0
9599235	6016	2	0	-100	0	230	101300000	1000	0	0	-1	0
9611795	6021	0	0	-100	0	230	101300000	1000	0	0	-1	0
9624355	6020	0	0	-100	0	230	101300000	1000	0	0	-1	0
9636915	6014	4	0	-100	0	230	101300000	1000	0	0	-1	0
9649475	6013	1	0	-100	0	230	101300000	1000	0	0	-1	0
9662035	6023	0	0	-100	0	230	101300000	1000	0	0	-1	0
9674595	6016	0	0	-100	0	230	101300000	1000	0	0	-1	0
9687155	6012	0	0	-100	0	230	101300000	1000	0	0	-1	0
9699715	6015	1	0	-100	0	230	101300000	1000	0	0	-1	0
9712275	6017	0	0	-100	0	230	101300000	1000	0	0	-1	0
9724835	6015	0	0	-100	0	230	101300000	1000	0	0	-1	0
9737395	6016	1	0	-100	0	230	101300000	1000	0	0	-1	0
9749955	6022	0	0	-100	0	230	101300000	1000	0	0	-1	0
9762515	6017	0	0	-100	0	230	101300000	1000	0	0	-1	0
9775075	6015	4	0	-100	0	230	101300000	1000	0	0	-1	0
9787635	6017	1	0	-100	0	230	101300000	1000	0	0	-1	0
9800195	6025	0	0	-100	0	230	101300000	1000	0	0	-1	0
9812755	6017	0	0	-100	0	230	101300000	1000	0	0	-1	0
9825315	6020	0	0	-100	0	230	101300000	1000	0	0	-1	0
9837875	6021	0	0	-100	0	230	101300000	1000	0	0	-1	0
9850435	6020	0	0	-100	0	230	101300000	1000	0	0	-1	0
9862995	6017	0	0	-100	0	230	101300000	1000	0	0	-1	0
9875555	6011	0	0	-100	0	230	101300000	1000	0	0	-1	0
9888115	6016	3	0	-100	0	230	101300000	1000	0	0	-1	0
9900675	6015	2	0	-100	0	230	101300000	1000	0	0	-1	0
9913235	6015	0	0	-100	0	230	101300000	1000	0	0	-1	0
9925795	6025	0	0	-100	0	230	101300000	1000	0	0	-1	0
9938355	6022	0	0	-100	0	230	101300000	1000	0	0	-1	0
9950915	6020	0	0	-100	0	230	101300000	1000	0	0	-1	0
9963475	6015	0	0	-100	0	230	101300000	1000	0	0	-1	0
9976035	6013	0	0	-100	0	230	101300000	1000	0	0	-1	0
9988595	6015	2	0	-100	0	230	101300000	1000	0	0	-1	0
10001155	6013	0	0	-100	0	230	101300000	1000	0	0	-1	0
10013715	6022	0	0	-100	0	230	101300000	1000	0	0	-1	0
10026275	6021	0	0	-100	0	230	101300000	1000	0	0	-1	0
10038835	6019	0	0	-100	0	230	101300000	1000	0	0	-1	0
10051395	6013	0	0	-100	0	230	101300000	1000	0	0	-1	0
10063955	6016	0	0	-100	0	230	101300000	1000	0	0	-1	0
10076515	6014	3	0	-100	0	230	101300000	1000	0	0	-1	0
10089075	6015	0	0	-100	0	230	101300000	1000	0	0	-1	0
10101635	6017	0	0	-100	0	230	101300000	1000	0	0	-1	0
10114195	6018	0	0	-100	0	230	101300000	1000	0	0	-1	0
10126755	6014	0	0	-100	0	230	101300000	1000	0	0	-1	0
10139315	6015	2	0	-100	0	230	101300000	1000	0	0	-1	0
10151875	6019	0	0	-100	0	230	101300000	1000	0	0	-1	0
10164435	6019	0	0	-100	0	230	101300000	1000	0	0	-1	0
10176995	6011	0	0	-100	0	230	101300000	1000	0	0	-1	0
10189555	6012	4	0	-100	0	230	101300000	1000	0	0	-1	0
10202115	6016	0	0	-100	0	230	101300000	1000	0	0	-1	0
10214675	6018	0	0	-100	0	230	101300000	1000	0	0	-1	0
10227235	6022	0	0	-100	0	230	101300000	1000	0	0	-1	0
10239795	6018	0	0	-100	0	230	101300000	1000	0	0	-1	0
10252355	6015	0	0	-100	0	230	101300000	1000	0	0	-1	0
10264915	6019	2	0	-100	0	230	101300000	1000	0	0	-1	0
10277475	6013	0	0	-100	0	230	101300000	1000	0	0	-1	0
10290035	6025	0	0	-100	0	230	101300000	1000	0	0	-1	0
10302595	6021	0	0	-100	0	230	101300000	1000	0	0	-1	0
10315155	6011	0	0	-100	0	230	101300000	1000	0	0	-1	0
10327715	6015	1	0	-100	0	230	101300000	1000	0	0	-1	0
10340275	6017	0	0	-100	0	230	101300000	1000	0	0	-1	0
10352835	6021	0	0	-100	0	230	101300000	1000	0	0	-1	0
10365395	6018	0	0	-100	0	230	101300000	1000	0	0	-1	0
10377955	6018	0	0	-100	0	230	101300000	1000	0	0	-1	0
10390515	6015	1	0	-100	0	230	101300000	1000	0	0	-1	0
10403075	6020	0	0	-100	0	230	101300000	1000	0	0	-1	0
10415635	6018	0	0	-100	0	230	101300000	1000	0	0	-1	0
10428195	6013	0	0	-100	0	230	101300000	1000	0	0	-1	0
10440755	6015	2	0	-100	0	230	101300000	1000	0	0	-1	0
10453315	6014	1	0	-100	0	230	101300000	1000	0	0	-1	0
10465875	6022	0	0	-100	0	230	101300000	1000	0	0	-1	0
10478435	6020	0	0	-100	0	230	101300000	1000	0	0	-1	0
10490995	6021	0	0	-100	0	230	101300000	1000	0	0	-1	0
10503555	6013	0	0	-100	0	230	101300000	1000	0	0	-1	0
10516115	6019	1	0	-100	0	230	101300000	1000	0	0	-1	0
10528675	6016	0	0	-100	0	230	101300000	1000	0	0	-1	0
10541235	6023	0	0	-100	0	230	101300000	1000	0	0	-1	0
10553795	6017	0	0	-100	0	230	101300000	1000	0	0	-1	0
10566355	6012	0	0	-100	0	230	101300000	1000	0	0	-1	0
10578915	6013	4	0	-100	0	230	101300000	1000	0	0	-1	0
10591475	6016	0	0	-100	0	230	101300000	1000	0	0	-1	0
10604035	6019	0	0	-100	0	230	101300000	1000	0	0	-1	0
10616595	6020	0	0	-100	0	230	101300000	1000	0	0	-1	0
10629155	6014	0	0	-100	0	230	101300000	1000	0	0	-1	0
10641715	6016	0	0	-100	0	230	101300000	1000	0	0	-1	0
10654275	6015	3	0	-100	0	230	101300000	1000	0	0	-1	0
10666835	6014	0	0	-100	0	230	101300000	1000	0	0	-1	0
10679395	6021	0	0	-100	0	230	101300000	1000	0	0	-1	0
10691955	6014	0	0	-100	0	230	101300000	1000	0	0	-1	0
10704515	6016	0	0	-100	0	230	101300000	1000	0	0	-1	0
10717075	6012	0	0	-100	0	230	101300000	1000	0	0	-1	0
10729635	6022	0	0	-100	0	230	101300000	1000	0	0	-1	0
10742195	6013	0	0	-100	0	230	101300000	1000	0	0	-1	0
10754755	6015	1	0	-100	0	230	101300000	1000	0	0	-1	0
10767315	6017	0	0	-100	0	230	101300000	1000	0	0	-1	0
10779875	6016	3	0	-100	0	230	101300000	1000	0	0	-1	0
10792435	6024	0	0	-100	0	230	101300000	1000	0	0	-1	0
10804995	6017	0	0	-100	0	230	101300000	1000	0	0	-1	0
10817555	6016	2	0	-100	0	230	101300000	1000	0	0	-1	0
10830115	6019	0	0	-100	0	230	101300000	1000	0	0	-1	0
10842675	6021	0	0	-100	0	230	101300000	1000	0	0	-1	0
10855235	6013	0	0	-100	0	230	101300000	1000	0	0	-1	0
10867795	6017	0	0	-100	0	230	101300000	1000	0	0	-1	0
10880355	6015	0	0	-100	0	230	101300000	1000	0	0	-1	0
10892915	6021	0	0	-100	0	230	101300000	1000	0	0	-1	0
10905475	6017	0	0	-100	0	230	101300000	1000	0	0	-1	0
10918035	6013	0	0	-100	0	230	101300000	1000	0	0	-1	0
10930595	6019	3	0	-100	0	230	101300000	1000	0	0	-1	0
10943155	6015	1	0	-100	0	230	101300000	1000	0	0	-1	0
10955715	6017	0	0	-100	0	230	101300000	1000	0	0	-1	0
10968275	6017	0	0	-100	0	230	101300000	1000	0	0	-1	0
10980835	6014	0	0	-100	0	230	101300000	1000	0	0	-1	0
10993395	6016	1	0	-100	0	230	101300000	1000	0	0	-1	0
11005955	6016	0	0	-100	0	230	101300000	1000	0	0	-1	0
11018515	6019	0	0	-100	0	230	101300000	1000	0	0	-1	0
11031075	6020	0	0	-100	0	230	101300000	1000	0	0	-1	0
11043635	6023	0	0	-100	0	230	101300000	1000	0	0	-1	0
11056195	6015	0	0	-100	0	230	101300000	1000	0	0	-1	0
11068755	6016	1	0	-100	0	230	101300000	1000	0	0	-1	0
11081315	6016	0	0	-100	0	230	101300000	1000	0	0	-1	0
11093875	6015	0	0	-100	0	230	101300000	1000	0	0	-1	0
11106435	6014	1	0	-100	0	230	101300000	1000	0	0	-1	0
11118995	6021	3	0	-100	0	230	101300000	1000	0	0	-1	0
11131555	6019	0	0	-100	0	230	101300000	1000	0	0	-1	0
11144115	6016	2	0	-100	0	230	101300000	1000	0	0	-1	0
11156675	6021	0	0	-100	0	230	101300000	1000	0	0	-1	0
11169235	6012	3	0	-100	0	230	101300000	1000	0	0	-1	0
11181795	6023	0	0	-100	0	230	101300000	1000	0	0	-1	0
11194355	6016	2	0	-100	0	230	101300000	1000	0	0	-1	0
11206915	6022	0	0	-100	0	230	101300000	1000	0	0	-1	0
11219475	6019	2	0	-100	0	230	101300000	1000	0	0	-1	0
11232035	6025	0	0	-100	0	230	101300000	1000	0	0	-1	0
11244595	6017	0	0	-100	0	230	101300000	1000	0	0	-1	0
11257155	6012	2	0	-100	0	230	101300000	1000	0	0	-1	0
11269715	6021	0	0	-100	0	230	101300000	1000	0	0	-1	0
11282275	6015	0	0	-100	0	230	101300000	1000	0	0	-1	0
11294835	6016	0	0	-100	0	230	101300000	1000	0	0	-1	0
11307395	6016	0	0	-100	0	230	101300000	1000	0	0	-1	0
11319955	6016	1	0	-100	0	230	101300000	1000	0	0	-1	0
11332515	6014	0	0	-100	0	230	101300000	1000	0	0	-1	0
11345075	6015	2	0	-100	0	230	101300000	1000	0	0	-1	0
11357635	6022	0	0	-100	0	230	101300000	1000	0	0	-1	0
11370195	6013	3	0	-100	0	230	101300000	1000	0	0	-1	0
11382755	6021	0	0	-100	0	230	101300000	1000	0	0	-1	0
11395315	6015	4	0	-100	0	230	101300000	1000	0	0	-1	0
11407875	6021	0	0	-100	0	230	101300000	1000	0	0	-1	0
11420435	6015	0	0	-100	0	230	101300000	1000	0	0	-1	0
11432995	6015	0	0	-100	0	230	101300000	1000	0	0	-1	0
11445555	6018	0	0	-100	0	230	101300000	1000	0	0	-1	0
11458115	6015	3	0	-100	0	230	101300000	1000	0	0	-1	0
11470675	6021	0	0	-100	0	230	101300000	1000	0	0	-1	0
11483235	6011	0	0	-100	0	230	101300000	1000	0	0	-1	0
11495795	6009	0	0	-100	0	230	101300000	1000	0	0	-1	0
11508355	6019	0	0	-100	0	230	101300000	1000	0	0	-1	0
11520915	6018	2	0	-100	0	230	101300000	1000	0	0	-1	0
11533475	6021	0	0	-100	0	230	101300000	1000	0	0	-1	0
11546035	6010	0	0	-100	0	230	101300000	1000	0	0	-1	0
11558595	6023	0	0	-100	0	230	101300000	1000	0	0	-1	0
11571155	6012	0	0	-100	0	230	101300000	1000	0	0	-1	0
11583715	6018	0	0	-100	0	230	101300000	1000	0	0	-1	0
11596275	6017	0	0	-100	0	230	101300000	1000	0	0	-1	0
11608835	6013	2	0	-100	0	230	101300000	1000	0	0	-1	0
11621395	6021	0	0	-100	0	230	101300000	1000	0	0	-1	0
11633955	6016	0	0	-100	0	230	101300000	1000	0	0	-1	0
11646515	6017	0	0	-100	0	230	101300000	1000	0	0	-1	0
11659075	6021	0	0	-100	0	230	101300000	1000	0	0	-1	0
11671635	6011	0	0	-100	0	230	101300000	1000	0	0	-1	0
11684195	6012	3	0	-100	0	230	101300000	1000	0	0	-1	0
11696755	6018	0	0	-100	0	230	101300000	1000	0	0	-1	0
11709315	6011	0	0	-100	0	230	101300000	1000	0	0	-1	0
11721875	6016	1	0	-100	0	230	101300000	1000	0	0	-1	0
11734435	6017	0	0	-100	0	230	101300000	1000	0	0	-1	0
11746995	6016	0	0	-100	0	230	101300000	1000	0	0	-1	0
11759555	6019	2	0	-100	0	230	101300000	1000	0	0	-1	0
11772115	6011	0	0	-100	0	230	101300000	1000	0	0	-1	0
11784675	6021	0	0	-100	0	230	101300000	1000	0	0	-1	0
11797235	6016	0	0	-100	0	230	101300000	1000	0	0	-1	0
11809795	6012	1	0	-100	0	230	101300000	1000	0	0	-1	0
11822355	6020	0	0	-100	0	230	101300000	1000	0	0	-1	0
11834915	6016	0	0	-100	0	230	101300000	1000	0	0	-1	0
11847475	6016	0	0	-100	0	230	101300000	1000	0	0	-1	0
11860035	6012	1	0	-100	0	230	101300000	1000	0	0	-1	0
11872595	6020	0	0	-100	0	230	101300000	1000	0	0	-1	0
11885155	6017	0	0	-100	0	230	101300000	1000	0	0	-1	0
11897715	6017	1	0	-100	0	230	101300000	1000	0	0	-1	0
11910275	6022	0	0	-100	0	230	101300000	1000	0	0	-1	0
11922835	6015	0	0	-100	0	230	101300000	1000	0	0	-1	0
11935395	6024	0	0	-100	0	230	101300000	1000	0	0	-1	0
11947955	6014	0	0	-100	0	230	101300000	1000	0	0	-1	0
11960515	6016	0	0	-100	0	230	101300000	1000	0	0	-1	0
11973075	6012	0	0	-100	0	230	101300000	1000	0	0	-1	0
11985635	6014	0	0	-100	0	230	101300000	1000	0	0	-1	0
11998195	6017	0	0	-100	0	230	101300000	1000	0	0	-1	0
12010755	6012	0	0	-100	0	230	101300000	1000	0	0	-1	0
12023315	6020	0	0	-100	0	230	101300000	1000	0	0	-1	0
12035875	6014	2	0	-100	0	230	101300000	1000	0	0	-1	0
12048435	6018	0	0	-100	0	230	101300000	1000	0	0	-1	0
12060995	6021	0	0	-100	0	230	101300000	1000	0	0	-1	0
12073555	6015	2	0	-100	0	230	101300000	1000	0	0	-1	0
12086115	6022	0	0	-100	0	230	101300000	1000	0	0	-1	0
12098675	6014	0	0	-100	0	230	101300000	1000	0	0	-1	0
12111235	6022	0	0	-100	0	230	101300000	1000	0	0	-1	0
12123795	6013	0	0	-100	0	230	101300000	1000	0	0	-1	0
12136355	6016	0	0	-100	0	230	101300000	1000	0	0	-1	0
12148915	6012	0	0	-100	0	230	101300000	1000	0	0	-1	0
12161475	6016	1	0	-100	0	230	101300000	1000	0	0	-1	0
12174035	6019	0	0	-100	0	230	101300000	1000	0	0	-1	0
12186595	6012	0	0	-100	0	230	101300000	1000	0	0	-1	0
12199155	6013	0	0	-100	0	230	101300000	1000	0	0	-1	0
12211715	6015	0	0	-100	0	230	101300000	1000	0	0	-1	0
12224275	6019	0	0	-100	0	230	101300000	1000	0	0	-1	0
12236835	6013	0	0	-100	0	230	101300000	1000	0	0	-1	0
12249395	6016	0	0	-100	0	230	101300000	1000	0	0	-1	0
12261955	6013	0	0	-100	0	230	101300000	1000	0	0	-1	0
12274515	6023	0	0	-100	0	230	101300000	1000	0	0	-1	0
12287075	6016	0	0	-100	0	230	101300000	1000	0	0	-1	0
12299635	6017	0	0	-100	0	230	101300000	1000	0	0	-1	0
12312195	6012	1	0	-100	0	230	101300000	1000	0	0	-1	0
12324755	6021	0	0	-100	0	230	101300000	1000	0	0	-1	0
12337315	6016	0	0	-100	0	230	101300000	1000	0	0	-1	0
12349875	6015	2	0	-100	0	230	101300000	1000	0	0	-1	0
12362435	6015	0	0	-100	0	230	101300000	1000	0	0	-1	0
12374995	6016	0	0	-100	0	230	101300000	1000	0	0	-1	0
12387555	6012	0	0	-100	0	230	101300000	1000	0	0	-1	0
12400115	6020	3	0	-100	0	230	101300000	1000	0	0	-1	0
12412675	6024	0	0	-100	0	230	101300000	1000	0	0	-1	0
12425235	6016	0	0	-100	0	230	101300000	1000	0	0	-1	0
12437795	6017	0	0	-100	0	230	101300000	1000	0	0	-1	0
12450355	6016	0	0	-100	0	230	101300000	1000	0	0	-1	0
12462915	6022	0	0	-100	0	230	101300000	1000	0	0	-1	0
12475475	6012	0	0	-100	0	230	101300000	1000	0	0	-1	0
12488035	6012	1	0	-100	0	230	101300000	1000	0	0	-1	0
12500595	6019	0	0	-100	0	230	101300000	1000	0	0	-1	0
12513155	6012	0	0	-100	0	230	101300000	1000	0	0	-1	0
12525715	6015	3	0	-100	0	230	101300000	1000	0	0	-1	0
12538275	6021	0	0	-100	0	230	101300000	1000	0	0	-1	0
12550835	6018	0	0	-100	0	230	101300000	1000	0	0	-1	0
12563395	6019	1	0	-100	0	230	101300000	1000	0	0	-1	0
12575955	6017	0	0	-100	0	230	101300000	1000	0	0	-1	0
12588515	6018	0	0	-100	0	230	101300000	1000	0	0	-1	0
12601075	6012	0	0	-100	0	230	101300000	1000	0	0	-1	0
12613635	6016	0	0	-100	0	230	101300000	1000	0	0	-1	0
12626195	6020	0	0	-100	0	230	101300000	1000	0	0	-1	0
12638755	6016	0	0	-100	0	230	101300000	1000	0	0	-1	0
12651315	6018	0	0	-100	0	230	101300000	1000	0	0	-1	0
12663875	6021	0	0	-100	0	230	101300000	1000	0	0	-1	0
12676435	6013	0	0	-100	0	230	101300000	1000	0	0	-1	0
12688995	6014	0	0	-100	0	230	101300000	1000	0	0	-1	0
12701555	6020	0	0	-100	0	230	101300000	1000	0	0	-1	0
12714115	6022	0	0	-100	0	230	101300000	1000	0	0	-1	0
12726675	6016	0	0	-100	0	230	101300000	1000	0	0	-1	0
12739235	6015	0	0	-100	0	230	101300000	1000	0	0	-1	0
12751795	6022	0	0	-100	0	230	101300000	1000	0	0	-1	0
12764355	6022	0	0	-100	0	230	101300000	1000	0	0	-1	0
12776915	6018	0	0	-100	0	230	101300000	1000	0	0	-1	0
12789475	6017	0	0	-100	0	230	101300000	1000	0	0	-1	0
12802035	6017	0	0	-100	0	230	101300000	1000	0	0	-1	0
12814595	6017	1	0	-100	0	230	101300000	1000	0	0	-1	0
12827155	6013	3	0	-100	0	230	101300000	1000	0	0	-1	0
12839715	6019	0	0	-100	0	230	101300000	1000	0	0	-1	0
12852275	6019	0	0	-100	0	230	101300000	1000	0	0	-1	0
12864835	6016	0	0	-100	0	230	101300000	1000	0	0	-1	0
12877395	6016	0	0	-100	0	230	101300000	1000	0	0	-1	0
12889955	6019	2	0	-100	0	230	101300000	1000	0	0	-1	0
12902515	6017	0	0	-100	0	230	101300000	1000	0	0	-1	0
12915075	6017	0	0	-100	0	230	101300000	1000	0	0	-1	0
12927635	6019	0	0	-100	0	230	101300000	1000	0	0	-1	0
12940195	6009	0	0	-100	0	230	101300000	1000	0	0	-1	0
12952755	6019	0	0	-100	0	230	101300000	1000	0	0	-1	0
12965315	6014	2	0	-100	0	230	101300000	1000	0	0	-1	0
12977875	6013	2	0	-100	0	230	101300000	1000	0	0	-1	0
12990435	6016	0	0	-100	0	230	101300000	1000	0	0	-1	0
13002995	6021	2	0	-100	0	230	101300000	1000	0	0	-1	0
13015555	6015	0	0	-100	0	230	101300000	1000	0	0	-1	0
13028115	6018	0	0	-100	0	230	101300000	1000	0	0	-1	0
13040675	6017	0	0	-100	0	230	101300000	1000	0	0	-1	0
13053235	6016	0	0	-100	0	230	101300000	1000	0	0	-1	0
13065795	6015	3	0	-100	0	230	101300000	1000	0	0	-1	0
13078355	6015	0	0	-100	0	230	101300000	1000	0	0	-1	0
13090915	6025	0	0	-100	0	230	101300000	1000	0	0	-1	0
13103475	6022	0	0	-100	0	230	101300000	1000	0	0	-1	0
13116035	6016	0	0	-100	0	230	101300000	1000	0	0	-1	0
13128595	6011	0	0	-100	0	230	101300000	1000	0	0	-1	0
13141155	6016	2	0	-100	0	230	101300000	1000	0	0	-1	0
13153715	6015	1	0	-100	0	230	101300000	1000	0	0	-1	0
13166275	6017	0	0	-100	0	230	101300000	1000	0	0	-1	0
13178835	6016	0	0	-100	0	230	101300000	1000	0	0	-1	0
13191395	6021	0	0	-100	0	230	101300000	1000	0	0	-1	0
13203955	6019	0	0	-100	0	230	101300000	1000	0	0	-1	0
13216515	6021	0	0	-100	0	230	101300000	1000	0	0	-1	0
13229075	6018	0	0	-100	0	230	101300000	1000	0	0	-1	0
13241635	6018	0	0	-100	0	230	101300000	1000	0	0	-1	0
13254195	6013	0	0	-100	0	230	101300000	1000	0	0	-1	0
13266755	6016	0	0	-100	0	230	101300000	1000	0	0	-1	0
13279315	6013	0	0	-100	0	230	101300000	1000	0	0	-1	0
13291875	6016	2	0	-100	0	230	101300000	1000	0	0	-1	0
13304435	6024	0	0	-100	0	230	101300000	1000	0	0	-1	0
13316995	6016	1	0	-100	0	230	101300000	1000	0	0	-1	0
13329555	6019	0	0	-100	0	230	101300000	1000	0	0	-1	0
13342115	6015	0	0	-100	0	230	101300000	1000	0	0	-1	0
13354675	6013	3	0	-100	0	230	101300000	1000	0	0	-1	0
13367235	6015	1	0	-100	0	230	101300000	1000	0	0	-1	0
13379795	6016	0	0	-100	0	230	101300000	1000	0	0	-1	0
13392355	6022	0	0	-100	0	230	101300000	1000	0	0	-1	0
13404915	6019	0	0	-100	0	230	101300000	1000	0	0	-1	0
13417475	6022	0	0	-100	0	230	101300000	1000	0	0	-1	0
13430035	6016	0	0	-100	0	230	101300000	1000	0	0	-1	0
13442595	6021	0	0	-100	0	230	101300000	1000	0	0	-1	0
13455155	6021	0	0	-100	0	230	101300000	1000	0	0	-1	0
13467715	6022	0	0	-100	0	230	101300000	1000	0	0	-1	0
13480275	6022	0	0	-100	0	230	101300000	1000	0	0	-1	0
13492835	6012	0	0	-100	0	230	101300000	1000	0	0	-1	0
13505395	6013	0	0	-100	0	230	101300000	1000	0	0	-1	0
13517955	6012	0	0	-100	0	230	101300000	1000	0	0	-1	0
13530515	6017	3	0	-100	0	230	101300000	1000	0	0	-1	0
13543075	6021	1	0	-100	0	230	101300000	1000	0	0	-1	0
13555635	6013	0	0	-100	0	230	101300000	1000	0	0	-1	0
13568195	6016	0	0	-100	0	230	101300000	1000	0	0	-1	0
13580755	6025	0	0	-100	0	230	101300000	1000	0	0	-1	0
13593315	6021	0	0	-100	0	230	101300000	1000	0	0	-1	0
13605875	6019	0	0	-100	0	230	101300000	1000	0	0	-1	0
13618435	6016	0	0	-100	0	230	101300000	1000	0	0	-1	0
13630995	6013	0	0	-100	0	230	101300000	1000	0	0	-1	0
13643555	6016	0	0	-100	0	230	101300000	1000	0	0	-1	0
13656115	6011	0	0	-100	0	230	101300000	1000	0	0	-1	0
13668675	6016	3	0	-100	0	230	101300000	1000	0	0	-1	0
13681235	6021	0	0	-100	0	230	101300000	1000	0	0	-1	0
13693795	6021	0	0	-100	0	230	101300000	1000	0	0	-1	0
13706355	6019	0	0	-100	0	230	101300000	1000	0	0	-1	0
13718915	6016	0	0	-100	0	230	101300000	1000	0	0	-1	0
13731475	6015	0	0	-100	0	230	101300000	1000	0	0	-1	0
13744035	6016	0	0	-100	0	230	101300000	1000	0	0	-1	0
13756595	6011	3	0	-100	0	230	101300000	1000	0	0	-1	0
13769155	6011	1	0	-100	0	230	101300000	1000	0	0	-1	0
13781715	6020	0	0	-100	0	230	101300000	1000	0	0	-1	0
13794275	6019	0	0	-100	0	230	101300000	1000	0	0	-1	0
13806835	6020	0	0	-100	0	230	101300000	1000	0	0	-1	0
13819395	6014	0	0	-100	0	230	101300000	1000	0	0	-1	0
13831955	6013	0	0	-100	0	230	101300000	1000	0	0	-1	0
13844515	6015	2	0	-100	0	230	101300000	1000	0	0	-1	0
13857075	6019	0	0	-100	0	230	101300000	1000	0	0	-1	0
13869635	6017	0	0	-100	0	230	101300000	1000	0	0	-1	0
13882195	6018	0	0	-100	0	230	101300000	1000	0	0	-1	0
13894755	6011	0	0	-100	0	230	101300000	1000	0	0	-1	0
13907315	6015	0	0	-100	0	230	101300000	1000	0	0	-1	0
13919875	6011	2	0	-100	0	230	101300000	1000	0	0	-1	0
13932435	6019	0	0	-100	0	230	101300000	1000	0	0	-1	0
13944995	6021	2	0	-100	0	230	101300000	1000	0	0	-1	0
13957555	6021	0	0	-100	0	230	101300000	1000	0	0	-1	0
13970115	6017	0	0	-100	0	230	101300000	1000	0	0	-1	0
13982675	6018	0	0	-100	0	230	101300000	1000	0	0	-1	0
13995235	6015	3	0	-100	0	230	101300000	1000	0	0	-1	0
14007795	6013	2	0	-100	0	230	101300000	1000	0	0	-1	0
14020355	6016	0	0	-100	0	230	101300000	1000	0	0	-1	0
14032915	6024	0	0	-100	0	230	101300000	1000	0	0	-1	0
14045475	6017	0	0	-100	0	230	101300000	1000	0	0	-1	0
14058035	6008	0	0	-100	0	230	101300000	1000	0	0	-1	0
14070595	6016	2	0	-100	0	230	101300000	1000	0	0	-1	0
14083155	6020	0	0	-100	0	230	101300000	1000	0	0	-1	0
14095715	6021	0	0	-100	0	230	101300000	1000	0	0	-1	0
14108275	6009	0	0	-100	0	230	101300000	1000	0	0	-1	0
14120835	6016	1	0	-100	0	230	101300000	1000	0	0	-1	0
14133395	6013	1	0	-100	0	230	101300000	1000	0	0	-1	0
14145955	6021	0	0	-100	0	230	101300000	1000	0	0	-1	0
14158515	6021	0	0	-100	0	230	101300000	1000	0	0	-1	0
14171075	6018	0	0	-100	0	230	101300000	1000	0	0	-1	0
14183635	6016	0	0	-100	0	230	101300000	1000	0	0	-1	0
14196195	6016	3	0	-100	0	230	101300000	1000	0	0	-1	0
14208755	6016	1	0	-100	0	230	101300000	1000	0	0	-1	0
14221315	6017	0	0	-100	0	230	101300000	1000	0	0	-1	0
14233875	6021	0	0	-100	0	230	101300000	1000	0	0	-1	0
14246435	6016	0	0	-100	0	230	101300000	1000	0	0	-1	0
14258995	6018	0	0	-100	0	230	101300000	1000	0	0	-1	0
14271555	6018	0	0	-100	0	230	101300000	1000	0	0	-1	0
14284115	6017	0	0	-100	0	230	101300000	1000	0	0	-1	0
14296675	6015	0	0	-100	0	230	101300000	1000	0	0	-1	0
14309235	6019	0	0	-100	0	230	101300000	1000	0	0	-1	0
14321795	6019	3	0	-100	0	230	101300000	1000	0	0	-1	0
14334355	6013	3	0	-100	0	230	101300000	1000	0	0	-1	0
14346915	6015	0	0	-100	0	230	101300000	1000	0	0	-1	0
14359475	6021	0	0	-100	0	230	101300000	1000	0	0	-1	0
14372035	6017	0	0	-100	0	230	101300000	1000	0	0	-1	0
14384595	6016	0	0	-100	0	230	101300000	1000	0	0	-1	0
14397155	6016	3	0	-100	0	230	101300000	1000	0	0	-1	0
14409715	6017	0	0	-100	0	230	101300000	1000	0	0	-1	0
14422275	6021	0	0	-100	0	230	101300000	1000	0	0	-1	0
14434835	6017	0	0	-100	0	230	101300000	1000	0	0	-1	0
14447395	6021	1	0	-100	0	230	101300000	1000	0	0	-1	0
14459955	6021	0	0	-100	0	230	101300000	1000	0	0	-1	0
14472515	6022	0	0	-100	0	230	101300000	1000	0	0	-1	0
14485075	6022	0	0	-100	0	230	101300000	1000	0	0	-1	0
14497635	6013	0	0	-100	0	230	101300000	1000	0	0	-1	0
14510195	6016	0	0	-100	0	230	101300000	1000	0	0	-1	0
14522755	6016	2	0	-100	0	230	101300000	1000	0	0	-1	0
14535315	6016	0	0	-100	0	230	101300000	1000	0	0	-1	0
14547875	6017	0	0	-100	0	230	101300000	1000	0	0	-1	0
14560435	6017	0	0	-100	0	230	101300000	1000	0	0	-1	0
14572995	6018	0	0	-100	0	230	101300000	1000	0	0	-1	0
14585555	6017	0	0	-100	0	230	101300000	1000	0	0	-1	0
14598115	6015	0	0	-100	0	230	101300000	1000	0	0	-1	0
14610675	6014	1	0	-100	0	230	101300000	1000	0	0	-1	0
14623235	6017	3	0	-100	0	230	101300000	1000	0	0	-1	0
14635795	6016	2	0	-100	0	230	101300000	1000	0	0	-1	0
14648355	6016	2	0	-100	0	230	101300000	1000	0	0	-1	0
14660915	6016	1	0	-100	0	230	101300000	1000	0	0	-1	0
14673475	6014	2	0	-100	0	230	101300000	1000	0	0	-1	0
14686035	6015	3	0	-100	0	230	101300000	1000	0	0	-1	0
14698595	6013	1	0	-100	0	230	101300000	1000	0	0	-1	0
14711155	6013	0	0	-100	0	230	101300000	1000	0	0	-1	0
14723715	6016	0	0	-100	0	230	101300000	1000	0	0	-1	0
14736275	6016	0	0	-100	0	230	101300000	1000	0	0	-1	0
14748835	6017	0	0	-100	0	230	101300000	1000	0	0	-1	0
14761395	6026	0	0	-100	0	230	101300000	1000	0	0	-1	0
14773955	6019	0	0	-100	0	230	101300000	1000	0	0	-1	0
14786515	6019	0	0	-100	0	230	101300000	1000	0	0	-1	0
14799075	6019	0	0	-100	0	230	101300000	1000	0	0	-1	0
14811635	6016	0	0	-100	0	230	101300000	1000	0	0	-1	0
14824195	6016	0	0	-100	0	230	101300000	1000	0	0	-1	0
14836755	6013	0	0	-100	0	230	101300000	1000	0	0	-1	0
14849315	6012	0	0	-100	0	230	101300000	1000	0	0	-1	0
14861875	6016	1	0	-100	0	230	101300000	1000	0	0	-1	0
14874435	6014	2	0	-100	0	230	101300000	1000	0	0	-1	0
14886995	6015	0	0	-100	0	230	101300000	1000	0	0	-1	0
14899555	6012	1	0	-100	0	230	101300000	1000	0	0	-1	0
14912115	6015	0	0	-100	0	230	101300000	1000	0	0	-1	0
14924675	6021	0	0	-100	0	230	101300000	1000	0	0	-1	0
14937235	6021	0	0	-100	0	230	101300000	1000	0	0	-1	0
14949795	6020	0	0	-100	0	230	101300000	1000	0	0	-1	0
14962355	6017	0	0	-100	0	230	101300000	1000	0	0	-1	0
14974915	6015	0	0	-100	0	230	101300000	1000	0	0	-1	0
14987475	6017	1	0	-100	0	230	101300000	1000	0	0	-1	0
15000035	6016	2	0	-100	0	230	101300000	1000	0	0	-1	0
15012595	6012	1	0	-100	0	230	101300000	1000	0	0	-1	0
15025155	6019	0	0	-100	0	230	101300000	1000	0	0	-1	0
15037715	6018	0	0	-100	0	230	101300000	1000	0	0	-1	0
15050275	6021	0	0	-100	0	230	101300000	1000	0	0	-1	0
15062835	6022	0	0	-100	0	230	101300000	1000	0	0	-1	0
15075395	6022	0	0	-100	0	230	101300000	1000	0	0	-1	0
15087955	6021	0	0	-100	0	230	101300000	1000	0	0	-1	0
15100515	6022	0	0	-100	0	230	101300000	1000	0	0	-1	0
15113075	6016	0	0	-100	0	230	101300000	1000	0	0	-1	0
15125635	6018	0	0	-100	0	230	101300000	1000	0	0	-1	0
15138195	6016	0	0	-100	0	230	101300000	1000	0	0	-1	0
15150755	6014	0	0	-100	0	230	101300000	1000	0	0	-1	0
15163315	6020	0	0	-100	0	230	101300000	1000	0	0	-1	0
15175875	6018	0	0	-100	0	230	101300000	1000	0	0	-1	0
15188435	6018	0	0	-100	0	230	101300000	1000	0	0	-1	0
15200995	6022	1	0	-100	0	230	101300000	1000	0	0	-1	0
15213555	6021	0	0	-100	0	230	101300000	1000	0	0	-1	0
15226115	6021	0	0	-100	0	230	101300000	1000	0	0	-1	0
15238675	6025	0	0	-100	0	230	101300000	1000	0	0	-1	0
15251235	6025	0	0	-100	0	230	101300000	1000	0	0	-1	0
15263795	6021	0	0	-100	0	230	101300000	1000	0	0	-1	0
15276355	6020	0	0	-100	0	230	101300000	1000	0	0	-1	0
15288915	6021	0	0	-100	0	230	101300000	1000	0	0	-1	0
15301475	6019	0	0	-100	0	230	101300000	1000	0	0	-1	0
15314035	6017	0	0	-100	0	230	101300000	1000	0	0	-1	0
15326595	6016	0	0	-100	0	230	101300000	1000	0	0	-1	0
15339155	6013	3	0	-100	0	230	101300000	1000	0	0	-1	0
15351715	6015	2	0	-100	0	230	101300000	1000	0	0	-1	0
15364275	6012	0	0	-100	0	230	101300000	1000	0	0	-1	0
15376835	6022	0	0	-100	0	230	101300000	1000	0	0	-1	0
15389395	6015	0	0	-100	0	230	101300000	1000	0	0	-1	0
15401955	6012	0	0	-100	0	230	101300000	1000	0	0	-1	0
15414515	6017	0	0	-100	0	230	101300000	1000	0	0	-1	0
15427075	6016	2	0	-100	0	230	101300000	1000	0	0	-1	0
15439635	6018	0	0	-100	0	230	101300000	1000	0	0	-1	0
15452195	6017	0	0	-100	0	230	101300000	1000	0	0	-1	0
15464755	6014	0	0	-100	0	230	101300000	1000	0	0	-1	0
15477315	6012	2	0	-100	0	230	101300000	1000	0	0	-1	0
15489875	6021	0	0	-100	0	230	101300000	1000	0	0	-1	0
15502435	6017	1	0	-100	0	230	101300000	1000	0	0	-1	0
15514995	6019	0	0	-100	0	230	101300000	1000	0	0	-1	0
15527555	6015	2	0	-100	0	230	101300000	1000	0	0	-1	0
15540115	6018	0	0	-100	0	230	101300000	1000	0	0	-1	0
15552675	6011	0	0	-100	0	230	101300000	1000	0	0	-1	0
15565235	6017	0	0	-100	0	230	101300000	1000	0	0	-1	0
15577795	6016	0	0	-100	0	230	101300000	1000	0	0	-1	0
15590355	6016	4	0	-100	0	230	101300000	1000	0	0	-1	0
15602915	6023	0	0	-100	0	230	101300000	1000	0	0	-1	0
15615475	6020	0	0	-100	0	230	101300000	1000	0	0	-1	0
15628035	6016	2	0	-100	0	230	101300000	1000	0	0	-1	0
15640595	6022	0	0	-100	0	230	101300000	1000	0	0	-1	0
15653155	6014	0	0	-100	0	230	101300000	1000	0	0	-1	0
15665715	6017	1	0	-100	0	230	101300000	1000	0	0	-1	0
15678275	6022	0	0	-100	0	230	101300000	1000	0	0	-1	0
15690835	6013	2	0	-100	0	230	101300000	1000	0	0	-1	0
15703395	6021	0	0	-100	0	230	101300000	1000	0	0	-1	0
15715955	6016	2	0	-100	0	230	101300000	1000	0	0	-1	0
15728515	6021	0	0	-100	0	230	101300000	1000	0	0	-1	0
15741075	6017	0	0	-100	0	230	101300000	1000	0	0	-1	0
15753635	6026	0	0	-100	0	230	101300000	1000	0	0	-1	0
15766195	6016	0	0	-100	0	230	101300000	1000	0	0	-1	0
15778755	6016	0	0	-100	0	230	101300000	1000	0	0	-1	0
15791315	6018	0	0	-100	0	230	101300000	1000	0	0	-1	0
15803875	6013	3	0	-100	0	230	101300000	1000	0	0	-1	0
15816435	6025	0	0	-100	0	230	101300000	1000	0	0	-1	0
15828995	6013	0	0	-100	0	230	101300000	1000	0	0	-1	0
15841555	6018	1	0	-100	0	230	101300000	1000	0	0	-1	0
15854115	6019	0	0	-100	0	230	101300000	1000	0	0	-1	0
15866675	6013	0	0	-100	0	230	101300000	1000	0	0	-1	0
15879235	6014	1	0	-100	0	230	101300000	1000	0	0	-1	0
15891795	6020	0	0	-100	0	230	101300000	1000	0	0	-1	0
15904355	6016	0	0	-100	0	230	101300000	1000	0	0	-1	0
15916915	6016	1	0	-100	0	230	101300000	1000	0	0	-1	0
15929475	6019	0	0	-100	0	230	101300000	1000	0	0	-1	0
15942035	6014	0	0	-100	0	230	101300000	1000	0	0	-1	0
15954595	6016	0	0	-100	0	230	101300000	1000	0	0	-1	0
15967155	6016	0	0	-100	0	230	101300000	1000	0	0	-1	0
15979715	6017	0	0	-100	0	230	101300000	1000	0	0	-1	0
15992275	6016	0	0	-100	0	230	101300000	1000	0	0	-1	0
16004835	6015	0	0	-100	0	230	101300000	1000	0	0	-1	0
16017395	6017	0	0	-100	0	230	101300000	1000	0	0	-1	0
16029955	6021	0	0	-100	0	230	101300000	1000	0	0	-1	0
16042515	6015	0	0	-100	0	230	101300000	1000	0	0	-1	0
16055075	6024	0	0	-100	0	230	101300000	1000	0	0	-1	0
16067635	6019	0	0	-100	0	230	101300000	1000	0	0	-1	0
16080195	6025	0	0	-100	0	230	101300000	1000	0	0	-1	0
16092755	6011	2	0	-100	0	230	101300000	1000	0	0	-1	0
16105315	6022	0	0	-100	0	230	101300000	1000	0	0	-1	0
16117875	6016	0	0	-100	0	230	101300000	1000	0	0	-1	0
16130435	6014	0	0	-100	0	230	101300000	1000	0	0	-1	0
16142995	6020	0	0	-100	0	230	101300000	1000	0	0	-1	0
16155555	6010	0	0	-100	0	230	101300000	1000	0	0	-1	0
16168115	6021	0	0	-100	0	230	101300000	1000	0	0	-1	0
16180675	6019	2	0	-100	0	230	101300000	1000	0	0	-1	0
16193235	6018	0	0	-100	0	230	101300000	1000	0	0	-1	0
16205795	6013	2	0	-100	0	230	101300000	1000	0	0	-1	0
16218355	6021	0	0	-100	0	230	101300000	1000	0	0	-1	0
16230915	6007	0	0	-100	0	230	101300000	1000	0	0	-1	0
16243475	6020	0	0	-100	0	230	101300000	1000	0	0	-1	0
16256035	6021	0	0	-100	0	230	101300000	1000	0	0	-1	0
16268595	6015	2	0	-100	0	230	101300000	1000	0	0	-1	0
16281155	6019	0	0	-100	0	230	101300000	1000	0	0	-1	0
16293715	6018	1	0	-100	0	230	101300000	1000	0	0	-1	0
16306275	6025	0	0	-100	0	230	101300000	1000	0	0	-1	0
16318835	6016	0	0	-100	0	230	101300000	1000	0	0	-1	0
16331395	6015	2	0	-100	0	230	101300000	1000	0	0	-1	0
16343955	6022	0	0	-100	0	230	101300000	1000	0	0	-1	0
16356515	6016	4	0	-100	0	230	101300000	1000	0	0	-1	0
16369075	6024	0	0	-100	0	230	101300000	1000	0	0	-1	0
16381635	6014	0	0	-100	0	230	101300000	1000	0	0	-1	0
16394195	6015	0	0	-100	0	230	101300000	1000	0	0	-1	0
16406755	6020	0	0	-100	0	230	101300000	1000	0	0	-1	0
16419315	6012	2	0	-100	0	230	101300000	1000	0	0	-1	0
16431875	6022	0	0	-100	0	230	101300000	1000	0	0	-1	0
16444435	6016	1	0	-100	0	230	101300000	1000	0	0	-1	0
16456995	6019	0	0	-100	0	230	101300000	1000	0	0	-1	0
16469555	6015	2	0	-100	0	230	101300000	1000	0	0	-1	0
16482115	6021	0	0	-100	0	230	101300000	1000	0	0	-1	0
16494675	6013	0	0	-100	0	230	101300000	1000	0	0	-1	0
16507235	6015	0	0	-100	0	230	101300000	1000	0	0	-1	0
16519795	6020	0	0	-100	0	230	101300000	1000	0	0	-1	0
16532355	6015	2	0	-100	0	230	101300000	1000	0	0	-1	0
16544915	6016	0	0	-100	0	230	101300000	1000	0	0	-1	0
16557475	6013	0	0	-100	0	230	101300000	1000	0	0	-1	0
16570035	6022	0	0	-100	0	230	101300000	1000	0	0	-1	0
16582595	6017	0	0	-100	0	230	101300000	1000	0	0	-1	0
16595155	6013	1	0	-100	0	230	101300000	1000	0	0	-1	0
16607715	6022	0	0	-100	0	230	101300000	1000	0	0	-1	0
16620275	6014	1	0	-100	0	230	101300000	1000	0	0	-1	0
16632835	6021	0	0	-100	0	230	101300000	1000	0	0	-1	0
16645395	6017	0	0	-100	0	230	101300000	1000	0	0	-1	0
16657955	6012	0	0	-100	0	230	101300000	1000	0	0	-1	0
16670515	6022	0	0	-100	0	230	101300000	1000	0	0	-1	0
16683075	6015	3	0	-100	0	230	101300000	1000	0	0	-1	0
16695635	6016	0	0	-100	0	230	101300000	1000	0	0	-1	0
16708195	6012	1	0	-100	0	230	101300000	1000	0	0	-1	0
16720755	6018	0	0	-100	0	230	101300000	1000	0	0	-1	0
16733315	6011	0	0	-100	0	230	101300000	1000	0	0	-1	0
16745875	6017	0	0	-100	0	230	101300000	1000	0	0	-1	0
16758435	6016	1	0	-100	0	230	101300000	1000	0	0	-1	0
16770995	6017	0	0	-100	0	230	101300000	1000	0	0	-1	0
16783555	6016	2	0	-100	0	230	101300000	1000	0	0	-1	0
16796115	6016	0	0	-100	0	230	101300000	1000	0	0	-1	0
16808675	6019	0	0	-100	0	230	101300000	1000	0	0	-1	0
16821235	6014	0	0	-100	0	230	101300000	1000	0	0	-1	0
16833795	6017	0	0	-100	0	230	101300000	1000	0	0	-1	0
16846355	6017	0	0	-100	0	230	101300000	1000	0	0	-1	0
16858915	6022	0	0	-100	0	230	101300000	1000	0	0	-1	0
16871475	6011	0	0	-100	0	230	101300000	1000	0	0	-1	0
16884035	6017	0	0	-100	0	230	101300000	1000	0	0	-1	0
16896595	6012	2	0	-100	0	230	101300000	1000	0	0	-1	0
16909155	6022	0	0	-100	0	230	101300000	1000	0	0	-1	0
16921715	6016	4	0	-100	0	230	101300000	1000	0	0	-1	0
16934275	6017	0	0	-100	0	230	101300000	1000	0	0	-1	0
16946835	6013	0	0	-100	0	230	101300000	1000	0	0	-1	0
16959395	6015	0	0	-100	0	230	101300000	1000	0	0	-1	0
16971955	6016	0	0	-100	0	230	101300000	1000	0	0	-1	0
16984515	6017	1	0	-100	0	230	101300000	1000	0	0	-1	0
16997075	6017	0	0	-100	0	230	101300000	1000	0	0	-1	0
17009635	6019	0	0	-100	0	230	101300000	1000	0	0	-1	0
17022195	6013	0	0	-100	0	230	101300000	1000	0	0	-1	0
17034755	6021	0	0	-100	0	230	101300000	1000	0	0	-1	0
17047315	6017	0	0	-100	0	230	101300000	1000	0	0	-1	0
17059875	6016	0	0	-100	0	230	101300000	1000	0	0	-1	0
17072435	6018	0	0	-100	0	230	101300000	1000	0	0	-1	0
17084995	6015	0	0	-100	0	230	101300000	1000	0	0	-1	0
17097555	6019	0	0	-100	0	230	101300000	1000	0	0	-1	0
17110115	6014	0	0	-100	0	230	101300000	1000	0	0	-1	0
17122675	6013	0	0	-100	0	230	101300000	1000	0	0	-1	0
17135235	6018	0	0	-100	0	230	101300000	1000	0	0	-1	0
17147795	6012	1	0	-100	0	230	101300000	1000	0	0	-1	0
17160355	6022	0	0	-100	0	230	101300000	1000	0	0	-1	0
17172915	6012	0	0	-100	0	230	101300000	1000	0	0	-1	0
17185475	6015	2	0	-100	0	230	101300000	1000	0	0	-1	0
17198035	6023	0	0	-100	0	230	101300000	1000	0	0	-1	0
17210595	6012	0	0	-100	0	230	101300000	1000	0	0	-1	0
17223155	6016	0	0	-100	0	230	101300000	1000	0	0	-1	0
17235715	6018	0	0	-100	0	230	101300000	1000	0	0	-1	0
17248275	6013	4	0	-100	0	230	101300000	1000	0	0	-1	0
17260835	6024	0	0	-100	0	230	101300000	1000	0	0	-1	0
17273395	6011	0	0	-100	0	230	101300000	1000	0	0	-1	0
17285955	6017	0	0	-100	0	230	101300000	1000	0	0	-1	0
17298515	6021	0	0	-100	0	230	101300000	1000	0	0	-1	0
17311075	6016	3	0	-100	0	230	101300000	1000	0	0	-1	0
17323635	6022	0	0	-100	0	230	101300000	1000	0	0	-1	0
17336195	6018	0	0	-100	0	230	101300000	1000	0	0	-1	0
17348755	6015	2	0	-100	0	230	101300000	1000	0	0	-1	0
17361315	6016	0	0	-100	0	230	101300000	1000	0	0	-1	0
17373875	6022	0	0	-100	0	230	101300000	1000	0	0	-1	0
17386435	6015	3	0	-100	0	230	101300000	1000	0	0	-1	0
17398995	6019	2	0	-100	0	230	101300000	1000	0	0	-1	0
17411555	6015	0	0	-100	0	230	101300000	1000	0	0	-1	0
17424115	6012	0	0	-100	0	230	101300000	1000	0	0	-1	0
17436675	6022	0	0	-100	0	230	101300000	1000	0	0	-1	0
17449235	6015	0	0	-100	0	230	101300000	1000	0	0	-1	0
17461795	6020	0	0	-100	0	230	101300000	1000	0	0	-1	0
17474355	6013	0	0	-100	0	230	101300000	1000	0	0	-1	0
17486915	6019	0	0	-100	0	230	101300000	1000	0	0	-1	0
17499475	6018	0	0	-100	0	230	101300000	1000	0	0	-1	0
17512035	6015	3	0	-100	0	230	101300000	1000	0	0	-1	0
17524595	6019	0	0	-100	0	230	101300000	1000	0	0	-1	0
17537155	6017	3	0	-100	0	230	101300000	1000	0	0	-1	0
17549715	6021	0	0	-100	0	230	101300000	1000	0	0	-1	0
17562275	6017	1	0	-100	0	230	101300000	1000	0	0	-1	0
17574835	6020	0	0	-100	0	230	101300000	1000	0	0	-1	0
17587395	6017	4	0	-100	0	230	101300000	1000	0	0	-1	0
17599955	6021	0	0	-100	0	230	101300000	1000	0	0	-1	0
17612515	6016	0	0	-100	0	230	101300000	1000	0	0	-1	0
17625075	6016	1	0	-100	0	230	101300000	1000	0	0	-1	0
17637635	6021	0	0	-100	0	230	101300000	1000	0	0	-1	0
17650195	6016	0	0	-100	0	230	101300000	1000	0	0	-1	0
17662755	6022	0	0	-100	0	230	101300000	1000	0	0	-1	0
17675315	6015	0	0	-100	0	230	101300000	1000	0	0	-1	0
17687875	6015	1	0	-100	0	230	101300000	1000	0	0	-1	0
17700435	6018	0	0	-100	0	230	101300000	1000	0	0	-1	0
17712995	6017	0	0	-100	0	230	101300000	1000	0	0	-1	0
17725555	6026	0	0	-100	0	230	101300000	1000	0	0	-1	0
17738115	6011	0	0	-100	0	230	101300000	1000	0	0	-1	0
17750675	6012	0	0	-100	0	230	101300000	1000	0	0	-1	0
17763235	6021	0	0	-100	0	230	101300000	1000	0	0	-1	0
17775795	6016	2	0	-100	0	230	101300000	1000	0	0	-1	0
17788355	6021	0	0	-100	0	230	101300000	1000	0	0	-1	0
17800915	6016	4	0	-100	0	230	101300000	1000	0	0	-1	0
17813475	6023	0	0	-100	0	230	101300000	1000	0	0	-1	0
17826035	6014	0	0	-100	0	230	101300000	1000	0	0	-1	0
17838595	6012	0	0	-100	0	230	101300000	1000	0	0	-1	0
17851155	6020	0	0	-100	0	230	101300000	1000	0	0	-1	0
17863715	6019	0	0	-100	0	230	101300000	1000	0	0	-1	0
17876275	6024	0	0	-100	0	230	101300000	1000	0	0	-1	0
17888835	6013	0	0	-100	0	230	101300000	1000	0	0	-1	0
17901395	6015	0	0	-100	0	230	101300000	1000	0	0	-1	0
17913955	6018	0	0	-100	0	230	101300000	1000	0	0	-1	0
17926515	6019	2	0	-100	0	230	101300000	1000	0	0	-1	0
17939075	6023	0	0	-100	0	230	101300000	1000	0	0	-1	0
17951635	6017	2	0	-100	0	230	101300000	1000	0	0	-1	0
17964195	6024	0	0	-100	0	230	101300000	1000	0	0	-1	0
17976755	6015	0	0	-100	0	230	101300000	1000	0	0	-1	0
17989315	6011	0	0	-100	0	230	101300000	1000	0	0	-1	0
18001875	6017	0	0	-100	0	230	101300000	1000	0	0	-1	0
18014435	6017	3	0	-100	0	230	101300000	1000	0	0	-1	0
18026995	6023	2	0	-100	0	230	101300000	1000	0	0	-1	0
18039555	6016	0	0	-100	0	230	101300000	1000	0	0	-1	0
18052115	6015	0	0	-100	0	230	101300000	1000	0	0	-1	0
18064675	6020	0	0	-100	0	230	101300000	1000	0	0	-1	0
18077235	6015	1	0	-100	0	230	101300000	1000	0	0	-1	0
18089795	6016	0	0	-100	0	230	101300000	1000	0	0	-1	0
18102355	6015	2	0	-100	0	230	101300000	1000	0	0	-1	0
18114915	6022	0	0	-100	0	230	101300000	1000	0	0	-1	0
18127475	6015	2	0	-100	0	230	101300000	1000	0	0	-1	0
18140035	6017	0	0	-100	0	230	101300000	1000	0	0	-1	0
18152595	6011	0	0	-100	0	230	101300000	1000	0	0	-1	0
18165155	6016	1	0	-100	0	230	101300000	1000	0	0	-1	0
18177715	6015	0	0	-100	0	230	101300000	1000	0	0	-1	0
18190275	6020	0	0	-100	0	230	101300000	1000	0	0	-1	0
18202835	6015	0	0	-100	0	230	101300000	1000	0	0	-1	0
18215395	6014	0	0	-100	0	230	101300000	1000	0	0	-1	0
18227955	6016	0	0	-100	0	230	101300000	1000	0	0	-1	0
18240515	6022	0	0	-100	0	230	101300000	1000	0	0	-1	0
18253075	6015	0	0	-100	0	230	101300000	1000	0	0	-1	0
18265635	6018	0	0	-100	0	230	101300000	1000	0	0	-1	0
18278195	6013	0	0	-100	0	230	101300000	1000	0	0	-1	0
18290755	6021	0	0	-100	0	230	101300000	1000	0	0	-1	0
18303315	6011	0	0	-100	0	230	101300000	1000	0	0	-1	0
18315875	6022	0	0	-100	0	230	101300000	1000	0	0	-1	0
18328435	6013	0	0	-100	0	230	101300000	1000	0	0	-1	0
18340995	6025	3	0	-100	0	230	101300000	1000	0	0	-1	0
18353555	6012	0	0	-100	0	230	101300000	1000	0	0	-1	0
18366115	6016	0	0	-100	0	230	101300000	1000	0	0	-1	0
18378675	6015	0	0	-100	0	230	101300000	1000	0	0	-1	0
18391235	6024	0	0	-100	0	230	101300000	1000	0	0	-1	0
18403795	6011	0	0	-100	0	230	101300000	1000	0	0	-1	0
18416355	6022	0	0	-100	0	230	101300000	1000	0	0	-1	0
18428915	6019	3	0	-100	0	230	101300000	1000	0	0	-1	0
18441475	6021	0	0	-100	0	230	101300000	1000	0	0	-1	0
18454035	6019	2	0	-100	0	230	101300000	1000	0	0	-1	0
18466595	6019	0	0	-100	0	230	101300000	1000	0	0	-1	0
18479155	6012	0	0	-100	0	230	101300000	1000	0	0	-1	0
18491715	6017	0	0	-100	0	230	101300000	1000	0	0	-1	0
18504275	6013	0	0	-100	0	230	101300000	1000	0	0	-1	0
18516835	6016	0	0	-100	0	230	101300000	1000	0	0	-1	0
18529395	6016	0	0	-100	0	230	101300000	1000	0	0	-1	0
18541955	6017	0	0	-100	0	230	101300000	1000	0	0	-1	0
18554515	6015	1	0	-100	0	230	101300000	1000	0	0	-1	0
18567075	6022	0	0	-100	0	230	101300000	1000	0	0	-1	0
18579635	6017	3	0	-100	0	230	101300000	1000	0	0	-1	0
18592195	6019	0	0	-100	0	230	101300000	1000	0	0	-1	0
18604755	6014	0	0	-100	0	230	101300000	1000	0	0	-1	0
18617315	6025	0	0	-100	0	230	101300000	1000	0	0	-1	0
18629875	6017	0	0	-100	0	230	101300000	1000	0	0	-1	0
18642435	6019	0	0	-100	0	230	101300000	1000	0	0	-1	0
18654995	6012	0	0	-100	0	230	101300000	1000	0	0	-1	0
18667555	6016	0	0	-100	0	230	101300000	1000	0	0	-1	0
18680115	6015	0	0	-100	0	230	101300000	1000	0	0	-1	0
18692675	6015	0	0	-100	0	230	101300000	1000	0	0	-1	0
18705235	6012	0	0	-100	0	230	101300000	1000	0	0	-1	0
18717795	6021	0	0	-100	0	230	101300000	1000	0	0	-1	0
18730355	6010	0	0	-100	0	230	101300000	1000	0	0	-1	0
18742915	6025	0	0	-100	0	230	101300000	1000	0	0	-1	0
18755475	6017	4	0	-100	0	230	101300000	1000	0	0	-1	0
18768035	6021	0	0	-100	0	230	101300000	1000	0	0	-1	0
18780595	6017	3	0	-100	0	230	101300000	1000	0	0	-1	0
18793155	6020	0	0	-100	0	230	101300000	1000	0	0	-1	0
18805715	6014	0	0	-100	0	230	101300000	1000	0	0	-1	0
18818275	6025	0	0	-100	0	230	101300000	1000	0	0	-1	0
18830835	6011	0	0	-100	0	230	101300000	1000	0	0	-1	0
18843395	6015	0	0	-100	0	230	101300000	1000	0	0	-1	0
18855955	6016	0	0	-100	0	230	101300000	1000	0	0	-1	0
18868515	6016	1	0	-100	0	230	101300000	1000	0	0	-1	0
18881075	6022	0	0	-100	0	230	101300000	1000	0	0	-1	0
18893635	6015	2	0	-100	0	230	101300000	1000	0	0	-1	0
18906195	6021	0	0	-100	0	230	101300000	1000	0	0	-1	0
18918755	6016	0	0	-100	0	230	101300000	1000	0	0	-1	0
18931315	6020	0	0	-100	0	230	101300000	1000	0	0	-1	0
18943875	6013	0	0	-100	0	230	101300000	1000	0	0	-1	0
18956435	6017	0	0	-100	0	230	101300000	1000	0	0	-1	0
18968995	6016	0	0	-100	0	230	101300000	1000	0	0	-1	0
18981555	6013	3	0	-100	0	230	101300000	1000	0	0	-1	0
18994115	6012	0	0	-100	0	230	101300000	1000	0	0	-1	0
19006675	6022	0	0	-100	0	230	101300000	1000	0	0	-1	0
19019235	6015	0	0	-100	0	230	101300000	1000	0	0	-1	0
19031795	6015	1	0	-100	0	230	101300000	1000	0	0	-1	0
19044355	6021	0	0	-100	0	230	101300000	1000	0	0	-1	0
19056915	6018	0	0	-100	0	230	101300000	1000	0	0	-1	0
19069475	6012	0	0	-100	0	230	101300000	1000	0	0	-1	0
19082035	6019	3	0	-100	0	230	101300000	1000	0	0	-1	0
19094595	6015	0	0	-100	0	230	101300000	1000	0	0	-1	0
19107155	6017	0	0	-100	0	230	101300000	1000	0	0	-1	0
19119715	6015	0	0	-100	0	230	101300000	1000	0	0	-1	0
19132275	6015	1	0	-100	0	230	101300000	1000	0	0	-1	0
19144835	6015	0	0	-100	0	230	101300000	1000	0	0	-1	0
19157395	6023	0	0	-100	0	230	101300000	1000	0	0	-1	0
19169955	6019	0	0	-100	0	230	101300000	1000	0	0	-1	0
19182515	6013	0	0	-100	0	230	101300000	1000	0	0	-1	0
19195075	6016	2	0	-100	0	230	101300000	1000	0	0	-1	0
19207635	6015	0	0	-100	0	230	101300000	1000	0	0	-1	0
19220195	6021	0	0	-100	0	230	101300000	1000	0	0	-1	0
19232755	6017	0	0	-100	0	230	101300000	1000	0	0	-1	0
19245315	6016	2	0	-100	0	230	101300000	1000	0	0	-1	0
19257875	6015	0	0	-100	0	230	101300000	1000	0	0	-1	0
19270435	6019	0	0	-100	0	230	101300000	1000	0	0	-1	0
19282995	6025	2	0	-100	0	230	101300000	1000	0	0	-1	0
19295555	6015	0	0	-100	0	230	101300000	1000	0	0	-1	0
19308115	6013	0	0	-100	0	230	101300000	1000	0	0	-1	0
19320675	6013	0	0	-100	0	230	101300000	1000	0	0	-1	0
19333235	6013	4	0	-100	0	230	101300000	1000	0	0	-1	0
19345795	6013	1	0	-100	0	230	101300000	1000	0	0	-1	0
19358355	6020	0	0	-100	0	230	101300000	1000	0	0	-1	0
19370915	6021	0	0	-100	0	230	101300000	1000	0	0	-1	0
19383475	6017	0	0	-100	0	230	101300000	1000	0	0	-1	0
19396035	6015	0	0	-100	0	230	101300000	1000	0	0	-1	0
19408595	6011	2	0	-100	0	230	101300000	1000	0	0	-1	0
19421155	6026	0	0	-100	0	230	101300000	1000	0	0	-1	0
19433715	6021	0	0	-100	0	230	101300000	1000	0	0	-1	0
19446275	6012	0	0	-100	0	230	101300000	1000	0	0	-1	0
19458835	6015	4	0	-100	0	230	101300000	1000	0	0	-1	0
19471395	6016	0	0	-100	0	230	101300000	1000	0	0	-1	0
19483955	6021	0	0	-100	0	230	101300000	1000	0	0	-1	0
19496515	6018	0	0	-100	0	230	101300000	1000	0	0	-1	0
19509075	6017	0	0	-100	0	230	101300000	1000	0	0	-1	0
19521635	6015	3	0	-100	0	230	101300000	1000	0	0	-1	0
19534195	6021	0	0	-100	0	230	101300000	1000	0	0	-1	0
19546755	6019	0	0	-100	0	230	101300000	1000	0	0	-1	0
19559315	6013	0	0	-100	0	230	101300000	1000	0	0	-1	0
19571875	6016	0	0	-100	0	230	101300000	1000	0	0	-1	0
19584435	6020	0	0	-100	0	230	101300000	1000	0	0	-1	0
19596995	6018	0	0	-100	0	230	101300000	1000	0	0	-1	0
19609555	6013	0	0	-100	0	230	101300000	1000	0	0	-1	0
19622115	6016	0	0	-100	0	230	101300000	1000	0	0	-1	0
19634675	6018	0	0	-100	0	230	101300000	1000	0	0	-1	0
19647235	6012	0	0	-100	0	230	101300000	1000	0	0	-1	0
19659795	6014	1	0	-100	0	230	101300000	1000	0	0	-1	0
19672355	6021	0	0	-100	0	230	101300000	1000	0	0	-1	0
19684915	6016	0	0	-100	0	230	101300000	1000	0	0	-1	0
19697475	6016	4	0	-100	0	230	101300000	1000	0	0	-1	0
19710035	6019	0	0	-100	0	230	101300000	1000	0	0	-1	0
19722595	6022	0	0	-100	0	230	101300000	1000	0	0	-1	0
19735155	6012	0	0	-100	0	230	101300000	1000	0	0	-1	0
19747715	6015	2	0	-100	0	230	101300000	1000	0	0	-1	0
19760275	6015	0	0	-100	0	230	101300000	1000	0	0	-1	0
19772835	6021	0	0	-100	0	230	101300000	1000	0	0	-1	0
19785395	6017	0	0	-100	0	230	101300000	1000	0	0	-1	0
19797955	6013	0	0	-100	0	230	101300000	1000	0	0	-1	0
19810515	6015	2	0	-100	0	230	101300000	1000	0	0	-1	0
19823075	6023	0	0	-100	0	230	101300000	1000	0	0	-1	0
19835635	6021	0	0	-100	0	230	101300000	1000	0	0	-1	0
19848195	6017	0	0	-100	0	230	101300000	1000	0	0	-1	0
19860755	6015	1	0	-100	0	230	101300000	1000	0	0	-1	0
19873315	6017	0	0	-100	0	230	101300000	1000	0	0	-1	0
19885875	6016	0	0	-100	0	230	101300000	1000	0	0	-1	0
19898435	6016	2	0	-100	0	230	101300000	1000	0	0	-1	0
19910995	6022	2	0	-100	0	230	101300000	1000	0	0	-1	0
19923555	6021	0	0	-100	0	230	101300000	1000	0	0	-1	0
19936115	6017	0	0	-100	0	230	101300000	1000	0	0	-1	0
19948675	6015	2	0	-100	0	230	101300000	1000	0	0	-1	0
19961235	6019	0	0	-100	0	230	101300000	1000	0	0	-1	0
19973795	6021	0	0	-100	0	230	101300000	1000	0	0	-1	0
19986355	6014	0	0	-100	0	230	101300000	1000	0	0	-1	0
19998915	6013	0	0	-100	0	230	101300000	1000	0	0	-1	0
20011475	6021	0	0	-100	0	230	101300000	1000	0	0	-1	0
20024035	6012	0	0	-100	0	230	101300000	1000	0	0	-1	0
20036595	6013	0	0	-100	0	230	101300000	1000	0	0	-1	0
20049155	6020	0	0	-100	0	230	101300000	1000	0	0	-1	0
20061715	6013	0	0	-100	0	230	101300000	1000	0	0	-1	0
20074275	6016	2	0	-100	0	230	101300000	1000	0	0	-1	0
20086835	6017	0	0	-100	0	230	101300000	1000	0	0	-1	0
20099395	6020	0	0	-100	0	230	101300000	1000	0	0	-1	0
20111955	6017	2	0	-100	0	230	101300000	1000	0	0	-1	0
20124515	6016	0	0	-100	0	230	101300000	1000	0	0	-1	0
20137075	6020	0	0	-100	0	230	101300000	1000	0	0	-1	0
20149635	6015	2	0	-100	0	230	101300000	1000	0	0	-1	0
20162195	6021	0	0	-100	0	230	101300000	1000	0	0	-1	0
20174755	6016	0	0	-100	0	230	101300000	1000	0	0	-1	0
20187315	6021	0	0	-100	0	230	101300000	1000	0	0	-1	0
20199875	6016	0	0	-100	0	230	101300000	1000	0	0	-1	0
20212435	6016	2	0	-100	0	230	101300000	1000	0	0	-1	0
20224995	6021	0	0	-100	0	230	101300000	1000	0	0	-1	0
20237555	6014	0	0	-100	0	230	101300000	1000	0	0	-1	0
20250115	6016	0	0	-100	0	230	101300000	1000	0	0	-1	0
20262675	6020	0	0	-100	0	230	101300000	1000	0	0	-1	0
20275235	6015	1	0	-100	0	230	101300000	1000	0	0	-1	0
20287795	6021	0	0	-100	0	230	101300000	1000	0	0	-1	0
20300355	6012	0	0	-100	0	230	101300000	1000	0	0	-1	0
20312915	6015	0	0	-100	0	230	101300000	1000	0	0	-1	0
20325475	6021	0	0	-100	0	230	101300000	1000	0	0	-1	0
20338035	6016	2	0	-100	0	230	101300000	1000	0	0	-1	0
20350595	6017	0	0	-100	0	230	101300000	1000	0	0	-1	0
20363155	6015	0	0	-100	0	230	101300000	1000	0	0	-1	0
20375715	6013	0	0	-100	0	230	101300000	1000	0	0	-1	0
20388275	6016	0	0	-100	0	230	101300000	1000	0	0	-1	0
20400835	6022	0	0	-100	0	230	101300000	1000	0	0	-1	0
20413395	6013	0	0	-100	0	230	101300000	1000	0	0	-1	0
20425955	6019	2	0	-100	0	230	101300000	1000	0	0	-1	0
20438515	6024	0	0	-100	0	230	101300000	1000	0	0	-1	0
20451075	6016	0	0	-100	0	230	101300000	1000	0	0	-1	0
20463635	6016	1	0	-100	0	230	101300000	1000	0	0	-1	0
20476195	6017	0	0	-100	0	230	101300000	1000	0	0	-1	0
20488755	6015	0	0	-100	0	230	101300000	1000	0	0	-1	0
20501315	6013	0	0	-100	0	230	101300000	1000	0	0	-1	0
20513875	6019	0	0	-100	0	230	101300000	1000	0	0	-1	0
20526435	6016	0	0	-100	0	230	101300000	1000	0	0	-1	0
20538995	6019	0	0	-100	0	230	101300000	1000	0	0	-1	0
20551555	6022	0	0	-100	0	230	101300000	1000	0	0	-1	0
20564115	6015	0	0	-100	0	230	101300000	1000	0	0	-1	0
20576675	6013	1	0	-100	0	230	101300000	1000	0	0	-1	0
20589235	6019	0	0	-100	0	230	101300000	1000	0	0	-1	0
20601795	6017	0	0	-100	0	230	101300000	1000	0	0	-1	0
20614355	6012	0	0	-100	0	230	101300000	1000	0	0	-1	0
20626915	6016	0	0	-100	0	230	101300000	1000	0	0	-1	0
20639475	6013	1	0	-100	0	230	101300000	1000	0	0	-1	0
20652035	6023	0	0	-100	0	230	101300000	1000	0	0	-1	0
20664595	6016	0	0	-100	0	230	101300000	1000	0	0	-1	0
20677155	6013	0	0	-100	0	230	101300000	1000	0	0	-1	0
20689715	6019	2	0	-100	0	230	101300000	1000	0	0	-1	0
20702275	6016	0	0	-100	0	230	101300000	1000	0	0	-1	0
20714835	6018	0	0	-100	0	230	101300000	1000	0	0	-1	0
20727395	6020	1	0	-100	0	230	101300000	1000	0	0	-1	0
20739955	6016	0	0	-100	0	230	101300000	1000	0	0	-1	0
20752515	6019	0	0	-100	0	230	101300000	1000	0	0	-1	0
20765075	6017	0	0	-100	0	230	101300000	1000	0	0	-1	0
20777635	6013	1	0	-100	0	230	101300000	1000	0	0	-1	0
20790195	6024	0	0	-100	0	230	101300000	1000	0	0	-1	0
20802755	6016	0	0	-100	0	230	101300000	1000	0	0	-1	0
20815315	6016	2	0	-100	0	230	101300000	1000	0	0	-1	0
20827875	6020	0	0	-100	0	230	101300000	1000	0	0	-1	0
20840435	6015	0	0	-100	0	230	101300000	1000	0	0	-1	0
20852995	6015	0	0	-100	0	230	101300000	1000	0	0	-1	0
20865555	6019	0	0	-100	0	230	101300000	1000	0	0	-1	0
20878115	6009	0	0	-100	0	230	101300000	1000	0	0	-1	0
20890675	6016	0	0	-100	0	230	101300000	1000	0	0	-1	0
20903235	6019	0	0	-100	0	230	101300000	1000	0	0	-1	0
20915795	6012	0	0	-100	0	230	101300000	1000	0	0	-1	0
20928355	6016	0	0	-100	0	230	101300000	1000	0	0	-1	0
20940915	6020	0	0	-100	0	230	101300000	1000	0	0	-1	0
20953475	6013	0	0	-100	0	230	101300000	1000	0	0	-1	0
20966035	6014	0	0	-100	0	230	101300000	1000	0	0	-1	0
20978595	6019	0	0	-100	0	230	101300000	1000	0	0	-1	0
20991155	6013	0	0	-100	0	230	101300000	1000	0	0	-1	0
21003715	6012	1	0	-100	0	230	101300000	1000	0	0	-1	0
21016275	6018	0	0	-100	0	230	101300000	1000	0	0	-1	0
21028835	6016	0	0	-100	0	230	101300000	1000	0	0	-1	0
21041395	6012	4	0	-100	0	230	101300000	1000	0	0	-1	0
21053955	6013	0	0	-100	0	230	101300000	1000	0	0	-1	0
21066515	6021	0	0	-100	0	230	101300000	1000	0	0	-1	0
21079075	6017	2	0	-100	0	230	101300000	1000	0	0	-1	0
21091635	6019	0	0	-100	0	230	101300000	1000	0	0	-1	0
21104195	6013	0	0	-100	0	230	101300000	1000	0	0	-1	0
21116755	6018	0	0	-100	0	230	101300000	1000	0	0	-1	0
21129315	6018	0	0	-100	0	230	101300000	1000	0	0	-1	0
21141875	6015	3	0	-100	0	230	101300000	1000	0	0	-1	0
21154435	6024	0	0	-100	0	230	101300000	1000	0	0	-1	0
21166995	6020	0	0	-100	0	230	101300000	1000	0	0	-1	0
21179555	6017	3	0	-100	0	230	101300000	1000	0	0	-1	0
21192115	6012	0	0	-100	0	230	101300000	1000	0	0	-1	0
21204675	6017	0	0	-100	0	230	101300000	1000	0	0	-1	0
21217235	6016	0	0	-100	0	230	101300000	1000	0	0	-1	0
21229795	6017	2	0	-100	0	230	101300000	1000	0	0	-1	0
21242355	6017	0	0	-100	0	230	101300000	1000	0	0	-1	0
21254915	6019	0	0	-100	0	230	101300000	1000	0	0	-1	0
21267475	6021	0	0	-100	0	230	101300000	1000	0	0	-1	0
21280035	6012	0	0	-100	0	230	101300000	1000	0	0	-1	0
21292595	6013	3	0	-100	0	230	101300000	1000	0	0	-1	0
21305155	6017	0	0	-100	0	230	101300000	1000	0	0	-1	0
21317715	6021	0	0	-100	0	230	101300000	1000	0	0	-1	0
21330275	6013	0	0	-100	0	230	101300000	1000	0	0	-1	0
21342835	6017	0	0	-100	0	230	101300000	1000	0	0	-1	0
21355395	6015	0	0	-100	0	230	101300000	1000	0	0	-1	0
21367955	6023	0	0	-100	0	230	101300000	1000	0	0	-1	0
21380515	6022	0	0	-100	0	230	101300000	1000	0	0	-1	0
21393075	6012	0	0	-100	0	230	101300000	1000	0	0	-1	0
21405635	6015	1	0	-100	0	230	101300000	1000	0	0	-1	0
21418195	6019	0	0	-100	0	230	101300000	1000	0	0	-1	0
21430755	6015	0	0	-100	0	230	101300000	1000	0	0	-1	0
21443315	6016	0	0	-100	0	230	101300000	1000	0	0	-1	0
21455875	6018	0	0	-100	0	230	101300000	1000	0	0	-1	0
21468435	6017	2	0	-100	0	230	101300000	1000	0	0	-1	0
21480995	6021	2	0	-100	0	230	101300000	1000	0	0	-1	0
21493555	6012	0	0	-100	0	230	101300000	1000	0	0	-1	0
21506115	6019	0	0	-100	0	230	101300000	1000	0	0	-1	0
21518675	6016	0	0	-100	0	230	101300000	1000	0	0	-1	0
21531235	6017	0	0	-100	0	230	101300000	1000	0	0	-1	0
21543795	6016	0	0	-100	0	230	101300000	1000	0	0	-1	0
21556355	6012	1	0	-100	0	230	101300000	1000	0	0	-1	0
21568915	6020	0	0	-100	0	230	101300000	1000	0	0	-1	0
21581475	6014	0	0	-100	0	230	101300000	1000	0	0	-1	0
21594035	6016	0	0	-100	0	230	101300000	1000	0	0	-1	0
21606595	6016	0	0	-100	0	230	101300000	1000	0	0	-1	0
21619155	6016	0	0	-100	0	230	101300000	1000	0	0	-1	0
21631715	6011	1	0	-100	0	230	101300000	1000	0	0	-1	0
21644275	6018	0	0	-100	0	230	101300000	1000	0	0	-1	0
21656835	6017	2	0	-100	0	230	101300000	1000	0	0	-1	0
21669395	6022	0	0	-100	0	230	101300000	1000	0	0	-1	0
21681955	6016	0	0	-100	0	230	101300000	1000	0	0	-1	0
21694515	6014	0	0	-100	0	230	101300000	1000	0	0	-1	0
21707075	6021	0	0	-100	0	230	101300000	1000	0	0	-1	0
21719635	6013	0	0	-100	0	230	101300000	1000	0	0	-1	0
21732195	6021	0	0	-100	0	230	101300000	1000	0	0	-1	0
21744755	6016	0	0	-100	0	230	101300000	1000	0	0	-1	0
21757315	6021	0	0	-100	0	230	101300000	1000	0	0	-1	0
21769875	6013	0	0	-100	0	230	101300000	1000	0	0	-1	0
21782435	6022	0	0	-100	0	230	101300000	1000	0	0	-1	0
21794995	6010	0	0	-100	0	230	101300000	1000	0	0	-1	0
21807555	6017	0	0	-100	0	230	101300000	1000	0	0	-1	0
21820115	6014	3	0	-100	0	230	101300000	1000	0	0	-1	0
21832675	6018	0	0	-100	0	230	101300000	1000	0	0	-1	0
21845235	6019	2	0	-100	0	230	101300000	1000	0	0	-1	0
21857795	6018	0	0	-100	0	230	101300000	1000	0	0	-1	0
21870355	6015	4	0	-100	0	230	101300000	1000	0	0	-1	0
21882915	6020	0	0	-100	0	230	101300000	1000	0	0	-1	0
21895475	6013	0	0	-100	0	230	101300000	1000	0	0	-1	0
21908035	6015	1	0	-100	0	230	101300000	1000	0	0	-1	0
21920595	6027	0	0	-100	0	230	101300000	1000	0	0	-1	0
21933155	6010	0	0	-100	0	230	101300000	1000	0	0	-1	0
21945715	6016	0	0	-100	0	230	101300000	1000	0	0	-1	0
21958275	6019	0	0	-100	0	230	101300000	1000	0	0	-1	0
21970835	6013	0	0	-100	0	230	101300000	1000	0	0	-1	0
21983395	6016	1	0	-100	0	230	101300000	1000	0	0	-1	0
21995955	6018	0	0	-100	0	230	101300000	1000	0	0	-1	0
22008515	6020	0	0	-100	0	230	101300000	1000	0	0	-1	0
22021075	6018	0	0	-100	0	230	101300000	1000	0	0	-1	0
22033635	6017	0	0	-100	0	230	101300000	1000	0	0	-1	0
22046195	6017	0	0	-100	0	230	101300000	1000	0	0	-1	0
22058755	6013	1	0	-100	0	230	101300000	1000	0	0	-1	0
22071315	6024	0	0	-100	0	230	101300000	1000	0	0	-1	0
22083875	6018	0	0	-100	0	230	101300000	1000	0	0	-1	0
22096435	6016	2	0	-100	0	230	101300000	1000	0	0	-1	0
22108995	6022	3	0	-100	0	230	101300000	1000	0	0	-1	0
22121555	6022	0	0	-100	0	230	101300000	1000	0	0	-1	0
22134115	6011	0	0	-100	0	230	101300000	1000	0	0	-1	0
22146675	6013	2	0	-100	0	230	101300000	1000	0	0	-1	0
22159235	6025	0	0	-100	0	230	101300000	1000	0	0	-1	0
22171795	6016	0	0	-100	0	230	101300000	1000	0	0	-1	0
22184355	6014	0	0	-100	0	230	101300000	1000	0	0	-1	0
22196915	6016	1	0	-100	0	230	101300000	1000	0	0	-1	0
22209475	6018	0	0	-100	0	230	101300000	1000	0	0	-1	0
22222035	6017	0	0	-100	0	230	101300000	1000	0	0	-1	0
22234595	6016	0	0	-100	0	230	101300000	1000	0	0	-1	0
22247155	6017	3	0	-100	0	230	101300000	1000	0	0	-1	0
22259715	6013	0	0	-100	0	230	101300000	1000	0	0	-1	0
22272275	6026	0	0	-100	0	230	101300000	1000	0	0	-1	0
22284835	6019	0	0	-100	0	230	101300000	1000	0	0	-1	0
22297395	6013	0	0	-100	0	230	101300000	1000	0	0	-1	0
22309955	6016	0	0	-100	0	230	101300000	1000	0	0	-1	0
22322515	6017	0	0	-100	0	230	101300000	1000	0	0	-1	0
22335075	6013	0	0	-100	0	230	101300000	1000	0	0	-1	0
22347635	6015	2	0	-100	0	230	101300000	1000	0	0	-1	0
22360195	6012	1	0	-100	0	230	101300000	1000	0	0	-1	0
22372755	6022	0	0	-100	0	230	101300000	1000	0	0	-1	0
22385315	6017	0	0	-100	0	230	101300000	1000	0	0	-1	0
22397875	6013	3	0	-100	0	230	101300000	1000	0	0	-1	0
22410435	6020	0	0	-100	0	230	101300000	1000	0	0	-1	0
22422995	6021	0	0	-100	0	230	101300000	1000	0	0	-1	0
22435555	6013	0	0	-100	0	230	101300000	1000	0	0	-1	0
22448115	6016	1	0	-100	0	230	101300000	1000	0	0	-1	0
22460675	6020	0	0	-100	0	230	101300000	1000	0	0	-1	0
22473235	6018	0	0	-100	0	230	101300000	1000	0	0	-1	0
22485795	6017	0	0	-100	0	230	101300000	1000	0	0	-1	0
22498355	6015	3	0	-100	0	230	101300000	1000	0	0	-1	0
22510915	6022	0	0	-100	0	230	101300000	1000	0	0	-1	0
22523475	6021	0	0	-100	0	230	101300000	1000	0	0	-1	0
22536035	6014	0	0	-100	0	230	101300000	1000	0	0	-1	0
22548595	6012	1	0	-100	0	230	101300000	1000	0	0	-1	0
22561155	6021	0	0	-100	0	230	101300000	1000	0	0	-1	0
22573715	6016	0	0	-100	0	230	101300000	1000	0	0	-1	0
22586275	6017	3	0	-100	0	230	101300000	1000	0	0	-1	0
22598835	6016	0	0	-100	0	230	101300000	1000	0	0	-1	0
22611395	6017	0	0	-100	0	230	101300000	1000	0	0	-1	0
22623955	6021	0	0	-100	0	230	101300000	1000	0	0	-1	0
22636515	6018	0	0	-100	0	230	101300000	1000	0	0	-1	0
22649075	6012	0	0	-100	0	230	101300000	1000	0	0	-1	0
22661635	6012	0	0	-100	0	230	101300000	1000	0	0	-1	0
22674195	6018	0	0	-100	0	230	101300000	1000	0	0	-1	0
22686755	6012	4	0	-100	0	230	101300000	1000	0	0	-1	0
22699315	6016	3	0	-100	0	230	101300000	1000	0	0	-1	0
22711875	6024	0	0	-100	0	230	101300000	1000	0	0	-1	0
22724435	6021	0	0	-100	0	230	101300000	1000	0	0	-1	0
22736995	6021	0	0	-100	0	230	101300000	1000	0	0	-1	0
22749555	6017	0	0	-100	0	230	101300000	1000	0	0	-1	0
22762115	6013	0	0	-100	0	230	101300000	1000	0	0	-1	0
22774675	6012	4	0	-100	0	230	101300000	1000	0	0	-1	0
22787235	6019	0	0	-100	0	230	101300000	1000	0	0	-1	0
22799795	6017	0	0	-100	0	230	101300000	1000	0	0	-1	0
22812355	6021	0	0	-100	0	230	101300000	1000	0	0	-1	0
22824915	6020	0	0	-100	0	230	101300000	1000	0	0	-1	0
22837475	6011	0	0	-100	0	230	101300000	1000	0	0	-1	0
22850035	6015	2	0	-100	0	230	101300000	1000	0	0	-1	0
22862595	6023	0	0	-100	0	230	101300000	1000	0	0	-1	0
22875155	6020	0	0	-100	0	230	101300000	1000	0	0	-1	0
22887715	6016	0	0	-100	0	230	101300000	1000	0	0	-1	0
22900275	6017	0	0	-100	0	230	101300000	1000	0	0	-1	0
22912835	6017	3	0	-100	0	230	101300000	1000	0	0	-1	0
22925395	6016	0	0	-100	0	230	101300000	1000	0	0	-1	0
22937955	6021	0	0	-100	0	230	101300000	1000	0	0	-1	0
22950515	6016	0	0	-100	0	230	101300000	1000	0	0	-1	0
22963075	6016	4	0	-100	0	230	101300000	1000	0	0	-1	0
22975635	6015	0	0	-100	0	230	101300000	1000	0	0	-1	0
22988195	6021	0	0	-100	0	230	101300000	1000	0	0	-1	0
23000755	6017	0	0	-100	0	230	101300000	1000	0	0	-1	0
23013315	6016	2	0	-100	0	230	101300000	1000	0	0	-1	0
23025875	6021	0	0	-100	0	230	101300000	1000	0	0	-1	0
23038435	6012	0	0	-100	0	230	101300000	1000	0	0	-1	0
23050995	6017	0	0	-100	0	230	101300000	1000	0	0	-1	0
23063555	6020	0	0	-100	0	230	101300000	1000	0	0	-1	0
23076115	6015	1	0	-100	0	230	101300000	1000	0	0	-1	0
23088675	6016	0	0	-100	0	230	101300000	1000	0	0	-1	0
23101235	6016	0	0	-100	0	230	101300000	1000	0	0	-1	0
23113795	6012	3	0	-100	0	230	101300000	1000	0	0	-1	0
23126355	6023	0	0	-100	0	230	101300000	1000	0	0	-1	0
23138915	6018	0	0	-100	0	230	101300000	1000	0	0	-1	0
23151475	6016	4	0	-100	0	230	101300000	1000	0	0	-1	0
23164035	6020	0	0	-100	0	230	101300000	1000	0	0	-1	0
23176595	6013	0	0	-100	0	230	101300000	1000	0	0	-1	0
23189155	6015	2	0	-100	0	230	101300000	1000	0	0	-1	0
23201715	6021	0	0	-100	0	230	101300000	1000	0	0	-1	0
23214275	6023	0	0	-100	0	230	101300000	1000	0	0	-1	0
23226835	6021	0	0	-100	0	230	101300000	1000	0	0	-1	0
23239395	6019	0	0	-100	0	230	101300000	1000	0	0	-1	0
23251955	6022	0	0	-100	0	230	101300000	1000	0	0	-1	0
23264515	6021	0	0	-100	0	230	101300000	1000	0	0	-1	0
23277075	6014	0	0	-100	0	230	101300000	1000	0	0	-1	0
23289635	6010	0	0	-100	0	230	101300000	1000	0	0	-1	0
23302195	6017	0	0	-100	0	230	101300000	1000	0	0	-1	0
23314755	6021	2	0	-100	0	230	101300000	1000	0	0	-1	0
23327315	6015	3	0	-100	0	230	101300000	1000	0	0	-1	0
23339875	6019	0	0	-100	0	230	101300000	1000	0	0	-1	0
23352435	6021	0	0	-100	0	230	101300000	1000	0	0	-1	0
23364995	6021	0	0	-100	0	230	101300000	1000	0	0	-1	0
23377555	6024	0	0	-100	0	230	101300000	1000	0	0	-1	0
23390115	6020	0	0	-100	0	230	101300000	1000	0	0	-1	0
23402675	6020	0	0	-100	0	230	101300000	1000	0	0	-1	0
23415235	6019	0	0	-100	0	230	101300000	1000	0	0	-1	0
23427795	6021	0	0	-100	0	230	101300000	1000	0	0	-1	0
23440355	6022	0	0	-100	0	230	101300000	1000	0	0	-1	0
23452915	6019	0	0	-100	0	230	101300000	1000	0	0	-1	0
23465475	6021	0	0	-100	0	230	101300000	1000	0	0	-1	0
23478035	6021	0	0	-100	0	230	101300000	1000	0	0	-1	0
23490595	6022	0	0	-100	0	230	101300000	1000	0	0	-1	0
23503155	6014	0	0	-100	0	230	101300000	1000	0	0	-1	0
23515715	6015	4	0	-100	0	230	101300000	1000	0	0	-1	0
23528275	6015	1	0	-100	0	230	101300000	1000	0	0	-1	0
23540835	6019	3	0	-100	0	230	101300000	1000	0	0	-1	0
23553395	6016	1	0	-100	0	230	101300000	1000	0	0	-1	0
23565955	6013	1	0	-100	0	230	101300000	1000	0	0	-1	0
23578515	6019	0	0	-100	0	230	101300000	1000	0	0	-1	0
23591075	6019	0	0	-100	0	230	101300000	1000	0	0	-1	0
23603635	6025	0	0	-100	0	230	101300000	1000	0	0	-1	0
23616195	6019	0	0	-100	0	230	101300000	1000	0	0	-1	0
23628755	6016	0	0	-100	0	230	101300000	1000	0	0	-1	0
23641315	6013	0	0	-100	0	230	101300000	1000	0	0	-1	0
23653875	6016	0	0	-100	0	230	101300000	1000	0	0	-1	0
23666435	6016	1	0	-100	0	230	101300000	1000	0	0	-1	0
23678995	6013	0	0	-100	0	230	101300000	1000	0	0	-1	0
23691555	6017	0	0	-100	0	230	101300000	1000	0	0	-1	0
23704115	6021	0	0	-100	0	230	101300000	1000	0	0	-1	0
23716675	6017	0	0	-100	0	230	101300000	1000	0	0	-1	0
23729235	6021	0	0	-100	0	230	101300000	1000	0	0	-1	0
23741795	6017	0	0	-100	0	230	101300000	1000	0	0	-1	0
23754355	6021	0	0	-100	0	230	101300000	1000	0	0	-1	0
23766915	6017	0	0	-100	0	230	101300000	1000	0	0	-1	0
23779475	6013	0	0	-100	0	230	101300000	1000	0	0	-1	0
23792035	6012	0	0	-100	0	230	101300000	1000	0	0	-1	0
23804595	6013	0	0	-100	0	230	101300000	1000	0	0	-1	0
23817155	6009	0	0	-100	0	230	101300000	1000	0	0	-1	0
23829715	6014	0	0	-100	0	230	101300000	1000	0	0	-1	0
23842275	6017	4	0	-100	0	230	101300000	1000	0	0	-1	0
23854835	6013	4	0	-100	0	230	101300000	1000	0	0	-1	0
23867395	6015	2	0	-100	0	230	101300000	1000	0	0	-1	0
23879955	6016	2	0	-100	0	230	101300000	1000	0	0	-1	0
23892515	6021	2	0	-100	0	230	101300000	1000	0	0	-1	0
23905075	6019	4	0	-100	0	230	101300000	1000	0	0	-1	0
23917635	6016	2	0	-100	0	230	101300000	1000	0	0	-1	0
23930195	6013	1	0	-100	0	230	101300000	1000	0	0	-1	0
23942755	6013	0	0	-100	0	230	101300000	1000	0	0	-1	0
23955315	6016	0	0	-100	0	230	101300000	1000	0	0	-1	0
23967875	6016	0	0	-100	0	230	101300000	1000	0	0	-1	0
23980435	6025	0	0	-100	0	230	101300000	1000	0	0	-1	0
23992995	6021	3	0	-100	0	230	101300000	1000	0	0	-1	0
24005555	6027	0	0	-100	0	230	101300000	1000	0	0	-1	0
24018115	6020	0	0	-100	0	230	101300000	1000	0	0	-1	0
24030675	6022	0	0	-100	0	230	101300000	1000	0	0	-1	0
24043235	6016	0	0	-100	0	230	101300000	1000	0	0	-1	0
24055795	6019	0	0	-100	0	230	101300000	1000	0	0	-1	0
24068355	6021	0	0	-100	0	230	101300000	1000	0	0	-1	0
24080915	6016	0	0	-100	0	230	101300000	1000	0	0	-1	0
24093475	6012	0	0	-100	0	230	101300000	1000	0	0	-1	0
24106035	6017	3	0	-100	0	230	101300000	1000	0	0	-1	0
24118595	6014	4	0	-100	0	230	101300000	1000	0	0	-1	0
24131155	6017	4	0	-100	0	230	101300000	1000	0	0	-1	0
24143715	6016	2	0	-100	0	230	101300000	1000	0	0	-1	0
24156275	6015	0	0	-100	0	230	101300000	1000	0	0	-1	0
24168835	6015	0	0	-100	0	230	101300000	1000	0	0	-1	0
24181395	6019	0	0	-100	0	230	101300000	1000	0	0	-1	0
24193955	6015	0	0	-100	0	230	101300000	1000	0	0	-1	0
24206515	6013	0	0	-100	0	230	101300000	1000	0	0	-1	0
24219075	6018	0	0	-100	0	230	101300000	1000	0	0	-1	0
24231635	6020	0	0	-100	0	230	101300000	1000	0	0	-1	0
24244195	6021	0	0	-100	0	230	101300000	1000	0	0	-1	0
24256755	6013	0	0	-100	0	230	101300000	1000	0	0	-1	0
24269315	6016	1	0	-100	0	230	101300000	1000	0	0	-1	0
24281875	6013	0	0	-100	0	230	101300000	1000	0	0	-1	0
24294435	6020	0	0	-100	0	230	101300000	1000	0	0	-1	0
24306995	6016	0	0	-100	0	230	101300000	1000	0	0	-1	0
24319555	6021	0	0	-100	0	230	101300000	1000	0	0	-1	0
24332115	6022	0	0	-100	0	230	101300000	1000	0	0	-1	0
24344675	6021	0	0	-100	0	230	101300000	1000	0	0	-1	0
24357235	6021	0	0	-100	0	230	101300000	1000	0	0	-1	0
24369795	6021	0	0	-100	0	230	101300000	1000	0	0	-1	0
24382355	6021	0	0	-100	0	230	101300000	1000	0	0	-1	0
24394915	6019	0	0	-100	0	230	101300000	1000	0	0	-1	0
24407475	6020	0	0	-100	0	230	101300000	1000	0	0	-1	0
24420035	6021	0	0	-100	0	230	101300000	1000	0	0	-1	0
24432595	6014	0	0	-100	0	230	101300000	1000	0	0	-1	0
24445155	6017	0	0	-100	0	230	101300000	1000	0	0	-1	0
24457715	6012	0	0	-100	0	230	101300000	1000	0	0	-1	0
24470275	6012	4	0	-100	0	230	101300000	1000	0	0	-1	0
24482835	6014	4	0	-100	0	230	101300000	1000	0	0	-1	0
24495395	6019	2	0	-100	0	230	101300000	1000	0	0	-1	0
24507955	6016	2	0	-100	0	230	101300000	1000	0	0	-1	0
24520515	6013	3	0	-100	0	230	101300000	1000	0	0	-1	0
24533075	6017	4	0	-100	0	230	101300000	1000	0	0	-1	0
24545635	6014	0	0	-100	0	230	101300000	1000	0	0	-1	0
24558195	6013	0	0	-100	0	230	101300000	1000	0	0	-1	0
24570755	6015	0	0	-100	0	230	101300000	1000	0	0	-1	0
24583315	6025	0	0	-100	0	230	101300000	1000	0	0	-1	0
24595875	6015	0	0	-100	0	230	101300000	1000	0	0	-1	0
24608435	6011	3	0	-100	0	230	101300000	1000	0	0	-1	0
24620995	6016	0	0	-100	0	230	101300000	1000	0	0	-1	0
24633555	6015	4	0	-100	0	230	101300000	1000	0	0	-1	0
24646115	6013	0	0	-100	0	230	101300000	1000	0	0	-1	0
24658675	6016	0	0	-100	0	230	101300000	1000	0	0	-1	0
24671235	6015	0	0	-100	0	230	101300000	1000	0	0	-1	0
24683795	6018	0	0	-100	0	230	101300000	1000	0	0	-1	0
24696355	6016	0	0	-100	0	230	101300000	1000	0	0	-1	0
24708915	6020	0	0	-100	0	230	101300000	1000	0	0	-1	0
24721475	6023	0	0	-100	0	230	101300000	1000	0	0	-1	0
24734035	6022	0	0	-100	0	230	101300000	1000	0	0	-1	0
24746595	6025	0	0	-100	0	230	101300000	1000	0	0	-1	0
24759155	6019	0	0	-100	0	230	101300000	1000	0	0	-1	0
24771715	6020	0	0	-100	0	230	101300000	1000	0	0	-1	0
24784275	6023	0	0	-100	0	230	101300000	1000	0	0	-1	0
24796835	6019	0	0	-100	0	230	101300000	1000	0	0	-1	0
24809395	6021	0	0	-100	0	230	101300000	1000	0	0	-1	0
24821955	6023	0	0	-100	0	230	101300000	1000	0	0	-1	0
24834515	6021	0	0	-100	0	230	101300000	1000	0	0	-1	0
24847075	6018	0	0	-100	0	230	101300000	1000	0	0	-1	0
24859635	6019	0	0	-100	0	230	101300000	1000	0	0	-1	0
24872195	6021	0	0	-100	0	230	101300000	1000	0	0	-1	0
24884755	6017	0	0	-100	0	230	101300000	1000	0	0	-1	0
24897315	6022	0	0	-100	0	230	101300000	1000	0	0	-1	0
24909875	6021	0	0	-100	0	230	101300000	1000	0	0	-1	0
24922435	6015	0	0	-100	0	230	101300000	1000	0	0	-1	0
24934995	6015	0	0	-100	0	230	101300000	1000	0	0	-1	0
24947555	6016	0	0	-100	0	230	101300000	1000	0	0	-1	0
24960115	6011	2	0	-100	0	230	101300000	1000	0	0	-1	0
24972675	6024	0	0	-100	0	230	101300000	1000	0	0	-1	0
24985235	6021	0	0	-100	0	230	101300000	1000	0	0	-1	0
24997795	6016	0	0	-100	0	230	101300000	1000	0	0	-1	0
25010355	6014	0	0	-100	0	230	101300000	1000	0	0	-1	0
25022915	6017	0	0	-100	0	230	101300000	1000	0	0	-1	0
25035475	6016	4	0	-100	0	230	101300000	1000	0	0	-1	0
25048035	6016	4	0	-100	0	230	101300000	1000	0	0	-1	0
25060595	6013	3	0	-100	0	230	101300000	1000	0	0	-1	0
25073155	6014	2	0	-100	0	230	101300000	1000	0	0	-1	0
25085715	6012	0	0	-100	0	230	101300000	1000	0	0	-1	0
25098275	6019	0	0	-100	0	230	101300000	1000	0	0	-1	0
25110835	6016	0	0	-100	0	230	101300000	1000	0	0	-1	0
25123395	6021	0	0	-100	0	230	101300000	1000	0	0	-1	0
25135955	6021	0	0	-100	0	230	101300000	1000	0	0	-1	0
25148515	6025	0	0	-100	0	230	101300000	1000	0	0	-1	0
25161075	6023	0	0	-100	0	230	101300000	1000	0	0	-1	0
25173635	6021	0	0	-100	0	230	101300000	1000	0	0	-1	0
25186195	6019	0	0	-100	0	230	101300000	1000	0	0	-1	0
25198755	6018	0	0	-100	0	230	101300000	1000	0	0	-1	0
25211315	6015	0	0	-100	0	230	101300000	1000	0	0	-1	0
25223875	6015	0	0	-100	0	230	101300000	1000	0	0	-1	0
25236435	6013	4	0	-100	0	230	101300000	1000	0	0	-1	0
25248995	6015	0	0	-100	0	230	101300000	1000	0	0	-1	0
25261555	6013	0	0	-100	0	230	101300000	1000	0	0	-1	0
25274115	6017	0	0	-100	0	230	101300000	1000	0	0	-1	0
25286675	6023	0	0	-100	0	230	101300000	1000	0	0	-1	0
25299235	6019	0	0	-100	0	230	101300000	1000	0	0	-1	0
25311795	6018	0	0	-100	0	230	101300000	1000	0	0	-1	0
25324355	6016	0	0	-100	0	230	101300000	1000	0	0	-1	0
25336915	6018	0	0	-100	0	230	101300000	1000	0	0	-1	0
25349475	6017	0	0	-100	0	230	101300000	1000	0	0	-1	0
25362035	6015	0	0	-100	0	230	101300000	1000	0	0	-1	0
25374595	6010	0	0	-100	0	230	101300000	1000	0	0	-1	0
25387155	6015	0	0	-100	0	230	101300000	1000	0	0	-1	0
25399715	6014	1	0	-100	0	230	101300000	1000	0	0	-1	0
25412275	6016	0	0	-100	0	230	101300000	1000	0	0	-1	0
25424835	6019	2	0	-100	0	230	101300000	1000	0	0	-1	0
25437395	6016	2	0	-100	0	230	101300000	1000	0	0	-1	0
25449955	6013	0	0	-100	0	230	101300000	1000	0	0	-1	0
25462515	6019	0	0	-100	0	230	101300000	1000	0	0	-1	0
25475075	6019	0	0	-100	0	230	101300000	1000	0	0	-1	0
25487635	6016	0	0	-100	0	230	101300000	1000	0	0	-1	0
25500195	6017	0	0	-100	0	230	101300000	1000	0	0	-1	0
25512755	6015	2	0	-100	0	230	101300000	1000	0	0	-1	0
25525315	6016	1	0	-100	0	230	101300000	1000	0	0	-1	0
25537875	6016	0	0	-100	0	230	101300000	1000	0	0	-1	0
25550435	6023	0	0	-100	0	230	101300000	1000	0	0	-1	0
25562995	6017	0	0	-100	0	230	101300000	1000	0	0	-1	0
25575555	6014	0	0	-100	0	230	101300000	1000	0	0	-1	0
25588115	6015	0	0	-100	0	230	101300000	1000	0	0	-1	0
25600675	6013	0	0	-100	0	230	101300000	1000	0	0	-1	0
25613235	6016	0	0	-100	0	230	101300000	1000	0	0	-1	0
25625795	6016	4	0	-100	0	230	101300000	1000	0	0	-1	0
25638355	6016	2	0	-100	0	230	101300000	1000	0	0	-1	0
25650915	6011	0	0	-100	0	230	101300000	1000	0	0	-1	0
25663475	6017	0	0	-100	0	230	101300000	1000	0	0	-1	0
25676035	6020	0	0	-100	0	230	101300000	1000	0	0	-1	0
25688595	6022	0	0	-100	0	230	101300000	1000	0	0	-1	0
25701155	6022	0	0	-100	0	230	101300000	1000	0	0	-1	0
25713715	6021	0	0	-100	0	230	101300000	1000	0	0	-1	0
25726275	6017	0	0	-100	0	230	101300000	1000	0	0	-1	0
25738835	6014	4	0	-100	0	230	101300000	1000	0	0	-1	0
25751395	6019	0	0	-100	0	230	101300000	1000	0	0	-1	0
25763955	6025	0	0	-100	0	230	101300000	1000	0	0	-1	0
25776515	6014	0	0	-100	0	230	101300000	1000	0	0	-1	0
25789075	6014	0	0	-100	0	230	101300000	1000	0	0	-1	0
25801635	6017	1	0	-100	0	230	101300000	1000	0	0	-1	0
25814195	6024	0	0	-100	0	230	101300000	1000	0	0	-1	0
25826755	6020	0	0	-100	0	230	101300000	1000	0	0	-1	0
25839315	6010	0	0	-100	0	230	101300000	1000	0	0	-1	0
25851875	6015	0	0	-100	0	230	101300000	1000	0	0	-1	0
25864435	6022	0	0	-100	0	230	101300000	1000	0	0	-1	0
25876995	6018	2	0	-100	0	230	101300000	1000	0	0	-1	0
25889555	6017	0	0	-100	0	230	101300000	1000	0	0	-1	0
25902115	6016	0	0	-100	0	230	101300000	1000	0	0	-1	0
25914675	6018	0	0	-100	0	230	101300000	1000	0	0	-1	0
25927235	6019	0	0	-100	0	230	101300000	1000	0	0	-1	0
25939795	6016	0	0	-100	0	230	101300000	1000	0	0	-1	0
25952355	6015	2	0	-100	0	230	101300000	1000	0	0	-1	0
25964915	6019	0	0	-100	0	230	101300000	1000	0	0	-1	0
25977475	6017	0	0	-100	0	230	101300000	1000	0	0	-1	0
25990035	6018	0	0	-100	0	230	101300000	1000	0	0	-1	0
26002595	6017	4	0	-100	0	230	101300000	1000	0	0	-1	0
26015155	6019	0	0	-100	0	230	101300000	1000	0	0	-1	0
26027715	6021	0	0	-100	0	230	101300000	1000	0	0	-1	0
26040275	6016	1	0	-100	0	230	101300000	1000	0	0	-1	0
26052835	6019	0	0	-100	0	230	101300000	1000	0	0	-1	0
26065395	6014	0	0	-100	0	230	101300000	1000	0	0	-1	0
26077955	6016	0	0	-100	0	230	101300000	1000	0	0	-1	0
26090515	6015	0	0	-100	0	230	101300000	1000	0	0	-1	0
26103075	6016	3	0	-100	0	230	101300000	1000	0	0	-1	0
26115635	6021	0	0	-100	0	230	101300000	1000	0	0	-1	0
26128195	6016	0	0	-100	0	230	101300000	1000	0	0	-1	0
26140755	6014	0	0	-100	0	230	101300000	1000	0	0	-1	0
26153315	6016	0	0	-100	0	230	101300000	1000	0	0	-1	0
26165875	6017	3	0	-100	0	230	101300000	1000	0	0	-1	0
26178435	6014	0	0	-100	0	230	101300000	1000	0	0	-1	0
26190995	6015	0	0	-100	0	230	101300000	1000	0	0	-1	0
26203555	6021	0	0	-100	0	230	101300000	1000	0	0	-1	0
26216115	6022	0	0	-100	0	230	101300000	1000	0	0	-1	0
26228675	6015	0	0	-100	0	230	101300000	1000	0	0	-1	0
26241235	6013	2	0	-100	0	230	101300000	1000	0	0	-1	0
26253795	6022	0	0	-100	0	230	101300000	1000	0	0	-1	0
26266355	6021	0	0	-100	0	230	101300000	1000	0	0	-1	0
26278915	6009	0	0	-100	0	230	101300000	1000	0	0	-1	0
26291475	6013	1	0	-100	0	230	101300000	1000	0	0	-1	0
26304035	6025	0	0	-100	0	230	101300000	1000	0	0	-1	0
26316595	6017	0	0	-100	0	230	101300000	1000	0	0	-1	0
26329155	6019	1	0	-100	0	230	101300000	1000	0	0	-1	0
26341715	6017	0	0	-100	0	230	101300000	1000	0	0	-1	0
26354275	6018	0	0	-100	0	230	101300000	1000	0	0	-1	0
26366835	6020	0	0	-100	0	230	101300000	1000	0	0	-1	0
26379395	6009	0	0	-100	0	230	101300000	1000	0	0	-1	0
26391955	6013	2	0	-100	0	230	101300000	1000	0	0	-1	0
26404515	6013	0	0	-100	0	230	101300000	1000	0	0	-1	0
26417075	6019	0	0	-100	0	230	101300000	1000	0	0	-1	0
26429635	6015	0	0	-100	0	230	101300000	1000	0	0	-1	0
26442195	6012	0	0	-100	0	230	101300000	1000	0	0	-1	0
26454755	6015	3	0	-100	0	230	101300000	1000	0	0	-1	0
26467315	6024	0	0	-100	0	230	101300000	1000	0	0	-1	0
26479875	6020	0	0	-100	0	230	101300000	1000	0	0	-1	0
26492435	6012	0	0	-100	0	230	101300000	1000	0	0	-1	0
26504995	6019	0	0	-100	0	230	101300000	1000	0	0	-1	0
26517555	6022	0	0	-100	0	230	101300000	1000	0	0	-1	0
26530115	6013	0	0	-100	0	230	101300000	1000	0	0	-1	0
26542675	6016	2	0	-100	0	230	101300000	1000	0	0	-1	0
26555235	6016	0	0	-100	0	230	101300000	1000	0	0	-1	0
26567795	6016	0	0	-100	0	230	101300000	1000	0	0	-1	0
26580355	6013	0	0	-100	0	230	101300000	1000	0	0	-1	0
26592915	6013	2	0	-100	0	230	101300000	1000	0	0	-1	0
26605475	6022	0	0	-100	0	230	101300000	1000	0	0	-1	0
26618035	6020	0	0	-100	0	230	101300000	1000	0	0	-1	0
26630595	6009	0	0	-100	0	230	101300000	1000	0	0	-1	0
26643155	6015	2	0	-100	0	230	101300000	1000	0	0	-1	0
26655715	6021	0	0	-100	0	230	101300000	1000	0	0	-1	0
26668275	6015	0	0	-100	0	230	101300000	1000	0	0	-1	0
26680835	6016	1	0	-100	0	230	101300000	1000	0	0	-1	0
26693395	6023	0	0	-100	0	230	101300000	1000	0	0	-1	0
26705955	6016	0	0	-100	0	230	101300000	1000	0	0	-1	0
26718515	6015	2	0	-100	0	230	101300000	1000	0	0	-1	0
26731075	6017	0	0	-100	0	230	101300000	1000	0	0	-1	0
26743635	6013	0	0	-100	0	230	101300000	1000	0	0	-1	0
26756195	6012	1	0	-100	0	230	101300000	1000	0	0	-1	0
26768755	6017	0	0	-100	0	230	101300000	1000	0	0	-1	0
26781315	6019	0	0	-100	0	230	101300000	1000	0	0	-1	0
26793875	6013	3	0	-100	0	230	101300000	1000	0	0	-1	0
26806435	6023	0	0	-100	0	230	101300000	1000	0	0	-1	0
26818995	6010	0	0	-100	0	230	101300000	1000	0	0	-1	0
26831555	6022	0	0	-100	0	230	101300000	1000	0	0	-1	0
26844115	6011	0	0	-100	0	230	101300000	1000	0	0	-1	0
26856675	6021	0	0	-100	0	230	101300000	1000	0	0	-1	0
26869235	6012	0	0	-100	0	230	101300000	1000	0	0	-1	0
26881795	6016	0	0	-100	0	230	101300000	1000	0	0	-1	0
26894355	6021	0	0	-100	0	230	101300000	1000	0	0	-1	0
26906915	6013	3	0	-100	0	230	101300000	1000	0	0	-1	0
26919475	6017	0	0	-100	0	230	101300000	1000	0	0	-1	0
26932035	6009	0	0	-100	0	230	101300000	1000	0	0	-1	0
26944595	6021	0	0	-100	0	230	101300000	1000	0	0	-1	0
26957155	6014	0	0	-100	0	230	101300000	1000	0	0	-1	0
26969715	6013	1	0	-100	0	230	101300000	1000	0	0	-1	0
26982275	6022	0	0	-100	0	230	101300000	1000	0	0	-1	0
26994835	6015	0	0	-100	0	230	101300000	1000	0	0	-1	0
27007395	6013	0	0	-100	0	230	101300000	1000	0	0	-1	0
27019955	6022	0	0	-100	0	230	101300000	1000	0	0	-1	0
27032515	6013	0	0	-100	0	230	101300000	1000	0	0	-1	0
27045075	6014	3	0	-100	0	230	101300000	1000	0	0	-1	0
