timestamp	voltage	current	windSpeed	pitchAngle	rpm	temperature	ambientPressure	humidity	accelerationX	accelerationY	accelerationZ	currentSink
7035070	6521	0	0	-100	0	230	101300000	1000	0	0	-1	0
7042523	6511	2	0	-100	0	230	101300000	1000	0	0	-1	0
7055083	6510	3	0	-100	0	230	101300000	1000	0	0	-1	0
7067643	6513	0	0	-100	0	230	101300000	1000	0	0	-1	0
7080203	6511	0	0	-100	0	230	101300000	1000	0	0	-1	0
7092763	6508	0	0	-100	0	230	101300000	1000	0	0	-1	0
7105323	6510	4	0	-100	0	230	101300000	1000	0	0	-1	0
7117883	6516	0	0	-100	0	230	101300000	1000	0	0	-1	0
7130443	6506	0	0	-100	0	230	101300000	1000	0	0	-1	0
7143004	6510	0	0	-100	0	230	101300000	1000	0	0	-1	0
7155563	6514	0	0	-100	0	230	101300000	1000	0	0	-1	0
7168123	6508	0	0	-100	0	230	101300000	1000	0	0	-1	0
7180683	6509	3	0	-100	0	230	101300000	1000	0	0	-1	0
7193243	6513	0	0	-100	0	230	101300000	1000	0	0	-1	0
7205803	6513	0	0	-100	0	230	101300000	1000	0	0	-1	0
7218363	6507	0	0	-100	0	230	101300000	1000	0	0	-1	0
7230923	6508	3	0	-100	0	230	101300000	1000	0	0	-1	0
7243483	6512	0	0	-100	0	230	101300000	1000	0	0	-1	0
7256043	6515	0	0	-100	0	230	101300000	1000	0	0	-1	0
7268603	6511	0	0	-100	0	230	101300000	1000	0	0	-1	0
7281163	6519	1	0	-100	0	230	101300000	1000	0	0	-1	0
7293723	6506	2	0	-100	0	230	101300000	1000	0	0	-1	0
7306283	6517	0	0	-100	0	230	101300000	1000	0	0	-1	0
7318843	6513	0	0	-100	0	230	101300000	1000	0	0	-1	0
7331403	6507	0	0	-100	0	230	101300000	1000	0	0	-1	0
7343963	6509	3	0	-100	0	230	101300000	1000	0	0	-1	0
7687115	6502	0	0	-100	0	230	101300000	1000	0	0	-1	0
7699675	6511	3	0	-100	0	230	101300000	1000	0	0	-1	0
7712235	6510	5	0	-100	0	230	101300000	1000	0	0	-1	0
7724795	6510	3	0	-100	0	230	101300000	1000	0	0	-1	0
7737355	6510	4	0	-100	0	230	101300000	1000	0	0	-1	0
7749915	6506	1	0	-100	0	230	101300000	1000	0	0	-1	0
7762475	6517	0	0	-100	0	230	101300000	1000	0	0	-1	0
7775035	6512	0	0	-100	0	230	101300000	1000	0	0	-1	0
7787595	6511	0	0	-100	0	230	101300000	1000	0	0	-1	0
7800155	6520	0	0	-100	0	230	101300000	1000	0	0	-1	0
7812715	6505	0	0	-100	0	230	101300000	1000	0	0	-1	0
7825275	6512	3	0	-100	0	230	101300000	1000	0	0	-1	0
7837835	6517	0	0	-100	0	230	101300000	1000	0	0	-1	0
7850395	6511	0	0	-100	0	230	101300000	1000	0	0	-1	0
7862955	6510	0	0	-100	0	230	101300000	1000	0	0	-1	0
7875515	6506	0	0	-100	0	230	101300000	1000	0	0	-1	0
7888075	6506	3	0	-100	0	230	101300000	1000	0	0	-1	0
7900635	6510	0	0	-100	0	230	101300000	1000	0	0	-1	0
7913195	6517	0	0	-100	0	230	101300000	1000	0	0	-1	0
7925755	6514	0	0	-100	0	230	101300000	1000	0	0	-1	0
7938315	6509	0	0	-100	0	230	101300000	1000	0	0	-1	0
7950875	6508	0	0	-100	0	230	101300000	1000	0	0	-1	0
7963435	6510	0	0	-100	0	230	101300000	1000	0	0	-1	0
7975995	6508	0	0	-100	0	230	101300000	1000	0	0	-1	0
7988555	6513	0	0	-100	0	230	101300000	1000	0	0	-1	0
8001115	6514	0	0	-100	0	230	101300000	1000	0	0	-1	0
8013675	6511	0	0	-100	0	230	101300000	1000	0	0	-1	0
8026235	6507	0	0	-100	0	230	101300000	1000	0	0	-1	0
8038795	6509	3	0	-100	0	230	101300000	1000	0	0	-1	0
8051355	6514	0	0	-100	0	230	101300000	1000	0	0	-1	0
8063915	6508	0	0	-100	0	230	101300000	1000	0	0	-1	0
8076475	6508	4	0	-100	0	230	101300000	1000	0	0	-1	0
8089035	6514	0	0	-100	0	230	101300000	1000	0	0	-1	0
8101595	6513	0	0	-100	0	230	101300000	1000	0	0	-1	0
8114155	6514	0	0	-100	0	230	101300000	1000	0	0	-1	0
8126715	6504	2	0	-100	0	230	101300000	1000	0	0	-1	0
8139275	6514	0	0	-100	0	230	101300000	1000	0	0	-1	0
8151835	6508	0	0	-100	0	230	101300000	1000	0	0	-1	0
8164395	6510	3	0	-100	0	230	101300000	1000	0	0	-1	0
8176955	6517	0	0	-100	0	230	101300000	1000	0	0	-1	0
8189515	6509	0	0	-100	0	230	101300000	1000	0	0	-1	0
8202075	6514	4	0	-100	0	230	101300000	1000	0	0	-1	0
8214635	6506	1	0	-100	0	230	101300000	1000	0	0	-1	0
8227195	6510	0	0	-100	0	230	101300000	1000	0	0	-1	0
8239755	6510	0	0	-100	0	230	101300000	1000	0	0	-1	0
8252315	6509	4	0	-100	0	230	101300000	1000	0	0	-1	0
8264875	6517	0	0	-100	0	230	101300000	1000	0	0	-1	0
8277435	6509	0	0	-100	0	230	101300000	1000	0	0	-1	0
8289995	6512	0	0	-100	0	230	101300000	1000	0	0	-1	0
8302555	6514	0	0	-100	0	230	101300000	1000	0	0	-1	0
8315115	6508	0	0	-100	0	230	101300000	1000	0	0	-1	0
8327675	6510	0	0	-100	0	230	101300000	1000	0	0	-1	0
8340235	6517	0	0	-100	0	230	101300000	1000	0	0	-1	0
8352795	6506	0	0	-100	0	230	101300000	1000	0	0	-1	0
8365355	6508	0	0	-100	0	230	101300000	1000	0	0	-1	0
8377915	6511	0	0	-100	0	230	101300000	1000	0	0	-1	0
8390475	6507	1	0	-100	0	230	101300000	1000	0	0	-1	0
8403035	6509	1	0	-100	0	230	101300000	1000	0	0	-1	0
8415595	6517	0	0	-100	0	230	101300000	1000	0	0	-1	0
8428155	6520	0	0	-100	0	230	101300000	1000	0	0	-1	0
8440715	6510	0	0	-100	0	230	101300000	1000	0	0	-1	0
8453275	6508	1	0	-100	0	230	101300000	1000	0	0	-1	0
8465835	6506	2	0	-100	0	230	101300000	1000	0	0	-1	0
8478395	6514	0	0	-100	0	230	101300000	1000	0	0	-1	0
8490955	6509	0	0	-100	0	230	101300000	1000	0	0	-1	0
8503515	6506	0	0	-100	0	230	101300000	1000	0	0	-1	0
8516075	6512	4	0	-100	0	230	101300000	1000	0	0	-1	0
8528635	6508	1	0	-100	0	230	101300000	1000	0	0	-1	0
8541195	6516	0	0	-100	0	230	101300000	1000	0	0	-1	0
8553755	6515	0	0	-100	0	230	101300000	1000	0	0	-1	0
8566315	6510	0	0	-100	0	230	101300000	1000	0	0	-1	0
8578875	6505	0	0	-100	0	230	101300000	1000	0	0	-1	0
8591435	6512	3	0	-100	0	230	101300000	1000	0	0	-1	0
8603995	6507	0	0	-100	0	230	101300000	1000	0	0	-1	0
8616555	6516	0	0	-100	0	230	101300000	1000	0	0	-1	0
8629115	6511	0	0	-100	0	230	101300000	1000	0	0	-1	0
8641675	6506	0	0	-100	0	230	101300000	1000	0	0	-1	0
8654235	6507	3	0	-100	0	230	101300000	1000	0	0	-1	0
8666795	6515	0	0	-100	0	230	101300000	1000	0	0	-1	0
8679355	6511	0	0	-100	0	230	101300000	1000	0	0	-1	0
8691915	6506	0	0	-100	0	230	101300000	1000	0	0	-1	0
8704475	6506	0	0	-100	0	230	101300000	1000	0	0	-1	0
8717035	6513	3	0	-100	0	230	101300000	1000	0	0	-1	0
8729595	6510	4	0	-100	0	230	101300000	1000	0	0	-1	0
8742155	6520	4	0	-100	0	230	101300000	1000	0	0	-1	0
8754715	6506	4	0	-100	0	230	101300000	1000	0	0	-1	0
8767275	6510	0	0	-100	0	230	101300000	1000	0	0	-1	0
8779835	6513	0	0	-100	0	230	101300000	1000	0	0	-1	0
8792395	6510	0	0	-100	0	230	101300000	1000	0	0	-1	0
8804955	6509	0	0	-100	0	230	101300000	1000	0	0	-1	0
8817515	6512	4	0	-100	0	230	101300000	1000	0	0	-1	0
8830075	6504	4	0	-100	0	230	101300000	1000	0	0	-1	0
8842635	6509	2	0	-100	0	230	101300000	1000	0	0	-1	0
8855195	6512	1	0	-100	0	230	101300000	1000	0	0	-1	0
8867755	6508	1	0	-100	0	230	101300000	1000	0	0	-1	0
8880315	6514	0	0	-100	0	230	101300000	1000	0	0	-1	0
8892875	6510	0	0	-100	0	230	101300000	1000	0	0	-1	0
8905435	6511	0	0	-100	0	230	101300000	1000	0	0	-1	0
8917995	6511	0	0	-100	0	230	101300000	1000	0	0	-1	0
8930555	6505	0	0	-100	0	230	101300000	1000	0	0	-1	0
8943115	6507	0	0	-100	0	230	101300000	1000	0	0	-1	0
8955675	6512	4	0	-100	0	230	101300000	1000	0	0	-1	0
8968235	6508	0	0	-100	0	230	101300000	1000	0	0	-1	0
8980795	6516	0	0	-100	0	230	101300000	1000	0	0	-1	0
8993355	6513	0	0	-100	0	230	101300000	1000	0	0	-1	0
9005915	6510	1	0	-100	0	230	101300000	1000	0	0	-1	0
9018475	6506	3	0	-100	0	230	101300000	1000	0	0	-1	0
9031035	6510	1	0	-100	0	230	101300000	1000	0	0	-1	0
9043595	6513	0	0	-100	0	230	101300000	1000	0	0	-1	0
9056155	6518	0	0	-100	0	230	101300000	1000	0	0	-1	0
9068715	6507	0	0	-100	0	230	101300000	1000	0	0	-1	0
9081275	6507	2	0	-100	0	230	101300000	1000	0	0	-1	0
9093835	6506	1	0	-100	0	230	101300000	1000	0	0	-1	0
9106395	6513	0	0	-100	0	230	101300000	1000	0	0	-1	0
9118955	6510	0	0	-100	0	230	101300000	1000	0	0	-1	0
9131515	6510	4	0	-100	0	230	101300000	1000	0	0	-1	0
9144075	6514	0	0	-100	0	230	101300000	1000	0	0	-1	0
9156635	6516	0	0	-100	0	230	101300000	1000	0	0	-1	0
9169195	6510	0	0	-100	0	230	101300000	1000	0	0	-1	0
9181755	6512	1	0	-100	0	230	101300000	1000	0	0	-1	0
9194315	6513	0	0	-100	0	230	101300000	1000	0	0	-1	0
9206875	6506	0	0	-100	0	230	101300000	1000	0	0	-1	0
9219435	6508	2	0	-100	0	230	101300000	1000	0	0	-1	0
9231995	6514	3	0	-100	0	230	101300000	1000	0	0	-1	0
9244555	6513	0	0	-100	0	230	101300000	1000	0	0	-1	0
9257115	6506	0	0	-100	0	230	101300000	1000	0	0	-1	0
9269675	6508	3	0	-100	0	230	101300000	1000	0	0	-1	0
9282235	6507	0	0	-100	0	230	101300000	1000	0	0	-1	0
9294795	6520	0	0	-100	0	230	101300000	1000	0	0	-1	0
9307355	6506	0	0	-100	0	230	101300000	1000	0	0	-1	0
9319915	6508	3	0	-100	0	230	101300000	1000	0	0	-1	0
9332475	6512	0	0	-100	0	230	101300000	1000	0	0	-1	0
9345035	6504	0	0	-100	0	230	101300000	1000	0	0	-1	0
9357595	6508	2	0	-100	0	230	101300000	1000	0	0	-1	0
9370155	6522	0	0	-100	0	230	101300000	1000	0	0	-1	0
9382715	6506	0	0	-100	0	230	101300000	1000	0	0	-1	0
9395275	6513	0	0	-100	0	230	101300000	1000	0	0	-1	0
9407835	6510	0	0	-100	0	230	101300000	1000	0	0	-1	0
9420395	6505	0	0	-100	0	230	101300000	1000	0	0	-1	0
9432955	6507	2	0	-100	0	230	101300000	1000	0	0	-1	0
9445515	6515	0	0	-100	0	230	101300000	1000	0	0	-1	0
9458075	6516	0	0	-100	0	230	101300000	1000	0	0	-1	0
9470635	6504	0	0	-100	0	230	101300000	1000	0	0	-1	0
9483195	6508	4	0	-100	0	230	101300000	1000	0	0	-1	0
9495755	6510	0	0	-100	0	230	101300000	1000	0	0	-1	0
9508315	6513	0	0	-100	0	230	101300000	1000	0	0	-1	0
9520875	6511	0	0	-100	0	230	101300000	1000	0	0	-1	0
9533435	6509	0	0	-100	0	230	101300000	1000	0	0	-1	0
9545995	6506	0	0	-100	0	230	101300000	1000	0	0	-1	0
9558555	6513	4	0	-100	0	230	101300000	1000	0	0	-1	0
9571115	6508	3	0	-100	0	230	101300000	1000	0	0	-1	0
9583675	6512	1	0	-100	0	230	101300000	1000	0	0	-1	0
9596235	6516	0	0	-100	0	230	101300000	1000	0	0	-1	0
9608795	6507	0	0	-100	0	230	101300000	1000	0	0	-1	0
9621355	6505	0	0	-100	0	230	101300000	1000	0	0	-1	0
9633915	6510	4	0	-100	0	230	101300000	1000	0	0	-1	0
9646475	6508	4	0	-100	0	230	101300000	1000	0	0	-1	0
9659035	6508	4	0	-100	0	230	101300000	1000	0	0	-1	0
9671595	6508	4	0	-100	0	230	101300000	1000	0	0	-1	0
9684155	6517	0	0	-100	0	230	101300000	1000	0	0	-1	0
9696715	6514	0	0	-100	0	230	101300000	1000	0	0	-1	0
9709275	6510	0	0	-100	0	230	101300000	1000	0	0	-1	0
9721835	6509	0	0	-100	0	230	101300000	1000	0	0	-1	0
9734395	6508	0	0	-100	0	230	101300000	1000	0	0	-1	0
9746955	6514	1	0	-100	0	230	101300000	1000	0	0	-1	0
9759515	6509	3	0	-100	0	230	101300000	1000	0	0	-1	0
9772075	6513	0	0	-100	0	230	101300000	1000	0	0	-1	0
9784635	6517	0	0	-100	0	230	101300000	1000	0	0	-1	0
9797195	6511	0	0	-100	0	230	101300000	1000	0	0	-1	0
9809755	6507	0	0	-100	0	230	101300000	1000	0	0	-1	0
9822315	6508	0	0	-100	0	230	101300000	1000	0	0	-1	0
9834875	6513	2	0	-100	0	230	101300000	1000	0	0	-1	0
9847435	6508	4	0	-100	0	230	101300000	1000	0	0	-1	0
9859995	6512	0	0	-100	0	230	101300000	1000	0	0	-1	0
9872555	6506	3	0	-100	0	230	101300000	1000	0	0	-1	0
9885115	6504	1	0	-100	0	230	101300000	1000	0	0	-1	0
9897675	6516	0	0	-100	0	230	101300000	1000	0	0	-1	0
9910235	6516	0	0	-100	0	230	101300000	1000	0	0	-1	0
9922795	6513	0	0	-100	0	230	101300000	1000	0	0	-1	0
9935355	6511	0	0	-100	0	230	101300000	1000	0	0	-1	0
9947915	6510	0	0	-100	0	230	101300000	1000	0	0	-1	0
9960475	6507	0	0	-100	0	230	101300000	1000	0	0	-1	0
9973035	6511	3	0	-100	0	230	101300000	1000	0	0	-1	0
9985595	6506	4	0	-100	0	230	101300000	1000	0	0	-1	0
9998155	6516	0	0	-100	0	230	101300000	1000	0	0	-1	0
10010715	6514	0	0	-100	0	230	101300000	1000	0	0	-1	0
10023275	6510	0	0	-100	0	230	101300000	1000	0	0	-1	0
10035835	6508	0	0	-100	0	230	101300000	1000	0	0	-1	0
10048395	6510	4	0	-100	0	230	101300000	1000	0	0	-1	0
10060955	6506	1	0	-100	0	230	101300000	1000	0	0	-1	0
10073515	6512	1	0	-100	0	230	101300000	1000	0	0	-1	0
10086075	6508	1	0	-100	0	230	101300000	1000	0	0	-1	0
10098635	6517	0	0	-100	0	230	101300000	1000	0	0	-1	0
10111195	6515	0	0	-100	0	230	101300000	1000	0	0	-1	0
10123755	6510	0	0	-100	0	230	101300000	1000	0	0	-1	0
10136315	6511	0	0	-100	0	230	101300000	1000	0	0	-1	0
10148875	6507	0	0	-100	0	230	101300000	1000	0	0	-1	0
10161435	6508	0	0	-100	0	230	101300000	1000	0	0	-1	0
10173995	6508	0	0	-100	0	230	101300000	1000	0	0	-1	0
10186555	6517	0	0	-100	0	230	101300000	1000	0	0	-1	0
10199115	6512	0	0	-100	0	230	101300000	1000	0	0	-1	0
10211675	6508	0	0	-100	0	230	101300000	1000	0	0	-1	0
10224235	6512	4	0	-100	0	230	101300000	1000	0	0	-1	0
10236795	6512	0	0	-100	0	230	101300000	1000	0	0	-1	0
10249355	6515	0	0	-100	0	230	101300000	1000	0	0	-1	0
10261915	6518	0	0	-100	0	230	101300000	1000	0	0	-1	0
10274475	6513	0	0	-100	0	230	101300000	1000	0	0	-1	0
10287035	6508	0	0	-100	0	230	101300000	1000	0	0	-1	0
10299595	6511	3	0	-100	0	230	101300000	1000	0	0	-1	0
10312155	6519	0	0	-100	0	230	101300000	1000	0	0	-1	0
10324715	6513	0	0	-100	0	230	101300000	1000	0	0	-1	0
10337275	6513	0	0	-100	0	230	101300000	1000	0	0	-1	0
10349835	6508	0	0	-100	0	230	101300000	1000	0	0	-1	0
10362395	6506	0	0	-100	0	230	101300000	1000	0	0	-1	0
10374955	6505	0	0	-100	0	230	101300000	1000	0	0	-1	0
10387515	6508	4	0	-100	0	230	101300000	1000	0	0	-1	0
10400075	6510	4	0	-100	0	230	101300000	1000	0	0	-1	0
10412635	6514	0	0	-100	0	230	101300000	1000	0	0	-1	0
10425195	6516	0	0	-100	0	230	101300000	1000	0	0	-1	0
10437755	6518	0	0	-100	0	230	101300000	1000	0	0	-1	0
10450315	6517	0	0	-100	0	230	101300000	1000	0	0	-1	0
10462875	6513	0	0	-100	0	230	101300000	1000	0	0	-1	0
10475435	6511	0	0	-100	0	230	101300000	1000	0	0	-1	0
10487995	6509	0	0	-100	0	230	101300000	1000	0	0	-1	0
10500555	6509	0	0	-100	0	230	101300000	1000	0	0	-1	0
10513115	6510	0	0	-100	0	230	101300000	1000	0	0	-1	0
10525675	6501	0	0	-100	0	230	101300000	1000	0	0	-1	0
10538235	6509	4	0	-100	0	230	101300000	1000	0	0	-1	0
10550795	6510	0	0	-100	0	230	101300000	1000	0	0	-1	0
10563355	6517	0	0	-100	0	230	101300000	1000	0	0	-1	0
10575915	6511	0	0	-100	0	230	101300000	1000	0	0	-1	0
10588475	6509	3	0	-100	0	230	101300000	1000	0	0	-1	0
10601035	6510	0	0	-100	0	230	101300000	1000	0	0	-1	0
10613595	6513	0	0	-100	0	230	101300000	1000	0	0	-1	0
10626155	6513	0	0	-100	0	230	101300000	1000	0	0	-1	0
10638715	6511	0	0	-100	0	230	101300000	1000	0	0	-1	0
10651275	6511	0	0	-100	0	230	101300000	1000	0	0	-1	0
10663835	6510	4	0	-100	0	230	101300000	1000	0	0	-1	0
10676395	6507	2	0	-100	0	230	101300000	1000	0	0	-1	0
10688955	6513	0	0	-100	0	230	101300000	1000	0	0	-1	0
10701515	6508	0	0	-100	0	230	101300000	1000	0	0	-1	0
10714075	6508	4	0	-100	0	230	101300000	1000	0	0	-1	0
10726635	6513	0	0	-100	0	230	101300000	1000	0	0	-1	0
10739195	6514	0	0	-100	0	230	101300000	1000	0	0	-1	0
10751755	6506	0	0	-100	0	230	101300000	1000	0	0	-1	0
10764315	6510	4	0	-100	0	230	101300000	1000	0	0	-1	0
10776875	6512	2	0	-100	0	230	101300000	1000	0	0	-1	0
10789435	6511	0	0	-100	0	230	101300000	1000	0	0	-1	0
10801995	6513	1	0	-100	0	230	101300000	1000	0	0	-1	0
10814555	6505	0	0	-100	0	230	101300000	1000	0	0	-1	0
10827115	6508	4	0	-100	0	230	101300000	1000	0	0	-1	0
10839675	6513	1	0	-100	0	230	101300000	1000	0	0	-1	0
10852235	6516	0	0	-100	0	230	101300000	1000	0	0	-1	0
10864795	6509	0	0	-100	0	230	101300000	1000	0	0	-1	0
10877355	6507	0	0	-100	0	230	101300000	1000	0	0	-1	0
10889915	6508	5	0	-100	0	230	101300000	1000	0	0	-1	0
10902475	6508	3	0	-100	0	230	101300000	1000	0	0	-1	0
10915035	6510	0	0	-100	0	230	101300000	1000	0	0	-1	0
10927595	6511	0	0	-100	0	230	101300000	1000	0	0	-1	0
10940155	6513	0	0	-100	0	230	101300000	1000	0	0	-1	0
10952715	6510	4	0	-100	0	230	101300000	1000	0	0	-1	0
10965275	6512	0	0	-100	0	230	101300000	1000	0	0	-1	0
10977835	6512	0	0	-100	0	230	101300000	1000	0	0	-1	0
10990395	6509	0	0	-100	0	230	101300000	1000	0	0	-1	0
11002955	6508	0	0	-100	0	230	101300000	1000	0	0	-1	0
11015515	6517	3	0	-100	0	230	101300000	1000	0	0	-1	0
11028075	6508	2	0	-100	0	230	101300000	1000	0	0	-1	0
11040635	6513	2	0	-100	0	230	101300000	1000	0	0	-1	0
11053195	6516	0	0	-100	0	230	101300000	1000	0	0	-1	0
11065755	6515	0	0	-100	0	230	101300000	1000	0	0	-1	0
11078315	6513	0	0	-100	0	230	101300000	1000	0	0	-1	0
11090875	6507	0	0	-100	0	230	101300000	1000	0	0	-1	0
11103435	6507	5	0	-100	0	230	101300000	1000	0	0	-1	0
11115995	6507	0	0	-100	0	230	101300000	1000	0	0	-1	0
11128555	6512	0	0	-100	0	230	101300000	1000	0	0	-1	0
11141115	6511	0	0	-100	0	230	101300000	1000	0	0	-1	0
11153675	6511	0	0	-100	0	230	101300000	1000	0	0	-1	0
11166235	6506	0	0	-100	0	230	101300000	1000	0	0	-1	0
11178795	6511	4	0	-100	0	230	101300000	1000	0	0	-1	0
11191355	6506	4	0	-100	0	230	101300000	1000	0	0	-1	0
11203915	6513	0	0	-100	0	230	101300000	1000	0	0	-1	0
11216475	6516	0	0	-100	0	230	101300000	1000	0	0	-1	0
11229035	6511	0	0	-100	0	230	101300000	1000	0	0	-1	0
11241595	6516	0	0	-100	0	230	101300000	1000	0	0	-1	0
11254155	6522	0	0	-100	0	230	101300000	1000	0	0	-1	0
11266715	6509	0	0	-100	0	230	101300000	1000	0	0	-1	0
11279275	6505	0	0	-100	0	230	101300000	1000	0	0	-1	0
11291835	6505	0	0	-100	0	230	101300000	1000	0	0	-1	0
11304395	6511	4	0	-100	0	230	101300000	1000	0	0	-1	0
11316955	6510	3	0	-100	0	230	101300000	1000	0	0	-1	0
11329515	6504	3	0	-100	0	230	101300000	1000	0	0	-1	0
11342075	6509	1	0	-100	0	230	101300000	1000	0	0	-1	0
11354635	6512	0	0	-100	0	230	101300000	1000	0	0	-1	0
11367195	6508	0	0	-100	0	230	101300000	1000	0	0	-1	0
11379755	6517	0	0	-100	0	230	101300000	1000	0	0	-1	0
11392315	6514	0	0	-100	0	230	101300000	1000	0	0	-1	0
11404875	6512	0	0	-100	0	230	101300000	1000	0	0	-1	0
11417435	6513	0	0	-100	0	230	101300000	1000	0	0	-1	0
11429995	6516	1	0	-100	0	230	101300000	1000	0	0	-1	0
11442555	6510	0	0	-100	0	230	101300000	1000	0	0	-1	0
11455115	6511	0	0	-100	0	230	101300000	1000	0	0	-1	0
11467675	6511	0	0	-100	0	230	101300000	1000	0	0	-1	0
11480235	6511	0	0	-100	0	230	101300000	1000	0	0	-1	0
11492795	6513	0	0	-100	0	230	101300000	1000	0	0	-1	0
11505355	6507	0	0	-100	0	230	101300000	1000	0	0	-1	0
11517915	6503	0	0	-100	0	230	101300000	1000	0	0	-1	0
11530475	6508	3	0	-100	0	230	101300000	1000	0	0	-1	0
11543035	6511	0	0	-100	0	230	101300000	1000	0	0	-1	0
11555595	6516	0	0	-100	0	230	101300000	1000	0	0	-1	0
11568155	6519	0	0	-100	0	230	101300000	1000	0	0	-1	0
11580715	6510	0	0	-100	0	230	101300000	1000	0	0	-1	0
11593275	6513	4	0	-100	0	230	101300000	1000	0	0	-1	0
11605835	6502	2	0	-100	0	230	101300000	1000	0	0	-1	0
11618395	6517	0	0	-100	0	230	101300000	1000	0	0	-1	0
11630955	6514	0	0	-100	0	230	101300000	1000	0	0	-1	0
11643515	6509	0	0	-100	0	230	101300000	1000	0	0	-1	0
11656075	6508	0	0	-100	0	230	101300000	1000	0	0	-1	0
11668635	6508	4	0	-100	0	230	101300000	1000	0	0	-1	0
11681195	6504	3	0	-100	0	230	101300000	1000	0	0	-1	0
11693755	6517	0	0	-100	0	230	101300000	1000	0	0	-1	0
11706315	6513	0	0	-100	0	230	101300000	1000	0	0	-1	0
11718875	6516	0	0	-100	0	230	101300000	1000	0	0	-1	0
11731435	6508	0	0	-100	0	230	101300000	1000	0	0	-1	0
11743995	6513	0	0	-100	0	230	101300000	1000	0	0	-1	0
11756555	6511	0	0	-100	0	230	101300000	1000	0	0	-1	0
11769115	6510	4	0	-100	0	230	101300000	1000	0	0	-1	0
11781675	6508	3	0	-100	0	230	101300000	1000	0	0	-1	0
11794235	6508	1	0	-100	0	230	101300000	1000	0	0	-1	0
11806795	6507	1	0	-100	0	230	101300000	1000	0	0	-1	0
11819355	6514	0	0	-100	0	230	101300000	1000	0	0	-1	0
11831915	6511	0	0	-100	0	230	101300000	1000	0	0	-1	0
11844475	6511	0	0	-100	0	230	101300000	1000	0	0	-1	0
11857035	6515	0	0	-100	0	230	101300000	1000	0	0	-1	0
11869595	6511	0	0	-100	0	230	101300000	1000	0	0	-1	0
11882155	6515	0	0	-100	0	230	101300000	1000	0	0	-1	0
11894715	6508	0	0	-100	0	230	101300000	1000	0	0	-1	0
11907275	6507	0	0	-100	0	230	101300000	1000	0	0	-1	0
11919835	6508	0	0	-100	0	230	101300000	1000	0	0	-1	0
11932395	6505	0	0	-100	0	230	101300000	1000	0	0	-1	0
11944955	6512	4	0	-100	0	230	101300000	1000	0	0	-1	0
11957515	6519	0	0	-100	0	230	101300000	1000	0	0	-1	0
11970075	6507	0	0	-100	0	230	101300000	1000	0	0	-1	0
11982635	6506	0	0	-100	0	230	101300000	1000	0	0	-1	0
11995195	6507	4	0	-100	0	230	101300000	1000	0	0	-1	0
12007755	6514	0	0	-100	0	230	101300000	1000	0	0	-1	0
12020315	6511	0	0	-100	0	230	101300000	1000	0	0	-1	0
12032875	6507	0	0	-100	0	230	101300000	1000	0	0	-1	0
12045435	6508	1	0	-100	0	230	101300000	1000	0	0	-1	0
12057995	6513	2	0	-100	0	230	101300000	1000	0	0	-1	0
12070555	6513	0	0	-100	0	230	101300000	1000	0	0	-1	0
12083115	6505	0	0	-100	0	230	101300000	1000	0	0	-1	0
12095675	6510	0	0	-100	0	230	101300000	1000	0	0	-1	0
12108235	6510	0	0	-100	0	230	101300000	1000	0	0	-1	0
12120795	6507	0	0	-100	0	230	101300000	1000	0	0	-1	0
12133355	6512	3	0	-100	0	230	101300000	1000	0	0	-1	0
12145915	6516	0	0	-100	0	230	101300000	1000	0	0	-1	0
12158475	6511	0	0	-100	0	230	101300000	1000	0	0	-1	0
12171035	6507	4	0	-100	0	230	101300000	1000	0	0	-1	0
12183595	6515	0	0	-100	0	230	101300000	1000	0	0	-1	0
12196155	6522	0	0	-100	0	230	101300000	1000	0	0	-1	0
12208715	6502	0	0	-100	0	230	101300000	1000	0	0	-1	0
12221275	6504	1	0	-100	0	230	101300000	1000	0	0	-1	0
12233835	6512	0	0	-100	0	230	101300000	1000	0	0	-1	0
12246395	6505	0	0	-100	0	230	101300000	1000	0	0	-1	0
12258955	6509	2	0	-100	0	230	101300000	1000	0	0	-1	0
12271515	6516	0	0	-100	0	230	101300000	1000	0	0	-1	0
12284075	6508	0	0	-100	0	230	101300000	1000	0	0	-1	0
12296635	6510	4	0	-100	0	230	101300000	1000	0	0	-1	0
12309195	6506	1	0	-100	0	230	101300000	1000	0	0	-1	0
12321755	6517	0	0	-100	0	230	101300000	1000	0	0	-1	0
12334315	6514	0	0	-100	0	230	101300000	1000	0	0	-1	0
12346875	6508	0	0	-100	0	230	101300000	1000	0	0	-1	0
12359435	6510	4	0	-100	0	230	101300000	1000	0	0	-1	0
12371995	6513	4	0	-100	0	230	101300000	1000	0	0	-1	0
12384555	6510	0	0	-100	0	230	101300000	1000	0	0	-1	0
12397115	6507	0	0	-100	0	230	101300000	1000	0	0	-1	0
12409675	6509	1	0	-100	0	230	101300000	1000	0	0	-1	0
12422235	6511	0	0	-100	0	230	101300000	1000	0	0	-1	0
12434795	6516	0	0	-100	0	230	101300000	1000	0	0	-1	0
12447355	6506	0	0	-100	0	230	101300000	1000	0	0	-1	0
12459915	6511	5	0	-100	0	230	101300000	1000	0	0	-1	0
12472475	6514	0	0	-100	0	230	101300000	1000	0	0	-1	0
12485035	6511	0	0	-100	0	230	101300000	1000	0	0	-1	0
12497595	6510	0	0	-100	0	230	101300000	1000	0	0	-1	0
12510155	6513	3	0	-100	0	230	101300000	1000	0	0	-1	0
12522715	6516	0	0	-100	0	230	101300000	1000	0	0	-1	0
12535275	6511	0	0	-100	0	230	101300000	1000	0	0	-1	0
12547835	6502	0	0	-100	0	230	101300000	1000	0	0	-1	0
12560395	6510	4	0	-100	0	230	101300000	1000	0	0	-1	0
12572955	6508	1	0	-100	0	230	101300000	1000	0	0	-1	0
12585515	6514	0	0	-100	0	230	101300000	1000	0	0	-1	0
12598075	6511	0	0	-100	0	230	101300000	1000	0	0	-1	0
12610635	6508	4	0	-100	0	230	101300000	1000	0	0	-1	0
12623195	6510	1	0	-100	0	230	101300000	1000	0	0	-1	0
12635755	6517	0	0	-100	0	230	101300000	1000	0	0	-1	0
12648315	6513	0	0	-100	0	230	101300000	1000	0	0	-1	0
12660875	6511	0	0	-100	0	230	101300000	1000	0	0	-1	0
12673435	6508	5	0	-100	0	230	101300000	1000	0	0	-1	0
12685995	6510	0	0	-100	0	230	101300000	1000	0	0	-1	0
12698555	6515	0	0	-100	0	230	101300000	1000	0	0	-1	0
12711115	6513	0	0	-100	0	230	101300000	1000	0	0	-1	0
12723675	6508	0	0	-100	0	230	101300000	1000	0	0	-1	0
12736235	6511	0	0	-100	0	230	101300000	1000	0	0	-1	0
12748795	6507	0	0	-100	0	230	101300000	1000	0	0	-1	0
12761355	6508	0	0	-100	0	230	101300000	1000	0	0	-1	0
12773915	6511	4	0	-100	0	230	101300000	1000	0	0	-1	0
12786475	6510	0	0	-100	0	230	101300000	1000	0	0	-1	0
12799035	6514	0	0	-100	0	230	101300000	1000	0	0	-1	0
12811595	6510	0	0	-100	0	230	101300000	1000	0	0	-1	0
12824155	6517	2	0	-100	0	230	101300000	1000	0	0	-1	0
12836715	6510	0	0	-100	0	230	101300000	1000	0	0	-1	0
12849275	6510	0	0	-100	0	230	101300000	1000	0	0	-1	0
12861835	6513	0	0	-100	0	230	101300000	1000	0	0	-1	0
12874395	6517	0	0	-100	0	230	101300000	1000	0	0	-1	0
12886955	6513	0	0	-100	0	230	101300000	1000	0	0	-1	0
12899515	6514	0	0	-100	0	230	101300000	1000	0	0	-1	0
12912075	6508	0	0	-100	0	230	101300000	1000	0	0	-1	0
12924635	6511	0	0	-100	0	230	101300000	1000	0	0	-1	0
12937195	6512	0	0	-100	0	230	101300000	1000	0	0	-1	0
12949755	6515	0	0	-100	0	230	101300000	1000	0	0	-1	0
12962315	6505	0	0	-100	0	230	101300000	1000	0	0	-1	0
12974875	6510	0	0	-100	0	230	101300000	1000	0	0	-1	0
12987435	6508	0	0	-100	0	230	101300000	1000	0	0	-1	0
12999995	6505	0	0	-100	0	230	101300000	1000	0	0	-1	0
13012555	6510	0	0	-100	0	230	101300000	1000	0	0	-1	0
13025115	6504	0	0	-100	0	230	101300000	1000	0	0	-1	0
13037675	6508	0	0	-100	0	230	101300000	1000	0	0	-1	0
13050235	6510	0	0	-100	0	230	101300000	1000	0	0	-1	0
13062795	6510	0	0	-100	0	230	101300000	1000	0	0	-1	0
13075355	6511	0	0	-100	0	230	101300000	1000	0	0	-1	0
13087915	6511	0	0	-100	0	230	101300000	1000	0	0	-1	0
13100475	6507	0	0	-100	0	230	101300000	1000	0	0	-1	0
13113035	6507	0	0	-100	0	230	101300000	1000	0	0	-1	0
13125595	6514	1	0	-100	0	230	101300000	1000	0	0	-1	0
13138155	6518	4	0	-100	0	230	101300000	1000	0	0	-1	0
13150715	6508	0	0	-100	0	230	101300000	1000	0	0	-1	0
13163275	6516	0	0	-100	0	230	101300000	1000	0	0	-1	0
13175835	6511	0	0	-100	0	230	101300000	1000	0	0	-1	0
13188395	6511	0	0	-100	0	230	101300000	1000	0	0	-1	0
13200955	6508	0	0	-100	0	230	101300000	1000	0	0	-1	0
13213515	6506	0	0	-100	0	230	101300000	1000	0	0	-1	0
13226075	6513	4	0	-100	0	230	101300000	1000	0	0	-1	0
13238635	6512	1	0	-100	0	230	101300000	1000	0	0	-1	0
13251195	6510	0	0	-100	0	230	101300000	1000	0	0	-1	0
13263755	6513	0	0	-100	0	230	101300000	1000	0	0	-1	0
13276315	6515	0	0	-100	0	230	101300000	1000	0	0	-1	0
13288875	6511	0	0	-100	0	230	101300000	1000	0	0	-1	0
13301435	6513	0	0	-100	0	230	101300000	1000	0	0	-1	0
13313995	6506	0	0	-100	0	230	101300000	1000	0	0	-1	0
13326555	6514	4	0	-100	0	230	101300000	1000	0	0	-1	0
13339115	6508	2	0	-100	0	230	101300000	1000	0	0	-1	0
13351675	6514	0	0	-100	0	230	101300000	1000	0	0	-1	0
13364235	6513	0	0	-100	0	230	101300000	1000	0	0	-1	0
13376795	6511	0	0	-100	0	230	101300000	1000	0	0	-1	0
13389355	6511	0	0	-100	0	230	101300000	1000	0	0	-1	0
13401915	6507	0	0	-100	0	230	101300000	1000	0	0	-1	0
13414475	6508	0	0	-100	0	230	101300000	1000	0	0	-1	0
13427035	6513	3	0	-100	0	230	101300000	1000	0	0	-1	0
13439595	6510	4	0	-100	0	230	101300000	1000	0	0	-1	0
13452155	6515	2	0	-100	0	230	101300000	1000	0	0	-1	0
13464715	6508	1	0	-100	0	230	101300000	1000	0	0	-1	0
13477275	6511	0	0	-100	0	230	101300000	1000	0	0	-1	0
13489835	6516	0	0	-100	0	230	101300000	1000	0	0	-1	0
13502395	6511	0	0	-100	0	230	101300000	1000	0	0	-1	0
13514955	6507	0	0	-100	0	230	101300000	1000	0	0	-1	0
13527515	6510	4	0	-100	0	230	101300000	1000	0	0	-1	0
13540075	6504	4	0	-100	0	230	101300000	1000	0	0	-1	0
13552635	6510	0	0	-100	0	230	101300000	1000	0	0	-1	0
13565195	6512	1	0	-100	0	230	101300000	1000	0	0	-1	0
13577755	6511	0	0	-100	0	230	101300000	1000	0	0	-1	0
13590315	6513	0	0	-100	0	230	101300000	1000	0	0	-1	0
13602875	6512	0	0	-100	0	230	101300000	1000	0	0	-1	0
13615435	6511	0	0	-100	0	230	101300000	1000	0	0	-1	0
13627995	6513	1	0	-100	0	230	101300000	1000	0	0	-1	0
13640555	6508	0	0	-100	0	230	101300000	1000	0	0	-1	0
13653115	6507	4	0	-100	0	230	101300000	1000	0	0	-1	0
13665675	6509	0	0	-100	0	230	101300000	1000	0	0	-1	0
13678235	6514	0	0	-100	0	230	101300000	1000	0	0	-1	0
13690795	6511	0	0	-100	0	230	101300000	1000	0	0	-1	0
13703355	6508	0	0	-100	0	230	101300000	1000	0	0	-1	0
13715915	6514	4	0	-100	0	230	101300000	1000	0	0	-1	0
13728475	6508	0	0	-100	0	230	101300000	1000	0	0	-1	0
13741035	6517	0	0	-100	0	230	101300000	1000	0	0	-1	0
13753595	6517	0	0	-100	0	230	101300000	1000	0	0	-1	0
13766155	6519	0	0	-100	0	230	101300000	1000	0	0	-1	0
13778715	6512	4	0	-100	0	230	101300000	1000	0	0	-1	0
13791275	6506	2	0	-100	0	230	101300000	1000	0	0	-1	0
13803835	6516	0	0	-100	0	230	101300000	1000	0	0	-1	0
13816395	6512	0	0	-100	0	230	101300000	1000	0	0	-1	0
13828955	6505	0	0	-100	0	230	101300000	1000	0	0	-1	0
13841515	6509	2	0	-100	0	230	101300000	1000	0	0	-1	0
13854075	6516	0	0	-100	0	230	101300000	1000	0	0	-1	0
13866635	6511	0	0	-100	0	230	101300000	1000	0	0	-1	0
13879195	6511	4	0	-100	0	230	101300000	1000	0	0	-1	0
13891755	6510	0	0	-100	0	230	101300000	1000	0	0	-1	0
13904315	6516	0	0	-100	0	230	101300000	1000	0	0	-1	0
13916875	6513	0	0	-100	0	230	101300000	1000	0	0	-1	0
13929435	6506	0	0	-100	0	230	101300000	1000	0	0	-1	0
13941995	6513	0	0	-100	0	230	101300000	1000	0	0	-1	0
13954555	6510	4	0	-100	0	230	101300000	1000	0	0	-1	0
13967115	6512	1	0	-100	0	230	101300000	1000	0	0	-1	0
13979675	6510	0	0	-100	0	230	101300000	1000	0	0	-1	0
13992235	6510	0	0	-100	0	230	101300000	1000	0	0	-1	0
14004795	6510	3	0	-100	0	230	101300000	1000	0	0	-1	0
14017355	6507	5	0	-100	0	230	101300000	1000	0	0	-1	0
14029915	6511	0	0	-100	0	230	101300000	1000	0	0	-1	0
14042475	6502	5	0	-100	0	230	101300000	1000	0	0	-1	0
14055035	6509	4	0	-100	0	230	101300000	1000	0	0	-1	0
14067595	6506	0	0	-100	0	230	101300000	1000	0	0	-1	0
14080155	6516	0	0	-100	0	230	101300000	1000	0	0	-1	0
14092715	6510	0	0	-100	0	230	101300000	1000	0	0	-1	0
14105275	6508	0	0	-100	0	230	101300000	1000	0	0	-1	0
14117835	6510	0	0	-100	0	230	101300000	1000	0	0	-1	0
14130395	6511	0	0	-100	0	230	101300000	1000	0	0	-1	0
14142955	6515	0	0	-100	0	230	101300000	1000	0	0	-1	0
14155515	6510	0	0	-100	0	230	101300000	1000	0	0	-1	0
14168075	6509	3	0	-100	0	230	101300000	1000	0	0	-1	0
14180635	6508	4	0	-100	0	230	101300000	1000	0	0	-1	0
14193195	6513	4	0	-100	0	230	101300000	1000	0	0	-1	0
14205755	6506	4	0	-100	0	230	101300000	1000	0	0	-1	0
14218315	6512	3	0	-100	0	230	101300000	1000	0	0	-1	0
14230875	6508	3	0	-100	0	230	101300000	1000	0	0	-1	0
14243435	6506	2	0	-100	0	230	101300000	1000	0	0	-1	0
14255995	6509	0	0	-100	0	230	101300000	1000	0	0	-1	0
14268555	6506	2	0	-100	0	230	101300000	1000	0	0	-1	0
14281115	6507	4	0	-100	0	230	101300000	1000	0	0	-1	0
14293675	6510	3	0	-100	0	230	101300000	1000	0	0	-1	0
14306235	6506	1	0	-100	0	230	101300000	1000	0	0	-1	0
14318795	6514	0	0	-100	0	230	101300000	1000	0	0	-1	0
14331355	6509	0	0	-100	0	230	101300000	1000	0	0	-1	0
14343915	6510	0	0	-100	0	230	101300000	1000	0	0	-1	0
14356475	6515	0	0	-100	0	230	101300000	1000	0	0	-1	0
14369035	6510	0	0	-100	0	230	101300000	1000	0	0	-1	0
14381595	6505	0	0	-100	0	230	101300000	1000	0	0	-1	0
14394155	6516	0	0	-100	0	230	101300000	1000	0	0	-1	0
14406715	6513	0	0	-100	0	230	101300000	1000	0	0	-1	0
14419275	6511	0	0	-100	0	230	101300000	1000	0	0	-1	0
14431835	6507	0	0	-100	0	230	101300000	1000	0	0	-1	0
14444395	6511	0	0	-100	0	230	101300000	1000	0	0	-1	0
14456955	6513	0	0	-100	0	230	101300000	1000	0	0	-1	0
14469515	6513	0	0	-100	0	230	101300000	1000	0	0	-1	0
14482075	6516	0	0	-100	0	230	101300000	1000	0	0	-1	0
14494635	6511	0	0	-100	0	230	101300000	1000	0	0	-1	0
14507195	6513	0	0	-100	0	230	101300000	1000	0	0	-1	0
14519755	6512	0	0	-100	0	230	101300000	1000	0	0	-1	0
14532315	6510	0	0	-100	0	230	101300000	1000	0	0	-1	0
14544875	6511	0	0	-100	0	230	101300000	1000	0	0	-1	0
14557435	6515	0	0	-100	0	230	101300000	1000	0	0	-1	0
14569995	6507	0	0	-100	0	230	101300000	1000	0	0	-1	0
14582555	6508	0	0	-100	0	230	101300000	1000	0	0	-1	0
14595115	6507	0	0	-100	0	230	101300000	1000	0	0	-1	0
14607675	6507	4	0	-100	0	230	101300000	1000	0	0	-1	0
14620235	6508	2	0	-100	0	230	101300000	1000	0	0	-1	0
14632795	6510	0	0	-100	0	230	101300000	1000	0	0	-1	0
14645355	6513	0	0	-100	0	230	101300000	1000	0	0	-1	0
14657915	6512	0	0	-100	0	230	101300000	1000	0	0	-1	0
14670475	6513	0	0	-100	0	230	101300000	1000	0	0	-1	0
14683035	6511	0	0	-100	0	230	101300000	1000	0	0	-1	0
14695595	6509	0	0	-100	0	230	101300000	1000	0	0	-1	0
14708155	6516	0	0	-100	0	230	101300000	1000	0	0	-1	0
14720715	6510	0	0	-100	0	230	101300000	1000	0	0	-1	0
14733275	6513	0	0	-100	0	230	101300000	1000	0	0	-1	0
14745835	6508	0	0	-100	0	230	101300000	1000	0	0	-1	0
14758395	6511	2	0	-100	0	230	101300000	1000	0	0	-1	0
14770955	6506	4	0	-100	0	230	101300000	1000	0	0	-1	0
14783515	6508	1	0	-100	0	230	101300000	1000	0	0	-1	0
14796075	6515	0	0	-100	0	230	101300000	1000	0	0	-1	0
14808635	6514	0	0	-100	0	230	101300000	1000	0	0	-1	0
14821195	6510	0	0	-100	0	230	101300000	1000	0	0	-1	0
14833755	6510	0	0	-100	0	230	101300000	1000	0	0	-1	0
14846315	6505	0	0	-100	0	230	101300000	1000	0	0	-1	0
14858875	6507	0	0	-100	0	230	101300000	1000	0	0	-1	0
14871435	6509	3	0	-100	0	230	101300000	1000	0	0	-1	0
14883995	6511	0	0	-100	0	230	101300000	1000	0	0	-1	0
14896555	6516	0	0	-100	0	230	101300000	1000	0	0	-1	0
14909115	6513	0	0	-100	0	230	101300000	1000	0	0	-1	0
14921675	6508	0	0	-100	0	230	101300000	1000	0	0	-1	0
14934235	6510	4	0	-100	0	230	101300000	1000	0	0	-1	0
14946795	6506	2	0	-100	0	230	101300000	1000	0	0	-1	0
14959355	6517	0	0	-100	0	230	101300000	1000	0	0	-1	0
14971915	6516	0	0	-100	0	230	101300000	1000	0	0	-1	0
14984475	6502	0	0	-100	0	230	101300000	1000	0	0	-1	0
14997035	6510	1	0	-100	0	230	101300000	1000	0	0	-1	0
15009595	6513	0	0	-100	0	230	101300000	1000	0	0	-1	0
15022155	6516	0	0	-100	0	230	101300000	1000	0	0	-1	0
15034715	6511	3	0	-100	0	230	101300000	1000	0	0	-1	0
15047275	6506	3	0	-100	0	230	101300000	1000	0	0	-1	0
15059835	6514	0	0	-100	0	230	101300000	1000	0	0	-1	0
15072395	6516	0	0	-100	0	230	101300000	1000	0	0	-1	0
15084955	6511	0	0	-100	0	230	101300000	1000	0	0	-1	0
15097515	6513	0	0	-100	0	230	101300000	1000	0	0	-1	0
15110075	6508	0	0	-100	0	230	101300000	1000	0	0	-1	0
15122635	6513	4	0	-100	0	230	101300000	1000	0	0	-1	0
15135195	6509	0	0	-100	0	230	101300000	1000	0	0	-1	0
15147755	6511	0	0	-100	0	230	101300000	1000	0	0	-1	0
15160315	6509	0	0	-100	0	230	101300000	1000	0	0	-1	0
15172875	6504	0	0	-100	0	230	101300000	1000	0	0	-1	0
15185435	6507	0	0	-100	0	230	101300000	1000	0	0	-1	0
15197995	6513	0	0	-100	0	230	101300000	1000	0	0	-1	0
15210555	6512	4	0	-100	0	230	101300000	1000	0	0	-1	0
15223115	6508	4	0	-100	0	230	101300000	1000	0	0	-1	0
15235675	6511	4	0	-100	0	230	101300000	1000	0	0	-1	0
15248235	6509	2	0	-100	0	230	101300000	1000	0	0	-1	0
15260795	6509	3	0	-100	0	230	101300000	1000	0	0	-1	0
15273355	6508	4	0	-100	0	230	101300000	1000	0	0	-1	0
15285915	6506	4	0	-100	0	230	101300000	1000	0	0	-1	0
15298475	6508	4	0	-100	0	230	101300000	1000	0	0	-1	0
15311035	6508	2	0	-100	0	230	101300000	1000	0	0	-1	0
15323595	6508	4	0	-100	0	230	101300000	1000	0	0	-1	0
15336155	6519	2	0	-100	0	230	101300000	1000	0	0	-1	0
15348715	6504	3	0	-100	0	230	101300000	1000	0	0	-1	0
15361275	6508	2	0	-100	0	230	101300000	1000	0	0	-1	0
15373835	6512	0	0	-100	0	230	101300000	1000	0	0	-1	0
15386395	6514	0	0	-100	0	230	101300000	1000	0	0	-1	0
15398955	6510	0	0	-100	0	230	101300000	1000	0	0	-1	0
15411515	6512	1	0	-100	0	230	101300000	1000	0	0	-1	0
15424075	6507	1	0	-100	0	230	101300000	1000	0	0	-1	0
15436635	6514	0	0	-100	0	230	101300000	1000	0	0	-1	0
15449195	6516	0	0	-100	0	230	101300000	1000	0	0	-1	0
15461755	6515	0	0	-100	0	230	101300000	1000	0	0	-1	0
15474315	6515	0	0	-100	0	230	101300000	1000	0	0	-1	0
15486875	6507	0	0	-100	0	230	101300000	1000	0	0	-1	0
15499435	6509	0	0	-100	0	230	101300000	1000	0	0	-1	0
15511995	6510	0	0	-100	0	230	101300000	1000	0	0	-1	0
15524555	6506	0	0	-100	0	230	101300000	1000	0	0	-1	0
15537115	6506	0	0	-100	0	230	101300000	1000	0	0	-1	0
15549675	6510	5	0	-100	0	230	101300000	1000	0	0	-1	0
15562235	6512	2	0	-100	0	230	101300000	1000	0	0	-1	0
15574795	6513	0	0	-100	0	230	101300000	1000	0	0	-1	0
15587355	6513	0	0	-100	0	230	101300000	1000	0	0	-1	0
15599915	6514	0	0	-100	0	230	101300000	1000	0	0	-1	0
15612475	6513	0	0	-100	0	230	101300000	1000	0	0	-1	0
15625035	6510	0	0	-100	0	230	101300000	1000	0	0	-1	0
15637595	6512	0	0	-100	0	230	101300000	1000	0	0	-1	0
15650155	6520	0	0	-100	0	230	101300000	1000	0	0	-1	0
15662715	6513	0	0	-100	0	230	101300000	1000	0	0	-1	0
15675275	6516	0	0	-100	0	230	101300000	1000	0	0	-1	0
15687835	6513	0	0	-100	0	230	101300000	1000	0	0	-1	0
15700395	6515	0	0	-100	0	230	101300000	1000	0	0	-1	0
15712955	6508	0	0	-100	0	230	101300000	1000	0	0	-1	0
15725515	6502	0	0	-100	0	230	101300000	1000	0	0	-1	0
15738075	6509	0	0	-100	0	230	101300000	1000	0	0	-1	0
15750635	6507	5	0	-100	0	230	101300000	1000	0	0	-1	0
15763195	6508	4	0	-100	0	230	101300000	1000	0	0	-1	0
15775755	6512	2	0	-100	0	230	101300000	1000	0	0	-1	0
15788315	6509	0	0	-100	0	230	101300000	1000	0	0	-1	0
15800875	6515	0	0	-100	0	230	101300000	1000	0	0	-1	0
15813435	6516	0	0	-100	0	230	101300000	1000	0	0	-1	0
15825995	6515	1	0	-100	0	230	101300000	1000	0	0	-1	0
15838555	6511	0	0	-100	0	230	101300000	1000	0	0	-1	0
15851115	6508	0	0	-100	0	230	101300000	1000	0	0	-1	0
15863675	6513	0	0	-100	0	230	101300000	1000	0	0	-1	0
15876235	6507	0	0	-100	0	230	101300000	1000	0	0	-1	0
15888795	6511	0	0	-100	0	230	101300000	1000	0	0	-1	0
15901355	6509	3	0	-100	0	230	101300000	1000	0	0	-1	0
15913915	6508	0	0	-100	0	230	101300000	1000	0	0	-1	0
15926475	6512	0	0	-100	0	230	101300000	1000	0	0	-1	0
15939035	6520	0	0	-100	0	230	101300000	1000	0	0	-1	0
15951595	6511	0	0	-100	0	230	101300000	1000	0	0	-1	0
15964155	6515	0	0	-100	0	230	101300000	1000	0	0	-1	0
15976715	6508	4	0	-100	0	230	101300000	1000	0	0	-1	0
15989275	6508	1	0	-100	0	230	101300000	1000	0	0	-1	0
16001835	6512	0	0	-100	0	230	101300000	1000	0	0	-1	0
16014395	6516	0	0	-100	0	230	101300000	1000	0	0	-1	0
16026955	6513	0	0	-100	0	230	101300000	1000	0	0	-1	0
16039515	6510	0	0	-100	0	230	101300000	1000	0	0	-1	0
16052075	6510	4	0	-100	0	230	101300000	1000	0	0	-1	0
16064635	6510	0	0	-100	0	230	101300000	1000	0	0	-1	0
16077195	6514	0	0	-100	0	230	101300000	1000	0	0	-1	0
16089755	6511	0	0	-100	0	230	101300000	1000	0	0	-1	0
16102315	6513	0	0	-100	0	230	101300000	1000	0	0	-1	0
16114875	6506	0	0	-100	0	230	101300000	1000	0	0	-1	0
16127435	6509	4	0	-100	0	230	101300000	1000	0	0	-1	0
16139995	6515	4	0	-100	0	230	101300000	1000	0	0	-1	0
16152555	6514	0	0	-100	0	230	101300000	1000	0	0	-1	0
16165115	6511	0	0	-100	0	230	101300000	1000	0	0	-1	0
16177675	6511	0	0	-100	0	230	101300000	1000	0	0	-1	0
16190235	6508	3	0	-100	0	230	101300000	1000	0	0	-1	0
16202795	6512	0	0	-100	0	230	101300000	1000	0	0	-1	0
16215355	6510	0	0	-100	0	230	101300000	1000	0	0	-1	0
16227915	6509	0	0	-100	0	230	101300000	1000	0	0	-1	0
16240475	6507	0	0	-100	0	230	101300000	1000	0	0	-1	0
16253035	6513	4	0	-100	0	230	101300000	1000	0	0	-1	0
16265595	6506	0	0	-100	0	230	101300000	1000	0	0	-1	0
16278155	6521	0	0	-100	0	230	101300000	1000	0	0	-1	0
16290715	6504	0	0	-100	0	230	101300000	1000	0	0	-1	0
16303275	6510	1	0	-100	0	230	101300000	1000	0	0	-1	0
16315835	6512	0	0	-100	0	230	101300000	1000	0	0	-1	0
16328395	6508	4	0	-100	0	230	101300000	1000	0	0	-1	0
16340955	6517	0	0	-100	0	230	101300000	1000	0	0	-1	0
16353515	6509	0	0	-100	0	230	101300000	1000	0	0	-1	0
16366075	6506	4	0	-100	0	230	101300000	1000	0	0	-1	0
16378635	6517	0	0	-100	0	230	101300000	1000	0	0	-1	0
16391195	6513	0	0	-100	0	230	101300000	1000	0	0	-1	0
16403755	6513	3	0	-100	0	230	101300000	1000	0	0	-1	0
16416315	6515	0	0	-100	0	230	101300000	1000	0	0	-1	0
16428875	6508	0	0	-100	0	230	101300000	1000	0	0	-1	0
16441435	6508	1	0	-100	0	230	101300000	1000	0	0	-1	0
16453995	6513	0	0	-100	0	230	101300000	1000	0	0	-1	0
16466555	6506	4	0	-100	0	230	101300000	1000	0	0	-1	0
16479115	6514	0	0	-100	0	230	101300000	1000	0	0	-1	0
16491675	6508	4	0	-100	0	230	101300000	1000	0	0	-1	0
16504235	6512	0	0	-100	0	230	101300000	1000	0	0	-1	0
16516795	6513	0	0	-100	0	230	101300000	1000	0	0	-1	0
16529355	6509	0	0	-100	0	230	101300000	1000	0	0	-1	0
16541915	6507	0	0	-100	0	230	101300000	1000	0	0	-1	0
16554475	6508	0	0	-100	0	230	101300000	1000	0	0	-1	0
16567035	6511	0	0	-100	0	230	101300000	1000	0	0	-1	0
16579595	6507	2	0	-100	0	230	101300000	1000	0	0	-1	0
16592155	6520	0	0	-100	0	230	101300000	1000	0	0	-1	0
16604715	6508	3	0	-100	0	230	101300000	1000	0	0	-1	0
16617275	6510	0	0	-100	0	230	101300000	1000	0	0	-1	0
16629835	6508	4	0	-100	0	230	101300000	1000	0	0	-1	0
16642395	6511	0	0	-100	0	230	101300000	1000	0	0	-1	0
16654955	6508	0	0	-100	0	230	101300000	1000	0	0	-1	0
16667515	6508	2	0	-100	0	230	101300000	1000	0	0	-1	0
16680075	6513	0	0	-100	0	230	101300000	1000	0	0	-1	0
16692635	6506	3	0	-100	0	230	101300000	1000	0	0	-1	0
16705195	6511	0	0	-100	0	230	101300000	1000	0	0	-1	0
16717755	6510	4	0	-100	0	230	101300000	1000	0	0	-1	0
16730315	6516	0	0	-100	0	230	101300000	1000	0	0	-1	0
16742875	6510	0	0	-100	0	230	101300000	1000	0	0	-1	0
16755435	6508	4	0	-100	0	230	101300000	1000	0	0	-1	0
16767995	6509	4	0	-100	0	230	101300000	1000	0	0	-1	0
16780555	6513	0	0	-100	0	230	101300000	1000	0	0	-1	0
16793115	6510	4	0	-100	0	230	101300000	1000	0	0	-1	0
16805675	6514	0	0	-100	0	230	101300000	1000	0	0	-1	0
16818235	6512	0	0	-100	0	230	101300000	1000	0	0	-1	0
16830795	6511	2	0	-100	0	230	101300000	1000	0	0	-1	0
16843355	6507	1	0	-100	0	230	101300000	1000	0	0	-1	0
16855915	6514	0	0	-100	0	230	101300000	1000	0	0	-1	0
16868475	6502	0	0	-100	0	230	101300000	1000	0	0	-1	0
16881035	6508	3	0	-100	0	230	101300000	1000	0	0	-1	0
16893595	6516	0	0	-100	0	230	101300000	1000	0	0	-1	0
16906155	6517	0	0	-100	0	230	101300000	1000	0	0	-1	0
16918715	6508	4	0	-100	0	230	101300000	1000	0	0	-1	0
16931275	6512	0	0	-100	0	230	101300000	1000	0	0	-1	0
16943835	6515	0	0	-100	0	230	101300000	1000	0	0	-1	0
16956395	6508	0	0	-100	0	230	101300000	1000	0	0	-1	0
16968955	6506	1	0	-100	0	230	101300000	1000	0	0	-1	0
16981515	6510	0	0	-100	0	230	101300000	1000	0	0	-1	0
16994075	6513	3	0	-100	0	230	101300000	1000	0	0	-1	0
17006635	6505	1	0	-100	0	230	101300000	1000	0	0	-1	0
17019195	6516	0	0	-100	0	230	101300000	1000	0	0	-1	0
17031755	6513	0	0	-100	0	230	101300000	1000	0	0	-1	0
17044315	6507	1	0	-100	0	230	101300000	1000	0	0	-1	0
17056875	6506	1	0	-100	0	230	101300000	1000	0	0	-1	0
17069435	6510	0	0	-100	0	230	101300000	1000	0	0	-1	0
17081995	6515	0	0	-100	0	230	101300000	1000	0	0	-1	0
17094555	6510	0	0	-100	0	230	101300000	1000	0	0	-1	0
17107115	6508	0	0	-100	0	230	101300000	1000	0	0	-1	0
17119675	6516	0	0	-100	0	230	101300000	1000	0	0	-1	0
17132235	6508	0	0	-100	0	230	101300000	1000	0	0	-1	0
17144795	6509	3	0	-100	0	230	101300000	1000	0	0	-1	0
17157355	6514	0	0	-100	0	230	101300000	1000	0	0	-1	0
17169915	6511	0	0	-100	0	230	101300000	1000	0	0	-1	0
17182475	6508	0	0	-100	0	230	101300000	1000	0	0	-1	0
17195035	6510	3	0	-100	0	230	101300000	1000	0	0	-1	0
17207595	6512	0	0	-100	0	230	101300000	1000	0	0	-1	0
17220155	6522	0	0	-100	0	230	101300000	1000	0	0	-1	0
17232715	6510	0	0	-100	0	230	101300000	1000	0	0	-1	0
17245275	6504	4	0	-100	0	230	101300000	1000	0	0	-1	0
17257835	6516	0	0	-100	0	230	101300000	1000	0	0	-1	0
17270395	6511	0	0	-100	0	230	101300000	1000	0	0	-1	0
17282955	6510	4	0	-100	0	230	101300000	1000	0	0	-1	0
17295515	6513	0	0	-100	0	230	101300000	1000	0	0	-1	0
17308075	6511	0	0	-100	0	230	101300000	1000	0	0	-1	0
17320635	6506	4	0	-100	0	230	101300000	1000	0	0	-1	0
17333195	6516	0	0	-100	0	230	101300000	1000	0	0	-1	0
17345755	6508	0	0	-100	0	230	101300000	1000	0	0	-1	0
17358315	6509	3	0	-100	0	230	101300000	1000	0	0	-1	0
17370875	6517	0	0	-100	0	230	101300000	1000	0	0	-1	0
17383435	6510	0	0	-100	0	230	101300000	1000	0	0	-1	0
17395995	6510	0	0	-100	0	230	101300000	1000	0	0	-1	0
17408555	6509	0	0	-100	0	230	101300000	1000	0	0	-1	0
17421115	6511	0	0	-100	0	230	101300000	1000	0	0	-1	0
17433675	6510	2	0	-100	0	230	101300000	1000	0	0	-1	0
17446235	6508	0	0	-100	0	230	101300000	1000	0	0	-1	0
17458795	6512	0	0	-100	0	230	101300000	1000	0	0	-1	0
17471355	6513	0	0	-100	0	230	101300000	1000	0	0	-1	0
17483915	6510	4	0	-100	0	230	101300000	1000	0	0	-1	0
17496475	6517	0	0	-100	0	230	101300000	1000	0	0	-1	0
17509035	6511	0	0	-100	0	230	101300000	1000	0	0	-1	0
17521595	6510	4	0	-100	0	230	101300000	1000	0	0	-1	0
17534155	6521	0	0	-100	0	230	101300000	1000	0	0	-1	0
17546715	6510	0	0	-100	0	230	101300000	1000	0	0	-1	0
17559275	6512	2	0	-100	0	230	101300000	1000	0	0	-1	0
17571835	6516	0	0	-100	0	230	101300000	1000	0	0	-1	0
17584395	6511	0	0	-100	0	230	101300000	1000	0	0	-1	0
17596955	6507	0	0	-100	0	230	101300000	1000	0	0	-1	0
17609515	6506	4	0	-100	0	230	101300000	1000	0	0	-1	0
17622075	6514	0	0	-100	0	230	101300000	1000	0	0	-1	0
17634635	6513	0	0	-100	0	230	101300000	1000	0	0	-1	0
17647195	6508	0	0	-100	0	230	101300000	1000	0	0	-1	0
17659755	6508	4	0	-100	0	230	101300000	1000	0	0	-1	0
17672315	6515	0	0	-100	0	230	101300000	1000	0	0	-1	0
17684875	6511	0	0	-100	0	230	101300000	1000	0	0	-1	0
17697435	6505	0	0	-100	0	230	101300000	1000	0	0	-1	0
17709995	6510	0	0	-100	0	230	101300000	1000	0	0	-1	0
17722555	6515	0	0	-100	0	230	101300000	1000	0	0	-1	0
17735115	6509	0	0	-100	0	230	101300000	1000	0	0	-1	0
17747675	6510	3	0	-100	0	230	101300000	1000	0	0	-1	0
17760235	6511	0	0	-100	0	230	101300000	1000	0	0	-1	0
17772795	6511	0	0	-100	0	230	101300000	1000	0	0	-1	0
17785355	6512	3	0	-100	0	230	101300000	1000	0	0	-1	0
17797915	6508	0	0	-100	0	230	101300000	1000	0	0	-1	0
17810475	6516	0	0	-100	0	230	101300000	1000	0	0	-1	0
17823035	6513	0	0	-100	0	230	101300000	1000	0	0	-1	0
17835595	6505	0	0	-100	0	230	101300000	1000	0	0	-1	0
17848155	6515	3	0	-100	0	230	101300000	1000	0	0	-1	0
17860715	6508	0	0	-100	0	230	101300000	1000	0	0	-1	0
17873275	6511	0	0	-100	0	230	101300000	1000	0	0	-1	0
17885835	6506	0	0	-100	0	230	101300000	1000	0	0	-1	0
17898395	6512	4	0	-100	0	230	101300000	1000	0	0	-1	0
17910955	6508	1	0	-100	0	230	101300000	1000	0	0	-1	0
17923515	6510	0	0	-100	0	230	101300000	1000	0	0	-1	0
17936075	6513	0	0	-100	0	230	101300000	1000	0	0	-1	0
17948635	6510	4	0	-100	0	230	101300000	1000	0	0	-1	0
17961195	6511	1	0	-100	0	230	101300000	1000	0	0	-1	0
17973755	6514	0	0	-100	0	230	101300000	1000	0	0	-1	0
17986315	6510	0	0	-100	0	230	101300000	1000	0	0	-1	0
17998875	6509	4	0	-100	0	230	101300000	1000	0	0	-1	0
18011435	6508	0	0	-100	0	230	101300000	1000	0	0	-1	0
18023995	6515	1	0	-100	0	230	101300000	1000	0	0	-1	0
18036555	6510	0	0	-100	0	230	101300000	1000	0	0	-1	0
18049115	6508	2	0	-100	0	230	101300000	1000	0	0	-1	0
18061675	6514	0	0	-100	0	230	101300000	1000	0	0	-1	0
18074235	6515	0	0	-100	0	230	101300000	1000	0	0	-1	0
18086795	6510	2	0	-100	0	230	101300000	1000	0	0	-1	0
18099355	6506	1	0	-100	0	230	101300000	1000	0	0	-1	0
18111915	6517	0	0	-100	0	230	101300000	1000	0	0	-1	0
18124475	6510	0	0	-100	0	230	101300000	1000	0	0	-1	0
18137035	6508	0	0	-100	0	230	101300000	1000	0	0	-1	0
18149595	6504	4	0	-100	0	230	101300000	1000	0	0	-1	0
18162155	6518	1	0	-100	0	230	101300000	1000	0	0	-1	0
18174715	6520	0	0	-100	0	230	101300000	1000	0	0	-1	0
18187275	6513	0	0	-100	0	230	101300000	1000	0	0	-1	0
18199835	6508	4	0	-100	0	230	101300000	1000	0	0	-1	0
18212395	6508	0	0	-100	0	230	101300000	1000	0	0	-1	0
18224955	6520	0	0	-100	0	230	101300000	1000	0	0	-1	0
18237515	6511	0	0	-100	0	230	101300000	1000	0	0	-1	0
18250075	6510	0	0	-100	0	230	101300000	1000	0	0	-1	0
18262635	6508	3	0	-100	0	230	101300000	1000	0	0	-1	0
18275195	6517	0	0	-100	0	230	101300000	1000	0	0	-1	0
18287755	6513	0	0	-100	0	230	101300000	1000	0	0	-1	0
18300315	6502	0	0	-100	0	230	101300000	1000	0	0	-1	0
18312875	6512	1	0	-100	0	230	101300000	1000	0	0	-1	0
18325435	6513	0	0	-100	0	230	101300000	1000	0	0	-1	0
18337995	6511	0	0	-100	0	230	101300000	1000	0	0	-1	0
18350555	6506	0	0	-100	0	230	101300000	1000	0	0	-1	0
18363115	6510	1	0	-100	0	230	101300000	1000	0	0	-1	0
18375675	6512	0	0	-100	0	230	101300000	1000	0	0	-1	0
18388235	6510	0	0	-100	0	230	101300000	1000	0	0	-1	0
18400795	6512	4	0	-100	0	230	101300000	1000	0	0	-1	0
18413355	6507	0	0	-100	0	230	101300000	1000	0	0	-1	0
18425915	6511	0	0	-100	0	230	101300000	1000	0	0	-1	0
18438475	6510	0	0	-100	0	230	101300000	1000	0	0	-1	0
18451035	6510	2	0	-100	0	230	101300000	1000	0	0	-1	0
18463595	6515	0	0	-100	0	230	101300000	1000	0	0	-1	0
18476155	6522	0	0	-100	0	230	101300000	1000	0	0	-1	0
18488715	6508	2	0	-100	0	230	101300000	1000	0	0	-1	0
18501275	6511	0	0	-100	0	230	101300000	1000	0	0	-1	0
18513835	6515	0	0	-100	0	230	101300000	1000	0	0	-1	0
18526395	6508	4	0	-100	0	230	101300000	1000	0	0	-1	0
18538955	6514	0	0	-100	0	230	101300000	1000	0	0	-1	0
18551515	6504	0	0	-100	0	230	101300000	1000	0	0	-1	0
18564075	6508	2	0	-100	0	230	101300000	1000	0	0	-1	0
18576635	6512	0	0	-100	0	230	101300000	1000	0	0	-1	0
18589195	6511	2	0	-100	0	230	101300000	1000	0	0	-1	0
18601755	6518	0	0	-100	0	230	101300000	1000	0	0	-1	0
18614315	6508	0	0	-100	0	230	101300000	1000	0	0	-1	0
18626875	6506	2	0	-100	0	230	101300000	1000	0	0	-1	0
18639435	6517	0	0	-100	0	230	101300000	1000	0	0	-1	0
18651995	6505	0	0	-100	0	230	101300000	1000	0	0	-1	0
18664555	6506	3	0	-100	0	230	101300000	1000	0	0	-1	0
18677115	6517	0	0	-100	0	230	101300000	1000	0	0	-1	0
18689675	6513	0	0	-100	0	230	101300000	1000	0	0	-1	0
18702235	6508	0	0	-100	0	230	101300000	1000	0	0	-1	0
18714795	6502	0	0	-100	0	230	101300000	1000	0	0	-1	0
18727355	6506	4	0	-100	0	230	101300000	1000	0	0	-1	0
18739915	6510	1	0	-100	0	230	101300000	1000	0	0	-1	0
18752475	6511	0	0	-100	0	230	101300000	1000	0	0	-1	0
18765035	6513	0	0	-100	0	230	101300000	1000	0	0	-1	0
18777595	6511	0	0	-100	0	230	101300000	1000	0	0	-1	0
18790155	6515	0	0	-100	0	230	101300000	1000	0	0	-1	0
18802715	6513	1	0	-100	0	230	101300000	1000	0	0	-1	0
18815275	6508	4	0	-100	0	230	101300000	1000	0	0	-1	0
18827835	6508	1	0	-100	0	230	101300000	1000	0	0	-1	0
18840395	6511	0	0	-100	0	230	101300000	1000	0	0	-1	0
18852955	6517	0	0	-100	0	230	101300000	1000	0	0	-1	0
18865515	6513	0	0	-100	0	230	101300000	1000	0	0	-1	0
18878075	6512	0	0	-100	0	230	101300000	1000	0	0	-1	0
18890635	6507	0	0	-100	0	230	101300000	1000	0	0	-1	0
18903195	6510	0	0	-100	0	230	101300000	1000	0	0	-1	0
18915755	6508	4	0	-100	0	230	101300000	1000	0	0	-1	0
18928315	6506	2	0	-100	0	230	101300000	1000	0	0	-1	0
18940875	6516	0	0	-100	0	230	101300000	1000	0	0	-1	0
18953435	6515	0	0	-100	0	230	101300000	1000	0	0	-1	0
18965995	6502	0	0	-100	0	230	101300000	1000	0	0	-1	0
18978555	6510	2	0	-100	0	230	101300000	1000	0	0	-1	0
18991115	6506	1	0	-100	0	230	101300000	1000	0	0	-1	0
19003675	6514	0	0	-100	0	230	101300000	1000	0	0	-1	0
19016235	6511	0	0	-100	0	230	101300000	1000	0	0	-1	0
19028795	6508	0	0	-100	0	230	101300000	1000	0	0	-1	0
19041355	6512	4	0	-100	0	230	101300000	1000	0	0	-1	0
19053915	6508	1	0	-100	0	230	101300000	1000	0	0	-1	0
19066475	6512	0	0	-100	0	230	101300000	1000	0	0	-1	0
19079035	6508	0	0	-100	0	230	101300000	1000	0	0	-1	0
19091595	6508	3	0	-100	0	230	101300000	1000	0	0	-1	0
19104155	6519	0	0	-100	0	230	101300000	1000	0	0	-1	0
19116715	6513	0	0	-100	0	230	101300000	1000	0	0	-1	0
19129275	6506	0	0	-100	0	230	101300000	1000	0	0	-1	0
19141835	6507	0	0	-100	0	230	101300000	1000	0	0	-1	0
19154395	6508	4	0	-100	0	230	101300000	1000	0	0	-1	0
19166955	6508	0	0	-100	0	230	101300000	1000	0	0	-1	0
19179515	6516	0	0	-100	0	230	101300000	1000	0	0	-1	0
19192075	6507	0	0	-100	0	230	101300000	1000	0	0	-1	0
19204635	6509	3	0	-100	0	230	101300000	1000	0	0	-1	0
19217195	6509	0	0	-100	0	230	101300000	1000	0	0	-1	0
19229755	6511	0	0	-100	0	230	101300000	1000	0	0	-1	0
19242315	6508	0	0	-100	0	230	101300000	1000	0	0	-1	0
19254875	6508	4	0	-100	0	230	101300000	1000	0	0	-1	0
19267435	6511	0	0	-100	0	230	101300000	1000	0	0	-1	0
19279995	6512	0	0	-100	0	230	101300000	1000	0	0	-1	0
19292555	6508	0	0	-100	0	230	101300000	1000	0	0	-1	0
19305115	6508	1	0	-100	0	230	101300000	1000	0	0	-1	0
19317675	6515	0	0	-100	0	230	101300000	1000	0	0	-1	0
19330235	6506	0	0	-100	0	230	101300000	1000	0	0	-1	0
19342795	6510	0	0	-100	0	230	101300000	1000	0	0	-1	0
19355355	6510	0	0	-100	0	230	101300000	1000	0	0	-1	0
19367915	6506	4	0	-100	0	230	101300000	1000	0	0	-1	0
19380475	6517	0	0	-100	0	230	101300000	1000	0	0	-1	0
19393035	6510	0	0	-100	0	230	101300000	1000	0	0	-1	0
19405595	6511	5	0	-100	0	230	101300000	1000	0	0	-1	0
19418155	6518	1	0	-100	0	230	101300000	1000	0	0	-1	0
19430715	6512	0	0	-100	0	230	101300000	1000	0	0	-1	0
19443275	6505	0	0	-100	0	230	101300000	1000	0	0	-1	0
19455835	6510	1	0	-100	0	230	101300000	1000	0	0	-1	0
19468395	6513	0	0	-100	0	230	101300000	1000	0	0	-1	0
19480955	6509	3	0	-100	0	230	101300000	1000	0	0	-1	0
19493515	6517	0	0	-100	0	230	101300000	1000	0	0	-1	0
19506075	6502	0	0	-100	0	230	101300000	1000	0	0	-1	0
19518635	6515	0	0	-100	0	230	101300000	1000	0	0	-1	0
19531195	6507	0	0	-100	0	230	101300000	1000	0	0	-1	0
19543755	6507	1	0	-100	0	230	101300000	1000	0	0	-1	0
19556315	6514	0	0	-100	0	230	101300000	1000	0	0	-1	0
19568875	6509	3	0	-100	0	230	101300000	1000	0	0	-1	0
19581435	6513	0	0	-100	0	230	101300000	1000	0	0	-1	0
19593995	6510	0	0	-100	0	230	101300000	1000	0	0	-1	0
19606555	6514	0	0	-100	0	230	101300000	1000	0	0	-1	0
19619115	6508	0	0	-100	0	230	101300000	1000	0	0	-1	0
19631675	6517	0	0	-100	0	230	101300000	1000	0	0	-1	0
19644235	6510	0	0	-100	0	230	101300000	1000	0	0	-1	0
19656795	6508	1	0	-100	0	230	101300000	1000	0	0	-1	0
19669355	6513	0	0	-100	0	230	101300000	1000	0	0	-1	0
19681915	6504	0	0	-100	0	230	101300000	1000	0	0	-1	0
19694475	6508	0	0	-100	0	230	101300000	1000	0	0	-1	0
19707035	6504	0	0	-100	0	230	101300000	1000	0	0	-1	0
19719595	6515	0	0	-100	0	230	101300000	1000	0	0	-1	0
19732155	6515	3	0	-100	0	230	101300000	1000	0	0	-1	0
19744715	6510	0	0	-100	0	230	101300000	1000	0	0	-1	0
19757275	6508	2	0	-100	0	230	101300000	1000	0	0	-1	0
19769835	6508	0	0	-100	0	230	101300000	1000	0	0	-1	0
19782395	6510	0	0	-100	0	230	101300000	1000	0	0	-1	0
19794955	6513	0	0	-100	0	230	101300000	1000	0	0	-1	0
19807515	6510	0	0	-100	0	230	101300000	1000	0	0	-1	0
19820075	6508	0	0	-100	0	230	101300000	1000	0	0	-1	0
19832635	6513	0	0	-100	0	230	101300000	1000	0	0	-1	0
19845195	6513	2	0	-100	0	230	101300000	1000	0	0	-1	0
19857755	6515	0	0	-100	0	230	101300000	1000	0	0	-1	0
19870315	6510	4	0	-100	0	230	101300000	1000	0	0	-1	0
19882875	6516	0	0	-100	0	230	101300000	1000	0	0	-1	0
19895435	6506	0	0	-100	0	230	101300000	1000	0	0	-1	0
19907995	6505	0	0	-100	0	230	101300000	1000	0	0	-1	0
19920555	6516	0	0	-100	0	230	101300000	1000	0	0	-1	0
19933115	6509	5	0	-100	0	230	101300000	1000	0	0	-1	0
19945675	6511	0	0	-100	0	230	101300000	1000	0	0	-1	0
19958235	6506	0	0	-100	0	230	101300000	1000	0	0	-1	0
19970795	6510	0	0	-100	0	230	101300000	1000	0	0	-1	0
19983355	6511	0	0	-100	0	230	101300000	1000	0	0	-1	0
19995915	6512	3	0	-100	0	230	101300000	1000	0	0	-1	0
20008475	6512	0	0	-100	0	230	101300000	1000	0	0	-1	0
20021035	6507	0	0	-100	0	230	101300000	1000	0	0	-1	0
20033595	6514	0	0	-100	0	230	101300000	1000	0	0	-1	0
20046155	6513	0	0	-100	0	230	101300000	1000	0	0	-1	0
20058715	6508	2	0	-100	0	230	101300000	1000	0	0	-1	0
20071275	6511	0	0	-100	0	230	101300000	1000	0	0	-1	0
20083835	6511	0	0	-100	0	230	101300000	1000	0	0	-1	0
20096395	6511	4	0	-100	0	230	101300000	1000	0	0	-1	0
20108955	6510	1	0	-100	0	230	101300000	1000	0	0	-1	0
20121515	6516	0	0	-100	0	230	101300000	1000	0	0	-1	0
20134075	6514	4	0	-100	0	230	101300000	1000	0	0	-1	0
20146635	6517	0	0	-100	0	230	101300000	1000	0	0	-1	0
20159195	6512	3	0	-100	0	230	101300000	1000	0	0	-1	0
20171755	6508	0	0	-100	0	230	101300000	1000	0	0	-1	0
20184315	6508	0	0	-100	0	230	101300000	1000	0	0	-1	0
20196875	6510	0	0	-100	0	230	101300000	1000	0	0	-1	0
20209435	6511	0	0	-100	0	230	101300000	1000	0	0	-1	0
20221995	6508	0	0	-100	0	230	101300000	1000	0	0	-1	0
20234555	6510	0	0	-100	0	230	101300000	1000	0	0	-1	0
20247115	6510	0	0	-100	0	230	101300000	1000	0	0	-1	0
20259675	6511	4	0	-100	0	230	101300000	1000	0	0	-1	0
20272235	6515	0	0	-100	0	230	101300000	1000	0	0	-1	0
20284795	6508	0	0	-100	0	230	101300000	1000	0	0	-1	0
20297355	6512	0	0	-100	0	230	101300000	1000	0	0	-1	0
20309915	6516	0	0	-100	0	230	101300000	1000	0	0	-1	0
20322475	6513	0	0	-100	0	230	101300000	1000	0	0	-1	0
20335035	6504	4	0	-100	0	230	101300000	1000	0	0	-1	0
20347595	6513	0	0	-100	0	230	101300000	1000	0	0	-1	0
20360155	6520	0	0	-100	0	230	101300000	1000	0	0	-1	0
20372715	6509	3	0	-100	0	230	101300000	1000	0	0	-1	0
20385275	6515	0	0	-100	0	230	101300000	1000	0	0	-1	0
20397835	6513	0	0	-100	0	230	101300000	1000	0	0	-1	0
20410395	6506	2	0	-100	0	230	101300000	1000	0	0	-1	0
20422955	6514	0	0	-100	0	230	101300000	1000	0	0	-1	0
20435515	6510	3	0	-100	0	230	101300000	1000	0	0	-1	0
20448075	6514	0	0	-100	0	230	101300000	1000	0	0	-1	0
20460635	6513	1	0	-100	0	230	101300000	1000	0	0	-1	0
20473195	6517	0	0	-100	0	230	101300000	1000	0	0	-1	0
20485755	6508	0	0	-100	0	230	101300000	1000	0	0	-1	0
20498315	6510	0	0	-100	0	230	101300000	1000	0	0	-1	0
20510875	6510	0	0	-100	0	230	101300000	1000	0	0	-1	0
20523435	6506	1	0	-100	0	230	101300000	1000	0	0	-1	0
20535995	6513	0	0	-100	0	230	101300000	1000	0	0	-1	0
20548555	6511	4	0	-100	0	230	101300000	1000	0	0	-1	0
20561115	6516	0	0	-100	0	230	101300000	1000	0	0	-1	0
20573675	6508	0	0	-100	0	230	101300000	1000	0	0	-1	0
20586235	6510	0	0	-100	0	230	101300000	1000	0	0	-1	0
20598795	6511	0	0	-100	0	230	101300000	1000	0	0	-1	0
20611355	6508	4	0	-100	0	230	101300000	1000	0	0	-1	0
20623915	6511	0	0	-100	0	230	101300000	1000	0	0	-1	0
20636475	6507	0	0	-100	0	230	101300000	1000	0	0	-1	0
20649035	6508	3	0	-100	0	230	101300000	1000	0	0	-1	0
20661595	6514	0	0	-100	0	230	101300000	1000	0	0	-1	0
20674155	6519	0	0	-100	0	230	101300000	1000	0	0	-1	0
20686715	6510	4	0	-100	0	230	101300000	1000	0	0	-1	0
20699275	6517	0	0	-100	0	230	101300000	1000	0	0	-1	0
20711835	6508	0	0	-100	0	230	101300000	1000	0	0	-1	0
20724395	6507	4	0	-100	0	230	101300000	1000	0	0	-1	0
20736955	6516	0	0	-100	0	230	101300000	1000	0	0	-1	0
20749515	6510	0	0	-100	0	230	101300000	1000	0	0	-1	0
20762075	6508	3	0	-100	0	230	101300000	1000	0	0	-1	0
20774635	6513	0	0	-100	0	230	101300000	1000	0	0	-1	0
20787195	6510	0	0	-100	0	230	101300000	1000	0	0	-1	0
20799755	6512	1	0	-100	0	230	101300000	1000	0	0	-1	0
20812315	6516	0	0	-100	0	230	101300000	1000	0	0	-1	0
20824875	6508	0	0	-100	0	230	101300000	1000	0	0	-1	0
20837435	6508	3	0	-100	0	230	101300000	1000	0	0	-1	0
20849995	6515	4	0	-100	0	230	101300000	1000	0	0	-1	0
20862555	6513	0	0	-100	0	230	101300000	1000	0	0	-1	0
20875115	6508	0	0	-100	0	230	101300000	1000	0	0	-1	0
20887675	6508	3	0	-100	0	230	101300000	1000	0	0	-1	0
20900235	6513	0	0	-100	0	230	101300000	1000	0	0	-1	0
20912795	6514	0	0	-100	0	230	101300000	1000	0	0	-1	0
20925355	6513	0	0	-100	0	230	101300000	1000	0	0	-1	0
20937915	6510	0	0	-100	0	230	101300000	1000	0	0	-1	0
20950475	6508	5	0	-100	0	230	101300000	1000	0	0	-1	0
20963035	6508	1	0	-100	0	230	101300000	1000	0	0	-1	0
20975595	6517	0	0	-100	0	230	101300000	1000	0	0	-1	0
20988155	6516	0	0	-100	0	230	101300000	1000	0	0	-1	0
21000715	6506	0	0	-100	0	230	101300000	1000	0	0	-1	0
21013275	6507	0	0	-100	0	230	101300000	1000	0	0	-1	0
21025835	6505	2	0	-100	0	230	101300000	1000	0	0	-1	0
21038395	6510	0	0	-100	0	230	101300000	1000	0	0	-1	0
21050955	6510	0	0	-100	0	230	101300000	1000	0	0	-1	0
21063515	6517	0	0	-100	0	230	101300000	1000	0	0	-1	0
21076075	6513	0	0	-100	0	230	101300000	1000	0	0	-1	0
21088635	6508	0	0	-100	0	230	101300000	1000	0	0	-1	0
21101195	6510	4	0	-100	0	230	101300000	1000	0	0	-1	0
21113755	6510	0	0	-100	0	230	101300000	1000	0	0	-1	0
21126315	6512	0	0	-100	0	230	101300000	1000	0	0	-1	0
21138875	6513	0	0	-100	0	230	101300000	1000	0	0	-1	0
21151435	6513	4	0	-100	0	230	101300000	1000	0	0	-1	0
21163995	6506	0	0	-100	0	230	101300000	1000	0	0	-1	0
21176555	6513	0	0	-100	0	230	101300000	1000	0	0	-1	0
21189115	6509	0	0	-100	0	230	101300000	1000	0	0	-1	0
21201675	6512	3	0	-100	0	230	101300000	1000	0	0	-1	0
21214235	6516	0	0	-100	0	230	101300000	1000	0	0	-1	0
21226795	6504	0	0	-100	0	230	101300000	1000	0	0	-1	0
21239355	6514	0	0	-100	0	230	101300000	1000	0	0	-1	0
21251915	6511	0	0	-100	0	230	101300000	1000	0	0	-1	0
21264475	6508	3	0	-100	0	230	101300000	1000	0	0	-1	0
21277035	6510	0	0	-100	0	230	101300000	1000	0	0	-1	0
21289595	6508	4	0	-100	0	230	101300000	1000	0	0	-1	0
21302155	6521	0	0	-100	0	230	101300000	1000	0	0	-1	0
21314715	6510	0	0	-100	0	230	101300000	1000	0	0	-1	0
21327275	6505	1	0	-100	0	230	101300000	1000	0	0	-1	0
21339835	6511	0	0	-100	0	230	101300000	1000	0	0	-1	0
21352395	6500	0	0	-100	0	230	101300000	1000	0	0	-1	0
21364955	6509	0	0	-100	0	230	101300000	1000	0	0	-1	0
21377515	6511	0	0	-100	0	230	101300000	1000	0	0	-1	0
21390075	6508	3	0	-100	0	230	101300000	1000	0	0	-1	0
21402635	6513	0	0	-100	0	230	101300000	1000	0	0	-1	0
21415195	6509	0	0	-100	0	230	101300000	1000	0	0	-1	0
21427755	6512	2	0	-100	0	230	101300000	1000	0	0	-1	0
21440315	6512	0	0	-100	0	230	101300000	1000	0	0	-1	0
21452875	6507	0	0	-100	0	230	101300000	1000	0	0	-1	0
21465435	6516	0	0	-100	0	230	101300000	1000	0	0	-1	0
21477995	6506	0	0	-100	0	230	101300000	1000	0	0	-1	0
21490555	6506	0	0	-100	0	230	101300000	1000	0	0	-1	0
21503115	6513	0	0	-100	0	230	101300000	1000	0	0	-1	0
21515675	6519	0	0	-100	0	230	101300000	1000	0	0	-1	0
21528235	6504	4	0	-100	0	230	101300000	1000	0	0	-1	0
21540795	6515	0	0	-100	0	230	101300000	1000	0	0	-1	0
21553355	6507	2	0	-100	0	230	101300000	1000	0	0	-1	0
21565915	6507	0	0	-100	0	230	101300000	1000	0	0	-1	0
21578475	6510	0	0	-100	0	230	101300000	1000	0	0	-1	0
21591035	6505	0	0	-100	0	230	101300000	1000	0	0	-1	0
21603595	6509	1	0	-100	0	230	101300000	1000	0	0	-1	0
21616155	6522	0	0	-100	0	230	101300000	1000	0	0	-1	0
21628715	6504	3	0	-100	0	230	101300000	1000	0	0	-1	0
21641275	6511	0	0	-100	0	230	101300000	1000	0	0	-1	0
21653835	6509	3	0	-100	0	230	101300000	1000	0	0	-1	0
21666395	6513	0	0	-100	0	230	101300000	1000	0	0	-1	0
21678955	6508	4	0	-100	0	230	101300000	1000	0	0	-1	0
21691515	6515	0	0	-100	0	230	101300000	1000	0	0	-1	0
21704075	6506	3	0	-100	0	230	101300000	1000	0	0	-1	0
21716635	6514	0	0	-100	0	230	101300000	1000	0	0	-1	0
21729195	6506	0	0	-100	0	230	101300000	1000	0	0	-1	0
21741755	6514	0	0	-100	0	230	101300000	1000	0	0	-1	0
21754315	6515	0	0	-100	0	230	101300000	1000	0	0	-1	0
21766875	6508	4	0	-100	0	230	101300000	1000	0	0	-1	0
21779435	6518	0	0	-100	0	230	101300000	1000	0	0	-1	0
21791995	6506	0	0	-100	0	230	101300000	1000	0	0	-1	0
21804555	6511	0	0	-100	0	230	101300000	1000	0	0	-1	0
21817115	6510	4	0	-100	0	230	101300000	1000	0	0	-1	0
21829675	6511	0	0	-100	0	230	101300000	1000	0	0	-1	0
21842235	6511	3	0	-100	0	230	101300000	1000	0	0	-1	0
21854795	6513	0	0	-100	0	230	101300000	1000	0	0	-1	0
21867355	6509	3	0	-100	0	230	101300000	1000	0	0	-1	0
21879915	6515	0	0	-100	0	230	101300000	1000	0	0	-1	0
21892475	6508	0	0	-100	0	230	101300000	1000	0	0	-1	0
21905035	6513	0	0	-100	0	230	101300000	1000	0	0	-1	0
21917595	6506	0	0	-100	0	230	101300000	1000	0	0	-1	0
21930155	6521	0	0	-100	0	230	101300000	1000	0	0	-1	0
21942715	6508	0	0	-100	0	230	101300000	1000	0	0	-1	0
21955275	6514	0	0	-100	0	230	101300000	1000	0	0	-1	0
21967835	6511	0	0	-100	0	230	101300000	1000	0	0	-1	0
21980395	6511	4	0	-100	0	230	101300000	1000	0	0	-1	0
21992955	6514	0	0	-100	0	230	101300000	1000	0	0	-1	0
22005515	6515	0	0	-100	0	230	101300000	1000	0	0	-1	0
22018075	6508	0	0	-100	0	230	101300000	1000	0	0	-1	0
22030635	6508	1	0	-100	0	230	101300000	1000	0	0	-1	0
22043195	6516	0	0	-100	0	230	101300000	1000	0	0	-1	0
22055755	6507	0	0	-100	0	230	101300000	1000	0	0	-1	0
22068315	6509	2	0	-100	0	230	101300000	1000	0	0	-1	0
22080875	6516	0	0	-100	0	230	101300000	1000	0	0	-1	0
22093435	6510	2	0	-100	0	230	101300000	1000	0	0	-1	0
22105995	6509	4	0	-100	0	230	101300000	1000	0	0	-1	0
22118555	6509	0	0	-100	0	230	101300000	1000	0	0	-1	0
22131115	6508	4	0	-100	0	230	101300000	1000	0	0	-1	0
22143675	6506	2	0	-100	0	230	101300000	1000	0	0	-1	0
22156235	6516	0	0	-100	0	230	101300000	1000	0	0	-1	0
22168795	6507	0	0	-100	0	230	101300000	1000	0	0	-1	0
22181355	6508	4	0	-100	0	230	101300000	1000	0	0	-1	0
22193915	6513	0	0	-100	0	230	101300000	1000	0	0	-1	0
22206475	6509	0	0	-100	0	230	101300000	1000	0	0	-1	0
22219035	6513	2	0	-100	0	230	101300000	1000	0	0	-1	0
22231595	6506	1	0	-100	0	230	101300000	1000	0	0	-1	0
22244155	6522	0	0	-100	0	230	101300000	1000	0	0	-1	0
22256715	6510	0	0	-100	0	230	101300000	1000	0	0	-1	0
22269275	6504	4	0	-100	0	230	101300000	1000	0	0	-1	0
22281835	6513	0	0	-100	0	230	101300000	1000	0	0	-1	0
22294395	6516	0	0	-100	0	230	101300000	1000	0	0	-1	0
22306955	6511	0	0	-100	0	230	101300000	1000	0	0	-1	0
22319515	6511	0	0	-100	0	230	101300000	1000	0	0	-1	0
22332075	6508	0	0	-100	0	230	101300000	1000	0	0	-1	0
22344635	6511	0	0	-100	0	230	101300000	1000	0	0	-1	0
22357195	6508	0	0	-100	0	230	101300000	1000	0	0	-1	0
22369755	6508	0	0	-100	0	230	101300000	1000	0	0	-1	0
22382315	6512	0	0	-100	0	230	101300000	1000	0	0	-1	0
22394875	6511	4	0	-100	0	230	101300000	1000	0	0	-1	0
22407435	6506	0	0	-100	0	230	101300000	1000	0	0	-1	0
22419995	6511	0	0	-100	0	230	101300000	1000	0	0	-1	0
22432555	6513	4	0	-100	0	230	101300000	1000	0	0	-1	0
22445115	6516	0	0	-100	0	230	101300000	1000	0	0	-1	0
22457675	6516	0	0	-100	0	230	101300000	1000	0	0	-1	0
22470235	6502	0	0	-100	0	230	101300000	1000	0	0	-1	0
22482795	6510	0	0	-100	0	230	101300000	1000	0	0	-1	0
22495355	6514	0	0	-100	0	230	101300000	1000	0	0	-1	0
22507915	6508	0	0	-100	0	230	101300000	1000	0	0	-1	0
22520475	6508	2	0	-100	0	230	101300000	1000	0	0	-1	0
22533035	6513	0	0	-100	0	230	101300000	1000	0	0	-1	0
22545595	6511	0	0	-100	0	230	101300000	1000	0	0	-1	0
22558155	6517	0	0	-100	0	230	101300000	1000	0	0	-1	0
22570715	6504	4	0	-100	0	230	101300000	1000	0	0	-1	0
22583275	6508	1	0	-100	0	230	101300000	1000	0	0	-1	0
22595835	6513	0	0	-100	0	230	101300000	1000	0	0	-1	0
22608395	6513	0	0	-100	0	230	101300000	1000	0	0	-1	0
22620955	6513	0	0	-100	0	230	101300000	1000	0	0	-1	0
22633515	6510	0	0	-100	0	230	101300000	1000	0	0	-1	0
22646075	6505	0	0	-100	0	230	101300000	1000	0	0	-1	0
22658635	6508	0	0	-100	0	230	101300000	1000	0	0	-1	0
22671195	6508	4	0	-100	0	230	101300000	1000	0	0	-1	0
22683755	6505	0	0	-100	0	230	101300000	1000	0	0	-1	0
22696315	6514	0	0	-100	0	230	101300000	1000	0	0	-1	0
22708875	6514	0	0	-100	0	230	101300000	1000	0	0	-1	0
22721435	6512	0	0	-100	0	230	101300000	1000	0	0	-1	0
22733995	6511	0	0	-100	0	230	101300000	1000	0	0	-1	0
22746555	6507	0	0	-100	0	230	101300000	1000	0	0	-1	0
22759115	6510	4	0	-100	0	230	101300000	1000	0	0	-1	0
22771675	6508	0	0	-100	0	230	101300000	1000	0	0	-1	0
22784235	6513	0	0	-100	0	230	101300000	1000	0	0	-1	0
22796795	6511	0	0	-100	0	230	101300000	1000	0	0	-1	0
22809355	6508	4	0	-100	0	230	101300000	1000	0	0	-1	0
22821915	6513	0	0	-100	0	230	101300000	1000	0	0	-1	0
22834475	6513	0	0	-100	0	230	101300000	1000	0	0	-1	0
22847035	6509	0	0	-100	0	230	101300000	1000	0	0	-1	0
22859595	6516	0	0	-100	0	230	101300000	1000	0	0	-1	0
22872155	6517	0	0	-100	0	230	101300000	1000	0	0	-1	0
22884715	6507	0	0	-100	0	230	101300000	1000	0	0	-1	0
22897275	6510	0	0	-100	0	230	101300000	1000	0	0	-1	0
22909835	6509	0	0	-100	0	230	101300000	1000	0	0	-1	0
22922395	6510	4	0	-100	0	230	101300000	1000	0	0	-1	0
22934955	6510	0	0	-100	0	230	101300000	1000	0	0	-1	0
22947515	6508	0	0	-100	0	230	101300000	1000	0	0	-1	0
22960075	6518	0	0	-100	0	230	101300000	1000	0	0	-1	0
22972635	6511	0	0	-100	0	230	101300000	1000	0	0	-1	0
22985195	6509	0	0	-100	0	230	101300000	1000	0	0	-1	0
22997755	6505	0	0	-100	0	230	101300000	1000	0	0	-1	0
23010315	6512	4	0	-100	0	230	101300000	1000	0	0	-1	0
23022875	6507	3	0	-100	0	230	101300000	1000	0	0	-1	0
23035435	6516	0	0	-100	0	230	101300000	1000	0	0	-1	0
23047995	6506	0	0	-100	0	230	101300000	1000	0	0	-1	0
23060555	6508	0	0	-100	0	230	101300000	1000	0	0	-1	0
23073115	6514	0	0	-100	0	230	101300000	1000	0	0	-1	0
23085675	6507	0	0	-100	0	230	101300000	1000	0	0	-1	0
23098235	6511	0	0	-100	0	230	101300000	1000	0	0	-1	0
23110795	6509	3	0	-100	0	230	101300000	1000	0	0	-1	0
23123355	6508	0	0	-100	0	230	101300000	1000	0	0	-1	0
23135915	6511	0	0	-100	0	230	101300000	1000	0	0	-1	0
23148475	6511	0	0	-100	0	230	101300000	1000	0	0	-1	0
23161035	6509	3	0	-100	0	230	101300000	1000	0	0	-1	0
23173595	6513	0	0	-100	0	230	101300000	1000	0	0	-1	0
23186155	6524	0	0	-100	0	230	101300000	1000	0	0	-1	0
23198715	6507	0	0	-100	0	230	101300000	1000	0	0	-1	0
23211275	6509	4	0	-100	0	230	101300000	1000	0	0	-1	0
23223835	6519	0	0	-100	0	230	101300000	1000	0	0	-1	0
23236395	6513	0	0	-100	0	230	101300000	1000	0	0	-1	0
23248955	6506	4	0	-100	0	230	101300000	1000	0	0	-1	0
23261515	6517	0	0	-100	0	230	101300000	1000	0	0	-1	0
23274075	6510	0	0	-100	0	230	101300000	1000	0	0	-1	0
23286635	6512	1	0	-100	0	230	101300000	1000	0	0	-1	0
23299195	6517	0	0	-100	0	230	101300000	1000	0	0	-1	0
23311755	6508	0	0	-100	0	230	101300000	1000	0	0	-1	0
23324315	6510	0	0	-100	0	230	101300000	1000	0	0	-1	0
23336875	6513	0	0	-100	0	230	101300000	1000	0	0	-1	0
23349435	6506	0	0	-100	0	230	101300000	1000	0	0	-1	0
23361995	6506	0	0	-100	0	230	101300000	1000	0	0	-1	0
23374555	6513	0	0	-100	0	230	101300000	1000	0	0	-1	0
23387115	6504	0	0	-100	0	230	101300000	1000	0	0	-1	0
23399675	6510	0	0	-100	0	230	101300000	1000	0	0	-1	0
23412235	6515	0	0	-100	0	230	101300000	1000	0	0	-1	0
23424795	6507	0	0	-100	0	230	101300000	1000	0	0	-1	0
23437355	6508	4	0	-100	0	230	101300000	1000	0	0	-1	0
23449915	6511	0	0	-100	0	230	101300000	1000	0	0	-1	0
23462475	6513	0	0	-100	0	230	101300000	1000	0	0	-1	0
23475035	6507	3	0	-100	0	230	101300000	1000	0	0	-1	0
23487595	6515	0	0	-100	0	230	101300000	1000	0	0	-1	0
23500155	6513	0	0	-100	0	230	101300000	1000	0	0	-1	0
23512715	6509	1	0	-100	0	230	101300000	1000	0	0	-1	0
23525275	6509	0	0	-100	0	230	101300000	1000	0	0	-1	0
23537835	6508	0	0	-100	0	230	101300000	1000	0	0	-1	0
23550395	6504	2	0	-100	0	230	101300000	1000	0	0	-1	0
23562955	6516	0	0	-100	0	230	101300000	1000	0	0	-1	0
23575515	6510	0	0	-100	0	230	101300000	1000	0	0	-1	0
23588075	6508	2	0	-100	0	230	101300000	1000	0	0	-1	0
23600635	6514	0	0	-100	0	230	101300000	1000	0	0	-1	0
23613195	6506	0	0	-100	0	230	101300000	1000	0	0	-1	0
23625755	6510	2	0	-100	0	230	101300000	1000	0	0	-1	0
23638315	6512	0	0	-100	0	230	101300000	1000	0	0	-1	0
23650875	6508	4	0	-100	0	230	101300000	1000	0	0	-1	0
23663435	6513	0	0	-100	0	230	101300000	1000	0	0	-1	0
23675995	6513	0	0	-100	0	230	101300000	1000	0	0	-1	0
23688555	6508	4	0	-100	0	230	101300000	1000	0	0	-1	0
23701115	6514	0	0	-100	0	230	101300000	1000	0	0	-1	0
23713675	6504	0	0	-100	0	230	101300000	1000	0	0	-1	0
23726235	6515	0	0	-100	0	230	101300000	1000	0	0	-1	0
23738795	6513	0	0	-100	0	230	101300000	1000	0	0	-1	0
23751355	6512	0	0	-100	0	230	101300000	1000	0	0	-1	0
23763915	6511	0	0	-100	0	230	101300000	1000	0	0	-1	0
23776475	6510	1	0	-100	0	230	101300000	1000	0	0	-1	0
23789035	6513	0	0	-100	0	230	101300000	1000	0	0	-1	0
23801595	6513	3	0	-100	0	230	101300000	1000	0	0	-1	0
23814155	6528	0	0	-100	0	230	101300000	1000	0	0	-1	0
23826715	6508	0	0	-100	0	230	101300000	1000	0	0	-1	0
23839275	6514	1	0	-100	0	230	101300000	1000	0	0	-1	0
23851835	6511	0	0	-100	0	230	101300000	1000	0	0	-1	0
23864395	6508	4	0	-100	0	230	101300000	1000	0	0	-1	0
23876955	6517	0	0	-100	0	230	101300000	1000	0	0	-1	0
23889515	6509	0	0	-100	0	230	101300000	1000	0	0	-1	0
23902075	6504	0	0	-100	0	230	101300000	1000	0	0	-1	0
23914635	6507	4	0	-100	0	230	101300000	1000	0	0	-1	0
23927195	6512	0	0	-100	0	230	101300000	1000	0	0	-1	0
23939755	6510	0	0	-100	0	230	101300000	1000	0	0	-1	0
23952315	6502	0	0	-100	0	230	101300000	1000	0	0	-1	0
23964875	6509	0	0	-100	0	230	101300000	1000	0	0	-1	0
23977435	6511	0	0	-100	0	230	101300000	1000	0	0	-1	0
23989995	6506	0	0	-100	0	230	101300000	1000	0	0	-1	0
24002555	6513	0	0	-100	0	230	101300000	1000	0	0	-1	0
24015115	6515	0	0	-100	0	230	101300000	1000	0	0	-1	0
24027675	6508	0	0	-100	0	230	101300000	1000	0	0	-1	0
24040235	6510	4	0	-100	0	230	101300000	1000	0	0	-1	0
24052795	6504	1	0	-100	0	230	101300000	1000	0	0	-1	0
24065355	6513	0	0	-100	0	230	101300000	1000	0	0	-1	0
24077915	6514	0	0	-100	0	230	101300000	1000	0	0	-1	0
24090475	6511	0	0	-100	0	230	101300000	1000	0	0	-1	0
24103035	6507	0	0	-100	0	230	101300000	1000	0	0	-1	0
24115595	6509	3	0	-100	0	230	101300000	1000	0	0	-1	0
24128155	6516	1	0	-100	0	230	101300000	1000	0	0	-1	0
24140715	6513	0	0	-100	0	230	101300000	1000	0	0	-1	0
24153275	6511	0	0	-100	0	230	101300000	1000	0	0	-1	0
24165835	6509	0	0	-100	0	230	101300000	1000	0	0	-1	0
24178395	6507	0	0	-100	0	230	101300000	1000	0	0	-1	0
24190955	6506	1	0	-100	0	230	101300000	1000	0	0	-1	0
24203515	6510	3	0	-100	0	230	101300000	1000	0	0	-1	0
24216075	6516	0	0	-100	0	230	101300000	1000	0	0	-1	0
24228635	6508	0	0	-100	0	230	101300000	1000	0	0	-1	0
24241195	6512	4	0	-100	0	230	101300000	1000	0	0	-1	0
24253755	6512	0	0	-100	0	230	101300000	1000	0	0	-1	0
24266315	6513	0	0	-100	0	230	101300000	1000	0	0	-1	0
24278875	6508	0	0	-100	0	230	101300000	1000	0	0	-1	0
24291435	6508	4	0	-100	0	230	101300000	1000	0	0	-1	0
24303995	6512	0	0	-100	0	230	101300000	1000	0	0	-1	0
24316555	6513	0	0	-100	0	230	101300000	1000	0	0	-1	0
24329115	6510	0	0	-100	0	230	101300000	1000	0	0	-1	0
24341675	6509	3	0	-100	0	230	101300000	1000	0	0	-1	0
24354235	6510	0	0	-100	0	230	101300000	1000	0	0	-1	0
24366795	6511	0	0	-100	0	230	101300000	1000	0	0	-1	0
24379355	6508	0	0	-100	0	230	101300000	1000	0	0	-1	0
24391915	6508	4	0	-100	0	230	101300000	1000	0	0	-1	0
24404475	6510	0	0	-100	0	230	101300000	1000	0	0	-1	0
24417035	6517	0	0	-100	0	230	101300000	1000	0	0	-1	0
24429595	6510	0	0	-100	0	230	101300000	1000	0	0	-1	0
24442155	6517	3	0	-100	0	230	101300000	1000	0	0	-1	0
24454715	6513	0	0	-100	0	230	101300000	1000	0	0	-1	0
24467275	6509	0	0	-100	0	230	101300000	1000	0	0	-1	0
24479835	6513	4	0	-100	0	230	101300000	1000	0	0	-1	0
24492395	6511	0	0	-100	0	230	101300000	1000	0	0	-1	0
24504955	6513	0	0	-100	0	230	101300000	1000	0	0	-1	0
24517515	6510	4	0	-100	0	230	101300000	1000	0	0	-1	0
24530075	6509	0	0	-100	0	230	101300000	1000	0	0	-1	0
24542635	6513	0	0	-100	0	230	101300000	1000	0	0	-1	0
24555195	6508	4	0	-100	0	230	101300000	1000	0	0	-1	0
24567755	6511	0	0	-100	0	230	101300000	1000	0	0	-1	0
24580315	6511	4	0	-100	0	230	101300000	1000	0	0	-1	0
24592875	6511	0	0	-100	0	230	101300000	1000	0	0	-1	0
24605435	6510	0	0	-100	0	230	101300000	1000	0	0	-1	0
24617995	6510	0	0	-100	0	230	101300000	1000	0	0	-1	0
24630555	6513	0	0	-100	0	230	101300000	1000	0	0	-1	0
24643115	6511	0	0	-100	0	230	101300000	1000	0	0	-1	0
24655675	6507	0	0	-100	0	230	101300000	1000	0	0	-1	0
24668235	6508	3	0	-100	0	230	101300000	1000	0	0	-1	0
24680795	6512	0	0	-100	0	230	101300000	1000	0	0	-1	0
24693355	6509	0	0	-100	0	230	101300000	1000	0	0	-1	0
24705915	6506	0	0	-100	0	230	101300000	1000	0	0	-1	0
24718475	6507	2	0	-100	0	230	101300000	1000	0	0	-1	0
24731035	6511	0	0	-100	0	230	101300000	1000	0	0	-1	0
24743595	6507	0	0	-100	0	230	101300000	1000	0	0	-1	0
24756155	6517	2	0	-100	0	230	101300000	1000	0	0	-1	0
24768715	6515	0	0	-100	0	230	101300000	1000	0	0	-1	0
24781275	6508	0	0	-100	0	230	101300000	1000	0	0	-1	0
24793835	6509	2	0	-100	0	230	101300000	1000	0	0	-1	0
24806395	6517	0	0	-100	0	230	101300000	1000	0	0	-1	0
24818955	6513	0	0	-100	0	230	101300000	1000	0	0	-1	0
24831515	6508	4	0	-100	0	230	101300000	1000	0	0	-1	0
24844075	6514	0	0	-100	0	230	101300000	1000	0	0	-1	0
24856635	6513	0	0	-100	0	230	101300000	1000	0	0	-1	0
24869195	6512	4	0	-100	0	230	101300000	1000	0	0	-1	0
24881755	6513	0	0	-100	0	230	101300000	1000	0	0	-1	0
24894315	6511	0	0	-100	0	230	101300000	1000	0	0	-1	0
24906875	6505	0	0	-100	0	230	101300000	1000	0	0	-1	0
24919435	6508	1	0	-100	0	230	101300000	1000	0	0	-1	0
24931995	6511	1	0	-100	0	230	101300000	1000	0	0	-1	0
24944555	6508	0	0	-100	0	230	101300000	1000	0	0	-1	0
24957115	6508	5	0	-100	0	230	101300000	1000	0	0	-1	0
24969675	6508	0	0	-100	0	230	101300000	1000	0	0	-1	0
24982235	6513	0	0	-100	0	230	101300000	1000	0	0	-1	0
24994795	6513	0	0	-100	0	230	101300000	1000	0	0	-1	0
25007355	6510	4	0	-100	0	230	101300000	1000	0	0	-1	0
25019915	6516	0	0	-100	0	230	101300000	1000	0	0	-1	0
25032475	6508	0	0	-100	0	230	101300000	1000	0	0	-1	0
25045035	6512	0	0	-100	0	230	101300000	1000	0	0	-1	0
25057595	6512	0	0	-100	0	230	101300000	1000	0	0	-1	0
25070155	6511	0	0	-100	0	230	101300000	1000	0	0	-1	0
25082715	6510	0	0	-100	0	230	101300000	1000	0	0	-1	0
25095275	6515	0	0	-100	0	230	101300000	1000	0	0	-1	0
25107835	6512	2	0	-100	0	230	101300000	1000	0	0	-1	0
25120395	6517	0	0	-100	0	230	101300000	1000	0	0	-1	0
25132955	6506	0	0	-100	0	230	101300000	1000	0	0	-1	0
25145515	6513	0	0	-100	0	230	101300000	1000	0	0	-1	0
25158075	6513	0	0	-100	0	230	101300000	1000	0	0	-1	0
25170635	6509	3	0	-100	0	230	101300000	1000	0	0	-1	0
25183195	6516	0	0	-100	0	230	101300000	1000	0	0	-1	0
25195755	6509	0	0	-100	0	230	101300000	1000	0	0	-1	0
25208315	6507	3	0	-100	0	230	101300000	1000	0	0	-1	0
25220875	6514	0	0	-100	0	230	101300000	1000	0	0	-1	0
25233435	6513	0	0	-100	0	230	101300000	1000	0	0	-1	0
25245995	6519	4	0	-100	0	230	101300000	1000	0	0	-1	0
25258555	6507	0	0	-100	0	230	101300000	1000	0	0	-1	0
25271115	6508	0	0	-100	0	230	101300000	1000	0	0	-1	0
25283675	6517	0	0	-100	0	230	101300000	1000	0	0	-1	0
25296235	6504	0	0	-100	0	230	101300000	1000	0	0	-1	0
25308795	6504	2	0	-100	0	230	101300000	1000	0	0	-1	0
25321355	6516	0	0	-100	0	230	101300000	1000	0	0	-1	0
25333915	6506	0	0	-100	0	230	101300000	1000	0	0	-1	0
25346475	6509	3	0	-100	0	230	101300000	1000	0	0	-1	0
25359035	6519	0	0	-100	0	230	101300000	1000	0	0	-1	0
25371595	6511	0	0	-100	0	230	101300000	1000	0	0	-1	0
25384155	6515	4	0	-100	0	230	101300000	1000	0	0	-1	0
25396715	6517	0	0	-100	0	230	101300000	1000	0	0	-1	0
25409275	6513	0	0	-100	0	230	101300000	1000	0	0	-1	0
25421835	6514	3	0	-100	0	230	101300000	1000	0	0	-1	0
25434395	6516	0	0	-100	0	230	101300000	1000	0	0	-1	0
25446955	6513	0	0	-100	0	230	101300000	1000	0	0	-1	0
25459515	6508	0	0	-100	0	230	101300000	1000	0	0	-1	0
25472075	6509	0	0	-100	0	230	101300000	1000	0	0	-1	0
25484635	6515	0	0	-100	0	230	101300000	1000	0	0	-1	0
25497195	6506	0	0	-100	0	230	101300000	1000	0	0	-1	0
25509755	6509	0	0	-100	0	230	101300000	1000	0	0	-1	0
25522315	6511	0	0	-100	0	230	101300000	1000	0	0	-1	0
25534875	6507	0	0	-100	0	230	101300000	1000	0	0	-1	0
25547435	6512	0	0	-100	0	230	101300000	1000	0	0	-1	0
25559995	6514	0	0	-100	0	230	101300000	1000	0	0	-1	0
25572555	6510	3	0	-100	0	230	101300000	1000	0	0	-1	0
25585115	6506	2	0	-100	0	230	101300000	1000	0	0	-1	0
25597675	6517	0	0	-100	0	230	101300000	1000	0	0	-1	0
25610235	6502	0	0	-100	0	230	101300000	1000	0	0	-1	0
25622795	6512	0	0	-100	0	230	101300000	1000	0	0	-1	0
25635355	6513	0	0	-100	0	230	101300000	1000	0	0	-1	0
25647915	6509	3	0	-100	0	230	101300000	1000	0	0	-1	0
25660475	6512	0	0	-100	0	230	101300000	1000	0	0	-1	0
25673035	6504	0	0	-100	0	230	101300000	1000	0	0	-1	0
25685595	6508	1	0	-100	0	230	101300000	1000	0	0	-1	0
25698155	6522	0	0	-100	0	230	101300000	1000	0	0	-1	0
25710715	6508	1	0	-100	0	230	101300000	1000	0	0	-1	0
25723275	6509	0	0	-100	0	230	101300000	1000	0	0	-1	0
25735835	6510	0	0	-100	0	230	101300000	1000	0	0	-1	0
25748395	6506	2	0	-100	0	230	101300000	1000	0	0	-1	0
25760955	6515	0	0	-100	0	230	101300000	1000	0	0	-1	0
25773515	6510	0	0	-100	0	230	101300000	1000	0	0	-1	0
25786075	6508	2	0	-100	0	230	101300000	1000	0	0	-1	0
25798635	6512	0	0	-100	0	230	101300000	1000	0	0	-1	0
25811195	6513	0	0	-100	0	230	101300000	1000	0	0	-1	0
25823755	6508	0	0	-100	0	230	101300000	1000	0	0	-1	0
25836315	6514	3	0	-100	0	230	101300000	1000	0	0	-1	0
25848875	6510	0	0	-100	0	230	101300000	1000	0	0	-1	0
25861435	6513	0	0	-100	0	230	101300000	1000	0	0	-1	0
25873995	6512	0	0	-100	0	230	101300000	1000	0	0	-1	0
25886555	6513	0	0	-100	0	230	101300000	1000	0	0	-1	0
25899115	6514	0	0	-100	0	230	101300000	1000	0	0	-1	0
25911675	6502	0	0	-100	0	230	101300000	1000	0	0	-1	0
25924235	6510	3	0	-100	0	230	101300000	1000	0	0	-1	0
25936795	6513	0	0	-100	0	230	101300000	1000	0	0	-1	0
25949355	6511	0	0	-100	0	230	101300000	1000	0	0	-1	0
25961915	6508	2	0	-100	0	230	101300000	1000	0	0	-1	0
25974475	6510	0	0	-100	0	230	101300000	1000	0	0	-1	0
25987035	6511	0	0	-100	0	230	101300000	1000	0	0	-1	0
25999595	6508	0	0	-100	0	230	101300000	1000	0	0	-1	0
26012155	6516	1	0	-100	0	230	101300000	1000	0	0	-1	0
26024715	6515	0	0	-100	0	230	101300000	1000	0	0	-1	0
26037275	6511	0	0	-100	0	230	101300000	1000	0	0	-1	0
26049835	6508	0	0	-100	0	230	101300000	1000	0	0	-1	0
26062395	6508	3	0	-100	0	230	101300000	1000	0	0	-1	0
26074955	6515	0	0	-100	0	230	101300000	1000	0	0	-1	0
26087515	6511	0	0	-100	0	230	101300000	1000	0	0	-1	0
26100075	6507	0	0	-100	0	230	101300000	1000	0	0	-1	0
26112635	6508	4	0	-100	0	230	101300000	1000	0	0	-1	0
26125195	6510	0	0	-100	0	230	101300000	1000	0	0	-1	0
26137755	6514	0	0	-100	0	230	101300000	1000	0	0	-1	0
26150315	6509	0	0	-100	0	230	101300000	1000	0	0	-1	0
26162875	6514	2	0	-100	0	230	101300000	1000	0	0	-1	0
26175435	6510	2	0	-100	0	230	101300000	1000	0	0	-1	0
26187995	6511	1	0	-100	0	230	101300000	1000	0	0	-1	0
26200555	6507	0	0	-100	0	230	101300000	1000	0	0	-1	0
26213115	6508	4	0	-100	0	230	101300000	1000	0	0	-1	0
26225675	6508	0	0	-100	0	230	101300000	1000	0	0	-1	0
26238235	6516	0	0	-100	0	230	101300000	1000	0	0	-1	0
26250795	6515	0	0	-100	0	230	101300000	1000	0	0	-1	0
26263355	6507	0	0	-100	0	230	101300000	1000	0	0	-1	0
26275915	6510	0	0	-100	0	230	101300000	1000	0	0	-1	0
26288475	6510	4	0	-100	0	230	101300000	1000	0	0	-1	0
26301035	6507	3	0	-100	0	230	101300000	1000	0	0	-1	0
26313595	6510	1	0	-100	0	230	101300000	1000	0	0	-1	0
26326155	6518	0	0	-100	0	230	101300000	1000	0	0	-1	0
26338715	6513	0	0	-100	0	230	101300000	1000	0	0	-1	0
26351275	6509	0	0	-100	0	230	101300000	1000	0	0	-1	0
26363835	6505	0	0	-100	0	230	101300000	1000	0	0	-1	0
26376395	6507	4	0	-100	0	230	101300000	1000	0	0	-1	0
26388955	6504	2	0	-100	0	230	101300000	1000	0	0	-1	0
26401515	6513	0	0	-100	0	230	101300000	1000	0	0	-1	0
26414075	6517	0	0	-100	0	230	101300000	1000	0	0	-1	0
26426635	6513	0	0	-100	0	230	101300000	1000	0	0	-1	0
26439195	6511	0	0	-100	0	230	101300000	1000	0	0	-1	0
26451755	6506	0	0	-100	0	230	101300000	1000	0	0	-1	0
26464315	6508	3	0	-100	0	230	101300000	1000	0	0	-1	0
26476875	6510	1	0	-100	0	230	101300000	1000	0	0	-1	0
26489435	6508	0	0	-100	0	230	101300000	1000	0	0	-1	0
26501995	6511	2	0	-100	0	230	101300000	1000	0	0	-1	0
26514555	6514	0	0	-100	0	230	101300000	1000	0	0	-1	0
26527115	6513	0	0	-100	0	230	101300000	1000	0	0	-1	0
26539675	6513	0	0	-100	0	230	101300000	1000	0	0	-1	0
26552235	6510	4	0	-100	0	230	101300000	1000	0	0	-1	0
26564795	6508	0	0	-100	0	230	101300000	1000	0	0	-1	0
26577355	6513	0	0	-100	0	230	101300000	1000	0	0	-1	0
26589915	6511	0	0	-100	0	230	101300000	1000	0	0	-1	0
26602475	6508	0	0	-100	0	230	101300000	1000	0	0	-1	0
26615035	6510	4	0	-100	0	230	101300000	1000	0	0	-1	0
26627595	6506	2	0	-100	0	230	101300000	1000	0	0	-1	0
26640155	6521	0	0	-100	0	230	101300000	1000	0	0	-1	0
26652715	6508	0	0	-100	0	230	101300000	1000	0	0	-1	0
26665275	6508	3	0	-100	0	230	101300000	1000	0	0	-1	0
26677835	6513	0	0	-100	0	230	101300000	1000	0	0	-1	0
26690395	6511	0	0	-100	0	230	101300000	1000	0	0	-1	0
26702955	6516	0	0	-100	0	230	101300000	1000	0	0	-1	0
26715515	6506	0	0	-100	0	230	101300000	1000	0	0	-1	0
26728075	6504	4	0	-100	0	230	101300000	1000	0	0	-1	0
26740635	6517	0	0	-100	0	230	101300000	1000	0	0	-1	0
26753195	6509	0	0	-100	0	230	101300000	1000	0	0	-1	0
26765755	6508	5	0	-100	0	230	101300000	1000	0	0	-1	0
26778315	6508	0	0	-100	0	230	101300000	1000	0	0	-1	0
26790875	6513	0	0	-100	0	230	101300000	1000	0	0	-1	0
26803435	6504	0	0	-100	0	230	101300000	1000	0	0	-1	0
26815995	6512	0	0	-100	0	230	101300000	1000	0	0	-1	0
26828555	6514	0	0	-100	0	230	101300000	1000	0	0	-1	0
26841115	6515	0	0	-100	0	230	101300000	1000	0	0	-1	0
26853675	6510	5	0	-100	0	230	101300000	1000	0	0	-1	0
26866235	6507	0	0	-100	0	230	101300000	1000	0	0	-1	0
26878795	6514	0	0	-100	0	230	101300000	1000	0	0	-1	0
26891355	6510	5	0	-100	0	230	101300000	1000	0	0	-1	0
26903915	6522	0	0	-100	0	230	101300000	1000	0	0	-1	0
26916475	6509	0	0	-100	0	230	101300000	1000	0	0	-1	0
26929035	6508	3	0	-100	0	230	101300000	1000	0	0	-1	0
26941595	6515	0	0	-100	0	230	101300000	1000	0	0	-1	0
26954155	6519	0	0	-100	0	230	101300000	1000	0	0	-1	0
26966715	6509	4	0	-100	0	230	101300000	1000	0	0	-1	0
26979275	6509	0	0	-100	0	230	101300000	1000	0	0	-1	0
26991835	6510	0	0	-100	0	230	101300000	1000	0	0	-1	0
27004395	6508	4	0	-100	0	230	101300000	1000	0	0	-1	0
27016955	6516	0	0	-100	0	230	101300000	1000	0	0	-1	0
27029515	6505	0	0	-100	0	230	101300000	1000	0	0	-1	0
27042075	6512	4	0	-100	0	230	101300000	1000	0	0	-1	0
