timestamp	voltage	current	windSpeed	pitchAngle	rpm	temperature	ambientPressure	humidity	accelerationX	accelerationY	accelerationZ	currentSink
7037070	7020	0	0	-100	0	230	101300000	1000	0	0	-1	0
7044523	7016	0	0	-100	0	230	101300000	1000	0	0	-1	0
7057083	7020	3	0	-100	0	230	101300000	1000	0	0	-1	0
7069643	7016	3	0	-100	0	230	101300000	1000	0	0	-1	0
7082203	7016	0	0	-100	0	230	101300000	1000	0	0	-1	0
7094763	7020	0	0	-100	0	230	101300000	1000	0	0	-1	0
7107323	7021	0	0	-100	0	230	101300000	1000	0	0	-1	0
7119883	7018	0	0	-100	0	230	101300000	1000	0	0	-1	0
7132443	7016	0	0	-100	0	230	101300000	1000	0	0	-1	0
7145004	7018	0	0	-100	0	230	101300000	1000	0	0	-1	0
7157563	7018	0	0	-100	0	230	101300000	1000	0	0	-1	0
7170123	7023	0	0	-100	0	230	101300000	1000	0	0	-1	0
7182683	7023	0	0	-100	0	230	101300000	1000	0	0	-1	0
7195243	7019	0	0	-100	0	230	101300000	1000	0	0	-1	0
7207803	7019	0	0	-100	0	230	101300000	1000	0	0	-1	0
7220363	7020	1	0	-100	0	230	101300000	1000	0	0	-1	0
7232923	7012	2	0	-100	0	230	101300000	1000	0	0	-1	0
7245483	7026	0	0	-100	0	230	101300000	1000	0	0	-1	0
7258043	7021	0	0	-100	0	230	101300000	1000	0	0	-1	0
7270603	7016	0	0	-100	0	230	101300000	1000	0	0	-1	0
7283163	7008	2	0	-100	0	230	101300000	1000	0	0	-1	0
7295723	7012	0	0	-100	0	230	101300000	1000	0	0	-1	0
7308283	7026	0	0	-100	0	230	101300000	1000	0	0	-1	0
7320843	7017	0	0	-100	0	230	101300000	1000	0	0	-1	0
7333403	7014	0	0	-100	0	230	101300000	1000	0	0	-1	0
7345963	7017	2	0	-100	0	230	101300000	1000	0	0	-1	0
7701675	7020	0	0	-100	0	230	101300000	1000	0	0	-1	0
7714235	7021	0	0	-100	0	230	101300000	1000	0	0	-1	0
7726795	7020	0	0	-100	0	230	101300000	1000	0	0	-1	0
7739355	7019	0	0	-100	0	230	101300000	1000	0	0	-1	0
7751915	7019	0	0	-100	0	230	101300000	1000	0	0	-1	0
7764475	7015	0	0	-100	0	230	101300000	1000	0	0	-1	0
7777035	7011	0	0	-100	0	230	101300000	1000	0	0	-1	0
7789595	7014	3	0	-100	0	230	101300000	1000	0	0	-1	0
7802155	7009	3	0	-100	0	230	101300000	1000	0	0	-1	0
7814715	7012	3	0	-100	0	230	101300000	1000	0	0	-1	0
7827275	7016	0	0	-100	0	230	101300000	1000	0	0	-1	0
7839835	7021	0	0	-100	0	230	101300000	1000	0	0	-1	0
7852395	7025	0	0	-100	0	230	101300000	1000	0	0	-1	0
7864955	7012	0	0	-100	0	230	101300000	1000	0	0	-1	0
7877515	7014	4	0	-100	0	230	101300000	1000	0	0	-1	0
7890075	7020	1	0	-100	0	230	101300000	1000	0	0	-1	0
7902635	7021	0	0	-100	0	230	101300000	1000	0	0	-1	0
7915195	7023	0	0	-100	0	230	101300000	1000	0	0	-1	0
7927755	7023	0	0	-100	0	230	101300000	1000	0	0	-1	0
7940315	7019	0	0	-100	0	230	101300000	1000	0	0	-1	0
7952875	7021	0	0	-100	0	230	101300000	1000	0	0	-1	0
7965435	7021	0	0	-100	0	230	101300000	1000	0	0	-1	0
7977995	7014	0	0	-100	0	230	101300000	1000	0	0	-1	0
7990555	7014	0	0	-100	0	230	101300000	1000	0	0	-1	0
8003115	7022	0	0	-100	0	230	101300000	1000	0	0	-1	0
8015675	7019	0	0	-100	0	230	101300000	1000	0	0	-1	0
8028235	7014	0	0	-100	0	230	101300000	1000	0	0	-1	0
8040795	7018	2	0	-100	0	230	101300000	1000	0	0	-1	0
8053355	7014	0	0	-100	0	230	101300000	1000	0	0	-1	0
8065915	7024	0	0	-100	0	230	101300000	1000	0	0	-1	0
8078475	7017	0	0	-100	0	230	101300000	1000	0	0	-1	0
8091035	7017	0	0	-100	0	230	101300000	1000	0	0	-1	0
8103595	7014	0	0	-100	0	230	101300000	1000	0	0	-1	0
8116155	7008	3	0	-100	0	230	101300000	1000	0	0	-1	0
8128715	7014	0	0	-100	0	230	101300000	1000	0	0	-1	0
8141275	7019	0	0	-100	0	230	101300000	1000	0	0	-1	0
8153835	7019	0	0	-100	0	230	101300000	1000	0	0	-1	0
8166395	7016	0	0	-100	0	230	101300000	1000	0	0	-1	0
8178955	7018	2	0	-100	0	230	101300000	1000	0	0	-1	0
8191515	7013	0	0	-100	0	230	101300000	1000	0	0	-1	0
8204075	7019	0	0	-100	0	230	101300000	1000	0	0	-1	0
8216635	7021	0	0	-100	0	230	101300000	1000	0	0	-1	0
8229195	7020	0	0	-100	0	230	101300000	1000	0	0	-1	0
8241755	7020	0	0	-100	0	230	101300000	1000	0	0	-1	0
8254315	7014	0	0	-100	0	230	101300000	1000	0	0	-1	0
8266875	7014	4	0	-100	0	230	101300000	1000	0	0	-1	0
8279435	7022	0	0	-100	0	230	101300000	1000	0	0	-1	0
8291995	7019	1	0	-100	0	230	101300000	1000	0	0	-1	0
8304555	7023	0	0	-100	0	230	101300000	1000	0	0	-1	0
8317115	7015	0	0	-100	0	230	101300000	1000	0	0	-1	0
8329675	7014	0	0	-100	0	230	101300000	1000	0	0	-1	0
8342235	7016	3	0	-100	0	230	101300000	1000	0	0	-1	0
8354795	7016	0	0	-100	0	230	101300000	1000	0	0	-1	0
8367355	7017	0	0	-100	0	230	101300000	1000	0	0	-1	0
8379915	7017	0	0	-100	0	230	101300000	1000	0	0	-1	0
8392475	7022	0	0	-100	0	230	101300000	1000	0	0	-1	0
8405035	7010	0	0	-100	0	230	101300000	1000	0	0	-1	0
8417595	7018	2	0	-100	0	230	101300000	1000	0	0	-1	0
8430155	7008	2	0	-100	0	230	101300000	1000	0	0	-1	0
8442715	7025	0	0	-100	0	230	101300000	1000	0	0	-1	0
8455275	7019	0	0	-100	0	230	101300000	1000	0	0	-1	0
8467835	7014	0	0	-100	0	230	101300000	1000	0	0	-1	0
8480395	7014	1	0	-100	0	230	101300000	1000	0	0	-1	0
8492955	7023	0	0	-100	0	230	101300000	1000	0	0	-1	0
8505515	7023	0	0	-100	0	230	101300000	1000	0	0	-1	0
8518075	7019	0	0	-100	0	230	101300000	1000	0	0	-1	0
8530635	7013	0	0	-100	0	230	101300000	1000	0	0	-1	0
8543195	7016	0	0	-100	0	230	101300000	1000	0	0	-1	0
8555755	7022	0	0	-100	0	230	101300000	1000	0	0	-1	0
8568315	7021	0	0	-100	0	230	101300000	1000	0	0	-1	0
8580875	7012	0	0	-100	0	230	101300000	1000	0	0	-1	0
8593435	7012	3	0	-100	0	230	101300000	1000	0	0	-1	0
8605995	7017	0	0	-100	0	230	101300000	1000	0	0	-1	0
8618555	7017	0	0	-100	0	230	101300000	1000	0	0	-1	0
8631115	7019	0	0	-100	0	230	101300000	1000	0	0	-1	0
8643675	7021	0	0	-100	0	230	101300000	1000	0	0	-1	0
8656235	7014	0	0	-100	0	230	101300000	1000	0	0	-1	0
8668795	7022	0	0	-100	0	230	101300000	1000	0	0	-1	0
8681355	7019	0	0	-100	0	230	101300000	1000	0	0	-1	0
8693915	7016	3	0	-100	0	230	101300000	1000	0	0	-1	0
8706475	7019	0	0	-100	0	230	101300000	1000	0	0	-1	0
8719035	7018	0	0	-100	0	230	101300000	1000	0	0	-1	0
8731595	7017	0	0	-100	0	230	101300000	1000	0	0	-1	0
8744155	7008	0	0	-100	0	230	101300000	1000	0	0	-1	0
8756715	7016	2	0	-100	0	230	101300000	1000	0	0	-1	0
8769275	7023	0	0	-100	0	230	101300000	1000	0	0	-1	0
8781835	7019	0	0	-100	0	230	101300000	1000	0	0	-1	0
8794395	7016	0	0	-100	0	230	101300000	1000	0	0	-1	0
8806955	7018	0	0	-100	0	230	101300000	1000	0	0	-1	0
8819515	7017	0	0	-100	0	230	101300000	1000	0	0	-1	0
8832075	7010	0	0	-100	0	230	101300000	1000	0	0	-1	0
8844635	7018	2	0	-100	0	230	101300000	1000	0	0	-1	0
8857195	7023	0	0	-100	0	230	101300000	1000	0	0	-1	0
8869755	7017	0	0	-100	0	230	101300000	1000	0	0	-1	0
8882315	7014	0	0	-100	0	230	101300000	1000	0	0	-1	0
8894875	7018	0	0	-100	0	230	101300000	1000	0	0	-1	0
8907435	7023	0	0	-100	0	230	101300000	1000	0	0	-1	0
8919995	7019	0	0	-100	0	230	101300000	1000	0	0	-1	0
8932555	7018	3	0	-100	0	230	101300000	1000	0	0	-1	0
8945115	7016	0	0	-100	0	230	101300000	1000	0	0	-1	0
8957675	7022	0	0	-100	0	230	101300000	1000	0	0	-1	0
8970235	7015	0	0	-100	0	230	101300000	1000	0	0	-1	0
8982795	7016	3	0	-100	0	230	101300000	1000	0	0	-1	0
8995355	7019	0	0	-100	0	230	101300000	1000	0	0	-1	0
9007915	7019	0	0	-100	0	230	101300000	1000	0	0	-1	0
9020475	7019	0	0	-100	0	230	101300000	1000	0	0	-1	0
9033035	7016	0	0	-100	0	230	101300000	1000	0	0	-1	0
9045595	7022	0	0	-100	0	230	101300000	1000	0	0	-1	0
9058155	7004	0	0	-100	0	230	101300000	1000	0	0	-1	0
9070715	7018	0	0	-100	0	230	101300000	1000	0	0	-1	0
9083275	7021	0	0	-100	0	230	101300000	1000	0	0	-1	0
9095835	7020	3	0	-100	0	230	101300000	1000	0	0	-1	0
9108395	7025	0	0	-100	0	230	101300000	1000	0	0	-1	0
9120955	7016	0	0	-100	0	230	101300000	1000	0	0	-1	0
9133515	7018	1	0	-100	0	230	101300000	1000	0	0	-1	0
9146075	7025	0	0	-100	0	230	101300000	1000	0	0	-1	0
9158635	7019	0	0	-100	0	230	101300000	1000	0	0	-1	0
9171195	7014	3	0	-100	0	230	101300000	1000	0	0	-1	0
9183755	7021	0	0	-100	0	230	101300000	1000	0	0	-1	0
9196315	7019	0	0	-100	0	230	101300000	1000	0	0	-1	0
9208875	7014	0	0	-100	0	230	101300000	1000	0	0	-1	0
9221435	7016	1	0	-100	0	230	101300000	1000	0	0	-1	0
9233995	7019	2	0	-100	0	230	101300000	1000	0	0	-1	0
9246555	7016	0	0	-100	0	230	101300000	1000	0	0	-1	0
9259115	7016	0	0	-100	0	230	101300000	1000	0	0	-1	0
9271675	7019	0	0	-100	0	230	101300000	1000	0	0	-1	0
9284235	7019	0	0	-100	0	230	101300000	1000	0	0	-1	0
9296795	7018	2	0	-100	0	230	101300000	1000	0	0	-1	0
9309355	7019	0	0	-100	0	230	101300000	1000	0	0	-1	0
9321915	7020	0	0	-100	0	230	101300000	1000	0	0	-1	0
9334475	7014	0	0	-100	0	230	101300000	1000	0	0	-1	0
9347035	7016	2	0	-100	0	230	101300000	1000	0	0	-1	0
9359595	7018	0	0	-100	0	230	101300000	1000	0	0	-1	0
9372155	7019	0	0	-100	0	230	101300000	1000	0	0	-1	0
9384715	7021	0	0	-100	0	230	101300000	1000	0	0	-1	0
9397275	7019	0	0	-100	0	230	101300000	1000	0	0	-1	0
9409835	7015	0	0	-100	0	230	101300000	1000	0	0	-1	0
9422395	7016	0	0	-100	0	230	101300000	1000	0	0	-1	0
9434955	7016	0	0	-100	0	230	101300000	1000	0	0	-1	0
9447515	7023	0	0	-100	0	230	101300000	1000	0	0	-1	0
9460075	7014	0	0	-100	0	230	101300000	1000	0	0	-1	0
9472635	7014	0	0	-100	0	230	101300000	1000	0	0	-1	0
9485195	7017	0	0	-100	0	230	101300000	1000	0	0	-1	0
9497755	7016	0	0	-100	0	230	101300000	1000	0	0	-1	0
9510315	7025	0	0	-100	0	230	101300000	1000	0	0	-1	0
9522875	7016	0	0	-100	0	230	101300000	1000	0	0	-1	0
9535435	7018	1	0	-100	0	230	101300000	1000	0	0	-1	0
9547995	7018	0	0	-100	0	230	101300000	1000	0	0	-1	0
9560555	7016	0	0	-100	0	230	101300000	1000	0	0	-1	0
9573115	7016	0	0	-100	0	230	101300000	1000	0	0	-1	0
9585675	7021	0	0	-100	0	230	101300000	1000	0	0	-1	0
9598235	7014	0	0	-100	0	230	101300000	1000	0	0	-1	0
9610795	7016	0	0	-100	0	230	101300000	1000	0	0	-1	0
9623355	7023	0	0	-100	0	230	101300000	1000	0	0	-1	0
9635915	7016	0	0	-100	0	230	101300000	1000	0	0	-1	0
9648475	7021	0	0	-100	0	230	101300000	1000	0	0	-1	0
9661035	7010	0	0	-100	0	230	101300000	1000	0	0	-1	0
9673595	7025	0	0	-100	0	230	101300000	1000	0	0	-1	0
9686155	7011	0	0	-100	0	230	101300000	1000	0	0	-1	0
9698715	7018	0	0	-100	0	230	101300000	1000	0	0	-1	0
9711275	7017	0	0	-100	0	230	101300000	1000	0	0	-1	0
9723835	7018	2	0	-100	0	230	101300000	1000	0	0	-1	0
9736395	7019	0	0	-100	0	230	101300000	1000	0	0	-1	0
9748955	7013	0	0	-100	0	230	101300000	1000	0	0	-1	0
9761515	7019	0	0	-100	0	230	101300000	1000	0	0	-1	0
9774075	7021	0	0	-100	0	230	101300000	1000	0	0	-1	0
9786635	7017	0	0	-100	0	230	101300000	1000	0	0	-1	0
9799195	7016	0	0	-100	0	230	101300000	1000	0	0	-1	0
9811755	7023	0	0	-100	0	230	101300000	1000	0	0	-1	0
9824315	7017	2	0	-100	0	230	101300000	1000	0	0	-1	0
9836875	7025	0	0	-100	0	230	101300000	1000	0	0	-1	0
9849435	7012	0	0	-100	0	230	101300000	1000	0	0	-1	0
9861995	7018	0	0	-100	0	230	101300000	1000	0	0	-1	0
9874555	7016	0	0	-100	0	230	101300000	1000	0	0	-1	0
9887115	7016	0	0	-100	0	230	101300000	1000	0	0	-1	0
9899675	7017	0	0	-100	0	230	101300000	1000	0	0	-1	0
9912235	7016	3	0	-100	0	230	101300000	1000	0	0	-1	0
9924795	7023	0	0	-100	0	230	101300000	1000	0	0	-1	0
9937355	7019	0	0	-100	0	230	101300000	1000	0	0	-1	0
9949915	7018	0	0	-100	0	230	101300000	1000	0	0	-1	0
9962475	7019	0	0	-100	0	230	101300000	1000	0	0	-1	0
9975035	7015	0	0	-100	0	230	101300000	1000	0	0	-1	0
9987595	7012	0	0	-100	0	230	101300000	1000	0	0	-1	0
10000155	7009	3	0	-100	0	230	101300000	1000	0	0	-1	0
10012715	7020	0	0	-100	0	230	101300000	1000	0	0	-1	0
10025275	7014	0	0	-100	0	230	101300000	1000	0	0	-1	0
10037835	7014	0	0	-100	0	230	101300000	1000	0	0	-1	0
10050395	7015	0	0	-100	0	230	101300000	1000	0	0	-1	0
10062955	7016	1	0	-100	0	230	101300000	1000	0	0	-1	0
10075515	7019	0	0	-100	0	230	101300000	1000	0	0	-1	0
10088075	7018	0	0	-100	0	230	101300000	1000	0	0	-1	0
10100635	7010	1	0	-100	0	230	101300000	1000	0	0	-1	0
10113195	7017	0	0	-100	0	230	101300000	1000	0	0	-1	0
10125755	7017	0	0	-100	0	230	101300000	1000	0	0	-1	0
10138315	7022	0	0	-100	0	230	101300000	1000	0	0	-1	0
10150875	7016	0	0	-100	0	230	101300000	1000	0	0	-1	0
10163435	7021	0	0	-100	0	230	101300000	1000	0	0	-1	0
10175995	7015	0	0	-100	0	230	101300000	1000	0	0	-1	0
10188555	7016	0	0	-100	0	230	101300000	1000	0	0	-1	0
10201115	7023	0	0	-100	0	230	101300000	1000	0	0	-1	0
10213675	7012	3	0	-100	0	230	101300000	1000	0	0	-1	0
10226235	7025	0	0	-100	0	230	101300000	1000	0	0	-1	0
10238795	7014	0	0	-100	0	230	101300000	1000	0	0	-1	0
10251355	7016	0	0	-100	0	230	101300000	1000	0	0	-1	0
10263915	7021	0	0	-100	0	230	101300000	1000	0	0	-1	0
10276475	7014	2	0	-100	0	230	101300000	1000	0	0	-1	0
10289035	7019	0	0	-100	0	230	101300000	1000	0	0	-1	0
10301595	7016	0	0	-100	0	230	101300000	1000	0	0	-1	0
10314155	7015	0	0	-100	0	230	101300000	1000	0	0	-1	0
10326715	7014	0	0	-100	0	230	101300000	1000	0	0	-1	0
10339275	7023	0	0	-100	0	230	101300000	1000	0	0	-1	0
10351835	7012	0	0	-100	0	230	101300000	1000	0	0	-1	0
10364395	7021	0	0	-100	0	230	101300000	1000	0	0	-1	0
10376955	7016	0	0	-100	0	230	101300000	1000	0	0	-1	0
10389515	7016	0	0	-100	0	230	101300000	1000	0	0	-1	0
10402075	7019	0	0	-100	0	230	101300000	1000	0	0	-1	0
10414635	7016	1	0	-100	0	230	101300000	1000	0	0	-1	0
10427195	7017	0	0	-100	0	230	101300000	1000	0	0	-1	0
10439755	7017	3	0	-100	0	230	101300000	1000	0	0	-1	0
10452315	7023	0	0	-100	0	230	101300000	1000	0	0	-1	0
10464875	7014	1	0	-100	0	230	101300000	1000	0	0	-1	0
10477435	7021	0	0	-100	0	230	101300000	1000	0	0	-1	0
10489995	7016	0	0	-100	0	230	101300000	1000	0	0	-1	0
10502555	7025	0	0	-100	0	230	101300000	1000	0	0	-1	0
10515115	7018	2	0	-100	0	230	101300000	1000	0	0	-1	0
10527675	7024	0	0	-100	0	230	101300000	1000	0	0	-1	0
10540235	7014	0	0	-100	0	230	101300000	1000	0	0	-1	0
10552795	7018	0	0	-100	0	230	101300000	1000	0	0	-1	0
10565355	7017	0	0	-100	0	230	101300000	1000	0	0	-1	0
10577915	7014	0	0	-100	0	230	101300000	1000	0	0	-1	0
10590475	7012	0	0	-100	0	230	101300000	1000	0	0	-1	0
10603035	7019	0	0	-100	0	230	101300000	1000	0	0	-1	0
10615595	7012	0	0	-100	0	230	101300000	1000	0	0	-1	0
10628155	7020	0	0	-100	0	230	101300000	1000	0	0	-1	0
10640715	7012	0	0	-100	0	230	101300000	1000	0	0	-1	0
10653275	7023	0	0	-100	0	230	101300000	1000	0	0	-1	0
10665835	7012	0	0	-100	0	230	101300000	1000	0	0	-1	0
10678395	7023	0	0	-100	0	230	101300000	1000	0	0	-1	0
10690955	7018	2	0	-100	0	230	101300000	1000	0	0	-1	0
10703515	7025	0	0	-100	0	230	101300000	1000	0	0	-1	0
10716075	7016	1	0	-100	0	230	101300000	1000	0	0	-1	0
10728635	7020	0	0	-100	0	230	101300000	1000	0	0	-1	0
10741195	7020	0	0	-100	0	230	101300000	1000	0	0	-1	0
10753755	7012	0	0	-100	0	230	101300000	1000	0	0	-1	0
10766315	7023	0	0	-100	0	230	101300000	1000	0	0	-1	0
10778875	7014	0	0	-100	0	230	101300000	1000	0	0	-1	0
10791435	7022	0	0	-100	0	230	101300000	1000	0	0	-1	0
10803995	7017	0	0	-100	0	230	101300000	1000	0	0	-1	0
10816555	7018	0	0	-100	0	230	101300000	1000	0	0	-1	0
10829115	7016	0	0	-100	0	230	101300000	1000	0	0	-1	0
10841675	7022	0	0	-100	0	230	101300000	1000	0	0	-1	0
10854235	7016	0	0	-100	0	230	101300000	1000	0	0	-1	0
10866795	7021	0	0	-100	0	230	101300000	1000	0	0	-1	0
10879355	7019	0	0	-100	0	230	101300000	1000	0	0	-1	0
10891915	7019	0	0	-100	0	230	101300000	1000	0	0	-1	0
10904475	7014	0	0	-100	0	230	101300000	1000	0	0	-1	0
10917035	7014	0	0	-100	0	230	101300000	1000	0	0	-1	0
10929595	7023	0	0	-100	0	230	101300000	1000	0	0	-1	0
10942155	7011	2	0	-100	0	230	101300000	1000	0	0	-1	0
10954715	7019	0	0	-100	0	230	101300000	1000	0	0	-1	0
10967275	7021	0	0	-100	0	230	101300000	1000	0	0	-1	0
10979835	7019	0	0	-100	0	230	101300000	1000	0	0	-1	0
10992395	7012	0	0	-100	0	230	101300000	1000	0	0	-1	0
11004955	7014	0	0	-100	0	230	101300000	1000	0	0	-1	0
11017515	7014	0	0	-100	0	230	101300000	1000	0	0	-1	0
11030075	7014	3	0	-100	0	230	101300000	1000	0	0	-1	0
11042635	7022	0	0	-100	0	230	101300000	1000	0	0	-1	0
11055195	7016	3	0	-100	0	230	101300000	1000	0	0	-1	0
11067755	7019	0	0	-100	0	230	101300000	1000	0	0	-1	0
11080315	7018	1	0	-100	0	230	101300000	1000	0	0	-1	0
11092875	7014	0	0	-100	0	230	101300000	1000	0	0	-1	0
11105435	7026	0	0	-100	0	230	101300000	1000	0	0	-1	0
11117995	7014	0	0	-100	0	230	101300000	1000	0	0	-1	0
11130555	7019	0	0	-100	0	230	101300000	1000	0	0	-1	0
11143115	7019	0	0	-100	0	230	101300000	1000	0	0	-1	0
11155675	7020	0	0	-100	0	230	101300000	1000	0	0	-1	0
11168235	7018	3	0	-100	0	230	101300000	1000	0	0	-1	0
11180795	7025	0	0	-100	0	230	101300000	1000	0	0	-1	0
11193355	7014	0	0	-100	0	230	101300000	1000	0	0	-1	0
11205915	7026	0	0	-100	0	230	101300000	1000	0	0	-1	0
11218475	7012	0	0	-100	0	230	101300000	1000	0	0	-1	0
11231035	7027	0	0	-100	0	230	101300000	1000	0	0	-1	0
11243595	7014	0	0	-100	0	230	101300000	1000	0	0	-1	0
11256155	7010	0	0	-100	0	230	101300000	1000	0	0	-1	0
11268715	7016	0	0	-100	0	230	101300000	1000	0	0	-1	0
11281275	7020	0	0	-100	0	230	101300000	1000	0	0	-1	0
11293835	7018	0	0	-100	0	230	101300000	1000	0	0	-1	0
11306395	7016	2	0	-100	0	230	101300000	1000	0	0	-1	0
11318955	7021	0	0	-100	0	230	101300000	1000	0	0	-1	0
11331515	7016	2	0	-100	0	230	101300000	1000	0	0	-1	0
11344075	7022	0	0	-100	0	230	101300000	1000	0	0	-1	0
11356635	7012	0	0	-100	0	230	101300000	1000	0	0	-1	0
11369195	7019	0	0	-100	0	230	101300000	1000	0	0	-1	0
11381755	7017	0	0	-100	0	230	101300000	1000	0	0	-1	0
11394315	7012	1	0	-100	0	230	101300000	1000	0	0	-1	0
11406875	7019	0	0	-100	0	230	101300000	1000	0	0	-1	0
11419435	7016	0	0	-100	0	230	101300000	1000	0	0	-1	0
11431995	7018	0	0	-100	0	230	101300000	1000	0	0	-1	0
11444555	7020	0	0	-100	0	230	101300000	1000	0	0	-1	0
11457115	7012	0	0	-100	0	230	101300000	1000	0	0	-1	0
11469675	7023	0	0	-100	0	230	101300000	1000	0	0	-1	0
11482235	7016	0	0	-100	0	230	101300000	1000	0	0	-1	0
11494795	7016	0	0	-100	0	230	101300000	1000	0	0	-1	0
11507355	7021	0	0	-100	0	230	101300000	1000	0	0	-1	0
11519915	7014	3	0	-100	0	230	101300000	1000	0	0	-1	0
11532475	7023	0	0	-100	0	230	101300000	1000	0	0	-1	0
11545035	7021	3	0	-100	0	230	101300000	1000	0	0	-1	0
11557595	7023	0	0	-100	0	230	101300000	1000	0	0	-1	0
11570155	7006	0	0	-100	0	230	101300000	1000	0	0	-1	0
11582715	7014	0	0	-100	0	230	101300000	1000	0	0	-1	0
11595275	7019	0	0	-100	0	230	101300000	1000	0	0	-1	0
11607835	7016	0	0	-100	0	230	101300000	1000	0	0	-1	0
11620395	7016	0	0	-100	0	230	101300000	1000	0	0	-1	0
11632955	7023	0	0	-100	0	230	101300000	1000	0	0	-1	0
11645515	7012	0	0	-100	0	230	101300000	1000	0	0	-1	0
11658075	7012	0	0	-100	0	230	101300000	1000	0	0	-1	0
11670635	7023	0	0	-100	0	230	101300000	1000	0	0	-1	0
11683195	7017	0	0	-100	0	230	101300000	1000	0	0	-1	0
11695755	7016	0	0	-100	0	230	101300000	1000	0	0	-1	0
11708315	7016	0	0	-100	0	230	101300000	1000	0	0	-1	0
11720875	7021	0	0	-100	0	230	101300000	1000	0	0	-1	0
11733435	7016	0	0	-100	0	230	101300000	1000	0	0	-1	0
11745995	7016	0	0	-100	0	230	101300000	1000	0	0	-1	0
11758555	7019	0	0	-100	0	230	101300000	1000	0	0	-1	0
11771115	7012	0	0	-100	0	230	101300000	1000	0	0	-1	0
11783675	7016	2	0	-100	0	230	101300000	1000	0	0	-1	0
11796235	7019	0	0	-100	0	230	101300000	1000	0	0	-1	0
11808795	7019	0	0	-100	0	230	101300000	1000	0	0	-1	0
11821355	7020	3	0	-100	0	230	101300000	1000	0	0	-1	0
11833915	7021	0	0	-100	0	230	101300000	1000	0	0	-1	0
11846475	7023	0	0	-100	0	230	101300000	1000	0	0	-1	0
11859035	7021	0	0	-100	0	230	101300000	1000	0	0	-1	0
11871595	7021	0	0	-100	0	230	101300000	1000	0	0	-1	0
11884155	7011	0	0	-100	0	230	101300000	1000	0	0	-1	0
11896715	7016	2	0	-100	0	230	101300000	1000	0	0	-1	0
11909275	7020	0	0	-100	0	230	101300000	1000	0	0	-1	0
11921835	7018	0	0	-100	0	230	101300000	1000	0	0	-1	0
11934395	7018	1	0	-100	0	230	101300000	1000	0	0	-1	0
11946955	7025	0	0	-100	0	230	101300000	1000	0	0	-1	0
11959515	7019	0	0	-100	0	230	101300000	1000	0	0	-1	0
11972075	7019	2	0	-100	0	230	101300000	1000	0	0	-1	0
11984635	7023	0	0	-100	0	230	101300000	1000	0	0	-1	0
11997195	7018	0	0	-100	0	230	101300000	1000	0	0	-1	0
12009755	7016	3	0	-100	0	230	101300000	1000	0	0	-1	0
12022315	7019	0	0	-100	0	230	101300000	1000	0	0	-1	0
12034875	7019	0	0	-100	0	230	101300000	1000	0	0	-1	0
12047435	7017	0	0	-100	0	230	101300000	1000	0	0	-1	0
12059995	7016	0	0	-100	0	230	101300000	1000	0	0	-1	0
12072555	7017	0	0	-100	0	230	101300000	1000	0	0	-1	0
12085115	7020	0	0	-100	0	230	101300000	1000	0	0	-1	0
12097675	7016	0	0	-100	0	230	101300000	1000	0	0	-1	0
12110235	7020	1	0	-100	0	230	101300000	1000	0	0	-1	0
12122795	7025	0	0	-100	0	230	101300000	1000	0	0	-1	0
12135355	7019	0	0	-100	0	230	101300000	1000	0	0	-1	0
12147915	7014	0	0	-100	0	230	101300000	1000	0	0	-1	0
12160475	7012	2	0	-100	0	230	101300000	1000	0	0	-1	0
12173035	7019	0	0	-100	0	230	101300000	1000	0	0	-1	0
12185595	7019	0	0	-100	0	230	101300000	1000	0	0	-1	0
12198155	7002	0	0	-100	0	230	101300000	1000	0	0	-1	0
12210715	7014	3	0	-100	0	230	101300000	1000	0	0	-1	0
12223275	7025	0	0	-100	0	230	101300000	1000	0	0	-1	0
12235835	7019	0	0	-100	0	230	101300000	1000	0	0	-1	0
12248395	7012	0	0	-100	0	230	101300000	1000	0	0	-1	0
12260955	7010	1	0	-100	0	230	101300000	1000	0	0	-1	0
12273515	7017	0	0	-100	0	230	101300000	1000	0	0	-1	0
12286075	7013	0	0	-100	0	230	101300000	1000	0	0	-1	0
12298635	7014	0	0	-100	0	230	101300000	1000	0	0	-1	0
12311195	7017	0	0	-100	0	230	101300000	1000	0	0	-1	0
12323755	7017	0	0	-100	0	230	101300000	1000	0	0	-1	0
12336315	7016	0	0	-100	0	230	101300000	1000	0	0	-1	0
12348875	7015	0	0	-100	0	230	101300000	1000	0	0	-1	0
12361435	7011	0	0	-100	0	230	101300000	1000	0	0	-1	0
12373995	7014	0	0	-100	0	230	101300000	1000	0	0	-1	0
12386555	7023	0	0	-100	0	230	101300000	1000	0	0	-1	0
12399115	7019	0	0	-100	0	230	101300000	1000	0	0	-1	0
12411675	7014	0	0	-100	0	230	101300000	1000	0	0	-1	0
12424235	7014	0	0	-100	0	230	101300000	1000	0	0	-1	0
12436795	7021	0	0	-100	0	230	101300000	1000	0	0	-1	0
12449355	7021	0	0	-100	0	230	101300000	1000	0	0	-1	0
12461915	7014	3	0	-100	0	230	101300000	1000	0	0	-1	0
12474475	7016	0	0	-100	0	230	101300000	1000	0	0	-1	0
12487035	7020	0	0	-100	0	230	101300000	1000	0	0	-1	0
12499595	7014	0	0	-100	0	230	101300000	1000	0	0	-1	0
12512155	7008	1	0	-100	0	230	101300000	1000	0	0	-1	0
12524715	7016	0	0	-100	0	230	101300000	1000	0	0	-1	0
12537275	7012	0	0	-100	0	230	101300000	1000	0	0	-1	0
12549835	7021	0	0	-100	0	230	101300000	1000	0	0	-1	0
12562395	7016	1	0	-100	0	230	101300000	1000	0	0	-1	0
12574955	7023	0	0	-100	0	230	101300000	1000	0	0	-1	0
12587515	7018	0	0	-100	0	230	101300000	1000	0	0	-1	0
12600075	7016	0	0	-100	0	230	101300000	1000	0	0	-1	0
12612635	7021	0	0	-100	0	230	101300000	1000	0	0	-1	0
12625195	7019	3	0	-100	0	230	101300000	1000	0	0	-1	0
12637755	7014	0	0	-100	0	230	101300000	1000	0	0	-1	0
12650315	7015	0	0	-100	0	230	101300000	1000	0	0	-1	0
12662875	7018	1	0	-100	0	230	101300000	1000	0	0	-1	0
12675435	7022	0	0	-100	0	230	101300000	1000	0	0	-1	0
12687995	7019	0	0	-100	0	230	101300000	1000	0	0	-1	0
12700555	7016	0	0	-100	0	230	101300000	1000	0	0	-1	0
12713115	7016	1	0	-100	0	230	101300000	1000	0	0	-1	0
12725675	7022	0	0	-100	0	230	101300000	1000	0	0	-1	0
12738235	7016	0	0	-100	0	230	101300000	1000	0	0	-1	0
12750795	7016	2	0	-100	0	230	101300000	1000	0	0	-1	0
12763355	7023	0	0	-100	0	230	101300000	1000	0	0	-1	0
12775915	7017	0	0	-100	0	230	101300000	1000	0	0	-1	0
12788475	7015	0	0	-100	0	230	101300000	1000	0	0	-1	0
12801035	7020	0	0	-100	0	230	101300000	1000	0	0	-1	0
12813595	7017	0	0	-100	0	230	101300000	1000	0	0	-1	0
12826155	7014	0	0	-100	0	230	101300000	1000	0	0	-1	0
12838715	7018	0	0	-100	0	230	101300000	1000	0	0	-1	0
12851275	7017	0	0	-100	0	230	101300000	1000	0	0	-1	0
12863835	7019	0	0	-100	0	230	101300000	1000	0	0	-1	0
12876395	7013	0	0	-100	0	230	101300000	1000	0	0	-1	0
12888955	7020	0	0	-100	0	230	101300000	1000	0	0	-1	0
12901515	7018	0	0	-100	0	230	101300000	1000	0	0	-1	0
12914075	7014	3	0	-100	0	230	101300000	1000	0	0	-1	0
12926635	7023	0	0	-100	0	230	101300000	1000	0	0	-1	0
12939195	7015	0	0	-100	0	230	101300000	1000	0	0	-1	0
12951755	7016	2	0	-100	0	230	101300000	1000	0	0	-1	0
12964315	7017	0	0	-100	0	230	101300000	1000	0	0	-1	0
12976875	7021	0	0	-100	0	230	101300000	1000	0	0	-1	0
12989435	7015	0	0	-100	0	230	101300000	1000	0	0	-1	0
13001995	7016	0	0	-100	0	230	101300000	1000	0	0	-1	0
13014555	7021	0	0	-100	0	230	101300000	1000	0	0	-1	0
13027115	7023	0	0	-100	0	230	101300000	1000	0	0	-1	0
13039675	7015	0	0	-100	0	230	101300000	1000	0	0	-1	0
13052235	7014	0	0	-100	0	230	101300000	1000	0	0	-1	0
13064795	7022	0	0	-100	0	230	101300000	1000	0	0	-1	0
13077355	7021	0	0	-100	0	230	101300000	1000	0	0	-1	0
13089915	7023	0	0	-100	0	230	101300000	1000	0	0	-1	0
13102475	7014	0	0	-100	0	230	101300000	1000	0	0	-1	0
13115035	7014	2	0	-100	0	230	101300000	1000	0	0	-1	0
13127595	7019	0	0	-100	0	230	101300000	1000	0	0	-1	0
13140155	7013	0	0	-100	0	230	101300000	1000	0	0	-1	0
13152715	7016	0	0	-100	0	230	101300000	1000	0	0	-1	0
13165275	7018	2	0	-100	0	230	101300000	1000	0	0	-1	0
13177835	7012	0	0	-100	0	230	101300000	1000	0	0	-1	0
13190395	7022	0	0	-100	0	230	101300000	1000	0	0	-1	0
13202955	7017	0	0	-100	0	230	101300000	1000	0	0	-1	0
13215515	7014	3	0	-100	0	230	101300000	1000	0	0	-1	0
13228075	7021	0	0	-100	0	230	101300000	1000	0	0	-1	0
13240635	7019	0	0	-100	0	230	101300000	1000	0	0	-1	0
13253195	7016	3	0	-100	0	230	101300000	1000	0	0	-1	0
13265755	7022	0	0	-100	0	230	101300000	1000	0	0	-1	0
13278315	7017	0	0	-100	0	230	101300000	1000	0	0	-1	0
13290875	7012	0	0	-100	0	230	101300000	1000	0	0	-1	0
13303435	7014	3	0	-100	0	230	101300000	1000	0	0	-1	0
13315995	7023	2	0	-100	0	230	101300000	1000	0	0	-1	0
13328555	7019	0	0	-100	0	230	101300000	1000	0	0	-1	0
13341115	7017	0	0	-100	0	230	101300000	1000	0	0	-1	0
13353675	7012	0	0	-100	0	230	101300000	1000	0	0	-1	0
13366235	7014	2	0	-100	0	230	101300000	1000	0	0	-1	0
13378795	7023	0	0	-100	0	230	101300000	1000	0	0	-1	0
13391355	7017	0	0	-100	0	230	101300000	1000	0	0	-1	0
13403915	7016	0	0	-100	0	230	101300000	1000	0	0	-1	0
13416475	7014	2	0	-100	0	230	101300000	1000	0	0	-1	0
13429035	7014	0	0	-100	0	230	101300000	1000	0	0	-1	0
13441595	7019	0	0	-100	0	230	101300000	1000	0	0	-1	0
13454155	7009	0	0	-100	0	230	101300000	1000	0	0	-1	0
13466715	7012	0	0	-100	0	230	101300000	1000	0	0	-1	0
13479275	7018	2	0	-100	0	230	101300000	1000	0	0	-1	0
13491835	7017	0	0	-100	0	230	101300000	1000	0	0	-1	0
13504395	7019	0	0	-100	0	230	101300000	1000	0	0	-1	0
13516955	7014	0	0	-100	0	230	101300000	1000	0	0	-1	0
13529515	7016	4	0	-100	0	230	101300000	1000	0	0	-1	0
13542075	7019	0	0	-100	0	230	101300000	1000	0	0	-1	0
13554635	7021	0	0	-100	0	230	101300000	1000	0	0	-1	0
13567195	7023	0	0	-100	0	230	101300000	1000	0	0	-1	0
13579755	7012	0	0	-100	0	230	101300000	1000	0	0	-1	0
13592315	7018	3	0	-100	0	230	101300000	1000	0	0	-1	0
13604875	7016	0	0	-100	0	230	101300000	1000	0	0	-1	0
13617435	7023	0	0	-100	0	230	101300000	1000	0	0	-1	0
13629995	7019	0	0	-100	0	230	101300000	1000	0	0	-1	0
13642555	7018	0	0	-100	0	230	101300000	1000	0	0	-1	0
13655115	7014	3	0	-100	0	230	101300000	1000	0	0	-1	0
13667675	7016	0	0	-100	0	230	101300000	1000	0	0	-1	0
13680235	7025	0	0	-100	0	230	101300000	1000	0	0	-1	0
13692795	7019	0	0	-100	0	230	101300000	1000	0	0	-1	0
13705355	7018	0	0	-100	0	230	101300000	1000	0	0	-1	0
13717915	7016	4	0	-100	0	230	101300000	1000	0	0	-1	0
13730475	7016	0	0	-100	0	230	101300000	1000	0	0	-1	0
13743035	7015	0	0	-100	0	230	101300000	1000	0	0	-1	0
13755595	7017	0	0	-100	0	230	101300000	1000	0	0	-1	0
13768155	7006	0	0	-100	0	230	101300000	1000	0	0	-1	0
13780715	7014	4	0	-100	0	230	101300000	1000	0	0	-1	0
13793275	7014	3	0	-100	0	230	101300000	1000	0	0	-1	0
13805835	7016	2	0	-100	0	230	101300000	1000	0	0	-1	0
13818395	7018	0	0	-100	0	230	101300000	1000	0	0	-1	0
13830955	7025	0	0	-100	0	230	101300000	1000	0	0	-1	0
13843515	7020	0	0	-100	0	230	101300000	1000	0	0	-1	0
13856075	7010	0	0	-100	0	230	101300000	1000	0	0	-1	0
13868635	7016	2	0	-100	0	230	101300000	1000	0	0	-1	0
13881195	7016	0	0	-100	0	230	101300000	1000	0	0	-1	0
13893755	7019	0	0	-100	0	230	101300000	1000	0	0	-1	0
13906315	7012	0	0	-100	0	230	101300000	1000	0	0	-1	0
13918875	7020	1	0	-100	0	230	101300000	1000	0	0	-1	0
13931435	7016	0	0	-100	0	230	101300000	1000	0	0	-1	0
13943995	7018	1	0	-100	0	230	101300000	1000	0	0	-1	0
13956555	7017	0	0	-100	0	230	101300000	1000	0	0	-1	0
13969115	7012	0	0	-100	0	230	101300000	1000	0	0	-1	0
13981675	7020	1	0	-100	0	230	101300000	1000	0	0	-1	0
13994235	7012	1	0	-100	0	230	101300000	1000	0	0	-1	0
14006795	7021	0	0	-100	0	230	101300000	1000	0	0	-1	0
14019355	7021	0	0	-100	0	230	101300000	1000	0	0	-1	0
14031915	7012	0	0	-100	0	230	101300000	1000	0	0	-1	0
14044475	7015	0	0	-100	0	230	101300000	1000	0	0	-1	0
14057035	7012	1	0	-100	0	230	101300000	1000	0	0	-1	0
14069595	7023	0	0	-100	0	230	101300000	1000	0	0	-1	0
14082155	7011	0	0	-100	0	230	101300000	1000	0	0	-1	0
14094715	7014	0	0	-100	0	230	101300000	1000	0	0	-1	0
14107275	7021	0	0	-100	0	230	101300000	1000	0	0	-1	0
14119835	7016	1	0	-100	0	230	101300000	1000	0	0	-1	0
14132395	7021	0	0	-100	0	230	101300000	1000	0	0	-1	0
14144955	7022	0	0	-100	0	230	101300000	1000	0	0	-1	0
14157515	7021	0	0	-100	0	230	101300000	1000	0	0	-1	0
14170075	7014	0	0	-100	0	230	101300000	1000	0	0	-1	0
14182635	7016	3	0	-100	0	230	101300000	1000	0	0	-1	0
14195195	7016	0	0	-100	0	230	101300000	1000	0	0	-1	0
14207755	7021	0	0	-100	0	230	101300000	1000	0	0	-1	0
14220315	7024	0	0	-100	0	230	101300000	1000	0	0	-1	0
14232875	7019	0	0	-100	0	230	101300000	1000	0	0	-1	0
14245435	7016	0	0	-100	0	230	101300000	1000	0	0	-1	0
14257995	7016	0	0	-100	0	230	101300000	1000	0	0	-1	0
14270555	7016	0	0	-100	0	230	101300000	1000	0	0	-1	0
14283115	7019	0	0	-100	0	230	101300000	1000	0	0	-1	0
14295675	7017	0	0	-100	0	230	101300000	1000	0	0	-1	0
14308235	7022	0	0	-100	0	230	101300000	1000	0	0	-1	0
14320795	7022	0	0	-100	0	230	101300000	1000	0	0	-1	0
14333355	7014	0	0	-100	0	230	101300000	1000	0	0	-1	0
14345915	7019	0	0	-100	0	230	101300000	1000	0	0	-1	0
14358475	7018	1	0	-100	0	230	101300000	1000	0	0	-1	0
14371035	7018	0	0	-100	0	230	101300000	1000	0	0	-1	0
14383595	7023	0	0	-100	0	230	101300000	1000	0	0	-1	0
14396155	7010	0	0	-100	0	230	101300000	1000	0	0	-1	0
14408715	7018	3	0	-100	0	230	101300000	1000	0	0	-1	0
14421275	7018	0	0	-100	0	230	101300000	1000	0	0	-1	0
14433835	7025	0	0	-100	0	230	101300000	1000	0	0	-1	0
14446395	7017	0	0	-100	0	230	101300000	1000	0	0	-1	0
14458955	7014	0	0	-100	0	230	101300000	1000	0	0	-1	0
14471515	7012	0	0	-100	0	230	101300000	1000	0	0	-1	0
14484075	7018	0	0	-100	0	230	101300000	1000	0	0	-1	0
14496635	7017	0	0	-100	0	230	101300000	1000	0	0	-1	0
14509195	7016	0	0	-100	0	230	101300000	1000	0	0	-1	0
14521755	7010	0	0	-100	0	230	101300000	1000	0	0	-1	0
14534315	7016	2	0	-100	0	230	101300000	1000	0	0	-1	0
14546875	7021	0	0	-100	0	230	101300000	1000	0	0	-1	0
14559435	7020	0	0	-100	0	230	101300000	1000	0	0	-1	0
14571995	7019	0	0	-100	0	230	101300000	1000	0	0	-1	0
14584555	7016	0	0	-100	0	230	101300000	1000	0	0	-1	0
14597115	7015	2	0	-100	0	230	101300000	1000	0	0	-1	0
14609675	7014	0	0	-100	0	230	101300000	1000	0	0	-1	0
14622235	7030	0	0	-100	0	230	101300000	1000	0	0	-1	0
14634795	7019	0	0	-100	0	230	101300000	1000	0	0	-1	0
14647355	7014	0	0	-100	0	230	101300000	1000	0	0	-1	0
14659915	7016	4	0	-100	0	230	101300000	1000	0	0	-1	0
14672475	7016	0	0	-100	0	230	101300000	1000	0	0	-1	0
14685035	7021	0	0	-100	0	230	101300000	1000	0	0	-1	0
14697595	7016	0	0	-100	0	230	101300000	1000	0	0	-1	0
14710155	7010	4	0	-100	0	230	101300000	1000	0	0	-1	0
14722715	7021	0	0	-100	0	230	101300000	1000	0	0	-1	0
14735275	7017	0	0	-100	0	230	101300000	1000	0	0	-1	0
14747835	7018	1	0	-100	0	230	101300000	1000	0	0	-1	0
14760395	7017	0	0	-100	0	230	101300000	1000	0	0	-1	0
14772955	7019	0	0	-100	0	230	101300000	1000	0	0	-1	0
14785515	7017	0	0	-100	0	230	101300000	1000	0	0	-1	0
14798075	7017	0	0	-100	0	230	101300000	1000	0	0	-1	0
14810635	7013	3	0	-100	0	230	101300000	1000	0	0	-1	0
14823195	7019	0	0	-100	0	230	101300000	1000	0	0	-1	0
14835755	7020	0	0	-100	0	230	101300000	1000	0	0	-1	0
14848315	7015	0	0	-100	0	230	101300000	1000	0	0	-1	0
14860875	7014	2	0	-100	0	230	101300000	1000	0	0	-1	0
14873435	7017	0	0	-100	0	230	101300000	1000	0	0	-1	0
14885995	7018	0	0	-100	0	230	101300000	1000	0	0	-1	0
14898555	7018	1	0	-100	0	230	101300000	1000	0	0	-1	0
14911115	7019	0	0	-100	0	230	101300000	1000	0	0	-1	0
14923675	7023	0	0	-100	0	230	101300000	1000	0	0	-1	0
14936235	7021	0	0	-100	0	230	101300000	1000	0	0	-1	0
14948795	7016	0	0	-100	0	230	101300000	1000	0	0	-1	0
14961355	7018	2	0	-100	0	230	101300000	1000	0	0	-1	0
14973915	7023	0	0	-100	0	230	101300000	1000	0	0	-1	0
14986475	7019	0	0	-100	0	230	101300000	1000	0	0	-1	0
14999035	7011	0	0	-100	0	230	101300000	1000	0	0	-1	0
15011595	7019	0	0	-100	0	230	101300000	1000	0	0	-1	0
15024155	7008	0	0	-100	0	230	101300000	1000	0	0	-1	0
15036715	7021	0	0	-100	0	230	101300000	1000	0	0	-1	0
15049275	7019	0	0	-100	0	230	101300000	1000	0	0	-1	0
15061835	7019	3	0	-100	0	230	101300000	1000	0	0	-1	0
15074395	7019	0	0	-100	0	230	101300000	1000	0	0	-1	0
15086955	7023	0	0	-100	0	230	101300000	1000	0	0	-1	0
15099515	7012	0	0	-100	0	230	101300000	1000	0	0	-1	0
15112075	7012	2	0	-100	0	230	101300000	1000	0	0	-1	0
15124635	7021	0	0	-100	0	230	101300000	1000	0	0	-1	0
15137195	7019	0	0	-100	0	230	101300000	1000	0	0	-1	0
15149755	7015	0	0	-100	0	230	101300000	1000	0	0	-1	0
15162315	7014	0	0	-100	0	230	101300000	1000	0	0	-1	0
15174875	7014	3	0	-100	0	230	101300000	1000	0	0	-1	0
15187435	7016	0	0	-100	0	230	101300000	1000	0	0	-1	0
15199995	7023	2	0	-100	0	230	101300000	1000	0	0	-1	0
15212555	7019	0	0	-100	0	230	101300000	1000	0	0	-1	0
15225115	7014	0	0	-100	0	230	101300000	1000	0	0	-1	0
15237675	7011	2	0	-100	0	230	101300000	1000	0	0	-1	0
15250235	7016	0	0	-100	0	230	101300000	1000	0	0	-1	0
15262795	7026	0	0	-100	0	230	101300000	1000	0	0	-1	0
15275355	7015	0	0	-100	0	230	101300000	1000	0	0	-1	0
15287915	7014	0	0	-100	0	230	101300000	1000	0	0	-1	0
15300475	7016	0	0	-100	0	230	101300000	1000	0	0	-1	0
15313035	7017	0	0	-100	0	230	101300000	1000	0	0	-1	0
15325595	7018	0	0	-100	0	230	101300000	1000	0	0	-1	0
15338155	7010	4	0	-100	0	230	101300000	1000	0	0	-1	0
15350715	7016	0	0	-100	0	230	101300000	1000	0	0	-1	0
15363275	7018	0	0	-100	0	230	101300000	1000	0	0	-1	0
15375835	7014	0	0	-100	0	230	101300000	1000	0	0	-1	0
15388395	7012	0	0	-100	0	230	101300000	1000	0	0	-1	0
15400955	7014	2	0	-100	0	230	101300000	1000	0	0	-1	0
15413515	7014	0	0	-100	0	230	101300000	1000	0	0	-1	0
15426075	7020	0	0	-100	0	230	101300000	1000	0	0	-1	0
15438635	7018	0	0	-100	0	230	101300000	1000	0	0	-1	0
15451195	7014	3	0	-100	0	230	101300000	1000	0	0	-1	0
15463755	7024	0	0	-100	0	230	101300000	1000	0	0	-1	0
15476315	7015	0	0	-100	0	230	101300000	1000	0	0	-1	0
15488875	7016	0	0	-100	0	230	101300000	1000	0	0	-1	0
15501435	7014	0	0	-100	0	230	101300000	1000	0	0	-1	0
15513995	7023	4	0	-100	0	230	101300000	1000	0	0	-1	0
15526555	7024	0	0	-100	0	230	101300000	1000	0	0	-1	0
15539115	7019	0	0	-100	0	230	101300000	1000	0	0	-1	0
15551675	7008	0	0	-100	0	230	101300000	1000	0	0	-1	0
15564235	7016	3	0	-100	0	230	101300000	1000	0	0	-1	0
15576795	7016	0	0	-100	0	230	101300000	1000	0	0	-1	0
15589355	7019	0	0	-100	0	230	101300000	1000	0	0	-1	0
15601915	7019	0	0	-100	0	230	101300000	1000	0	0	-1	0
15614475	7012	0	0	-100	0	230	101300000	1000	0	0	-1	0
15627035	7012	2	0	-100	0	230	101300000	1000	0	0	-1	0
15639595	7023	0	0	-100	0	230	101300000	1000	0	0	-1	0
15652155	7011	0	0	-100	0	230	101300000	1000	0	0	-1	0
15664715	7016	0	0	-100	0	230	101300000	1000	0	0	-1	0
15677275	7016	0	0	-100	0	230	101300000	1000	0	0	-1	0
15689835	7014	3	0	-100	0	230	101300000	1000	0	0	-1	0
15702395	7018	2	0	-100	0	230	101300000	1000	0	0	-1	0
15714955	7020	0	0	-100	0	230	101300000	1000	0	0	-1	0
15727515	7025	0	0	-100	0	230	101300000	1000	0	0	-1	0
15740075	7021	0	0	-100	0	230	101300000	1000	0	0	-1	0
15752635	7012	0	0	-100	0	230	101300000	1000	0	0	-1	0
15765195	7016	4	0	-100	0	230	101300000	1000	0	0	-1	0
15777755	7016	1	0	-100	0	230	101300000	1000	0	0	-1	0
15790315	7016	2	0	-100	0	230	101300000	1000	0	0	-1	0
15802875	7020	0	0	-100	0	230	101300000	1000	0	0	-1	0
15815435	7021	0	0	-100	0	230	101300000	1000	0	0	-1	0
15827995	7026	2	0	-100	0	230	101300000	1000	0	0	-1	0
15840555	7020	0	0	-100	0	230	101300000	1000	0	0	-1	0
15853115	7022	0	0	-100	0	230	101300000	1000	0	0	-1	0
15865675	7023	0	0	-100	0	230	101300000	1000	0	0	-1	0
15878235	7017	0	0	-100	0	230	101300000	1000	0	0	-1	0
15890795	7019	0	0	-100	0	230	101300000	1000	0	0	-1	0
15903355	7017	0	0	-100	0	230	101300000	1000	0	0	-1	0
15915915	7016	0	0	-100	0	230	101300000	1000	0	0	-1	0
15928475	7018	0	0	-100	0	230	101300000	1000	0	0	-1	0
15941035	7016	1	0	-100	0	230	101300000	1000	0	0	-1	0
15953595	7012	0	0	-100	0	230	101300000	1000	0	0	-1	0
15966155	7013	0	0	-100	0	230	101300000	1000	0	0	-1	0
15978715	7019	0	0	-100	0	230	101300000	1000	0	0	-1	0
15991275	7016	0	0	-100	0	230	101300000	1000	0	0	-1	0
16003835	7012	0	0	-100	0	230	101300000	1000	0	0	-1	0
16016395	7023	0	0	-100	0	230	101300000	1000	0	0	-1	0
16028955	7021	0	0	-100	0	230	101300000	1000	0	0	-1	0
16041515	7016	0	0	-100	0	230	101300000	1000	0	0	-1	0
16054075	7011	0	0	-100	0	230	101300000	1000	0	0	-1	0
16066635	7023	0	0	-100	0	230	101300000	1000	0	0	-1	0
16079195	7016	0	0	-100	0	230	101300000	1000	0	0	-1	0
16091755	7016	3	0	-100	0	230	101300000	1000	0	0	-1	0
16104315	7021	0	0	-100	0	230	101300000	1000	0	0	-1	0
16116875	7016	0	0	-100	0	230	101300000	1000	0	0	-1	0
16129435	7016	1	0	-100	0	230	101300000	1000	0	0	-1	0
16141995	7020	1	0	-100	0	230	101300000	1000	0	0	-1	0
16154555	7014	0	0	-100	0	230	101300000	1000	0	0	-1	0
16167115	7016	0	0	-100	0	230	101300000	1000	0	0	-1	0
16179675	7023	0	0	-100	0	230	101300000	1000	0	0	-1	0
16192235	7014	0	0	-100	0	230	101300000	1000	0	0	-1	0
16204795	7018	2	0	-100	0	230	101300000	1000	0	0	-1	0
16217355	7014	0	0	-100	0	230	101300000	1000	0	0	-1	0
16229915	7025	0	0	-100	0	230	101300000	1000	0	0	-1	0
16242475	7019	0	0	-100	0	230	101300000	1000	0	0	-1	0
16255035	7014	0	0	-100	0	230	101300000	1000	0	0	-1	0
16267595	7012	0	0	-100	0	230	101300000	1000	0	0	-1	0
16280155	7008	4	0	-100	0	230	101300000	1000	0	0	-1	0
16292715	7019	0	0	-100	0	230	101300000	1000	0	0	-1	0
16305275	7022	0	0	-100	0	230	101300000	1000	0	0	-1	0
16317835	7014	0	0	-100	0	230	101300000	1000	0	0	-1	0
16330395	7016	3	0	-100	0	230	101300000	1000	0	0	-1	0
16342955	7027	0	0	-100	0	230	101300000	1000	0	0	-1	0
16355515	7019	0	0	-100	0	230	101300000	1000	0	0	-1	0
16368075	7021	0	0	-100	0	230	101300000	1000	0	0	-1	0
16380635	7015	0	0	-100	0	230	101300000	1000	0	0	-1	0
16393195	7016	0	0	-100	0	230	101300000	1000	0	0	-1	0
16405755	7023	0	0	-100	0	230	101300000	1000	0	0	-1	0
16418315	7011	0	0	-100	0	230	101300000	1000	0	0	-1	0
16430875	7018	2	0	-100	0	230	101300000	1000	0	0	-1	0
16443435	7022	0	0	-100	0	230	101300000	1000	0	0	-1	0
16455995	7014	0	0	-100	0	230	101300000	1000	0	0	-1	0
16468555	7016	3	0	-100	0	230	101300000	1000	0	0	-1	0
16481115	7027	0	0	-100	0	230	101300000	1000	0	0	-1	0
16493675	7021	0	0	-100	0	230	101300000	1000	0	0	-1	0
16506235	7015	0	0	-100	0	230	101300000	1000	0	0	-1	0
16518795	7018	0	0	-100	0	230	101300000	1000	0	0	-1	0
16531355	7017	0	0	-100	0	230	101300000	1000	0	0	-1	0
16543915	7016	0	0	-100	0	230	101300000	1000	0	0	-1	0
16556475	7016	2	0	-100	0	230	101300000	1000	0	0	-1	0
16569035	7018	1	0	-100	0	230	101300000	1000	0	0	-1	0
16581595	7017	0	0	-100	0	230	101300000	1000	0	0	-1	0
16594155	7009	0	0	-100	0	230	101300000	1000	0	0	-1	0
16606715	7017	0	0	-100	0	230	101300000	1000	0	0	-1	0
16619275	7012	0	0	-100	0	230	101300000	1000	0	0	-1	0
16631835	7012	1	0	-100	0	230	101300000	1000	0	0	-1	0
16644395	7028	0	0	-100	0	230	101300000	1000	0	0	-1	0
16656955	7016	0	0	-100	0	230	101300000	1000	0	0	-1	0
16669515	7016	1	0	-100	0	230	101300000	1000	0	0	-1	0
16682075	7021	0	0	-100	0	230	101300000	1000	0	0	-1	0
16694635	7019	0	0	-100	0	230	101300000	1000	0	0	-1	0
16707195	7018	0	0	-100	0	230	101300000	1000	0	0	-1	0
16719755	7011	0	0	-100	0	230	101300000	1000	0	0	-1	0
16732315	7013	3	0	-100	0	230	101300000	1000	0	0	-1	0
16744875	7017	0	0	-100	0	230	101300000	1000	0	0	-1	0
16757435	7019	0	0	-100	0	230	101300000	1000	0	0	-1	0
16769995	7019	0	0	-100	0	230	101300000	1000	0	0	-1	0
16782555	7018	2	0	-100	0	230	101300000	1000	0	0	-1	0
16795115	7016	0	0	-100	0	230	101300000	1000	0	0	-1	0
16807675	7021	0	0	-100	0	230	101300000	1000	0	0	-1	0
16820235	7014	0	0	-100	0	230	101300000	1000	0	0	-1	0
16832795	7012	3	0	-100	0	230	101300000	1000	0	0	-1	0
16845355	7023	0	0	-100	0	230	101300000	1000	0	0	-1	0
16857915	7015	0	0	-100	0	230	101300000	1000	0	0	-1	0
16870475	7014	2	0	-100	0	230	101300000	1000	0	0	-1	0
16883035	7025	0	0	-100	0	230	101300000	1000	0	0	-1	0
16895595	7019	0	0	-100	0	230	101300000	1000	0	0	-1	0
16908155	7006	0	0	-100	0	230	101300000	1000	0	0	-1	0
16920715	7016	1	0	-100	0	230	101300000	1000	0	0	-1	0
16933275	7025	0	0	-100	0	230	101300000	1000	0	0	-1	0
16945835	7019	0	0	-100	0	230	101300000	1000	0	0	-1	0
16958395	7012	0	0	-100	0	230	101300000	1000	0	0	-1	0
16970955	7012	3	0	-100	0	230	101300000	1000	0	0	-1	0
16983515	7019	0	0	-100	0	230	101300000	1000	0	0	-1	0
16996075	7014	0	0	-100	0	230	101300000	1000	0	0	-1	0
17008635	7014	2	0	-100	0	230	101300000	1000	0	0	-1	0
17021195	7022	0	0	-100	0	230	101300000	1000	0	0	-1	0
17033755	7013	0	0	-100	0	230	101300000	1000	0	0	-1	0
17046315	7019	0	0	-100	0	230	101300000	1000	0	0	-1	0
17058875	7018	0	0	-100	0	230	101300000	1000	0	0	-1	0
17071435	7019	0	0	-100	0	230	101300000	1000	0	0	-1	0
17083995	7018	0	0	-100	0	230	101300000	1000	0	0	-1	0
17096555	7021	0	0	-100	0	230	101300000	1000	0	0	-1	0
17109115	7018	0	0	-100	0	230	101300000	1000	0	0	-1	0
17121675	7021	0	0	-100	0	230	101300000	1000	0	0	-1	0
17134235	7014	0	0	-100	0	230	101300000	1000	0	0	-1	0
17146795	7016	2	0	-100	0	230	101300000	1000	0	0	-1	0
17159355	7025	0	0	-100	0	230	101300000	1000	0	0	-1	0
17171915	7014	0	0	-100	0	230	101300000	1000	0	0	-1	0
17184475	7018	1	0	-100	0	230	101300000	1000	0	0	-1	0
17197035	7020	0	0	-100	0	230	101300000	1000	0	0	-1	0
17209595	7021	0	0	-100	0	230	101300000	1000	0	0	-1	0
17222155	7011	3	0	-100	0	230	101300000	1000	0	0	-1	0
17234715	7023	0	0	-100	0	230	101300000	1000	0	0	-1	0
17247275	7018	0	0	-100	0	230	101300000	1000	0	0	-1	0
17259835	7019	0	0	-100	0	230	101300000	1000	0	0	-1	0
17272395	7012	0	0	-100	0	230	101300000	1000	0	0	-1	0
17284955	7024	0	0	-100	0	230	101300000	1000	0	0	-1	0
17297515	7019	0	0	-100	0	230	101300000	1000	0	0	-1	0
17310075	7018	0	0	-100	0	230	101300000	1000	0	0	-1	0
17322635	7014	0	0	-100	0	230	101300000	1000	0	0	-1	0
17335195	7017	0	0	-100	0	230	101300000	1000	0	0	-1	0
17347755	7016	0	0	-100	0	230	101300000	1000	0	0	-1	0
17360315	7017	4	0	-100	0	230	101300000	1000	0	0	-1	0
17372875	7016	0	0	-100	0	230	101300000	1000	0	0	-1	0
17385435	7023	0	0	-100	0	230	101300000	1000	0	0	-1	0
17397995	7021	0	0	-100	0	230	101300000	1000	0	0	-1	0
17410555	7018	3	0	-100	0	230	101300000	1000	0	0	-1	0
17423115	7018	0	0	-100	0	230	101300000	1000	0	0	-1	0
17435675	7019	0	0	-100	0	230	101300000	1000	0	0	-1	0
17448235	7014	0	0	-100	0	230	101300000	1000	0	0	-1	0
17460795	7014	0	0	-100	0	230	101300000	1000	0	0	-1	0
17473355	7017	0	0	-100	0	230	101300000	1000	0	0	-1	0
17485915	7017	0	0	-100	0	230	101300000	1000	0	0	-1	0
17498475	7018	0	0	-100	0	230	101300000	1000	0	0	-1	0
17511035	7019	0	0	-100	0	230	101300000	1000	0	0	-1	0
17523595	7019	0	0	-100	0	230	101300000	1000	0	0	-1	0
17536155	7006	0	0	-100	0	230	101300000	1000	0	0	-1	0
17548715	7016	3	0	-100	0	230	101300000	1000	0	0	-1	0
17561275	7016	0	0	-100	0	230	101300000	1000	0	0	-1	0
17573835	7023	0	0	-100	0	230	101300000	1000	0	0	-1	0
17586395	7022	0	0	-100	0	230	101300000	1000	0	0	-1	0
17598955	7019	0	0	-100	0	230	101300000	1000	0	0	-1	0
17611515	7016	0	0	-100	0	230	101300000	1000	0	0	-1	0
17624075	7017	0	0	-100	0	230	101300000	1000	0	0	-1	0
17636635	7016	1	0	-100	0	230	101300000	1000	0	0	-1	0
17649195	7022	0	0	-100	0	230	101300000	1000	0	0	-1	0
17661755	7022	0	0	-100	0	230	101300000	1000	0	0	-1	0
17674315	7017	0	0	-100	0	230	101300000	1000	0	0	-1	0
17686875	7019	0	0	-100	0	230	101300000	1000	0	0	-1	0
17699435	7016	0	0	-100	0	230	101300000	1000	0	0	-1	0
17711995	7014	0	0	-100	0	230	101300000	1000	0	0	-1	0
17724555	7023	0	0	-100	0	230	101300000	1000	0	0	-1	0
17737115	7016	2	0	-100	0	230	101300000	1000	0	0	-1	0
17749675	7014	1	0	-100	0	230	101300000	1000	0	0	-1	0
17762235	7014	1	0	-100	0	230	101300000	1000	0	0	-1	0
17774795	7014	0	0	-100	0	230	101300000	1000	0	0	-1	0
17787355	7021	0	0	-100	0	230	101300000	1000	0	0	-1	0
17799915	7023	0	0	-100	0	230	101300000	1000	0	0	-1	0
17812475	7019	0	0	-100	0	230	101300000	1000	0	0	-1	0
17825035	7019	0	0	-100	0	230	101300000	1000	0	0	-1	0
17837595	7016	0	0	-100	0	230	101300000	1000	0	0	-1	0
17850155	7004	0	0	-100	0	230	101300000	1000	0	0	-1	0
17862715	7014	3	0	-100	0	230	101300000	1000	0	0	-1	0
17875275	7016	0	0	-100	0	230	101300000	1000	0	0	-1	0
17887835	7022	0	0	-100	0	230	101300000	1000	0	0	-1	0
17900395	7012	0	0	-100	0	230	101300000	1000	0	0	-1	0
17912955	7016	4	0	-100	0	230	101300000	1000	0	0	-1	0
17925515	7018	0	0	-100	0	230	101300000	1000	0	0	-1	0
17938075	7021	0	0	-100	0	230	101300000	1000	0	0	-1	0
17950635	7021	0	0	-100	0	230	101300000	1000	0	0	-1	0
17963195	7012	0	0	-100	0	230	101300000	1000	0	0	-1	0
17975755	7016	1	0	-100	0	230	101300000	1000	0	0	-1	0
17988315	7020	0	0	-100	0	230	101300000	1000	0	0	-1	0
18000875	7022	0	0	-100	0	230	101300000	1000	0	0	-1	0
18013435	7017	0	0	-100	0	230	101300000	1000	0	0	-1	0
18025995	7018	0	0	-100	0	230	101300000	1000	0	0	-1	0
18038555	7022	3	0	-100	0	230	101300000	1000	0	0	-1	0
18051115	7016	0	0	-100	0	230	101300000	1000	0	0	-1	0
18063675	7025	0	0	-100	0	230	101300000	1000	0	0	-1	0
18076235	7021	0	0	-100	0	230	101300000	1000	0	0	-1	0
18088795	7014	0	0	-100	0	230	101300000	1000	0	0	-1	0
18101355	7018	4	0	-100	0	230	101300000	1000	0	0	-1	0
18113915	7010	3	0	-100	0	230	101300000	1000	0	0	-1	0
18126475	7021	0	0	-100	0	230	101300000	1000	0	0	-1	0
18139035	7023	0	0	-100	0	230	101300000	1000	0	0	-1	0
18151595	7014	0	0	-100	0	230	101300000	1000	0	0	-1	0
18164155	7008	0	0	-100	0	230	101300000	1000	0	0	-1	0
18176715	7014	0	0	-100	0	230	101300000	1000	0	0	-1	0
18189275	7021	0	0	-100	0	230	101300000	1000	0	0	-1	0
18201835	7011	0	0	-100	0	230	101300000	1000	0	0	-1	0
18214395	7009	1	0	-100	0	230	101300000	1000	0	0	-1	0
18226955	7022	0	0	-100	0	230	101300000	1000	0	0	-1	0
18239515	7021	0	0	-100	0	230	101300000	1000	0	0	-1	0
18252075	7016	0	0	-100	0	230	101300000	1000	0	0	-1	0
18264635	7016	2	0	-100	0	230	101300000	1000	0	0	-1	0
18277195	7019	0	0	-100	0	230	101300000	1000	0	0	-1	0
18289755	7019	0	0	-100	0	230	101300000	1000	0	0	-1	0
18302315	7025	0	0	-100	0	230	101300000	1000	0	0	-1	0
18314875	7018	0	0	-100	0	230	101300000	1000	0	0	-1	0
18327435	7019	0	0	-100	0	230	101300000	1000	0	0	-1	0
18339995	7021	0	0	-100	0	230	101300000	1000	0	0	-1	0
18352555	7018	2	0	-100	0	230	101300000	1000	0	0	-1	0
18365115	7023	0	0	-100	0	230	101300000	1000	0	0	-1	0
18377675	7017	0	0	-100	0	230	101300000	1000	0	0	-1	0
18390235	7016	0	0	-100	0	230	101300000	1000	0	0	-1	0
18402795	7022	0	0	-100	0	230	101300000	1000	0	0	-1	0
18415355	7012	0	0	-100	0	230	101300000	1000	0	0	-1	0
18427915	7023	0	0	-100	0	230	101300000	1000	0	0	-1	0
18440475	7014	0	0	-100	0	230	101300000	1000	0	0	-1	0
18453035	7018	0	0	-100	0	230	101300000	1000	0	0	-1	0
18465595	7019	0	0	-100	0	230	101300000	1000	0	0	-1	0
18478155	7010	3	0	-100	0	230	101300000	1000	0	0	-1	0
18490715	7021	0	0	-100	0	230	101300000	1000	0	0	-1	0
18503275	7018	3	0	-100	0	230	101300000	1000	0	0	-1	0
18515835	7023	0	0	-100	0	230	101300000	1000	0	0	-1	0
18528395	7018	0	0	-100	0	230	101300000	1000	0	0	-1	0
18540955	7016	2	0	-100	0	230	101300000	1000	0	0	-1	0
18553515	7023	0	0	-100	0	230	101300000	1000	0	0	-1	0
18566075	7014	0	0	-100	0	230	101300000	1000	0	0	-1	0
18578635	7017	0	0	-100	0	230	101300000	1000	0	0	-1	0
18591195	7017	0	0	-100	0	230	101300000	1000	0	0	-1	0
18603755	7019	0	0	-100	0	230	101300000	1000	0	0	-1	0
18616315	7014	0	0	-100	0	230	101300000	1000	0	0	-1	0
18628875	7022	0	0	-100	0	230	101300000	1000	0	0	-1	0
18641435	7021	0	0	-100	0	230	101300000	1000	0	0	-1	0
18653995	7016	0	0	-100	0	230	101300000	1000	0	0	-1	0
18666555	7016	0	0	-100	0	230	101300000	1000	0	0	-1	0
18679115	7018	0	0	-100	0	230	101300000	1000	0	0	-1	0
18691675	7012	0	0	-100	0	230	101300000	1000	0	0	-1	0
18704235	7016	3	0	-100	0	230	101300000	1000	0	0	-1	0
18716795	7019	0	0	-100	0	230	101300000	1000	0	0	-1	0
18729355	7016	0	0	-100	0	230	101300000	1000	0	0	-1	0
18741915	7016	0	0	-100	0	230	101300000	1000	0	0	-1	0
18754475	7017	0	0	-100	0	230	101300000	1000	0	0	-1	0
18767035	7018	0	0	-100	0	230	101300000	1000	0	0	-1	0
18779595	7018	2	0	-100	0	230	101300000	1000	0	0	-1	0
18792155	7011	0	0	-100	0	230	101300000	1000	0	0	-1	0
18804715	7018	2	0	-100	0	230	101300000	1000	0	0	-1	0
18817275	7023	0	0	-100	0	230	101300000	1000	0	0	-1	0
18829835	7016	0	0	-100	0	230	101300000	1000	0	0	-1	0
18842395	7025	0	0	-100	0	230	101300000	1000	0	0	-1	0
18854955	7019	0	0	-100	0	230	101300000	1000	0	0	-1	0
18867515	7016	0	0	-100	0	230	101300000	1000	0	0	-1	0
18880075	7021	0	0	-100	0	230	101300000	1000	0	0	-1	0
18892635	7019	0	0	-100	0	230	101300000	1000	0	0	-1	0
18905195	7020	2	0	-100	0	230	101300000	1000	0	0	-1	0
18917755	7018	0	0	-100	0	230	101300000	1000	0	0	-1	0
18930315	7021	0	0	-100	0	230	101300000	1000	0	0	-1	0
18942875	7014	0	0	-100	0	230	101300000	1000	0	0	-1	0
18955435	7016	1	0	-100	0	230	101300000	1000	0	0	-1	0
18967995	7021	3	0	-100	0	230	101300000	1000	0	0	-1	0
18980555	7023	0	0	-100	0	230	101300000	1000	0	0	-1	0
18993115	7017	0	0	-100	0	230	101300000	1000	0	0	-1	0
19005675	7017	1	0	-100	0	230	101300000	1000	0	0	-1	0
19018235	7014	1	0	-100	0	230	101300000	1000	0	0	-1	0
19030795	7016	0	0	-100	0	230	101300000	1000	0	0	-1	0
19043355	7021	0	0	-100	0	230	101300000	1000	0	0	-1	0
19055915	7019	0	0	-100	0	230	101300000	1000	0	0	-1	0
19068475	7017	0	0	-100	0	230	101300000	1000	0	0	-1	0
19081035	7019	0	0	-100	0	230	101300000	1000	0	0	-1	0
19093595	7012	0	0	-100	0	230	101300000	1000	0	0	-1	0
19106155	7012	4	0	-100	0	230	101300000	1000	0	0	-1	0
19118715	7014	3	0	-100	0	230	101300000	1000	0	0	-1	0
19131275	7018	0	0	-100	0	230	101300000	1000	0	0	-1	0
19143835	7023	0	0	-100	0	230	101300000	1000	0	0	-1	0
19156395	7015	0	0	-100	0	230	101300000	1000	0	0	-1	0
19168955	7012	3	0	-100	0	230	101300000	1000	0	0	-1	0
19181515	7021	0	0	-100	0	230	101300000	1000	0	0	-1	0
19194075	7018	0	0	-100	0	230	101300000	1000	0	0	-1	0
19206635	7016	3	0	-100	0	230	101300000	1000	0	0	-1	0
19219195	7025	0	0	-100	0	230	101300000	1000	0	0	-1	0
19231755	7014	0	0	-100	0	230	101300000	1000	0	0	-1	0
19244315	7018	0	0	-100	0	230	101300000	1000	0	0	-1	0
19256875	7017	0	0	-100	0	230	101300000	1000	0	0	-1	0
19269435	7014	3	0	-100	0	230	101300000	1000	0	0	-1	0
19281995	7025	3	0	-100	0	230	101300000	1000	0	0	-1	0
19294555	7016	0	0	-100	0	230	101300000	1000	0	0	-1	0
19307115	7021	0	0	-100	0	230	101300000	1000	0	0	-1	0
19319675	7021	0	0	-100	0	230	101300000	1000	0	0	-1	0
19332235	7014	1	0	-100	0	230	101300000	1000	0	0	-1	0
19344795	7019	0	0	-100	0	230	101300000	1000	0	0	-1	0
19357355	7016	0	0	-100	0	230	101300000	1000	0	0	-1	0
19369915	7014	3	0	-100	0	230	101300000	1000	0	0	-1	0
19382475	7023	0	0	-100	0	230	101300000	1000	0	0	-1	0
19395035	7019	0	0	-100	0	230	101300000	1000	0	0	-1	0
19407595	7014	0	0	-100	0	230	101300000	1000	0	0	-1	0
19420155	7006	4	0	-100	0	230	101300000	1000	0	0	-1	0
19432715	7021	0	0	-100	0	230	101300000	1000	0	0	-1	0
19445275	7022	0	0	-100	0	230	101300000	1000	0	0	-1	0
19457835	7017	0	0	-100	0	230	101300000	1000	0	0	-1	0
19470395	7010	0	0	-100	0	230	101300000	1000	0	0	-1	0
19482955	7014	1	0	-100	0	230	101300000	1000	0	0	-1	0
19495515	7011	0	0	-100	0	230	101300000	1000	0	0	-1	0
19508075	7022	0	0	-100	0	230	101300000	1000	0	0	-1	0
19520635	7015	0	0	-100	0	230	101300000	1000	0	0	-1	0
19533195	7014	3	0	-100	0	230	101300000	1000	0	0	-1	0
19545755	7021	0	0	-100	0	230	101300000	1000	0	0	-1	0
19558315	7015	0	0	-100	0	230	101300000	1000	0	0	-1	0
19570875	7019	0	0	-100	0	230	101300000	1000	0	0	-1	0
19583435	7014	0	0	-100	0	230	101300000	1000	0	0	-1	0
19595995	7016	0	0	-100	0	230	101300000	1000	0	0	-1	0
19608555	7012	0	0	-100	0	230	101300000	1000	0	0	-1	0
19621115	7022	0	0	-100	0	230	101300000	1000	0	0	-1	0
19633675	7019	0	0	-100	0	230	101300000	1000	0	0	-1	0
19646235	7019	0	0	-100	0	230	101300000	1000	0	0	-1	0
19658795	7021	0	0	-100	0	230	101300000	1000	0	0	-1	0
19671355	7012	0	0	-100	0	230	101300000	1000	0	0	-1	0
19683915	7016	2	0	-100	0	230	101300000	1000	0	0	-1	0
19696475	7018	2	0	-100	0	230	101300000	1000	0	0	-1	0
19709035	7018	0	0	-100	0	230	101300000	1000	0	0	-1	0
19721595	7014	0	0	-100	0	230	101300000	1000	0	0	-1	0
19734155	7012	0	0	-100	0	230	101300000	1000	0	0	-1	0
19746715	7022	0	0	-100	0	230	101300000	1000	0	0	-1	0
19759275	7021	0	0	-100	0	230	101300000	1000	0	0	-1	0
19771835	7019	0	0	-100	0	230	101300000	1000	0	0	-1	0
19784395	7014	0	0	-100	0	230	101300000	1000	0	0	-1	0
19796955	7016	3	0	-100	0	230	101300000	1000	0	0	-1	0
19809515	7018	0	0	-100	0	230	101300000	1000	0	0	-1	0
19822075	7019	0	0	-100	0	230	101300000	1000	0	0	-1	0
19834635	7022	0	0	-100	0	230	101300000	1000	0	0	-1	0
19847195	7022	0	0	-100	0	230	101300000	1000	0	0	-1	0
19859755	7017	0	0	-100	0	230	101300000	1000	0	0	-1	0
19872315	7018	0	0	-100	0	230	101300000	1000	0	0	-1	0
19884875	7014	0	0	-100	0	230	101300000	1000	0	0	-1	0
19897435	7016	1	0	-100	0	230	101300000	1000	0	0	-1	0
19909995	7012	0	0	-100	0	230	101300000	1000	0	0	-1	0
19922555	7021	0	0	-100	0	230	101300000	1000	0	0	-1	0
19935115	7021	0	0	-100	0	230	101300000	1000	0	0	-1	0
19947675	7019	0	0	-100	0	230	101300000	1000	0	0	-1	0
19960235	7019	0	0	-100	0	230	101300000	1000	0	0	-1	0
19972795	7014	0	0	-100	0	230	101300000	1000	0	0	-1	0
19985355	7014	0	0	-100	0	230	101300000	1000	0	0	-1	0
19997915	7018	4	0	-100	0	230	101300000	1000	0	0	-1	0
20010475	7018	1	0	-100	0	230	101300000	1000	0	0	-1	0
20023035	7022	0	0	-100	0	230	101300000	1000	0	0	-1	0
20035595	7019	0	0	-100	0	230	101300000	1000	0	0	-1	0
20048155	7011	0	0	-100	0	230	101300000	1000	0	0	-1	0
20060715	7016	0	0	-100	0	230	101300000	1000	0	0	-1	0
20073275	7018	0	0	-100	0	230	101300000	1000	0	0	-1	0
20085835	7016	2	0	-100	0	230	101300000	1000	0	0	-1	0
20098395	7018	0	0	-100	0	230	101300000	1000	0	0	-1	0
20110955	7020	0	0	-100	0	230	101300000	1000	0	0	-1	0
20123515	7022	0	0	-100	0	230	101300000	1000	0	0	-1	0
20136075	7017	0	0	-100	0	230	101300000	1000	0	0	-1	0
20148635	7012	0	0	-100	0	230	101300000	1000	0	0	-1	0
20161195	7021	1	0	-100	0	230	101300000	1000	0	0	-1	0
20173755	7014	3	0	-100	0	230	101300000	1000	0	0	-1	0
20186315	7018	0	0	-100	0	230	101300000	1000	0	0	-1	0
20198875	7023	0	0	-100	0	230	101300000	1000	0	0	-1	0
20211435	7021	0	0	-100	0	230	101300000	1000	0	0	-1	0
20223995	7023	0	0	-100	0	230	101300000	1000	0	0	-1	0
20236555	7019	0	0	-100	0	230	101300000	1000	0	0	-1	0
20249115	7018	0	0	-100	0	230	101300000	1000	0	0	-1	0
20261675	7014	0	0	-100	0	230	101300000	1000	0	0	-1	0
20274235	7018	3	0	-100	0	230	101300000	1000	0	0	-1	0
20286795	7014	0	0	-100	0	230	101300000	1000	0	0	-1	0
20299355	7023	0	0	-100	0	230	101300000	1000	0	0	-1	0
20311915	7019	0	0	-100	0	230	101300000	1000	0	0	-1	0
20324475	7017	0	0	-100	0	230	101300000	1000	0	0	-1	0
20337035	7016	0	0	-100	0	230	101300000	1000	0	0	-1	0
20349595	7017	3	0	-100	0	230	101300000	1000	0	0	-1	0
20362155	7014	3	0	-100	0	230	101300000	1000	0	0	-1	0
20374715	7016	0	0	-100	0	230	101300000	1000	0	0	-1	0
20387275	7022	0	0	-100	0	230	101300000	1000	0	0	-1	0
20399835	7016	0	0	-100	0	230	101300000	1000	0	0	-1	0
20412395	7018	3	0	-100	0	230	101300000	1000	0	0	-1	0
20424955	7020	0	0	-100	0	230	101300000	1000	0	0	-1	0
20437515	7019	0	0	-100	0	230	101300000	1000	0	0	-1	0
20450075	7017	0	0	-100	0	230	101300000	1000	0	0	-1	0
20462635	7010	0	0	-100	0	230	101300000	1000	0	0	-1	0
20475195	7018	2	0	-100	0	230	101300000	1000	0	0	-1	0
20487755	7014	1	0	-100	0	230	101300000	1000	0	0	-1	0
20500315	7019	0	0	-100	0	230	101300000	1000	0	0	-1	0
20512875	7026	0	0	-100	0	230	101300000	1000	0	0	-1	0
20525435	7015	0	0	-100	0	230	101300000	1000	0	0	-1	0
20537995	7015	0	0	-100	0	230	101300000	1000	0	0	-1	0
20550555	7016	0	0	-100	0	230	101300000	1000	0	0	-1	0
20563115	7022	0	0	-100	0	230	101300000	1000	0	0	-1	0
20575675	7019	0	0	-100	0	230	101300000	1000	0	0	-1	0
20588235	7013	0	0	-100	0	230	101300000	1000	0	0	-1	0
20600795	7016	1	0	-100	0	230	101300000	1000	0	0	-1	0
20613355	7021	0	0	-100	0	230	101300000	1000	0	0	-1	0
20625915	7019	0	0	-100	0	230	101300000	1000	0	0	-1	0
20638475	7014	0	0	-100	0	230	101300000	1000	0	0	-1	0
20651035	7018	1	0	-100	0	230	101300000	1000	0	0	-1	0
20663595	7025	0	0	-100	0	230	101300000	1000	0	0	-1	0
20676155	7011	0	0	-100	0	230	101300000	1000	0	0	-1	0
20688715	7011	0	0	-100	0	230	101300000	1000	0	0	-1	0
20701275	7016	2	0	-100	0	230	101300000	1000	0	0	-1	0
20713835	7014	0	0	-100	0	230	101300000	1000	0	0	-1	0
20726395	7019	0	0	-100	0	230	101300000	1000	0	0	-1	0
20738955	7019	0	0	-100	0	230	101300000	1000	0	0	-1	0
20751515	7010	0	0	-100	0	230	101300000	1000	0	0	-1	0
20764075	7018	0	0	-100	0	230	101300000	1000	0	0	-1	0
20776635	7021	0	0	-100	0	230	101300000	1000	0	0	-1	0
20789195	7012	0	0	-100	0	230	101300000	1000	0	0	-1	0
20801755	7018	2	0	-100	0	230	101300000	1000	0	0	-1	0
20814315	7019	0	0	-100	0	230	101300000	1000	0	0	-1	0
20826875	7015	0	0	-100	0	230	101300000	1000	0	0	-1	0
20839435	7017	1	0	-100	0	230	101300000	1000	0	0	-1	0
20851995	7018	0	0	-100	0	230	101300000	1000	0	0	-1	0
20864555	7022	0	0	-100	0	230	101300000	1000	0	0	-1	0
20877115	7014	0	0	-100	0	230	101300000	1000	0	0	-1	0
20889675	7016	3	0	-100	0	230	101300000	1000	0	0	-1	0
20902235	7017	0	0	-100	0	230	101300000	1000	0	0	-1	0
20914795	7023	0	0	-100	0	230	101300000	1000	0	0	-1	0
20927355	7011	0	0	-100	0	230	101300000	1000	0	0	-1	0
20939915	7017	0	0	-100	0	230	101300000	1000	0	0	-1	0
20952475	7017	0	0	-100	0	230	101300000	1000	0	0	-1	0
20965035	7014	0	0	-100	0	230	101300000	1000	0	0	-1	0
20977595	7018	2	0	-100	0	230	101300000	1000	0	0	-1	0
20990155	7013	0	0	-100	0	230	101300000	1000	0	0	-1	0
21002715	7023	0	0	-100	0	230	101300000	1000	0	0	-1	0
21015275	7016	0	0	-100	0	230	101300000	1000	0	0	-1	0
21027835	7016	1	0	-100	0	230	101300000	1000	0	0	-1	0
21040395	7019	0	0	-100	0	230	101300000	1000	0	0	-1	0
21052955	7019	0	0	-100	0	230	101300000	1000	0	0	-1	0
21065515	7014	0	0	-100	0	230	101300000	1000	0	0	-1	0
21078075	7018	2	0	-100	0	230	101300000	1000	0	0	-1	0
21090635	7019	0	0	-100	0	230	101300000	1000	0	0	-1	0
21103195	7014	0	0	-100	0	230	101300000	1000	0	0	-1	0
21115755	7018	2	0	-100	0	230	101300000	1000	0	0	-1	0
21128315	7021	0	0	-100	0	230	101300000	1000	0	0	-1	0
21140875	7021	0	0	-100	0	230	101300000	1000	0	0	-1	0
21153435	7015	0	0	-100	0	230	101300000	1000	0	0	-1	0
21165995	7021	0	0	-100	0	230	101300000	1000	0	0	-1	0
21178555	7017	0	0	-100	0	230	101300000	1000	0	0	-1	0
21191115	7014	1	0	-100	0	230	101300000	1000	0	0	-1	0
21203675	7027	0	0	-100	0	230	101300000	1000	0	0	-1	0
21216235	7019	0	0	-100	0	230	101300000	1000	0	0	-1	0
21228795	7021	0	0	-100	0	230	101300000	1000	0	0	-1	0
21241355	7019	0	0	-100	0	230	101300000	1000	0	0	-1	0
21253915	7014	0	0	-100	0	230	101300000	1000	0	0	-1	0
21266475	7019	1	0	-100	0	230	101300000	1000	0	0	-1	0
21279035	7021	1	0	-100	0	230	101300000	1000	0	0	-1	0
21291595	7021	0	0	-100	0	230	101300000	1000	0	0	-1	0
21304155	7016	0	0	-100	0	230	101300000	1000	0	0	-1	0
21316715	7019	0	0	-100	0	230	101300000	1000	0	0	-1	0
21329275	7019	1	0	-100	0	230	101300000	1000	0	0	-1	0
21341835	7014	0	0	-100	0	230	101300000	1000	0	0	-1	0
21354395	7021	0	0	-100	0	230	101300000	1000	0	0	-1	0
21366955	7014	0	0	-100	0	230	101300000	1000	0	0	-1	0
21379515	7015	0	0	-100	0	230	101300000	1000	0	0	-1	0
21392075	7016	2	0	-100	0	230	101300000	1000	0	0	-1	0
21404635	7018	0	0	-100	0	230	101300000	1000	0	0	-1	0
21417195	7017	0	0	-100	0	230	101300000	1000	0	0	-1	0
21429755	7021	0	0	-100	0	230	101300000	1000	0	0	-1	0
21442315	7016	0	0	-100	0	230	101300000	1000	0	0	-1	0
21454875	7016	2	0	-100	0	230	101300000	1000	0	0	-1	0
21467435	7018	1	0	-100	0	230	101300000	1000	0	0	-1	0
21479995	7016	0	0	-100	0	230	101300000	1000	0	0	-1	0
21492555	7023	0	0	-100	0	230	101300000	1000	0	0	-1	0
21505115	7019	0	0	-100	0	230	101300000	1000	0	0	-1	0
21517675	7012	0	0	-100	0	230	101300000	1000	0	0	-1	0
21530235	7018	0	0	-100	0	230	101300000	1000	0	0	-1	0
21542795	7023	0	0	-100	0	230	101300000	1000	0	0	-1	0
21555355	7021	0	0	-100	0	230	101300000	1000	0	0	-1	0
21567915	7016	0	0	-100	0	230	101300000	1000	0	0	-1	0
21580475	7019	2	0	-100	0	230	101300000	1000	0	0	-1	0
21593035	7016	0	0	-100	0	230	101300000	1000	0	0	-1	0
21605595	7022	0	0	-100	0	230	101300000	1000	0	0	-1	0
21618155	7009	0	0	-100	0	230	101300000	1000	0	0	-1	0
21630715	7018	0	0	-100	0	230	101300000	1000	0	0	-1	0
21643275	7019	4	0	-100	0	230	101300000	1000	0	0	-1	0
21655835	7014	0	0	-100	0	230	101300000	1000	0	0	-1	0
21668395	7025	0	0	-100	0	230	101300000	1000	0	0	-1	0
21680955	7022	0	0	-100	0	230	101300000	1000	0	0	-1	0
21693515	7021	0	0	-100	0	230	101300000	1000	0	0	-1	0
21706075	7016	0	0	-100	0	230	101300000	1000	0	0	-1	0
21718635	7014	2	0	-100	0	230	101300000	1000	0	0	-1	0
21731195	7019	0	0	-100	0	230	101300000	1000	0	0	-1	0
21743755	7022	0	0	-100	0	230	101300000	1000	0	0	-1	0
21756315	7019	0	0	-100	0	230	101300000	1000	0	0	-1	0
21768875	7014	0	0	-100	0	230	101300000	1000	0	0	-1	0
21781435	7016	0	0	-100	0	230	101300000	1000	0	0	-1	0
21793995	7018	0	0	-100	0	230	101300000	1000	0	0	-1	0
21806555	7014	0	0	-100	0	230	101300000	1000	0	0	-1	0
21819115	7021	0	0	-100	0	230	101300000	1000	0	0	-1	0
21831675	7018	0	0	-100	0	230	101300000	1000	0	0	-1	0
21844235	7022	0	0	-100	0	230	101300000	1000	0	0	-1	0
21856795	7019	0	0	-100	0	230	101300000	1000	0	0	-1	0
21869355	7021	0	0	-100	0	230	101300000	1000	0	0	-1	0
21881915	7021	2	0	-100	0	230	101300000	1000	0	0	-1	0
21894475	7009	0	0	-100	0	230	101300000	1000	0	0	-1	0
21907035	7023	0	0	-100	0	230	101300000	1000	0	0	-1	0
21919595	7023	0	0	-100	0	230	101300000	1000	0	0	-1	0
21932155	7013	0	0	-100	0	230	101300000	1000	0	0	-1	0
21944715	7021	0	0	-100	0	230	101300000	1000	0	0	-1	0
21957275	7015	0	0	-100	0	230	101300000	1000	0	0	-1	0
21969835	7019	0	0	-100	0	230	101300000	1000	0	0	-1	0
21982395	7014	0	0	-100	0	230	101300000	1000	0	0	-1	0
21994955	7016	0	0	-100	0	230	101300000	1000	0	0	-1	0
22007515	7012	0	0	-100	0	230	101300000	1000	0	0	-1	0
22020075	7016	0	0	-100	0	230	101300000	1000	0	0	-1	0
22032635	7010	0	0	-100	0	230	101300000	1000	0	0	-1	0
22045195	7018	2	0	-100	0	230	101300000	1000	0	0	-1	0
22057755	7016	0	0	-100	0	230	101300000	1000	0	0	-1	0
22070315	7022	0	0	-100	0	230	101300000	1000	0	0	-1	0
22082875	7024	0	0	-100	0	230	101300000	1000	0	0	-1	0
22095435	7021	0	0	-100	0	230	101300000	1000	0	0	-1	0
22107995	7019	2	0	-100	0	230	101300000	1000	0	0	-1	0
22120555	7022	0	0	-100	0	230	101300000	1000	0	0	-1	0
22133115	7021	0	0	-100	0	230	101300000	1000	0	0	-1	0
22145675	7019	0	0	-100	0	230	101300000	1000	0	0	-1	0
22158235	7021	0	0	-100	0	230	101300000	1000	0	0	-1	0
22170795	7019	0	0	-100	0	230	101300000	1000	0	0	-1	0
22183355	7019	0	0	-100	0	230	101300000	1000	0	0	-1	0
22195915	7021	0	0	-100	0	230	101300000	1000	0	0	-1	0
22208475	7014	0	0	-100	0	230	101300000	1000	0	0	-1	0
22221035	7016	0	0	-100	0	230	101300000	1000	0	0	-1	0
22233595	7014	0	0	-100	0	230	101300000	1000	0	0	-1	0
22246155	7008	4	0	-100	0	230	101300000	1000	0	0	-1	0
22258715	7014	2	0	-100	0	230	101300000	1000	0	0	-1	0
22271275	7011	1	0	-100	0	230	101300000	1000	0	0	-1	0
22283835	7018	0	0	-100	0	230	101300000	1000	0	0	-1	0
22296395	7019	0	0	-100	0	230	101300000	1000	0	0	-1	0
22308955	7023	0	0	-100	0	230	101300000	1000	0	0	-1	0
22321515	7019	0	0	-100	0	230	101300000	1000	0	0	-1	0
22334075	7012	0	0	-100	0	230	101300000	1000	0	0	-1	0
22346635	7016	1	0	-100	0	230	101300000	1000	0	0	-1	0
22359195	7016	0	0	-100	0	230	101300000	1000	0	0	-1	0
22371755	7023	0	0	-100	0	230	101300000	1000	0	0	-1	0
22384315	7019	0	0	-100	0	230	101300000	1000	0	0	-1	0
22396875	7016	1	0	-100	0	230	101300000	1000	0	0	-1	0
22409435	7014	1	0	-100	0	230	101300000	1000	0	0	-1	0
22421995	7023	2	0	-100	0	230	101300000	1000	0	0	-1	0
22434555	7018	0	0	-100	0	230	101300000	1000	0	0	-1	0
22447115	7019	0	0	-100	0	230	101300000	1000	0	0	-1	0
22459675	7018	0	0	-100	0	230	101300000	1000	0	0	-1	0
22472235	7014	2	0	-100	0	230	101300000	1000	0	0	-1	0
22484795	7016	0	0	-100	0	230	101300000	1000	0	0	-1	0
22497355	7018	0	0	-100	0	230	101300000	1000	0	0	-1	0
22509915	7025	0	0	-100	0	230	101300000	1000	0	0	-1	0
22522475	7025	0	0	-100	0	230	101300000	1000	0	0	-1	0
22535035	7022	0	0	-100	0	230	101300000	1000	0	0	-1	0
22547595	7019	0	0	-100	0	230	101300000	1000	0	0	-1	0
22560155	7011	0	0	-100	0	230	101300000	1000	0	0	-1	0
22572715	7014	0	0	-100	0	230	101300000	1000	0	0	-1	0
22585275	7012	0	0	-100	0	230	101300000	1000	0	0	-1	0
22597835	7016	3	0	-100	0	230	101300000	1000	0	0	-1	0
22610395	7016	0	0	-100	0	230	101300000	1000	0	0	-1	0
22622955	7017	1	0	-100	0	230	101300000	1000	0	0	-1	0
22635515	7019	0	0	-100	0	230	101300000	1000	0	0	-1	0
22648075	7021	0	0	-100	0	230	101300000	1000	0	0	-1	0
22660635	7014	1	0	-100	0	230	101300000	1000	0	0	-1	0
22673195	7012	0	0	-100	0	230	101300000	1000	0	0	-1	0
22685755	7020	0	0	-100	0	230	101300000	1000	0	0	-1	0
22698315	7021	0	0	-100	0	230	101300000	1000	0	0	-1	0
22710875	7012	0	0	-100	0	230	101300000	1000	0	0	-1	0
22723435	7019	1	0	-100	0	230	101300000	1000	0	0	-1	0
22735995	7014	0	0	-100	0	230	101300000	1000	0	0	-1	0
22748555	7023	0	0	-100	0	230	101300000	1000	0	0	-1	0
22761115	7022	0	0	-100	0	230	101300000	1000	0	0	-1	0
22773675	7021	0	0	-100	0	230	101300000	1000	0	0	-1	0
22786235	7010	0	0	-100	0	230	101300000	1000	0	0	-1	0
22798795	7016	0	0	-100	0	230	101300000	1000	0	0	-1	0
22811355	7017	4	0	-100	0	230	101300000	1000	0	0	-1	0
22823915	7014	0	0	-100	0	230	101300000	1000	0	0	-1	0
22836475	7019	0	0	-100	0	230	101300000	1000	0	0	-1	0
22849035	7020	0	0	-100	0	230	101300000	1000	0	0	-1	0
22861595	7023	0	0	-100	0	230	101300000	1000	0	0	-1	0
22874155	7013	0	0	-100	0	230	101300000	1000	0	0	-1	0
22886715	7023	0	0	-100	0	230	101300000	1000	0	0	-1	0
22899275	7021	0	0	-100	0	230	101300000	1000	0	0	-1	0
22911835	7016	0	0	-100	0	230	101300000	1000	0	0	-1	0
22924395	7016	0	0	-100	0	230	101300000	1000	0	0	-1	0
22936955	7014	2	0	-100	0	230	101300000	1000	0	0	-1	0
22949515	7012	3	0	-100	0	230	101300000	1000	0	0	-1	0
22962075	7016	0	0	-100	0	230	101300000	1000	0	0	-1	0
22974635	7023	0	0	-100	0	230	101300000	1000	0	0	-1	0
22987195	7023	0	0	-100	0	230	101300000	1000	0	0	-1	0
22999755	7021	0	0	-100	0	230	101300000	1000	0	0	-1	0
23012315	7012	0	0	-100	0	230	101300000	1000	0	0	-1	0
23024875	7019	0	0	-100	0	230	101300000	1000	0	0	-1	0
23037435	7012	2	0	-100	0	230	101300000	1000	0	0	-1	0
23049995	7021	3	0	-100	0	230	101300000	1000	0	0	-1	0
23062555	7023	0	0	-100	0	230	101300000	1000	0	0	-1	0
23075115	7017	0	0	-100	0	230	101300000	1000	0	0	-1	0
23087675	7017	0	0	-100	0	230	101300000	1000	0	0	-1	0
23100235	7019	0	0	-100	0	230	101300000	1000	0	0	-1	0
23112795	7017	0	0	-100	0	230	101300000	1000	0	0	-1	0
23125355	7017	0	0	-100	0	230	101300000	1000	0	0	-1	0
23137915	7018	0	0	-100	0	230	101300000	1000	0	0	-1	0
23150475	7017	0	0	-100	0	230	101300000	1000	0	0	-1	0
23163035	7015	0	0	-100	0	230	101300000	1000	0	0	-1	0
23175595	7016	0	0	-100	0	230	101300000	1000	0	0	-1	0
23188155	7014	0	0	-100	0	230	101300000	1000	0	0	-1	0
23200715	7017	0	0	-100	0	230	101300000	1000	0	0	-1	0
23213275	7012	0	0	-100	0	230	101300000	1000	0	0	-1	0
23225835	7014	0	0	-100	0	230	101300000	1000	0	0	-1	0
23238395	7012	0	0	-100	0	230	101300000	1000	0	0	-1	0
23250955	7018	0	0	-100	0	230	101300000	1000	0	0	-1	0
23263515	7017	0	0	-100	0	230	101300000	1000	0	0	-1	0
23276075	7014	0	0	-100	0	230	101300000	1000	0	0	-1	0
23288635	7012	0	0	-100	0	230	101300000	1000	0	0	-1	0
23301195	7014	0	0	-100	0	230	101300000	1000	0	0	-1	0
23313755	7016	0	0	-100	0	230	101300000	1000	0	0	-1	0
23326315	7015	0	0	-100	0	230	101300000	1000	0	0	-1	0
23338875	7019	0	0	-100	0	230	101300000	1000	0	0	-1	0
23351435	7017	0	0	-100	0	230	101300000	1000	0	0	-1	0
23363995	7017	0	0	-100	0	230	101300000	1000	0	0	-1	0
23376555	7016	0	0	-100	0	230	101300000	1000	0	0	-1	0
23389115	7016	0	0	-100	0	230	101300000	1000	0	0	-1	0
23401675	7019	0	0	-100	0	230	101300000	1000	0	0	-1	0
23414235	7019	0	0	-100	0	230	101300000	1000	0	0	-1	0
23426795	7021	0	0	-100	0	230	101300000	1000	0	0	-1	0
23439355	7021	0	0	-100	0	230	101300000	1000	0	0	-1	0
23451915	7012	0	0	-100	0	230	101300000	1000	0	0	-1	0
23464475	7022	0	0	-100	0	230	101300000	1000	0	0	-1	0
23477035	7011	2	0	-100	0	230	101300000	1000	0	0	-1	0
23489595	7014	1	0	-100	0	230	101300000	1000	0	0	-1	0
23502155	7011	0	0	-100	0	230	101300000	1000	0	0	-1	0
23514715	7019	0	0	-100	0	230	101300000	1000	0	0	-1	0
23527275	7020	0	0	-100	0	230	101300000	1000	0	0	-1	0
23539835	7023	0	0	-100	0	230	101300000	1000	0	0	-1	0
23552395	7013	1	0	-100	0	230	101300000	1000	0	0	-1	0
23564955	7014	3	0	-100	0	230	101300000	1000	0	0	-1	0
23577515	7012	0	0	-100	0	230	101300000	1000	0	0	-1	0
23590075	7019	0	0	-100	0	230	101300000	1000	0	0	-1	0
23602635	7017	0	0	-100	0	230	101300000	1000	0	0	-1	0
23615195	7021	0	0	-100	0	230	101300000	1000	0	0	-1	0
23627755	7025	0	0	-100	0	230	101300000	1000	0	0	-1	0
23640315	7023	0	0	-100	0	230	101300000	1000	0	0	-1	0
23652875	7021	0	0	-100	0	230	101300000	1000	0	0	-1	0
23665435	7027	0	0	-100	0	230	101300000	1000	0	0	-1	0
23677995	7026	4	0	-100	0	230	101300000	1000	0	0	-1	0
23690555	7023	0	0	-100	0	230	101300000	1000	0	0	-1	0
23703115	7022	0	0	-100	0	230	101300000	1000	0	0	-1	0
23715675	7022	0	0	-100	0	230	101300000	1000	0	0	-1	0
23728235	7017	0	0	-100	0	230	101300000	1000	0	0	-1	0
23740795	7018	0	0	-100	0	230	101300000	1000	0	0	-1	0
23753355	7012	0	0	-100	0	230	101300000	1000	0	0	-1	0
23765915	7020	0	0	-100	0	230	101300000	1000	0	0	-1	0
23778475	7018	0	0	-100	0	230	101300000	1000	0	0	-1	0
23791035	7016	0	0	-100	0	230	101300000	1000	0	0	-1	0
23803595	7018	0	0	-100	0	230	101300000	1000	0	0	-1	0
23816155	7008	1	0	-100	0	230	101300000	1000	0	0	-1	0
23828715	7021	0	0	-100	0	230	101300000	1000	0	0	-1	0
23841275	7026	0	0	-100	0	230	101300000	1000	0	0	-1	0
23853835	7017	0	0	-100	0	230	101300000	1000	0	0	-1	0
23866395	7020	0	0	-100	0	230	101300000	1000	0	0	-1	0
23878955	7022	0	0	-100	0	230	101300000	1000	0	0	-1	0
23891515	7015	0	0	-100	0	230	101300000	1000	0	0	-1	0
23904075	7020	0	0	-100	0	230	101300000	1000	0	0	-1	0
23916635	7021	0	0	-100	0	230	101300000	1000	0	0	-1	0
23929195	7017	0	0	-100	0	230	101300000	1000	0	0	-1	0
23941755	7019	0	0	-100	0	230	101300000	1000	0	0	-1	0
23954315	7019	0	0	-100	0	230	101300000	1000	0	0	-1	0
23966875	7016	0	0	-100	0	230	101300000	1000	0	0	-1	0
23979435	7016	0	0	-100	0	230	101300000	1000	0	0	-1	0
23991995	7014	0	0	-100	0	230	101300000	1000	0	0	-1	0
24004555	7011	0	0	-100	0	230	101300000	1000	0	0	-1	0
24017115	7012	0	0	-100	0	230	101300000	1000	0	0	-1	0
24029675	7012	0	0	-100	0	230	101300000	1000	0	0	-1	0
24042235	7021	1	0	-100	0	230	101300000	1000	0	0	-1	0
24054795	7014	2	0	-100	0	230	101300000	1000	0	0	-1	0
24067355	7018	3	0	-100	0	230	101300000	1000	0	0	-1	0
24079915	7016	3	0	-100	0	230	101300000	1000	0	0	-1	0
24092475	7010	0	0	-100	0	230	101300000	1000	0	0	-1	0
24105035	7014	0	0	-100	0	230	101300000	1000	0	0	-1	0
24117595	7016	0	0	-100	0	230	101300000	1000	0	0	-1	0
24130155	7008	0	0	-100	0	230	101300000	1000	0	0	-1	0
24142715	7017	0	0	-100	0	230	101300000	1000	0	0	-1	0
24155275	7017	0	0	-100	0	230	101300000	1000	0	0	-1	0
24167835	7019	0	0	-100	0	230	101300000	1000	0	0	-1	0
24180395	7019	0	0	-100	0	230	101300000	1000	0	0	-1	0
24192955	7019	0	0	-100	0	230	101300000	1000	0	0	-1	0
24205515	7022	0	0	-100	0	230	101300000	1000	0	0	-1	0
24218075	7019	0	0	-100	0	230	101300000	1000	0	0	-1	0
24230635	7014	0	0	-100	0	230	101300000	1000	0	0	-1	0
24243195	7016	0	0	-100	0	230	101300000	1000	0	0	-1	0
24255755	7012	0	0	-100	0	230	101300000	1000	0	0	-1	0
24268315	7016	0	0	-100	0	230	101300000	1000	0	0	-1	0
24280875	7013	0	0	-100	0	230	101300000	1000	0	0	-1	0
24293435	7014	1	0	-100	0	230	101300000	1000	0	0	-1	0
24305995	7014	0	0	-100	0	230	101300000	1000	0	0	-1	0
24318555	7016	0	0	-100	0	230	101300000	1000	0	0	-1	0
24331115	7018	0	0	-100	0	230	101300000	1000	0	0	-1	0
24343675	7017	0	0	-100	0	230	101300000	1000	0	0	-1	0
24356235	7019	0	0	-100	0	230	101300000	1000	0	0	-1	0
24368795	7020	0	0	-100	0	230	101300000	1000	0	0	-1	0
24381355	7025	0	0	-100	0	230	101300000	1000	0	0	-1	0
24393915	7019	0	0	-100	0	230	101300000	1000	0	0	-1	0
24406475	7020	0	0	-100	0	230	101300000	1000	0	0	-1	0
24419035	7019	0	0	-100	0	230	101300000	1000	0	0	-1	0
24431595	7021	0	0	-100	0	230	101300000	1000	0	0	-1	0
24444155	7008	0	0	-100	0	230	101300000	1000	0	0	-1	0
24456715	7014	0	0	-100	0	230	101300000	1000	0	0	-1	0
24469275	7010	0	0	-100	0	230	101300000	1000	0	0	-1	0
24481835	7012	0	0	-100	0	230	101300000	1000	0	0	-1	0
24494395	7016	0	0	-100	0	230	101300000	1000	0	0	-1	0
24506955	7019	0	0	-100	0	230	101300000	1000	0	0	-1	0
24519515	7012	0	0	-100	0	230	101300000	1000	0	0	-1	0
24532075	7010	0	0	-100	0	230	101300000	1000	0	0	-1	0
24544635	7021	1	0	-100	0	230	101300000	1000	0	0	-1	0
24557195	7019	3	0	-100	0	230	101300000	1000	0	0	-1	0
24569755	7016	0	0	-100	0	230	101300000	1000	0	0	-1	0
24582315	7021	0	0	-100	0	230	101300000	1000	0	0	-1	0
24594875	7023	0	0	-100	0	230	101300000	1000	0	0	-1	0
24607435	7017	0	0	-100	0	230	101300000	1000	0	0	-1	0
24619995	7019	0	0	-100	0	230	101300000	1000	0	0	-1	0
24632555	7021	0	0	-100	0	230	101300000	1000	0	0	-1	0
24645115	7014	0	0	-100	0	230	101300000	1000	0	0	-1	0
24657675	7016	0	0	-100	0	230	101300000	1000	0	0	-1	0
24670235	7018	1	0	-100	0	230	101300000	1000	0	0	-1	0
24682795	7018	1	0	-100	0	230	101300000	1000	0	0	-1	0
24695355	7014	2	0	-100	0	230	101300000	1000	0	0	-1	0
24707915	7018	0	0	-100	0	230	101300000	1000	0	0	-1	0
24720475	7017	0	0	-100	0	230	101300000	1000	0	0	-1	0
24733035	7021	0	0	-100	0	230	101300000	1000	0	0	-1	0
24745595	7023	0	0	-100	0	230	101300000	1000	0	0	-1	0
24758155	7004	0	0	-100	0	230	101300000	1000	0	0	-1	0
24770715	7016	0	0	-100	0	230	101300000	1000	0	0	-1	0
24783275	7019	4	0	-100	0	230	101300000	1000	0	0	-1	0
24795835	7014	2	0	-100	0	230	101300000	1000	0	0	-1	0
24808395	7014	1	0	-100	0	230	101300000	1000	0	0	-1	0
24820955	7018	0	0	-100	0	230	101300000	1000	0	0	-1	0
24833515	7014	0	0	-100	0	230	101300000	1000	0	0	-1	0
24846075	7021	0	0	-100	0	230	101300000	1000	0	0	-1	0
24858635	7022	0	0	-100	0	230	101300000	1000	0	0	-1	0
24871195	7023	0	0	-100	0	230	101300000	1000	0	0	-1	0
24883755	7022	0	0	-100	0	230	101300000	1000	0	0	-1	0
24896315	7022	0	0	-100	0	230	101300000	1000	0	0	-1	0
24908875	7021	0	0	-100	0	230	101300000	1000	0	0	-1	0
24921435	7019	0	0	-100	0	230	101300000	1000	0	0	-1	0
24933995	7019	0	0	-100	0	230	101300000	1000	0	0	-1	0
24946555	7021	0	0	-100	0	230	101300000	1000	0	0	-1	0
24959115	7021	0	0	-100	0	230	101300000	1000	0	0	-1	0
24971675	7019	0	0	-100	0	230	101300000	1000	0	0	-1	0
24984235	7025	0	0	-100	0	230	101300000	1000	0	0	-1	0
24996795	7021	0	0	-100	0	230	101300000	1000	0	0	-1	0
25009355	7014	1	0	-100	0	230	101300000	1000	0	0	-1	0
25021915	7014	2	0	-100	0	230	101300000	1000	0	0	-1	0
25034475	7022	3	0	-100	0	230	101300000	1000	0	0	-1	0
25047035	7014	2	0	-100	0	230	101300000	1000	0	0	-1	0
25059595	7017	3	0	-100	0	230	101300000	1000	0	0	-1	0
25072155	7008	5	0	-100	0	230	101300000	1000	0	0	-1	0
25084715	7019	0	0	-100	0	230	101300000	1000	0	0	-1	0
25097275	7011	0	0	-100	0	230	101300000	1000	0	0	-1	0
25109835	7016	0	0	-100	0	230	101300000	1000	0	0	-1	0
25122395	7012	0	0	-100	0	230	101300000	1000	0	0	-1	0
25134955	7016	0	0	-100	0	230	101300000	1000	0	0	-1	0
25147515	7012	0	0	-100	0	230	101300000	1000	0	0	-1	0
25160075	7021	0	0	-100	0	230	101300000	1000	0	0	-1	0
25172635	7017	0	0	-100	0	230	101300000	1000	0	0	-1	0
25185195	7020	0	0	-100	0	230	101300000	1000	0	0	-1	0
25197755	7019	0	0	-100	0	230	101300000	1000	0	0	-1	0
25210315	7015	0	0	-100	0	230	101300000	1000	0	0	-1	0
25222875	7019	0	0	-100	0	230	101300000	1000	0	0	-1	0
25235435	7021	0	0	-100	0	230	101300000	1000	0	0	-1	0
25247995	7019	2	0	-100	0	230	101300000	1000	0	0	-1	0
25260555	7022	0	0	-100	0	230	101300000	1000	0	0	-1	0
25273115	7023	0	0	-100	0	230	101300000	1000	0	0	-1	0
25285675	7017	0	0	-100	0	230	101300000	1000	0	0	-1	0
25310795	7014	3	0	-100	0	230	101300000	1000	0	0	-1	0
25323355	7014	3	0	-100	0	230	101300000	1000	0	0	-1	0
25335915	7014	0	0	-100	0	230	101300000	1000	0	0	-1	0
25348475	7012	0	0	-100	0	230	101300000	1000	0	0	-1	0
25361035	7014	0	0	-100	0	230	101300000	1000	0	0	-1	0
25373595	7017	0	0	-100	0	230	101300000	1000	0	0	-1	0
25386155	7009	0	0	-100	0	230	101300000	1000	0	0	-1	0
25398715	7022	0	0	-100	0	230	101300000	1000	0	0	-1	0
25411275	7019	0	0	-100	0	230	101300000	1000	0	0	-1	0
25423835	7022	0	0	-100	0	230	101300000	1000	0	0	-1	0
25436395	7019	0	0	-100	0	230	101300000	1000	0	0	-1	0
25448955	7017	0	0	-100	0	230	101300000	1000	0	0	-1	0
25461515	7021	0	0	-100	0	230	101300000	1000	0	0	-1	0
25474075	7017	0	0	-100	0	230	101300000	1000	0	0	-1	0
25486635	7026	0	0	-100	0	230	101300000	1000	0	0	-1	0
25499195	7024	0	0	-100	0	230	101300000	1000	0	0	-1	0
25511755	7019	0	0	-100	0	230	101300000	1000	0	0	-1	0
25524315	7023	0	0	-100	0	230	101300000	1000	0	0	-1	0
25536875	7023	0	0	-100	0	230	101300000	1000	0	0	-1	0
25549435	7019	0	0	-100	0	230	101300000	1000	0	0	-1	0
25561995	7022	0	0	-100	0	230	101300000	1000	0	0	-1	0
25574555	7016	0	0	-100	0	230	101300000	1000	0	0	-1	0
25587115	7016	1	0	-100	0	230	101300000	1000	0	0	-1	0
25599675	7016	2	0	-100	0	230	101300000	1000	0	0	-1	0
25612235	7016	2	0	-100	0	230	101300000	1000	0	0	-1	0
25624795	7018	1	0	-100	0	230	101300000	1000	0	0	-1	0
25637355	7020	1	0	-100	0	230	101300000	1000	0	0	-1	0
25649915	7018	0	0	-100	0	230	101300000	1000	0	0	-1	0
25662475	7016	1	0	-100	0	230	101300000	1000	0	0	-1	0
25675035	7018	1	0	-100	0	230	101300000	1000	0	0	-1	0
25687595	7015	1	0	-100	0	230	101300000	1000	0	0	-1	0
25700155	7008	4	0	-100	0	230	101300000	1000	0	0	-1	0
25712715	7018	0	0	-100	0	230	101300000	1000	0	0	-1	0
25725275	7023	0	0	-100	0	230	101300000	1000	0	0	-1	0
25737835	7022	0	0	-100	0	230	101300000	1000	0	0	-1	0
25750395	7019	0	0	-100	0	230	101300000	1000	0	0	-1	0
25762955	7019	0	0	-100	0	230	101300000	1000	0	0	-1	0
25775515	7014	0	0	-100	0	230	101300000	1000	0	0	-1	0
25788075	7014	0	0	-100	0	230	101300000	1000	0	0	-1	0
25800635	7017	0	0	-100	0	230	101300000	1000	0	0	-1	0
25813195	7017	2	0	-100	0	230	101300000	1000	0	0	-1	0
25825755	7016	1	0	-100	0	230	101300000	1000	0	0	-1	0
25838315	7016	0	0	-100	0	230	101300000	1000	0	0	-1	0
25850875	7022	0	0	-100	0	230	101300000	1000	0	0	-1	0
25863435	7021	0	0	-100	0	230	101300000	1000	0	0	-1	0
25875995	7021	0	0	-100	0	230	101300000	1000	0	0	-1	0
25888555	7010	0	0	-100	0	230	101300000	1000	0	0	-1	0
25901115	7018	2	0	-100	0	230	101300000	1000	0	0	-1	0
25913675	7020	0	0	-100	0	230	101300000	1000	0	0	-1	0
25926235	7017	0	0	-100	0	230	101300000	1000	0	0	-1	0
25938795	7022	0	0	-100	0	230	101300000	1000	0	0	-1	0
25951355	7010	0	0	-100	0	230	101300000	1000	0	0	-1	0
25963915	7016	2	0	-100	0	230	101300000	1000	0	0	-1	0
25976475	7023	0	0	-100	0	230	101300000	1000	0	0	-1	0
25989035	7019	0	0	-100	0	230	101300000	1000	0	0	-1	0
26001595	7017	0	0	-100	0	230	101300000	1000	0	0	-1	0
26014155	7010	1	0	-100	0	230	101300000	1000	0	0	-1	0
26026715	7016	0	0	-100	0	230	101300000	1000	0	0	-1	0
26039275	7017	0	0	-100	0	230	101300000	1000	0	0	-1	0
26051835	7022	0	0	-100	0	230	101300000	1000	0	0	-1	0
26064395	7014	0	0	-100	0	230	101300000	1000	0	0	-1	0
26076955	7016	0	0	-100	0	230	101300000	1000	0	0	-1	0
26089515	7014	2	0	-100	0	230	101300000	1000	0	0	-1	0
26102075	7021	0	0	-100	0	230	101300000	1000	0	0	-1	0
26114635	7019	0	0	-100	0	230	101300000	1000	0	0	-1	0
26127195	7017	0	0	-100	0	230	101300000	1000	0	0	-1	0
26139755	7016	0	0	-100	0	230	101300000	1000	0	0	-1	0
26152315	7014	3	0	-100	0	230	101300000	1000	0	0	-1	0
26164875	7019	0	0	-100	0	230	101300000	1000	0	0	-1	0
26177435	7019	0	0	-100	0	230	101300000	1000	0	0	-1	0
26189995	7018	0	0	-100	0	230	101300000	1000	0	0	-1	0
26202555	7019	1	0	-100	0	230	101300000	1000	0	0	-1	0
26215115	7014	0	0	-100	0	230	101300000	1000	0	0	-1	0
26227675	7025	0	0	-100	0	230	101300000	1000	0	0	-1	0
26240235	7019	0	0	-100	0	230	101300000	1000	0	0	-1	0
26252795	7014	0	0	-100	0	230	101300000	1000	0	0	-1	0
26265355	7020	1	0	-100	0	230	101300000	1000	0	0	-1	0
26277915	7018	0	0	-100	0	230	101300000	1000	0	0	-1	0
26290475	7019	0	0	-100	0	230	101300000	1000	0	0	-1	0
26303035	7017	0	0	-100	0	230	101300000	1000	0	0	-1	0
26315595	7016	0	0	-100	0	230	101300000	1000	0	0	-1	0
26328155	7006	2	0	-100	0	230	101300000	1000	0	0	-1	0
26340715	7022	0	0	-100	0	230	101300000	1000	0	0	-1	0
26353275	7021	0	0	-100	0	230	101300000	1000	0	0	-1	0
26365835	7019	0	0	-100	0	230	101300000	1000	0	0	-1	0
26378395	7017	0	0	-100	0	230	101300000	1000	0	0	-1	0
26390955	7011	1	0	-100	0	230	101300000	1000	0	0	-1	0
26403515	7027	0	0	-100	0	230	101300000	1000	0	0	-1	0
26416075	7017	0	0	-100	0	230	101300000	1000	0	0	-1	0
26428635	7016	0	0	-100	0	230	101300000	1000	0	0	-1	0
26441195	7018	2	0	-100	0	230	101300000	1000	0	0	-1	0
26453755	7020	0	0	-100	0	230	101300000	1000	0	0	-1	0
26466315	7017	0	0	-100	0	230	101300000	1000	0	0	-1	0
26478875	7014	2	0	-100	0	230	101300000	1000	0	0	-1	0
26491435	7019	0	0	-100	0	230	101300000	1000	0	0	-1	0
26503995	7014	0	0	-100	0	230	101300000	1000	0	0	-1	0
26516555	7016	1	0	-100	0	230	101300000	1000	0	0	-1	0
26529115	7017	0	0	-100	0	230	101300000	1000	0	0	-1	0
26541675	7012	0	0	-100	0	230	101300000	1000	0	0	-1	0
26554235	7018	1	0	-100	0	230	101300000	1000	0	0	-1	0
26566795	7028	0	0	-100	0	230	101300000	1000	0	0	-1	0
26579355	7017	0	0	-100	0	230	101300000	1000	0	0	-1	0
26591915	7014	3	0	-100	0	230	101300000	1000	0	0	-1	0
26604475	7018	0	0	-100	0	230	101300000	1000	0	0	-1	0
26617035	7022	0	0	-100	0	230	101300000	1000	0	0	-1	0
26629595	7017	0	0	-100	0	230	101300000	1000	0	0	-1	0
26642155	7008	0	0	-100	0	230	101300000	1000	0	0	-1	0
26654715	7014	0	0	-100	0	230	101300000	1000	0	0	-1	0
26667275	7012	3	0	-100	0	230	101300000	1000	0	0	-1	0
26679835	7016	0	0	-100	0	230	101300000	1000	0	0	-1	0
26692395	7019	0	0	-100	0	230	101300000	1000	0	0	-1	0
26704955	7023	0	0	-100	0	230	101300000	1000	0	0	-1	0
26717515	7018	0	0	-100	0	230	101300000	1000	0	0	-1	0
26730075	7012	0	0	-100	0	230	101300000	1000	0	0	-1	0
26742635	7018	2	0	-100	0	230	101300000	1000	0	0	-1	0
26755195	7026	0	0	-100	0	230	101300000	1000	0	0	-1	0
26767755	7016	0	0	-100	0	230	101300000	1000	0	0	-1	0
26780315	7019	3	0	-100	0	230	101300000	1000	0	0	-1	0
26792875	7014	0	0	-100	0	230	101300000	1000	0	0	-1	0
26805435	7019	0	0	-100	0	230	101300000	1000	0	0	-1	0
26817995	7012	0	0	-100	0	230	101300000	1000	0	0	-1	0
26830555	7020	2	0	-100	0	230	101300000	1000	0	0	-1	0
26843115	7019	0	0	-100	0	230	101300000	1000	0	0	-1	0
26855675	7020	0	0	-100	0	230	101300000	1000	0	0	-1	0
26868235	7019	0	0	-100	0	230	101300000	1000	0	0	-1	0
26880795	7016	0	0	-100	0	230	101300000	1000	0	0	-1	0
26893355	7012	0	0	-100	0	230	101300000	1000	0	0	-1	0
26905915	7014	4	0	-100	0	230	101300000	1000	0	0	-1	0
26918475	7014	0	0	-100	0	230	101300000	1000	0	0	-1	0
26931035	7023	0	0	-100	0	230	101300000	1000	0	0	-1	0
26943595	7023	0	0	-100	0	230	101300000	1000	0	0	-1	0
26956155	7013	0	0	-100	0	230	101300000	1000	0	0	-1	0
26968715	7017	0	0	-100	0	230	101300000	1000	0	0	-1	0
26981275	7016	0	0	-100	0	230	101300000	1000	0	0	-1	0
26993835	7012	0	0	-100	0	230	101300000	1000	0	0	-1	0
27006395	7018	0	0	-100	0	230	101300000	1000	0	0	-1	0
27018955	7014	0	0	-100	0	230	101300000	1000	0	0	-1	0
27031515	7010	0	0	-100	0	230	101300000	1000	0	0	-1	0
27044075	7016	3	0	-100	0	230	101300000	1000	0	0	-1	0
