timestamp	voltage	current	windSpeed	pitchAngle	rpm	temperature	ambientPressure	humidity	accelerationX	accelerationY	accelerationZ	currentSink
7035070	7517	0	0	-100	0	230	101300000	1000	0	0	-1	0
7042523	7512	2	0	-100	0	230	101300000	1000	0	0	-1	0
7055083	7514	1	0	-100	0	230	101300000	1000	0	0	-1	0
7067643	7519	0	0	-100	0	230	101300000	1000	0	0	-1	0
7080203	7517	0	0	-100	0	230	101300000	1000	0	0	-1	0
7092763	7510	0	0	-100	0	230	101300000	1000	0	0	-1	0
7105323	7514	0	0	-100	0	230	101300000	1000	0	0	-1	0
7117883	7510	0	0	-100	0	230	101300000	1000	0	0	-1	0
7130443	7510	4	0	-100	0	230	101300000	1000	0	0	-1	0
7143004	7518	0	0	-100	0	230	101300000	1000	0	0	-1	0
7155563	7514	1	0	-100	0	230	101300000	1000	0	0	-1	0
7168123	7516	0	0	-100	0	230	101300000	1000	0	0	-1	0
7180683	7517	0	0	-100	0	230	101300000	1000	0	0	-1	0
7193243	7510	0	0	-100	0	230	101300000	1000	0	0	-1	0
7205803	7514	0	0	-100	0	230	101300000	1000	0	0	-1	0
7218363	7510	0	0	-100	0	230	101300000	1000	0	0	-1	0
7230923	7509	4	0	-100	0	230	101300000	1000	0	0	-1	0
7243483	7514	0	0	-100	0	230	101300000	1000	0	0	-1	0
7256043	7512	0	0	-100	0	230	101300000	1000	0	0	-1	0
7268603	7516	0	0	-100	0	230	101300000	1000	0	0	-1	0
7281163	7514	0	0	-100	0	230	101300000	1000	0	0	-1	0
7293723	7508	0	0	-100	0	230	101300000	1000	0	0	-1	0
7306283	7507	4	0	-100	0	230	101300000	1000	0	0	-1	0
7318843	7521	0	0	-100	0	230	101300000	1000	0	0	-1	0
7331403	7515	0	0	-100	0	230	101300000	1000	0	0	-1	0
7343963	7514	0	0	-100	0	230	101300000	1000	0	0	-1	0
7712235	7517	0	0	-100	0	230	101300000	1000	0	0	-1	0
7724795	7514	0	0	-100	0	230	101300000	1000	0	0	-1	0
7737355	7512	5	0	-100	0	230	101300000	1000	0	0	-1	0
7749915	7503	3	0	-100	0	230	101300000	1000	0	0	-1	0
7762475	7515	0	0	-100	0	230	101300000	1000	0	0	-1	0
7775035	7512	0	0	-100	0	230	101300000	1000	0	0	-1	0
7787595	7512	0	0	-100	0	230	101300000	1000	0	0	-1	0
7800155	7512	3	0	-100	0	230	101300000	1000	0	0	-1	0
7812715	7516	0	0	-100	0	230	101300000	1000	0	0	-1	0
7825275	7514	0	0	-100	0	230	101300000	1000	0	0	-1	0
7837835	7510	5	0	-100	0	230	101300000	1000	0	0	-1	0
7850395	7516	0	0	-100	0	230	101300000	1000	0	0	-1	0
7862955	7512	0	0	-100	0	230	101300000	1000	0	0	-1	0
7875515	7514	3	0	-100	0	230	101300000	1000	0	0	-1	0
7888075	7515	0	0	-100	0	230	101300000	1000	0	0	-1	0
7900635	7514	0	0	-100	0	230	101300000	1000	0	0	-1	0
7913195	7512	4	0	-100	0	230	101300000	1000	0	0	-1	0
7925755	7518	0	0	-100	0	230	101300000	1000	0	0	-1	0
7938315	7512	0	0	-100	0	230	101300000	1000	0	0	-1	0
7950875	7505	0	0	-100	0	230	101300000	1000	0	0	-1	0
7963435	7510	2	0	-100	0	230	101300000	1000	0	0	-1	0
7975995	7517	1	0	-100	0	230	101300000	1000	0	0	-1	0
7988555	7508	0	0	-100	0	230	101300000	1000	0	0	-1	0
8001115	7510	2	0	-100	0	230	101300000	1000	0	0	-1	0
8013675	7514	0	0	-100	0	230	101300000	1000	0	0	-1	0
8026235	7510	0	0	-100	0	230	101300000	1000	0	0	-1	0
8038795	7511	4	0	-100	0	230	101300000	1000	0	0	-1	0
8051355	7512	0	0	-100	0	230	101300000	1000	0	0	-1	0
8063915	7516	0	0	-100	0	230	101300000	1000	0	0	-1	0
8076475	7506	0	0	-100	0	230	101300000	1000	0	0	-1	0
8089035	7510	5	0	-100	0	230	101300000	1000	0	0	-1	0
8101595	7516	0	0	-100	0	230	101300000	1000	0	0	-1	0
8114155	7512	0	0	-100	0	230	101300000	1000	0	0	-1	0
8126715	7512	0	0	-100	0	230	101300000	1000	0	0	-1	0
8139275	7510	0	0	-100	0	230	101300000	1000	0	0	-1	0
8151835	7512	6	0	-100	0	230	101300000	1000	0	0	-1	0
8164395	7512	1	0	-100	0	230	101300000	1000	0	0	-1	0
8176955	7516	0	0	-100	0	230	101300000	1000	0	0	-1	0
8189515	7508	0	0	-100	0	230	101300000	1000	0	0	-1	0
8202075	7512	0	0	-100	0	230	101300000	1000	0	0	-1	0
8214635	7512	0	0	-100	0	230	101300000	1000	0	0	-1	0
8227195	7512	5	0	-100	0	230	101300000	1000	0	0	-1	0
8239755	7510	4	0	-100	0	230	101300000	1000	0	0	-1	0
8252315	7512	0	0	-100	0	230	101300000	1000	0	0	-1	0
8264875	7513	0	0	-100	0	230	101300000	1000	0	0	-1	0
8277435	7516	0	0	-100	0	230	101300000	1000	0	0	-1	0
8289995	7510	0	0	-100	0	230	101300000	1000	0	0	-1	0
8302555	7514	3	0	-100	0	230	101300000	1000	0	0	-1	0
8315115	7507	2	0	-100	0	230	101300000	1000	0	0	-1	0
8327675	7512	0	0	-100	0	230	101300000	1000	0	0	-1	0
8340235	7519	0	0	-100	0	230	101300000	1000	0	0	-1	0
8352795	7510	0	0	-100	0	230	101300000	1000	0	0	-1	0
8365355	7514	0	0	-100	0	230	101300000	1000	0	0	-1	0
8377915	7514	0	0	-100	0	230	101300000	1000	0	0	-1	0
8390475	7514	0	0	-100	0	230	101300000	1000	0	0	-1	0
8403035	7517	0	0	-100	0	230	101300000	1000	0	0	-1	0
8415595	7512	0	0	-100	0	230	101300000	1000	0	0	-1	0
8428155	7516	0	0	-100	0	230	101300000	1000	0	0	-1	0
8440715	7514	0	0	-100	0	230	101300000	1000	0	0	-1	0
8453275	7508	0	0	-100	0	230	101300000	1000	0	0	-1	0
8465835	7510	0	0	-100	0	230	101300000	1000	0	0	-1	0
8478395	7514	0	0	-100	0	230	101300000	1000	0	0	-1	0
8490955	7508	0	0	-100	0	230	101300000	1000	0	0	-1	0
8503515	7509	4	0	-100	0	230	101300000	1000	0	0	-1	0
8516075	7514	0	0	-100	0	230	101300000	1000	0	0	-1	0
8528635	7510	0	0	-100	0	230	101300000	1000	0	0	-1	0
8541195	7516	0	0	-100	0	230	101300000	1000	0	0	-1	0
8553755	7512	0	0	-100	0	230	101300000	1000	0	0	-1	0
8566315	7507	4	0	-100	0	230	101300000	1000	0	0	-1	0
8578875	7514	2	0	-100	0	230	101300000	1000	0	0	-1	0
8591435	7516	0	0	-100	0	230	101300000	1000	0	0	-1	0
8603995	7519	4	0	-100	0	230	101300000	1000	0	0	-1	0
8616555	7512	0	0	-100	0	230	101300000	1000	0	0	-1	0
8629115	7512	0	0	-100	0	230	101300000	1000	0	0	-1	0
8641675	7510	0	0	-100	0	230	101300000	1000	0	0	-1	0
8654235	7512	4	0	-100	0	230	101300000	1000	0	0	-1	0
8666795	7514	2	0	-100	0	230	101300000	1000	0	0	-1	0
8679355	7519	0	0	-100	0	230	101300000	1000	0	0	-1	0
8691915	7510	0	0	-100	0	230	101300000	1000	0	0	-1	0
8704475	7512	3	0	-100	0	230	101300000	1000	0	0	-1	0
8717035	7508	4	0	-100	0	230	101300000	1000	0	0	-1	0
8729595	7514	0	0	-100	0	230	101300000	1000	0	0	-1	0
8742155	7516	0	0	-100	0	230	101300000	1000	0	0	-1	0
8754715	7512	0	0	-100	0	230	101300000	1000	0	0	-1	0
8767275	7505	0	0	-100	0	230	101300000	1000	0	0	-1	0
8779835	7512	4	0	-100	0	230	101300000	1000	0	0	-1	0
8792395	7512	0	0	-100	0	230	101300000	1000	0	0	-1	0
8804955	7512	0	0	-100	0	230	101300000	1000	0	0	-1	0
8817515	7514	0	0	-100	0	230	101300000	1000	0	0	-1	0
8830075	7516	0	0	-100	0	230	101300000	1000	0	0	-1	0
8842635	7509	1	0	-100	0	230	101300000	1000	0	0	-1	0
8855195	7521	0	0	-100	0	230	101300000	1000	0	0	-1	0
8867755	7512	0	0	-100	0	230	101300000	1000	0	0	-1	0
8880315	7506	0	0	-100	0	230	101300000	1000	0	0	-1	0
8892875	7511	1	0	-100	0	230	101300000	1000	0	0	-1	0
8905435	7512	0	0	-100	0	230	101300000	1000	0	0	-1	0
8917995	7508	0	0	-100	0	230	101300000	1000	0	0	-1	0
8930555	7510	0	0	-100	0	230	101300000	1000	0	0	-1	0
8943115	7519	0	0	-100	0	230	101300000	1000	0	0	-1	0
8955675	7508	0	0	-100	0	230	101300000	1000	0	0	-1	0
8968235	7516	0	0	-100	0	230	101300000	1000	0	0	-1	0
8980795	7510	0	0	-100	0	230	101300000	1000	0	0	-1	0
8993355	7514	3	0	-100	0	230	101300000	1000	0	0	-1	0
9005915	7512	0	0	-100	0	230	101300000	1000	0	0	-1	0
9018475	7510	0	0	-100	0	230	101300000	1000	0	0	-1	0
9031035	7512	4	0	-100	0	230	101300000	1000	0	0	-1	0
9043595	7516	0	0	-100	0	230	101300000	1000	0	0	-1	0
9056155	7512	0	0	-100	0	230	101300000	1000	0	0	-1	0
9068715	7509	4	0	-100	0	230	101300000	1000	0	0	-1	0
9081275	7516	0	0	-100	0	230	101300000	1000	0	0	-1	0
9093835	7512	0	0	-100	0	230	101300000	1000	0	0	-1	0
9106395	7507	4	0	-100	0	230	101300000	1000	0	0	-1	0
9118955	7519	0	0	-100	0	230	101300000	1000	0	0	-1	0
9131515	7507	0	0	-100	0	230	101300000	1000	0	0	-1	0
9144075	7507	2	0	-100	0	230	101300000	1000	0	0	-1	0
9156635	7515	0	0	-100	0	230	101300000	1000	0	0	-1	0
9169195	7507	0	0	-100	0	230	101300000	1000	0	0	-1	0
9181755	7518	1	0	-100	0	230	101300000	1000	0	0	-1	0
9194315	7514	0	0	-100	0	230	101300000	1000	0	0	-1	0
9206875	7510	2	0	-100	0	230	101300000	1000	0	0	-1	0
9219435	7516	0	0	-100	0	230	101300000	1000	0	0	-1	0
9231995	7516	1	0	-100	0	230	101300000	1000	0	0	-1	0
9244555	7514	1	0	-100	0	230	101300000	1000	0	0	-1	0
9257115	7512	0	0	-100	0	230	101300000	1000	0	0	-1	0
9269675	7510	0	0	-100	0	230	101300000	1000	0	0	-1	0
9282235	7514	5	0	-100	0	230	101300000	1000	0	0	-1	0
9294795	7514	0	0	-100	0	230	101300000	1000	0	0	-1	0
9307355	7519	0	0	-100	0	230	101300000	1000	0	0	-1	0
9319915	7512	0	0	-100	0	230	101300000	1000	0	0	-1	0
9332475	7512	5	0	-100	0	230	101300000	1000	0	0	-1	0
9345035	7512	0	0	-100	0	230	101300000	1000	0	0	-1	0
9357595	7516	0	0	-100	0	230	101300000	1000	0	0	-1	0
9370155	7507	0	0	-100	0	230	101300000	1000	0	0	-1	0
9382715	7514	0	0	-100	0	230	101300000	1000	0	0	-1	0
9395275	7512	0	0	-100	0	230	101300000	1000	0	0	-1	0
9407835	7514	4	0	-100	0	230	101300000	1000	0	0	-1	0
9420395	7516	0	0	-100	0	230	101300000	1000	0	0	-1	0
9432955	7515	0	0	-100	0	230	101300000	1000	0	0	-1	0
9445515	7509	0	0	-100	0	230	101300000	1000	0	0	-1	0
9458075	7512	4	0	-100	0	230	101300000	1000	0	0	-1	0
9470635	7511	1	0	-100	0	230	101300000	1000	0	0	-1	0
9483195	7519	0	0	-100	0	230	101300000	1000	0	0	-1	0
9495755	7516	0	0	-100	0	230	101300000	1000	0	0	-1	0
9508315	7510	0	0	-100	0	230	101300000	1000	0	0	-1	0
9520875	7512	0	0	-100	0	230	101300000	1000	0	0	-1	0
9533435	7510	4	0	-100	0	230	101300000	1000	0	0	-1	0
9545995	7514	0	0	-100	0	230	101300000	1000	0	0	-1	0
9558555	7521	0	0	-100	0	230	101300000	1000	0	0	-1	0
9571115	7514	0	0	-100	0	230	101300000	1000	0	0	-1	0
9583675	7510	0	0	-100	0	230	101300000	1000	0	0	-1	0
9596235	7516	0	0	-100	0	230	101300000	1000	0	0	-1	0
9608795	7505	0	0	-100	0	230	101300000	1000	0	0	-1	0
9621355	7514	4	0	-100	0	230	101300000	1000	0	0	-1	0
9633915	7514	0	0	-100	0	230	101300000	1000	0	0	-1	0
9646475	7512	0	0	-100	0	230	101300000	1000	0	0	-1	0
9659035	7512	3	0	-100	0	230	101300000	1000	0	0	-1	0
9671595	7511	0	0	-100	0	230	101300000	1000	0	0	-1	0
9684155	7514	0	0	-100	0	230	101300000	1000	0	0	-1	0
9696715	7508	0	0	-100	0	230	101300000	1000	0	0	-1	0
9709275	7505	2	0	-100	0	230	101300000	1000	0	0	-1	0
9721835	7510	0	0	-100	0	230	101300000	1000	0	0	-1	0
9734395	7516	0	0	-100	0	230	101300000	1000	0	0	-1	0
9746955	7514	4	0	-100	0	230	101300000	1000	0	0	-1	0
9759515	7507	0	0	-100	0	230	101300000	1000	0	0	-1	0
9772075	7514	0	0	-100	0	230	101300000	1000	0	0	-1	0
9784635	7514	3	0	-100	0	230	101300000	1000	0	0	-1	0
9797195	7514	0	0	-100	0	230	101300000	1000	0	0	-1	0
9809755	7510	0	0	-100	0	230	101300000	1000	0	0	-1	0
9822315	7512	3	0	-100	0	230	101300000	1000	0	0	-1	0
9834875	7514	0	0	-100	0	230	101300000	1000	0	0	-1	0
9847435	7512	0	0	-100	0	230	101300000	1000	0	0	-1	0
9859995	7512	0	0	-100	0	230	101300000	1000	0	0	-1	0
9872555	7512	3	0	-100	0	230	101300000	1000	0	0	-1	0
9885115	7512	1	0	-100	0	230	101300000	1000	0	0	-1	0
9897675	7516	0	0	-100	0	230	101300000	1000	0	0	-1	0
9910235	7512	0	0	-100	0	230	101300000	1000	0	0	-1	0
9922795	7509	2	0	-100	0	230	101300000	1000	0	0	-1	0
9935355	7510	0	0	-100	0	230	101300000	1000	0	0	-1	0
9947915	7508	0	0	-100	0	230	101300000	1000	0	0	-1	0
9960475	7514	3	0	-100	0	230	101300000	1000	0	0	-1	0
9973035	7513	0	0	-100	0	230	101300000	1000	0	0	-1	0
9985595	7516	0	0	-100	0	230	101300000	1000	0	0	-1	0
9998155	7512	2	0	-100	0	230	101300000	1000	0	0	-1	0
10010715	7505	1	0	-100	0	230	101300000	1000	0	0	-1	0
10023275	7519	0	0	-100	0	230	101300000	1000	0	0	-1	0
10035835	7503	0	0	-100	0	230	101300000	1000	0	0	-1	0
10048395	7507	3	0	-100	0	230	101300000	1000	0	0	-1	0
10060955	7519	0	0	-100	0	230	101300000	1000	0	0	-1	0
10073515	7507	0	0	-100	0	230	101300000	1000	0	0	-1	0
10086075	7507	4	0	-100	0	230	101300000	1000	0	0	-1	0
10098635	7513	0	0	-100	0	230	101300000	1000	0	0	-1	0
10111195	7505	0	0	-100	0	230	101300000	1000	0	0	-1	0
10123755	7514	2	0	-100	0	230	101300000	1000	0	0	-1	0
10136315	7517	0	0	-100	0	230	101300000	1000	0	0	-1	0
10148875	7503	0	0	-100	0	230	101300000	1000	0	0	-1	0
10161435	7512	4	0	-100	0	230	101300000	1000	0	0	-1	0
10173995	7512	2	0	-100	0	230	101300000	1000	0	0	-1	0
10186555	7514	0	0	-100	0	230	101300000	1000	0	0	-1	0
10199115	7510	0	0	-100	0	230	101300000	1000	0	0	-1	0
10211675	7509	4	0	-100	0	230	101300000	1000	0	0	-1	0
10224235	7512	0	0	-100	0	230	101300000	1000	0	0	-1	0
10236795	7515	0	0	-100	0	230	101300000	1000	0	0	-1	0
10249355	7514	0	0	-100	0	230	101300000	1000	0	0	-1	0
10261915	7512	0	0	-100	0	230	101300000	1000	0	0	-1	0
10274475	7512	5	0	-100	0	230	101300000	1000	0	0	-1	0
10287035	7509	4	0	-100	0	230	101300000	1000	0	0	-1	0
10299595	7507	1	0	-100	0	230	101300000	1000	0	0	-1	0
10312155	7511	4	0	-100	0	230	101300000	1000	0	0	-1	0
10324715	7509	3	0	-100	0	230	101300000	1000	0	0	-1	0
10337275	7516	0	0	-100	0	230	101300000	1000	0	0	-1	0
10349835	7514	0	0	-100	0	230	101300000	1000	0	0	-1	0
10362395	7512	0	0	-100	0	230	101300000	1000	0	0	-1	0
10374955	7510	0	0	-100	0	230	101300000	1000	0	0	-1	0
10387515	7514	4	0	-100	0	230	101300000	1000	0	0	-1	0
10400075	7512	2	0	-100	0	230	101300000	1000	0	0	-1	0
10412635	7514	0	0	-100	0	230	101300000	1000	0	0	-1	0
10425195	7516	0	0	-100	0	230	101300000	1000	0	0	-1	0
10437755	7514	0	0	-100	0	230	101300000	1000	0	0	-1	0
10450315	7503	0	0	-100	0	230	101300000	1000	0	0	-1	0
10462875	7516	4	0	-100	0	230	101300000	1000	0	0	-1	0
10475435	7508	3	0	-100	0	230	101300000	1000	0	0	-1	0
10487995	7512	5	0	-100	0	230	101300000	1000	0	0	-1	0
10500555	7515	0	0	-100	0	230	101300000	1000	0	0	-1	0
10513115	7510	0	0	-100	0	230	101300000	1000	0	0	-1	0
10525675	7509	4	0	-100	0	230	101300000	1000	0	0	-1	0
10538235	7514	0	0	-100	0	230	101300000	1000	0	0	-1	0
10550795	7512	0	0	-100	0	230	101300000	1000	0	0	-1	0
10563355	7514	0	0	-100	0	230	101300000	1000	0	0	-1	0
10575915	7514	1	0	-100	0	230	101300000	1000	0	0	-1	0
10588475	7512	0	0	-100	0	230	101300000	1000	0	0	-1	0
10601035	7514	4	0	-100	0	230	101300000	1000	0	0	-1	0
10613595	7510	1	0	-100	0	230	101300000	1000	0	0	-1	0
10626155	7516	0	0	-100	0	230	101300000	1000	0	0	-1	0
10638715	7514	0	0	-100	0	230	101300000	1000	0	0	-1	0
10651275	7507	0	0	-100	0	230	101300000	1000	0	0	-1	0
10663835	7514	1	0	-100	0	230	101300000	1000	0	0	-1	0
10676395	7512	0	0	-100	0	230	101300000	1000	0	0	-1	0
10688955	7507	0	0	-100	0	230	101300000	1000	0	0	-1	0
10701515	7510	4	0	-100	0	230	101300000	1000	0	0	-1	0
10714075	7514	0	0	-100	0	230	101300000	1000	0	0	-1	0
10726635	7512	0	0	-100	0	230	101300000	1000	0	0	-1	0
10739195	7510	4	0	-100	0	230	101300000	1000	0	0	-1	0
10751755	7518	0	0	-100	0	230	101300000	1000	0	0	-1	0
10764315	7516	0	0	-100	0	230	101300000	1000	0	0	-1	0
10776875	7512	3	0	-100	0	230	101300000	1000	0	0	-1	0
10789435	7519	0	0	-100	0	230	101300000	1000	0	0	-1	0
10801995	7508	0	0	-100	0	230	101300000	1000	0	0	-1	0
10814555	7514	0	0	-100	0	230	101300000	1000	0	0	-1	0
10827115	7510	0	0	-100	0	230	101300000	1000	0	0	-1	0
10839675	7510	4	0	-100	0	230	101300000	1000	0	0	-1	0
10852235	7512	0	0	-100	0	230	101300000	1000	0	0	-1	0
10864795	7512	0	0	-100	0	230	101300000	1000	0	0	-1	0
10877355	7510	4	0	-100	0	230	101300000	1000	0	0	-1	0
10889915	7511	2	0	-100	0	230	101300000	1000	0	0	-1	0
10902475	7517	0	0	-100	0	230	101300000	1000	0	0	-1	0
10915035	7514	0	0	-100	0	230	101300000	1000	0	0	-1	0
10927595	7512	4	0	-100	0	230	101300000	1000	0	0	-1	0
10940155	7514	0	0	-100	0	230	101300000	1000	0	0	-1	0
10952715	7512	0	0	-100	0	230	101300000	1000	0	0	-1	0
10965275	7510	0	0	-100	0	230	101300000	1000	0	0	-1	0
10977835	7514	3	0	-100	0	230	101300000	1000	0	0	-1	0
10990395	7512	0	0	-100	0	230	101300000	1000	0	0	-1	0
11002955	7512	0	0	-100	0	230	101300000	1000	0	0	-1	0
11015515	7511	0	0	-100	0	230	101300000	1000	0	0	-1	0
11028075	7509	1	0	-100	0	230	101300000	1000	0	0	-1	0
11040635	7519	0	0	-100	0	230	101300000	1000	0	0	-1	0
11053195	7512	0	0	-100	0	230	101300000	1000	0	0	-1	0
11065755	7509	4	0	-100	0	230	101300000	1000	0	0	-1	0
11078315	7517	0	0	-100	0	230	101300000	1000	0	0	-1	0
11090875	7508	0	0	-100	0	230	101300000	1000	0	0	-1	0
11103435	7518	2	0	-100	0	230	101300000	1000	0	0	-1	0
11115995	7519	4	0	-100	0	230	101300000	1000	0	0	-1	0
11128555	7514	0	0	-100	0	230	101300000	1000	0	0	-1	0
11141115	7510	0	0	-100	0	230	101300000	1000	0	0	-1	0
11153675	7510	3	0	-100	0	230	101300000	1000	0	0	-1	0
11166235	7516	0	0	-100	0	230	101300000	1000	0	0	-1	0
11178795	7508	0	0	-100	0	230	101300000	1000	0	0	-1	0
11191355	7511	3	0	-100	0	230	101300000	1000	0	0	-1	0
11203915	7514	0	0	-100	0	230	101300000	1000	0	0	-1	0
11216475	7512	0	0	-100	0	230	101300000	1000	0	0	-1	0
11229035	7509	1	0	-100	0	230	101300000	1000	0	0	-1	0
11241595	7514	0	0	-100	0	230	101300000	1000	0	0	-1	0
11254155	7509	3	0	-100	0	230	101300000	1000	0	0	-1	0
11266715	7510	0	0	-100	0	230	101300000	1000	0	0	-1	0
11279275	7512	0	0	-100	0	230	101300000	1000	0	0	-1	0
11291835	7511	3	0	-100	0	230	101300000	1000	0	0	-1	0
11304395	7518	0	0	-100	0	230	101300000	1000	0	0	-1	0
11316955	7514	0	0	-100	0	230	101300000	1000	0	0	-1	0
11329515	7507	4	0	-100	0	230	101300000	1000	0	0	-1	0
11342075	7517	0	0	-100	0	230	101300000	1000	0	0	-1	0
11354635	7503	0	0	-100	0	230	101300000	1000	0	0	-1	0
11367195	7514	1	0	-100	0	230	101300000	1000	0	0	-1	0
11379755	7516	0	0	-100	0	230	101300000	1000	0	0	-1	0
11392315	7509	4	0	-100	0	230	101300000	1000	0	0	-1	0
11404875	7515	0	0	-100	0	230	101300000	1000	0	0	-1	0
11417435	7512	0	0	-100	0	230	101300000	1000	0	0	-1	0
11429995	7510	0	0	-100	0	230	101300000	1000	0	0	-1	0
11442555	7519	0	0	-100	0	230	101300000	1000	0	0	-1	0
11455115	7505	0	0	-100	0	230	101300000	1000	0	0	-1	0
11467675	7511	1	0	-100	0	230	101300000	1000	0	0	-1	0
11480235	7517	0	0	-100	0	230	101300000	1000	0	0	-1	0
11492795	7506	0	0	-100	0	230	101300000	1000	0	0	-1	0
11505355	7510	2	0	-100	0	230	101300000	1000	0	0	-1	0
11517915	7517	0	0	-100	0	230	101300000	1000	0	0	-1	0
11530475	7512	0	0	-100	0	230	101300000	1000	0	0	-1	0
11543035	7512	4	0	-100	0	230	101300000	1000	0	0	-1	0
11555595	7510	1	0	-100	0	230	101300000	1000	0	0	-1	0
11568155	7516	0	0	-100	0	230	101300000	1000	0	0	-1	0
11580715	7512	2	0	-100	0	230	101300000	1000	0	0	-1	0
11593275	7510	0	0	-100	0	230	101300000	1000	0	0	-1	0
11605835	7516	0	0	-100	0	230	101300000	1000	0	0	-1	0
11618395	7512	4	0	-100	0	230	101300000	1000	0	0	-1	0
11630955	7517	0	0	-100	0	230	101300000	1000	0	0	-1	0
11643515	7512	0	0	-100	0	230	101300000	1000	0	0	-1	0
11656075	7512	4	0	-100	0	230	101300000	1000	0	0	-1	0
11668635	7514	0	0	-100	0	230	101300000	1000	0	0	-1	0
11681195	7518	2	0	-100	0	230	101300000	1000	0	0	-1	0
11693755	7516	0	0	-100	0	230	101300000	1000	0	0	-1	0
11706315	7514	0	0	-100	0	230	101300000	1000	0	0	-1	0
11718875	7511	3	0	-100	0	230	101300000	1000	0	0	-1	0
11731435	7514	0	0	-100	0	230	101300000	1000	0	0	-1	0
11743995	7505	0	0	-100	0	230	101300000	1000	0	0	-1	0
11756555	7512	0	0	-100	0	230	101300000	1000	0	0	-1	0
11769115	7512	0	0	-100	0	230	101300000	1000	0	0	-1	0
11781675	7509	4	0	-100	0	230	101300000	1000	0	0	-1	0
11794235	7516	0	0	-100	0	230	101300000	1000	0	0	-1	0
11806795	7514	0	0	-100	0	230	101300000	1000	0	0	-1	0
11819355	7511	4	0	-100	0	230	101300000	1000	0	0	-1	0
11831915	7516	0	0	-100	0	230	101300000	1000	0	0	-1	0
11844475	7507	0	0	-100	0	230	101300000	1000	0	0	-1	0
11857035	7514	2	0	-100	0	230	101300000	1000	0	0	-1	0
11869595	7510	0	0	-100	0	230	101300000	1000	0	0	-1	0
11882155	7509	4	0	-100	0	230	101300000	1000	0	0	-1	0
11894715	7519	0	0	-100	0	230	101300000	1000	0	0	-1	0
11907275	7512	0	0	-100	0	230	101300000	1000	0	0	-1	0
11919835	7514	2	0	-100	0	230	101300000	1000	0	0	-1	0
11932395	7512	0	0	-100	0	230	101300000	1000	0	0	-1	0
11944955	7508	0	0	-100	0	230	101300000	1000	0	0	-1	0
11957515	7510	3	0	-100	0	230	101300000	1000	0	0	-1	0
11970075	7514	0	0	-100	0	230	101300000	1000	0	0	-1	0
11982635	7510	0	0	-100	0	230	101300000	1000	0	0	-1	0
11995195	7510	0	0	-100	0	230	101300000	1000	0	0	-1	0
12007755	7518	0	0	-100	0	230	101300000	1000	0	0	-1	0
12020315	7512	0	0	-100	0	230	101300000	1000	0	0	-1	0
12032875	7516	3	0	-100	0	230	101300000	1000	0	0	-1	0
12045435	7509	0	0	-100	0	230	101300000	1000	0	0	-1	0
12057995	7517	3	0	-100	0	230	101300000	1000	0	0	-1	0
12070555	7507	0	0	-100	0	230	101300000	1000	0	0	-1	0
12083115	7512	5	0	-100	0	230	101300000	1000	0	0	-1	0
12095675	7510	1	0	-100	0	230	101300000	1000	0	0	-1	0
12108235	7517	0	0	-100	0	230	101300000	1000	0	0	-1	0
12120795	7514	0	0	-100	0	230	101300000	1000	0	0	-1	0
12133355	7512	0	0	-100	0	230	101300000	1000	0	0	-1	0
12145915	7511	2	0	-100	0	230	101300000	1000	0	0	-1	0
12158475	7521	0	0	-100	0	230	101300000	1000	0	0	-1	0
12171035	7512	0	0	-100	0	230	101300000	1000	0	0	-1	0
12183595	7514	0	0	-100	0	230	101300000	1000	0	0	-1	0
12196155	7514	3	0	-100	0	230	101300000	1000	0	0	-1	0
12208715	7505	2	0	-100	0	230	101300000	1000	0	0	-1	0
12221275	7521	0	0	-100	0	230	101300000	1000	0	0	-1	0
12233835	7510	0	0	-100	0	230	101300000	1000	0	0	-1	0
12246395	7507	0	0	-100	0	230	101300000	1000	0	0	-1	0
12258955	7512	4	0	-100	0	230	101300000	1000	0	0	-1	0
12271515	7516	0	0	-100	0	230	101300000	1000	0	0	-1	0
12284075	7514	0	0	-100	0	230	101300000	1000	0	0	-1	0
12296635	7510	0	0	-100	0	230	101300000	1000	0	0	-1	0
12309195	7507	1	0	-100	0	230	101300000	1000	0	0	-1	0
12321755	7513	0	0	-100	0	230	101300000	1000	0	0	-1	0
12334315	7508	0	0	-100	0	230	101300000	1000	0	0	-1	0
12346875	7509	4	0	-100	0	230	101300000	1000	0	0	-1	0
12359435	7517	0	0	-100	0	230	101300000	1000	0	0	-1	0
12371995	7512	0	0	-100	0	230	101300000	1000	0	0	-1	0
12384555	7514	3	0	-100	0	230	101300000	1000	0	0	-1	0
12397115	7517	0	0	-100	0	230	101300000	1000	0	0	-1	0
12409675	7510	0	0	-100	0	230	101300000	1000	0	0	-1	0
12422235	7514	4	0	-100	0	230	101300000	1000	0	0	-1	0
12434795	7517	0	0	-100	0	230	101300000	1000	0	0	-1	0
12447355	7512	0	0	-100	0	230	101300000	1000	0	0	-1	0
12459915	7512	4	0	-100	0	230	101300000	1000	0	0	-1	0
12472475	7510	1	0	-100	0	230	101300000	1000	0	0	-1	0
12485035	7512	0	0	-100	0	230	101300000	1000	0	0	-1	0
12497595	7512	0	0	-100	0	230	101300000	1000	0	0	-1	0
12510155	7505	0	0	-100	0	230	101300000	1000	0	0	-1	0
12522715	7509	3	0	-100	0	230	101300000	1000	0	0	-1	0
12535275	7521	0	0	-100	0	230	101300000	1000	0	0	-1	0
12547835	7512	0	0	-100	0	230	101300000	1000	0	0	-1	0
12560395	7512	0	0	-100	0	230	101300000	1000	0	0	-1	0
12572955	7510	4	0	-100	0	230	101300000	1000	0	0	-1	0
12585515	7512	0	0	-100	0	230	101300000	1000	0	0	-1	0
12598075	7517	0	0	-100	0	230	101300000	1000	0	0	-1	0
12610635	7512	0	0	-100	0	230	101300000	1000	0	0	-1	0
12623195	7512	4	0	-100	0	230	101300000	1000	0	0	-1	0
12635755	7514	3	0	-100	0	230	101300000	1000	0	0	-1	0
12648315	7510	0	0	-100	0	230	101300000	1000	0	0	-1	0
12660875	7517	0	0	-100	0	230	101300000	1000	0	0	-1	0
12673435	7512	0	0	-100	0	230	101300000	1000	0	0	-1	0
12685995	7505	0	0	-100	0	230	101300000	1000	0	0	-1	0
12698555	7510	3	0	-100	0	230	101300000	1000	0	0	-1	0
12711115	7514	0	0	-100	0	230	101300000	1000	0	0	-1	0
12723675	7515	0	0	-100	0	230	101300000	1000	0	0	-1	0
12736235	7512	0	0	-100	0	230	101300000	1000	0	0	-1	0
12748795	7507	4	0	-100	0	230	101300000	1000	0	0	-1	0
12761355	7512	0	0	-100	0	230	101300000	1000	0	0	-1	0
12773915	7513	0	0	-100	0	230	101300000	1000	0	0	-1	0
12786475	7514	0	0	-100	0	230	101300000	1000	0	0	-1	0
12799035	7514	0	0	-100	0	230	101300000	1000	0	0	-1	0
12811595	7508	0	0	-100	0	230	101300000	1000	0	0	-1	0
12824155	7509	0	0	-100	0	230	101300000	1000	0	0	-1	0
12836715	7511	4	0	-100	0	230	101300000	1000	0	0	-1	0
12849275	7512	0	0	-100	0	230	101300000	1000	0	0	-1	0
12861835	7517	0	0	-100	0	230	101300000	1000	0	0	-1	0
12874395	7514	0	0	-100	0	230	101300000	1000	0	0	-1	0
12886955	7510	0	0	-100	0	230	101300000	1000	0	0	-1	0
12899515	7506	0	0	-100	0	230	101300000	1000	0	0	-1	0
12912075	7507	4	0	-100	0	230	101300000	1000	0	0	-1	0
12924635	7512	0	0	-100	0	230	101300000	1000	0	0	-1	0
12937195	7519	0	0	-100	0	230	101300000	1000	0	0	-1	0
12949755	7510	0	0	-100	0	230	101300000	1000	0	0	-1	0
12962315	7510	0	0	-100	0	230	101300000	1000	0	0	-1	0
12974875	7510	0	0	-100	0	230	101300000	1000	0	0	-1	0
12987435	7510	4	0	-100	0	230	101300000	1000	0	0	-1	0
12999995	7509	0	0	-100	0	230	101300000	1000	0	0	-1	0
13012555	7517	0	0	-100	0	230	101300000	1000	0	0	-1	0
13025115	7514	0	0	-100	0	230	101300000	1000	0	0	-1	0
13037675	7512	0	0	-100	0	230	101300000	1000	0	0	-1	0
13050235	7516	4	0	-100	0	230	101300000	1000	0	0	-1	0
13062795	7512	3	0	-100	0	230	101300000	1000	0	0	-1	0
13075355	7510	0	0	-100	0	230	101300000	1000	0	0	-1	0
13087915	7519	0	0	-100	0	230	101300000	1000	0	0	-1	0
13100475	7515	0	0	-100	0	230	101300000	1000	0	0	-1	0
13113035	7510	0	0	-100	0	230	101300000	1000	0	0	-1	0
13125595	7512	4	0	-100	0	230	101300000	1000	0	0	-1	0
13138155	7509	2	0	-100	0	230	101300000	1000	0	0	-1	0
13150715	7514	0	0	-100	0	230	101300000	1000	0	0	-1	0
13163275	7516	0	0	-100	0	230	101300000	1000	0	0	-1	0
13175835	7507	0	0	-100	0	230	101300000	1000	0	0	-1	0
13188395	7510	2	0	-100	0	230	101300000	1000	0	0	-1	0
13200955	7516	0	0	-100	0	230	101300000	1000	0	0	-1	0
13213515	7505	0	0	-100	0	230	101300000	1000	0	0	-1	0
13226075	7511	4	0	-100	0	230	101300000	1000	0	0	-1	0
13238635	7516	0	0	-100	0	230	101300000	1000	0	0	-1	0
13251195	7510	0	0	-100	0	230	101300000	1000	0	0	-1	0
13263755	7512	0	0	-100	0	230	101300000	1000	0	0	-1	0
13276315	7514	5	0	-100	0	230	101300000	1000	0	0	-1	0
13288875	7509	1	0	-100	0	230	101300000	1000	0	0	-1	0
13301435	7514	0	0	-100	0	230	101300000	1000	0	0	-1	0
13313995	7512	0	0	-100	0	230	101300000	1000	0	0	-1	0
13326555	7503	0	0	-100	0	230	101300000	1000	0	0	-1	0
13339115	7512	4	0	-100	0	230	101300000	1000	0	0	-1	0
13351675	7507	1	0	-100	0	230	101300000	1000	0	0	-1	0
13364235	7513	0	0	-100	0	230	101300000	1000	0	0	-1	0
13376795	7514	0	0	-100	0	230	101300000	1000	0	0	-1	0
13389355	7507	4	0	-100	0	230	101300000	1000	0	0	-1	0
13401915	7509	1	0	-100	0	230	101300000	1000	0	0	-1	0
13414475	7513	0	0	-100	0	230	101300000	1000	0	0	-1	0
13427035	7510	0	0	-100	0	230	101300000	1000	0	0	-1	0
13439595	7510	4	0	-100	0	230	101300000	1000	0	0	-1	0
13452155	7507	1	0	-100	0	230	101300000	1000	0	0	-1	0
13464715	7518	0	0	-100	0	230	101300000	1000	0	0	-1	0
13477275	7512	0	0	-100	0	230	101300000	1000	0	0	-1	0
13489835	7507	4	0	-100	0	230	101300000	1000	0	0	-1	0
13502395	7510	0	0	-100	0	230	101300000	1000	0	0	-1	0
13514955	7510	0	0	-100	0	230	101300000	1000	0	0	-1	0
13527515	7509	3	0	-100	0	230	101300000	1000	0	0	-1	0
13540075	7517	0	0	-100	0	230	101300000	1000	0	0	-1	0
13552635	7510	0	0	-100	0	230	101300000	1000	0	0	-1	0
13565195	7510	4	0	-100	0	230	101300000	1000	0	0	-1	0
13577755	7521	0	0	-100	0	230	101300000	1000	0	0	-1	0
13590315	7516	0	0	-100	0	230	101300000	1000	0	0	-1	0
13602875	7514	3	0	-100	0	230	101300000	1000	0	0	-1	0
13615435	7515	0	0	-100	0	230	101300000	1000	0	0	-1	0
13627995	7508	0	0	-100	0	230	101300000	1000	0	0	-1	0
13640555	7512	5	0	-100	0	230	101300000	1000	0	0	-1	0
13653115	7514	0	0	-100	0	230	101300000	1000	0	0	-1	0
13665675	7514	0	0	-100	0	230	101300000	1000	0	0	-1	0
13678235	7510	0	0	-100	0	230	101300000	1000	0	0	-1	0
13690795	7509	4	0	-100	0	230	101300000	1000	0	0	-1	0
13703355	7515	0	0	-100	0	230	101300000	1000	0	0	-1	0
13715915	7510	0	0	-100	0	230	101300000	1000	0	0	-1	0
13728475	7509	1	0	-100	0	230	101300000	1000	0	0	-1	0
13741035	7512	0	0	-100	0	230	101300000	1000	0	0	-1	0
13753595	7508	0	0	-100	0	230	101300000	1000	0	0	-1	0
13766155	7513	0	0	-100	0	230	101300000	1000	0	0	-1	0
13778715	7517	0	0	-100	0	230	101300000	1000	0	0	-1	0
13791275	7507	0	0	-100	0	230	101300000	1000	0	0	-1	0
13803835	7509	4	0	-100	0	230	101300000	1000	0	0	-1	0
13816395	7514	0	0	-100	0	230	101300000	1000	0	0	-1	0
13828955	7510	0	0	-100	0	230	101300000	1000	0	0	-1	0
13841515	7505	0	0	-100	0	230	101300000	1000	0	0	-1	0
13854075	7512	2	0	-100	0	230	101300000	1000	0	0	-1	0
13866635	7516	0	0	-100	0	230	101300000	1000	0	0	-1	0
13879195	7516	4	0	-100	0	230	101300000	1000	0	0	-1	0
13891755	7514	0	0	-100	0	230	101300000	1000	0	0	-1	0
13904315	7512	0	0	-100	0	230	101300000	1000	0	0	-1	0
13916875	7514	0	0	-100	0	230	101300000	1000	0	0	-1	0
13929435	7512	0	0	-100	0	230	101300000	1000	0	0	-1	0
13941995	7514	0	0	-100	0	230	101300000	1000	0	0	-1	0
13954555	7518	0	0	-100	0	230	101300000	1000	0	0	-1	0
13967115	7516	0	0	-100	0	230	101300000	1000	0	0	-1	0
13979675	7512	0	0	-100	0	230	101300000	1000	0	0	-1	0
13992235	7504	0	0	-100	0	230	101300000	1000	0	0	-1	0
14004795	7511	2	0	-100	0	230	101300000	1000	0	0	-1	0
14017355	7519	0	0	-100	0	230	101300000	1000	0	0	-1	0
14029915	7514	0	0	-100	0	230	101300000	1000	0	0	-1	0
14042475	7512	3	0	-100	0	230	101300000	1000	0	0	-1	0
14055035	7514	0	0	-100	0	230	101300000	1000	0	0	-1	0
14067595	7510	0	0	-100	0	230	101300000	1000	0	0	-1	0
14080155	7510	0	0	-100	0	230	101300000	1000	0	0	-1	0
14092715	7512	4	0	-100	0	230	101300000	1000	0	0	-1	0
14105275	7516	0	0	-100	0	230	101300000	1000	0	0	-1	0
14117835	7513	0	0	-100	0	230	101300000	1000	0	0	-1	0
14130395	7514	0	0	-100	0	230	101300000	1000	0	0	-1	0
14142955	7512	0	0	-100	0	230	101300000	1000	0	0	-1	0
14155515	7512	4	0	-100	0	230	101300000	1000	0	0	-1	0
14168075	7511	1	0	-100	0	230	101300000	1000	0	0	-1	0
14180635	7512	0	0	-100	0	230	101300000	1000	0	0	-1	0
14193195	7515	0	0	-100	0	230	101300000	1000	0	0	-1	0
14205755	7516	0	0	-100	0	230	101300000	1000	0	0	-1	0
14218315	7512	0	0	-100	0	230	101300000	1000	0	0	-1	0
14230875	7514	4	0	-100	0	230	101300000	1000	0	0	-1	0
14243435	7507	1	0	-100	0	230	101300000	1000	0	0	-1	0
14255995	7516	4	0	-100	0	230	101300000	1000	0	0	-1	0
14268555	7512	0	0	-100	0	230	101300000	1000	0	0	-1	0
14281115	7506	0	0	-100	0	230	101300000	1000	0	0	-1	0
14293675	7507	2	0	-100	0	230	101300000	1000	0	0	-1	0
14306235	7514	0	0	-100	0	230	101300000	1000	0	0	-1	0
14318795	7512	0	0	-100	0	230	101300000	1000	0	0	-1	0
14331355	7510	4	0	-100	0	230	101300000	1000	0	0	-1	0
14343915	7512	0	0	-100	0	230	101300000	1000	0	0	-1	0
14356475	7506	0	0	-100	0	230	101300000	1000	0	0	-1	0
14369035	7509	1	0	-100	0	230	101300000	1000	0	0	-1	0
14381595	7514	0	0	-100	0	230	101300000	1000	0	0	-1	0
14394155	7509	0	0	-100	0	230	101300000	1000	0	0	-1	0
14406715	7508	3	0	-100	0	230	101300000	1000	0	0	-1	0
14419275	7514	0	0	-100	0	230	101300000	1000	0	0	-1	0
14431835	7508	0	0	-100	0	230	101300000	1000	0	0	-1	0
14444395	7512	2	0	-100	0	230	101300000	1000	0	0	-1	0
14456955	7512	0	0	-100	0	230	101300000	1000	0	0	-1	0
14469515	7507	0	0	-100	0	230	101300000	1000	0	0	-1	0
14482075	7509	4	0	-100	0	230	101300000	1000	0	0	-1	0
14494635	7517	0	0	-100	0	230	101300000	1000	0	0	-1	0
14507195	7510	0	0	-100	0	230	101300000	1000	0	0	-1	0
14519755	7508	0	0	-100	0	230	101300000	1000	0	0	-1	0
14532315	7507	3	0	-100	0	230	101300000	1000	0	0	-1	0
14544875	7511	1	0	-100	0	230	101300000	1000	0	0	-1	0
14557435	7514	0	0	-100	0	230	101300000	1000	0	0	-1	0
14569995	7517	3	0	-100	0	230	101300000	1000	0	0	-1	0
14582555	7514	0	0	-100	0	230	101300000	1000	0	0	-1	0
14595115	7512	0	0	-100	0	230	101300000	1000	0	0	-1	0
14607675	7508	6	0	-100	0	230	101300000	1000	0	0	-1	0
14620235	7512	2	0	-100	0	230	101300000	1000	0	0	-1	0
14632795	7514	0	0	-100	0	230	101300000	1000	0	0	-1	0
14645355	7514	0	0	-100	0	230	101300000	1000	0	0	-1	0
14657915	7504	0	0	-100	0	230	101300000	1000	0	0	-1	0
14670475	7510	4	0	-100	0	230	101300000	1000	0	0	-1	0
14683035	7510	3	0	-100	0	230	101300000	1000	0	0	-1	0
14695595	7514	0	0	-100	0	230	101300000	1000	0	0	-1	0
14708155	7510	0	0	-100	0	230	101300000	1000	0	0	-1	0
14720715	7517	0	0	-100	0	230	101300000	1000	0	0	-1	0
14733275	7512	0	0	-100	0	230	101300000	1000	0	0	-1	0
14745835	7512	0	0	-100	0	230	101300000	1000	0	0	-1	0
14758395	7512	1	0	-100	0	230	101300000	1000	0	0	-1	0
14770955	7509	4	0	-100	0	230	101300000	1000	0	0	-1	0
14783515	7514	0	0	-100	0	230	101300000	1000	0	0	-1	0
14796075	7517	0	0	-100	0	230	101300000	1000	0	0	-1	0
14808635	7512	0	0	-100	0	230	101300000	1000	0	0	-1	0
14821195	7510	0	0	-100	0	230	101300000	1000	0	0	-1	0
14833755	7509	0	0	-100	0	230	101300000	1000	0	0	-1	0
14846315	7509	4	0	-100	0	230	101300000	1000	0	0	-1	0
14858875	7510	2	0	-100	0	230	101300000	1000	0	0	-1	0
14871435	7512	0	0	-100	0	230	101300000	1000	0	0	-1	0
14883995	7510	0	0	-100	0	230	101300000	1000	0	0	-1	0
14896555	7513	3	0	-100	0	230	101300000	1000	0	0	-1	0
14909115	7509	0	0	-100	0	230	101300000	1000	0	0	-1	0
14921675	7521	0	0	-100	0	230	101300000	1000	0	0	-1	0
14934235	7512	0	0	-100	0	230	101300000	1000	0	0	-1	0
14946795	7510	0	0	-100	0	230	101300000	1000	0	0	-1	0
14959355	7506	0	0	-100	0	230	101300000	1000	0	0	-1	0
14971915	7514	2	0	-100	0	230	101300000	1000	0	0	-1	0
14984475	7509	4	0	-100	0	230	101300000	1000	0	0	-1	0
14997035	7510	3	0	-100	0	230	101300000	1000	0	0	-1	0
15009595	7512	0	0	-100	0	230	101300000	1000	0	0	-1	0
15022155	7514	0	0	-100	0	230	101300000	1000	0	0	-1	0
15034715	7512	0	0	-100	0	230	101300000	1000	0	0	-1	0
15047275	7505	0	0	-100	0	230	101300000	1000	0	0	-1	0
15059835	7512	4	0	-100	0	230	101300000	1000	0	0	-1	0
15072395	7516	0	0	-100	0	230	101300000	1000	0	0	-1	0
15084955	7512	0	0	-100	0	230	101300000	1000	0	0	-1	0
15097515	7516	0	0	-100	0	230	101300000	1000	0	0	-1	0
15110075	7509	0	0	-100	0	230	101300000	1000	0	0	-1	0
15122635	7505	0	0	-100	0	230	101300000	1000	0	0	-1	0
15135195	7510	4	0	-100	0	230	101300000	1000	0	0	-1	0
15147755	7509	3	0	-100	0	230	101300000	1000	0	0	-1	0
15160315	7514	0	0	-100	0	230	101300000	1000	0	0	-1	0
15172875	7517	0	0	-100	0	230	101300000	1000	0	0	-1	0
15185435	7510	0	0	-100	0	230	101300000	1000	0	0	-1	0
15197995	7512	0	0	-100	0	230	101300000	1000	0	0	-1	0
15210555	7517	0	0	-100	0	230	101300000	1000	0	0	-1	0
15223115	7516	0	0	-100	0	230	101300000	1000	0	0	-1	0
15235675	7510	0	0	-100	0	230	101300000	1000	0	0	-1	0
15248235	7509	3	0	-100	0	230	101300000	1000	0	0	-1	0
15260795	7517	0	0	-100	0	230	101300000	1000	0	0	-1	0
15273355	7510	0	0	-100	0	230	101300000	1000	0	0	-1	0
15285915	7509	3	0	-100	0	230	101300000	1000	0	0	-1	0
15298475	7517	0	0	-100	0	230	101300000	1000	0	0	-1	0
15311035	7516	0	0	-100	0	230	101300000	1000	0	0	-1	0
15323595	7513	3	0	-100	0	230	101300000	1000	0	0	-1	0
15336155	7512	0	0	-100	0	230	101300000	1000	0	0	-1	0
15348715	7510	1	0	-100	0	230	101300000	1000	0	0	-1	0
15361275	7516	0	0	-100	0	230	101300000	1000	0	0	-1	0
15373835	7514	0	0	-100	0	230	101300000	1000	0	0	-1	0
15386395	7510	3	0	-100	0	230	101300000	1000	0	0	-1	0
15398955	7512	0	0	-100	0	230	101300000	1000	0	0	-1	0
15411515	7512	0	0	-100	0	230	101300000	1000	0	0	-1	0
15424075	7508	4	0	-100	0	230	101300000	1000	0	0	-1	0
15436635	7521	0	0	-100	0	230	101300000	1000	0	0	-1	0
15449195	7508	0	0	-100	0	230	101300000	1000	0	0	-1	0
15461755	7510	4	0	-100	0	230	101300000	1000	0	0	-1	0
15474315	7507	1	0	-100	0	230	101300000	1000	0	0	-1	0
15486875	7514	0	0	-100	0	230	101300000	1000	0	0	-1	0
15499435	7519	0	0	-100	0	230	101300000	1000	0	0	-1	0
15511995	7512	0	0	-100	0	230	101300000	1000	0	0	-1	0
15524555	7509	4	0	-100	0	230	101300000	1000	0	0	-1	0
15537115	7512	1	0	-100	0	230	101300000	1000	0	0	-1	0
15549675	7521	0	0	-100	0	230	101300000	1000	0	0	-1	0
15562235	7514	0	0	-100	0	230	101300000	1000	0	0	-1	0
15574795	7512	0	0	-100	0	230	101300000	1000	0	0	-1	0
15587355	7514	0	0	-100	0	230	101300000	1000	0	0	-1	0
15599915	7506	0	0	-100	0	230	101300000	1000	0	0	-1	0
15612475	7512	0	0	-100	0	230	101300000	1000	0	0	-1	0
15625035	7507	0	0	-100	0	230	101300000	1000	0	0	-1	0
15637595	7514	4	0	-100	0	230	101300000	1000	0	0	-1	0
15650155	7509	3	0	-100	0	230	101300000	1000	0	0	-1	0
15662715	7510	0	0	-100	0	230	101300000	1000	0	0	-1	0
15675275	7517	0	0	-100	0	230	101300000	1000	0	0	-1	0
15687835	7508	0	0	-100	0	230	101300000	1000	0	0	-1	0
15700395	7514	0	0	-100	0	230	101300000	1000	0	0	-1	0
15712955	7503	0	0	-100	0	230	101300000	1000	0	0	-1	0
15725515	7507	4	0	-100	0	230	101300000	1000	0	0	-1	0
15738075	7507	2	0	-100	0	230	101300000	1000	0	0	-1	0
15750635	7521	0	0	-100	0	230	101300000	1000	0	0	-1	0
15763195	7516	0	0	-100	0	230	101300000	1000	0	0	-1	0
15775755	7516	0	0	-100	0	230	101300000	1000	0	0	-1	0
15788315	7507	0	0	-100	0	230	101300000	1000	0	0	-1	0
15800875	7510	4	0	-100	0	230	101300000	1000	0	0	-1	0
15813435	7510	4	0	-100	0	230	101300000	1000	0	0	-1	0
15825995	7510	0	0	-100	0	230	101300000	1000	0	0	-1	0
15838555	7515	0	0	-100	0	230	101300000	1000	0	0	-1	0
15851115	7515	0	0	-100	0	230	101300000	1000	0	0	-1	0
15863675	7510	0	0	-100	0	230	101300000	1000	0	0	-1	0
15876235	7512	0	0	-100	0	230	101300000	1000	0	0	-1	0
15888795	7509	4	0	-100	0	230	101300000	1000	0	0	-1	0
15901355	7510	4	0	-100	0	230	101300000	1000	0	0	-1	0
15913915	7516	0	0	-100	0	230	101300000	1000	0	0	-1	0
15926475	7512	0	0	-100	0	230	101300000	1000	0	0	-1	0
15939035	7512	0	0	-100	0	230	101300000	1000	0	0	-1	0
15951595	7510	0	0	-100	0	230	101300000	1000	0	0	-1	0
15964155	7510	0	0	-100	0	230	101300000	1000	0	0	-1	0
15976715	7510	4	0	-100	0	230	101300000	1000	0	0	-1	0
15989275	7507	1	0	-100	0	230	101300000	1000	0	0	-1	0
16001835	7512	0	0	-100	0	230	101300000	1000	0	0	-1	0
16014395	7516	0	0	-100	0	230	101300000	1000	0	0	-1	0
16026955	7509	1	0	-100	0	230	101300000	1000	0	0	-1	0
16039515	7514	2	0	-100	0	230	101300000	1000	0	0	-1	0
16052075	7509	2	0	-100	0	230	101300000	1000	0	0	-1	0
16064635	7509	2	0	-100	0	230	101300000	1000	0	0	-1	0
16077195	7514	3	0	-100	0	230	101300000	1000	0	0	-1	0
16089755	7507	4	0	-100	0	230	101300000	1000	0	0	-1	0
16102315	7510	5	0	-100	0	230	101300000	1000	0	0	-1	0
16114875	7514	3	0	-100	0	230	101300000	1000	0	0	-1	0
16127435	7509	4	0	-100	0	230	101300000	1000	0	0	-1	0
16139995	7514	0	0	-100	0	230	101300000	1000	0	0	-1	0
16152555	7507	1	0	-100	0	230	101300000	1000	0	0	-1	0
16165115	7514	0	0	-100	0	230	101300000	1000	0	0	-1	0
16177675	7515	0	0	-100	0	230	101300000	1000	0	0	-1	0
16190235	7512	0	0	-100	0	230	101300000	1000	0	0	-1	0
16202795	7507	0	0	-100	0	230	101300000	1000	0	0	-1	0
16215355	7510	0	0	-100	0	230	101300000	1000	0	0	-1	0
16227915	7513	3	0	-100	0	230	101300000	1000	0	0	-1	0
16240475	7510	4	0	-100	0	230	101300000	1000	0	0	-1	0
16253035	7514	0	0	-100	0	230	101300000	1000	0	0	-1	0
16265595	7514	0	0	-100	0	230	101300000	1000	0	0	-1	0
16278155	7521	0	0	-100	0	230	101300000	1000	0	0	-1	0
16290715	7512	0	0	-100	0	230	101300000	1000	0	0	-1	0
16303275	7514	0	0	-100	0	230	101300000	1000	0	0	-1	0
16315835	7510	0	0	-100	0	230	101300000	1000	0	0	-1	0
16328395	7509	4	0	-100	0	230	101300000	1000	0	0	-1	0
16340955	7510	3	0	-100	0	230	101300000	1000	0	0	-1	0
16353515	7509	1	0	-100	0	230	101300000	1000	0	0	-1	0
16366075	7518	0	0	-100	0	230	101300000	1000	0	0	-1	0
16378635	7521	0	0	-100	0	230	101300000	1000	0	0	-1	0
16391195	7517	0	0	-100	0	230	101300000	1000	0	0	-1	0
16403755	7519	0	0	-100	0	230	101300000	1000	0	0	-1	0
16416315	7515	0	0	-100	0	230	101300000	1000	0	0	-1	0
16428875	7516	0	0	-100	0	230	101300000	1000	0	0	-1	0
16441435	7514	0	0	-100	0	230	101300000	1000	0	0	-1	0
16453995	7512	0	0	-100	0	230	101300000	1000	0	0	-1	0
16466555	7514	0	0	-100	0	230	101300000	1000	0	0	-1	0
16479115	7512	0	0	-100	0	230	101300000	1000	0	0	-1	0
16491675	7514	0	0	-100	0	230	101300000	1000	0	0	-1	0
16504235	7508	0	0	-100	0	230	101300000	1000	0	0	-1	0
16516795	7510	0	0	-100	0	230	101300000	1000	0	0	-1	0
16529355	7511	0	0	-100	0	230	101300000	1000	0	0	-1	0
16541915	7516	2	0	-100	0	230	101300000	1000	0	0	-1	0
16554475	7512	3	0	-100	0	230	101300000	1000	0	0	-1	0
16567035	7514	3	0	-100	0	230	101300000	1000	0	0	-1	0
16579595	7508	0	0	-100	0	230	101300000	1000	0	0	-1	0
16592155	7507	0	0	-100	0	230	101300000	1000	0	0	-1	0
16604715	7507	0	0	-100	0	230	101300000	1000	0	0	-1	0
16617275	7508	0	0	-100	0	230	101300000	1000	0	0	-1	0
16629835	7510	0	0	-100	0	230	101300000	1000	0	0	-1	0
16642395	7505	0	0	-100	0	230	101300000	1000	0	0	-1	0
16654955	7512	0	0	-100	0	230	101300000	1000	0	0	-1	0
16667515	7509	0	0	-100	0	230	101300000	1000	0	0	-1	0
16680075	7508	0	0	-100	0	230	101300000	1000	0	0	-1	0
16692635	7507	0	0	-100	0	230	101300000	1000	0	0	-1	0
16705195	7512	0	0	-100	0	230	101300000	1000	0	0	-1	0
16717755	7514	0	0	-100	0	230	101300000	1000	0	0	-1	0
16730315	7512	0	0	-100	0	230	101300000	1000	0	0	-1	0
16742875	7509	0	0	-100	0	230	101300000	1000	0	0	-1	0
16755435	7512	3	0	-100	0	230	101300000	1000	0	0	-1	0
16767995	7505	0	0	-100	0	230	101300000	1000	0	0	-1	0
16780555	7510	0	0	-100	0	230	101300000	1000	0	0	-1	0
16793115	7519	0	0	-100	0	230	101300000	1000	0	0	-1	0
16805675	7514	0	0	-100	0	230	101300000	1000	0	0	-1	0
16818235	7514	0	0	-100	0	230	101300000	1000	0	0	-1	0
16830795	7509	2	0	-100	0	230	101300000	1000	0	0	-1	0
16843355	7510	4	0	-100	0	230	101300000	1000	0	0	-1	0
16855915	7514	4	0	-100	0	230	101300000	1000	0	0	-1	0
16868475	7507	0	0	-100	0	230	101300000	1000	0	0	-1	0
16881035	7510	0	0	-100	0	230	101300000	1000	0	0	-1	0
16893595	7510	0	0	-100	0	230	101300000	1000	0	0	-1	0
16906155	7516	0	0	-100	0	230	101300000	1000	0	0	-1	0
16918715	7516	0	0	-100	0	230	101300000	1000	0	0	-1	0
16931275	7507	4	0	-100	0	230	101300000	1000	0	0	-1	0
16943835	7507	0	0	-100	0	230	101300000	1000	0	0	-1	0
16956395	7516	0	0	-100	0	230	101300000	1000	0	0	-1	0
16968955	7513	0	0	-100	0	230	101300000	1000	0	0	-1	0
16981515	7512	0	0	-100	0	230	101300000	1000	0	0	-1	0
16994075	7511	3	0	-100	0	230	101300000	1000	0	0	-1	0
17006635	7505	0	0	-100	0	230	101300000	1000	0	0	-1	0
17019195	7516	0	0	-100	0	230	101300000	1000	0	0	-1	0
17031755	7515	0	0	-100	0	230	101300000	1000	0	0	-1	0
17044315	7516	0	0	-100	0	230	101300000	1000	0	0	-1	0
17056875	7512	1	0	-100	0	230	101300000	1000	0	0	-1	0
17069435	7509	3	0	-100	0	230	101300000	1000	0	0	-1	0
17081995	7509	0	0	-100	0	230	101300000	1000	0	0	-1	0
17094555	7512	4	0	-100	0	230	101300000	1000	0	0	-1	0
17107115	7509	0	0	-100	0	230	101300000	1000	0	0	-1	0
17119675	7514	0	0	-100	0	230	101300000	1000	0	0	-1	0
17132235	7514	0	0	-100	0	230	101300000	1000	0	0	-1	0
17144795	7516	0	0	-100	0	230	101300000	1000	0	0	-1	0
17157355	7510	2	0	-100	0	230	101300000	1000	0	0	-1	0
17169915	7511	2	0	-100	0	230	101300000	1000	0	0	-1	0
17182475	7514	3	0	-100	0	230	101300000	1000	0	0	-1	0
17195035	7512	3	0	-100	0	230	101300000	1000	0	0	-1	0
17207595	7512	4	0	-100	0	230	101300000	1000	0	0	-1	0
17220155	7509	0	0	-100	0	230	101300000	1000	0	0	-1	0
17232715	7512	0	0	-100	0	230	101300000	1000	0	0	-1	0
17245275	7512	0	0	-100	0	230	101300000	1000	0	0	-1	0
17257835	7514	0	0	-100	0	230	101300000	1000	0	0	-1	0
17270395	7507	1	0	-100	0	230	101300000	1000	0	0	-1	0
17282955	7507	4	0	-100	0	230	101300000	1000	0	0	-1	0
17295515	7510	2	0	-100	0	230	101300000	1000	0	0	-1	0
17308075	7512	0	0	-100	0	230	101300000	1000	0	0	-1	0
17320635	7512	0	0	-100	0	230	101300000	1000	0	0	-1	0
17333195	7514	0	0	-100	0	230	101300000	1000	0	0	-1	0
17345755	7514	0	0	-100	0	230	101300000	1000	0	0	-1	0
17358315	7517	0	0	-100	0	230	101300000	1000	0	0	-1	0
17370875	7511	1	0	-100	0	230	101300000	1000	0	0	-1	0
17383435	7505	4	0	-100	0	230	101300000	1000	0	0	-1	0
17395995	7505	0	0	-100	0	230	101300000	1000	0	0	-1	0
17408555	7512	0	0	-100	0	230	101300000	1000	0	0	-1	0
17421115	7517	0	0	-100	0	230	101300000	1000	0	0	-1	0
17433675	7516	0	0	-100	0	230	101300000	1000	0	0	-1	0
17446235	7505	3	0	-100	0	230	101300000	1000	0	0	-1	0
17458795	7510	0	0	-100	0	230	101300000	1000	0	0	-1	0
17471355	7510	0	0	-100	0	230	101300000	1000	0	0	-1	0
17483915	7512	0	0	-100	0	230	101300000	1000	0	0	-1	0
17496475	7512	0	0	-100	0	230	101300000	1000	0	0	-1	0
17509035	7507	4	0	-100	0	230	101300000	1000	0	0	-1	0
17521595	7510	0	0	-100	0	230	101300000	1000	0	0	-1	0
17534155	7512	0	0	-100	0	230	101300000	1000	0	0	-1	0
17546715	7514	0	0	-100	0	230	101300000	1000	0	0	-1	0
17559275	7512	0	0	-100	0	230	101300000	1000	0	0	-1	0
17571835	7512	4	0	-100	0	230	101300000	1000	0	0	-1	0
17584395	7507	0	0	-100	0	230	101300000	1000	0	0	-1	0
17596955	7514	0	0	-100	0	230	101300000	1000	0	0	-1	0
17609515	7512	0	0	-100	0	230	101300000	1000	0	0	-1	0
17622075	7509	2	0	-100	0	230	101300000	1000	0	0	-1	0
17634635	7512	4	0	-100	0	230	101300000	1000	0	0	-1	0
17647195	7503	0	0	-100	0	230	101300000	1000	0	0	-1	0
17659755	7514	0	0	-100	0	230	101300000	1000	0	0	-1	0
17672315	7514	0	0	-100	0	230	101300000	1000	0	0	-1	0
17684875	7519	0	0	-100	0	230	101300000	1000	0	0	-1	0
17697435	7512	0	0	-100	0	230	101300000	1000	0	0	-1	0
17709995	7511	0	0	-100	0	230	101300000	1000	0	0	-1	0
17722555	7513	1	0	-100	0	230	101300000	1000	0	0	-1	0
17735115	7514	4	0	-100	0	230	101300000	1000	0	0	-1	0
17747675	7509	5	0	-100	0	230	101300000	1000	0	0	-1	0
17760235	7510	4	0	-100	0	230	101300000	1000	0	0	-1	0
17772795	7507	4	0	-100	0	230	101300000	1000	0	0	-1	0
17785355	7509	2	0	-100	0	230	101300000	1000	0	0	-1	0
17797915	7514	0	0	-100	0	230	101300000	1000	0	0	-1	0
17810475	7519	0	0	-100	0	230	101300000	1000	0	0	-1	0
17823035	7519	0	0	-100	0	230	101300000	1000	0	0	-1	0
17835595	7514	0	0	-100	0	230	101300000	1000	0	0	-1	0
17848155	7507	0	0	-100	0	230	101300000	1000	0	0	-1	0
17860715	7510	4	0	-100	0	230	101300000	1000	0	0	-1	0
17873275	7511	2	0	-100	0	230	101300000	1000	0	0	-1	0
17885835	7519	0	0	-100	0	230	101300000	1000	0	0	-1	0
17898395	7512	0	0	-100	0	230	101300000	1000	0	0	-1	0
17910955	7512	0	0	-100	0	230	101300000	1000	0	0	-1	0
17923515	7511	0	0	-100	0	230	101300000	1000	0	0	-1	0
17936075	7514	0	0	-100	0	230	101300000	1000	0	0	-1	0
17948635	7509	4	0	-100	0	230	101300000	1000	0	0	-1	0
17961195	7509	4	0	-100	0	230	101300000	1000	0	0	-1	0
17973755	7514	2	0	-100	0	230	101300000	1000	0	0	-1	0
17986315	7511	1	0	-100	0	230	101300000	1000	0	0	-1	0
17998875	7518	0	0	-100	0	230	101300000	1000	0	0	-1	0
18011435	7514	0	0	-100	0	230	101300000	1000	0	0	-1	0
18023995	7512	0	0	-100	0	230	101300000	1000	0	0	-1	0
18036555	7512	0	0	-100	0	230	101300000	1000	0	0	-1	0
18049115	7505	0	0	-100	0	230	101300000	1000	0	0	-1	0
18061675	7510	5	0	-100	0	230	101300000	1000	0	0	-1	0
18074235	7510	6	0	-100	0	230	101300000	1000	0	0	-1	0
18086795	7510	5	0	-100	0	230	101300000	1000	0	0	-1	0
18099355	7512	4	0	-100	0	230	101300000	1000	0	0	-1	0
18111915	7511	3	0	-100	0	230	101300000	1000	0	0	-1	0
18124475	7512	4	0	-100	0	230	101300000	1000	0	0	-1	0
18137035	7511	1	0	-100	0	230	101300000	1000	0	0	-1	0
18149595	7512	0	0	-100	0	230	101300000	1000	0	0	-1	0
18162155	7514	0	0	-100	0	230	101300000	1000	0	0	-1	0
18174715	7519	0	0	-100	0	230	101300000	1000	0	0	-1	0
18187275	7512	0	0	-100	0	230	101300000	1000	0	0	-1	0
18199835	7514	0	0	-100	0	230	101300000	1000	0	0	-1	0
18212395	7515	0	0	-100	0	230	101300000	1000	0	0	-1	0
18224955	7512	0	0	-100	0	230	101300000	1000	0	0	-1	0
18237515	7519	0	0	-100	0	230	101300000	1000	0	0	-1	0
18250075	7517	0	0	-100	0	230	101300000	1000	0	0	-1	0
18262635	7519	0	0	-100	0	230	101300000	1000	0	0	-1	0
18275195	7513	0	0	-100	0	230	101300000	1000	0	0	-1	0
18287755	7514	0	0	-100	0	230	101300000	1000	0	0	-1	0
18300315	7518	0	0	-100	0	230	101300000	1000	0	0	-1	0
18312875	7512	0	0	-100	0	230	101300000	1000	0	0	-1	0
18325435	7512	1	0	-100	0	230	101300000	1000	0	0	-1	0
18337995	7523	4	0	-100	0	230	101300000	1000	0	0	-1	0
18350555	7516	0	0	-100	0	230	101300000	1000	0	0	-1	0
18363115	7514	0	0	-100	0	230	101300000	1000	0	0	-1	0
18375675	7512	0	0	-100	0	230	101300000	1000	0	0	-1	0
18388235	7512	0	0	-100	0	230	101300000	1000	0	0	-1	0
18400795	7512	0	0	-100	0	230	101300000	1000	0	0	-1	0
18413355	7512	3	0	-100	0	230	101300000	1000	0	0	-1	0
18425915	7511	4	0	-100	0	230	101300000	1000	0	0	-1	0
18438475	7514	4	0	-100	0	230	101300000	1000	0	0	-1	0
18451035	7507	3	0	-100	0	230	101300000	1000	0	0	-1	0
18463595	7505	2	0	-100	0	230	101300000	1000	0	0	-1	0
18476155	7509	2	0	-100	0	230	101300000	1000	0	0	-1	0
18488715	7511	2	0	-100	0	230	101300000	1000	0	0	-1	0
18501275	7514	0	0	-100	0	230	101300000	1000	0	0	-1	0
18513835	7511	1	0	-100	0	230	101300000	1000	0	0	-1	0
18526395	7514	0	0	-100	0	230	101300000	1000	0	0	-1	0
18538955	7514	0	0	-100	0	230	101300000	1000	0	0	-1	0
18551515	7512	0	0	-100	0	230	101300000	1000	0	0	-1	0
18564075	7512	0	0	-100	0	230	101300000	1000	0	0	-1	0
18576635	7514	0	0	-100	0	230	101300000	1000	0	0	-1	0
18589195	7518	0	0	-100	0	230	101300000	1000	0	0	-1	0
18601755	7521	0	0	-100	0	230	101300000	1000	0	0	-1	0
18614315	7512	0	0	-100	0	230	101300000	1000	0	0	-1	0
18626875	7512	0	0	-100	0	230	101300000	1000	0	0	-1	0
18639435	7516	0	0	-100	0	230	101300000	1000	0	0	-1	0
18651995	7514	0	0	-100	0	230	101300000	1000	0	0	-1	0
18664555	7511	0	0	-100	0	230	101300000	1000	0	0	-1	0
18677115	7508	0	0	-100	0	230	101300000	1000	0	0	-1	0
18689675	7514	5	0	-100	0	230	101300000	1000	0	0	-1	0
18702235	7509	4	0	-100	0	230	101300000	1000	0	0	-1	0
18714795	7511	3	0	-100	0	230	101300000	1000	0	0	-1	0
18727355	7511	3	0	-100	0	230	101300000	1000	0	0	-1	0
18739915	7509	3	0	-100	0	230	101300000	1000	0	0	-1	0
18752475	7511	0	0	-100	0	230	101300000	1000	0	0	-1	0
18765035	7514	0	0	-100	0	230	101300000	1000	0	0	-1	0
18777595	7513	0	0	-100	0	230	101300000	1000	0	0	-1	0
18790155	7516	0	0	-100	0	230	101300000	1000	0	0	-1	0
18802715	7516	0	0	-100	0	230	101300000	1000	0	0	-1	0
18815275	7514	0	0	-100	0	230	101300000	1000	0	0	-1	0
18827835	7507	0	0	-100	0	230	101300000	1000	0	0	-1	0
18840395	7508	0	0	-100	0	230	101300000	1000	0	0	-1	0
18852955	7510	3	0	-100	0	230	101300000	1000	0	0	-1	0
18865515	7514	3	0	-100	0	230	101300000	1000	0	0	-1	0
18878075	7514	2	0	-100	0	230	101300000	1000	0	0	-1	0
18890635	7507	1	0	-100	0	230	101300000	1000	0	0	-1	0
18903195	7509	2	0	-100	0	230	101300000	1000	0	0	-1	0
18915755	7514	0	0	-100	0	230	101300000	1000	0	0	-1	0
18928315	7519	0	0	-100	0	230	101300000	1000	0	0	-1	0
18940875	7523	0	0	-100	0	230	101300000	1000	0	0	-1	0
18953435	7516	0	0	-100	0	230	101300000	1000	0	0	-1	0
18965995	7507	0	0	-100	0	230	101300000	1000	0	0	-1	0
18978555	7514	1	0	-100	0	230	101300000	1000	0	0	-1	0
18991115	7516	4	0	-100	0	230	101300000	1000	0	0	-1	0
19003675	7509	2	0	-100	0	230	101300000	1000	0	0	-1	0
19016235	7514	0	0	-100	0	230	101300000	1000	0	0	-1	0
19028795	7516	0	0	-100	0	230	101300000	1000	0	0	-1	0
19041355	7515	0	0	-100	0	230	101300000	1000	0	0	-1	0
19053915	7512	0	0	-100	0	230	101300000	1000	0	0	-1	0
19066475	7512	0	0	-100	0	230	101300000	1000	0	0	-1	0
19079035	7514	0	0	-100	0	230	101300000	1000	0	0	-1	0
19091595	7503	0	0	-100	0	230	101300000	1000	0	0	-1	0
19104155	7512	4	0	-100	0	230	101300000	1000	0	0	-1	0
19116715	7510	4	0	-100	0	230	101300000	1000	0	0	-1	0
19129275	7511	0	0	-100	0	230	101300000	1000	0	0	-1	0
19141835	7517	0	0	-100	0	230	101300000	1000	0	0	-1	0
19154395	7514	0	0	-100	0	230	101300000	1000	0	0	-1	0
19166955	7514	0	0	-100	0	230	101300000	1000	0	0	-1	0
19179515	7512	0	0	-100	0	230	101300000	1000	0	0	-1	0
19192075	7514	1	0	-100	0	230	101300000	1000	0	0	-1	0
19204635	7511	3	0	-100	0	230	101300000	1000	0	0	-1	0
19217195	7512	1	0	-100	0	230	101300000	1000	0	0	-1	0
19229755	7509	0	0	-100	0	230	101300000	1000	0	0	-1	0
19242315	7512	0	0	-100	0	230	101300000	1000	0	0	-1	0
19254875	7521	0	0	-100	0	230	101300000	1000	0	0	-1	0
19267435	7514	0	0	-100	0	230	101300000	1000	0	0	-1	0
19279995	7514	0	0	-100	0	230	101300000	1000	0	0	-1	0
19292555	7509	0	0	-100	0	230	101300000	1000	0	0	-1	0
19305115	7509	0	0	-100	0	230	101300000	1000	0	0	-1	0
19317675	7508	0	0	-100	0	230	101300000	1000	0	0	-1	0
19330235	7510	4	0	-100	0	230	101300000	1000	0	0	-1	0
19342795	7507	2	0	-100	0	230	101300000	1000	0	0	-1	0
19355355	7514	0	0	-100	0	230	101300000	1000	0	0	-1	0
19367915	7514	0	0	-100	0	230	101300000	1000	0	0	-1	0
19380475	7517	0	0	-100	0	230	101300000	1000	0	0	-1	0
19393035	7514	0	0	-100	0	230	101300000	1000	0	0	-1	0
19405595	7514	0	0	-100	0	230	101300000	1000	0	0	-1	0
19418155	7514	0	0	-100	0	230	101300000	1000	0	0	-1	0
19430715	7510	0	0	-100	0	230	101300000	1000	0	0	-1	0
19443275	7516	0	0	-100	0	230	101300000	1000	0	0	-1	0
19455835	7512	0	0	-100	0	230	101300000	1000	0	0	-1	0
19468395	7514	0	0	-100	0	230	101300000	1000	0	0	-1	0
19480955	7519	0	0	-100	0	230	101300000	1000	0	0	-1	0
19493515	7510	0	0	-100	0	230	101300000	1000	0	0	-1	0
19506075	7514	0	0	-100	0	230	101300000	1000	0	0	-1	0
19518635	7514	0	0	-100	0	230	101300000	1000	0	0	-1	0
19531195	7512	0	0	-100	0	230	101300000	1000	0	0	-1	0
19543755	7507	0	0	-100	0	230	101300000	1000	0	0	-1	0
19556315	7505	0	0	-100	0	230	101300000	1000	0	0	-1	0
19568875	7509	0	0	-100	0	230	101300000	1000	0	0	-1	0
19581435	7507	0	0	-100	0	230	101300000	1000	0	0	-1	0
19593995	7510	0	0	-100	0	230	101300000	1000	0	0	-1	0
19606555	7507	0	0	-100	0	230	101300000	1000	0	0	-1	0
19619115	7510	0	0	-100	0	230	101300000	1000	0	0	-1	0
19631675	7516	3	0	-100	0	230	101300000	1000	0	0	-1	0
19644235	7507	1	0	-100	0	230	101300000	1000	0	0	-1	0
19656795	7518	0	0	-100	0	230	101300000	1000	0	0	-1	0
19669355	7514	0	0	-100	0	230	101300000	1000	0	0	-1	0
19681915	7516	0	0	-100	0	230	101300000	1000	0	0	-1	0
19694475	7514	4	0	-100	0	230	101300000	1000	0	0	-1	0
19707035	7507	2	0	-100	0	230	101300000	1000	0	0	-1	0
19719595	7516	0	0	-100	0	230	101300000	1000	0	0	-1	0
19732155	7514	0	0	-100	0	230	101300000	1000	0	0	-1	0
19744715	7514	0	0	-100	0	230	101300000	1000	0	0	-1	0
19757275	7510	0	0	-100	0	230	101300000	1000	0	0	-1	0
19769835	7510	0	0	-100	0	230	101300000	1000	0	0	-1	0
19782395	7512	0	0	-100	0	230	101300000	1000	0	0	-1	0
19794955	7512	0	0	-100	0	230	101300000	1000	0	0	-1	0
19807515	7501	0	0	-100	0	230	101300000	1000	0	0	-1	0
19820075	7518	4	0	-100	0	230	101300000	1000	0	0	-1	0
19832635	7514	1	0	-100	0	230	101300000	1000	0	0	-1	0
19845195	7512	0	0	-100	0	230	101300000	1000	0	0	-1	0
19857755	7519	0	0	-100	0	230	101300000	1000	0	0	-1	0
19870315	7510	0	0	-100	0	230	101300000	1000	0	0	-1	0
19882875	7507	0	0	-100	0	230	101300000	1000	0	0	-1	0
19895435	7510	0	0	-100	0	230	101300000	1000	0	0	-1	0
19907995	7514	0	0	-100	0	230	101300000	1000	0	0	-1	0
19920555	7512	3	0	-100	0	230	101300000	1000	0	0	-1	0
19933115	7511	1	0	-100	0	230	101300000	1000	0	0	-1	0
19945675	7510	0	0	-100	0	230	101300000	1000	0	0	-1	0
19958235	7515	0	0	-100	0	230	101300000	1000	0	0	-1	0
19970795	7516	0	0	-100	0	230	101300000	1000	0	0	-1	0
19983355	7512	4	0	-100	0	230	101300000	1000	0	0	-1	0
19995915	7519	0	0	-100	0	230	101300000	1000	0	0	-1	0
20008475	7516	0	0	-100	0	230	101300000	1000	0	0	-1	0
20021035	7508	0	0	-100	0	230	101300000	1000	0	0	-1	0
20033595	7516	4	0	-100	0	230	101300000	1000	0	0	-1	0
20046155	7516	0	0	-100	0	230	101300000	1000	0	0	-1	0
20058715	7519	0	0	-100	0	230	101300000	1000	0	0	-1	0
20071275	7512	0	0	-100	0	230	101300000	1000	0	0	-1	0
20083835	7510	0	0	-100	0	230	101300000	1000	0	0	-1	0
20096395	7503	0	0	-100	0	230	101300000	1000	0	0	-1	0
20108955	7505	0	0	-100	0	230	101300000	1000	0	0	-1	0
20121515	7511	4	0	-100	0	230	101300000	1000	0	0	-1	0
20134075	7510	4	0	-100	0	230	101300000	1000	0	0	-1	0
20146635	7511	3	0	-100	0	230	101300000	1000	0	0	-1	0
20159195	7509	1	0	-100	0	230	101300000	1000	0	0	-1	0
20171755	7514	0	0	-100	0	230	101300000	1000	0	0	-1	0
20184315	7519	0	0	-100	0	230	101300000	1000	0	0	-1	0
20196875	7517	0	0	-100	0	230	101300000	1000	0	0	-1	0
20209435	7510	0	0	-100	0	230	101300000	1000	0	0	-1	0
20221995	7514	0	0	-100	0	230	101300000	1000	0	0	-1	0
20234555	7512	4	0	-100	0	230	101300000	1000	0	0	-1	0
20247115	7505	3	0	-100	0	230	101300000	1000	0	0	-1	0
20259675	7514	0	0	-100	0	230	101300000	1000	0	0	-1	0
20272235	7517	0	0	-100	0	230	101300000	1000	0	0	-1	0
20284795	7514	0	0	-100	0	230	101300000	1000	0	0	-1	0
20297355	7512	0	0	-100	0	230	101300000	1000	0	0	-1	0
20309915	7512	0	0	-100	0	230	101300000	1000	0	0	-1	0
20322475	7508	0	0	-100	0	230	101300000	1000	0	0	-1	0
20335035	7516	3	0	-100	0	230	101300000	1000	0	0	-1	0
20347595	7507	2	0	-100	0	230	101300000	1000	0	0	-1	0
20360155	7516	0	0	-100	0	230	101300000	1000	0	0	-1	0
20372715	7512	0	0	-100	0	230	101300000	1000	0	0	-1	0
20385275	7507	0	0	-100	0	230	101300000	1000	0	0	-1	0
20397835	7514	3	0	-100	0	230	101300000	1000	0	0	-1	0
20410395	7514	0	0	-100	0	230	101300000	1000	0	0	-1	0
20422955	7518	0	0	-100	0	230	101300000	1000	0	0	-1	0
20435515	7515	0	0	-100	0	230	101300000	1000	0	0	-1	0
20448075	7512	0	0	-100	0	230	101300000	1000	0	0	-1	0
20460635	7510	0	0	-100	0	230	101300000	1000	0	0	-1	0
20473195	7511	4	0	-100	0	230	101300000	1000	0	0	-1	0
20485755	7511	0	0	-100	0	230	101300000	1000	0	0	-1	0
20498315	7517	0	0	-100	0	230	101300000	1000	0	0	-1	0
20510875	7512	0	0	-100	0	230	101300000	1000	0	0	-1	0
20523435	7509	0	0	-100	0	230	101300000	1000	0	0	-1	0
20535995	7514	0	0	-100	0	230	101300000	1000	0	0	-1	0
20548555	7509	1	0	-100	0	230	101300000	1000	0	0	-1	0
20561115	7514	3	0	-100	0	230	101300000	1000	0	0	-1	0
20573675	7514	3	0	-100	0	230	101300000	1000	0	0	-1	0
20586235	7509	0	0	-100	0	230	101300000	1000	0	0	-1	0
20598795	7509	0	0	-100	0	230	101300000	1000	0	0	-1	0
20611355	7510	0	0	-100	0	230	101300000	1000	0	0	-1	0
20623915	7512	0	0	-100	0	230	101300000	1000	0	0	-1	0
20636475	7516	0	0	-100	0	230	101300000	1000	0	0	-1	0
20649035	7514	0	0	-100	0	230	101300000	1000	0	0	-1	0
20661595	7516	0	0	-100	0	230	101300000	1000	0	0	-1	0
20674155	7516	0	0	-100	0	230	101300000	1000	0	0	-1	0
20686715	7509	2	0	-100	0	230	101300000	1000	0	0	-1	0
20699275	7514	0	0	-100	0	230	101300000	1000	0	0	-1	0
20711835	7514	0	0	-100	0	230	101300000	1000	0	0	-1	0
20724395	7507	2	0	-100	0	230	101300000	1000	0	0	-1	0
20736955	7514	4	0	-100	0	230	101300000	1000	0	0	-1	0
20749515	7512	0	0	-100	0	230	101300000	1000	0	0	-1	0
20762075	7519	0	0	-100	0	230	101300000	1000	0	0	-1	0
20774635	7512	0	0	-100	0	230	101300000	1000	0	0	-1	0
20787195	7507	3	0	-100	0	230	101300000	1000	0	0	-1	0
20799755	7510	4	0	-100	0	230	101300000	1000	0	0	-1	0
20812315	7512	4	0	-100	0	230	101300000	1000	0	0	-1	0
20824875	7510	0	0	-100	0	230	101300000	1000	0	0	-1	0
20837435	7515	0	0	-100	0	230	101300000	1000	0	0	-1	0
20849995	7510	2	0	-100	0	230	101300000	1000	0	0	-1	0
20862555	7521	0	0	-100	0	230	101300000	1000	0	0	-1	0
20875115	7512	1	0	-100	0	230	101300000	1000	0	0	-1	0
20887675	7512	2	0	-100	0	230	101300000	1000	0	0	-1	0
20900235	7507	3	0	-100	0	230	101300000	1000	0	0	-1	0
20912795	7514	3	0	-100	0	230	101300000	1000	0	0	-1	0
20925355	7513	2	0	-100	0	230	101300000	1000	0	0	-1	0
20937915	7511	2	0	-100	0	230	101300000	1000	0	0	-1	0
20950475	7507	3	0	-100	0	230	101300000	1000	0	0	-1	0
20963035	7514	4	0	-100	0	230	101300000	1000	0	0	-1	0
20975595	7511	3	0	-100	0	230	101300000	1000	0	0	-1	0
20988155	7505	1	0	-100	0	230	101300000	1000	0	0	-1	0
21000715	7514	0	0	-100	0	230	101300000	1000	0	0	-1	0
21013275	7512	2	0	-100	0	230	101300000	1000	0	0	-1	0
21025835	7508	0	0	-100	0	230	101300000	1000	0	0	-1	0
21038395	7516	0	0	-100	0	230	101300000	1000	0	0	-1	0
21050955	7511	0	0	-100	0	230	101300000	1000	0	0	-1	0
21063515	7512	0	0	-100	0	230	101300000	1000	0	0	-1	0
21076075	7512	0	0	-100	0	230	101300000	1000	0	0	-1	0
21088635	7505	1	0	-100	0	230	101300000	1000	0	0	-1	0
21101195	7507	0	0	-100	0	230	101300000	1000	0	0	-1	0
21113755	7509	2	0	-100	0	230	101300000	1000	0	0	-1	0
21126315	7512	3	0	-100	0	230	101300000	1000	0	0	-1	0
21138875	7514	1	0	-100	0	230	101300000	1000	0	0	-1	0
21151435	7507	0	0	-100	0	230	101300000	1000	0	0	-1	0
21163995	7512	0	0	-100	0	230	101300000	1000	0	0	-1	0
21176555	7516	0	0	-100	0	230	101300000	1000	0	0	-1	0
21189115	7514	0	0	-100	0	230	101300000	1000	0	0	-1	0
21201675	7510	0	0	-100	0	230	101300000	1000	0	0	-1	0
21214235	7517	0	0	-100	0	230	101300000	1000	0	0	-1	0
21226795	7519	0	0	-100	0	230	101300000	1000	0	0	-1	0
21239355	7516	0	0	-100	0	230	101300000	1000	0	0	-1	0
21251915	7514	0	0	-100	0	230	101300000	1000	0	0	-1	0
21264475	7510	0	0	-100	0	230	101300000	1000	0	0	-1	0
21277035	7514	0	0	-100	0	230	101300000	1000	0	0	-1	0
21289595	7514	0	0	-100	0	230	101300000	1000	0	0	-1	0
21302155	7516	0	0	-100	0	230	101300000	1000	0	0	-1	0
21314715	7508	0	0	-100	0	230	101300000	1000	0	0	-1	0
21327275	7512	0	0	-100	0	230	101300000	1000	0	0	-1	0
21339835	7510	0	0	-100	0	230	101300000	1000	0	0	-1	0
21352395	7505	0	0	-100	0	230	101300000	1000	0	0	-1	0
21364955	7512	2	0	-100	0	230	101300000	1000	0	0	-1	0
21377515	7512	4	0	-100	0	230	101300000	1000	0	0	-1	0
21390075	7511	4	0	-100	0	230	101300000	1000	0	0	-1	0
21402635	7512	1	0	-100	0	230	101300000	1000	0	0	-1	0
21415195	7510	1	0	-100	0	230	101300000	1000	0	0	-1	0
21427755	7511	1	0	-100	0	230	101300000	1000	0	0	-1	0
21440315	7514	0	0	-100	0	230	101300000	1000	0	0	-1	0
21452875	7516	0	0	-100	0	230	101300000	1000	0	0	-1	0
21465435	7518	0	0	-100	0	230	101300000	1000	0	0	-1	0
21477995	7517	2	0	-100	0	230	101300000	1000	0	0	-1	0
21490555	7518	0	0	-100	0	230	101300000	1000	0	0	-1	0
21503115	7512	0	0	-100	0	230	101300000	1000	0	0	-1	0
21515675	7509	3	0	-100	0	230	101300000	1000	0	0	-1	0
21528235	7510	4	0	-100	0	230	101300000	1000	0	0	-1	0
21540795	7510	4	0	-100	0	230	101300000	1000	0	0	-1	0
21553355	7512	4	0	-100	0	230	101300000	1000	0	0	-1	0
21565915	7507	0	0	-100	0	230	101300000	1000	0	0	-1	0
21578475	7512	0	0	-100	0	230	101300000	1000	0	0	-1	0
21591035	7510	0	0	-100	0	230	101300000	1000	0	0	-1	0
21603595	7514	0	0	-100	0	230	101300000	1000	0	0	-1	0
21616155	7514	0	0	-100	0	230	101300000	1000	0	0	-1	0
21628715	7514	0	0	-100	0	230	101300000	1000	0	0	-1	0
21641275	7523	0	0	-100	0	230	101300000	1000	0	0	-1	0
21653835	7521	0	0	-100	0	230	101300000	1000	0	0	-1	0
21666395	7514	0	0	-100	0	230	101300000	1000	0	0	-1	0
21678955	7514	1	0	-100	0	230	101300000	1000	0	0	-1	0
21691515	7512	4	0	-100	0	230	101300000	1000	0	0	-1	0
21704075	7510	4	0	-100	0	230	101300000	1000	0	0	-1	0
21716635	7510	0	0	-100	0	230	101300000	1000	0	0	-1	0
21729195	7512	0	0	-100	0	230	101300000	1000	0	0	-1	0
21741755	7512	0	0	-100	0	230	101300000	1000	0	0	-1	0
21754315	7514	0	0	-100	0	230	101300000	1000	0	0	-1	0
21766875	7515	0	0	-100	0	230	101300000	1000	0	0	-1	0
21779435	7517	0	0	-100	0	230	101300000	1000	0	0	-1	0
21791995	7514	3	0	-100	0	230	101300000	1000	0	0	-1	0
21804555	7514	1	0	-100	0	230	101300000	1000	0	0	-1	0
21817115	7514	3	0	-100	0	230	101300000	1000	0	0	-1	0
21829675	7512	0	0	-100	0	230	101300000	1000	0	0	-1	0
21842235	7512	0	0	-100	0	230	101300000	1000	0	0	-1	0
21854795	7515	0	0	-100	0	230	101300000	1000	0	0	-1	0
21867355	7509	1	0	-100	0	230	101300000	1000	0	0	-1	0
21879915	7511	4	0	-100	0	230	101300000	1000	0	0	-1	0
21892475	7508	0	0	-100	0	230	101300000	1000	0	0	-1	0
21905035	7512	0	0	-100	0	230	101300000	1000	0	0	-1	0
21917595	7519	0	0	-100	0	230	101300000	1000	0	0	-1	0
21930155	7519	0	0	-100	0	230	101300000	1000	0	0	-1	0
21942715	7514	0	0	-100	0	230	101300000	1000	0	0	-1	0
21955275	7512	1	0	-100	0	230	101300000	1000	0	0	-1	0
21967835	7509	4	0	-100	0	230	101300000	1000	0	0	-1	0
21980395	7507	0	0	-100	0	230	101300000	1000	0	0	-1	0
21992955	7514	0	0	-100	0	230	101300000	1000	0	0	-1	0
22005515	7515	0	0	-100	0	230	101300000	1000	0	0	-1	0
22018075	7512	0	0	-100	0	230	101300000	1000	0	0	-1	0
22030635	7509	4	0	-100	0	230	101300000	1000	0	0	-1	0
22043195	7514	3	0	-100	0	230	101300000	1000	0	0	-1	0
22055755	7512	0	0	-100	0	230	101300000	1000	0	0	-1	0
22068315	7514	0	0	-100	0	230	101300000	1000	0	0	-1	0
22080875	7516	0	0	-100	0	230	101300000	1000	0	0	-1	0
22093435	7517	0	0	-100	0	230	101300000	1000	0	0	-1	0
22105995	7518	4	0	-100	0	230	101300000	1000	0	0	-1	0
22118555	7512	1	0	-100	0	230	101300000	1000	0	0	-1	0
22131115	7514	4	0	-100	0	230	101300000	1000	0	0	-1	0
22143675	7508	5	0	-100	0	230	101300000	1000	0	0	-1	0
22156235	7510	1	0	-100	0	230	101300000	1000	0	0	-1	0
22168795	7505	0	0	-100	0	230	101300000	1000	0	0	-1	0
22181355	7515	0	0	-100	0	230	101300000	1000	0	0	-1	0
22193915	7517	0	0	-100	0	230	101300000	1000	0	0	-1	0
22206475	7511	1	0	-100	0	230	101300000	1000	0	0	-1	0
22219035	7516	3	0	-100	0	230	101300000	1000	0	0	-1	0
22231595	7510	5	0	-100	0	230	101300000	1000	0	0	-1	0
22244155	7511	0	0	-100	0	230	101300000	1000	0	0	-1	0
22256715	7519	0	0	-100	0	230	101300000	1000	0	0	-1	0
22269275	7514	0	0	-100	0	230	101300000	1000	0	0	-1	0
22281835	7518	0	0	-100	0	230	101300000	1000	0	0	-1	0
22294395	7512	1	0	-100	0	230	101300000	1000	0	0	-1	0
22306955	7509	3	0	-100	0	230	101300000	1000	0	0	-1	0
22319515	7514	1	0	-100	0	230	101300000	1000	0	0	-1	0
22332075	7512	0	0	-100	0	230	101300000	1000	0	0	-1	0
22344635	7510	0	0	-100	0	230	101300000	1000	0	0	-1	0
22357195	7515	0	0	-100	0	230	101300000	1000	0	0	-1	0
22369755	7513	0	0	-100	0	230	101300000	1000	0	0	-1	0
22382315	7517	0	0	-100	0	230	101300000	1000	0	0	-1	0
22394875	7519	0	0	-100	0	230	101300000	1000	0	0	-1	0
22407435	7510	0	0	-100	0	230	101300000	1000	0	0	-1	0
22419995	7512	0	0	-100	0	230	101300000	1000	0	0	-1	0
22432555	7514	0	0	-100	0	230	101300000	1000	0	0	-1	0
22445115	7515	0	0	-100	0	230	101300000	1000	0	0	-1	0
22457675	7515	0	0	-100	0	230	101300000	1000	0	0	-1	0
22470235	7514	0	0	-100	0	230	101300000	1000	0	0	-1	0
22482795	7514	0	0	-100	0	230	101300000	1000	0	0	-1	0
22495355	7517	0	0	-100	0	230	101300000	1000	0	0	-1	0
22507915	7516	0	0	-100	0	230	101300000	1000	0	0	-1	0
22520475	7514	0	0	-100	0	230	101300000	1000	0	0	-1	0
22533035	7509	0	0	-100	0	230	101300000	1000	0	0	-1	0
22545595	7508	0	0	-100	0	230	101300000	1000	0	0	-1	0
22558155	7507	0	0	-100	0	230	101300000	1000	0	0	-1	0
22570715	7512	4	0	-100	0	230	101300000	1000	0	0	-1	0
22583275	7509	4	0	-100	0	230	101300000	1000	0	0	-1	0
22595835	7514	4	0	-100	0	230	101300000	1000	0	0	-1	0
22608395	7516	2	0	-100	0	230	101300000	1000	0	0	-1	0
22620955	7513	1	0	-100	0	230	101300000	1000	0	0	-1	0
22633515	7514	0	0	-100	0	230	101300000	1000	0	0	-1	0
22646075	7514	0	0	-100	0	230	101300000	1000	0	0	-1	0
22658635	7517	0	0	-100	0	230	101300000	1000	0	0	-1	0
22671195	7514	0	0	-100	0	230	101300000	1000	0	0	-1	0
22683755	7512	0	0	-100	0	230	101300000	1000	0	0	-1	0
22696315	7512	0	0	-100	0	230	101300000	1000	0	0	-1	0
22708875	7505	0	0	-100	0	230	101300000	1000	0	0	-1	0
22721435	7512	5	0	-100	0	230	101300000	1000	0	0	-1	0
22733995	7511	0	0	-100	0	230	101300000	1000	0	0	-1	0
22746555	7509	1	0	-100	0	230	101300000	1000	0	0	-1	0
22759115	7514	0	0	-100	0	230	101300000	1000	0	0	-1	0
22771675	7517	0	0	-100	0	230	101300000	1000	0	0	-1	0
22784235	7514	0	0	-100	0	230	101300000	1000	0	0	-1	0
22796795	7519	0	0	-100	0	230	101300000	1000	0	0	-1	0
22809355	7510	0	0	-100	0	230	101300000	1000	0	0	-1	0
22821915	7512	0	0	-100	0	230	101300000	1000	0	0	-1	0
22834475	7510	0	0	-100	0	230	101300000	1000	0	0	-1	0
22847035	7507	0	0	-100	0	230	101300000	1000	0	0	-1	0
22859595	7514	1	0	-100	0	230	101300000	1000	0	0	-1	0
22872155	7510	4	0	-100	0	230	101300000	1000	0	0	-1	0
22884715	7513	4	0	-100	0	230	101300000	1000	0	0	-1	0
22897275	7514	3	0	-100	0	230	101300000	1000	0	0	-1	0
22909835	7512	3	0	-100	0	230	101300000	1000	0	0	-1	0
22922395	7507	2	0	-100	0	230	101300000	1000	0	0	-1	0
22934955	7512	0	0	-100	0	230	101300000	1000	0	0	-1	0
22947515	7514	0	0	-100	0	230	101300000	1000	0	0	-1	0
22960075	7517	0	0	-100	0	230	101300000	1000	0	0	-1	0
22972635	7510	0	0	-100	0	230	101300000	1000	0	0	-1	0
22985195	7512	0	0	-100	0	230	101300000	1000	0	0	-1	0
22997755	7517	0	0	-100	0	230	101300000	1000	0	0	-1	0
23010315	7516	0	0	-100	0	230	101300000	1000	0	0	-1	0
23022875	7517	0	0	-100	0	230	101300000	1000	0	0	-1	0
23035435	7512	0	0	-100	0	230	101300000	1000	0	0	-1	0
23047995	7509	0	0	-100	0	230	101300000	1000	0	0	-1	0
23060555	7510	0	0	-100	0	230	101300000	1000	0	0	-1	0
23073115	7512	1	0	-100	0	230	101300000	1000	0	0	-1	0
23085675	7512	4	0	-100	0	230	101300000	1000	0	0	-1	0
23098235	7510	5	0	-100	0	230	101300000	1000	0	0	-1	0
23110795	7509	4	0	-100	0	230	101300000	1000	0	0	-1	0
23123355	7511	4	0	-100	0	230	101300000	1000	0	0	-1	0
23135915	7514	2	0	-100	0	230	101300000	1000	0	0	-1	0
23148475	7513	2	0	-100	0	230	101300000	1000	0	0	-1	0
23161035	7507	4	0	-100	0	230	101300000	1000	0	0	-1	0
23173595	7512	4	0	-100	0	230	101300000	1000	0	0	-1	0
23186155	7511	3	0	-100	0	230	101300000	1000	0	0	-1	0
23198715	7514	4	0	-100	0	230	101300000	1000	0	0	-1	0
23211275	7511	3	0	-100	0	230	101300000	1000	0	0	-1	0
23223835	7509	1	0	-100	0	230	101300000	1000	0	0	-1	0
23236395	7516	0	0	-100	0	230	101300000	1000	0	0	-1	0
23248955	7513	0	0	-100	0	230	101300000	1000	0	0	-1	0
23261515	7519	0	0	-100	0	230	101300000	1000	0	0	-1	0
23274075	7516	0	0	-100	0	230	101300000	1000	0	0	-1	0
23286635	7510	0	0	-100	0	230	101300000	1000	0	0	-1	0
23299195	7512	0	0	-100	0	230	101300000	1000	0	0	-1	0
23311755	7512	4	0	-100	0	230	101300000	1000	0	0	-1	0
23324315	7514	4	0	-100	0	230	101300000	1000	0	0	-1	0
23336875	7514	3	0	-100	0	230	101300000	1000	0	0	-1	0
23349435	7507	0	0	-100	0	230	101300000	1000	0	0	-1	0
23361995	7514	3	0	-100	0	230	101300000	1000	0	0	-1	0
23374555	7510	0	0	-100	0	230	101300000	1000	0	0	-1	0
23387115	7512	0	0	-100	0	230	101300000	1000	0	0	-1	0
23399675	7510	0	0	-100	0	230	101300000	1000	0	0	-1	0
23412235	7509	3	0	-100	0	230	101300000	1000	0	0	-1	0
23424795	7507	3	0	-100	0	230	101300000	1000	0	0	-1	0
23437355	7512	0	0	-100	0	230	101300000	1000	0	0	-1	0
23449915	7519	0	0	-100	0	230	101300000	1000	0	0	-1	0
23462475	7514	0	0	-100	0	230	101300000	1000	0	0	-1	0
23475035	7514	0	0	-100	0	230	101300000	1000	0	0	-1	0
23487595	7509	0	0	-100	0	230	101300000	1000	0	0	-1	0
23500155	7512	1	0	-100	0	230	101300000	1000	0	0	-1	0
23512715	7509	4	0	-100	0	230	101300000	1000	0	0	-1	0
23525275	7518	0	0	-100	0	230	101300000	1000	0	0	-1	0
23537835	7515	0	0	-100	0	230	101300000	1000	0	0	-1	0
23550395	7512	0	0	-100	0	230	101300000	1000	0	0	-1	0
23562955	7505	0	0	-100	0	230	101300000	1000	0	0	-1	0
23575515	7514	4	0	-100	0	230	101300000	1000	0	0	-1	0
23588075	7511	3	0	-100	0	230	101300000	1000	0	0	-1	0
23600635	7512	4	0	-100	0	230	101300000	1000	0	0	-1	0
23613195	7511	3	0	-100	0	230	101300000	1000	0	0	-1	0
23625755	7514	0	0	-100	0	230	101300000	1000	0	0	-1	0
23638315	7514	0	0	-100	0	230	101300000	1000	0	0	-1	0
23650875	7519	0	0	-100	0	230	101300000	1000	0	0	-1	0
23663435	7514	0	0	-100	0	230	101300000	1000	0	0	-1	0
23675995	7517	2	0	-100	0	230	101300000	1000	0	0	-1	0
23688555	7512	0	0	-100	0	230	101300000	1000	0	0	-1	0
23701115	7512	0	0	-100	0	230	101300000	1000	0	0	-1	0
23713675	7512	0	0	-100	0	230	101300000	1000	0	0	-1	0
23726235	7512	0	0	-100	0	230	101300000	1000	0	0	-1	0
23738795	7512	0	0	-100	0	230	101300000	1000	0	0	-1	0
23751355	7510	0	0	-100	0	230	101300000	1000	0	0	-1	0
23763915	7512	0	0	-100	0	230	101300000	1000	0	0	-1	0
23776475	7516	0	0	-100	0	230	101300000	1000	0	0	-1	0
23789035	7514	0	0	-100	0	230	101300000	1000	0	0	-1	0
23801595	7519	0	0	-100	0	230	101300000	1000	0	0	-1	0
23814155	7516	0	0	-100	0	230	101300000	1000	0	0	-1	0
23826715	7510	0	0	-100	0	230	101300000	1000	0	0	-1	0
23839275	7508	0	0	-100	0	230	101300000	1000	0	0	-1	0
23851835	7512	4	0	-100	0	230	101300000	1000	0	0	-1	0
23864395	7509	3	0	-100	0	230	101300000	1000	0	0	-1	0
23876955	7514	3	0	-100	0	230	101300000	1000	0	0	-1	0
23889515	7509	3	0	-100	0	230	101300000	1000	0	0	-1	0
23902075	7510	3	0	-100	0	230	101300000	1000	0	0	-1	0
23914635	7514	0	0	-100	0	230	101300000	1000	0	0	-1	0
23927195	7505	2	0	-100	0	230	101300000	1000	0	0	-1	0
23939755	7516	3	0	-100	0	230	101300000	1000	0	0	-1	0
23952315	7510	5	0	-100	0	230	101300000	1000	0	0	-1	0
23964875	7505	0	0	-100	0	230	101300000	1000	0	0	-1	0
23977435	7508	0	0	-100	0	230	101300000	1000	0	0	-1	0
23989995	7516	0	0	-100	0	230	101300000	1000	0	0	-1	0
24002555	7514	0	0	-100	0	230	101300000	1000	0	0	-1	0
24015115	7516	0	0	-100	0	230	101300000	1000	0	0	-1	0
24027675	7512	0	0	-100	0	230	101300000	1000	0	0	-1	0
24040235	7510	0	0	-100	0	230	101300000	1000	0	0	-1	0
24052795	7519	0	0	-100	0	230	101300000	1000	0	0	-1	0
24065355	7514	0	0	-100	0	230	101300000	1000	0	0	-1	0
24077915	7517	0	0	-100	0	230	101300000	1000	0	0	-1	0
24090475	7516	0	0	-100	0	230	101300000	1000	0	0	-1	0
24103035	7515	0	0	-100	0	230	101300000	1000	0	0	-1	0
24115595	7515	0	0	-100	0	230	101300000	1000	0	0	-1	0
24128155	7518	0	0	-100	0	230	101300000	1000	0	0	-1	0
24140715	7512	0	0	-100	0	230	101300000	1000	0	0	-1	0
24153275	7511	1	0	-100	0	230	101300000	1000	0	0	-1	0
24165835	7509	3	0	-100	0	230	101300000	1000	0	0	-1	0
24178395	7507	2	0	-100	0	230	101300000	1000	0	0	-1	0
24190955	7511	3	0	-100	0	230	101300000	1000	0	0	-1	0
24203515	7508	4	0	-100	0	230	101300000	1000	0	0	-1	0
24216075	7510	4	0	-100	0	230	101300000	1000	0	0	-1	0
24228635	7513	3	0	-100	0	230	101300000	1000	0	0	-1	0
24241195	7511	3	0	-100	0	230	101300000	1000	0	0	-1	0
24253755	7516	4	0	-100	0	230	101300000	1000	0	0	-1	0
24266315	7516	1	0	-100	0	230	101300000	1000	0	0	-1	0
24278875	7514	0	0	-100	0	230	101300000	1000	0	0	-1	0
24291435	7507	0	0	-100	0	230	101300000	1000	0	0	-1	0
24303995	7507	0	0	-100	0	230	101300000	1000	0	0	-1	0
24316555	7510	0	0	-100	0	230	101300000	1000	0	0	-1	0
24329115	7508	0	0	-100	0	230	101300000	1000	0	0	-1	0
24341675	7516	0	0	-100	0	230	101300000	1000	0	0	-1	0
24354235	7512	0	0	-100	0	230	101300000	1000	0	0	-1	0
24366795	7512	0	0	-100	0	230	101300000	1000	0	0	-1	0
24379355	7517	0	0	-100	0	230	101300000	1000	0	0	-1	0
24391915	7516	0	0	-100	0	230	101300000	1000	0	0	-1	0
24404475	7519	0	0	-100	0	230	101300000	1000	0	0	-1	0
24417035	7510	2	0	-100	0	230	101300000	1000	0	0	-1	0
24429595	7511	5	0	-100	0	230	101300000	1000	0	0	-1	0
24442155	7511	0	0	-100	0	230	101300000	1000	0	0	-1	0
24454715	7514	0	0	-100	0	230	101300000	1000	0	0	-1	0
24467275	7513	0	0	-100	0	230	101300000	1000	0	0	-1	0
24479835	7518	0	0	-100	0	230	101300000	1000	0	0	-1	0
24492395	7511	1	0	-100	0	230	101300000	1000	0	0	-1	0
24504955	7509	4	0	-100	0	230	101300000	1000	0	0	-1	0
24517515	7512	0	0	-100	0	230	101300000	1000	0	0	-1	0
24530075	7514	0	0	-100	0	230	101300000	1000	0	0	-1	0
24542635	7516	0	0	-100	0	230	101300000	1000	0	0	-1	0
24555195	7519	0	0	-100	0	230	101300000	1000	0	0	-1	0
24567755	7509	0	0	-100	0	230	101300000	1000	0	0	-1	0
24580315	7511	3	0	-100	0	230	101300000	1000	0	0	-1	0
24592875	7505	0	0	-100	0	230	101300000	1000	0	0	-1	0
24605435	7506	0	0	-100	0	230	101300000	1000	0	0	-1	0
24617995	7512	0	0	-100	0	230	101300000	1000	0	0	-1	0
24630555	7512	0	0	-100	0	230	101300000	1000	0	0	-1	0
24643115	7516	0	0	-100	0	230	101300000	1000	0	0	-1	0
24655675	7519	0	0	-100	0	230	101300000	1000	0	0	-1	0
24668235	7516	0	0	-100	0	230	101300000	1000	0	0	-1	0
24731035	7514	0	0	-100	0	230	101300000	1000	0	0	-1	0
24743595	7507	0	0	-100	0	230	101300000	1000	0	0	-1	0
24756155	7511	3	0	-100	0	230	101300000	1000	0	0	-1	0
24768715	7511	4	0	-100	0	230	101300000	1000	0	0	-1	0
24781275	7508	0	0	-100	0	230	101300000	1000	0	0	-1	0
24793835	7507	0	0	-100	0	230	101300000	1000	0	0	-1	0
24806395	7516	0	0	-100	0	230	101300000	1000	0	0	-1	0
24818955	7519	0	0	-100	0	230	101300000	1000	0	0	-1	0
24831515	7514	0	0	-100	0	230	101300000	1000	0	0	-1	0
24844075	7511	0	0	-100	0	230	101300000	1000	0	0	-1	0
24856635	7521	0	0	-100	0	230	101300000	1000	0	0	-1	0
2486435	7521	0	0	-100	0	230	101300000	1000	0	0	-1	0
24931995	7519	4	0	-100	0	230	101300000	1000	0	0	-1	0
24944555	7516	0	0	-100	0	230	101300000	1000	0	0	-1	0
24957115	7516	0	0	-100	0	230	101300000	1000	0	0	-1	0
24969675	7514	0	0	-100	0	230	101300000	1000	0	0	-1	0
24982235	7510	2	0	-100	0	230	101300000	1000	0	0	-1	0
24994795	7507	4	0	-100	0	230	101300000	1000	0	0	-1	0
25007355	7516	4	0	-100	0	230	101300000	1000	0	0	-1	0
25019915	7510	0	0	-100	0	230	101300000	1000	0	0	-1	0
25032475	7508	0	0	-100	0	230	101300000	1000	0	0	-1	0
25045035	7505	0	0	-100	0	230	101300000	1000	0	0	-1	0
25057595	7512	0	0	-100	0	230	101300000	1000	0	0	-1	0
25070155	7516	0	0	-100	0	230	101300000	1000	0	0	-1	0
25082715	7518	0	0	-100	0	230	101300000	1000	0	0	-1	0
25095275	7507	1	0	-100	0	230	101300000	1000	0	0	-1	0
25107835	7507	4	0	-100	0	230	101300000	1000	0	0	-1	0
25120395	7511	0	0	-100	0	230	101300000	1000	0	0	-1	0
25132955	7512	0	0	-100	0	230	101300000	1000	0	0	-1	0
25145515	7514	0	0	-100	0	230	101300000	1000	0	0	-1	0
25158075	7514	0	0	-100	0	230	101300000	1000	0	0	-1	0
25170635	7516	0	0	-100	0	230	101300000	1000	0	0	-1	0
25183195	7512	4	0	-100	0	230	101300000	1000	0	0	-1	0
25195755	7510	4	0	-100	0	230	101300000	1000	0	0	-1	0
25208315	7507	0	0	-100	0	230	101300000	1000	0	0	-1	0
25220875	7516	0	0	-100	0	230	101300000	1000	0	0	-1	0
25233435	7514	0	0	-100	0	230	101300000	1000	0	0	-1	0
25245995	7509	0	0	-100	0	230	101300000	1000	0	0	-1	0
25258555	7516	3	0	-100	0	230	101300000	1000	0	0	-1	0
25271115	7512	0	0	-100	0	230	101300000	1000	0	0	-1	0
25283675	7510	0	0	-100	0	230	101300000	1000	0	0	-1	0
25296235	7514	0	0	-100	0	230	101300000	1000	0	0	-1	0
25308795	7505	0	0	-100	0	230	101300000	1000	0	0	-1	0
25321355	7514	0	0	-100	0	230	101300000	1000	0	0	-1	0
25333915	7512	0	0	-100	0	230	101300000	1000	0	0	-1	0
25346475	7507	3	0	-100	0	230	101300000	1000	0	0	-1	0
25359035	7512	0	0	-100	0	230	101300000	1000	0	0	-1	0
25371595	7514	0	0	-100	0	230	101300000	1000	0	0	-1	0
25384155	7509	0	0	-100	0	230	101300000	1000	0	0	-1	0
25396715	7512	1	0	-100	0	230	101300000	1000	0	0	-1	0
25409275	7510	4	0	-100	0	230	101300000	1000	0	0	-1	0
25421835	7505	0	0	-100	0	230	101300000	1000	0	0	-1	0
25434395	7512	0	0	-100	0	230	101300000	1000	0	0	-1	0
25446955	7514	0	0	-100	0	230	101300000	1000	0	0	-1	0
25459515	7514	0	0	-100	0	230	101300000	1000	0	0	-1	0
25472075	7514	0	0	-100	0	230	101300000	1000	0	0	-1	0
25484635	7507	4	0	-100	0	230	101300000	1000	0	0	-1	0
25497195	7509	0	0	-100	0	230	101300000	1000	0	0	-1	0
25509755	7512	0	0	-100	0	230	101300000	1000	0	0	-1	0
25522315	7509	3	0	-100	0	230	101300000	1000	0	0	-1	0
25534875	7512	0	0	-100	0	230	101300000	1000	0	0	-1	0
25547435	7514	0	0	-100	0	230	101300000	1000	0	0	-1	0
25559995	7513	3	0	-100	0	230	101300000	1000	0	0	-1	0
25572555	7514	0	0	-100	0	230	101300000	1000	0	0	-1	0
25585115	7511	2	0	-100	0	230	101300000	1000	0	0	-1	0
25597675	7516	4	0	-100	0	230	101300000	1000	0	0	-1	0
25610235	7509	0	0	-100	0	230	101300000	1000	0	0	-1	0
25622795	7512	0	0	-100	0	230	101300000	1000	0	0	-1	0
25635355	7512	0	0	-100	0	230	101300000	1000	0	0	-1	0
25647915	7510	0	0	-100	0	230	101300000	1000	0	0	-1	0
25660475	7512	0	0	-100	0	230	101300000	1000	0	0	-1	0
25673035	7515	0	0	-100	0	230	101300000	1000	0	0	-1	0
25685595	7514	0	0	-100	0	230	101300000	1000	0	0	-1	0
25698155	7509	2	0	-100	0	230	101300000	1000	0	0	-1	0
25710715	7511	1	0	-100	0	230	101300000	1000	0	0	-1	0
25723275	7507	3	0	-100	0	230	101300000	1000	0	0	-1	0
25735835	7511	1	0	-100	0	230	101300000	1000	0	0	-1	0
25748395	7512	0	0	-100	0	230	101300000	1000	0	0	-1	0
25760955	7514	0	0	-100	0	230	101300000	1000	0	0	-1	0
25773515	7516	0	0	-100	0	230	101300000	1000	0	0	-1	0
25786075	7514	0	0	-100	0	230	101300000	1000	0	0	-1	0
25798635	7514	0	0	-100	0	230	101300000	1000	0	0	-1	0
25811195	7512	0	0	-100	0	230	101300000	1000	0	0	-1	0
25823755	7516	0	0	-100	0	230	101300000	1000	0	0	-1	0
25836315	7514	0	0	-100	0	230	101300000	1000	0	0	-1	0
25848875	7511	0	0	-100	0	230	101300000	1000	0	0	-1	0
25861435	7509	1	0	-100	0	230	101300000	1000	0	0	-1	0
25873995	7516	0	0	-100	0	230	101300000	1000	0	0	-1	0
25886555	7511	4	0	-100	0	230	101300000	1000	0	0	-1	0
25899115	7507	0	0	-100	0	230	101300000	1000	0	0	-1	0
25911675	7512	0	0	-100	0	230	101300000	1000	0	0	-1	0
25924235	7516	0	0	-100	0	230	101300000	1000	0	0	-1	0
25936795	7515	0	0	-100	0	230	101300000	1000	0	0	-1	0
25949355	7511	0	0	-100	0	230	101300000	1000	0	0	-1	0
25961915	7511	2	0	-100	0	230	101300000	1000	0	0	-1	0
25974475	7514	3	0	-100	0	230	101300000	1000	0	0	-1	0
25987035	7501	0	0	-100	0	230	101300000	1000	0	0	-1	0
25999595	7514	0	0	-100	0	230	101300000	1000	0	0	-1	0
26012155	7512	0	0	-100	0	230	101300000	1000	0	0	-1	0
26024715	7516	0	0	-100	0	230	101300000	1000	0	0	-1	0
26037275	7515	0	0	-100	0	230	101300000	1000	0	0	-1	0
26049835	7514	0	0	-100	0	230	101300000	1000	0	0	-1	0
26062395	7514	0	0	-100	0	230	101300000	1000	0	0	-1	0
26074955	7510	2	0	-100	0	230	101300000	1000	0	0	-1	0
26087515	7510	6	0	-100	0	230	101300000	1000	0	0	-1	0
26100075	7512	0	0	-100	0	230	101300000	1000	0	0	-1	0
26112635	7512	0	0	-100	0	230	101300000	1000	0	0	-1	0
26125195	7512	0	0	-100	0	230	101300000	1000	0	0	-1	0
26137755	7514	0	0	-100	0	230	101300000	1000	0	0	-1	0
26150315	7511	4	0	-100	0	230	101300000	1000	0	0	-1	0
26162875	7512	4	0	-100	0	230	101300000	1000	0	0	-1	0
26175435	7512	0	0	-100	0	230	101300000	1000	0	0	-1	0
26187995	7514	0	0	-100	0	230	101300000	1000	0	0	-1	0
26200555	7519	0	0	-100	0	230	101300000	1000	0	0	-1	0
26213115	7510	0	0	-100	0	230	101300000	1000	0	0	-1	0
26225675	7512	0	0	-100	0	230	101300000	1000	0	0	-1	0
26238235	7514	0	0	-100	0	230	101300000	1000	0	0	-1	0
26250795	7512	0	0	-100	0	230	101300000	1000	0	0	-1	0
26263355	7512	0	0	-100	0	230	101300000	1000	0	0	-1	0
26275915	7514	0	0	-100	0	230	101300000	1000	0	0	-1	0
26288475	7513	0	0	-100	0	230	101300000	1000	0	0	-1	0
26301035	7513	0	0	-100	0	230	101300000	1000	0	0	-1	0
26313595	7512	0	0	-100	0	230	101300000	1000	0	0	-1	0
26326155	7510	0	0	-100	0	230	101300000	1000	0	0	-1	0
26338715	7514	0	0	-100	0	230	101300000	1000	0	0	-1	0
26351275	7510	0	0	-100	0	230	101300000	1000	0	0	-1	0
26363835	7512	0	0	-100	0	230	101300000	1000	0	0	-1	0
26376395	7512	0	0	-100	0	230	101300000	1000	0	0	-1	0
26388955	7514	1	0	-100	0	230	101300000	1000	0	0	-1	0
26401515	7516	3	0	-100	0	230	101300000	1000	0	0	-1	0
26414075	7511	2	0	-100	0	230	101300000	1000	0	0	-1	0
26426635	7507	2	0	-100	0	230	101300000	1000	0	0	-1	0
26439195	7514	3	0	-100	0	230	101300000	1000	0	0	-1	0
26451755	7509	4	0	-100	0	230	101300000	1000	0	0	-1	0
26464315	7508	0	0	-100	0	230	101300000	1000	0	0	-1	0
26476875	7512	0	0	-100	0	230	101300000	1000	0	0	-1	0
26489435	7510	0	0	-100	0	230	101300000	1000	0	0	-1	0
26501995	7512	0	0	-100	0	230	101300000	1000	0	0	-1	0
26514555	7514	0	0	-100	0	230	101300000	1000	0	0	-1	0
26527115	7512	0	0	-100	0	230	101300000	1000	0	0	-1	0
26539675	7516	0	0	-100	0	230	101300000	1000	0	0	-1	0
26552235	7517	0	0	-100	0	230	101300000	1000	0	0	-1	0
26564795	7512	0	0	-100	0	230	101300000	1000	0	0	-1	0
26577355	7511	3	0	-100	0	230	101300000	1000	0	0	-1	0
26589915	7507	0	0	-100	0	230	101300000	1000	0	0	-1	0
26602475	7514	0	0	-100	0	230	101300000	1000	0	0	-1	0
26615035	7518	0	0	-100	0	230	101300000	1000	0	0	-1	0
26627595	7507	1	0	-100	0	230	101300000	1000	0	0	-1	0
26640155	7511	3	0	-100	0	230	101300000	1000	0	0	-1	0
26652715	7508	0	0	-100	0	230	101300000	1000	0	0	-1	0
26665275	7510	0	0	-100	0	230	101300000	1000	0	0	-1	0
26677835	7515	0	0	-100	0	230	101300000	1000	0	0	-1	0
26690395	7516	0	0	-100	0	230	101300000	1000	0	0	-1	0
26702955	7512	0	0	-100	0	230	101300000	1000	0	0	-1	0
26715515	7514	1	0	-100	0	230	101300000	1000	0	0	-1	0
26728075	7511	4	0	-100	0	230	101300000	1000	0	0	-1	0
26740635	7512	5	0	-100	0	230	101300000	1000	0	0	-1	0
26753195	7505	0	0	-100	0	230	101300000	1000	0	0	-1	0
26765755	7512	0	0	-100	0	230	101300000	1000	0	0	-1	0
26778315	7514	0	0	-100	0	230	101300000	1000	0	0	-1	0
26790875	7514	0	0	-100	0	230	101300000	1000	0	0	-1	0
26803435	7519	0	0	-100	0	230	101300000	1000	0	0	-1	0
26815995	7512	4	0	-100	0	230	101300000	1000	0	0	-1	0
26828555	7507	1	0	-100	0	230	101300000	1000	0	0	-1	0
26841115	7514	4	0	-100	0	230	101300000	1000	0	0	-1	0
26853675	7505	0	0	-100	0	230	101300000	1000	0	0	-1	0
26866235	7516	0	0	-100	0	230	101300000	1000	0	0	-1	0
26878795	7518	0	0	-100	0	230	101300000	1000	0	0	-1	0
26891355	7514	0	0	-100	0	230	101300000	1000	0	0	-1	0
26903915	7514	0	0	-100	0	230	101300000	1000	0	0	-1	0
26916475	7518	0	0	-100	0	230	101300000	1000	0	0	-1	0
26929035	7511	1	0	-100	0	230	101300000	1000	0	0	-1	0
26941595	7510	2	0	-100	0	230	101300000	1000	0	0	-1	0
26954155	7514	1	0	-100	0	230	101300000	1000	0	0	-1	0
26966715	7512	3	0	-100	0	230	101300000	1000	0	0	-1	0
26979275	7514	3	0	-100	0	230	101300000	1000	0	0	-1	0
26991835	7511	4	0	-100	0	230	101300000	1000	0	0	-1	0
27004395	7511	4	0	-100	0	230	101300000	1000	0	0	-1	0
27016955	7510	0	0	-100	0	230	101300000	1000	0	0	-1	0
27029515	7503	0	0	-100	0	230	101300000	1000	0	0	-1	0
27042075	7503	0	0	-100	0	230	101300000	1000	0	0	-1	0
