timestamp	voltage	current	windSpeed	pitchAngle	rpm	temperature	ambientPressure	humidity	accelerationX	accelerationY	accelerationZ	currentSink
7039070	8013	0	0	-100	0	230	101300000	1000	0	0	-1	0
7046523	8025	0	0	-100	0	230	101300000	1000	0	0	-1	0
7059083	8020	0	0	-100	0	230	101300000	1000	0	0	-1	0
7071643	8022	2	0	-100	0	230	101300000	1000	0	0	-1	0
7084203	8023	0	0	-100	0	230	101300000	1000	0	0	-1	0
7096763	8022	1	0	-100	0	230	101300000	1000	0	0	-1	0
7109323	8029	0	0	-100	0	230	101300000	1000	0	0	-1	0
7121883	8020	0	0	-100	0	230	101300000	1000	0	0	-1	0
7134443	8017	0	0	-100	0	230	101300000	1000	0	0	-1	0
7147004	8013	0	0	-100	0	230	101300000	1000	0	0	-1	0
7159563	8020	3	0	-100	0	230	101300000	1000	0	0	-1	0
7172123	8025	0	0	-100	0	230	101300000	1000	0	0	-1	0
7184683	8020	4	0	-100	0	230	101300000	1000	0	0	-1	0
7197243	8018	0	0	-100	0	230	101300000	1000	0	0	-1	0
7209803	8023	0	0	-100	0	230	101300000	1000	0	0	-1	0
7222363	8013	1	0	-100	0	230	101300000	1000	0	0	-1	0
7234923	8015	0	0	-100	0	230	101300000	1000	0	0	-1	0
7247483	8025	0	0	-100	0	230	101300000	1000	0	0	-1	0
7260043	8022	0	0	-100	0	230	101300000	1000	0	0	-1	0
7272603	8018	0	0	-100	0	230	101300000	1000	0	0	-1	0
7285163	8016	0	0	-100	0	230	101300000	1000	0	0	-1	0
7297723	8015	1	0	-100	0	230	101300000	1000	0	0	-1	0
7310283	8020	0	0	-100	0	230	101300000	1000	0	0	-1	0
7322843	8023	0	0	-100	0	230	101300000	1000	0	0	-1	0
7335403	8017	1	0	-100	0	230	101300000	1000	0	0	-1	0
7347963	8020	0	0	-100	0	230	101300000	1000	0	0	-1	0
7678555	8022	0	0	-100	0	230	101300000	1000	0	0	-1	0
7691115	8020	0	0	-100	0	230	101300000	1000	0	0	-1	0
7703675	8013	0	0	-100	0	230	101300000	1000	0	0	-1	0
7716235	8021	0	0	-100	0	230	101300000	1000	0	0	-1	0
7728795	8020	3	0	-100	0	230	101300000	1000	0	0	-1	0
7741355	8018	0	0	-100	0	230	101300000	1000	0	0	-1	0
7753915	8020	0	0	-100	0	230	101300000	1000	0	0	-1	0
7766475	8018	0	0	-100	0	230	101300000	1000	0	0	-1	0
7779035	8027	0	0	-100	0	230	101300000	1000	0	0	-1	0
7791595	8018	3	0	-100	0	230	101300000	1000	0	0	-1	0
7804155	8009	0	0	-100	0	230	101300000	1000	0	0	-1	0
7816715	8027	0	0	-100	0	230	101300000	1000	0	0	-1	0
7829275	8020	4	0	-100	0	230	101300000	1000	0	0	-1	0
7841835	8020	0	0	-100	0	230	101300000	1000	0	0	-1	0
7854395	8018	0	0	-100	0	230	101300000	1000	0	0	-1	0
7866955	8020	4	0	-100	0	230	101300000	1000	0	0	-1	0
7879515	8020	0	0	-100	0	230	101300000	1000	0	0	-1	0
7892075	8020	0	0	-100	0	230	101300000	1000	0	0	-1	0
7904635	8022	0	0	-100	0	230	101300000	1000	0	0	-1	0
7917195	8025	0	0	-100	0	230	101300000	1000	0	0	-1	0
7929755	8020	0	0	-100	0	230	101300000	1000	0	0	-1	0
7942315	8013	0	0	-100	0	230	101300000	1000	0	0	-1	0
7954875	8023	0	0	-100	0	230	101300000	1000	0	0	-1	0
7967435	8020	0	0	-100	0	230	101300000	1000	0	0	-1	0
7979995	8015	0	0	-100	0	230	101300000	1000	0	0	-1	0
7992555	8020	0	0	-100	0	230	101300000	1000	0	0	-1	0
8005115	8027	0	0	-100	0	230	101300000	1000	0	0	-1	0
8017675	8018	3	0	-100	0	230	101300000	1000	0	0	-1	0
8030235	8013	0	0	-100	0	230	101300000	1000	0	0	-1	0
8042795	8022	0	0	-100	0	230	101300000	1000	0	0	-1	0
8055355	8025	0	0	-100	0	230	101300000	1000	0	0	-1	0
8067915	8018	0	0	-100	0	230	101300000	1000	0	0	-1	0
8080475	8018	4	0	-100	0	230	101300000	1000	0	0	-1	0
8093035	8013	0	0	-100	0	230	101300000	1000	0	0	-1	0
8105595	8020	0	0	-100	0	230	101300000	1000	0	0	-1	0
8118155	8021	0	0	-100	0	230	101300000	1000	0	0	-1	0
8130715	8022	2	0	-100	0	230	101300000	1000	0	0	-1	0
8143275	8018	0	0	-100	0	230	101300000	1000	0	0	-1	0
8155835	8022	0	0	-100	0	230	101300000	1000	0	0	-1	0
8168395	8020	0	0	-100	0	230	101300000	1000	0	0	-1	0
8180955	8022	2	0	-100	0	230	101300000	1000	0	0	-1	0
8193515	8015	0	0	-100	0	230	101300000	1000	0	0	-1	0
8206075	8022	0	0	-100	0	230	101300000	1000	0	0	-1	0
8218635	8018	0	0	-100	0	230	101300000	1000	0	0	-1	0
8231195	8022	0	0	-100	0	230	101300000	1000	0	0	-1	0
8243755	8029	0	0	-100	0	230	101300000	1000	0	0	-1	0
8256315	8022	0	0	-100	0	230	101300000	1000	0	0	-1	0
8268875	8020	1	0	-100	0	230	101300000	1000	0	0	-1	0
8281435	8022	0	0	-100	0	230	101300000	1000	0	0	-1	0
8293995	8018	0	0	-100	0	230	101300000	1000	0	0	-1	0
8306555	8025	0	0	-100	0	230	101300000	1000	0	0	-1	0
8319115	8022	2	0	-100	0	230	101300000	1000	0	0	-1	0
8331675	8023	0	0	-100	0	230	101300000	1000	0	0	-1	0
8344235	8011	0	0	-100	0	230	101300000	1000	0	0	-1	0
8356795	8020	0	0	-100	0	230	101300000	1000	0	0	-1	0
8369355	8025	0	0	-100	0	230	101300000	1000	0	0	-1	0
8381915	8018	3	0	-100	0	230	101300000	1000	0	0	-1	0
8394475	8018	0	0	-100	0	230	101300000	1000	0	0	-1	0
8407035	8018	0	0	-100	0	230	101300000	1000	0	0	-1	0
8419595	8019	0	0	-100	0	230	101300000	1000	0	0	-1	0
8432155	8016	0	0	-100	0	230	101300000	1000	0	0	-1	0
8444715	8024	2	0	-100	0	230	101300000	1000	0	0	-1	0
8457275	8025	0	0	-100	0	230	101300000	1000	0	0	-1	0
8469835	8018	4	0	-100	0	230	101300000	1000	0	0	-1	0
8482395	8027	0	0	-100	0	230	101300000	1000	0	0	-1	0
8494955	8020	0	0	-100	0	230	101300000	1000	0	0	-1	0
8507515	8018	0	0	-100	0	230	101300000	1000	0	0	-1	0
8520075	8020	0	0	-100	0	230	101300000	1000	0	0	-1	0
8532635	8024	4	0	-100	0	230	101300000	1000	0	0	-1	0
8545195	8027	0	0	-100	0	230	101300000	1000	0	0	-1	0
8557755	8013	0	0	-100	0	230	101300000	1000	0	0	-1	0
8570315	8015	0	0	-100	0	230	101300000	1000	0	0	-1	0
8582875	8022	0	0	-100	0	230	101300000	1000	0	0	-1	0
8595435	8018	2	0	-100	0	230	101300000	1000	0	0	-1	0
8607995	8027	4	0	-100	0	230	101300000	1000	0	0	-1	0
8620555	8020	0	0	-100	0	230	101300000	1000	0	0	-1	0
8633115	8015	2	0	-100	0	230	101300000	1000	0	0	-1	0
8645675	8021	0	0	-100	0	230	101300000	1000	0	0	-1	0
8658235	8018	0	0	-100	0	230	101300000	1000	0	0	-1	0
8670795	8020	0	0	-100	0	230	101300000	1000	0	0	-1	0
8683355	8021	0	0	-100	0	230	101300000	1000	0	0	-1	0
8695915	8015	1	0	-100	0	230	101300000	1000	0	0	-1	0
8708475	8027	0	0	-100	0	230	101300000	1000	0	0	-1	0
8721035	8020	0	0	-100	0	230	101300000	1000	0	0	-1	0
8733595	8025	0	0	-100	0	230	101300000	1000	0	0	-1	0
8746155	8009	0	0	-100	0	230	101300000	1000	0	0	-1	0
8758715	8022	1	0	-100	0	230	101300000	1000	0	0	-1	0
8771275	8025	0	0	-100	0	230	101300000	1000	0	0	-1	0
8783835	8020	0	0	-100	0	230	101300000	1000	0	0	-1	0
8796395	8017	1	0	-100	0	230	101300000	1000	0	0	-1	0
8808955	8027	0	0	-100	0	230	101300000	1000	0	0	-1	0
8821515	8015	0	0	-100	0	230	101300000	1000	0	0	-1	0
8834075	8022	2	0	-100	0	230	101300000	1000	0	0	-1	0
8846635	8018	0	0	-100	0	230	101300000	1000	0	0	-1	0
8859195	8022	0	0	-100	0	230	101300000	1000	0	0	-1	0
8871755	8015	0	0	-100	0	230	101300000	1000	0	0	-1	0
8884315	8022	4	0	-100	0	230	101300000	1000	0	0	-1	0
8896875	8027	0	0	-100	0	230	101300000	1000	0	0	-1	0
8909435	8023	0	0	-100	0	230	101300000	1000	0	0	-1	0
8921995	8015	0	0	-100	0	230	101300000	1000	0	0	-1	0
8934555	8022	1	0	-100	0	230	101300000	1000	0	0	-1	0
8947115	8029	0	0	-100	0	230	101300000	1000	0	0	-1	0
8959675	8018	0	0	-100	0	230	101300000	1000	0	0	-1	0
8972235	8016	0	0	-100	0	230	101300000	1000	0	0	-1	0
8984795	8020	2	0	-100	0	230	101300000	1000	0	0	-1	0
8997355	8027	0	0	-100	0	230	101300000	1000	0	0	-1	0
9009915	8022	0	0	-100	0	230	101300000	1000	0	0	-1	0
9022475	8018	4	0	-100	0	230	101300000	1000	0	0	-1	0
9035035	8023	0	0	-100	0	230	101300000	1000	0	0	-1	0
9047595	8018	0	0	-100	0	230	101300000	1000	0	0	-1	0
9060155	8013	2	0	-100	0	230	101300000	1000	0	0	-1	0
9072715	8015	0	0	-100	0	230	101300000	1000	0	0	-1	0
9085275	8027	0	0	-100	0	230	101300000	1000	0	0	-1	0
9097835	8015	0	0	-100	0	230	101300000	1000	0	0	-1	0
9110395	8025	0	0	-100	0	230	101300000	1000	0	0	-1	0
9122955	8020	0	0	-100	0	230	101300000	1000	0	0	-1	0
9135515	8020	0	0	-100	0	230	101300000	1000	0	0	-1	0
9148075	8021	0	0	-100	0	230	101300000	1000	0	0	-1	0
9160635	8018	0	0	-100	0	230	101300000	1000	0	0	-1	0
9173195	8018	0	0	-100	0	230	101300000	1000	0	0	-1	0
9185755	8018	0	0	-100	0	230	101300000	1000	0	0	-1	0
9198315	8022	3	0	-100	0	230	101300000	1000	0	0	-1	0
9210875	8027	0	0	-100	0	230	101300000	1000	0	0	-1	0
9223435	8013	0	0	-100	0	230	101300000	1000	0	0	-1	0
9235995	8018	0	0	-100	0	230	101300000	1000	0	0	-1	0
9248555	8016	0	0	-100	0	230	101300000	1000	0	0	-1	0
9261115	8015	1	0	-100	0	230	101300000	1000	0	0	-1	0
9273675	8018	0	0	-100	0	230	101300000	1000	0	0	-1	0
9286235	8022	3	0	-100	0	230	101300000	1000	0	0	-1	0
9298795	8018	0	0	-100	0	230	101300000	1000	0	0	-1	0
9311355	8016	4	0	-100	0	230	101300000	1000	0	0	-1	0
9323915	8025	0	0	-100	0	230	101300000	1000	0	0	-1	0
9336475	8022	0	0	-100	0	230	101300000	1000	0	0	-1	0
9349035	8027	0	0	-100	0	230	101300000	1000	0	0	-1	0
9361595	8015	0	0	-100	0	230	101300000	1000	0	0	-1	0
9374155	8015	0	0	-100	0	230	101300000	1000	0	0	-1	0
9386715	8021	0	0	-100	0	230	101300000	1000	0	0	-1	0
9399275	8022	4	0	-100	0	230	101300000	1000	0	0	-1	0
9411835	8021	0	0	-100	0	230	101300000	1000	0	0	-1	0
9424395	8016	0	0	-100	0	230	101300000	1000	0	0	-1	0
9436955	8022	0	0	-100	0	230	101300000	1000	0	0	-1	0
9449515	8018	0	0	-100	0	230	101300000	1000	0	0	-1	0
9462075	8017	1	0	-100	0	230	101300000	1000	0	0	-1	0
9474635	8022	0	0	-100	0	230	101300000	1000	0	0	-1	0
9487195	8013	0	0	-100	0	230	101300000	1000	0	0	-1	0
9499755	8017	0	0	-100	0	230	101300000	1000	0	0	-1	0
9512315	8023	0	0	-100	0	230	101300000	1000	0	0	-1	0
9524875	8022	2	0	-100	0	230	101300000	1000	0	0	-1	0
9537435	8027	0	0	-100	0	230	101300000	1000	0	0	-1	0
9549995	8016	0	0	-100	0	230	101300000	1000	0	0	-1	0
9562555	8020	1	0	-100	0	230	101300000	1000	0	0	-1	0
9575115	8025	0	0	-100	0	230	101300000	1000	0	0	-1	0
9587675	8021	0	0	-100	0	230	101300000	1000	0	0	-1	0
9600235	8011	0	0	-100	0	230	101300000	1000	0	0	-1	0
9612795	8018	2	0	-100	0	230	101300000	1000	0	0	-1	0
9625355	8029	0	0	-100	0	230	101300000	1000	0	0	-1	0
9637915	8018	0	0	-100	0	230	101300000	1000	0	0	-1	0
9650475	8018	0	0	-100	0	230	101300000	1000	0	0	-1	0
9663035	8015	0	0	-100	0	230	101300000	1000	0	0	-1	0
9675595	8027	0	0	-100	0	230	101300000	1000	0	0	-1	0
9688155	8012	0	0	-100	0	230	101300000	1000	0	0	-1	0
9700715	8013	0	0	-100	0	230	101300000	1000	0	0	-1	0
9713275	8019	1	0	-100	0	230	101300000	1000	0	0	-1	0
9725835	8027	0	0	-100	0	230	101300000	1000	0	0	-1	0
9738395	8020	0	0	-100	0	230	101300000	1000	0	0	-1	0
9750955	8025	0	0	-100	0	230	101300000	1000	0	0	-1	0
9763515	8020	0	0	-100	0	230	101300000	1000	0	0	-1	0
9776075	8021	0	0	-100	0	230	101300000	1000	0	0	-1	0
9788635	8020	0	0	-100	0	230	101300000	1000	0	0	-1	0
9801195	8017	0	0	-100	0	230	101300000	1000	0	0	-1	0
9813755	8025	0	0	-100	0	230	101300000	1000	0	0	-1	0
9826315	8013	0	0	-100	0	230	101300000	1000	0	0	-1	0
9838875	8015	0	0	-100	0	230	101300000	1000	0	0	-1	0
9851435	8022	0	0	-100	0	230	101300000	1000	0	0	-1	0
9863995	8022	0	0	-100	0	230	101300000	1000	0	0	-1	0
9876555	8020	0	0	-100	0	230	101300000	1000	0	0	-1	0
9889115	8018	1	0	-100	0	230	101300000	1000	0	0	-1	0
9901675	8020	2	0	-100	0	230	101300000	1000	0	0	-1	0
9914235	8022	0	0	-100	0	230	101300000	1000	0	0	-1	0
9926795	8025	0	0	-100	0	230	101300000	1000	0	0	-1	0
9939355	8020	0	0	-100	0	230	101300000	1000	0	0	-1	0
9951915	8025	0	0	-100	0	230	101300000	1000	0	0	-1	0
9964475	8025	0	0	-100	0	230	101300000	1000	0	0	-1	0
9977035	8023	0	0	-100	0	230	101300000	1000	0	0	-1	0
9989595	8023	0	0	-100	0	230	101300000	1000	0	0	-1	0
10002155	8016	0	0	-100	0	230	101300000	1000	0	0	-1	0
10014715	8025	0	0	-100	0	230	101300000	1000	0	0	-1	0
10027275	8029	0	0	-100	0	230	101300000	1000	0	0	-1	0
10039835	8020	0	0	-100	0	230	101300000	1000	0	0	-1	0
10052395	8027	0	0	-100	0	230	101300000	1000	0	0	-1	0
10064955	8022	0	0	-100	0	230	101300000	1000	0	0	-1	0
10077515	8015	0	0	-100	0	230	101300000	1000	0	0	-1	0
10090075	8020	1	0	-100	0	230	101300000	1000	0	0	-1	0
10102635	8017	2	0	-100	0	230	101300000	1000	0	0	-1	0
10115195	8015	3	0	-100	0	230	101300000	1000	0	0	-1	0
10127755	8022	1	0	-100	0	230	101300000	1000	0	0	-1	0
10140315	8015	0	0	-100	0	230	101300000	1000	0	0	-1	0
10152875	8020	0	0	-100	0	230	101300000	1000	0	0	-1	0
10165435	8022	0	0	-100	0	230	101300000	1000	0	0	-1	0
10177995	8025	1	0	-100	0	230	101300000	1000	0	0	-1	0
10190555	8022	0	0	-100	0	230	101300000	1000	0	0	-1	0
10203115	8020	0	0	-100	0	230	101300000	1000	0	0	-1	0
10215675	8016	0	0	-100	0	230	101300000	1000	0	0	-1	0
10228235	8018	0	0	-100	0	230	101300000	1000	0	0	-1	0
10240795	8018	0	0	-100	0	230	101300000	1000	0	0	-1	0
10253355	8015	0	0	-100	0	230	101300000	1000	0	0	-1	0
10265915	8013	0	0	-100	0	230	101300000	1000	0	0	-1	0
10278475	8013	0	0	-100	0	230	101300000	1000	0	0	-1	0
10291035	8018	0	0	-100	0	230	101300000	1000	0	0	-1	0
10303595	8020	0	0	-100	0	230	101300000	1000	0	0	-1	0
10316155	8006	0	0	-100	0	230	101300000	1000	0	0	-1	0
10328715	8020	0	0	-100	0	230	101300000	1000	0	0	-1	0
10341275	8020	0	0	-100	0	230	101300000	1000	0	0	-1	0
10353835	8020	0	0	-100	0	230	101300000	1000	0	0	-1	0
10366395	8025	0	0	-100	0	230	101300000	1000	0	0	-1	0
10378955	8025	0	0	-100	0	230	101300000	1000	0	0	-1	0
10391515	8029	0	0	-100	0	230	101300000	1000	0	0	-1	0
10404075	8025	0	0	-100	0	230	101300000	1000	0	0	-1	0
10416635	8018	0	0	-100	0	230	101300000	1000	0	0	-1	0
10429195	8021	0	0	-100	0	230	101300000	1000	0	0	-1	0
10441755	8022	0	0	-100	0	230	101300000	1000	0	0	-1	0
10454315	8022	0	0	-100	0	230	101300000	1000	0	0	-1	0
10466875	8023	0	0	-100	0	230	101300000	1000	0	0	-1	0
10479435	8015	0	0	-100	0	230	101300000	1000	0	0	-1	0
10491995	8018	0	0	-100	0	230	101300000	1000	0	0	-1	0
10504555	8020	1	0	-100	0	230	101300000	1000	0	0	-1	0
10517115	8020	0	0	-100	0	230	101300000	1000	0	0	-1	0
10529675	8021	0	0	-100	0	230	101300000	1000	0	0	-1	0
10542235	8020	0	0	-100	0	230	101300000	1000	0	0	-1	0
10554795	8022	4	0	-100	0	230	101300000	1000	0	0	-1	0
10567355	8024	0	0	-100	0	230	101300000	1000	0	0	-1	0
10579915	8021	0	0	-100	0	230	101300000	1000	0	0	-1	0
10592475	8011	0	0	-100	0	230	101300000	1000	0	0	-1	0
10605035	8017	0	0	-100	0	230	101300000	1000	0	0	-1	0
10617595	8023	0	0	-100	0	230	101300000	1000	0	0	-1	0
10630155	8013	0	0	-100	0	230	101300000	1000	0	0	-1	0
10642715	8018	2	0	-100	0	230	101300000	1000	0	0	-1	0
10655275	8029	0	0	-100	0	230	101300000	1000	0	0	-1	0
10667835	8025	0	0	-100	0	230	101300000	1000	0	0	-1	0
10680395	8015	4	0	-100	0	230	101300000	1000	0	0	-1	0
10692955	8020	0	0	-100	0	230	101300000	1000	0	0	-1	0
10705515	8025	0	0	-100	0	230	101300000	1000	0	0	-1	0
10718075	8013	0	0	-100	0	230	101300000	1000	0	0	-1	0
10730635	8022	1	0	-100	0	230	101300000	1000	0	0	-1	0
10743195	8029	0	0	-100	0	230	101300000	1000	0	0	-1	0
10755755	8022	0	0	-100	0	230	101300000	1000	0	0	-1	0
10768315	8015	0	0	-100	0	230	101300000	1000	0	0	-1	0
10780875	8022	1	0	-100	0	230	101300000	1000	0	0	-1	0
10793435	8027	0	0	-100	0	230	101300000	1000	0	0	-1	0
10805995	8020	0	0	-100	0	230	101300000	1000	0	0	-1	0
10818555	8019	1	0	-100	0	230	101300000	1000	0	0	-1	0
10831115	8025	0	0	-100	0	230	101300000	1000	0	0	-1	0
10843675	8022	0	0	-100	0	230	101300000	1000	0	0	-1	0
10856235	8018	0	0	-100	0	230	101300000	1000	0	0	-1	0
10868795	8025	0	0	-100	0	230	101300000	1000	0	0	-1	0
10881355	8020	2	0	-100	0	230	101300000	1000	0	0	-1	0
10893915	8027	0	0	-100	0	230	101300000	1000	0	0	-1	0
10906475	8018	3	0	-100	0	230	101300000	1000	0	0	-1	0
10919035	8025	0	0	-100	0	230	101300000	1000	0	0	-1	0
10931595	8022	0	0	-100	0	230	101300000	1000	0	0	-1	0
10944155	8013	2	0	-100	0	230	101300000	1000	0	0	-1	0
10956715	8020	0	0	-100	0	230	101300000	1000	0	0	-1	0
10969275	8023	0	0	-100	0	230	101300000	1000	0	0	-1	0
10981835	8022	1	0	-100	0	230	101300000	1000	0	0	-1	0
10994395	8025	0	0	-100	0	230	101300000	1000	0	0	-1	0
11006955	8018	4	0	-100	0	230	101300000	1000	0	0	-1	0
11019515	8018	0	0	-100	0	230	101300000	1000	0	0	-1	0
11032075	8018	0	0	-100	0	230	101300000	1000	0	0	-1	0
11044635	8015	2	0	-100	0	230	101300000	1000	0	0	-1	0
11057195	8022	0	0	-100	0	230	101300000	1000	0	0	-1	0
11069755	8025	0	0	-100	0	230	101300000	1000	0	0	-1	0
11082315	8018	0	0	-100	0	230	101300000	1000	0	0	-1	0
11094875	8018	3	0	-100	0	230	101300000	1000	0	0	-1	0
11107435	8025	0	0	-100	0	230	101300000	1000	0	0	-1	0
11119995	8022	0	0	-100	0	230	101300000	1000	0	0	-1	0
11132555	8017	0	0	-100	0	230	101300000	1000	0	0	-1	0
11145115	8022	1	0	-100	0	230	101300000	1000	0	0	-1	0
11157675	8020	0	0	-100	0	230	101300000	1000	0	0	-1	0
11170235	8025	0	0	-100	0	230	101300000	1000	0	0	-1	0
11182795	8018	0	0	-100	0	230	101300000	1000	0	0	-1	0
11195355	8013	0	0	-100	0	230	101300000	1000	0	0	-1	0
11207915	8019	1	0	-100	0	230	101300000	1000	0	0	-1	0
11220475	8015	0	0	-100	0	230	101300000	1000	0	0	-1	0
11233035	8027	0	0	-100	0	230	101300000	1000	0	0	-1	0
11245595	8015	0	0	-100	0	230	101300000	1000	0	0	-1	0
11258155	8011	4	0	-100	0	230	101300000	1000	0	0	-1	0
11270715	8018	0	0	-100	0	230	101300000	1000	0	0	-1	0
11283275	8023	0	0	-100	0	230	101300000	1000	0	0	-1	0
11295835	8022	0	0	-100	0	230	101300000	1000	0	0	-1	0
11308395	8015	0	0	-100	0	230	101300000	1000	0	0	-1	0
11320955	8020	0	0	-100	0	230	101300000	1000	0	0	-1	0
11333515	8027	0	0	-100	0	230	101300000	1000	0	0	-1	0
11346075	8015	0	0	-100	0	230	101300000	1000	0	0	-1	0
11358635	8020	1	0	-100	0	230	101300000	1000	0	0	-1	0
11371195	8021	0	0	-100	0	230	101300000	1000	0	0	-1	0
11383755	8018	0	0	-100	0	230	101300000	1000	0	0	-1	0
11396315	8015	3	0	-100	0	230	101300000	1000	0	0	-1	0
11408875	8025	0	0	-100	0	230	101300000	1000	0	0	-1	0
11421435	8025	0	0	-100	0	230	101300000	1000	0	0	-1	0
11433995	8018	0	0	-100	0	230	101300000	1000	0	0	-1	0
11446555	8022	2	0	-100	0	230	101300000	1000	0	0	-1	0
11459115	8020	0	0	-100	0	230	101300000	1000	0	0	-1	0
11471675	8020	0	0	-100	0	230	101300000	1000	0	0	-1	0
11484235	8011	0	0	-100	0	230	101300000	1000	0	0	-1	0
11496795	8019	0	0	-100	0	230	101300000	1000	0	0	-1	0
11509355	8018	0	0	-100	0	230	101300000	1000	0	0	-1	0
11521915	8018	0	0	-100	0	230	101300000	1000	0	0	-1	0
11534475	8018	0	0	-100	0	230	101300000	1000	0	0	-1	0
11547035	8021	0	0	-100	0	230	101300000	1000	0	0	-1	0
11559595	8018	0	0	-100	0	230	101300000	1000	0	0	-1	0
11572155	8011	0	0	-100	0	230	101300000	1000	0	0	-1	0
11584715	8020	2	0	-100	0	230	101300000	1000	0	0	-1	0
11597275	8017	0	0	-100	0	230	101300000	1000	0	0	-1	0
11609835	8027	0	0	-100	0	230	101300000	1000	0	0	-1	0
11622395	8018	0	0	-100	0	230	101300000	1000	0	0	-1	0
11634955	8015	3	0	-100	0	230	101300000	1000	0	0	-1	0
11647515	8029	0	0	-100	0	230	101300000	1000	0	0	-1	0
11660075	8020	0	0	-100	0	230	101300000	1000	0	0	-1	0
11672635	8020	3	0	-100	0	230	101300000	1000	0	0	-1	0
11685195	8023	0	0	-100	0	230	101300000	1000	0	0	-1	0
11697755	8016	0	0	-100	0	230	101300000	1000	0	0	-1	0
11710315	8018	1	0	-100	0	230	101300000	1000	0	0	-1	0
11722875	8027	0	0	-100	0	230	101300000	1000	0	0	-1	0
11735435	8015	0	0	-100	0	230	101300000	1000	0	0	-1	0
11747995	8020	0	0	-100	0	230	101300000	1000	0	0	-1	0
11760555	8021	0	0	-100	0	230	101300000	1000	0	0	-1	0
11773115	8018	0	0	-100	0	230	101300000	1000	0	0	-1	0
11785675	8019	0	0	-100	0	230	101300000	1000	0	0	-1	0
11798235	8020	0	0	-100	0	230	101300000	1000	0	0	-1	0
11810795	8015	3	0	-100	0	230	101300000	1000	0	0	-1	0
11823355	8022	0	0	-100	0	230	101300000	1000	0	0	-1	0
11835915	8020	0	0	-100	0	230	101300000	1000	0	0	-1	0
11848475	8022	2	0	-100	0	230	101300000	1000	0	0	-1	0
11861035	8022	0	0	-100	0	230	101300000	1000	0	0	-1	0
11873595	8020	0	0	-100	0	230	101300000	1000	0	0	-1	0
11886155	8015	3	0	-100	0	230	101300000	1000	0	0	-1	0
11898715	8025	0	0	-100	0	230	101300000	1000	0	0	-1	0
11911275	8025	1	0	-100	0	230	101300000	1000	0	0	-1	0
11923835	8023	0	0	-100	0	230	101300000	1000	0	0	-1	0
11936395	8013	0	0	-100	0	230	101300000	1000	0	0	-1	0
11948955	8020	0	0	-100	0	230	101300000	1000	0	0	-1	0
11961515	8020	0	0	-100	0	230	101300000	1000	0	0	-1	0
11974075	8015	0	0	-100	0	230	101300000	1000	0	0	-1	0
11986635	8015	0	0	-100	0	230	101300000	1000	0	0	-1	0
11999195	8022	0	0	-100	0	230	101300000	1000	0	0	-1	0
12011755	8018	2	0	-100	0	230	101300000	1000	0	0	-1	0
12024315	8023	0	0	-100	0	230	101300000	1000	0	0	-1	0
12036875	8015	0	0	-100	0	230	101300000	1000	0	0	-1	0
12049435	8022	0	0	-100	0	230	101300000	1000	0	0	-1	0
12061995	8022	1	0	-100	0	230	101300000	1000	0	0	-1	0
12074555	8015	3	0	-100	0	230	101300000	1000	0	0	-1	0
12087115	8027	0	0	-100	0	230	101300000	1000	0	0	-1	0
12099675	8020	3	0	-100	0	230	101300000	1000	0	0	-1	0
12112235	8027	0	0	-100	0	230	101300000	1000	0	0	-1	0
12124795	8013	0	0	-100	0	230	101300000	1000	0	0	-1	0
12137355	8018	0	0	-100	0	230	101300000	1000	0	0	-1	0
12149915	8025	0	0	-100	0	230	101300000	1000	0	0	-1	0
12162475	8022	0	0	-100	0	230	101300000	1000	0	0	-1	0
12175035	8015	0	0	-100	0	230	101300000	1000	0	0	-1	0
12187595	8018	0	0	-100	0	230	101300000	1000	0	0	-1	0
12200155	8015	0	0	-100	0	230	101300000	1000	0	0	-1	0
12212715	8018	0	0	-100	0	230	101300000	1000	0	0	-1	0
12225275	8013	0	0	-100	0	230	101300000	1000	0	0	-1	0
12237835	8027	0	0	-100	0	230	101300000	1000	0	0	-1	0
12250395	8016	0	0	-100	0	230	101300000	1000	0	0	-1	0
12262955	8025	0	0	-100	0	230	101300000	1000	0	0	-1	0
12275515	8013	0	0	-100	0	230	101300000	1000	0	0	-1	0
12288075	8023	0	0	-100	0	230	101300000	1000	0	0	-1	0
12300635	8015	0	0	-100	0	230	101300000	1000	0	0	-1	0
12313195	8020	0	0	-100	0	230	101300000	1000	0	0	-1	0
12325755	8025	0	0	-100	0	230	101300000	1000	0	0	-1	0
12338315	8018	0	0	-100	0	230	101300000	1000	0	0	-1	0
12350875	8015	4	0	-100	0	230	101300000	1000	0	0	-1	0
12363435	8018	0	0	-100	0	230	101300000	1000	0	0	-1	0
12375995	8020	2	0	-100	0	230	101300000	1000	0	0	-1	0
12388555	8020	0	0	-100	0	230	101300000	1000	0	0	-1	0
12401115	8022	3	0	-100	0	230	101300000	1000	0	0	-1	0
12413675	8017	0	0	-100	0	230	101300000	1000	0	0	-1	0
12426235	8023	0	0	-100	0	230	101300000	1000	0	0	-1	0
12438795	8016	0	0	-100	0	230	101300000	1000	0	0	-1	0
12451355	8025	0	0	-100	0	230	101300000	1000	0	0	-1	0
12463915	8015	0	0	-100	0	230	101300000	1000	0	0	-1	0
12476475	8022	0	0	-100	0	230	101300000	1000	0	0	-1	0
12489035	8025	0	0	-100	0	230	101300000	1000	0	0	-1	0
12501595	8018	0	0	-100	0	230	101300000	1000	0	0	-1	0
12514155	8013	1	0	-100	0	230	101300000	1000	0	0	-1	0
12526715	8020	2	0	-100	0	230	101300000	1000	0	0	-1	0
12539275	8025	0	0	-100	0	230	101300000	1000	0	0	-1	0
12551835	8021	0	0	-100	0	230	101300000	1000	0	0	-1	0
12564395	8015	0	0	-100	0	230	101300000	1000	0	0	-1	0
12576955	8019	1	0	-100	0	230	101300000	1000	0	0	-1	0
12589515	8020	0	0	-100	0	230	101300000	1000	0	0	-1	0
12602075	8022	0	0	-100	0	230	101300000	1000	0	0	-1	0
12614635	8025	0	0	-100	0	230	101300000	1000	0	0	-1	0
12627195	8022	0	0	-100	0	230	101300000	1000	0	0	-1	0
12639755	8013	0	0	-100	0	230	101300000	1000	0	0	-1	0
12652315	8027	0	0	-100	0	230	101300000	1000	0	0	-1	0
12664875	8013	0	0	-100	0	230	101300000	1000	0	0	-1	0
12677435	8024	0	0	-100	0	230	101300000	1000	0	0	-1	0
12689995	8027	2	0	-100	0	230	101300000	1000	0	0	-1	0
12702555	8019	2	0	-100	0	230	101300000	1000	0	0	-1	0
12715115	8025	0	0	-100	0	230	101300000	1000	0	0	-1	0
12727675	8015	0	0	-100	0	230	101300000	1000	0	0	-1	0
12740235	8017	0	0	-100	0	230	101300000	1000	0	0	-1	0
12752795	8020	0	0	-100	0	230	101300000	1000	0	0	-1	0
12765355	8022	0	0	-100	0	230	101300000	1000	0	0	-1	0
12777915	8020	0	0	-100	0	230	101300000	1000	0	0	-1	0
12790475	8023	0	0	-100	0	230	101300000	1000	0	0	-1	0
12803035	8013	0	0	-100	0	230	101300000	1000	0	0	-1	0
12815595	8015	0	0	-100	0	230	101300000	1000	0	0	-1	0
12828155	8016	0	0	-100	0	230	101300000	1000	0	0	-1	0
12840715	8018	0	0	-100	0	230	101300000	1000	0	0	-1	0
12853275	8018	0	0	-100	0	230	101300000	1000	0	0	-1	0
12865835	8020	0	0	-100	0	230	101300000	1000	0	0	-1	0
12878395	8015	0	0	-100	0	230	101300000	1000	0	0	-1	0
12890955	8018	0	0	-100	0	230	101300000	1000	0	0	-1	0
12903515	8023	0	0	-100	0	230	101300000	1000	0	0	-1	0
12916075	8017	0	0	-100	0	230	101300000	1000	0	0	-1	0
12928635	8015	0	0	-100	0	230	101300000	1000	0	0	-1	0
12941195	8025	0	0	-100	0	230	101300000	1000	0	0	-1	0
12953755	8011	0	0	-100	0	230	101300000	1000	0	0	-1	0
12966315	8025	0	0	-100	0	230	101300000	1000	0	0	-1	0
12978875	8020	0	0	-100	0	230	101300000	1000	0	0	-1	0
12991435	8024	2	0	-100	0	230	101300000	1000	0	0	-1	0
13003995	8029	5	0	-100	0	230	101300000	1000	0	0	-1	0
13016555	8018	0	0	-100	0	230	101300000	1000	0	0	-1	0
13029115	8020	3	0	-100	0	230	101300000	1000	0	0	-1	0
13041675	8018	0	0	-100	0	230	101300000	1000	0	0	-1	0
13054235	8025	0	0	-100	0	230	101300000	1000	0	0	-1	0
13066795	8022	0	0	-100	0	230	101300000	1000	0	0	-1	0
13079355	8015	0	0	-100	0	230	101300000	1000	0	0	-1	0
13091915	8018	2	0	-100	0	230	101300000	1000	0	0	-1	0
13104475	8020	0	0	-100	0	230	101300000	1000	0	0	-1	0
13117035	8023	0	0	-100	0	230	101300000	1000	0	0	-1	0
13129595	8022	0	0	-100	0	230	101300000	1000	0	0	-1	0
13142155	8006	0	0	-100	0	230	101300000	1000	0	0	-1	0
13154715	8022	1	0	-100	0	230	101300000	1000	0	0	-1	0
13167275	8020	0	0	-100	0	230	101300000	1000	0	0	-1	0
13179835	8023	0	0	-100	0	230	101300000	1000	0	0	-1	0
13192395	8021	0	0	-100	0	230	101300000	1000	0	0	-1	0
13204955	8025	0	0	-100	0	230	101300000	1000	0	0	-1	0
13217515	8022	0	0	-100	0	230	101300000	1000	0	0	-1	0
13230075	8013	0	0	-100	0	230	101300000	1000	0	0	-1	0
13242635	8018	0	0	-100	0	230	101300000	1000	0	0	-1	0
13255195	8018	3	0	-100	0	230	101300000	1000	0	0	-1	0
13267755	8020	0	0	-100	0	230	101300000	1000	0	0	-1	0
13280315	8025	0	0	-100	0	230	101300000	1000	0	0	-1	0
13292875	8023	0	0	-100	0	230	101300000	1000	0	0	-1	0
13305435	8022	0	0	-100	0	230	101300000	1000	0	0	-1	0
13317995	8011	0	0	-100	0	230	101300000	1000	0	0	-1	0
13330555	8020	1	0	-100	0	230	101300000	1000	0	0	-1	0
13343115	8020	0	0	-100	0	230	101300000	1000	0	0	-1	0
13355675	8022	0	0	-100	0	230	101300000	1000	0	0	-1	0
13368235	8018	0	0	-100	0	230	101300000	1000	0	0	-1	0
13380795	8022	0	0	-100	0	230	101300000	1000	0	0	-1	0
13393355	8015	1	0	-100	0	230	101300000	1000	0	0	-1	0
13405915	8027	0	0	-100	0	230	101300000	1000	0	0	-1	0
13418475	8022	0	0	-100	0	230	101300000	1000	0	0	-1	0
13431035	8015	0	0	-100	0	230	101300000	1000	0	0	-1	0
13443595	8020	0	0	-100	0	230	101300000	1000	0	0	-1	0
13456155	8020	0	0	-100	0	230	101300000	1000	0	0	-1	0
13468715	8020	0	0	-100	0	230	101300000	1000	0	0	-1	0
13481275	8015	0	0	-100	0	230	101300000	1000	0	0	-1	0
13493835	8022	0	0	-100	0	230	101300000	1000	0	0	-1	0
13506395	8020	1	0	-100	0	230	101300000	1000	0	0	-1	0
13518955	8027	0	0	-100	0	230	101300000	1000	0	0	-1	0
13531515	8025	0	0	-100	0	230	101300000	1000	0	0	-1	0
13544075	8020	0	0	-100	0	230	101300000	1000	0	0	-1	0
13556635	8024	1	0	-100	0	230	101300000	1000	0	0	-1	0
13569195	8029	0	0	-100	0	230	101300000	1000	0	0	-1	0
13581755	8025	0	0	-100	0	230	101300000	1000	0	0	-1	0
13594315	8013	0	0	-100	0	230	101300000	1000	0	0	-1	0
13606875	8018	2	0	-100	0	230	101300000	1000	0	0	-1	0
13619435	8027	0	0	-100	0	230	101300000	1000	0	0	-1	0
13631995	8022	0	0	-100	0	230	101300000	1000	0	0	-1	0
13644555	8022	3	0	-100	0	230	101300000	1000	0	0	-1	0
13657115	8018	0	0	-100	0	230	101300000	1000	0	0	-1	0
13669675	8015	0	0	-100	0	230	101300000	1000	0	0	-1	0
13682235	8015	3	0	-100	0	230	101300000	1000	0	0	-1	0
13694795	8022	0	0	-100	0	230	101300000	1000	0	0	-1	0
13707355	8020	0	0	-100	0	230	101300000	1000	0	0	-1	0
13719915	8015	3	0	-100	0	230	101300000	1000	0	0	-1	0
13732475	8020	0	0	-100	0	230	101300000	1000	0	0	-1	0
13745035	8022	0	0	-100	0	230	101300000	1000	0	0	-1	0
13757595	8011	0	0	-100	0	230	101300000	1000	0	0	-1	0
13770155	8009	2	0	-100	0	230	101300000	1000	0	0	-1	0
13782715	8020	0	0	-100	0	230	101300000	1000	0	0	-1	0
13795275	8015	0	0	-100	0	230	101300000	1000	0	0	-1	0
13807835	8022	0	0	-100	0	230	101300000	1000	0	0	-1	0
13820395	8020	0	0	-100	0	230	101300000	1000	0	0	-1	0
13832955	8020	3	0	-100	0	230	101300000	1000	0	0	-1	0
13845515	8024	0	0	-100	0	230	101300000	1000	0	0	-1	0
13858075	8018	0	0	-100	0	230	101300000	1000	0	0	-1	0
13870635	8022	0	0	-100	0	230	101300000	1000	0	0	-1	0
13883195	8023	0	0	-100	0	230	101300000	1000	0	0	-1	0
13895755	8013	0	0	-100	0	230	101300000	1000	0	0	-1	0
13908315	8024	0	0	-100	0	230	101300000	1000	0	0	-1	0
13920875	8018	0	0	-100	0	230	101300000	1000	0	0	-1	0
13933435	8013	3	0	-100	0	230	101300000	1000	0	0	-1	0
13945995	8028	4	0	-100	0	230	101300000	1000	0	0	-1	0
13958555	8013	0	0	-100	0	230	101300000	1000	0	0	-1	0
13971115	8018	0	0	-100	0	230	101300000	1000	0	0	-1	0
13983675	8018	0	0	-100	0	230	101300000	1000	0	0	-1	0
13996235	8018	0	0	-100	0	230	101300000	1000	0	0	-1	0
14008795	8022	0	0	-100	0	230	101300000	1000	0	0	-1	0
14021355	8018	0	0	-100	0	230	101300000	1000	0	0	-1	0
14033915	8020	1	0	-100	0	230	101300000	1000	0	0	-1	0
14046475	8025	0	0	-100	0	230	101300000	1000	0	0	-1	0
14059035	8015	0	0	-100	0	230	101300000	1000	0	0	-1	0
14071595	8020	2	0	-100	0	230	101300000	1000	0	0	-1	0
14084155	8011	0	0	-100	0	230	101300000	1000	0	0	-1	0
14096715	8022	0	0	-100	0	230	101300000	1000	0	0	-1	0
14109275	8022	1	0	-100	0	230	101300000	1000	0	0	-1	0
14121835	8025	0	0	-100	0	230	101300000	1000	0	0	-1	0
14134395	8020	0	0	-100	0	230	101300000	1000	0	0	-1	0
14146955	8018	0	0	-100	0	230	101300000	1000	0	0	-1	0
14159515	8020	0	0	-100	0	230	101300000	1000	0	0	-1	0
14172075	8027	0	0	-100	0	230	101300000	1000	0	0	-1	0
14184635	8015	0	0	-100	0	230	101300000	1000	0	0	-1	0
14197195	8018	3	0	-100	0	230	101300000	1000	0	0	-1	0
14209755	8029	0	0	-100	0	230	101300000	1000	0	0	-1	0
14222315	8020	0	0	-100	0	230	101300000	1000	0	0	-1	0
14234875	8018	0	0	-100	0	230	101300000	1000	0	0	-1	0
14247435	8020	0	0	-100	0	230	101300000	1000	0	0	-1	0
14259995	8025	4	0	-100	0	230	101300000	1000	0	0	-1	0
14272555	8027	0	0	-100	0	230	101300000	1000	0	0	-1	0
14285115	8022	0	0	-100	0	230	101300000	1000	0	0	-1	0
14297675	8013	2	0	-100	0	230	101300000	1000	0	0	-1	0
14310235	8027	0	0	-100	0	230	101300000	1000	0	0	-1	0
14322795	8023	0	0	-100	0	230	101300000	1000	0	0	-1	0
14335355	8017	4	0	-100	0	230	101300000	1000	0	0	-1	0
14347915	8022	0	0	-100	0	230	101300000	1000	0	0	-1	0
14360475	8020	0	0	-100	0	230	101300000	1000	0	0	-1	0
14373035	8024	3	0	-100	0	230	101300000	1000	0	0	-1	0
14385595	8023	0	0	-100	0	230	101300000	1000	0	0	-1	0
14398155	8013	0	0	-100	0	230	101300000	1000	0	0	-1	0
14410715	8018	2	0	-100	0	230	101300000	1000	0	0	-1	0
14423275	8015	0	0	-100	0	230	101300000	1000	0	0	-1	0
14435835	8023	0	0	-100	0	230	101300000	1000	0	0	-1	0
14448395	8021	0	0	-100	0	230	101300000	1000	0	0	-1	0
14460955	8017	3	0	-100	0	230	101300000	1000	0	0	-1	0
14473515	8020	0	0	-100	0	230	101300000	1000	0	0	-1	0
14486075	8027	0	0	-100	0	230	101300000	1000	0	0	-1	0
14498635	8015	0	0	-100	0	230	101300000	1000	0	0	-1	0
14511195	8022	2	0	-100	0	230	101300000	1000	0	0	-1	0
14523755	8027	0	0	-100	0	230	101300000	1000	0	0	-1	0
14536315	8018	0	0	-100	0	230	101300000	1000	0	0	-1	0
14548875	8022	2	0	-100	0	230	101300000	1000	0	0	-1	0
14561435	8022	0	0	-100	0	230	101300000	1000	0	0	-1	0
14573995	8020	1	0	-100	0	230	101300000	1000	0	0	-1	0
14586555	8015	0	0	-100	0	230	101300000	1000	0	0	-1	0
14599115	8017	1	0	-100	0	230	101300000	1000	0	0	-1	0
14611675	8022	0	0	-100	0	230	101300000	1000	0	0	-1	0
14624235	8020	0	0	-100	0	230	101300000	1000	0	0	-1	0
14636795	8018	0	0	-100	0	230	101300000	1000	0	0	-1	0
14649355	8015	0	0	-100	0	230	101300000	1000	0	0	-1	0
14661915	8020	2	0	-100	0	230	101300000	1000	0	0	-1	0
14674475	8020	0	0	-100	0	230	101300000	1000	0	0	-1	0
14687035	8025	0	0	-100	0	230	101300000	1000	0	0	-1	0
14699595	8015	0	0	-100	0	230	101300000	1000	0	0	-1	0
14712155	8002	0	0	-100	0	230	101300000	1000	0	0	-1	0
14724715	8022	1	0	-100	0	230	101300000	1000	0	0	-1	0
14737275	8022	0	0	-100	0	230	101300000	1000	0	0	-1	0
14749835	8025	0	0	-100	0	230	101300000	1000	0	0	-1	0
14762395	8020	0	0	-100	0	230	101300000	1000	0	0	-1	0
14774955	8016	0	0	-100	0	230	101300000	1000	0	0	-1	0
14787515	8020	2	0	-100	0	230	101300000	1000	0	0	-1	0
14800075	8015	0	0	-100	0	230	101300000	1000	0	0	-1	0
14812635	8022	0	0	-100	0	230	101300000	1000	0	0	-1	0
14825195	8027	0	0	-100	0	230	101300000	1000	0	0	-1	0
14837755	8025	0	0	-100	0	230	101300000	1000	0	0	-1	0
14850315	8023	0	0	-100	0	230	101300000	1000	0	0	-1	0
14862875	8018	0	0	-100	0	230	101300000	1000	0	0	-1	0
14875435	8011	0	0	-100	0	230	101300000	1000	0	0	-1	0
14887995	8018	0	0	-100	0	230	101300000	1000	0	0	-1	0
14900555	8020	2	0	-100	0	230	101300000	1000	0	0	-1	0
14913115	8020	0	0	-100	0	230	101300000	1000	0	0	-1	0
14925675	8023	0	0	-100	0	230	101300000	1000	0	0	-1	0
14938235	8020	0	0	-100	0	230	101300000	1000	0	0	-1	0
14950795	8015	0	0	-100	0	230	101300000	1000	0	0	-1	0
14963355	8015	3	0	-100	0	230	101300000	1000	0	0	-1	0
14975915	8019	0	0	-100	0	230	101300000	1000	0	0	-1	0
14988475	8027	0	0	-100	0	230	101300000	1000	0	0	-1	0
15001035	8013	0	0	-100	0	230	101300000	1000	0	0	-1	0
15013595	8018	0	0	-100	0	230	101300000	1000	0	0	-1	0
15026155	8021	0	0	-100	0	230	101300000	1000	0	0	-1	0
15038715	8018	0	0	-100	0	230	101300000	1000	0	0	-1	0
15051275	8018	0	0	-100	0	230	101300000	1000	0	0	-1	0
15063835	8022	0	0	-100	0	230	101300000	1000	0	0	-1	0
15076395	8017	0	0	-100	0	230	101300000	1000	0	0	-1	0
15088955	8020	0	0	-100	0	230	101300000	1000	0	0	-1	0
15101515	8022	0	0	-100	0	230	101300000	1000	0	0	-1	0
15114075	8018	0	0	-100	0	230	101300000	1000	0	0	-1	0
15126635	8024	0	0	-100	0	230	101300000	1000	0	0	-1	0
15139195	8022	0	0	-100	0	230	101300000	1000	0	0	-1	0
15151755	8022	2	0	-100	0	230	101300000	1000	0	0	-1	0
15164315	8018	0	0	-100	0	230	101300000	1000	0	0	-1	0
15176875	8022	0	0	-100	0	230	101300000	1000	0	0	-1	0
15189435	8020	0	0	-100	0	230	101300000	1000	0	0	-1	0
15201995	8017	0	0	-100	0	230	101300000	1000	0	0	-1	0
15214555	8020	0	0	-100	0	230	101300000	1000	0	0	-1	0
15227115	8020	2	0	-100	0	230	101300000	1000	0	0	-1	0
15239675	8023	0	0	-100	0	230	101300000	1000	0	0	-1	0
15252235	8020	0	0	-100	0	230	101300000	1000	0	0	-1	0
15264795	8020	2	0	-100	0	230	101300000	1000	0	0	-1	0
15277355	8020	0	0	-100	0	230	101300000	1000	0	0	-1	0
15289915	8025	0	0	-100	0	230	101300000	1000	0	0	-1	0
15302475	8013	0	0	-100	0	230	101300000	1000	0	0	-1	0
15315035	8020	0	0	-100	0	230	101300000	1000	0	0	-1	0
15327595	8022	0	0	-100	0	230	101300000	1000	0	0	-1	0
15340155	8009	0	0	-100	0	230	101300000	1000	0	0	-1	0
15352715	8024	0	0	-100	0	230	101300000	1000	0	0	-1	0
15365275	8027	0	0	-100	0	230	101300000	1000	0	0	-1	0
15377835	8015	0	0	-100	0	230	101300000	1000	0	0	-1	0
15390395	8025	0	0	-100	0	230	101300000	1000	0	0	-1	0
15402955	8022	0	0	-100	0	230	101300000	1000	0	0	-1	0
15415515	8018	3	0	-100	0	230	101300000	1000	0	0	-1	0
15428075	8027	0	0	-100	0	230	101300000	1000	0	0	-1	0
15440635	8022	0	0	-100	0	230	101300000	1000	0	0	-1	0
15453195	8018	3	0	-100	0	230	101300000	1000	0	0	-1	0
15465755	8018	0	0	-100	0	230	101300000	1000	0	0	-1	0
15478315	8024	0	0	-100	0	230	101300000	1000	0	0	-1	0
15490875	8023	0	0	-100	0	230	101300000	1000	0	0	-1	0
15503435	8011	0	0	-100	0	230	101300000	1000	0	0	-1	0
15515995	8020	0	0	-100	0	230	101300000	1000	0	0	-1	0
15528555	8023	0	0	-100	0	230	101300000	1000	0	0	-1	0
15541115	8022	0	0	-100	0	230	101300000	1000	0	0	-1	0
15553675	8015	0	0	-100	0	230	101300000	1000	0	0	-1	0
15566235	8020	1	0	-100	0	230	101300000	1000	0	0	-1	0
15578795	8015	0	0	-100	0	230	101300000	1000	0	0	-1	0
15591355	8027	0	0	-100	0	230	101300000	1000	0	0	-1	0
15603915	8018	0	0	-100	0	230	101300000	1000	0	0	-1	0
15616475	8017	0	0	-100	0	230	101300000	1000	0	0	-1	0
15629035	8020	4	0	-100	0	230	101300000	1000	0	0	-1	0
15641595	8017	0	0	-100	0	230	101300000	1000	0	0	-1	0
15654155	8016	0	0	-100	0	230	101300000	1000	0	0	-1	0
15666715	8025	0	0	-100	0	230	101300000	1000	0	0	-1	0
15679275	8018	2	0	-100	0	230	101300000	1000	0	0	-1	0
15691835	8022	0	0	-100	0	230	101300000	1000	0	0	-1	0
15704395	8023	0	0	-100	0	230	101300000	1000	0	0	-1	0
15716955	8022	0	0	-100	0	230	101300000	1000	0	0	-1	0
15729515	8018	0	0	-100	0	230	101300000	1000	0	0	-1	0
15742075	8017	0	0	-100	0	230	101300000	1000	0	0	-1	0
15754635	8027	0	0	-100	0	230	101300000	1000	0	0	-1	0
15767195	8023	0	0	-100	0	230	101300000	1000	0	0	-1	0
15779755	8015	0	0	-100	0	230	101300000	1000	0	0	-1	0
15792315	8015	0	0	-100	0	230	101300000	1000	0	0	-1	0
15804875	8015	1	0	-100	0	230	101300000	1000	0	0	-1	0
15817435	8025	0	0	-100	0	230	101300000	1000	0	0	-1	0
15829995	8018	0	0	-100	0	230	101300000	1000	0	0	-1	0
15842555	8018	2	0	-100	0	230	101300000	1000	0	0	-1	0
15855115	8023	0	0	-100	0	230	101300000	1000	0	0	-1	0
15867675	8022	0	0	-100	0	230	101300000	1000	0	0	-1	0
15880235	8017	2	0	-100	0	230	101300000	1000	0	0	-1	0
15892795	8027	0	0	-100	0	230	101300000	1000	0	0	-1	0
15905355	8020	0	0	-100	0	230	101300000	1000	0	0	-1	0
15917915	8020	0	0	-100	0	230	101300000	1000	0	0	-1	0
15930475	8022	0	0	-100	0	230	101300000	1000	0	0	-1	0
15943035	8020	0	0	-100	0	230	101300000	1000	0	0	-1	0
15955595	8018	4	0	-100	0	230	101300000	1000	0	0	-1	0
15968155	8018	0	0	-100	0	230	101300000	1000	0	0	-1	0
15980715	8018	0	0	-100	0	230	101300000	1000	0	0	-1	0
15993275	8015	1	0	-100	0	230	101300000	1000	0	0	-1	0
16005835	8025	0	0	-100	0	230	101300000	1000	0	0	-1	0
16018395	8015	0	0	-100	0	230	101300000	1000	0	0	-1	0
16030955	8022	0	0	-100	0	230	101300000	1000	0	0	-1	0
16043515	8025	0	0	-100	0	230	101300000	1000	0	0	-1	0
16056075	8022	0	0	-100	0	230	101300000	1000	0	0	-1	0
16068635	8013	0	0	-100	0	230	101300000	1000	0	0	-1	0
16081195	8020	1	0	-100	0	230	101300000	1000	0	0	-1	0
16093755	8015	2	0	-100	0	230	101300000	1000	0	0	-1	0
16106315	8020	1	0	-100	0	230	101300000	1000	0	0	-1	0
16118875	8020	0	0	-100	0	230	101300000	1000	0	0	-1	0
16131435	8027	0	0	-100	0	230	101300000	1000	0	0	-1	0
16143995	8020	0	0	-100	0	230	101300000	1000	0	0	-1	0
16156555	8018	0	0	-100	0	230	101300000	1000	0	0	-1	0
16169115	8016	0	0	-100	0	230	101300000	1000	0	0	-1	0
16181675	8018	0	0	-100	0	230	101300000	1000	0	0	-1	0
16194235	8018	0	0	-100	0	230	101300000	1000	0	0	-1	0
16206795	8020	2	0	-100	0	230	101300000	1000	0	0	-1	0
16219355	8015	4	0	-100	0	230	101300000	1000	0	0	-1	0
16231915	8022	2	0	-100	0	230	101300000	1000	0	0	-1	0
16244475	8018	0	0	-100	0	230	101300000	1000	0	0	-1	0
16257035	8018	0	0	-100	0	230	101300000	1000	0	0	-1	0
16269595	8018	0	0	-100	0	230	101300000	1000	0	0	-1	0
16282155	8013	1	0	-100	0	230	101300000	1000	0	0	-1	0
16294715	8020	2	0	-100	0	230	101300000	1000	0	0	-1	0
16307275	8017	0	0	-100	0	230	101300000	1000	0	0	-1	0
16319835	8017	0	0	-100	0	230	101300000	1000	0	0	-1	0
16332395	8022	0	0	-100	0	230	101300000	1000	0	0	-1	0
16344955	8017	0	0	-100	0	230	101300000	1000	0	0	-1	0
16357515	8018	0	0	-100	0	230	101300000	1000	0	0	-1	0
16370075	8020	0	0	-100	0	230	101300000	1000	0	0	-1	0
16382635	8018	2	0	-100	0	230	101300000	1000	0	0	-1	0
16395195	8021	0	0	-100	0	230	101300000	1000	0	0	-1	0
16407755	8013	0	0	-100	0	230	101300000	1000	0	0	-1	0
16420315	8015	0	0	-100	0	230	101300000	1000	0	0	-1	0
16432875	8023	0	0	-100	0	230	101300000	1000	0	0	-1	0
16445435	8020	0	0	-100	0	230	101300000	1000	0	0	-1	0
16457995	8017	0	0	-100	0	230	101300000	1000	0	0	-1	0
16470555	8025	0	0	-100	0	230	101300000	1000	0	0	-1	0
16483115	8020	0	0	-100	0	230	101300000	1000	0	0	-1	0
16495675	8017	1	0	-100	0	230	101300000	1000	0	0	-1	0
16508235	8027	0	0	-100	0	230	101300000	1000	0	0	-1	0
16520795	8020	0	0	-100	0	230	101300000	1000	0	0	-1	0
16533355	8018	2	0	-100	0	230	101300000	1000	0	0	-1	0
16545915	8020	0	0	-100	0	230	101300000	1000	0	0	-1	0
16558475	8018	0	0	-100	0	230	101300000	1000	0	0	-1	0
16571035	8013	0	0	-100	0	230	101300000	1000	0	0	-1	0
16583595	8018	1	0	-100	0	230	101300000	1000	0	0	-1	0
16596155	8016	0	0	-100	0	230	101300000	1000	0	0	-1	0
16608715	8018	0	0	-100	0	230	101300000	1000	0	0	-1	0
16621275	8015	3	0	-100	0	230	101300000	1000	0	0	-1	0
16633835	8023	0	0	-100	0	230	101300000	1000	0	0	-1	0
16646395	8021	0	0	-100	0	230	101300000	1000	0	0	-1	0
16658955	8018	0	0	-100	0	230	101300000	1000	0	0	-1	0
16671515	8022	0	0	-100	0	230	101300000	1000	0	0	-1	0
16684075	8023	0	0	-100	0	230	101300000	1000	0	0	-1	0
16696635	8022	0	0	-100	0	230	101300000	1000	0	0	-1	0
16709195	8018	0	0	-100	0	230	101300000	1000	0	0	-1	0
16734315	8018	3	0	-100	0	230	101300000	1000	0	0	-1	0
16746875	8021	0	0	-100	0	230	101300000	1000	0	0	-1	0
16759435	8022	0	0	-100	0	230	101300000	1000	0	0	-1	0
16771995	8020	0	0	-100	0	230	101300000	1000	0	0	-1	0
16784555	8020	0	0	-100	0	230	101300000	1000	0	0	-1	0
16797115	8018	0	0	-100	0	230	101300000	1000	0	0	-1	0
16809675	8020	0	0	-100	0	230	101300000	1000	0	0	-1	0
16822235	8017	0	0	-100	0	230	101300000	1000	0	0	-1	0
16834795	8025	0	0	-100	0	230	101300000	1000	0	0	-1	0
16847355	8018	0	0	-100	0	230	101300000	1000	0	0	-1	0
16859915	8018	0	0	-100	0	230	101300000	1000	0	0	-1	0
16872475	8023	0	0	-100	0	230	101300000	1000	0	0	-1	0
16885035	8017	0	0	-100	0	230	101300000	1000	0	0	-1	0
16897595	8018	1	0	-100	0	230	101300000	1000	0	0	-1	0
16910155	8014	0	0	-100	0	230	101300000	1000	0	0	-1	0
16922715	8018	0	0	-100	0	230	101300000	1000	0	0	-1	0
16935275	8020	2	0	-100	0	230	101300000	1000	0	0	-1	0
16947835	8029	0	0	-100	0	230	101300000	1000	0	0	-1	0
16960395	8020	0	0	-100	0	230	101300000	1000	0	0	-1	0
16972955	8020	0	0	-100	0	230	101300000	1000	0	0	-1	0
16985515	8020	0	0	-100	0	230	101300000	1000	0	0	-1	0
16998075	8027	0	0	-100	0	230	101300000	1000	0	0	-1	0
17010635	8022	0	0	-100	0	230	101300000	1000	0	0	-1	0
17023195	8022	0	0	-100	0	230	101300000	1000	0	0	-1	0
17035755	8015	2	0	-100	0	230	101300000	1000	0	0	-1	0
17048315	8023	0	0	-100	0	230	101300000	1000	0	0	-1	0
17060875	8022	0	0	-100	0	230	101300000	1000	0	0	-1	0
17073435	8025	0	0	-100	0	230	101300000	1000	0	0	-1	0
17085995	8018	0	0	-100	0	230	101300000	1000	0	0	-1	0
17098555	8013	2	0	-100	0	230	101300000	1000	0	0	-1	0
17111115	8027	0	0	-100	0	230	101300000	1000	0	0	-1	0
17123675	8020	0	0	-100	0	230	101300000	1000	0	0	-1	0
17136235	8018	0	0	-100	0	230	101300000	1000	0	0	-1	0
17148795	8018	0	0	-100	0	230	101300000	1000	0	0	-1	0
17161355	8021	0	0	-100	0	230	101300000	1000	0	0	-1	0
17173915	8020	0	0	-100	0	230	101300000	1000	0	0	-1	0
17186475	8020	3	0	-100	0	230	101300000	1000	0	0	-1	0
17199035	8027	0	0	-100	0	230	101300000	1000	0	0	-1	0
17211595	8025	0	0	-100	0	230	101300000	1000	0	0	-1	0
17224155	8006	0	0	-100	0	230	101300000	1000	0	0	-1	0
17236715	8020	1	0	-100	0	230	101300000	1000	0	0	-1	0
17249275	8027	0	0	-100	0	230	101300000	1000	0	0	-1	0
17261835	8020	0	0	-100	0	230	101300000	1000	0	0	-1	0
17274395	8013	0	0	-100	0	230	101300000	1000	0	0	-1	0
17286955	8025	0	0	-100	0	230	101300000	1000	0	0	-1	0
17299515	8018	0	0	-100	0	230	101300000	1000	0	0	-1	0
17312075	8018	0	0	-100	0	230	101300000	1000	0	0	-1	0
17324635	8025	0	0	-100	0	230	101300000	1000	0	0	-1	0
17337195	8020	0	0	-100	0	230	101300000	1000	0	0	-1	0
17349755	8020	1	0	-100	0	230	101300000	1000	0	0	-1	0
17362315	8021	0	0	-100	0	230	101300000	1000	0	0	-1	0
17374875	8015	0	0	-100	0	230	101300000	1000	0	0	-1	0
17387435	8024	0	0	-100	0	230	101300000	1000	0	0	-1	0
17399995	8018	0	0	-100	0	230	101300000	1000	0	0	-1	0
17412555	8015	3	0	-100	0	230	101300000	1000	0	0	-1	0
17425115	8022	0	0	-100	0	230	101300000	1000	0	0	-1	0
17437675	8022	0	0	-100	0	230	101300000	1000	0	0	-1	0
17450235	8018	0	0	-100	0	230	101300000	1000	0	0	-1	0
17462795	8020	0	0	-100	0	230	101300000	1000	0	0	-1	0
17475355	8020	0	0	-100	0	230	101300000	1000	0	0	-1	0
17487915	8018	0	0	-100	0	230	101300000	1000	0	0	-1	0
17500475	8022	0	0	-100	0	230	101300000	1000	0	0	-1	0
17513035	8025	0	0	-100	0	230	101300000	1000	0	0	-1	0
17525595	8018	0	0	-100	0	230	101300000	1000	0	0	-1	0
17538155	8011	2	0	-100	0	230	101300000	1000	0	0	-1	0
17550715	8018	0	0	-100	0	230	101300000	1000	0	0	-1	0
17563275	8015	0	0	-100	0	230	101300000	1000	0	0	-1	0
17575835	8020	1	0	-100	0	230	101300000	1000	0	0	-1	0
17588395	8022	0	0	-100	0	230	101300000	1000	0	0	-1	0
17600955	8018	0	0	-100	0	230	101300000	1000	0	0	-1	0
17613515	8022	0	0	-100	0	230	101300000	1000	0	0	-1	0
17626075	8018	0	0	-100	0	230	101300000	1000	0	0	-1	0
17638635	8022	0	0	-100	0	230	101300000	1000	0	0	-1	0
17651195	8029	0	0	-100	0	230	101300000	1000	0	0	-1	0
17663755	8025	0	0	-100	0	230	101300000	1000	0	0	-1	0
17676315	8018	0	0	-100	0	230	101300000	1000	0	0	-1	0
17688875	8020	3	0	-100	0	230	101300000	1000	0	0	-1	0
17701435	8015	0	0	-100	0	230	101300000	1000	0	0	-1	0
17713995	8025	4	0	-100	0	230	101300000	1000	0	0	-1	0
17726555	8020	0	0	-100	0	230	101300000	1000	0	0	-1	0
17739115	8015	4	0	-100	0	230	101300000	1000	0	0	-1	0
17751675	8017	0	0	-100	0	230	101300000	1000	0	0	-1	0
17764235	8021	0	0	-100	0	230	101300000	1000	0	0	-1	0
17776795	8025	0	0	-100	0	230	101300000	1000	0	0	-1	0
17789355	8022	0	0	-100	0	230	101300000	1000	0	0	-1	0
17801915	8020	3	0	-100	0	230	101300000	1000	0	0	-1	0
17814475	8024	0	0	-100	0	230	101300000	1000	0	0	-1	0
17827035	8022	0	0	-100	0	230	101300000	1000	0	0	-1	0
17839595	8016	0	0	-100	0	230	101300000	1000	0	0	-1	0
17852155	8011	0	0	-100	0	230	101300000	1000	0	0	-1	0
17864715	8018	0	0	-100	0	230	101300000	1000	0	0	-1	0
17877275	8013	0	0	-100	0	230	101300000	1000	0	0	-1	0
17889835	8018	0	0	-100	0	230	101300000	1000	0	0	-1	0
17902395	8020	0	0	-100	0	230	101300000	1000	0	0	-1	0
17914955	8020	0	0	-100	0	230	101300000	1000	0	0	-1	0
17927515	8025	0	0	-100	0	230	101300000	1000	0	0	-1	0
17940075	8025	0	0	-100	0	230	101300000	1000	0	0	-1	0
17952635	8020	0	0	-100	0	230	101300000	1000	0	0	-1	0
17965195	8013	0	0	-100	0	230	101300000	1000	0	0	-1	0
17977755	8020	0	0	-100	0	230	101300000	1000	0	0	-1	0
17990315	8015	3	0	-100	0	230	101300000	1000	0	0	-1	0
18002875	8018	2	0	-100	0	230	101300000	1000	0	0	-1	0
18015435	8024	2	0	-100	0	230	101300000	1000	0	0	-1	0
18027995	8020	0	0	-100	0	230	101300000	1000	0	0	-1	0
18040555	8018	4	0	-100	0	230	101300000	1000	0	0	-1	0
18053115	8022	0	0	-100	0	230	101300000	1000	0	0	-1	0
18065675	8027	0	0	-100	0	230	101300000	1000	0	0	-1	0
18078235	8011	0	0	-100	0	230	101300000	1000	0	0	-1	0
18090795	8015	0	0	-100	0	230	101300000	1000	0	0	-1	0
18103355	8018	0	0	-100	0	230	101300000	1000	0	0	-1	0
18115915	8018	0	0	-100	0	230	101300000	1000	0	0	-1	0
18128475	8022	0	0	-100	0	230	101300000	1000	0	0	-1	0
18141035	8018	0	0	-100	0	230	101300000	1000	0	0	-1	0
18153595	8015	2	0	-100	0	230	101300000	1000	0	0	-1	0
18166155	8011	4	0	-100	0	230	101300000	1000	0	0	-1	0
18178715	8013	2	0	-100	0	230	101300000	1000	0	0	-1	0
18191275	8015	0	0	-100	0	230	101300000	1000	0	0	-1	0
18203835	8015	0	0	-100	0	230	101300000	1000	0	0	-1	0
18216395	8015	0	0	-100	0	230	101300000	1000	0	0	-1	0
18228955	8018	0	0	-100	0	230	101300000	1000	0	0	-1	0
18241515	8016	0	0	-100	0	230	101300000	1000	0	0	-1	0
18254075	8018	0	0	-100	0	230	101300000	1000	0	0	-1	0
18266635	8025	0	0	-100	0	230	101300000	1000	0	0	-1	0
18279195	8013	0	0	-100	0	230	101300000	1000	0	0	-1	0
18291755	8020	0	0	-100	0	230	101300000	1000	0	0	-1	0
18304315	8018	0	0	-100	0	230	101300000	1000	0	0	-1	0
18316875	8018	0	0	-100	0	230	101300000	1000	0	0	-1	0
18329435	8022	1	0	-100	0	230	101300000	1000	0	0	-1	0
18341995	8020	0	0	-100	0	230	101300000	1000	0	0	-1	0
18354555	8015	3	0	-100	0	230	101300000	1000	0	0	-1	0
18367115	8018	3	0	-100	0	230	101300000	1000	0	0	-1	0
18379675	8022	1	0	-100	0	230	101300000	1000	0	0	-1	0
18392235	8015	0	0	-100	0	230	101300000	1000	0	0	-1	0
18404795	8022	0	0	-100	0	230	101300000	1000	0	0	-1	0
18417355	8022	0	0	-100	0	230	101300000	1000	0	0	-1	0
18429915	8023	0	0	-100	0	230	101300000	1000	0	0	-1	0
18442475	8023	0	0	-100	0	230	101300000	1000	0	0	-1	0
18455035	8027	0	0	-100	0	230	101300000	1000	0	0	-1	0
18467595	8021	0	0	-100	0	230	101300000	1000	0	0	-1	0
18480155	8011	0	0	-100	0	230	101300000	1000	0	0	-1	0
18492715	8021	0	0	-100	0	230	101300000	1000	0	0	-1	0
18505275	8021	0	0	-100	0	230	101300000	1000	0	0	-1	0
18517835	8021	0	0	-100	0	230	101300000	1000	0	0	-1	0
18530395	8023	0	0	-100	0	230	101300000	1000	0	0	-1	0
18542955	8020	0	0	-100	0	230	101300000	1000	0	0	-1	0
18555515	8015	0	0	-100	0	230	101300000	1000	0	0	-1	0
18568075	8022	2	0	-100	0	230	101300000	1000	0	0	-1	0
18580635	8022	0	0	-100	0	230	101300000	1000	0	0	-1	0
18593195	8021	0	0	-100	0	230	101300000	1000	0	0	-1	0
18605755	8027	0	0	-100	0	230	101300000	1000	0	0	-1	0
18618315	8020	0	0	-100	0	230	101300000	1000	0	0	-1	0
18630875	8015	0	0	-100	0	230	101300000	1000	0	0	-1	0
18643435	8015	0	0	-100	0	230	101300000	1000	0	0	-1	0
18655995	8015	0	0	-100	0	230	101300000	1000	0	0	-1	0
18668555	8018	3	0	-100	0	230	101300000	1000	0	0	-1	0
18681115	8015	1	0	-100	0	230	101300000	1000	0	0	-1	0
18693675	8020	0	0	-100	0	230	101300000	1000	0	0	-1	0
18706235	8027	0	0	-100	0	230	101300000	1000	0	0	-1	0
18718795	8025	0	0	-100	0	230	101300000	1000	0	0	-1	0
18731355	8023	0	0	-100	0	230	101300000	1000	0	0	-1	0
18743915	8020	0	0	-100	0	230	101300000	1000	0	0	-1	0
18756475	8011	0	0	-100	0	230	101300000	1000	0	0	-1	0
18769035	8018	0	0	-100	0	230	101300000	1000	0	0	-1	0
18781595	8018	0	0	-100	0	230	101300000	1000	0	0	-1	0
18794155	8013	4	0	-100	0	230	101300000	1000	0	0	-1	0
18806715	8020	1	0	-100	0	230	101300000	1000	0	0	-1	0
18819275	8017	0	0	-100	0	230	101300000	1000	0	0	-1	0
18831835	8025	0	0	-100	0	230	101300000	1000	0	0	-1	0
18844395	8027	0	0	-100	0	230	101300000	1000	0	0	-1	0
18856955	8020	0	0	-100	0	230	101300000	1000	0	0	-1	0
18869515	8018	0	0	-100	0	230	101300000	1000	0	0	-1	0
18882075	8018	0	0	-100	0	230	101300000	1000	0	0	-1	0
18894635	8018	0	0	-100	0	230	101300000	1000	0	0	-1	0
18907195	8020	0	0	-100	0	230	101300000	1000	0	0	-1	0
18919755	8017	2	0	-100	0	230	101300000	1000	0	0	-1	0
18932315	8015	1	0	-100	0	230	101300000	1000	0	0	-1	0
18944875	8022	0	0	-100	0	230	101300000	1000	0	0	-1	0
18957435	8022	0	0	-100	0	230	101300000	1000	0	0	-1	0
18969995	8018	0	0	-100	0	230	101300000	1000	0	0	-1	0
18982555	8022	0	0	-100	0	230	101300000	1000	0	0	-1	0
18995115	8015	0	0	-100	0	230	101300000	1000	0	0	-1	0
19007675	8015	1	0	-100	0	230	101300000	1000	0	0	-1	0
19020235	8018	2	0	-100	0	230	101300000	1000	0	0	-1	0
19032795	8018	3	0	-100	0	230	101300000	1000	0	0	-1	0
19045355	8022	0	0	-100	0	230	101300000	1000	0	0	-1	0
19057915	8015	0	0	-100	0	230	101300000	1000	0	0	-1	0
19070475	8020	0	0	-100	0	230	101300000	1000	0	0	-1	0
19083035	8018	0	0	-100	0	230	101300000	1000	0	0	-1	0
19095595	8020	0	0	-100	0	230	101300000	1000	0	0	-1	0
19108155	8016	0	0	-100	0	230	101300000	1000	0	0	-1	0
19120715	8018	0	0	-100	0	230	101300000	1000	0	0	-1	0
19133275	8022	0	0	-100	0	230	101300000	1000	0	0	-1	0
19145835	8027	0	0	-100	0	230	101300000	1000	0	0	-1	0
19158395	8017	0	0	-100	0	230	101300000	1000	0	0	-1	0
19170955	8015	2	0	-100	0	230	101300000	1000	0	0	-1	0
19183515	8018	0	0	-100	0	230	101300000	1000	0	0	-1	0
19196075	8015	0	0	-100	0	230	101300000	1000	0	0	-1	0
19208635	8020	0	0	-100	0	230	101300000	1000	0	0	-1	0
19221195	8015	0	0	-100	0	230	101300000	1000	0	0	-1	0
19233755	8018	0	0	-100	0	230	101300000	1000	0	0	-1	0
19246315	8015	0	0	-100	0	230	101300000	1000	0	0	-1	0
19258875	8013	0	0	-100	0	230	101300000	1000	0	0	-1	0
19271435	8020	0	0	-100	0	230	101300000	1000	0	0	-1	0
19283995	8023	0	0	-100	0	230	101300000	1000	0	0	-1	0
19296555	8027	0	0	-100	0	230	101300000	1000	0	0	-1	0
19309115	8018	0	0	-100	0	230	101300000	1000	0	0	-1	0
19321675	8025	0	0	-100	0	230	101300000	1000	0	0	-1	0
19334235	8022	0	0	-100	0	230	101300000	1000	0	0	-1	0
19346795	8025	0	0	-100	0	230	101300000	1000	0	0	-1	0
19359355	8018	0	0	-100	0	230	101300000	1000	0	0	-1	0
19371915	8021	0	0	-100	0	230	101300000	1000	0	0	-1	0
19384475	8018	0	0	-100	0	230	101300000	1000	0	0	-1	0
19397035	8015	0	0	-100	0	230	101300000	1000	0	0	-1	0
19409595	8018	0	0	-100	0	230	101300000	1000	0	0	-1	0
19422155	8011	0	0	-100	0	230	101300000	1000	0	0	-1	0
19434715	8018	3	0	-100	0	230	101300000	1000	0	0	-1	0
19447275	8022	2	0	-100	0	230	101300000	1000	0	0	-1	0
19459835	8015	0	0	-100	0	230	101300000	1000	0	0	-1	0
19472395	8032	0	0	-100	0	230	101300000	1000	0	0	-1	0
19484955	8022	0	0	-100	0	230	101300000	1000	0	0	-1	0
19497515	8020	0	0	-100	0	230	101300000	1000	0	0	-1	0
19510075	8025	0	0	-100	0	230	101300000	1000	0	0	-1	0
19522635	8022	0	0	-100	0	230	101300000	1000	0	0	-1	0
19535195	8020	0	0	-100	0	230	101300000	1000	0	0	-1	0
19547755	8027	0	0	-100	0	230	101300000	1000	0	0	-1	0
19560315	8023	0	0	-100	0	230	101300000	1000	0	0	-1	0
19572875	8025	0	0	-100	0	230	101300000	1000	0	0	-1	0
19585435	8015	0	0	-100	0	230	101300000	1000	0	0	-1	0
19597995	8020	0	0	-100	0	230	101300000	1000	0	0	-1	0
19610555	8020	0	0	-100	0	230	101300000	1000	0	0	-1	0
19623115	8018	1	0	-100	0	230	101300000	1000	0	0	-1	0
19635675	8015	3	0	-100	0	230	101300000	1000	0	0	-1	0
19648235	8018	3	0	-100	0	230	101300000	1000	0	0	-1	0
19660795	8019	1	0	-100	0	230	101300000	1000	0	0	-1	0
19673355	8015	2	0	-100	0	230	101300000	1000	0	0	-1	0
19685915	8022	0	0	-100	0	230	101300000	1000	0	0	-1	0
19698475	8015	0	0	-100	0	230	101300000	1000	0	0	-1	0
19711035	8020	0	0	-100	0	230	101300000	1000	0	0	-1	0
19723595	8018	0	0	-100	0	230	101300000	1000	0	0	-1	0
19736155	8016	0	0	-100	0	230	101300000	1000	0	0	-1	0
19748715	8027	0	0	-100	0	230	101300000	1000	0	0	-1	0
19761275	8025	0	0	-100	0	230	101300000	1000	0	0	-1	0
19773835	8018	0	0	-100	0	230	101300000	1000	0	0	-1	0
19786395	8020	0	0	-100	0	230	101300000	1000	0	0	-1	0
19798955	8015	0	0	-100	0	230	101300000	1000	0	0	-1	0
19811515	8020	0	0	-100	0	230	101300000	1000	0	0	-1	0
19824075	8022	0	0	-100	0	230	101300000	1000	0	0	-1	0
19836635	8015	0	0	-100	0	230	101300000	1000	0	0	-1	0
19849195	8018	0	0	-100	0	230	101300000	1000	0	0	-1	0
19861755	8018	0	0	-100	0	230	101300000	1000	0	0	-1	0
19874315	8016	0	0	-100	0	230	101300000	1000	0	0	-1	0
19886875	8023	0	0	-100	0	230	101300000	1000	0	0	-1	0
19899435	8022	0	0	-100	0	230	101300000	1000	0	0	-1	0
19911995	8025	2	0	-100	0	230	101300000	1000	0	0	-1	0
19924555	8018	0	0	-100	0	230	101300000	1000	0	0	-1	0
19937115	8025	0	0	-100	0	230	101300000	1000	0	0	-1	0
19949675	8029	0	0	-100	0	230	101300000	1000	0	0	-1	0
19962235	8023	0	0	-100	0	230	101300000	1000	0	0	-1	0
19974795	8018	0	0	-100	0	230	101300000	1000	0	0	-1	0
19987355	8025	0	0	-100	0	230	101300000	1000	0	0	-1	0
19999915	8022	0	0	-100	0	230	101300000	1000	0	0	-1	0
20012475	8020	0	0	-100	0	230	101300000	1000	0	0	-1	0
20025035	8024	3	0	-100	0	230	101300000	1000	0	0	-1	0
20037595	8015	0	0	-100	0	230	101300000	1000	0	0	-1	0
20050155	8015	0	0	-100	0	230	101300000	1000	0	0	-1	0
20062715	8022	0	0	-100	0	230	101300000	1000	0	0	-1	0
20075275	8022	0	0	-100	0	230	101300000	1000	0	0	-1	0
20087835	8023	0	0	-100	0	230	101300000	1000	0	0	-1	0
20100395	8020	0	0	-100	0	230	101300000	1000	0	0	-1	0
20112955	8027	0	0	-100	0	230	101300000	1000	0	0	-1	0
20125515	8020	0	0	-100	0	230	101300000	1000	0	0	-1	0
20138075	8013	2	0	-100	0	230	101300000	1000	0	0	-1	0
20150635	8018	2	0	-100	0	230	101300000	1000	0	0	-1	0
20163195	8013	0	0	-100	0	230	101300000	1000	0	0	-1	0
20175755	8013	0	0	-100	0	230	101300000	1000	0	0	-1	0
20188315	8027	0	0	-100	0	230	101300000	1000	0	0	-1	0
20200875	8020	0	0	-100	0	230	101300000	1000	0	0	-1	0
20213435	8020	0	0	-100	0	230	101300000	1000	0	0	-1	0
20225995	8022	0	0	-100	0	230	101300000	1000	0	0	-1	0
20238555	8019	0	0	-100	0	230	101300000	1000	0	0	-1	0
20251115	8018	0	0	-100	0	230	101300000	1000	0	0	-1	0
20263675	8022	0	0	-100	0	230	101300000	1000	0	0	-1	0
20276235	8022	0	0	-100	0	230	101300000	1000	0	0	-1	0
20288795	8022	0	0	-100	0	230	101300000	1000	0	0	-1	0
20301355	8029	0	0	-100	0	230	101300000	1000	0	0	-1	0
20313915	8025	0	0	-100	0	230	101300000	1000	0	0	-1	0
20326475	8025	0	0	-100	0	230	101300000	1000	0	0	-1	0
20339035	8027	0	0	-100	0	230	101300000	1000	0	0	-1	0
20351595	8028	0	0	-100	0	230	101300000	1000	0	0	-1	0
20364155	8016	0	0	-100	0	230	101300000	1000	0	0	-1	0
20376715	8027	0	0	-100	0	230	101300000	1000	0	0	-1	0
20389275	8029	0	0	-100	0	230	101300000	1000	0	0	-1	0
20401835	8022	0	0	-100	0	230	101300000	1000	0	0	-1	0
20414395	8021	0	0	-100	0	230	101300000	1000	0	0	-1	0
20426955	8018	0	0	-100	0	230	101300000	1000	0	0	-1	0
20439515	8023	0	0	-100	0	230	101300000	1000	0	0	-1	0
20452075	8023	0	0	-100	0	230	101300000	1000	0	0	-1	0
20464635	8025	0	0	-100	0	230	101300000	1000	0	0	-1	0
20477195	8017	0	0	-100	0	230	101300000	1000	0	0	-1	0
20489755	8022	0	0	-100	0	230	101300000	1000	0	0	-1	0
20502315	8015	0	0	-100	0	230	101300000	1000	0	0	-1	0
20514875	8024	0	0	-100	0	230	101300000	1000	0	0	-1	0
20527435	8020	0	0	-100	0	230	101300000	1000	0	0	-1	0
20539995	8015	0	0	-100	0	230	101300000	1000	0	0	-1	0
20552555	8015	0	0	-100	0	230	101300000	1000	0	0	-1	0
20565115	8022	1	0	-100	0	230	101300000	1000	0	0	-1	0
20577675	8018	3	0	-100	0	230	101300000	1000	0	0	-1	0
20590235	8018	3	0	-100	0	230	101300000	1000	0	0	-1	0
20602795	8015	4	0	-100	0	230	101300000	1000	0	0	-1	0
20615355	8022	0	0	-100	0	230	101300000	1000	0	0	-1	0
20627915	8022	0	0	-100	0	230	101300000	1000	0	0	-1	0
20640475	8027	0	0	-100	0	230	101300000	1000	0	0	-1	0
20653035	8016	0	0	-100	0	230	101300000	1000	0	0	-1	0
20665595	8020	0	0	-100	0	230	101300000	1000	0	0	-1	0
20678155	8009	0	0	-100	0	230	101300000	1000	0	0	-1	0
20690715	8025	0	0	-100	0	230	101300000	1000	0	0	-1	0
20703275	8022	0	0	-100	0	230	101300000	1000	0	0	-1	0
20715835	8024	2	0	-100	0	230	101300000	1000	0	0	-1	0
20728395	8022	1	0	-100	0	230	101300000	1000	0	0	-1	0
20740955	8017	1	0	-100	0	230	101300000	1000	0	0	-1	0
20753515	8020	1	0	-100	0	230	101300000	1000	0	0	-1	0
20766075	8022	0	0	-100	0	230	101300000	1000	0	0	-1	0
20778635	8020	0	0	-100	0	230	101300000	1000	0	0	-1	0
20791195	8017	0	0	-100	0	230	101300000	1000	0	0	-1	0
20803755	8017	0	0	-100	0	230	101300000	1000	0	0	-1	0
20816315	8020	2	0	-100	0	230	101300000	1000	0	0	-1	0
20828875	8020	0	0	-100	0	230	101300000	1000	0	0	-1	0
20841435	8015	0	0	-100	0	230	101300000	1000	0	0	-1	0
20853995	8018	0	0	-100	0	230	101300000	1000	0	0	-1	0
20866555	8015	0	0	-100	0	230	101300000	1000	0	0	-1	0
20879115	8015	0	0	-100	0	230	101300000	1000	0	0	-1	0
20891675	8020	0	0	-100	0	230	101300000	1000	0	0	-1	0
20904235	8018	0	0	-100	0	230	101300000	1000	0	0	-1	0
20916795	8020	0	0	-100	0	230	101300000	1000	0	0	-1	0
20929355	8020	0	0	-100	0	230	101300000	1000	0	0	-1	0
20941915	8008	0	0	-100	0	230	101300000	1000	0	0	-1	0
20954475	8015	0	0	-100	0	230	101300000	1000	0	0	-1	0
20967035	8022	0	0	-100	0	230	101300000	1000	0	0	-1	0
20979595	8015	0	0	-100	0	230	101300000	1000	0	0	-1	0
20992155	8016	0	0	-100	0	230	101300000	1000	0	0	-1	0
21004715	8025	0	0	-100	0	230	101300000	1000	0	0	-1	0
21017275	8018	0	0	-100	0	230	101300000	1000	0	0	-1	0
21029835	8027	0	0	-100	0	230	101300000	1000	0	0	-1	0
21042395	8025	0	0	-100	0	230	101300000	1000	0	0	-1	0
21054955	8020	0	0	-100	0	230	101300000	1000	0	0	-1	0
21067515	8018	2	0	-100	0	230	101300000	1000	0	0	-1	0
21080075	8020	2	0	-100	0	230	101300000	1000	0	0	-1	0
21092635	8020	2	0	-100	0	230	101300000	1000	0	0	-1	0
21105195	8022	2	0	-100	0	230	101300000	1000	0	0	-1	0
21117755	8020	1	0	-100	0	230	101300000	1000	0	0	-1	0
21130315	8015	0	0	-100	0	230	101300000	1000	0	0	-1	0
21142875	8018	0	0	-100	0	230	101300000	1000	0	0	-1	0
21155435	8022	0	0	-100	0	230	101300000	1000	0	0	-1	0
21167995	8018	0	0	-100	0	230	101300000	1000	0	0	-1	0
21180555	8018	3	0	-100	0	230	101300000	1000	0	0	-1	0
21193115	8022	3	0	-100	0	230	101300000	1000	0	0	-1	0
21205675	8020	1	0	-100	0	230	101300000	1000	0	0	-1	0
21218235	8018	2	0	-100	0	230	101300000	1000	0	0	-1	0
21230795	8020	2	0	-100	0	230	101300000	1000	0	0	-1	0
21243355	8024	1	0	-100	0	230	101300000	1000	0	0	-1	0
21255915	8022	2	0	-100	0	230	101300000	1000	0	0	-1	0
21268475	8020	2	0	-100	0	230	101300000	1000	0	0	-1	0
21281035	8015	2	0	-100	0	230	101300000	1000	0	0	-1	0
21293595	8017	2	0	-100	0	230	101300000	1000	0	0	-1	0
21306155	8009	0	0	-100	0	230	101300000	1000	0	0	-1	0
21318715	8017	0	0	-100	0	230	101300000	1000	0	0	-1	0
21331275	8018	0	0	-100	0	230	101300000	1000	0	0	-1	0
21343835	8029	0	0	-100	0	230	101300000	1000	0	0	-1	0
21356395	8018	0	0	-100	0	230	101300000	1000	0	0	-1	0
21368955	8027	0	0	-100	0	230	101300000	1000	0	0	-1	0
21381515	8023	0	0	-100	0	230	101300000	1000	0	0	-1	0
21394075	8021	0	0	-100	0	230	101300000	1000	0	0	-1	0
21406635	8023	0	0	-100	0	230	101300000	1000	0	0	-1	0
21419195	8022	0	0	-100	0	230	101300000	1000	0	0	-1	0
21431755	8015	0	0	-100	0	230	101300000	1000	0	0	-1	0
21444315	8018	0	0	-100	0	230	101300000	1000	0	0	-1	0
21456875	8020	3	0	-100	0	230	101300000	1000	0	0	-1	0
21469435	8018	2	0	-100	0	230	101300000	1000	0	0	-1	0
21481995	8020	0	0	-100	0	230	101300000	1000	0	0	-1	0
21494555	8020	2	0	-100	0	230	101300000	1000	0	0	-1	0
21507115	8022	4	0	-100	0	230	101300000	1000	0	0	-1	0
21519675	8016	0	0	-100	0	230	101300000	1000	0	0	-1	0
21532235	8020	0	0	-100	0	230	101300000	1000	0	0	-1	0
21544795	8015	0	0	-100	0	230	101300000	1000	0	0	-1	0
21557355	8013	0	0	-100	0	230	101300000	1000	0	0	-1	0
21569915	8018	0	0	-100	0	230	101300000	1000	0	0	-1	0
21582475	8022	0	0	-100	0	230	101300000	1000	0	0	-1	0
21595035	8022	0	0	-100	0	230	101300000	1000	0	0	-1	0
21607595	8027	0	0	-100	0	230	101300000	1000	0	0	-1	0
21620155	8013	0	0	-100	0	230	101300000	1000	0	0	-1	0
21632715	8027	0	0	-100	0	230	101300000	1000	0	0	-1	0
21645275	8025	0	0	-100	0	230	101300000	1000	0	0	-1	0
21657835	8020	0	0	-100	0	230	101300000	1000	0	0	-1	0
21670395	8022	0	0	-100	0	230	101300000	1000	0	0	-1	0
21682955	8022	0	0	-100	0	230	101300000	1000	0	0	-1	0
21695515	8023	0	0	-100	0	230	101300000	1000	0	0	-1	0
21708075	8022	0	0	-100	0	230	101300000	1000	0	0	-1	0
21720635	8020	0	0	-100	0	230	101300000	1000	0	0	-1	0
21733195	8025	0	0	-100	0	230	101300000	1000	0	0	-1	0
21745755	8023	0	0	-100	0	230	101300000	1000	0	0	-1	0
21758315	8020	0	0	-100	0	230	101300000	1000	0	0	-1	0
21770875	8022	0	0	-100	0	230	101300000	1000	0	0	-1	0
21783435	8025	0	0	-100	0	230	101300000	1000	0	0	-1	0
21795995	8023	3	0	-100	0	230	101300000	1000	0	0	-1	0
21808555	8023	0	0	-100	0	230	101300000	1000	0	0	-1	0
21821115	8023	0	0	-100	0	230	101300000	1000	0	0	-1	0
21833675	8025	0	0	-100	0	230	101300000	1000	0	0	-1	0
21846235	8021	0	0	-100	0	230	101300000	1000	0	0	-1	0
21858795	8025	0	0	-100	0	230	101300000	1000	0	0	-1	0
21871355	8020	0	0	-100	0	230	101300000	1000	0	0	-1	0
21883915	8018	0	0	-100	0	230	101300000	1000	0	0	-1	0
21896475	8020	0	0	-100	0	230	101300000	1000	0	0	-1	0
21909035	8020	0	0	-100	0	230	101300000	1000	0	0	-1	0
21921595	8015	0	0	-100	0	230	101300000	1000	0	0	-1	0
21934155	8013	0	0	-100	0	230	101300000	1000	0	0	-1	0
21946715	8025	0	0	-100	0	230	101300000	1000	0	0	-1	0
21959275	8027	0	0	-100	0	230	101300000	1000	0	0	-1	0
21971835	8027	0	0	-100	0	230	101300000	1000	0	0	-1	0
21984395	8025	0	0	-100	0	230	101300000	1000	0	0	-1	0
21996955	8020	0	0	-100	0	230	101300000	1000	0	0	-1	0
22009515	8022	0	0	-100	0	230	101300000	1000	0	0	-1	0
22022075	8013	0	0	-100	0	230	101300000	1000	0	0	-1	0
22034635	8017	1	0	-100	0	230	101300000	1000	0	0	-1	0
22047195	8020	2	0	-100	0	230	101300000	1000	0	0	-1	0
22059755	8017	3	0	-100	0	230	101300000	1000	0	0	-1	0
22072315	8020	1	0	-100	0	230	101300000	1000	0	0	-1	0
22084875	8020	2	0	-100	0	230	101300000	1000	0	0	-1	0
22097435	8017	0	0	-100	0	230	101300000	1000	0	0	-1	0
22109995	8025	0	0	-100	0	230	101300000	1000	0	0	-1	0
22122555	8025	0	0	-100	0	230	101300000	1000	0	0	-1	0
22135115	8016	0	0	-100	0	230	101300000	1000	0	0	-1	0
22147675	8015	0	0	-100	0	230	101300000	1000	0	0	-1	0
22160235	8022	0	0	-100	0	230	101300000	1000	0	0	-1	0
22172795	8013	0	0	-100	0	230	101300000	1000	0	0	-1	0
22185355	8020	3	0	-100	0	230	101300000	1000	0	0	-1	0
22197915	8019	1	0	-100	0	230	101300000	1000	0	0	-1	0
22210475	8025	0	0	-100	0	230	101300000	1000	0	0	-1	0
22223035	8022	0	0	-100	0	230	101300000	1000	0	0	-1	0
22235595	8022	0	0	-100	0	230	101300000	1000	0	0	-1	0
22248155	8009	0	0	-100	0	230	101300000	1000	0	0	-1	0
22260715	8018	0	0	-100	0	230	101300000	1000	0	0	-1	0
22273275	8020	0	0	-100	0	230	101300000	1000	0	0	-1	0
22285835	8029	0	0	-100	0	230	101300000	1000	0	0	-1	0
22298395	8018	0	0	-100	0	230	101300000	1000	0	0	-1	0
22310955	8018	0	0	-100	0	230	101300000	1000	0	0	-1	0
22323515	8022	0	0	-100	0	230	101300000	1000	0	0	-1	0
22336075	8018	0	0	-100	0	230	101300000	1000	0	0	-1	0
22348635	8022	0	0	-100	0	230	101300000	1000	0	0	-1	0
22361195	8018	0	0	-100	0	230	101300000	1000	0	0	-1	0
22373755	8018	2	0	-100	0	230	101300000	1000	0	0	-1	0
22386315	8017	0	0	-100	0	230	101300000	1000	0	0	-1	0
22398875	8020	0	0	-100	0	230	101300000	1000	0	0	-1	0
22411435	8029	0	0	-100	0	230	101300000	1000	0	0	-1	0
22423995	8023	4	0	-100	0	230	101300000	1000	0	0	-1	0
22436555	8022	0	0	-100	0	230	101300000	1000	0	0	-1	0
22449115	8020	0	0	-100	0	230	101300000	1000	0	0	-1	0
22461675	8018	0	0	-100	0	230	101300000	1000	0	0	-1	0
22474235	8020	1	0	-100	0	230	101300000	1000	0	0	-1	0
22486795	8020	1	0	-100	0	230	101300000	1000	0	0	-1	0
22499355	8015	0	0	-100	0	230	101300000	1000	0	0	-1	0
22511915	8020	0	0	-100	0	230	101300000	1000	0	0	-1	0
22524475	8027	0	0	-100	0	230	101300000	1000	0	0	-1	0
22537035	8018	0	0	-100	0	230	101300000	1000	0	0	-1	0
22549595	8025	0	0	-100	0	230	101300000	1000	0	0	-1	0
22562155	8016	0	0	-100	0	230	101300000	1000	0	0	-1	0
22574715	8025	0	0	-100	0	230	101300000	1000	0	0	-1	0
22587275	8013	0	0	-100	0	230	101300000	1000	0	0	-1	0
22599835	8015	0	0	-100	0	230	101300000	1000	0	0	-1	0
22612395	8015	0	0	-100	0	230	101300000	1000	0	0	-1	0
22624955	8015	2	0	-100	0	230	101300000	1000	0	0	-1	0
22637515	8015	2	0	-100	0	230	101300000	1000	0	0	-1	0
22650075	8018	0	0	-100	0	230	101300000	1000	0	0	-1	0
22662635	8025	0	0	-100	0	230	101300000	1000	0	0	-1	0
22675195	8023	0	0	-100	0	230	101300000	1000	0	0	-1	0
22687755	8020	0	0	-100	0	230	101300000	1000	0	0	-1	0
22700315	8013	0	0	-100	0	230	101300000	1000	0	0	-1	0
22712875	8015	0	0	-100	0	230	101300000	1000	0	0	-1	0
22725435	8022	1	0	-100	0	230	101300000	1000	0	0	-1	0
22737995	8022	0	0	-100	0	230	101300000	1000	0	0	-1	0
22750555	8020	0	0	-100	0	230	101300000	1000	0	0	-1	0
22763115	8022	0	0	-100	0	230	101300000	1000	0	0	-1	0
22775675	8022	0	0	-100	0	230	101300000	1000	0	0	-1	0
22788235	8015	0	0	-100	0	230	101300000	1000	0	0	-1	0
22800795	8016	0	0	-100	0	230	101300000	1000	0	0	-1	0
22813355	8017	0	0	-100	0	230	101300000	1000	0	0	-1	0
22825915	8029	0	0	-100	0	230	101300000	1000	0	0	-1	0
22838475	8022	0	0	-100	0	230	101300000	1000	0	0	-1	0
22851035	8015	0	0	-100	0	230	101300000	1000	0	0	-1	0
22863595	8013	0	0	-100	0	230	101300000	1000	0	0	-1	0
22876155	8013	4	0	-100	0	230	101300000	1000	0	0	-1	0
22888715	8020	1	0	-100	0	230	101300000	1000	0	0	-1	0
22901275	8018	1	0	-100	0	230	101300000	1000	0	0	-1	0
22913835	8022	0	0	-100	0	230	101300000	1000	0	0	-1	0
22926395	8025	0	0	-100	0	230	101300000	1000	0	0	-1	0
22938955	8021	0	0	-100	0	230	101300000	1000	0	0	-1	0
22951515	8018	0	0	-100	0	230	101300000	1000	0	0	-1	0
22964075	8021	0	0	-100	0	230	101300000	1000	0	0	-1	0
22976635	8020	0	0	-100	0	230	101300000	1000	0	0	-1	0
22989195	8018	0	0	-100	0	230	101300000	1000	0	0	-1	0
23001755	8011	0	0	-100	0	230	101300000	1000	0	0	-1	0
23014315	8018	2	0	-100	0	230	101300000	1000	0	0	-1	0
23026875	8020	0	0	-100	0	230	101300000	1000	0	0	-1	0
23039435	8025	0	0	-100	0	230	101300000	1000	0	0	-1	0
23051995	8029	4	0	-100	0	230	101300000	1000	0	0	-1	0
23064555	8021	0	0	-100	0	230	101300000	1000	0	0	-1	0
23077115	8020	0	0	-100	0	230	101300000	1000	0	0	-1	0
23089675	8025	0	0	-100	0	230	101300000	1000	0	0	-1	0
23102235	8020	0	0	-100	0	230	101300000	1000	0	0	-1	0
23114795	8020	0	0	-100	0	230	101300000	1000	0	0	-1	0
23127355	8025	0	0	-100	0	230	101300000	1000	0	0	-1	0
23139915	8015	0	0	-100	0	230	101300000	1000	0	0	-1	0
23152475	8020	0	0	-100	0	230	101300000	1000	0	0	-1	0
23165035	8018	2	0	-100	0	230	101300000	1000	0	0	-1	0
23177595	8017	0	0	-100	0	230	101300000	1000	0	0	-1	0
23190155	8018	0	0	-100	0	230	101300000	1000	0	0	-1	0
23202715	8020	0	0	-100	0	230	101300000	1000	0	0	-1	0
23215275	8021	0	0	-100	0	230	101300000	1000	0	0	-1	0
23227835	8025	0	0	-100	0	230	101300000	1000	0	0	-1	0
23240395	8013	0	0	-100	0	230	101300000	1000	0	0	-1	0
23252955	8013	0	0	-100	0	230	101300000	1000	0	0	-1	0
23265515	8015	0	0	-100	0	230	101300000	1000	0	0	-1	0
23278075	8020	0	0	-100	0	230	101300000	1000	0	0	-1	0
23290635	8024	0	0	-100	0	230	101300000	1000	0	0	-1	0
23303195	8020	2	0	-100	0	230	101300000	1000	0	0	-1	0
23315755	8018	3	0	-100	0	230	101300000	1000	0	0	-1	0
23328315	8018	0	0	-100	0	230	101300000	1000	0	0	-1	0
23340875	8022	0	0	-100	0	230	101300000	1000	0	0	-1	0
23353435	8018	0	0	-100	0	230	101300000	1000	0	0	-1	0
23365995	8025	2	0	-100	0	230	101300000	1000	0	0	-1	0
23378555	8020	0	0	-100	0	230	101300000	1000	0	0	-1	0
23391115	8018	0	0	-100	0	230	101300000	1000	0	0	-1	0
23403675	8018	0	0	-100	0	230	101300000	1000	0	0	-1	0
23416235	8024	2	0	-100	0	230	101300000	1000	0	0	-1	0
23428795	8020	2	0	-100	0	230	101300000	1000	0	0	-1	0
23441355	8019	0	0	-100	0	230	101300000	1000	0	0	-1	0
23453915	8020	0	0	-100	0	230	101300000	1000	0	0	-1	0
23466475	8020	0	0	-100	0	230	101300000	1000	0	0	-1	0
23479035	8013	0	0	-100	0	230	101300000	1000	0	0	-1	0
23491595	8015	1	0	-100	0	230	101300000	1000	0	0	-1	0
23504155	8009	4	0	-100	0	230	101300000	1000	0	0	-1	0
23516715	8017	1	0	-100	0	230	101300000	1000	0	0	-1	0
23529275	8020	2	0	-100	0	230	101300000	1000	0	0	-1	0
23541835	8015	2	0	-100	0	230	101300000	1000	0	0	-1	0
23554395	8015	1	0	-100	0	230	101300000	1000	0	0	-1	0
23566955	8020	0	0	-100	0	230	101300000	1000	0	0	-1	0
23579515	8025	0	0	-100	0	230	101300000	1000	0	0	-1	0
23592075	8023	0	0	-100	0	230	101300000	1000	0	0	-1	0
23604635	8025	0	0	-100	0	230	101300000	1000	0	0	-1	0
23617195	8022	0	0	-100	0	230	101300000	1000	0	0	-1	0
23629755	8022	0	0	-100	0	230	101300000	1000	0	0	-1	0
23642315	8025	0	0	-100	0	230	101300000	1000	0	0	-1	0
23654875	8020	0	0	-100	0	230	101300000	1000	0	0	-1	0
23667435	8018	2	0	-100	0	230	101300000	1000	0	0	-1	0
23679995	8015	0	0	-100	0	230	101300000	1000	0	0	-1	0
23692555	8025	0	0	-100	0	230	101300000	1000	0	0	-1	0
23705115	8025	0	0	-100	0	230	101300000	1000	0	0	-1	0
23717675	8020	0	0	-100	0	230	101300000	1000	0	0	-1	0
23730235	8023	0	0	-100	0	230	101300000	1000	0	0	-1	0
23742795	8023	0	0	-100	0	230	101300000	1000	0	0	-1	0
23755355	8020	0	0	-100	0	230	101300000	1000	0	0	-1	0
23767915	8021	0	0	-100	0	230	101300000	1000	0	0	-1	0
23780475	8021	0	0	-100	0	230	101300000	1000	0	0	-1	0
23793035	8021	0	0	-100	0	230	101300000	1000	0	0	-1	0
23805595	8025	0	0	-100	0	230	101300000	1000	0	0	-1	0
23818155	8016	0	0	-100	0	230	101300000	1000	0	0	-1	0
23830715	8023	0	0	-100	0	230	101300000	1000	0	0	-1	0
23843275	8025	0	0	-100	0	230	101300000	1000	0	0	-1	0
23855835	8025	0	0	-100	0	230	101300000	1000	0	0	-1	0
23868395	8018	0	0	-100	0	230	101300000	1000	0	0	-1	0
23880955	8017	2	0	-100	0	230	101300000	1000	0	0	-1	0
23893515	8020	0	0	-100	0	230	101300000	1000	0	0	-1	0
23906075	8023	0	0	-100	0	230	101300000	1000	0	0	-1	0
23918635	8018	0	0	-100	0	230	101300000	1000	0	0	-1	0
23931195	8022	1	0	-100	0	230	101300000	1000	0	0	-1	0
23943755	8017	1	0	-100	0	230	101300000	1000	0	0	-1	0
23956315	8015	0	0	-100	0	230	101300000	1000	0	0	-1	0
23968875	8015	0	0	-100	0	230	101300000	1000	0	0	-1	0
23981435	8013	0	0	-100	0	230	101300000	1000	0	0	-1	0
23993995	8020	0	0	-100	0	230	101300000	1000	0	0	-1	0
24006555	8022	0	0	-100	0	230	101300000	1000	0	0	-1	0
24019115	8018	0	0	-100	0	230	101300000	1000	0	0	-1	0
24031675	8022	0	0	-100	0	230	101300000	1000	0	0	-1	0
24044235	8022	0	0	-100	0	230	101300000	1000	0	0	-1	0
24056795	8013	0	0	-100	0	230	101300000	1000	0	0	-1	0
24069355	8020	0	0	-100	0	230	101300000	1000	0	0	-1	0
24081915	8018	4	0	-100	0	230	101300000	1000	0	0	-1	0
24094475	8015	2	0	-100	0	230	101300000	1000	0	0	-1	0
24107035	8027	0	0	-100	0	230	101300000	1000	0	0	-1	0
24119595	8022	0	0	-100	0	230	101300000	1000	0	0	-1	0
24132155	8016	0	0	-100	0	230	101300000	1000	0	0	-1	0
24144715	8025	0	0	-100	0	230	101300000	1000	0	0	-1	0
24157275	8011	0	0	-100	0	230	101300000	1000	0	0	-1	0
24169835	8018	2	0	-100	0	230	101300000	1000	0	0	-1	0
24182395	8015	0	0	-100	0	230	101300000	1000	0	0	-1	0
24194955	8018	0	0	-100	0	230	101300000	1000	0	0	-1	0
24207515	8020	0	0	-100	0	230	101300000	1000	0	0	-1	0
24220075	8025	0	0	-100	0	230	101300000	1000	0	0	-1	0
24232635	8018	0	0	-100	0	230	101300000	1000	0	0	-1	0
24245195	8020	3	0	-100	0	230	101300000	1000	0	0	-1	0
24257755	8022	0	0	-100	0	230	101300000	1000	0	0	-1	0
24270315	8025	0	0	-100	0	230	101300000	1000	0	0	-1	0
24282875	8013	0	0	-100	0	230	101300000	1000	0	0	-1	0
24295435	8020	2	0	-100	0	230	101300000	1000	0	0	-1	0
24307995	8025	4	0	-100	0	230	101300000	1000	0	0	-1	0
24320555	8020	0	0	-100	0	230	101300000	1000	0	0	-1	0
24333115	8015	0	0	-100	0	230	101300000	1000	0	0	-1	0
24345675	8018	0	0	-100	0	230	101300000	1000	0	0	-1	0
24358235	8018	0	0	-100	0	230	101300000	1000	0	0	-1	0
24370795	8013	0	0	-100	0	230	101300000	1000	0	0	-1	0
24383355	8025	0	0	-100	0	230	101300000	1000	0	0	-1	0
24395915	8015	0	0	-100	0	230	101300000	1000	0	0	-1	0
24408475	8020	0	0	-100	0	230	101300000	1000	0	0	-1	0
24421035	8027	0	0	-100	0	230	101300000	1000	0	0	-1	0
24433595	8015	0	0	-100	0	230	101300000	1000	0	0	-1	0
24446155	8015	4	0	-100	0	230	101300000	1000	0	0	-1	0
24458715	8027	0	0	-100	0	230	101300000	1000	0	0	-1	0
24471275	8020	0	0	-100	0	230	101300000	1000	0	0	-1	0
24483835	8018	3	0	-100	0	230	101300000	1000	0	0	-1	0
24496395	8022	0	0	-100	0	230	101300000	1000	0	0	-1	0
24508955	8018	0	0	-100	0	230	101300000	1000	0	0	-1	0
24521515	8027	0	0	-100	0	230	101300000	1000	0	0	-1	0
24534075	8018	0	0	-100	0	230	101300000	1000	0	0	-1	0
24546635	8015	0	0	-100	0	230	101300000	1000	0	0	-1	0
24559195	8020	0	0	-100	0	230	101300000	1000	0	0	-1	0
24571755	8020	0	0	-100	0	230	101300000	1000	0	0	-1	0
24584315	8027	0	0	-100	0	230	101300000	1000	0	0	-1	0
24596875	8018	0	0	-100	0	230	101300000	1000	0	0	-1	0
24609435	8020	0	0	-100	0	230	101300000	1000	0	0	-1	0
24621995	8022	1	0	-100	0	230	101300000	1000	0	0	-1	0
24634555	8017	2	0	-100	0	230	101300000	1000	0	0	-1	0
24647115	8025	0	0	-100	0	230	101300000	1000	0	0	-1	0
24659675	8013	0	0	-100	0	230	101300000	1000	0	0	-1	0
24672235	8024	1	0	-100	0	230	101300000	1000	0	0	-1	0
24684795	8025	0	0	-100	0	230	101300000	1000	0	0	-1	0
24697355	8018	0	0	-100	0	230	101300000	1000	0	0	-1	0
24709915	8018	3	0	-100	0	230	101300000	1000	0	0	-1	0
24722475	8024	0	0	-100	0	230	101300000	1000	0	0	-1	0
24735035	8022	0	0	-100	0	230	101300000	1000	0	0	-1	0
24747595	8018	3	0	-100	0	230	101300000	1000	0	0	-1	0
24760155	8011	0	0	-100	0	230	101300000	1000	0	0	-1	0
24772715	8022	0	0	-100	0	230	101300000	1000	0	0	-1	0
24785275	8022	2	0	-100	0	230	101300000	1000	0	0	-1	0
24797835	8020	0	0	-100	0	230	101300000	1000	0	0	-1	0
24810395	8023	0	0	-100	0	230	101300000	1000	0	0	-1	0
24822955	8015	0	0	-100	0	230	101300000	1000	0	0	-1	0
24835515	8018	0	0	-100	0	230	101300000	1000	0	0	-1	0
24848075	8023	0	0	-100	0	230	101300000	1000	0	0	-1	0
24860635	8020	0	0	-100	0	230	101300000	1000	0	0	-1	0
24873195	8027	0	0	-100	0	230	101300000	1000	0	0	-1	0
24885755	8015	0	0	-100	0	230	101300000	1000	0	0	-1	0
24898315	8018	2	0	-100	0	230	101300000	1000	0	0	-1	0
24910875	8025	0	0	-100	0	230	101300000	1000	0	0	-1	0
24923435	8013	0	0	-100	0	230	101300000	1000	0	0	-1	0
24935995	8019	0	0	-100	0	230	101300000	1000	0	0	-1	0
24948555	8022	0	0	-100	0	230	101300000	1000	0	0	-1	0
24961115	8015	2	0	-100	0	230	101300000	1000	0	0	-1	0
24973675	8020	0	0	-100	0	230	101300000	1000	0	0	-1	0
24986235	8018	0	0	-100	0	230	101300000	1000	0	0	-1	0
24998795	8015	1	0	-100	0	230	101300000	1000	0	0	-1	0
25011355	8023	0	0	-100	0	230	101300000	1000	0	0	-1	0
25023915	8015	0	0	-100	0	230	101300000	1000	0	0	-1	0
25036475	8017	0	0	-100	0	230	101300000	1000	0	0	-1	0
25049035	8030	0	0	-100	0	230	101300000	1000	0	0	-1	0
25061595	8022	0	0	-100	0	230	101300000	1000	0	0	-1	0
25074155	8008	3	0	-100	0	230	101300000	1000	0	0	-1	0
25086715	8022	0	0	-100	0	230	101300000	1000	0	0	-1	0
25099275	8022	0	0	-100	0	230	101300000	1000	0	0	-1	0
25111835	8018	0	0	-100	0	230	101300000	1000	0	0	-1	0
25124395	8029	0	0	-100	0	230	101300000	1000	0	0	-1	0
25136955	8020	1	0	-100	0	230	101300000	1000	0	0	-1	0
25149515	8023	0	0	-100	0	230	101300000	1000	0	0	-1	0
25162075	8018	4	0	-100	0	230	101300000	1000	0	0	-1	0
25174635	8025	0	0	-100	0	230	101300000	1000	0	0	-1	0
25187195	8018	0	0	-100	0	230	101300000	1000	0	0	-1	0
25199755	8020	0	0	-100	0	230	101300000	1000	0	0	-1	0
25212315	8022	0	0	-100	0	230	101300000	1000	0	0	-1	0
25224875	8015	3	0	-100	0	230	101300000	1000	0	0	-1	0
25237435	8016	0	0	-100	0	230	101300000	1000	0	0	-1	0
25249995	8016	0	0	-100	0	230	101300000	1000	0	0	-1	0
25262555	8017	0	0	-100	0	230	101300000	1000	0	0	-1	0
25275115	8022	0	0	-100	0	230	101300000	1000	0	0	-1	0
25287675	8018	0	0	-100	0	230	101300000	1000	0	0	-1	0
25300235	8023	0	0	-100	0	230	101300000	1000	0	0	-1	0
25312795	8015	0	0	-100	0	230	101300000	1000	0	0	-1	0
25325355	8022	0	0	-100	0	230	101300000	1000	0	0	-1	0
25337915	8022	0	0	-100	0	230	101300000	1000	0	0	-1	0
25350475	8020	2	0	-100	0	230	101300000	1000	0	0	-1	0
25363035	8021	0	0	-100	0	230	101300000	1000	0	0	-1	0
25375595	8020	0	0	-100	0	230	101300000	1000	0	0	-1	0
25388155	8011	4	0	-100	0	230	101300000	1000	0	0	-1	0
25400715	8025	0	0	-100	0	230	101300000	1000	0	0	-1	0
25413275	8020	0	0	-100	0	230	101300000	1000	0	0	-1	0
25425835	8024	1	0	-100	0	230	101300000	1000	0	0	-1	0
25438395	8018	0	0	-100	0	230	101300000	1000	0	0	-1	0
25450955	8023	0	0	-100	0	230	101300000	1000	0	0	-1	0
25463515	8022	1	0	-100	0	230	101300000	1000	0	0	-1	0
25476075	8018	0	0	-100	0	230	101300000	1000	0	0	-1	0
25488635	8023	0	0	-100	0	230	101300000	1000	0	0	-1	0
25501195	8013	0	0	-100	0	230	101300000	1000	0	0	-1	0
25513755	8015	3	0	-100	0	230	101300000	1000	0	0	-1	0
25526315	8018	2	0	-100	0	230	101300000	1000	0	0	-1	0
25538875	8020	0	0	-100	0	230	101300000	1000	0	0	-1	0
25551435	8025	0	0	-100	0	230	101300000	1000	0	0	-1	0
25563995	8025	3	0	-100	0	230	101300000	1000	0	0	-1	0
25576555	8023	0	0	-100	0	230	101300000	1000	0	0	-1	0
25589115	8022	0	0	-100	0	230	101300000	1000	0	0	-1	0
25601675	8020	0	0	-100	0	230	101300000	1000	0	0	-1	0
25614235	8020	0	0	-100	0	230	101300000	1000	0	0	-1	0
25626795	8024	0	0	-100	0	230	101300000	1000	0	0	-1	0
25639355	8015	1	0	-100	0	230	101300000	1000	0	0	-1	0
25651915	8020	2	0	-100	0	230	101300000	1000	0	0	-1	0
25664475	8016	0	0	-100	0	230	101300000	1000	0	0	-1	0
25677035	8013	0	0	-100	0	230	101300000	1000	0	0	-1	0
25689595	8018	0	0	-100	0	230	101300000	1000	0	0	-1	0
25702155	8013	0	0	-100	0	230	101300000	1000	0	0	-1	0
25714715	8020	0	0	-100	0	230	101300000	1000	0	0	-1	0
25727275	8025	0	0	-100	0	230	101300000	1000	0	0	-1	0
25739835	8020	0	0	-100	0	230	101300000	1000	0	0	-1	0
25752395	8018	0	0	-100	0	230	101300000	1000	0	0	-1	0
25764955	8025	0	0	-100	0	230	101300000	1000	0	0	-1	0
25777515	8020	0	0	-100	0	230	101300000	1000	0	0	-1	0
25790075	8023	0	0	-100	0	230	101300000	1000	0	0	-1	0
25802635	8027	0	0	-100	0	230	101300000	1000	0	0	-1	0
25815195	8022	0	0	-100	0	230	101300000	1000	0	0	-1	0
25827755	8027	0	0	-100	0	230	101300000	1000	0	0	-1	0
25840315	8025	0	0	-100	0	230	101300000	1000	0	0	-1	0
25852875	8025	0	0	-100	0	230	101300000	1000	0	0	-1	0
25865435	8023	0	0	-100	0	230	101300000	1000	0	0	-1	0
25877995	8023	3	0	-100	0	230	101300000	1000	0	0	-1	0
25890555	8025	0	0	-100	0	230	101300000	1000	0	0	-1	0
25903115	8025	0	0	-100	0	230	101300000	1000	0	0	-1	0
25915675	8023	0	0	-100	0	230	101300000	1000	0	0	-1	0
25928235	8023	0	0	-100	0	230	101300000	1000	0	0	-1	0
25940795	8025	0	0	-100	0	230	101300000	1000	0	0	-1	0
25953355	8025	0	0	-100	0	230	101300000	1000	0	0	-1	0
25965915	8021	0	0	-100	0	230	101300000	1000	0	0	-1	0
25978475	8018	0	0	-100	0	230	101300000	1000	0	0	-1	0
25991035	8018	0	0	-100	0	230	101300000	1000	0	0	-1	0
26003595	8023	0	0	-100	0	230	101300000	1000	0	0	-1	0
26016155	8000	0	0	-100	0	230	101300000	1000	0	0	-1	0
26028715	8015	1	0	-100	0	230	101300000	1000	0	0	-1	0
26041275	8027	0	0	-100	0	230	101300000	1000	0	0	-1	0
26053835	8025	0	0	-100	0	230	101300000	1000	0	0	-1	0
26066395	8025	0	0	-100	0	230	101300000	1000	0	0	-1	0
26078955	8020	1	0	-100	0	230	101300000	1000	0	0	-1	0
26091515	8013	0	0	-100	0	230	101300000	1000	0	0	-1	0
26104075	8020	0	0	-100	0	230	101300000	1000	0	0	-1	0
26116635	8022	0	0	-100	0	230	101300000	1000	0	0	-1	0
26129195	8020	0	0	-100	0	230	101300000	1000	0	0	-1	0
26141755	8020	0	0	-100	0	230	101300000	1000	0	0	-1	0
26154315	8022	1	0	-100	0	230	101300000	1000	0	0	-1	0
26166875	8020	0	0	-100	0	230	101300000	1000	0	0	-1	0
26179435	8027	0	0	-100	0	230	101300000	1000	0	0	-1	0
26191995	8020	0	0	-100	0	230	101300000	1000	0	0	-1	0
26204555	8015	0	0	-100	0	230	101300000	1000	0	0	-1	0
26217115	8020	0	0	-100	0	230	101300000	1000	0	0	-1	0
26229675	8018	3	0	-100	0	230	101300000	1000	0	0	-1	0
26242235	8024	1	0	-100	0	230	101300000	1000	0	0	-1	0
26254795	8020	2	0	-100	0	230	101300000	1000	0	0	-1	0
26267355	8022	0	0	-100	0	230	101300000	1000	0	0	-1	0
26279915	8021	0	0	-100	0	230	101300000	1000	0	0	-1	0
26292475	8020	0	0	-100	0	230	101300000	1000	0	0	-1	0
26305035	8018	0	0	-100	0	230	101300000	1000	0	0	-1	0
26317595	8018	0	0	-100	0	230	101300000	1000	0	0	-1	0
26330155	8013	4	0	-100	0	230	101300000	1000	0	0	-1	0
26342715	8017	0	0	-100	0	230	101300000	1000	0	0	-1	0
26355275	8018	0	0	-100	0	230	101300000	1000	0	0	-1	0
26367835	8027	0	0	-100	0	230	101300000	1000	0	0	-1	0
26380395	8025	0	0	-100	0	230	101300000	1000	0	0	-1	0
26392955	8023	0	0	-100	0	230	101300000	1000	0	0	-1	0
26405515	8023	0	0	-100	0	230	101300000	1000	0	0	-1	0
26418075	8022	0	0	-100	0	230	101300000	1000	0	0	-1	0
26430635	8015	0	0	-100	0	230	101300000	1000	0	0	-1	0
26443195	8018	1	0	-100	0	230	101300000	1000	0	0	-1	0
26455755	8022	0	0	-100	0	230	101300000	1000	0	0	-1	0
26468315	8023	0	0	-100	0	230	101300000	1000	0	0	-1	0
26480875	8018	0	0	-100	0	230	101300000	1000	0	0	-1	0
26493435	8020	2	0	-100	0	230	101300000	1000	0	0	-1	0
26505995	8022	0	0	-100	0	230	101300000	1000	0	0	-1	0
26518555	8022	0	0	-100	0	230	101300000	1000	0	0	-1	0
26531115	8018	0	0	-100	0	230	101300000	1000	0	0	-1	0
26543675	8024	1	0	-100	0	230	101300000	1000	0	0	-1	0
26556235	8018	0	0	-100	0	230	101300000	1000	0	0	-1	0
26568795	8023	0	0	-100	0	230	101300000	1000	0	0	-1	0
26581355	8018	0	0	-100	0	230	101300000	1000	0	0	-1	0
26593915	8018	0	0	-100	0	230	101300000	1000	0	0	-1	0
26606475	8018	1	0	-100	0	230	101300000	1000	0	0	-1	0
26619035	8027	0	0	-100	0	230	101300000	1000	0	0	-1	0
26631595	8022	0	0	-100	0	230	101300000	1000	0	0	-1	0
26644155	8006	0	0	-100	0	230	101300000	1000	0	0	-1	0
26656715	8015	0	0	-100	0	230	101300000	1000	0	0	-1	0
26669275	8022	0	0	-100	0	230	101300000	1000	0	0	-1	0
26681835	8027	0	0	-100	0	230	101300000	1000	0	0	-1	0
26694395	8015	0	0	-100	0	230	101300000	1000	0	0	-1	0
26706955	8018	3	0	-100	0	230	101300000	1000	0	0	-1	0
26719515	8019	1	0	-100	0	230	101300000	1000	0	0	-1	0
26732075	8018	0	0	-100	0	230	101300000	1000	0	0	-1	0
26744635	8015	0	0	-100	0	230	101300000	1000	0	0	-1	0
26757195	8020	0	0	-100	0	230	101300000	1000	0	0	-1	0
26769755	8020	0	0	-100	0	230	101300000	1000	0	0	-1	0
26782315	8018	0	0	-100	0	230	101300000	1000	0	0	-1	0
26794875	8013	0	0	-100	0	230	101300000	1000	0	0	-1	0
26807435	8025	0	0	-100	0	230	101300000	1000	0	0	-1	0
26819995	8020	0	0	-100	0	230	101300000	1000	0	0	-1	0
26832555	8018	0	0	-100	0	230	101300000	1000	0	0	-1	0
26845115	8015	0	0	-100	0	230	101300000	1000	0	0	-1	0
26857675	8020	2	0	-100	0	230	101300000	1000	0	0	-1	0
26870235	8018	1	0	-100	0	230	101300000	1000	0	0	-1	0
26882795	8025	0	0	-100	0	230	101300000	1000	0	0	-1	0
26895355	8022	0	0	-100	0	230	101300000	1000	0	0	-1	0
26907915	8016	0	0	-100	0	230	101300000	1000	0	0	-1	0
26920475	8013	0	0	-100	0	230	101300000	1000	0	0	-1	0
26933035	8022	1	0	-100	0	230	101300000	1000	0	0	-1	0
26945595	8020	0	0	-100	0	230	101300000	1000	0	0	-1	0
26958155	8013	0	0	-100	0	230	101300000	1000	0	0	-1	0
26970715	8023	0	0	-100	0	230	101300000	1000	0	0	-1	0
26983275	8020	0	0	-100	0	230	101300000	1000	0	0	-1	0
26995835	8015	0	0	-100	0	230	101300000	1000	0	0	-1	0
27008395	8022	1	0	-100	0	230	101300000	1000	0	0	-1	0
27020955	8020	0	0	-100	0	230	101300000	1000	0	0	-1	0
27033515	8022	0	0	-100	0	230	101300000	1000	0	0	-1	0
27046075	8025	0	0	-100	0	230	101300000	1000	0	0	-1	0
