timestamp	voltage	current	windSpeed	pitchAngle	rpm	temperature	ambientPressure	humidity	accelerationX	accelerationY	accelerationZ	currentSink
7040070	8454	0	0	-100	0	230	101300000	1000	0	0	-1	0
7047523	8454	0	0	-100	0	230	101300000	1000	0	0	-1	0
7060083	8450	0	0	-100	0	230	101300000	1000	0	0	-1	0
7072643	8454	2	0	-100	0	230	101300000	1000	0	0	-1	0
7085203	8454	3	0	-100	0	230	101300000	1000	0	0	-1	0
7097763	8449	0	0	-100	0	230	101300000	1000	0	0	-1	0
7110323	8454	0	0	-100	0	230	101300000	1000	0	0	-1	0
7122883	8454	0	0	-100	0	230	101300000	1000	0	0	-1	0
7135443	8456	0	0	-100	0	230	101300000	1000	0	0	-1	0
7148004	8459	0	0	-100	0	230	101300000	1000	0	0	-1	0
7160563	8449	0	0	-100	0	230	101300000	1000	0	0	-1	0
7173123	8466	0	0	-100	0	230	101300000	1000	0	0	-1	0
7185683	8452	0	0	-100	0	230	101300000	1000	0	0	-1	0
7198243	8454	0	0	-100	0	230	101300000	1000	0	0	-1	0
7210803	8456	2	0	-100	0	230	101300000	1000	0	0	-1	0
7223363	8454	0	0	-100	0	230	101300000	1000	0	0	-1	0
7235923	8459	0	0	-100	0	230	101300000	1000	0	0	-1	0
7248483	8461	0	0	-100	0	230	101300000	1000	0	0	-1	0
7261043	8452	0	0	-100	0	230	101300000	1000	0	0	-1	0
7273603	8459	0	0	-100	0	230	101300000	1000	0	0	-1	0
7286163	8443	0	0	-100	0	230	101300000	1000	0	0	-1	0
7298723	8454	0	0	-100	0	230	101300000	1000	0	0	-1	0
7311283	8459	0	0	-100	0	230	101300000	1000	0	0	-1	0
7323843	8456	0	0	-100	0	230	101300000	1000	0	0	-1	0
7336403	8456	2	0	-100	0	230	101300000	1000	0	0	-1	0
7348963	8452	0	0	-100	0	230	101300000	1000	0	0	-1	0
7704675	8461	0	0	-100	0	230	101300000	1000	0	0	-1	0
7717235	8454	0	0	-100	0	230	101300000	1000	0	0	-1	0
7729795	8451	0	0	-100	0	230	101300000	1000	0	0	-1	0
7742355	8452	0	0	-100	0	230	101300000	1000	0	0	-1	0
7754915	8456	0	0	-100	0	230	101300000	1000	0	0	-1	0
7767475	8461	0	0	-100	0	230	101300000	1000	0	0	-1	0
7780035	8449	0	0	-100	0	230	101300000	1000	0	0	-1	0
7792595	8454	0	0	-100	0	230	101300000	1000	0	0	-1	0
7805155	8452	4	0	-100	0	230	101300000	1000	0	0	-1	0
7817715	8459	3	0	-100	0	230	101300000	1000	0	0	-1	0
7830275	8456	0	0	-100	0	230	101300000	1000	0	0	-1	0
7842835	8456	0	0	-100	0	230	101300000	1000	0	0	-1	0
7855395	8459	0	0	-100	0	230	101300000	1000	0	0	-1	0
7867955	8452	0	0	-100	0	230	101300000	1000	0	0	-1	0
7880515	8449	0	0	-100	0	230	101300000	1000	0	0	-1	0
7893075	8454	0	0	-100	0	230	101300000	1000	0	0	-1	0
7905635	8451	0	0	-100	0	230	101300000	1000	0	0	-1	0
7918195	8451	1	0	-100	0	230	101300000	1000	0	0	-1	0
7930755	8449	3	0	-100	0	230	101300000	1000	0	0	-1	0
7943315	8456	0	0	-100	0	230	101300000	1000	0	0	-1	0
7955875	8466	0	0	-100	0	230	101300000	1000	0	0	-1	0
7968435	8454	0	0	-100	0	230	101300000	1000	0	0	-1	0
7980995	8452	0	0	-100	0	230	101300000	1000	0	0	-1	0
7993555	8454	0	0	-100	0	230	101300000	1000	0	0	-1	0
8068915	8454	1	0	-100	0	230	101300000	1000	0	0	-1	0
8081475	8456	0	0	-100	0	230	101300000	1000	0	0	-1	0
8094035	8459	0	0	-100	0	230	101300000	1000	0	0	-1	0
8106595	8454	0	0	-100	0	230	101300000	1000	0	0	-1	0
8119155	8445	0	0	-100	0	230	101300000	1000	0	0	-1	0
8131715	8456	2	0	-100	0	230	101300000	1000	0	0	-1	0
8144275	8451	0	0	-100	0	230	101300000	1000	0	0	-1	0
8156835	8454	0	0	-100	0	230	101300000	1000	0	0	-1	0
8169395	8464	0	0	-100	0	230	101300000	1000	0	0	-1	0
8181955	8459	0	0	-100	0	230	101300000	1000	0	0	-1	0
8194515	8459	0	0	-100	0	230	101300000	1000	0	0	-1	0
8257315	8454	0	0	-100	0	230	101300000	1000	0	0	-1	0
8269875	8459	0	0	-100	0	230	101300000	1000	0	0	-1	0
8282435	8454	0	0	-100	0	230	101300000	1000	0	0	-1	0
8294995	8456	0	0	-100	0	230	101300000	1000	0	0	-1	0
8307555	8456	0	0	-100	0	230	101300000	1000	0	0	-1	0
8320115	8452	0	0	-100	0	230	101300000	1000	0	0	-1	0
8332675	8457	0	0	-100	0	230	101300000	1000	0	0	-1	0
8345235	8452	0	0	-100	0	230	101300000	1000	0	0	-1	0
8357795	8456	0	0	-100	0	230	101300000	1000	0	0	-1	0
8370355	8449	0	0	-100	0	230	101300000	1000	0	0	-1	0
8382915	8451	2	0	-100	0	230	101300000	1000	0	0	-1	0
8395475	8461	1	0	-100	0	230	101300000	1000	0	0	-1	0
8408035	8447	2	0	-100	0	230	101300000	1000	0	0	-1	0
8420595	8456	3	0	-100	0	230	101300000	1000	0	0	-1	0
8433155	8449	4	0	-100	0	230	101300000	1000	0	0	-1	0
8445715	8449	2	0	-100	0	230	101300000	1000	0	0	-1	0
8458275	8452	3	0	-100	0	230	101300000	1000	0	0	-1	0
8470835	8459	3	0	-100	0	230	101300000	1000	0	0	-1	0
8483395	8447	0	0	-100	0	230	101300000	1000	0	0	-1	0
8495955	8452	0	0	-100	0	230	101300000	1000	0	0	-1	0
8508515	8454	0	0	-100	0	230	101300000	1000	0	0	-1	0
8521075	8459	0	0	-100	0	230	101300000	1000	0	0	-1	0
8533635	8466	0	0	-100	0	230	101300000	1000	0	0	-1	0
8546195	8456	0	0	-100	0	230	101300000	1000	0	0	-1	0
8558755	8454	0	0	-100	0	230	101300000	1000	0	0	-1	0
8571315	8459	0	0	-100	0	230	101300000	1000	0	0	-1	0
8583875	8456	3	0	-100	0	230	101300000	1000	0	0	-1	0
8596435	8459	1	0	-100	0	230	101300000	1000	0	0	-1	0
8608995	8459	0	0	-100	0	230	101300000	1000	0	0	-1	0
8621555	8459	0	0	-100	0	230	101300000	1000	0	0	-1	0
8634115	8456	1	0	-100	0	230	101300000	1000	0	0	-1	0
8646675	8459	3	0	-100	0	230	101300000	1000	0	0	-1	0
8659235	8459	1	0	-100	0	230	101300000	1000	0	0	-1	0
8671795	8451	0	0	-100	0	230	101300000	1000	0	0	-1	0
8684355	8452	0	0	-100	0	230	101300000	1000	0	0	-1	0
8696915	8459	0	0	-100	0	230	101300000	1000	0	0	-1	0
8709475	8452	0	0	-100	0	230	101300000	1000	0	0	-1	0
8722035	8456	0	0	-100	0	230	101300000	1000	0	0	-1	0
8734595	8464	0	0	-100	0	230	101300000	1000	0	0	-1	0
8747155	8449	0	0	-100	0	230	101300000	1000	0	0	-1	0
8759715	8461	0	0	-100	0	230	101300000	1000	0	0	-1	0
8772275	8457	0	0	-100	0	230	101300000	1000	0	0	-1	0
8784835	8456	0	0	-100	0	230	101300000	1000	0	0	-1	0
8797395	8459	0	0	-100	0	230	101300000	1000	0	0	-1	0
8809955	8471	0	0	-100	0	230	101300000	1000	0	0	-1	0
8822515	8468	0	0	-100	0	230	101300000	1000	0	0	-1	0
8835075	8466	0	0	-100	0	230	101300000	1000	0	0	-1	0
8847635	8464	0	0	-100	0	230	101300000	1000	0	0	-1	0
8860195	8461	0	0	-100	0	230	101300000	1000	0	0	-1	0
8872755	8454	0	0	-100	0	230	101300000	1000	0	0	-1	0
8885315	8454	0	0	-100	0	230	101300000	1000	0	0	-1	0
8897875	8452	3	0	-100	0	230	101300000	1000	0	0	-1	0
8910435	8459	0	0	-100	0	230	101300000	1000	0	0	-1	0
8922995	8454	0	0	-100	0	230	101300000	1000	0	0	-1	0
8935555	8457	0	0	-100	0	230	101300000	1000	0	0	-1	0
8948115	8464	0	0	-100	0	230	101300000	1000	0	0	-1	0
8960675	8457	0	0	-100	0	230	101300000	1000	0	0	-1	0
8973235	8464	0	0	-100	0	230	101300000	1000	0	0	-1	0
8985795	8464	0	0	-100	0	230	101300000	1000	0	0	-1	0
8998355	8469	0	0	-100	0	230	101300000	1000	0	0	-1	0
9010915	8464	0	0	-100	0	230	101300000	1000	0	0	-1	0
9023475	8464	0	0	-100	0	230	101300000	1000	0	0	-1	0
9036035	8461	0	0	-100	0	230	101300000	1000	0	0	-1	0
9048595	8459	1	0	-100	0	230	101300000	1000	0	0	-1	0
9061155	8452	4	0	-100	0	230	101300000	1000	0	0	-1	0
9073715	8457	2	0	-100	0	230	101300000	1000	0	0	-1	0
9086275	8454	4	0	-100	0	230	101300000	1000	0	0	-1	0
9098835	8457	3	0	-100	0	230	101300000	1000	0	0	-1	0
9111395	8461	0	0	-100	0	230	101300000	1000	0	0	-1	0
9123955	8454	0	0	-100	0	230	101300000	1000	0	0	-1	0
9136515	8466	0	0	-100	0	230	101300000	1000	0	0	-1	0
9149075	8457	0	0	-100	0	230	101300000	1000	0	0	-1	0
9161635	8454	0	0	-100	0	230	101300000	1000	0	0	-1	0
9174195	8449	1	0	-100	0	230	101300000	1000	0	0	-1	0
9186755	8451	1	0	-100	0	230	101300000	1000	0	0	-1	0
9199315	8454	1	0	-100	0	230	101300000	1000	0	0	-1	0
9211875	8456	0	0	-100	0	230	101300000	1000	0	0	-1	0
9224435	8456	0	0	-100	0	230	101300000	1000	0	0	-1	0
9236995	8461	3	0	-100	0	230	101300000	1000	0	0	-1	0
9249555	8452	0	0	-100	0	230	101300000	1000	0	0	-1	0
9262115	8452	3	0	-100	0	230	101300000	1000	0	0	-1	0
9274675	8452	0	0	-100	0	230	101300000	1000	0	0	-1	0
9287235	8449	0	0	-100	0	230	101300000	1000	0	0	-1	0
9299795	8454	0	0	-100	0	230	101300000	1000	0	0	-1	0
9312355	8459	0	0	-100	0	230	101300000	1000	0	0	-1	0
9324915	8461	0	0	-100	0	230	101300000	1000	0	0	-1	0
9337475	8461	0	0	-100	0	230	101300000	1000	0	0	-1	0
9350035	8456	0	0	-100	0	230	101300000	1000	0	0	-1	0
9362595	8459	1	0	-100	0	230	101300000	1000	0	0	-1	0
9375155	8459	4	0	-100	0	230	101300000	1000	0	0	-1	0
9387715	8457	0	0	-100	0	230	101300000	1000	0	0	-1	0
9400275	8464	0	0	-100	0	230	101300000	1000	0	0	-1	0
9412835	8457	0	0	-100	0	230	101300000	1000	0	0	-1	0
9425395	8466	0	0	-100	0	230	101300000	1000	0	0	-1	0
9437955	8459	0	0	-100	0	230	101300000	1000	0	0	-1	0
9450515	8454	0	0	-100	0	230	101300000	1000	0	0	-1	0
9463075	8449	1	0	-100	0	230	101300000	1000	0	0	-1	0
9475635	8461	2	0	-100	0	230	101300000	1000	0	0	-1	0
9488195	8459	0	0	-100	0	230	101300000	1000	0	0	-1	0
9500755	8456	0	0	-100	0	230	101300000	1000	0	0	-1	0
9513315	8464	0	0	-100	0	230	101300000	1000	0	0	-1	0
9525875	8459	0	0	-100	0	230	101300000	1000	0	0	-1	0
9538435	8464	0	0	-100	0	230	101300000	1000	0	0	-1	0
9550995	8459	2	0	-100	0	230	101300000	1000	0	0	-1	0
9563555	8464	0	0	-100	0	230	101300000	1000	0	0	-1	0
9576115	8454	0	0	-100	0	230	101300000	1000	0	0	-1	0
9588675	8454	1	0	-100	0	230	101300000	1000	0	0	-1	0
9601235	8456	0	0	-100	0	230	101300000	1000	0	0	-1	0
9613795	8459	0	0	-100	0	230	101300000	1000	0	0	-1	0
9626355	8461	0	0	-100	0	230	101300000	1000	0	0	-1	0
9638915	8469	0	0	-100	0	230	101300000	1000	0	0	-1	0
9651475	8464	0	0	-100	0	230	101300000	1000	0	0	-1	0
9664035	8459	0	0	-100	0	230	101300000	1000	0	0	-1	0
9676595	8456	1	0	-100	0	230	101300000	1000	0	0	-1	0
9689155	8445	1	0	-100	0	230	101300000	1000	0	0	-1	0
9701715	8459	0	0	-100	0	230	101300000	1000	0	0	-1	0
9714275	8454	0	0	-100	0	230	101300000	1000	0	0	-1	0
9726835	8452	0	0	-100	0	230	101300000	1000	0	0	-1	0
9739395	8459	0	0	-100	0	230	101300000	1000	0	0	-1	0
9751955	8459	0	0	-100	0	230	101300000	1000	0	0	-1	0
9764515	8454	2	0	-100	0	230	101300000	1000	0	0	-1	0
9777075	8449	0	0	-100	0	230	101300000	1000	0	0	-1	0
9789635	8452	0	0	-100	0	230	101300000	1000	0	0	-1	0
9802195	8454	0	0	-100	0	230	101300000	1000	0	0	-1	0
9814755	8461	0	0	-100	0	230	101300000	1000	0	0	-1	0
9827315	8461	0	0	-100	0	230	101300000	1000	0	0	-1	0
9839875	8451	0	0	-100	0	230	101300000	1000	0	0	-1	0
9852435	8454	0	0	-100	0	230	101300000	1000	0	0	-1	0
9864995	8444	0	0	-100	0	230	101300000	1000	0	0	-1	0
9877555	8456	1	0	-100	0	230	101300000	1000	0	0	-1	0
9890115	8456	2	0	-100	0	230	101300000	1000	0	0	-1	0
9902675	8454	0	0	-100	0	230	101300000	1000	0	0	-1	0
9915235	8452	0	0	-100	0	230	101300000	1000	0	0	-1	0
9927795	8449	0	0	-100	0	230	101300000	1000	0	0	-1	0
9940355	8456	0	0	-100	0	230	101300000	1000	0	0	-1	0
9952915	8461	0	0	-100	0	230	101300000	1000	0	0	-1	0
9965475	8456	2	0	-100	0	230	101300000	1000	0	0	-1	0
9978035	8459	4	0	-100	0	230	101300000	1000	0	0	-1	0
9990595	8449	3	0	-100	0	230	101300000	1000	0	0	-1	0
10003155	8447	3	0	-100	0	230	101300000	1000	0	0	-1	0
10015715	8456	2	0	-100	0	230	101300000	1000	0	0	-1	0
10028275	8454	0	0	-100	0	230	101300000	1000	0	0	-1	0
10040835	8447	0	0	-100	0	230	101300000	1000	0	0	-1	0
10053395	8454	0	0	-100	0	230	101300000	1000	0	0	-1	0
10065955	8466	0	0	-100	0	230	101300000	1000	0	0	-1	0
10078515	8461	0	0	-100	0	230	101300000	1000	0	0	-1	0
10091075	8457	0	0	-100	0	230	101300000	1000	0	0	-1	0
10103635	8459	0	0	-100	0	230	101300000	1000	0	0	-1	0
10116195	8459	0	0	-100	0	230	101300000	1000	0	0	-1	0
10128755	8461	0	0	-100	0	230	101300000	1000	0	0	-1	0
10141315	8452	0	0	-100	0	230	101300000	1000	0	0	-1	0
10153875	8461	0	0	-100	0	230	101300000	1000	0	0	-1	0
10166435	8454	0	0	-100	0	230	101300000	1000	0	0	-1	0
10178995	8447	0	0	-100	0	230	101300000	1000	0	0	-1	0
10191555	8447	0	0	-100	0	230	101300000	1000	0	0	-1	0
10204115	8452	0	0	-100	0	230	101300000	1000	0	0	-1	0
10216675	8454	0	0	-100	0	230	101300000	1000	0	0	-1	0
10229235	8461	0	0	-100	0	230	101300000	1000	0	0	-1	0
10241795	8461	0	0	-100	0	230	101300000	1000	0	0	-1	0
10254355	8464	0	0	-100	0	230	101300000	1000	0	0	-1	0
10266915	8454	0	0	-100	0	230	101300000	1000	0	0	-1	0
10279475	8454	0	0	-100	0	230	101300000	1000	0	0	-1	0
10292035	8456	1	0	-100	0	230	101300000	1000	0	0	-1	0
10304595	8452	2	0	-100	0	230	101300000	1000	0	0	-1	0
10317155	8449	0	0	-100	0	230	101300000	1000	0	0	-1	0
10329715	8461	0	0	-100	0	230	101300000	1000	0	0	-1	0
10342275	8456	0	0	-100	0	230	101300000	1000	0	0	-1	0
10354835	8461	0	0	-100	0	230	101300000	1000	0	0	-1	0
10367395	8457	0	0	-100	0	230	101300000	1000	0	0	-1	0
10379955	8459	0	0	-100	0	230	101300000	1000	0	0	-1	0
10392515	8457	0	0	-100	0	230	101300000	1000	0	0	-1	0
10405075	8459	0	0	-100	0	230	101300000	1000	0	0	-1	0
10417635	8456	0	0	-100	0	230	101300000	1000	0	0	-1	0
10430195	8457	0	0	-100	0	230	101300000	1000	0	0	-1	0
10442755	8459	0	0	-100	0	230	101300000	1000	0	0	-1	0
10455315	8461	0	0	-100	0	230	101300000	1000	0	0	-1	0
10467875	8461	0	0	-100	0	230	101300000	1000	0	0	-1	0
10480435	8454	0	0	-100	0	230	101300000	1000	0	0	-1	0
10492995	8461	0	0	-100	0	230	101300000	1000	0	0	-1	0
10505555	8461	0	0	-100	0	230	101300000	1000	0	0	-1	0
10518115	8459	0	0	-100	0	230	101300000	1000	0	0	-1	0
10530675	8461	0	0	-100	0	230	101300000	1000	0	0	-1	0
10543235	8452	0	0	-100	0	230	101300000	1000	0	0	-1	0
10555795	8459	0	0	-100	0	230	101300000	1000	0	0	-1	0
10568355	8466	0	0	-100	0	230	101300000	1000	0	0	-1	0
10580915	8454	2	0	-100	0	230	101300000	1000	0	0	-1	0
10593475	8464	1	0	-100	0	230	101300000	1000	0	0	-1	0
10606035	8459	3	0	-100	0	230	101300000	1000	0	0	-1	0
10618595	8459	2	0	-100	0	230	101300000	1000	0	0	-1	0
10631155	8449	4	0	-100	0	230	101300000	1000	0	0	-1	0
10643715	8461	0	0	-100	0	230	101300000	1000	0	0	-1	0
10656275	8461	0	0	-100	0	230	101300000	1000	0	0	-1	0
10668835	8461	0	0	-100	0	230	101300000	1000	0	0	-1	0
10681395	8459	0	0	-100	0	230	101300000	1000	0	0	-1	0
10693955	8461	0	0	-100	0	230	101300000	1000	0	0	-1	0
10706515	8457	0	0	-100	0	230	101300000	1000	0	0	-1	0
10719075	8454	0	0	-100	0	230	101300000	1000	0	0	-1	0
10731635	8459	0	0	-100	0	230	101300000	1000	0	0	-1	0
10744195	8457	0	0	-100	0	230	101300000	1000	0	0	-1	0
10756755	8452	0	0	-100	0	230	101300000	1000	0	0	-1	0
10769315	8452	0	0	-100	0	230	101300000	1000	0	0	-1	0
10781875	8454	0	0	-100	0	230	101300000	1000	0	0	-1	0
10794435	8452	0	0	-100	0	230	101300000	1000	0	0	-1	0
10806995	8452	0	0	-100	0	230	101300000	1000	0	0	-1	0
10819555	8454	0	0	-100	0	230	101300000	1000	0	0	-1	0
10832115	8459	3	0	-100	0	230	101300000	1000	0	0	-1	0
10844675	8454	3	0	-100	0	230	101300000	1000	0	0	-1	0
10857235	8452	2	0	-100	0	230	101300000	1000	0	0	-1	0
10869795	8456	1	0	-100	0	230	101300000	1000	0	0	-1	0
10882355	8456	1	0	-100	0	230	101300000	1000	0	0	-1	0
10894915	8459	2	0	-100	0	230	101300000	1000	0	0	-1	0
10907475	8452	2	0	-100	0	230	101300000	1000	0	0	-1	0
10920035	8454	2	0	-100	0	230	101300000	1000	0	0	-1	0
10932595	8461	1	0	-100	0	230	101300000	1000	0	0	-1	0
10945155	8442	3	0	-100	0	230	101300000	1000	0	0	-1	0
10957715	8456	0	0	-100	0	230	101300000	1000	0	0	-1	0
10970275	8459	0	0	-100	0	230	101300000	1000	0	0	-1	0
10982835	8464	0	0	-100	0	230	101300000	1000	0	0	-1	0
10995395	8452	0	0	-100	0	230	101300000	1000	0	0	-1	0
11007955	8447	3	0	-100	0	230	101300000	1000	0	0	-1	0
11020515	8449	2	0	-100	0	230	101300000	1000	0	0	-1	0
11033075	8456	0	0	-100	0	230	101300000	1000	0	0	-1	0
11045635	8457	0	0	-100	0	230	101300000	1000	0	0	-1	0
11058195	8461	0	0	-100	0	230	101300000	1000	0	0	-1	0
11070755	8454	0	0	-100	0	230	101300000	1000	0	0	-1	0
11083315	8459	3	0	-100	0	230	101300000	1000	0	0	-1	0
11095875	8459	0	0	-100	0	230	101300000	1000	0	0	-1	0
11108435	8464	0	0	-100	0	230	101300000	1000	0	0	-1	0
11120995	8461	0	0	-100	0	230	101300000	1000	0	0	-1	0
11133555	8450	0	0	-100	0	230	101300000	1000	0	0	-1	0
11146115	8459	1	0	-100	0	230	101300000	1000	0	0	-1	0
11158675	8447	0	0	-100	0	230	101300000	1000	0	0	-1	0
11171235	8457	0	0	-100	0	230	101300000	1000	0	0	-1	0
11183795	8466	0	0	-100	0	230	101300000	1000	0	0	-1	0
11196355	8461	0	0	-100	0	230	101300000	1000	0	0	-1	0
11208915	8461	0	0	-100	0	230	101300000	1000	0	0	-1	0
11221475	8454	0	0	-100	0	230	101300000	1000	0	0	-1	0
11234035	8461	0	0	-100	0	230	101300000	1000	0	0	-1	0
11246595	8468	0	0	-100	0	230	101300000	1000	0	0	-1	0
11259155	8452	0	0	-100	0	230	101300000	1000	0	0	-1	0
11271715	8454	0	0	-100	0	230	101300000	1000	0	0	-1	0
11284275	8461	0	0	-100	0	230	101300000	1000	0	0	-1	0
11296835	8454	0	0	-100	0	230	101300000	1000	0	0	-1	0
11309395	8457	0	0	-100	0	230	101300000	1000	0	0	-1	0
11321955	8452	0	0	-100	0	230	101300000	1000	0	0	-1	0
11334515	8452	3	0	-100	0	230	101300000	1000	0	0	-1	0
11347075	8447	2	0	-100	0	230	101300000	1000	0	0	-1	0
11359635	8449	0	0	-100	0	230	101300000	1000	0	0	-1	0
11372195	8454	0	0	-100	0	230	101300000	1000	0	0	-1	0
11384755	8457	0	0	-100	0	230	101300000	1000	0	0	-1	0
11397315	8456	0	0	-100	0	230	101300000	1000	0	0	-1	0
11409875	8454	0	0	-100	0	230	101300000	1000	0	0	-1	0
11422435	8449	0	0	-100	0	230	101300000	1000	0	0	-1	0
11434995	8456	0	0	-100	0	230	101300000	1000	0	0	-1	0
11447555	8452	0	0	-100	0	230	101300000	1000	0	0	-1	0
11460115	8459	0	0	-100	0	230	101300000	1000	0	0	-1	0
11472675	8459	0	0	-100	0	230	101300000	1000	0	0	-1	0
11485235	8461	0	0	-100	0	230	101300000	1000	0	0	-1	0
11497795	8464	0	0	-100	0	230	101300000	1000	0	0	-1	0
11510355	8457	0	0	-100	0	230	101300000	1000	0	0	-1	0
11522915	8459	0	0	-100	0	230	101300000	1000	0	0	-1	0
11535475	8459	0	0	-100	0	230	101300000	1000	0	0	-1	0
11548035	8452	0	0	-100	0	230	101300000	1000	0	0	-1	0
11560595	8449	0	0	-100	0	230	101300000	1000	0	0	-1	0
11573155	8447	1	0	-100	0	230	101300000	1000	0	0	-1	0
11585715	8447	3	0	-100	0	230	101300000	1000	0	0	-1	0
11598275	8454	1	0	-100	0	230	101300000	1000	0	0	-1	0
11610835	8452	0	0	-100	0	230	101300000	1000	0	0	-1	0
11623395	8454	0	0	-100	0	230	101300000	1000	0	0	-1	0
11635955	8449	0	0	-100	0	230	101300000	1000	0	0	-1	0
11648515	8456	0	0	-100	0	230	101300000	1000	0	0	-1	0
11661075	8452	0	0	-100	0	230	101300000	1000	0	0	-1	0
11673635	8459	0	0	-100	0	230	101300000	1000	0	0	-1	0
11686195	8449	0	0	-100	0	230	101300000	1000	0	0	-1	0
11698755	8447	1	0	-100	0	230	101300000	1000	0	0	-1	0
11711315	8451	2	0	-100	0	230	101300000	1000	0	0	-1	0
11723875	8442	0	0	-100	0	230	101300000	1000	0	0	-1	0
11736435	8454	0	0	-100	0	230	101300000	1000	0	0	-1	0
11748995	8454	0	0	-100	0	230	101300000	1000	0	0	-1	0
11761555	8452	0	0	-100	0	230	101300000	1000	0	0	-1	0
11774115	8459	0	0	-100	0	230	101300000	1000	0	0	-1	0
11786675	8456	0	0	-100	0	230	101300000	1000	0	0	-1	0
11799235	8452	0	0	-100	0	230	101300000	1000	0	0	-1	0
11811795	8464	0	0	-100	0	230	101300000	1000	0	0	-1	0
11824355	8451	0	0	-100	0	230	101300000	1000	0	0	-1	0
11836915	8447	2	0	-100	0	230	101300000	1000	0	0	-1	0
11849475	8447	0	0	-100	0	230	101300000	1000	0	0	-1	0
11862035	8449	0	0	-100	0	230	101300000	1000	0	0	-1	0
11874595	8457	0	0	-100	0	230	101300000	1000	0	0	-1	0
11887155	8457	0	0	-100	0	230	101300000	1000	0	0	-1	0
11899715	8454	0	0	-100	0	230	101300000	1000	0	0	-1	0
11912275	8454	0	0	-100	0	230	101300000	1000	0	0	-1	0
11924835	8454	0	0	-100	0	230	101300000	1000	0	0	-1	0
11937395	8449	0	0	-100	0	230	101300000	1000	0	0	-1	0
11949955	8454	0	0	-100	0	230	101300000	1000	0	0	-1	0
11962515	8459	0	0	-100	0	230	101300000	1000	0	0	-1	0
11975075	8468	0	0	-100	0	230	101300000	1000	0	0	-1	0
11987635	8454	0	0	-100	0	230	101300000	1000	0	0	-1	0
12000195	8452	0	0	-100	0	230	101300000	1000	0	0	-1	0
12012755	8461	0	0	-100	0	230	101300000	1000	0	0	-1	0
12025315	8451	0	0	-100	0	230	101300000	1000	0	0	-1	0
12037875	8454	0	0	-100	0	230	101300000	1000	0	0	-1	0
12050435	8456	1	0	-100	0	230	101300000	1000	0	0	-1	0
12062995	8451	0	0	-100	0	230	101300000	1000	0	0	-1	0
12075555	8454	3	0	-100	0	230	101300000	1000	0	0	-1	0
12088115	8459	1	0	-100	0	230	101300000	1000	0	0	-1	0
12100675	8454	2	0	-100	0	230	101300000	1000	0	0	-1	0
12113235	8454	3	0	-100	0	230	101300000	1000	0	0	-1	0
12125795	8456	0	0	-100	0	230	101300000	1000	0	0	-1	0
12138355	8452	0	0	-100	0	230	101300000	1000	0	0	-1	0
12150915	8452	0	0	-100	0	230	101300000	1000	0	0	-1	0
12163475	8444	0	0	-100	0	230	101300000	1000	0	0	-1	0
12176035	8449	0	0	-100	0	230	101300000	1000	0	0	-1	0
12188595	8449	0	0	-100	0	230	101300000	1000	0	0	-1	0
12201155	8440	0	0	-100	0	230	101300000	1000	0	0	-1	0
12213715	8452	0	0	-100	0	230	101300000	1000	0	0	-1	0
12226275	8456	0	0	-100	0	230	101300000	1000	0	0	-1	0
12238835	8449	0	0	-100	0	230	101300000	1000	0	0	-1	0
12251395	8459	0	0	-100	0	230	101300000	1000	0	0	-1	0
12263955	8457	0	0	-100	0	230	101300000	1000	0	0	-1	0
12276515	8454	0	0	-100	0	230	101300000	1000	0	0	-1	0
12289075	8456	0	0	-100	0	230	101300000	1000	0	0	-1	0
12301635	8449	0	0	-100	0	230	101300000	1000	0	0	-1	0
12314195	8449	3	0	-100	0	230	101300000	1000	0	0	-1	0
12326755	8451	3	0	-100	0	230	101300000	1000	0	0	-1	0
12339315	8447	0	0	-100	0	230	101300000	1000	0	0	-1	0
12351875	8451	0	0	-100	0	230	101300000	1000	0	0	-1	0
12364435	8452	0	0	-100	0	230	101300000	1000	0	0	-1	0
12376995	8449	0	0	-100	0	230	101300000	1000	0	0	-1	0
12389555	8444	0	0	-100	0	230	101300000	1000	0	0	-1	0
12402115	8456	0	0	-100	0	230	101300000	1000	0	0	-1	0
12414675	8454	0	0	-100	0	230	101300000	1000	0	0	-1	0
12427235	8454	0	0	-100	0	230	101300000	1000	0	0	-1	0
12439795	8451	1	0	-100	0	230	101300000	1000	0	0	-1	0
12452355	8452	0	0	-100	0	230	101300000	1000	0	0	-1	0
12464915	8459	0	0	-100	0	230	101300000	1000	0	0	-1	0
12477475	8454	0	0	-100	0	230	101300000	1000	0	0	-1	0
12490035	8445	0	0	-100	0	230	101300000	1000	0	0	-1	0
12502595	8447	0	0	-100	0	230	101300000	1000	0	0	-1	0
12515155	8444	4	0	-100	0	230	101300000	1000	0	0	-1	0
12527715	8452	0	0	-100	0	230	101300000	1000	0	0	-1	0
12540275	8454	0	0	-100	0	230	101300000	1000	0	0	-1	0
12552835	8457	0	0	-100	0	230	101300000	1000	0	0	-1	0
12565395	8454	0	0	-100	0	230	101300000	1000	0	0	-1	0
12577955	8452	0	0	-100	0	230	101300000	1000	0	0	-1	0
12590515	8454	0	0	-100	0	230	101300000	1000	0	0	-1	0
12603075	8449	3	0	-100	0	230	101300000	1000	0	0	-1	0
12615635	8454	1	0	-100	0	230	101300000	1000	0	0	-1	0
12628195	8464	0	0	-100	0	230	101300000	1000	0	0	-1	0
12640755	8454	0	0	-100	0	230	101300000	1000	0	0	-1	0
12653315	8452	0	0	-100	0	230	101300000	1000	0	0	-1	0
12665875	8454	0	0	-100	0	230	101300000	1000	0	0	-1	0
12678435	8454	0	0	-100	0	230	101300000	1000	0	0	-1	0
12690995	8459	0	0	-100	0	230	101300000	1000	0	0	-1	0
12703555	8459	0	0	-100	0	230	101300000	1000	0	0	-1	0
12716115	8459	0	0	-100	0	230	101300000	1000	0	0	-1	0
12728675	8451	0	0	-100	0	230	101300000	1000	0	0	-1	0
12741235	8447	0	0	-100	0	230	101300000	1000	0	0	-1	0
12753795	8454	2	0	-100	0	230	101300000	1000	0	0	-1	0
12766355	8454	2	0	-100	0	230	101300000	1000	0	0	-1	0
12778915	8459	0	0	-100	0	230	101300000	1000	0	0	-1	0
12791475	8459	0	0	-100	0	230	101300000	1000	0	0	-1	0
12804035	8459	0	0	-100	0	230	101300000	1000	0	0	-1	0
12816595	8464	0	0	-100	0	230	101300000	1000	0	0	-1	0
12829155	8452	0	0	-100	0	230	101300000	1000	0	0	-1	0
12841715	8456	0	0	-100	0	230	101300000	1000	0	0	-1	0
12854275	8459	1	0	-100	0	230	101300000	1000	0	0	-1	0
12866835	8464	0	0	-100	0	230	101300000	1000	0	0	-1	0
12879395	8456	0	0	-100	0	230	101300000	1000	0	0	-1	0
12891955	8461	0	0	-100	0	230	101300000	1000	0	0	-1	0
12904515	8447	0	0	-100	0	230	101300000	1000	0	0	-1	0
12917075	8454	3	0	-100	0	230	101300000	1000	0	0	-1	0
12929635	8457	0	0	-100	0	230	101300000	1000	0	0	-1	0
12942195	8447	0	0	-100	0	230	101300000	1000	0	0	-1	0
12954755	8454	2	0	-100	0	230	101300000	1000	0	0	-1	0
12967315	8454	0	0	-100	0	230	101300000	1000	0	0	-1	0
12979875	8449	0	0	-100	0	230	101300000	1000	0	0	-1	0
12992435	8447	0	0	-100	0	230	101300000	1000	0	0	-1	0
13004995	8454	0	0	-100	0	230	101300000	1000	0	0	-1	0
13017555	8452	0	0	-100	0	230	101300000	1000	0	0	-1	0
13030115	8459	0	0	-100	0	230	101300000	1000	0	0	-1	0
13042675	8454	2	0	-100	0	230	101300000	1000	0	0	-1	0
13055235	8456	0	0	-100	0	230	101300000	1000	0	0	-1	0
13067795	8459	0	0	-100	0	230	101300000	1000	0	0	-1	0
13080355	8449	0	0	-100	0	230	101300000	1000	0	0	-1	0
13092915	8456	1	0	-100	0	230	101300000	1000	0	0	-1	0
13105475	8459	0	0	-100	0	230	101300000	1000	0	0	-1	0
13118035	8452	0	0	-100	0	230	101300000	1000	0	0	-1	0
13130595	8449	0	0	-100	0	230	101300000	1000	0	0	-1	0
13143155	8440	1	0	-100	0	230	101300000	1000	0	0	-1	0
13155715	8456	0	0	-100	0	230	101300000	1000	0	0	-1	0
13168275	8452	3	0	-100	0	230	101300000	1000	0	0	-1	0
13180835	8459	0	0	-100	0	230	101300000	1000	0	0	-1	0
13193395	8454	0	0	-100	0	230	101300000	1000	0	0	-1	0
13205955	8449	2	0	-100	0	230	101300000	1000	0	0	-1	0
13218515	8459	0	0	-100	0	230	101300000	1000	0	0	-1	0
13231075	8454	0	0	-100	0	230	101300000	1000	0	0	-1	0
13243635	8459	1	0	-100	0	230	101300000	1000	0	0	-1	0
13256195	8461	0	0	-100	0	230	101300000	1000	0	0	-1	0
13268755	8454	0	0	-100	0	230	101300000	1000	0	0	-1	0
13281315	8454	0	0	-100	0	230	101300000	1000	0	0	-1	0
13293875	8457	0	0	-100	0	230	101300000	1000	0	0	-1	0
13306435	8447	0	0	-100	0	230	101300000	1000	0	0	-1	0
13318995	8456	3	0	-100	0	230	101300000	1000	0	0	-1	0
13331555	8456	0	0	-100	0	230	101300000	1000	0	0	-1	0
13344115	8451	3	0	-100	0	230	101300000	1000	0	0	-1	0
13356675	8461	0	0	-100	0	230	101300000	1000	0	0	-1	0
13369235	8454	0	0	-100	0	230	101300000	1000	0	0	-1	0
13381795	8459	1	0	-100	0	230	101300000	1000	0	0	-1	0
13394355	8459	0	0	-100	0	230	101300000	1000	0	0	-1	0
13406915	8461	0	0	-100	0	230	101300000	1000	0	0	-1	0
13419475	8454	0	0	-100	0	230	101300000	1000	0	0	-1	0
13432035	8452	0	0	-100	0	230	101300000	1000	0	0	-1	0
13444595	8463	0	0	-100	0	230	101300000	1000	0	0	-1	0
13457155	8447	0	0	-100	0	230	101300000	1000	0	0	-1	0
13469715	8456	1	0	-100	0	230	101300000	1000	0	0	-1	0
13482275	8461	0	0	-100	0	230	101300000	1000	0	0	-1	0
13494835	8459	0	0	-100	0	230	101300000	1000	0	0	-1	0
13507395	8456	0	0	-100	0	230	101300000	1000	0	0	-1	0
13519955	8459	0	0	-100	0	230	101300000	1000	0	0	-1	0
13532515	8457	0	0	-100	0	230	101300000	1000	0	0	-1	0
13545075	8461	0	0	-100	0	230	101300000	1000	0	0	-1	0
13557635	8459	0	0	-100	0	230	101300000	1000	0	0	-1	0
13570195	8459	2	0	-100	0	230	101300000	1000	0	0	-1	0
13582755	8468	0	0	-100	0	230	101300000	1000	0	0	-1	0
13595315	8452	0	0	-100	0	230	101300000	1000	0	0	-1	0
13607875	8454	0	0	-100	0	230	101300000	1000	0	0	-1	0
13620435	8454	0	0	-100	0	230	101300000	1000	0	0	-1	0
13632995	8454	0	0	-100	0	230	101300000	1000	0	0	-1	0
13645555	8451	0	0	-100	0	230	101300000	1000	0	0	-1	0
13658115	8457	0	0	-100	0	230	101300000	1000	0	0	-1	0
13670675	8447	0	0	-100	0	230	101300000	1000	0	0	-1	0
13683235	8454	1	0	-100	0	230	101300000	1000	0	0	-1	0
13695795	8457	0	0	-100	0	230	101300000	1000	0	0	-1	0
13708355	8449	0	0	-100	0	230	101300000	1000	0	0	-1	0
13720915	8452	0	0	-100	0	230	101300000	1000	0	0	-1	0
13733475	8454	0	0	-100	0	230	101300000	1000	0	0	-1	0
13746035	8449	0	0	-100	0	230	101300000	1000	0	0	-1	0
13758595	8452	0	0	-100	0	230	101300000	1000	0	0	-1	0
13771155	8447	4	0	-100	0	230	101300000	1000	0	0	-1	0
13783715	8456	0	0	-100	0	230	101300000	1000	0	0	-1	0
13796275	8456	0	0	-100	0	230	101300000	1000	0	0	-1	0
13808835	8454	0	0	-100	0	230	101300000	1000	0	0	-1	0
13821395	8454	0	0	-100	0	230	101300000	1000	0	0	-1	0
13833955	8456	0	0	-100	0	230	101300000	1000	0	0	-1	0
13846515	8449	0	0	-100	0	230	101300000	1000	0	0	-1	0
13859075	8454	0	0	-100	0	230	101300000	1000	0	0	-1	0
13871635	8459	0	0	-100	0	230	101300000	1000	0	0	-1	0
13884195	8449	0	0	-100	0	230	101300000	1000	0	0	-1	0
13896755	8457	0	0	-100	0	230	101300000	1000	0	0	-1	0
13909315	8449	0	0	-100	0	230	101300000	1000	0	0	-1	0
13921875	8459	0	0	-100	0	230	101300000	1000	0	0	-1	0
13934435	8459	0	0	-100	0	230	101300000	1000	0	0	-1	0
13946995	8459	0	0	-100	0	230	101300000	1000	0	0	-1	0
13959555	8456	0	0	-100	0	230	101300000	1000	0	0	-1	0
13972115	8456	0	0	-100	0	230	101300000	1000	0	0	-1	0
13984675	8454	1	0	-100	0	230	101300000	1000	0	0	-1	0
13997235	8464	0	0	-100	0	230	101300000	1000	0	0	-1	0
14009795	8454	0	0	-100	0	230	101300000	1000	0	0	-1	0
14022355	8456	0	0	-100	0	230	101300000	1000	0	0	-1	0
14034915	8454	0	0	-100	0	230	101300000	1000	0	0	-1	0
14047475	8452	3	0	-100	0	230	101300000	1000	0	0	-1	0
14060035	8459	0	0	-100	0	230	101300000	1000	0	0	-1	0
14072595	8452	0	0	-100	0	230	101300000	1000	0	0	-1	0
14085155	8435	3	0	-100	0	230	101300000	1000	0	0	-1	0
14097715	8459	0	0	-100	0	230	101300000	1000	0	0	-1	0
14110275	8454	1	0	-100	0	230	101300000	1000	0	0	-1	0
14122835	8456	0	0	-100	0	230	101300000	1000	0	0	-1	0
14135395	8456	0	0	-100	0	230	101300000	1000	0	0	-1	0
14147955	8454	2	0	-100	0	230	101300000	1000	0	0	-1	0
14160515	8456	0	0	-100	0	230	101300000	1000	0	0	-1	0
14173075	8459	0	0	-100	0	230	101300000	1000	0	0	-1	0
14185635	8449	0	0	-100	0	230	101300000	1000	0	0	-1	0
14198195	8447	0	0	-100	0	230	101300000	1000	0	0	-1	0
14210755	8459	0	0	-100	0	230	101300000	1000	0	0	-1	0
14223315	8454	0	0	-100	0	230	101300000	1000	0	0	-1	0
14235875	8459	0	0	-100	0	230	101300000	1000	0	0	-1	0
14248435	8459	0	0	-100	0	230	101300000	1000	0	0	-1	0
14260995	8454	0	0	-100	0	230	101300000	1000	0	0	-1	0
14273555	8452	0	0	-100	0	230	101300000	1000	0	0	-1	0
14286115	8454	1	0	-100	0	230	101300000	1000	0	0	-1	0
14298675	8451	0	0	-100	0	230	101300000	1000	0	0	-1	0
14311235	8454	0	0	-100	0	230	101300000	1000	0	0	-1	0
14323795	8461	0	0	-100	0	230	101300000	1000	0	0	-1	0
14336355	8459	0	0	-100	0	230	101300000	1000	0	0	-1	0
14348915	8456	0	0	-100	0	230	101300000	1000	0	0	-1	0
14361475	8456	0	0	-100	0	230	101300000	1000	0	0	-1	0
14374035	8452	0	0	-100	0	230	101300000	1000	0	0	-1	0
14386595	8459	2	0	-100	0	230	101300000	1000	0	0	-1	0
14399155	8444	1	0	-100	0	230	101300000	1000	0	0	-1	0
14411715	8464	0	0	-100	0	230	101300000	1000	0	0	-1	0
14424275	8459	0	0	-100	0	230	101300000	1000	0	0	-1	0
14436835	8459	0	0	-100	0	230	101300000	1000	0	0	-1	0
14449395	8461	0	0	-100	0	230	101300000	1000	0	0	-1	0
14461955	8456	0	0	-100	0	230	101300000	1000	0	0	-1	0
14474515	8452	0	0	-100	0	230	101300000	1000	0	0	-1	0
14487075	8454	0	0	-100	0	230	101300000	1000	0	0	-1	0
14499635	8454	4	0	-100	0	230	101300000	1000	0	0	-1	0
14512195	8459	1	0	-100	0	230	101300000	1000	0	0	-1	0
14524755	8454	3	0	-100	0	230	101300000	1000	0	0	-1	0
14537315	8461	0	0	-100	0	230	101300000	1000	0	0	-1	0
14549875	8471	0	0	-100	0	230	101300000	1000	0	0	-1	0
14562435	8454	0	0	-100	0	230	101300000	1000	0	0	-1	0
14574995	8461	0	0	-100	0	230	101300000	1000	0	0	-1	0
14587555	8456	0	0	-100	0	230	101300000	1000	0	0	-1	0
14600115	8449	0	0	-100	0	230	101300000	1000	0	0	-1	0
14612675	8456	0	0	-100	0	230	101300000	1000	0	0	-1	0
14625235	8456	0	0	-100	0	230	101300000	1000	0	0	-1	0
14637795	8452	0	0	-100	0	230	101300000	1000	0	0	-1	0
14650355	8454	2	0	-100	0	230	101300000	1000	0	0	-1	0
14662915	8454	1	0	-100	0	230	101300000	1000	0	0	-1	0
14675475	8454	2	0	-100	0	230	101300000	1000	0	0	-1	0
14688035	8456	1	0	-100	0	230	101300000	1000	0	0	-1	0
14700595	8456	0	0	-100	0	230	101300000	1000	0	0	-1	0
14713155	8457	3	0	-100	0	230	101300000	1000	0	0	-1	0
14725715	8447	0	0	-100	0	230	101300000	1000	0	0	-1	0
14738275	8449	0	0	-100	0	230	101300000	1000	0	0	-1	0
14750835	8456	0	0	-100	0	230	101300000	1000	0	0	-1	0
14763395	8454	4	0	-100	0	230	101300000	1000	0	0	-1	0
14775955	8456	2	0	-100	0	230	101300000	1000	0	0	-1	0
14788515	8456	2	0	-100	0	230	101300000	1000	0	0	-1	0
14801075	8456	0	0	-100	0	230	101300000	1000	0	0	-1	0
14813635	8454	1	0	-100	0	230	101300000	1000	0	0	-1	0
14826195	8459	1	0	-100	0	230	101300000	1000	0	0	-1	0
14838755	8449	1	0	-100	0	230	101300000	1000	0	0	-1	0
14851315	8459	0	0	-100	0	230	101300000	1000	0	0	-1	0
14863875	8461	0	0	-100	0	230	101300000	1000	0	0	-1	0
14876435	8459	0	0	-100	0	230	101300000	1000	0	0	-1	0
14888995	8459	1	0	-100	0	230	101300000	1000	0	0	-1	0
14901555	8459	0	0	-100	0	230	101300000	1000	0	0	-1	0
14914115	8459	0	0	-100	0	230	101300000	1000	0	0	-1	0
14926675	8464	0	0	-100	0	230	101300000	1000	0	0	-1	0
14939235	8464	0	0	-100	0	230	101300000	1000	0	0	-1	0
14951795	8466	0	0	-100	0	230	101300000	1000	0	0	-1	0
14964355	8457	0	0	-100	0	230	101300000	1000	0	0	-1	0
14976915	8461	0	0	-100	0	230	101300000	1000	0	0	-1	0
14989475	8464	0	0	-100	0	230	101300000	1000	0	0	-1	0
15002035	8452	0	0	-100	0	230	101300000	1000	0	0	-1	0
15014595	8452	0	0	-100	0	230	101300000	1000	0	0	-1	0
15027155	8449	4	0	-100	0	230	101300000	1000	0	0	-1	0
15039715	8454	1	0	-100	0	230	101300000	1000	0	0	-1	0
15052275	8454	2	0	-100	0	230	101300000	1000	0	0	-1	0
15064835	8449	0	0	-100	0	230	101300000	1000	0	0	-1	0
15077395	8461	0	0	-100	0	230	101300000	1000	0	0	-1	0
15089955	8459	0	0	-100	0	230	101300000	1000	0	0	-1	0
15102515	8444	0	0	-100	0	230	101300000	1000	0	0	-1	0
15115075	8459	0	0	-100	0	230	101300000	1000	0	0	-1	0
15127635	8452	3	0	-100	0	230	101300000	1000	0	0	-1	0
15140195	8456	0	0	-100	0	230	101300000	1000	0	0	-1	0
15152755	8464	0	0	-100	0	230	101300000	1000	0	0	-1	0
15165315	8459	0	0	-100	0	230	101300000	1000	0	0	-1	0
15177875	8459	0	0	-100	0	230	101300000	1000	0	0	-1	0
15190435	8456	0	0	-100	0	230	101300000	1000	0	0	-1	0
15202995	8449	0	0	-100	0	230	101300000	1000	0	0	-1	0
15215555	8454	1	0	-100	0	230	101300000	1000	0	0	-1	0
15228115	8454	0	0	-100	0	230	101300000	1000	0	0	-1	0
15240675	8449	0	0	-100	0	230	101300000	1000	0	0	-1	0
15253235	8452	0	0	-100	0	230	101300000	1000	0	0	-1	0
15265795	8449	0	0	-100	0	230	101300000	1000	0	0	-1	0
15278355	8454	1	0	-100	0	230	101300000	1000	0	0	-1	0
15290915	8449	0	0	-100	0	230	101300000	1000	0	0	-1	0
15303475	8457	0	0	-100	0	230	101300000	1000	0	0	-1	0
15316035	8461	0	0	-100	0	230	101300000	1000	0	0	-1	0
15328595	8461	0	0	-100	0	230	101300000	1000	0	0	-1	0
15341155	8450	0	0	-100	0	230	101300000	1000	0	0	-1	0
15353715	8454	0	0	-100	0	230	101300000	1000	0	0	-1	0
15366275	8459	0	0	-100	0	230	101300000	1000	0	0	-1	0
15378835	8454	0	0	-100	0	230	101300000	1000	0	0	-1	0
15391395	8454	0	0	-100	0	230	101300000	1000	0	0	-1	0
15403955	8464	2	0	-100	0	230	101300000	1000	0	0	-1	0
15416515	8471	0	0	-100	0	230	101300000	1000	0	0	-1	0
15429075	8466	0	0	-100	0	230	101300000	1000	0	0	-1	0
15441635	8456	0	0	-100	0	230	101300000	1000	0	0	-1	0
15454195	8457	0	0	-100	0	230	101300000	1000	0	0	-1	0
15466755	8466	0	0	-100	0	230	101300000	1000	0	0	-1	0
15479315	8452	0	0	-100	0	230	101300000	1000	0	0	-1	0
15491875	8461	0	0	-100	0	230	101300000	1000	0	0	-1	0
15504435	8452	0	0	-100	0	230	101300000	1000	0	0	-1	0
15516995	8452	0	0	-100	0	230	101300000	1000	0	0	-1	0
15529555	8464	0	0	-100	0	230	101300000	1000	0	0	-1	0
15542115	8461	0	0	-100	0	230	101300000	1000	0	0	-1	0
15554675	8449	0	0	-100	0	230	101300000	1000	0	0	-1	0
15567235	8454	2	0	-100	0	230	101300000	1000	0	0	-1	0
15579795	8456	0	0	-100	0	230	101300000	1000	0	0	-1	0
15592355	8464	0	0	-100	0	230	101300000	1000	0	0	-1	0
15604915	8452	0	0	-100	0	230	101300000	1000	0	0	-1	0
15617475	8449	1	0	-100	0	230	101300000	1000	0	0	-1	0
15630035	8464	0	0	-100	0	230	101300000	1000	0	0	-1	0
15642595	8456	0	0	-100	0	230	101300000	1000	0	0	-1	0
15655155	8447	4	0	-100	0	230	101300000	1000	0	0	-1	0
15667715	8454	0	0	-100	0	230	101300000	1000	0	0	-1	0
15680275	8459	0	0	-100	0	230	101300000	1000	0	0	-1	0
15692835	8452	0	0	-100	0	230	101300000	1000	0	0	-1	0
15705395	8461	1	0	-100	0	230	101300000	1000	0	0	-1	0
15717955	8464	0	0	-100	0	230	101300000	1000	0	0	-1	0
15730515	8457	0	0	-100	0	230	101300000	1000	0	0	-1	0
15743075	8447	0	0	-100	0	230	101300000	1000	0	0	-1	0
15755635	8451	0	0	-100	0	230	101300000	1000	0	0	-1	0
15768195	8461	0	0	-100	0	230	101300000	1000	0	0	-1	0
15780755	8457	0	0	-100	0	230	101300000	1000	0	0	-1	0
15793315	8459	0	0	-100	0	230	101300000	1000	0	0	-1	0
15805875	8454	2	0	-100	0	230	101300000	1000	0	0	-1	0
15818435	8461	0	0	-100	0	230	101300000	1000	0	0	-1	0
15830995	8459	0	0	-100	0	230	101300000	1000	0	0	-1	0
15843555	8459	2	0	-100	0	230	101300000	1000	0	0	-1	0
15856115	8459	0	0	-100	0	230	101300000	1000	0	0	-1	0
15868675	8461	0	0	-100	0	230	101300000	1000	0	0	-1	0
15881235	8456	0	0	-100	0	230	101300000	1000	0	0	-1	0
15893795	8454	4	0	-100	0	230	101300000	1000	0	0	-1	0
15906355	8461	0	0	-100	0	230	101300000	1000	0	0	-1	0
15918915	8461	0	0	-100	0	230	101300000	1000	0	0	-1	0
15931475	8454	0	0	-100	0	230	101300000	1000	0	0	-1	0
15944035	8461	2	0	-100	0	230	101300000	1000	0	0	-1	0
15956595	8454	0	0	-100	0	230	101300000	1000	0	0	-1	0
15969155	8452	1	0	-100	0	230	101300000	1000	0	0	-1	0
15981715	8452	0	0	-100	0	230	101300000	1000	0	0	-1	0
15994275	8464	0	0	-100	0	230	101300000	1000	0	0	-1	0
16006835	8466	0	0	-100	0	230	101300000	1000	0	0	-1	0
16019395	8452	0	0	-100	0	230	101300000	1000	0	0	-1	0
16031955	8454	1	0	-100	0	230	101300000	1000	0	0	-1	0
16044515	8454	0	0	-100	0	230	101300000	1000	0	0	-1	0
16057075	8468	0	0	-100	0	230	101300000	1000	0	0	-1	0
16069635	8466	0	0	-100	0	230	101300000	1000	0	0	-1	0
16082195	8452	0	0	-100	0	230	101300000	1000	0	0	-1	0
16094755	8459	4	0	-100	0	230	101300000	1000	0	0	-1	0
16107315	8459	0	0	-100	0	230	101300000	1000	0	0	-1	0
16119875	8459	0	0	-100	0	230	101300000	1000	0	0	-1	0
16132435	8452	0	0	-100	0	230	101300000	1000	0	0	-1	0
16144995	8454	0	0	-100	0	230	101300000	1000	0	0	-1	0
16157555	8461	0	0	-100	0	230	101300000	1000	0	0	-1	0
16170115	8461	0	0	-100	0	230	101300000	1000	0	0	-1	0
16182675	8461	0	0	-100	0	230	101300000	1000	0	0	-1	0
16195235	8461	0	0	-100	0	230	101300000	1000	0	0	-1	0
16207795	8454	0	0	-100	0	230	101300000	1000	0	0	-1	0
16220355	8452	0	0	-100	0	230	101300000	1000	0	0	-1	0
16232915	8454	4	0	-100	0	230	101300000	1000	0	0	-1	0
16245475	8459	0	0	-100	0	230	101300000	1000	0	0	-1	0
16258035	8452	0	0	-100	0	230	101300000	1000	0	0	-1	0
16270595	8461	0	0	-100	0	230	101300000	1000	0	0	-1	0
16283155	8452	0	0	-100	0	230	101300000	1000	0	0	-1	0
16295715	8452	0	0	-100	0	230	101300000	1000	0	0	-1	0
16308275	8464	0	0	-100	0	230	101300000	1000	0	0	-1	0
16320835	8454	0	0	-100	0	230	101300000	1000	0	0	-1	0
16333395	8449	0	0	-100	0	230	101300000	1000	0	0	-1	0
16345955	8464	0	0	-100	0	230	101300000	1000	0	0	-1	0
16358515	8452	0	0	-100	0	230	101300000	1000	0	0	-1	0
16371075	8457	0	0	-100	0	230	101300000	1000	0	0	-1	0
16383635	8449	0	0	-100	0	230	101300000	1000	0	0	-1	0
16396195	8449	4	0	-100	0	230	101300000	1000	0	0	-1	0
16408755	8454	0	0	-100	0	230	101300000	1000	0	0	-1	0
16421315	8459	0	0	-100	0	230	101300000	1000	0	0	-1	0
16433875	8456	0	0	-100	0	230	101300000	1000	0	0	-1	0
16446435	8452	0	0	-100	0	230	101300000	1000	0	0	-1	0
16458995	8444	0	0	-100	0	230	101300000	1000	0	0	-1	0
16471555	8451	2	0	-100	0	230	101300000	1000	0	0	-1	0
16484115	8444	1	0	-100	0	230	101300000	1000	0	0	-1	0
16496675	8447	0	0	-100	0	230	101300000	1000	0	0	-1	0
16509235	8452	0	0	-100	0	230	101300000	1000	0	0	-1	0
16521795	8451	2	0	-100	0	230	101300000	1000	0	0	-1	0
16534355	8456	0	0	-100	0	230	101300000	1000	0	0	-1	0
16546915	8440	0	0	-100	0	230	101300000	1000	0	0	-1	0
16559475	8454	0	0	-100	0	230	101300000	1000	0	0	-1	0
16572035	8456	0	0	-100	0	230	101300000	1000	0	0	-1	0
16584595	8459	3	0	-100	0	230	101300000	1000	0	0	-1	0
16597155	8452	0	0	-100	0	230	101300000	1000	0	0	-1	0
16609715	8447	0	0	-100	0	230	101300000	1000	0	0	-1	0
16622275	8454	0	0	-100	0	230	101300000	1000	0	0	-1	0
16634835	8459	0	0	-100	0	230	101300000	1000	0	0	-1	0
16647395	8454	0	0	-100	0	230	101300000	1000	0	0	-1	0
16659955	8447	1	0	-100	0	230	101300000	1000	0	0	-1	0
16672515	8461	0	0	-100	0	230	101300000	1000	0	0	-1	0
16685075	8451	0	0	-100	0	230	101300000	1000	0	0	-1	0
16697635	8456	0	0	-100	0	230	101300000	1000	0	0	-1	0
16710195	8459	0	0	-100	0	230	101300000	1000	0	0	-1	0
16722755	8454	0	0	-100	0	230	101300000	1000	0	0	-1	0
16735315	8454	0	0	-100	0	230	101300000	1000	0	0	-1	0
16747875	8449	0	0	-100	0	230	101300000	1000	0	0	-1	0
16760435	8456	0	0	-100	0	230	101300000	1000	0	0	-1	0
16772995	8456	0	0	-100	0	230	101300000	1000	0	0	-1	0
16785555	8461	0	0	-100	0	230	101300000	1000	0	0	-1	0
16798115	8444	3	0	-100	0	230	101300000	1000	0	0	-1	0
16810675	8454	0	0	-100	0	230	101300000	1000	0	0	-1	0
16823235	8449	0	0	-100	0	230	101300000	1000	0	0	-1	0
16835795	8456	0	0	-100	0	230	101300000	1000	0	0	-1	0
16848355	8464	0	0	-100	0	230	101300000	1000	0	0	-1	0
16860915	8456	0	0	-100	0	230	101300000	1000	0	0	-1	0
16873475	8459	0	0	-100	0	230	101300000	1000	0	0	-1	0
16886035	8454	0	0	-100	0	230	101300000	1000	0	0	-1	0
16898595	8449	1	0	-100	0	230	101300000	1000	0	0	-1	0
16911155	8454	0	0	-100	0	230	101300000	1000	0	0	-1	0
16923715	8447	0	0	-100	0	230	101300000	1000	0	0	-1	0
16936275	8454	0	0	-100	0	230	101300000	1000	0	0	-1	0
16948835	8457	0	0	-100	0	230	101300000	1000	0	0	-1	0
16961395	8452	3	0	-100	0	230	101300000	1000	0	0	-1	0
16973955	8452	0	0	-100	0	230	101300000	1000	0	0	-1	0
16986515	8449	0	0	-100	0	230	101300000	1000	0	0	-1	0
16999075	8449	0	0	-100	0	230	101300000	1000	0	0	-1	0
17011635	8464	0	0	-100	0	230	101300000	1000	0	0	-1	0
17024195	8447	0	0	-100	0	230	101300000	1000	0	0	-1	0
17036755	8447	0	0	-100	0	230	101300000	1000	0	0	-1	0
17049315	8459	2	0	-100	0	230	101300000	1000	0	0	-1	0
17061875	8442	0	0	-100	0	230	101300000	1000	0	0	-1	0
17074435	8449	0	0	-100	0	230	101300000	1000	0	0	-1	0
17086995	8464	2	0	-100	0	230	101300000	1000	0	0	-1	0
17099555	8459	0	0	-100	0	230	101300000	1000	0	0	-1	0
17112115	8454	0	0	-100	0	230	101300000	1000	0	0	-1	0
17124675	8452	0	0	-100	0	230	101300000	1000	0	0	-1	0
17137235	8454	2	0	-100	0	230	101300000	1000	0	0	-1	0
17149795	8456	0	0	-100	0	230	101300000	1000	0	0	-1	0
17162355	8459	0	0	-100	0	230	101300000	1000	0	0	-1	0
17174915	8456	0	0	-100	0	230	101300000	1000	0	0	-1	0
17187475	8452	0	0	-100	0	230	101300000	1000	0	0	-1	0
17200035	8445	0	0	-100	0	230	101300000	1000	0	0	-1	0
17212595	8449	0	0	-100	0	230	101300000	1000	0	0	-1	0
17225155	8442	0	0	-100	0	230	101300000	1000	0	0	-1	0
17237715	8445	0	0	-100	0	230	101300000	1000	0	0	-1	0
17250275	8454	0	0	-100	0	230	101300000	1000	0	0	-1	0
17262835	8447	3	0	-100	0	230	101300000	1000	0	0	-1	0
17275395	8454	0	0	-100	0	230	101300000	1000	0	0	-1	0
17287955	8456	0	0	-100	0	230	101300000	1000	0	0	-1	0
17300515	8461	0	0	-100	0	230	101300000	1000	0	0	-1	0
17313075	8457	0	0	-100	0	230	101300000	1000	0	0	-1	0
17325635	8456	0	0	-100	0	230	101300000	1000	0	0	-1	0
17338195	8449	0	0	-100	0	230	101300000	1000	0	0	-1	0
17350755	8456	0	0	-100	0	230	101300000	1000	0	0	-1	0
17363315	8456	0	0	-100	0	230	101300000	1000	0	0	-1	0
17375875	8456	0	0	-100	0	230	101300000	1000	0	0	-1	0
17388435	8454	0	0	-100	0	230	101300000	1000	0	0	-1	0
17400995	8447	0	0	-100	0	230	101300000	1000	0	0	-1	0
17413555	8449	0	0	-100	0	230	101300000	1000	0	0	-1	0
17426115	8447	0	0	-100	0	230	101300000	1000	0	0	-1	0
17438675	8449	0	0	-100	0	230	101300000	1000	0	0	-1	0
17451235	8454	2	0	-100	0	230	101300000	1000	0	0	-1	0
17463795	8451	0	0	-100	0	230	101300000	1000	0	0	-1	0
17476355	8449	0	0	-100	0	230	101300000	1000	0	0	-1	0
17488915	8452	0	0	-100	0	230	101300000	1000	0	0	-1	0
17501475	8452	0	0	-100	0	230	101300000	1000	0	0	-1	0
17514035	8464	0	0	-100	0	230	101300000	1000	0	0	-1	0
17526595	8447	0	0	-100	0	230	101300000	1000	0	0	-1	0
17539155	8445	0	0	-100	0	230	101300000	1000	0	0	-1	0
17551715	8456	0	0	-100	0	230	101300000	1000	0	0	-1	0
17564275	8449	0	0	-100	0	230	101300000	1000	0	0	-1	0
17576835	8449	0	0	-100	0	230	101300000	1000	0	0	-1	0
17589395	8452	0	0	-100	0	230	101300000	1000	0	0	-1	0
17601955	8444	0	0	-100	0	230	101300000	1000	0	0	-1	0
17614515	8449	4	0	-100	0	230	101300000	1000	0	0	-1	0
17627075	8449	0	0	-100	0	230	101300000	1000	0	0	-1	0
17639635	8468	0	0	-100	0	230	101300000	1000	0	0	-1	0
17652195	8461	0	0	-100	0	230	101300000	1000	0	0	-1	0
17664755	8451	0	0	-100	0	230	101300000	1000	0	0	-1	0
17677315	8454	0	0	-100	0	230	101300000	1000	0	0	-1	0
17689875	8454	2	0	-100	0	230	101300000	1000	0	0	-1	0
17702435	8454	0	0	-100	0	230	101300000	1000	0	0	-1	0
17714995	8457	1	0	-100	0	230	101300000	1000	0	0	-1	0
17727555	8452	0	0	-100	0	230	101300000	1000	0	0	-1	0
17740115	8445	0	0	-100	0	230	101300000	1000	0	0	-1	0
17752675	8447	0	0	-100	0	230	101300000	1000	0	0	-1	0
17765235	8454	0	0	-100	0	230	101300000	1000	0	0	-1	0
17777795	8444	1	0	-100	0	230	101300000	1000	0	0	-1	0
17790355	8454	0	0	-100	0	230	101300000	1000	0	0	-1	0
17802915	8454	0	0	-100	0	230	101300000	1000	0	0	-1	0
17815475	8452	0	0	-100	0	230	101300000	1000	0	0	-1	0
17828035	8454	0	0	-100	0	230	101300000	1000	0	0	-1	0
17840595	8449	2	0	-100	0	230	101300000	1000	0	0	-1	0
17853155	8442	2	0	-100	0	230	101300000	1000	0	0	-1	0
17865715	8449	0	0	-100	0	230	101300000	1000	0	0	-1	0
17878275	8452	0	0	-100	0	230	101300000	1000	0	0	-1	0
17890835	8449	0	0	-100	0	230	101300000	1000	0	0	-1	0
17903395	8449	0	0	-100	0	230	101300000	1000	0	0	-1	0
17915955	8452	0	0	-100	0	230	101300000	1000	0	0	-1	0
17928515	8454	0	0	-100	0	230	101300000	1000	0	0	-1	0
17941075	8449	0	0	-100	0	230	101300000	1000	0	0	-1	0
17953635	8452	0	0	-100	0	230	101300000	1000	0	0	-1	0
17966195	8452	0	0	-100	0	230	101300000	1000	0	0	-1	0
17978755	8454	0	0	-100	0	230	101300000	1000	0	0	-1	0
17991315	8454	0	0	-100	0	230	101300000	1000	0	0	-1	0
18003875	8452	0	0	-100	0	230	101300000	1000	0	0	-1	0
18016435	8452	0	0	-100	0	230	101300000	1000	0	0	-1	0
18028995	8459	2	0	-100	0	230	101300000	1000	0	0	-1	0
18041555	8456	0	0	-100	0	230	101300000	1000	0	0	-1	0
18054115	8451	0	0	-100	0	230	101300000	1000	0	0	-1	0
18066675	8456	2	0	-100	0	230	101300000	1000	0	0	-1	0
18079235	8454	0	0	-100	0	230	101300000	1000	0	0	-1	0
18091795	8451	0	0	-100	0	230	101300000	1000	0	0	-1	0
18104355	8449	0	0	-100	0	230	101300000	1000	0	0	-1	0
18116915	8457	0	0	-100	0	230	101300000	1000	0	0	-1	0
18129475	8459	0	0	-100	0	230	101300000	1000	0	0	-1	0
18142035	8464	0	0	-100	0	230	101300000	1000	0	0	-1	0
18154595	8449	0	0	-100	0	230	101300000	1000	0	0	-1	0
18167155	8442	4	0	-100	0	230	101300000	1000	0	0	-1	0
18179715	8459	3	0	-100	0	230	101300000	1000	0	0	-1	0
18192275	8454	0	0	-100	0	230	101300000	1000	0	0	-1	0
18204835	8444	0	0	-100	0	230	101300000	1000	0	0	-1	0
18217395	8452	0	0	-100	0	230	101300000	1000	0	0	-1	0
18229955	8461	0	0	-100	0	230	101300000	1000	0	0	-1	0
18242515	8454	0	0	-100	0	230	101300000	1000	0	0	-1	0
18255075	8461	0	0	-100	0	230	101300000	1000	0	0	-1	0
18267635	8461	0	0	-100	0	230	101300000	1000	0	0	-1	0
18280195	8456	0	0	-100	0	230	101300000	1000	0	0	-1	0
18292755	8454	0	0	-100	0	230	101300000	1000	0	0	-1	0
18305315	8447	0	0	-100	0	230	101300000	1000	0	0	-1	0
18317875	8454	1	0	-100	0	230	101300000	1000	0	0	-1	0
18330435	8456	1	0	-100	0	230	101300000	1000	0	0	-1	0
18342995	8452	0	0	-100	0	230	101300000	1000	0	0	-1	0
18355555	8452	0	0	-100	0	230	101300000	1000	0	0	-1	0
18368115	8451	0	0	-100	0	230	101300000	1000	0	0	-1	0
18380675	8447	0	0	-100	0	230	101300000	1000	0	0	-1	0
18393235	8464	0	0	-100	0	230	101300000	1000	0	0	-1	0
18405795	8459	0	0	-100	0	230	101300000	1000	0	0	-1	0
18418355	8449	0	0	-100	0	230	101300000	1000	0	0	-1	0
18430915	8451	0	0	-100	0	230	101300000	1000	0	0	-1	0
18443475	8451	3	0	-100	0	230	101300000	1000	0	0	-1	0
18456035	8442	0	0	-100	0	230	101300000	1000	0	0	-1	0
18468595	8452	0	0	-100	0	230	101300000	1000	0	0	-1	0
18481155	8442	0	0	-100	0	230	101300000	1000	0	0	-1	0
18493715	8449	0	0	-100	0	230	101300000	1000	0	0	-1	0
18506275	8449	0	0	-100	0	230	101300000	1000	0	0	-1	0
18518835	8449	0	0	-100	0	230	101300000	1000	0	0	-1	0
18531395	8454	2	0	-100	0	230	101300000	1000	0	0	-1	0
18543955	8447	0	0	-100	0	230	101300000	1000	0	0	-1	0
18556515	8454	0	0	-100	0	230	101300000	1000	0	0	-1	0
18569075	8452	0	0	-100	0	230	101300000	1000	0	0	-1	0
18581635	8449	0	0	-100	0	230	101300000	1000	0	0	-1	0
18594195	8456	0	0	-100	0	230	101300000	1000	0	0	-1	0
18606755	8454	0	0	-100	0	230	101300000	1000	0	0	-1	0
18619315	8452	0	0	-100	0	230	101300000	1000	0	0	-1	0
18631875	8461	0	0	-100	0	230	101300000	1000	0	0	-1	0
18644435	8454	2	0	-100	0	230	101300000	1000	0	0	-1	0
18656995	8452	0	0	-100	0	230	101300000	1000	0	0	-1	0
18669555	8456	0	0	-100	0	230	101300000	1000	0	0	-1	0
18682115	8459	0	0	-100	0	230	101300000	1000	0	0	-1	0
18694675	8449	2	0	-100	0	230	101300000	1000	0	0	-1	0
18707235	8452	0	0	-100	0	230	101300000	1000	0	0	-1	0
18719795	8452	0	0	-100	0	230	101300000	1000	0	0	-1	0
18732355	8454	0	0	-100	0	230	101300000	1000	0	0	-1	0
18744915	8452	2	0	-100	0	230	101300000	1000	0	0	-1	0
18757475	8449	0	0	-100	0	230	101300000	1000	0	0	-1	0
18770035	8457	0	0	-100	0	230	101300000	1000	0	0	-1	0
18782595	8454	0	0	-100	0	230	101300000	1000	0	0	-1	0
18795155	8442	0	0	-100	0	230	101300000	1000	0	0	-1	0
18807715	8454	0	0	-100	0	230	101300000	1000	0	0	-1	0
18820275	8456	0	0	-100	0	230	101300000	1000	0	0	-1	0
18832835	8459	0	0	-100	0	230	101300000	1000	0	0	-1	0
18845395	8449	0	0	-100	0	230	101300000	1000	0	0	-1	0
18857955	8451	4	0	-100	0	230	101300000	1000	0	0	-1	0
18870515	8456	0	0	-100	0	230	101300000	1000	0	0	-1	0
18883075	8456	0	0	-100	0	230	101300000	1000	0	0	-1	0
18895635	8459	0	0	-100	0	230	101300000	1000	0	0	-1	0
18908195	8456	0	0	-100	0	230	101300000	1000	0	0	-1	0
18920755	8464	0	0	-100	0	230	101300000	1000	0	0	-1	0
18933315	8464	0	0	-100	0	230	101300000	1000	0	0	-1	0
18945875	8461	0	0	-100	0	230	101300000	1000	0	0	-1	0
18958435	8461	0	0	-100	0	230	101300000	1000	0	0	-1	0
18970995	8461	3	0	-100	0	230	101300000	1000	0	0	-1	0
18983555	8454	0	0	-100	0	230	101300000	1000	0	0	-1	0
18996115	8456	0	0	-100	0	230	101300000	1000	0	0	-1	0
19008675	8454	0	0	-100	0	230	101300000	1000	0	0	-1	0
19021235	8452	3	0	-100	0	230	101300000	1000	0	0	-1	0
19033795	8447	0	0	-100	0	230	101300000	1000	0	0	-1	0
19046355	8452	0	0	-100	0	230	101300000	1000	0	0	-1	0
19058915	8457	0	0	-100	0	230	101300000	1000	0	0	-1	0
19071475	8456	0	0	-100	0	230	101300000	1000	0	0	-1	0
19084035	8447	0	0	-100	0	230	101300000	1000	0	0	-1	0
19096595	8454	2	0	-100	0	230	101300000	1000	0	0	-1	0
19109155	8447	0	0	-100	0	230	101300000	1000	0	0	-1	0
19121715	8454	0	0	-100	0	230	101300000	1000	0	0	-1	0
19134275	8454	0	0	-100	0	230	101300000	1000	0	0	-1	0
19146835	8464	0	0	-100	0	230	101300000	1000	0	0	-1	0
19159395	8459	0	0	-100	0	230	101300000	1000	0	0	-1	0
19171955	8459	0	0	-100	0	230	101300000	1000	0	0	-1	0
19184515	8456	1	0	-100	0	230	101300000	1000	0	0	-1	0
19197075	8456	0	0	-100	0	230	101300000	1000	0	0	-1	0
19209635	8452	0	0	-100	0	230	101300000	1000	0	0	-1	0
19222195	8457	0	0	-100	0	230	101300000	1000	0	0	-1	0
19234755	8457	0	0	-100	0	230	101300000	1000	0	0	-1	0
19247315	8459	0	0	-100	0	230	101300000	1000	0	0	-1	0
19259875	8456	0	0	-100	0	230	101300000	1000	0	0	-1	0
19272435	8452	0	0	-100	0	230	101300000	1000	0	0	-1	0
19284995	8452	0	0	-100	0	230	101300000	1000	0	0	-1	0
19297555	8454	0	0	-100	0	230	101300000	1000	0	0	-1	0
19310115	8454	0	0	-100	0	230	101300000	1000	0	0	-1	0
19322675	8454	0	0	-100	0	230	101300000	1000	0	0	-1	0
19335235	8449	0	0	-100	0	230	101300000	1000	0	0	-1	0
19347795	8454	3	0	-100	0	230	101300000	1000	0	0	-1	0
19360355	8451	1	0	-100	0	230	101300000	1000	0	0	-1	0
19372915	8447	0	0	-100	0	230	101300000	1000	0	0	-1	0
19385475	8452	0	0	-100	0	230	101300000	1000	0	0	-1	0
19398035	8454	0	0	-100	0	230	101300000	1000	0	0	-1	0
19410595	8454	0	0	-100	0	230	101300000	1000	0	0	-1	0
19423155	8442	1	0	-100	0	230	101300000	1000	0	0	-1	0
19435715	8444	3	0	-100	0	230	101300000	1000	0	0	-1	0
19448275	8449	0	0	-100	0	230	101300000	1000	0	0	-1	0
19460835	8454	0	0	-100	0	230	101300000	1000	0	0	-1	0
19473395	8451	0	0	-100	0	230	101300000	1000	0	0	-1	0
19485955	8449	0	0	-100	0	230	101300000	1000	0	0	-1	0
19498515	8456	0	0	-100	0	230	101300000	1000	0	0	-1	0
19511075	8461	0	0	-100	0	230	101300000	1000	0	0	-1	0
19523635	8452	0	0	-100	0	230	101300000	1000	0	0	-1	0
19536195	8461	0	0	-100	0	230	101300000	1000	0	0	-1	0
19548755	8466	0	0	-100	0	230	101300000	1000	0	0	-1	0
19561315	8459	0	0	-100	0	230	101300000	1000	0	0	-1	0
19573875	8456	2	0	-100	0	230	101300000	1000	0	0	-1	0
19586435	8447	0	0	-100	0	230	101300000	1000	0	0	-1	0
19598995	8454	0	0	-100	0	230	101300000	1000	0	0	-1	0
19611555	8459	0	0	-100	0	230	101300000	1000	0	0	-1	0
19624115	8454	0	0	-100	0	230	101300000	1000	0	0	-1	0
19636675	8454	2	0	-100	0	230	101300000	1000	0	0	-1	0
19649235	8466	0	0	-100	0	230	101300000	1000	0	0	-1	0
19661795	8454	0	0	-100	0	230	101300000	1000	0	0	-1	0
19674355	8459	0	0	-100	0	230	101300000	1000	0	0	-1	0
19686915	8456	0	0	-100	0	230	101300000	1000	0	0	-1	0
19699475	8449	0	0	-100	0	230	101300000	1000	0	0	-1	0
19712035	8459	0	0	-100	0	230	101300000	1000	0	0	-1	0
19724595	8461	0	0	-100	0	230	101300000	1000	0	0	-1	0
19737155	8447	1	0	-100	0	230	101300000	1000	0	0	-1	0
19749715	8454	0	0	-100	0	230	101300000	1000	0	0	-1	0
19762275	8449	0	0	-100	0	230	101300000	1000	0	0	-1	0
19774835	8463	0	0	-100	0	230	101300000	1000	0	0	-1	0
19787395	8451	0	0	-100	0	230	101300000	1000	0	0	-1	0
19799955	8452	2	0	-100	0	230	101300000	1000	0	0	-1	0
19812515	8461	1	0	-100	0	230	101300000	1000	0	0	-1	0
19825075	8454	2	0	-100	0	230	101300000	1000	0	0	-1	0
19837635	8440	0	0	-100	0	230	101300000	1000	0	0	-1	0
19850195	8459	0	0	-100	0	230	101300000	1000	0	0	-1	0
19862755	8464	0	0	-100	0	230	101300000	1000	0	0	-1	0
19875315	8452	0	0	-100	0	230	101300000	1000	0	0	-1	0
19887875	8459	0	0	-100	0	230	101300000	1000	0	0	-1	0
19900435	8449	0	0	-100	0	230	101300000	1000	0	0	-1	0
19912995	8454	0	0	-100	0	230	101300000	1000	0	0	-1	0
19925555	8454	0	0	-100	0	230	101300000	1000	0	0	-1	0
19938115	8456	0	0	-100	0	230	101300000	1000	0	0	-1	0
19950675	8454	0	0	-100	0	230	101300000	1000	0	0	-1	0
19963235	8464	0	0	-100	0	230	101300000	1000	0	0	-1	0
19975795	8461	0	0	-100	0	230	101300000	1000	0	0	-1	0
19988355	8461	0	0	-100	0	230	101300000	1000	0	0	-1	0
20000915	8456	0	0	-100	0	230	101300000	1000	0	0	-1	0
20013475	8452	0	0	-100	0	230	101300000	1000	0	0	-1	0
20026035	8464	0	0	-100	0	230	101300000	1000	0	0	-1	0
20038595	8454	0	0	-100	0	230	101300000	1000	0	0	-1	0
20051155	8450	0	0	-100	0	230	101300000	1000	0	0	-1	0
20063715	8461	0	0	-100	0	230	101300000	1000	0	0	-1	0
20076275	8459	0	0	-100	0	230	101300000	1000	0	0	-1	0
20088835	8452	0	0	-100	0	230	101300000	1000	0	0	-1	0
20101395	8454	0	0	-100	0	230	101300000	1000	0	0	-1	0
20113955	8459	0	0	-100	0	230	101300000	1000	0	0	-1	0
20126515	8461	0	0	-100	0	230	101300000	1000	0	0	-1	0
20139075	8454	0	0	-100	0	230	101300000	1000	0	0	-1	0
20151635	8456	0	0	-100	0	230	101300000	1000	0	0	-1	0
20164195	8456	1	0	-100	0	230	101300000	1000	0	0	-1	0
20176755	8449	2	0	-100	0	230	101300000	1000	0	0	-1	0
20189315	8456	1	0	-100	0	230	101300000	1000	0	0	-1	0
20201875	8461	3	0	-100	0	230	101300000	1000	0	0	-1	0
20214435	8454	0	0	-100	0	230	101300000	1000	0	0	-1	0
20226995	8452	0	0	-100	0	230	101300000	1000	0	0	-1	0
20239555	8452	0	0	-100	0	230	101300000	1000	0	0	-1	0
20252115	8456	0	0	-100	0	230	101300000	1000	0	0	-1	0
20264675	8457	0	0	-100	0	230	101300000	1000	0	0	-1	0
20277235	8461	0	0	-100	0	230	101300000	1000	0	0	-1	0
20289795	8466	0	0	-100	0	230	101300000	1000	0	0	-1	0
20302355	8459	0	0	-100	0	230	101300000	1000	0	0	-1	0
20314915	8463	0	0	-100	0	230	101300000	1000	0	0	-1	0
20327475	8452	1	0	-100	0	230	101300000	1000	0	0	-1	0
20340035	8459	1	0	-100	0	230	101300000	1000	0	0	-1	0
20352595	8463	2	0	-100	0	230	101300000	1000	0	0	-1	0
20365155	8454	3	0	-100	0	230	101300000	1000	0	0	-1	0
20377715	8454	2	0	-100	0	230	101300000	1000	0	0	-1	0
20390275	8456	0	0	-100	0	230	101300000	1000	0	0	-1	0
20402835	8454	0	0	-100	0	230	101300000	1000	0	0	-1	0
20415395	8456	0	0	-100	0	230	101300000	1000	0	0	-1	0
20427955	8459	0	0	-100	0	230	101300000	1000	0	0	-1	0
20440515	8447	0	0	-100	0	230	101300000	1000	0	0	-1	0
20453075	8449	0	0	-100	0	230	101300000	1000	0	0	-1	0
20465635	8454	0	0	-100	0	230	101300000	1000	0	0	-1	0
20478195	8452	0	0	-100	0	230	101300000	1000	0	0	-1	0
20490755	8454	0	0	-100	0	230	101300000	1000	0	0	-1	0
20503315	8461	0	0	-100	0	230	101300000	1000	0	0	-1	0
20515875	8459	0	0	-100	0	230	101300000	1000	0	0	-1	0
20528435	8461	0	0	-100	0	230	101300000	1000	0	0	-1	0
20540995	8456	0	0	-100	0	230	101300000	1000	0	0	-1	0
20553555	8459	0	0	-100	0	230	101300000	1000	0	0	-1	0
20566115	8454	0	0	-100	0	230	101300000	1000	0	0	-1	0
20578675	8451	0	0	-100	0	230	101300000	1000	0	0	-1	0
20591235	8456	2	0	-100	0	230	101300000	1000	0	0	-1	0
20603795	8449	2	0	-100	0	230	101300000	1000	0	0	-1	0
20616355	8454	3	0	-100	0	230	101300000	1000	0	0	-1	0
20628915	8461	1	0	-100	0	230	101300000	1000	0	0	-1	0
20641475	8452	3	0	-100	0	230	101300000	1000	0	0	-1	0
20654035	8456	3	0	-100	0	230	101300000	1000	0	0	-1	0
20666595	8454	4	0	-100	0	230	101300000	1000	0	0	-1	0
20679155	8449	4	0	-100	0	230	101300000	1000	0	0	-1	0
20691715	8452	0	0	-100	0	230	101300000	1000	0	0	-1	0
20704275	8452	0	0	-100	0	230	101300000	1000	0	0	-1	0
20716835	8447	0	0	-100	0	230	101300000	1000	0	0	-1	0
20729395	8454	0	0	-100	0	230	101300000	1000	0	0	-1	0
20741955	8452	0	0	-100	0	230	101300000	1000	0	0	-1	0
20754515	8454	0	0	-100	0	230	101300000	1000	0	0	-1	0
20767075	8452	0	0	-100	0	230	101300000	1000	0	0	-1	0
20779635	8452	0	0	-100	0	230	101300000	1000	0	0	-1	0
20792195	8454	0	0	-100	0	230	101300000	1000	0	0	-1	0
20804755	8456	0	0	-100	0	230	101300000	1000	0	0	-1	0
20817315	8452	0	0	-100	0	230	101300000	1000	0	0	-1	0
20829875	8449	0	0	-100	0	230	101300000	1000	0	0	-1	0
20842435	8452	4	0	-100	0	230	101300000	1000	0	0	-1	0
20854995	8447	0	0	-100	0	230	101300000	1000	0	0	-1	0
20867555	8456	3	0	-100	0	230	101300000	1000	0	0	-1	0
20880115	8451	2	0	-100	0	230	101300000	1000	0	0	-1	0
20892675	8447	3	0	-100	0	230	101300000	1000	0	0	-1	0
20905235	8454	1	0	-100	0	230	101300000	1000	0	0	-1	0
20917795	8444	4	0	-100	0	230	101300000	1000	0	0	-1	0
20930355	8447	0	0	-100	0	230	101300000	1000	0	0	-1	0
20942915	8456	0	0	-100	0	230	101300000	1000	0	0	-1	0
20955475	8459	0	0	-100	0	230	101300000	1000	0	0	-1	0
20968035	8456	0	0	-100	0	230	101300000	1000	0	0	-1	0
20980595	8449	0	0	-100	0	230	101300000	1000	0	0	-1	0
20993155	8442	0	0	-100	0	230	101300000	1000	0	0	-1	0
21005715	8449	0	0	-100	0	230	101300000	1000	0	0	-1	0
21018275	8442	0	0	-100	0	230	101300000	1000	0	0	-1	0
21030835	8449	0	0	-100	0	230	101300000	1000	0	0	-1	0
21043395	8454	3	0	-100	0	230	101300000	1000	0	0	-1	0
21055955	8454	1	0	-100	0	230	101300000	1000	0	0	-1	0
21068515	8456	1	0	-100	0	230	101300000	1000	0	0	-1	0
21081075	8459	2	0	-100	0	230	101300000	1000	0	0	-1	0
21093635	8451	1	0	-100	0	230	101300000	1000	0	0	-1	0
21106195	8459	2	0	-100	0	230	101300000	1000	0	0	-1	0
21118755	8459	2	0	-100	0	230	101300000	1000	0	0	-1	0
21131315	8456	1	0	-100	0	230	101300000	1000	0	0	-1	0
21143875	8449	0	0	-100	0	230	101300000	1000	0	0	-1	0
21156435	8452	0	0	-100	0	230	101300000	1000	0	0	-1	0
21168995	8459	0	0	-100	0	230	101300000	1000	0	0	-1	0
21181555	8454	0	0	-100	0	230	101300000	1000	0	0	-1	0
21194115	8452	0	0	-100	0	230	101300000	1000	0	0	-1	0
21206675	8459	0	0	-100	0	230	101300000	1000	0	0	-1	0
21219235	8456	0	0	-100	0	230	101300000	1000	0	0	-1	0
21231795	8456	2	0	-100	0	230	101300000	1000	0	0	-1	0
21244355	8456	1	0	-100	0	230	101300000	1000	0	0	-1	0
21256915	8445	0	0	-100	0	230	101300000	1000	0	0	-1	0
21269475	8454	0	0	-100	0	230	101300000	1000	0	0	-1	0
21282035	8454	0	0	-100	0	230	101300000	1000	0	0	-1	0
21294595	8454	0	0	-100	0	230	101300000	1000	0	0	-1	0
21307155	8454	0	0	-100	0	230	101300000	1000	0	0	-1	0
21319715	8454	0	0	-100	0	230	101300000	1000	0	0	-1	0
21332275	8454	0	0	-100	0	230	101300000	1000	0	0	-1	0
21344835	8461	0	0	-100	0	230	101300000	1000	0	0	-1	0
21357395	8452	0	0	-100	0	230	101300000	1000	0	0	-1	0
21369955	8452	0	0	-100	0	230	101300000	1000	0	0	-1	0
21382515	8452	0	0	-100	0	230	101300000	1000	0	0	-1	0
21395075	8459	0	0	-100	0	230	101300000	1000	0	0	-1	0
21407635	8461	0	0	-100	0	230	101300000	1000	0	0	-1	0
21420195	8454	0	0	-100	0	230	101300000	1000	0	0	-1	0
21432755	8442	0	0	-100	0	230	101300000	1000	0	0	-1	0
21445315	8459	0	0	-100	0	230	101300000	1000	0	0	-1	0
21457875	8447	1	0	-100	0	230	101300000	1000	0	0	-1	0
21470435	8454	1	0	-100	0	230	101300000	1000	0	0	-1	0
21482995	8452	0	0	-100	0	230	101300000	1000	0	0	-1	0
21495555	8444	0	0	-100	0	230	101300000	1000	0	0	-1	0
21508115	8454	0	0	-100	0	230	101300000	1000	0	0	-1	0
21520675	8449	0	0	-100	0	230	101300000	1000	0	0	-1	0
21533235	8461	0	0	-100	0	230	101300000	1000	0	0	-1	0
21545795	8464	0	0	-100	0	230	101300000	1000	0	0	-1	0
21558355	8468	0	0	-100	0	230	101300000	1000	0	0	-1	0
21570915	8464	0	0	-100	0	230	101300000	1000	0	0	-1	0
21583475	8461	0	0	-100	0	230	101300000	1000	0	0	-1	0
21596035	8459	0	0	-100	0	230	101300000	1000	0	0	-1	0
21608595	8459	0	0	-100	0	230	101300000	1000	0	0	-1	0
21621155	8450	0	0	-100	0	230	101300000	1000	0	0	-1	0
21633715	8452	0	0	-100	0	230	101300000	1000	0	0	-1	0
21646275	8454	3	0	-100	0	230	101300000	1000	0	0	-1	0
21658835	8454	0	0	-100	0	230	101300000	1000	0	0	-1	0
21671395	8454	0	0	-100	0	230	101300000	1000	0	0	-1	0
21683955	8464	0	0	-100	0	230	101300000	1000	0	0	-1	0
21696515	8459	0	0	-100	0	230	101300000	1000	0	0	-1	0
21709075	8469	0	0	-100	0	230	101300000	1000	0	0	-1	0
21721635	8461	0	0	-100	0	230	101300000	1000	0	0	-1	0
21734195	8454	0	0	-100	0	230	101300000	1000	0	0	-1	0
21746755	8459	0	0	-100	0	230	101300000	1000	0	0	-1	0
21759315	8456	0	0	-100	0	230	101300000	1000	0	0	-1	0
21771875	8457	0	0	-100	0	230	101300000	1000	0	0	-1	0
21784435	8456	3	0	-100	0	230	101300000	1000	0	0	-1	0
21796995	8456	0	0	-100	0	230	101300000	1000	0	0	-1	0
21809555	8471	0	0	-100	0	230	101300000	1000	0	0	-1	0
21822115	8459	0	0	-100	0	230	101300000	1000	0	0	-1	0
21834675	8466	0	0	-100	0	230	101300000	1000	0	0	-1	0
21847235	8459	0	0	-100	0	230	101300000	1000	0	0	-1	0
21859795	8452	0	0	-100	0	230	101300000	1000	0	0	-1	0
21872355	8454	0	0	-100	0	230	101300000	1000	0	0	-1	0
21884915	8454	0	0	-100	0	230	101300000	1000	0	0	-1	0
21897475	8454	0	0	-100	0	230	101300000	1000	0	0	-1	0
21910035	8454	3	0	-100	0	230	101300000	1000	0	0	-1	0
21922595	8449	1	0	-100	0	230	101300000	1000	0	0	-1	0
21935155	8454	0	0	-100	0	230	101300000	1000	0	0	-1	0
21947715	8464	0	0	-100	0	230	101300000	1000	0	0	-1	0
21960275	8461	0	0	-100	0	230	101300000	1000	0	0	-1	0
21972835	8461	0	0	-100	0	230	101300000	1000	0	0	-1	0
21985395	8466	0	0	-100	0	230	101300000	1000	0	0	-1	0
21997955	8454	0	0	-100	0	230	101300000	1000	0	0	-1	0
22010515	8461	0	0	-100	0	230	101300000	1000	0	0	-1	0
22023075	8454	0	0	-100	0	230	101300000	1000	0	0	-1	0
22035635	8459	0	0	-100	0	230	101300000	1000	0	0	-1	0
22048195	8461	0	0	-100	0	230	101300000	1000	0	0	-1	0
22060755	8459	0	0	-100	0	230	101300000	1000	0	0	-1	0
22073315	8464	0	0	-100	0	230	101300000	1000	0	0	-1	0
22085875	8466	0	0	-100	0	230	101300000	1000	0	0	-1	0
22098435	8454	0	0	-100	0	230	101300000	1000	0	0	-1	0
22110995	8454	0	0	-100	0	230	101300000	1000	0	0	-1	0
22123555	8456	0	0	-100	0	230	101300000	1000	0	0	-1	0
22136115	8456	0	0	-100	0	230	101300000	1000	0	0	-1	0
22148675	8456	0	0	-100	0	230	101300000	1000	0	0	-1	0
22161235	8461	2	0	-100	0	230	101300000	1000	0	0	-1	0
22173795	8452	0	0	-100	0	230	101300000	1000	0	0	-1	0
22186355	8461	0	0	-100	0	230	101300000	1000	0	0	-1	0
22198915	8454	0	0	-100	0	230	101300000	1000	0	0	-1	0
22211475	8461	0	0	-100	0	230	101300000	1000	0	0	-1	0
22224035	8457	0	0	-100	0	230	101300000	1000	0	0	-1	0
22236595	8459	0	0	-100	0	230	101300000	1000	0	0	-1	0
22249155	8450	0	0	-100	0	230	101300000	1000	0	0	-1	0
22261715	8454	0	0	-100	0	230	101300000	1000	0	0	-1	0
22274275	8459	0	0	-100	0	230	101300000	1000	0	0	-1	0
22286835	8459	0	0	-100	0	230	101300000	1000	0	0	-1	0
22299395	8457	0	0	-100	0	230	101300000	1000	0	0	-1	0
22311955	8459	0	0	-100	0	230	101300000	1000	0	0	-1	0
22324515	8464	0	0	-100	0	230	101300000	1000	0	0	-1	0
22337075	8461	0	0	-100	0	230	101300000	1000	0	0	-1	0
22349635	8456	0	0	-100	0	230	101300000	1000	0	0	-1	0
22362195	8452	0	0	-100	0	230	101300000	1000	0	0	-1	0
22374755	8459	1	0	-100	0	230	101300000	1000	0	0	-1	0
22387315	8461	4	0	-100	0	230	101300000	1000	0	0	-1	0
22399875	8454	0	0	-100	0	230	101300000	1000	0	0	-1	0
22412435	8456	0	0	-100	0	230	101300000	1000	0	0	-1	0
22424995	8457	0	0	-100	0	230	101300000	1000	0	0	-1	0
22437555	8457	0	0	-100	0	230	101300000	1000	0	0	-1	0
22450115	8456	0	0	-100	0	230	101300000	1000	0	0	-1	0
22462675	8456	0	0	-100	0	230	101300000	1000	0	0	-1	0
22475235	8454	2	0	-100	0	230	101300000	1000	0	0	-1	0
22487795	8466	1	0	-100	0	230	101300000	1000	0	0	-1	0
22500355	8454	0	0	-100	0	230	101300000	1000	0	0	-1	0
22512915	8457	0	0	-100	0	230	101300000	1000	0	0	-1	0
22525475	8457	0	0	-100	0	230	101300000	1000	0	0	-1	0
22538035	8461	0	0	-100	0	230	101300000	1000	0	0	-1	0
22550595	8459	0	0	-100	0	230	101300000	1000	0	0	-1	0
22563155	8454	0	0	-100	0	230	101300000	1000	0	0	-1	0
22575715	8461	0	0	-100	0	230	101300000	1000	0	0	-1	0
22588275	8461	0	0	-100	0	230	101300000	1000	0	0	-1	0
22600835	8461	0	0	-100	0	230	101300000	1000	0	0	-1	0
22613395	8459	0	0	-100	0	230	101300000	1000	0	0	-1	0
22625955	8459	0	0	-100	0	230	101300000	1000	0	0	-1	0
22638515	8456	0	0	-100	0	230	101300000	1000	0	0	-1	0
22651075	8454	0	0	-100	0	230	101300000	1000	0	0	-1	0
22663635	8452	0	0	-100	0	230	101300000	1000	0	0	-1	0
22676195	8452	0	0	-100	0	230	101300000	1000	0	0	-1	0
22688755	8459	0	0	-100	0	230	101300000	1000	0	0	-1	0
22701315	8454	1	0	-100	0	230	101300000	1000	0	0	-1	0
22713875	8456	4	0	-100	0	230	101300000	1000	0	0	-1	0
22726435	8447	0	0	-100	0	230	101300000	1000	0	0	-1	0
22738995	8452	0	0	-100	0	230	101300000	1000	0	0	-1	0
22751555	8447	0	0	-100	0	230	101300000	1000	0	0	-1	0
22764115	8461	0	0	-100	0	230	101300000	1000	0	0	-1	0
22776675	8451	0	0	-100	0	230	101300000	1000	0	0	-1	0
22789235	8454	0	0	-100	0	230	101300000	1000	0	0	-1	0
22801795	8444	2	0	-100	0	230	101300000	1000	0	0	-1	0
22814355	8452	0	0	-100	0	230	101300000	1000	0	0	-1	0
22826915	8447	0	0	-100	0	230	101300000	1000	0	0	-1	0
22839475	8442	0	0	-100	0	230	101300000	1000	0	0	-1	0
22852035	8454	0	0	-100	0	230	101300000	1000	0	0	-1	0
22864595	8449	0	0	-100	0	230	101300000	1000	0	0	-1	0
22877155	8445	0	0	-100	0	230	101300000	1000	0	0	-1	0
22889715	8454	0	0	-100	0	230	101300000	1000	0	0	-1	0
22902275	8449	0	0	-100	0	230	101300000	1000	0	0	-1	0
22914835	8452	0	0	-100	0	230	101300000	1000	0	0	-1	0
22927395	8459	0	0	-100	0	230	101300000	1000	0	0	-1	0
22939955	8444	0	0	-100	0	230	101300000	1000	0	0	-1	0
22952515	8444	0	0	-100	0	230	101300000	1000	0	0	-1	0
22965075	8456	1	0	-100	0	230	101300000	1000	0	0	-1	0
22977635	8447	3	0	-100	0	230	101300000	1000	0	0	-1	0
22990195	8442	0	0	-100	0	230	101300000	1000	0	0	-1	0
23002755	8444	0	0	-100	0	230	101300000	1000	0	0	-1	0
23015315	8451	0	0	-100	0	230	101300000	1000	0	0	-1	0
23027875	8456	0	0	-100	0	230	101300000	1000	0	0	-1	0
23040435	8456	0	0	-100	0	230	101300000	1000	0	0	-1	0
23052995	8466	4	0	-100	0	230	101300000	1000	0	0	-1	0
23065555	8454	0	0	-100	0	230	101300000	1000	0	0	-1	0
23078115	8447	0	0	-100	0	230	101300000	1000	0	0	-1	0
23090675	8451	2	0	-100	0	230	101300000	1000	0	0	-1	0
23103235	8447	2	0	-100	0	230	101300000	1000	0	0	-1	0
23115795	8444	3	0	-100	0	230	101300000	1000	0	0	-1	0
23128355	8449	3	0	-100	0	230	101300000	1000	0	0	-1	0
23140915	8451	3	0	-100	0	230	101300000	1000	0	0	-1	0
23153475	8449	3	0	-100	0	230	101300000	1000	0	0	-1	0
23166035	8452	3	0	-100	0	230	101300000	1000	0	0	-1	0
23178595	8447	2	0	-100	0	230	101300000	1000	0	0	-1	0
23191155	8444	4	0	-100	0	230	101300000	1000	0	0	-1	0
23203715	8459	2	0	-100	0	230	101300000	1000	0	0	-1	0
23216275	8447	1	0	-100	0	230	101300000	1000	0	0	-1	0
23228835	8447	0	0	-100	0	230	101300000	1000	0	0	-1	0
23241395	8442	2	0	-100	0	230	101300000	1000	0	0	-1	0
23253955	8449	1	0	-100	0	230	101300000	1000	0	0	-1	0
23266515	8447	1	0	-100	0	230	101300000	1000	0	0	-1	0
23279075	8444	2	0	-100	0	230	101300000	1000	0	0	-1	0
23291635	8449	2	0	-100	0	230	101300000	1000	0	0	-1	0
23304195	8456	1	0	-100	0	230	101300000	1000	0	0	-1	0
23316755	8447	2	0	-100	0	230	101300000	1000	0	0	-1	0
23329315	8451	1	0	-100	0	230	101300000	1000	0	0	-1	0
23341875	8449	0	0	-100	0	230	101300000	1000	0	0	-1	0
23354435	8444	0	0	-100	0	230	101300000	1000	0	0	-1	0
23366995	8454	0	0	-100	0	230	101300000	1000	0	0	-1	0
23379555	8449	2	0	-100	0	230	101300000	1000	0	0	-1	0
23392115	8447	0	0	-100	0	230	101300000	1000	0	0	-1	0
23404675	8452	0	0	-100	0	230	101300000	1000	0	0	-1	0
23417235	8447	0	0	-100	0	230	101300000	1000	0	0	-1	0
23429795	8457	0	0	-100	0	230	101300000	1000	0	0	-1	0
23442355	8451	0	0	-100	0	230	101300000	1000	0	0	-1	0
23454915	8451	2	0	-100	0	230	101300000	1000	0	0	-1	0
23467475	8454	0	0	-100	0	230	101300000	1000	0	0	-1	0
23480035	8451	1	0	-100	0	230	101300000	1000	0	0	-1	0
23492595	8449	1	0	-100	0	230	101300000	1000	0	0	-1	0
23505155	8437	4	0	-100	0	230	101300000	1000	0	0	-1	0
23517715	8454	2	0	-100	0	230	101300000	1000	0	0	-1	0
23530275	8459	1	0	-100	0	230	101300000	1000	0	0	-1	0
23542835	8452	3	0	-100	0	230	101300000	1000	0	0	-1	0
23555395	8456	2	0	-100	0	230	101300000	1000	0	0	-1	0
23567955	8452	2	0	-100	0	230	101300000	1000	0	0	-1	0
23580515	8454	0	0	-100	0	230	101300000	1000	0	0	-1	0
23593075	8451	1	0	-100	0	230	101300000	1000	0	0	-1	0
23605635	8449	1	0	-100	0	230	101300000	1000	0	0	-1	0
23618195	8452	0	0	-100	0	230	101300000	1000	0	0	-1	0
23630755	8447	1	0	-100	0	230	101300000	1000	0	0	-1	0
23643315	8452	0	0	-100	0	230	101300000	1000	0	0	-1	0
23655875	8447	0	0	-100	0	230	101300000	1000	0	0	-1	0
23668435	8456	0	0	-100	0	230	101300000	1000	0	0	-1	0
23680995	8454	0	0	-100	0	230	101300000	1000	0	0	-1	0
23693555	8452	3	0	-100	0	230	101300000	1000	0	0	-1	0
23706115	8456	0	0	-100	0	230	101300000	1000	0	0	-1	0
23718675	8449	0	0	-100	0	230	101300000	1000	0	0	-1	0
23731235	8454	0	0	-100	0	230	101300000	1000	0	0	-1	0
23743795	8447	0	0	-100	0	230	101300000	1000	0	0	-1	0
23756355	8447	0	0	-100	0	230	101300000	1000	0	0	-1	0
23768915	8456	0	0	-100	0	230	101300000	1000	0	0	-1	0
23781475	8445	0	0	-100	0	230	101300000	1000	0	0	-1	0
23794035	8461	0	0	-100	0	230	101300000	1000	0	0	-1	0
23806595	8461	0	0	-100	0	230	101300000	1000	0	0	-1	0
23819155	8449	0	0	-100	0	230	101300000	1000	0	0	-1	0
23831715	8459	0	0	-100	0	230	101300000	1000	0	0	-1	0
23844275	8454	0	0	-100	0	230	101300000	1000	0	0	-1	0
23856835	8454	0	0	-100	0	230	101300000	1000	0	0	-1	0
23869395	8454	0	0	-100	0	230	101300000	1000	0	0	-1	0
23881955	8449	0	0	-100	0	230	101300000	1000	0	0	-1	0
23894515	8454	0	0	-100	0	230	101300000	1000	0	0	-1	0
23907075	8459	0	0	-100	0	230	101300000	1000	0	0	-1	0
23919635	8445	0	0	-100	0	230	101300000	1000	0	0	-1	0
23932195	8451	0	0	-100	0	230	101300000	1000	0	0	-1	0
23944755	8454	0	0	-100	0	230	101300000	1000	0	0	-1	0
23957315	8449	0	0	-100	0	230	101300000	1000	0	0	-1	0
23969875	8452	0	0	-100	0	230	101300000	1000	0	0	-1	0
23982435	8456	0	0	-100	0	230	101300000	1000	0	0	-1	0
23994995	8454	0	0	-100	0	230	101300000	1000	0	0	-1	0
24007555	8452	0	0	-100	0	230	101300000	1000	0	0	-1	0
24020115	8454	0	0	-100	0	230	101300000	1000	0	0	-1	0
24032675	8456	0	0	-100	0	230	101300000	1000	0	0	-1	0
24045235	8457	0	0	-100	0	230	101300000	1000	0	0	-1	0
24057795	8452	0	0	-100	0	230	101300000	1000	0	0	-1	0
24070355	8459	0	0	-100	0	230	101300000	1000	0	0	-1	0
24082915	8449	0	0	-100	0	230	101300000	1000	0	0	-1	0
24095475	8447	0	0	-100	0	230	101300000	1000	0	0	-1	0
24108035	8445	0	0	-100	0	230	101300000	1000	0	0	-1	0
24120595	8447	0	0	-100	0	230	101300000	1000	0	0	-1	0
24133155	8449	2	0	-100	0	230	101300000	1000	0	0	-1	0
24145715	8452	3	0	-100	0	230	101300000	1000	0	0	-1	0
24158275	8449	1	0	-100	0	230	101300000	1000	0	0	-1	0
24170835	8449	4	0	-100	0	230	101300000	1000	0	0	-1	0
24183395	8449	1	0	-100	0	230	101300000	1000	0	0	-1	0
24195955	8454	0	0	-100	0	230	101300000	1000	0	0	-1	0
24208515	8456	3	0	-100	0	230	101300000	1000	0	0	-1	0
24221075	8456	0	0	-100	0	230	101300000	1000	0	0	-1	0
24233635	8449	1	0	-100	0	230	101300000	1000	0	0	-1	0
24246195	8461	2	0	-100	0	230	101300000	1000	0	0	-1	0
24258755	8449	0	0	-100	0	230	101300000	1000	0	0	-1	0
24271315	8449	0	0	-100	0	230	101300000	1000	0	0	-1	0
24283875	8449	0	0	-100	0	230	101300000	1000	0	0	-1	0
24296435	8444	0	0	-100	0	230	101300000	1000	0	0	-1	0
24308995	8452	0	0	-100	0	230	101300000	1000	0	0	-1	0
24321555	8456	0	0	-100	0	230	101300000	1000	0	0	-1	0
24334115	8456	0	0	-100	0	230	101300000	1000	0	0	-1	0
24346675	8457	0	0	-100	0	230	101300000	1000	0	0	-1	0
24359235	8452	0	0	-100	0	230	101300000	1000	0	0	-1	0
24371795	8456	0	0	-100	0	230	101300000	1000	0	0	-1	0
24384355	8452	0	0	-100	0	230	101300000	1000	0	0	-1	0
24396915	8459	0	0	-100	0	230	101300000	1000	0	0	-1	0
24409475	8454	3	0	-100	0	230	101300000	1000	0	0	-1	0
24422035	8452	1	0	-100	0	230	101300000	1000	0	0	-1	0
24434595	8451	1	0	-100	0	230	101300000	1000	0	0	-1	0
24447155	8445	1	0	-100	0	230	101300000	1000	0	0	-1	0
24459715	8459	0	0	-100	0	230	101300000	1000	0	0	-1	0
24472275	8454	0	0	-100	0	230	101300000	1000	0	0	-1	0
24484835	8459	0	0	-100	0	230	101300000	1000	0	0	-1	0
24497395	8456	0	0	-100	0	230	101300000	1000	0	0	-1	0
24509955	8461	0	0	-100	0	230	101300000	1000	0	0	-1	0
24522515	8464	0	0	-100	0	230	101300000	1000	0	0	-1	0
24535075	8464	0	0	-100	0	230	101300000	1000	0	0	-1	0
24547635	8464	0	0	-100	0	230	101300000	1000	0	0	-1	0
24560195	8457	0	0	-100	0	230	101300000	1000	0	0	-1	0
24572755	8461	0	0	-100	0	230	101300000	1000	0	0	-1	0
24585315	8464	0	0	-100	0	230	101300000	1000	0	0	-1	0
24597875	8459	0	0	-100	0	230	101300000	1000	0	0	-1	0
24610435	8464	0	0	-100	0	230	101300000	1000	0	0	-1	0
24622995	8468	4	0	-100	0	230	101300000	1000	0	0	-1	0
24635555	8464	0	0	-100	0	230	101300000	1000	0	0	-1	0
24648115	8471	0	0	-100	0	230	101300000	1000	0	0	-1	0
24660675	8461	0	0	-100	0	230	101300000	1000	0	0	-1	0
24673235	8468	0	0	-100	0	230	101300000	1000	0	0	-1	0
24685795	8461	0	0	-100	0	230	101300000	1000	0	0	-1	0
24698355	8468	0	0	-100	0	230	101300000	1000	0	0	-1	0
24710915	8464	0	0	-100	0	230	101300000	1000	0	0	-1	0
24723475	8466	0	0	-100	0	230	101300000	1000	0	0	-1	0
24736035	8452	0	0	-100	0	230	101300000	1000	0	0	-1	0
24748595	8461	0	0	-100	0	230	101300000	1000	0	0	-1	0
24761155	8445	1	0	-100	0	230	101300000	1000	0	0	-1	0
24773715	8449	0	0	-100	0	230	101300000	1000	0	0	-1	0
24786275	8449	1	0	-100	0	230	101300000	1000	0	0	-1	0
24798835	8454	2	0	-100	0	230	101300000	1000	0	0	-1	0
24811395	8456	1	0	-100	0	230	101300000	1000	0	0	-1	0
24823955	8464	0	0	-100	0	230	101300000	1000	0	0	-1	0
24836515	8452	0	0	-100	0	230	101300000	1000	0	0	-1	0
24849075	8454	0	0	-100	0	230	101300000	1000	0	0	-1	0
24861635	8456	0	0	-100	0	230	101300000	1000	0	0	-1	0
24874195	8449	0	0	-100	0	230	101300000	1000	0	0	-1	0
24886755	8454	0	0	-100	0	230	101300000	1000	0	0	-1	0
24899315	8454	0	0	-100	0	230	101300000	1000	0	0	-1	0
24911875	8447	0	0	-100	0	230	101300000	1000	0	0	-1	0
24924435	8457	0	0	-100	0	230	101300000	1000	0	0	-1	0
24936995	8449	0	0	-100	0	230	101300000	1000	0	0	-1	0
24949555	8461	0	0	-100	0	230	101300000	1000	0	0	-1	0
24962115	8454	0	0	-100	0	230	101300000	1000	0	0	-1	0
24974675	8461	0	0	-100	0	230	101300000	1000	0	0	-1	0
24987235	8457	0	0	-100	0	230	101300000	1000	0	0	-1	0
24999795	8454	0	0	-100	0	230	101300000	1000	0	0	-1	0
25012355	8466	0	0	-100	0	230	101300000	1000	0	0	-1	0
25024915	8464	0	0	-100	0	230	101300000	1000	0	0	-1	0
25037475	8459	0	0	-100	0	230	101300000	1000	0	0	-1	0
25050035	8461	2	0	-100	0	230	101300000	1000	0	0	-1	0
25062595	8449	2	0	-100	0	230	101300000	1000	0	0	-1	0
25075155	8442	4	0	-100	0	230	101300000	1000	0	0	-1	0
25087715	8452	0	0	-100	0	230	101300000	1000	0	0	-1	0
25100275	8447	0	0	-100	0	230	101300000	1000	0	0	-1	0
25112835	8451	0	0	-100	0	230	101300000	1000	0	0	-1	0
25125395	8459	0	0	-100	0	230	101300000	1000	0	0	-1	0
25137955	8454	0	0	-100	0	230	101300000	1000	0	0	-1	0
25150515	8452	0	0	-100	0	230	101300000	1000	0	0	-1	0
25163075	8452	0	0	-100	0	230	101300000	1000	0	0	-1	0
25175635	8456	0	0	-100	0	230	101300000	1000	0	0	-1	0
25188195	8452	0	0	-100	0	230	101300000	1000	0	0	-1	0
25200755	8459	0	0	-100	0	230	101300000	1000	0	0	-1	0
25213315	8461	2	0	-100	0	230	101300000	1000	0	0	-1	0
25225875	8454	2	0	-100	0	230	101300000	1000	0	0	-1	0
25238435	8451	1	0	-100	0	230	101300000	1000	0	0	-1	0
25250995	8459	0	0	-100	0	230	101300000	1000	0	0	-1	0
25263555	8457	0	0	-100	0	230	101300000	1000	0	0	-1	0
25276115	8456	0	0	-100	0	230	101300000	1000	0	0	-1	0
25288675	8454	0	0	-100	0	230	101300000	1000	0	0	-1	0
25301235	8449	0	0	-100	0	230	101300000	1000	0	0	-1	0
25313795	8461	0	0	-100	0	230	101300000	1000	0	0	-1	0
25326355	8454	1	0	-100	0	230	101300000	1000	0	0	-1	0
25338915	8447	0	0	-100	0	230	101300000	1000	0	0	-1	0
25351475	8463	0	0	-100	0	230	101300000	1000	0	0	-1	0
25364035	8469	0	0	-100	0	230	101300000	1000	0	0	-1	0
25376595	8461	0	0	-100	0	230	101300000	1000	0	0	-1	0
25389155	8450	0	0	-100	0	230	101300000	1000	0	0	-1	0
25401715	8452	0	0	-100	0	230	101300000	1000	0	0	-1	0
25414275	8451	0	0	-100	0	230	101300000	1000	0	0	-1	0
25426835	8454	0	0	-100	0	230	101300000	1000	0	0	-1	0
25439395	8449	0	0	-100	0	230	101300000	1000	0	0	-1	0
25451955	8456	2	0	-100	0	230	101300000	1000	0	0	-1	0
25464515	8452	3	0	-100	0	230	101300000	1000	0	0	-1	0
25477075	8459	1	0	-100	0	230	101300000	1000	0	0	-1	0
25489635	8459	2	0	-100	0	230	101300000	1000	0	0	-1	0
25502195	8456	2	0	-100	0	230	101300000	1000	0	0	-1	0
25514755	8459	1	0	-100	0	230	101300000	1000	0	0	-1	0
25527315	8459	1	0	-100	0	230	101300000	1000	0	0	-1	0
25539875	8459	0	0	-100	0	230	101300000	1000	0	0	-1	0
25552435	8468	0	0	-100	0	230	101300000	1000	0	0	-1	0
25564995	8466	3	0	-100	0	230	101300000	1000	0	0	-1	0
25577555	8459	0	0	-100	0	230	101300000	1000	0	0	-1	0
25590115	8464	0	0	-100	0	230	101300000	1000	0	0	-1	0
25602675	8468	0	0	-100	0	230	101300000	1000	0	0	-1	0
25615235	8461	0	0	-100	0	230	101300000	1000	0	0	-1	0
25627795	8457	0	0	-100	0	230	101300000	1000	0	0	-1	0
25640355	8459	0	0	-100	0	230	101300000	1000	0	0	-1	0
25652915	8449	0	0	-100	0	230	101300000	1000	0	0	-1	0
25665475	8456	3	0	-100	0	230	101300000	1000	0	0	-1	0
25678035	8454	1	0	-100	0	230	101300000	1000	0	0	-1	0
25690595	8459	1	0	-100	0	230	101300000	1000	0	0	-1	0
25703155	8442	3	0	-100	0	230	101300000	1000	0	0	-1	0
25715715	8452	0	0	-100	0	230	101300000	1000	0	0	-1	0
25728275	8449	0	0	-100	0	230	101300000	1000	0	0	-1	0
25740835	8456	1	0	-100	0	230	101300000	1000	0	0	-1	0
25753395	8457	3	0	-100	0	230	101300000	1000	0	0	-1	0
25765955	8456	3	0	-100	0	230	101300000	1000	0	0	-1	0
25778515	8451	2	0	-100	0	230	101300000	1000	0	0	-1	0
25791075	8456	3	0	-100	0	230	101300000	1000	0	0	-1	0
25803635	8452	0	0	-100	0	230	101300000	1000	0	0	-1	0
25816195	8454	0	0	-100	0	230	101300000	1000	0	0	-1	0
25828755	8461	0	0	-100	0	230	101300000	1000	0	0	-1	0
25841315	8466	0	0	-100	0	230	101300000	1000	0	0	-1	0
25853875	8456	0	0	-100	0	230	101300000	1000	0	0	-1	0
25866435	8459	0	0	-100	0	230	101300000	1000	0	0	-1	0
25878995	8456	0	0	-100	0	230	101300000	1000	0	0	-1	0
25891555	8456	0	0	-100	0	230	101300000	1000	0	0	-1	0
25904115	8459	0	0	-100	0	230	101300000	1000	0	0	-1	0
25916675	8457	0	0	-100	0	230	101300000	1000	0	0	-1	0
25929235	8464	0	0	-100	0	230	101300000	1000	0	0	-1	0
25941795	8454	0	0	-100	0	230	101300000	1000	0	0	-1	0
25954355	8456	0	0	-100	0	230	101300000	1000	0	0	-1	0
25966915	8452	0	0	-100	0	230	101300000	1000	0	0	-1	0
25979475	8459	1	0	-100	0	230	101300000	1000	0	0	-1	0
25992035	8452	0	0	-100	0	230	101300000	1000	0	0	-1	0
26004595	8454	0	0	-100	0	230	101300000	1000	0	0	-1	0
26017155	8438	0	0	-100	0	230	101300000	1000	0	0	-1	0
26029715	8456	0	0	-100	0	230	101300000	1000	0	0	-1	0
26042275	8454	0	0	-100	0	230	101300000	1000	0	0	-1	0
26054835	8454	0	0	-100	0	230	101300000	1000	0	0	-1	0
26067395	8449	0	0	-100	0	230	101300000	1000	0	0	-1	0
26079955	8456	0	0	-100	0	230	101300000	1000	0	0	-1	0
26092515	8456	0	0	-100	0	230	101300000	1000	0	0	-1	0
26105075	8456	0	0	-100	0	230	101300000	1000	0	0	-1	0
26117635	8459	0	0	-100	0	230	101300000	1000	0	0	-1	0
26130195	8459	0	0	-100	0	230	101300000	1000	0	0	-1	0
26142755	8456	0	0	-100	0	230	101300000	1000	0	0	-1	0
26155315	8456	0	0	-100	0	230	101300000	1000	0	0	-1	0
26167875	8459	0	0	-100	0	230	101300000	1000	0	0	-1	0
26180435	8461	0	0	-100	0	230	101300000	1000	0	0	-1	0
26192995	8459	2	0	-100	0	230	101300000	1000	0	0	-1	0
26205555	8464	0	0	-100	0	230	101300000	1000	0	0	-1	0
26218115	8456	0	0	-100	0	230	101300000	1000	0	0	-1	0
26230675	8449	0	0	-100	0	230	101300000	1000	0	0	-1	0
26243235	8454	0	0	-100	0	230	101300000	1000	0	0	-1	0
26255795	8454	2	0	-100	0	230	101300000	1000	0	0	-1	0
26268355	8449	0	0	-100	0	230	101300000	1000	0	0	-1	0
26280915	8459	0	0	-100	0	230	101300000	1000	0	0	-1	0
26293475	8461	0	0	-100	0	230	101300000	1000	0	0	-1	0
26306035	8466	0	0	-100	0	230	101300000	1000	0	0	-1	0
26318595	8449	0	0	-100	0	230	101300000	1000	0	0	-1	0
26331155	8447	4	0	-100	0	230	101300000	1000	0	0	-1	0
26343715	8459	2	0	-100	0	230	101300000	1000	0	0	-1	0
26356275	8454	2	0	-100	0	230	101300000	1000	0	0	-1	0
26368835	8456	4	0	-100	0	230	101300000	1000	0	0	-1	0
26381395	8454	2	0	-100	0	230	101300000	1000	0	0	-1	0
26393955	8449	0	0	-100	0	230	101300000	1000	0	0	-1	0
26406515	8454	0	0	-100	0	230	101300000	1000	0	0	-1	0
26419075	8445	0	0	-100	0	230	101300000	1000	0	0	-1	0
26431635	8449	0	0	-100	0	230	101300000	1000	0	0	-1	0
26444195	8457	0	0	-100	0	230	101300000	1000	0	0	-1	0
26456755	8449	0	0	-100	0	230	101300000	1000	0	0	-1	0
26469315	8449	0	0	-100	0	230	101300000	1000	0	0	-1	0
26481875	8459	0	0	-100	0	230	101300000	1000	0	0	-1	0
26494435	8452	0	0	-100	0	230	101300000	1000	0	0	-1	0
26506995	8454	1	0	-100	0	230	101300000	1000	0	0	-1	0
26519555	8461	0	0	-100	0	230	101300000	1000	0	0	-1	0
26532115	8456	2	0	-100	0	230	101300000	1000	0	0	-1	0
26544675	8452	0	0	-100	0	230	101300000	1000	0	0	-1	0
26557235	8459	0	0	-100	0	230	101300000	1000	0	0	-1	0
26569795	8459	0	0	-100	0	230	101300000	1000	0	0	-1	0
26582355	8454	0	0	-100	0	230	101300000	1000	0	0	-1	0
26594915	8454	0	0	-100	0	230	101300000	1000	0	0	-1	0
26607475	8466	0	0	-100	0	230	101300000	1000	0	0	-1	0
26620035	8451	0	0	-100	0	230	101300000	1000	0	0	-1	0
26632595	8456	1	0	-100	0	230	101300000	1000	0	0	-1	0
26645155	8445	0	0	-100	0	230	101300000	1000	0	0	-1	0
26657715	8456	0	0	-100	0	230	101300000	1000	0	0	-1	0
26670275	8454	0	0	-100	0	230	101300000	1000	0	0	-1	0
26682835	8464	0	0	-100	0	230	101300000	1000	0	0	-1	0
26695395	8451	0	0	-100	0	230	101300000	1000	0	0	-1	0
26707955	8459	4	0	-100	0	230	101300000	1000	0	0	-1	0
26720515	8452	0	0	-100	0	230	101300000	1000	0	0	-1	0
26733075	8452	0	0	-100	0	230	101300000	1000	0	0	-1	0
26745635	8449	0	0	-100	0	230	101300000	1000	0	0	-1	0
26758195	8447	0	0	-100	0	230	101300000	1000	0	0	-1	0
26770755	8447	0	0	-100	0	230	101300000	1000	0	0	-1	0
26783315	8456	0	0	-100	0	230	101300000	1000	0	0	-1	0
26795875	8451	0	0	-100	0	230	101300000	1000	0	0	-1	0
26808435	8442	0	0	-100	0	230	101300000	1000	0	0	-1	0
26820995	8451	0	0	-100	0	230	101300000	1000	0	0	-1	0
26833555	8454	0	0	-100	0	230	101300000	1000	0	0	-1	0
26846115	8457	0	0	-100	0	230	101300000	1000	0	0	-1	0
26858675	8456	0	0	-100	0	230	101300000	1000	0	0	-1	0
26871235	8447	0	0	-100	0	230	101300000	1000	0	0	-1	0
26883795	8449	0	0	-100	0	230	101300000	1000	0	0	-1	0
26896355	8447	0	0	-100	0	230	101300000	1000	0	0	-1	0
26908915	8456	3	0	-100	0	230	101300000	1000	0	0	-1	0
26921475	8452	4	0	-100	0	230	101300000	1000	0	0	-1	0
26934035	8452	3	0	-100	0	230	101300000	1000	0	0	-1	0
26946595	8452	2	0	-100	0	230	101300000	1000	0	0	-1	0
26959155	8442	2	0	-100	0	230	101300000	1000	0	0	-1	0
26971715	8451	0	0	-100	0	230	101300000	1000	0	0	-1	0
26984275	8456	0	0	-100	0	230	101300000	1000	0	0	-1	0
26996835	8454	0	0	-100	0	230	101300000	1000	0	0	-1	0
27009395	8464	0	0	-100	0	230	101300000	1000	0	0	-1	0
27021955	8459	0	0	-100	0	230	101300000	1000	0	0	-1	0
27034515	8447	0	0	-100	0	230	101300000	1000	0	0	-1	0
27047075	8454	0	0	-100	0	230	101300000	1000	0	0	-1	0
