timestamp	voltage	current	windSpeed	pitchAngle	rpm	temperature	ambientPressure	humidity	accelerationX	accelerationY	accelerationZ	currentSink
7037070	9315	0	0	-100	0	230	101300000	1000	0	0	-1	0
7044523	9305	4	0	-100	0	230	101300000	1000	0	0	-1	0
7057083	9302	1	0	-100	0	230	101300000	1000	0	0	-1	0
7069643	9307	0	0	-100	0	230	101300000	1000	0	0	-1	0
7082203	9300	0	0	-100	0	230	101300000	1000	0	0	-1	0
7094763	9307	2	0	-100	0	230	101300000	1000	0	0	-1	0
7107323	9312	0	0	-100	0	230	101300000	1000	0	0	-1	0
7119883	9300	0	0	-100	0	230	101300000	1000	0	0	-1	0
7132443	9305	1	0	-100	0	230	101300000	1000	0	0	-1	0
7145004	9297	2	0	-100	0	230	101300000	1000	0	0	-1	0
7157563	9300	0	0	-100	0	230	101300000	1000	0	0	-1	0
7170123	9305	2	0	-100	0	230	101300000	1000	0	0	-1	0
7182683	9310	0	0	-100	0	230	101300000	1000	0	0	-1	0
7195243	9302	0	0	-100	0	230	101300000	1000	0	0	-1	0
7207803	9302	4	0	-100	0	230	101300000	1000	0	0	-1	0
7220363	9302	0	0	-100	0	230	101300000	1000	0	0	-1	0
7232923	9312	0	0	-100	0	230	101300000	1000	0	0	-1	0
7245483	9305	0	0	-100	0	230	101300000	1000	0	0	-1	0
7258043	9305	3	0	-100	0	230	101300000	1000	0	0	-1	0
7270603	9302	2	0	-100	0	230	101300000	1000	0	0	-1	0
7283163	9310	0	0	-100	0	230	101300000	1000	0	0	-1	0
7295723	9302	0	0	-100	0	230	101300000	1000	0	0	-1	0
7308283	9300	0	0	-100	0	230	101300000	1000	0	0	-1	0
7320843	9302	3	0	-100	0	230	101300000	1000	0	0	-1	0
7333403	9312	0	0	-100	0	230	101300000	1000	0	0	-1	0
7345963	9302	0	0	-100	0	230	101300000	1000	0	0	-1	0
7689115	9297	0	0	-100	0	230	101300000	1000	0	0	-1	0
7701675	9300	3	0	-100	0	230	101300000	1000	0	0	-1	0
7714235	9310	0	0	-100	0	230	101300000	1000	0	0	-1	0
7726795	9300	0	0	-100	0	230	101300000	1000	0	0	-1	0
7739355	9305	0	0	-100	0	230	101300000	1000	0	0	-1	0
7751915	9310	0	0	-100	0	230	101300000	1000	0	0	-1	0
7764475	9302	0	0	-100	0	230	101300000	1000	0	0	-1	0
7777035	9300	2	0	-100	0	230	101300000	1000	0	0	-1	0
7789595	9310	0	0	-100	0	230	101300000	1000	0	0	-1	0
7802155	9302	5	0	-100	0	230	101300000	1000	0	0	-1	0
7814715	9312	0	0	-100	0	230	101300000	1000	0	0	-1	0
7827275	9302	0	0	-100	0	230	101300000	1000	0	0	-1	0
7839835	9300	4	0	-100	0	230	101300000	1000	0	0	-1	0
7852395	9312	0	0	-100	0	230	101300000	1000	0	0	-1	0
7864955	9305	0	0	-100	0	230	101300000	1000	0	0	-1	0
7877515	9302	2	0	-100	0	230	101300000	1000	0	0	-1	0
7890075	9307	0	0	-100	0	230	101300000	1000	0	0	-1	0
7902635	9300	0	0	-100	0	230	101300000	1000	0	0	-1	0
7915195	9305	4	0	-100	0	230	101300000	1000	0	0	-1	0
7927755	9315	0	0	-100	0	230	101300000	1000	0	0	-1	0
7940315	9302	0	0	-100	0	230	101300000	1000	0	0	-1	0
7952875	9302	2	0	-100	0	230	101300000	1000	0	0	-1	0
7965435	9305	0	0	-100	0	230	101300000	1000	0	0	-1	0
7977995	9310	3	0	-100	0	230	101300000	1000	0	0	-1	0
7990555	9307	0	0	-100	0	230	101300000	1000	0	0	-1	0
8003115	9305	4	0	-100	0	230	101300000	1000	0	0	-1	0
8015675	9305	0	0	-100	0	230	101300000	1000	0	0	-1	0
8028235	9310	0	0	-100	0	230	101300000	1000	0	0	-1	0
8040795	9293	0	0	-100	0	230	101300000	1000	0	0	-1	0
8053355	9305	2	0	-100	0	230	101300000	1000	0	0	-1	0
8065915	9310	0	0	-100	0	230	101300000	1000	0	0	-1	0
8078475	9307	0	0	-100	0	230	101300000	1000	0	0	-1	0
8091035	9307	0	0	-100	0	230	101300000	1000	0	0	-1	0
8103595	9302	4	0	-100	0	230	101300000	1000	0	0	-1	0
8116155	9305	1	0	-100	0	230	101300000	1000	0	0	-1	0
8128715	9307	0	0	-100	0	230	101300000	1000	0	0	-1	0
8141275	9307	0	0	-100	0	230	101300000	1000	0	0	-1	0
8153835	9310	2	0	-100	0	230	101300000	1000	0	0	-1	0
8166395	9312	0	0	-100	0	230	101300000	1000	0	0	-1	0
8178955	9305	0	0	-100	0	230	101300000	1000	0	0	-1	0
8191515	9302	0	0	-100	0	230	101300000	1000	0	0	-1	0
8204075	9312	0	0	-100	0	230	101300000	1000	0	0	-1	0
8216635	9307	0	0	-100	0	230	101300000	1000	0	0	-1	0
8229195	9307	4	0	-100	0	230	101300000	1000	0	0	-1	0
8241755	9305	0	0	-100	0	230	101300000	1000	0	0	-1	0
8254315	9310	0	0	-100	0	230	101300000	1000	0	0	-1	0
8266875	9310	4	0	-100	0	230	101300000	1000	0	0	-1	0
8279435	9312	0	0	-100	0	230	101300000	1000	0	0	-1	0
8291995	9305	0	0	-100	0	230	101300000	1000	0	0	-1	0
8304555	9297	3	0	-100	0	230	101300000	1000	0	0	-1	0
8317115	9307	0	0	-100	0	230	101300000	1000	0	0	-1	0
8329675	9305	2	0	-100	0	230	101300000	1000	0	0	-1	0
8342235	9302	0	0	-100	0	230	101300000	1000	0	0	-1	0
8354795	9297	0	0	-100	0	230	101300000	1000	0	0	-1	0
8367355	9315	0	0	-100	0	230	101300000	1000	0	0	-1	0
8379915	9297	0	0	-100	0	230	101300000	1000	0	0	-1	0
8392475	9307	0	0	-100	0	230	101300000	1000	0	0	-1	0
8405035	9307	0	0	-100	0	230	101300000	1000	0	0	-1	0
8417595	9305	3	0	-100	0	230	101300000	1000	0	0	-1	0
8430155	9315	0	0	-100	0	230	101300000	1000	0	0	-1	0
8442715	9305	0	0	-100	0	230	101300000	1000	0	0	-1	0
8455275	9305	3	0	-100	0	230	101300000	1000	0	0	-1	0
8467835	9312	0	0	-100	0	230	101300000	1000	0	0	-1	0
8480395	9305	1	0	-100	0	230	101300000	1000	0	0	-1	0
8492955	9307	0	0	-100	0	230	101300000	1000	0	0	-1	0
8505515	9305	0	0	-100	0	230	101300000	1000	0	0	-1	0
8518075	9295	0	0	-100	0	230	101300000	1000	0	0	-1	0
8530635	9307	0	0	-100	0	230	101300000	1000	0	0	-1	0
8543195	9310	0	0	-100	0	230	101300000	1000	0	0	-1	0
8555755	9295	0	0	-100	0	230	101300000	1000	0	0	-1	0
8568315	9310	0	0	-100	0	230	101300000	1000	0	0	-1	0
8580875	9305	0	0	-100	0	230	101300000	1000	0	0	-1	0
8593435	9305	4	0	-100	0	230	101300000	1000	0	0	-1	0
8605995	9307	0	0	-100	0	230	101300000	1000	0	0	-1	0
8618555	9305	0	0	-100	0	230	101300000	1000	0	0	-1	0
8631115	9307	2	0	-100	0	230	101300000	1000	0	0	-1	0
8643675	9302	0	0	-100	0	230	101300000	1000	0	0	-1	0
8656235	9307	0	0	-100	0	230	101300000	1000	0	0	-1	0
8668795	9302	4	0	-100	0	230	101300000	1000	0	0	-1	0
8681355	9305	0	0	-100	0	230	101300000	1000	0	0	-1	0
8693915	9305	0	0	-100	0	230	101300000	1000	0	0	-1	0
8706475	9307	2	0	-100	0	230	101300000	1000	0	0	-1	0
8719035	9310	0	0	-100	0	230	101300000	1000	0	0	-1	0
8731595	9300	0	0	-100	0	230	101300000	1000	0	0	-1	0
8744155	9307	0	0	-100	0	230	101300000	1000	0	0	-1	0
8756715	9305	0	0	-100	0	230	101300000	1000	0	0	-1	0
8769275	9305	0	0	-100	0	230	101300000	1000	0	0	-1	0
8781835	9297	0	0	-100	0	230	101300000	1000	0	0	-1	0
8794395	9302	0	0	-100	0	230	101300000	1000	0	0	-1	0
8806955	9302	0	0	-100	0	230	101300000	1000	0	0	-1	0
8819515	9300	2	0	-100	0	230	101300000	1000	0	0	-1	0
8832075	9307	0	0	-100	0	230	101300000	1000	0	0	-1	0
8844635	9300	4	0	-100	0	230	101300000	1000	0	0	-1	0
8857195	9307	0	0	-100	0	230	101300000	1000	0	0	-1	0
8869755	9307	1	0	-100	0	230	101300000	1000	0	0	-1	0
8882315	9305	0	0	-100	0	230	101300000	1000	0	0	-1	0
8894875	9305	2	0	-100	0	230	101300000	1000	0	0	-1	0
8907435	9305	0	0	-100	0	230	101300000	1000	0	0	-1	0
8919995	9305	0	0	-100	0	230	101300000	1000	0	0	-1	0
8932555	9312	0	0	-100	0	230	101300000	1000	0	0	-1	0
8945115	9300	0	0	-100	0	230	101300000	1000	0	0	-1	0
8957675	9307	1	0	-100	0	230	101300000	1000	0	0	-1	0
8970235	9307	0	0	-100	0	230	101300000	1000	0	0	-1	0
8982795	9295	0	0	-100	0	230	101300000	1000	0	0	-1	0
8995355	9305	0	0	-100	0	230	101300000	1000	0	0	-1	0
9007915	9307	0	0	-100	0	230	101300000	1000	0	0	-1	0
9020475	9302	4	0	-100	0	230	101300000	1000	0	0	-1	0
9033035	9310	0	0	-100	0	230	101300000	1000	0	0	-1	0
9045595	9305	0	0	-100	0	230	101300000	1000	0	0	-1	0
9058155	9297	0	0	-100	0	230	101300000	1000	0	0	-1	0
9070715	9305	3	0	-100	0	230	101300000	1000	0	0	-1	0
9083275	9310	0	0	-100	0	230	101300000	1000	0	0	-1	0
9095835	9305	0	0	-100	0	230	101300000	1000	0	0	-1	0
9108395	9305	3	0	-100	0	230	101300000	1000	0	0	-1	0
9120955	9307	0	0	-100	0	230	101300000	1000	0	0	-1	0
9133515	9307	0	0	-100	0	230	101300000	1000	0	0	-1	0
9146075	9300	3	0	-100	0	230	101300000	1000	0	0	-1	0
9158635	9307	0	0	-100	0	230	101300000	1000	0	0	-1	0
9171195	9307	0	0	-100	0	230	101300000	1000	0	0	-1	0
9183755	9300	0	0	-100	0	230	101300000	1000	0	0	-1	0
9196315	9305	3	0	-100	0	230	101300000	1000	0	0	-1	0
9208875	9302	0	0	-100	0	230	101300000	1000	0	0	-1	0
9221435	9310	0	0	-100	0	230	101300000	1000	0	0	-1	0
9233995	9305	0	0	-100	0	230	101300000	1000	0	0	-1	0
9246555	9300	0	0	-100	0	230	101300000	1000	0	0	-1	0
9259115	9300	0	0	-100	0	230	101300000	1000	0	0	-1	0
9271675	9310	0	0	-100	0	230	101300000	1000	0	0	-1	0
9284235	9310	0	0	-100	0	230	101300000	1000	0	0	-1	0
9296795	9300	0	0	-100	0	230	101300000	1000	0	0	-1	0
9309355	9305	3	0	-100	0	230	101300000	1000	0	0	-1	0
9321915	9300	2	0	-100	0	230	101300000	1000	0	0	-1	0
9334475	9305	0	0	-100	0	230	101300000	1000	0	0	-1	0
9347035	9310	0	0	-100	0	230	101300000	1000	0	0	-1	0
9359595	9310	0	0	-100	0	230	101300000	1000	0	0	-1	0
9372155	9302	0	0	-100	0	230	101300000	1000	0	0	-1	0
9384715	9297	2	0	-100	0	230	101300000	1000	0	0	-1	0
9397275	9307	0	0	-100	0	230	101300000	1000	0	0	-1	0
9409835	9302	0	0	-100	0	230	101300000	1000	0	0	-1	0
9422395	9300	0	0	-100	0	230	101300000	1000	0	0	-1	0
9434955	9302	4	0	-100	0	230	101300000	1000	0	0	-1	0
9447515	9302	0	0	-100	0	230	101300000	1000	0	0	-1	0
9460075	9310	0	0	-100	0	230	101300000	1000	0	0	-1	0
9472635	9307	0	0	-100	0	230	101300000	1000	0	0	-1	0
9485195	9300	0	0	-100	0	230	101300000	1000	0	0	-1	0
9497755	9302	0	0	-100	0	230	101300000	1000	0	0	-1	0
9510315	9305	0	0	-100	0	230	101300000	1000	0	0	-1	0
9522875	9302	0	0	-100	0	230	101300000	1000	0	0	-1	0
9535435	9307	3	0	-100	0	230	101300000	1000	0	0	-1	0
9547995	9307	0	0	-100	0	230	101300000	1000	0	0	-1	0
9560555	9310	0	0	-100	0	230	101300000	1000	0	0	-1	0
9573115	9305	0	0	-100	0	230	101300000	1000	0	0	-1	0
9585675	9305	0	0	-100	0	230	101300000	1000	0	0	-1	0
9598235	9302	0	0	-100	0	230	101300000	1000	0	0	-1	0
9610795	9312	0	0	-100	0	230	101300000	1000	0	0	-1	0
9623355	9300	0	0	-100	0	230	101300000	1000	0	0	-1	0
9635915	9307	2	0	-100	0	230	101300000	1000	0	0	-1	0
9648475	9305	0	0	-100	0	230	101300000	1000	0	0	-1	0
9661035	9310	0	0	-100	0	230	101300000	1000	0	0	-1	0
9673595	9300	0	0	-100	0	230	101300000	1000	0	0	-1	0
9686155	9302	4	0	-100	0	230	101300000	1000	0	0	-1	0
9698715	9305	0	0	-100	0	230	101300000	1000	0	0	-1	0
9711275	9312	0	0	-100	0	230	101300000	1000	0	0	-1	0
9723835	9302	0	0	-100	0	230	101300000	1000	0	0	-1	0
9736395	9302	3	0	-100	0	230	101300000	1000	0	0	-1	0
9748955	9302	1	0	-100	0	230	101300000	1000	0	0	-1	0
9761515	9310	0	0	-100	0	230	101300000	1000	0	0	-1	0
9774075	9312	0	0	-100	0	230	101300000	1000	0	0	-1	0
9786635	9302	0	0	-100	0	230	101300000	1000	0	0	-1	0
9799195	9307	3	0	-100	0	230	101300000	1000	0	0	-1	0
9811755	9310	0	0	-100	0	230	101300000	1000	0	0	-1	0
9824315	9307	0	0	-100	0	230	101300000	1000	0	0	-1	0
9836875	9305	0	0	-100	0	230	101300000	1000	0	0	-1	0
9849435	9300	0	0	-100	0	230	101300000	1000	0	0	-1	0
9861995	9305	0	0	-100	0	230	101300000	1000	0	0	-1	0
9874555	9302	0	0	-100	0	230	101300000	1000	0	0	-1	0
9887115	9310	0	0	-100	0	230	101300000	1000	0	0	-1	0
9899675	9300	0	0	-100	0	230	101300000	1000	0	0	-1	0
9912235	9307	4	0	-100	0	230	101300000	1000	0	0	-1	0
9924795	9305	0	0	-100	0	230	101300000	1000	0	0	-1	0
9937355	9305	0	0	-100	0	230	101300000	1000	0	0	-1	0
9949915	9302	0	0	-100	0	230	101300000	1000	0	0	-1	0
9962475	9297	4	0	-100	0	230	101300000	1000	0	0	-1	0
9975035	9305	0	0	-100	0	230	101300000	1000	0	0	-1	0
9987595	9307	0	0	-100	0	230	101300000	1000	0	0	-1	0
10000155	9302	0	0	-100	0	230	101300000	1000	0	0	-1	0
10012715	9307	4	0	-100	0	230	101300000	1000	0	0	-1	0
10025275	9302	0	0	-100	0	230	101300000	1000	0	0	-1	0
10037835	9305	0	0	-100	0	230	101300000	1000	0	0	-1	0
10050395	9300	0	0	-100	0	230	101300000	1000	0	0	-1	0
10062955	9302	4	0	-100	0	230	101300000	1000	0	0	-1	0
10075515	9305	0	0	-100	0	230	101300000	1000	0	0	-1	0
10088075	9307	0	0	-100	0	230	101300000	1000	0	0	-1	0
10100635	9302	0	0	-100	0	230	101300000	1000	0	0	-1	0
10113195	9302	0	0	-100	0	230	101300000	1000	0	0	-1	0
10125755	9297	0	0	-100	0	230	101300000	1000	0	0	-1	0
10138315	9302	3	0	-100	0	230	101300000	1000	0	0	-1	0
10150875	9312	0	0	-100	0	230	101300000	1000	0	0	-1	0
10163435	9310	0	0	-100	0	230	101300000	1000	0	0	-1	0
10175995	9305	0	0	-100	0	230	101300000	1000	0	0	-1	0
10188555	9310	4	0	-100	0	230	101300000	1000	0	0	-1	0
10201115	9305	2	0	-100	0	230	101300000	1000	0	0	-1	0
10213675	9305	0	0	-100	0	230	101300000	1000	0	0	-1	0
10226235	9305	0	0	-100	0	230	101300000	1000	0	0	-1	0
10238795	9305	0	0	-100	0	230	101300000	1000	0	0	-1	0
10251355	9307	3	0	-100	0	230	101300000	1000	0	0	-1	0
10263915	9302	2	0	-100	0	230	101300000	1000	0	0	-1	0
10276475	9312	0	0	-100	0	230	101300000	1000	0	0	-1	0
10289035	9307	0	0	-100	0	230	101300000	1000	0	0	-1	0
10301595	9290	0	0	-100	0	230	101300000	1000	0	0	-1	0
10314155	9305	4	0	-100	0	230	101300000	1000	0	0	-1	0
10326715	9305	0	0	-100	0	230	101300000	1000	0	0	-1	0
10339275	9305	0	0	-100	0	230	101300000	1000	0	0	-1	0
10351835	9300	0	0	-100	0	230	101300000	1000	0	0	-1	0
10364395	9302	4	0	-100	0	230	101300000	1000	0	0	-1	0
10376955	9315	0	0	-100	0	230	101300000	1000	0	0	-1	0
10389515	9310	0	0	-100	0	230	101300000	1000	0	0	-1	0
10402075	9302	4	0	-100	0	230	101300000	1000	0	0	-1	0
10414635	9305	0	0	-100	0	230	101300000	1000	0	0	-1	0
10427195	9310	0	0	-100	0	230	101300000	1000	0	0	-1	0
10439755	9300	0	0	-100	0	230	101300000	1000	0	0	-1	0
10452315	9300	1	0	-100	0	230	101300000	1000	0	0	-1	0
10464875	9302	0	0	-100	0	230	101300000	1000	0	0	-1	0
10477435	9300	0	0	-100	0	230	101300000	1000	0	0	-1	0
10489995	9305	0	0	-100	0	230	101300000	1000	0	0	-1	0
10502555	9310	0	0	-100	0	230	101300000	1000	0	0	-1	0
10515115	9300	0	0	-100	0	230	101300000	1000	0	0	-1	0
10527675	9305	1	0	-100	0	230	101300000	1000	0	0	-1	0
10540235	9310	0	0	-100	0	230	101300000	1000	0	0	-1	0
10552795	9305	0	0	-100	0	230	101300000	1000	0	0	-1	0
10565355	9302	0	0	-100	0	230	101300000	1000	0	0	-1	0
10577915	9305	3	0	-100	0	230	101300000	1000	0	0	-1	0
10590475	9305	0	0	-100	0	230	101300000	1000	0	0	-1	0
10603035	9305	0	0	-100	0	230	101300000	1000	0	0	-1	0
10615595	9305	0	0	-100	0	230	101300000	1000	0	0	-1	0
10628155	9302	0	0	-100	0	230	101300000	1000	0	0	-1	0
10640715	9307	3	0	-100	0	230	101300000	1000	0	0	-1	0
10653275	9310	0	0	-100	0	230	101300000	1000	0	0	-1	0
10665835	9305	0	0	-100	0	230	101300000	1000	0	0	-1	0
10678395	9302	0	0	-100	0	230	101300000	1000	0	0	-1	0
10690955	9305	0	0	-100	0	230	101300000	1000	0	0	-1	0
10703515	9300	3	0	-100	0	230	101300000	1000	0	0	-1	0
10716075	9310	0	0	-100	0	230	101300000	1000	0	0	-1	0
10728635	9305	0	0	-100	0	230	101300000	1000	0	0	-1	0
10741195	9297	0	0	-100	0	230	101300000	1000	0	0	-1	0
10753755	9307	3	0	-100	0	230	101300000	1000	0	0	-1	0
10766315	9305	0	0	-100	0	230	101300000	1000	0	0	-1	0
10778875	9305	0	0	-100	0	230	101300000	1000	0	0	-1	0
10791435	9310	0	0	-100	0	230	101300000	1000	0	0	-1	0
10803995	9305	0	0	-100	0	230	101300000	1000	0	0	-1	0
10816555	9302	0	0	-100	0	230	101300000	1000	0	0	-1	0
10829115	9307	3	0	-100	0	230	101300000	1000	0	0	-1	0
10841675	9300	3	0	-100	0	230	101300000	1000	0	0	-1	0
10854235	9307	0	0	-100	0	230	101300000	1000	0	0	-1	0
10866795	9302	0	0	-100	0	230	101300000	1000	0	0	-1	0
10879355	9307	0	0	-100	0	230	101300000	1000	0	0	-1	0
10891915	9305	0	0	-100	0	230	101300000	1000	0	0	-1	0
10904475	9305	0	0	-100	0	230	101300000	1000	0	0	-1	0
10917035	9305	0	0	-100	0	230	101300000	1000	0	0	-1	0
10929595	9302	2	0	-100	0	230	101300000	1000	0	0	-1	0
10942155	9302	3	0	-100	0	230	101300000	1000	0	0	-1	0
10954715	9302	1	0	-100	0	230	101300000	1000	0	0	-1	0
10967275	9307	0	0	-100	0	230	101300000	1000	0	0	-1	0
10979835	9305	0	0	-100	0	230	101300000	1000	0	0	-1	0
10992395	9302	0	0	-100	0	230	101300000	1000	0	0	-1	0
11004955	9305	4	0	-100	0	230	101300000	1000	0	0	-1	0
11017515	9305	0	0	-100	0	230	101300000	1000	0	0	-1	0
11030075	9300	0	0	-100	0	230	101300000	1000	0	0	-1	0
11042635	9300	4	0	-100	0	230	101300000	1000	0	0	-1	0
11055195	9305	0	0	-100	0	230	101300000	1000	0	0	-1	0
11067755	9307	0	0	-100	0	230	101300000	1000	0	0	-1	0
11080315	9305	0	0	-100	0	230	101300000	1000	0	0	-1	0
11092875	9305	0	0	-100	0	230	101300000	1000	0	0	-1	0
11105435	9300	4	0	-100	0	230	101300000	1000	0	0	-1	0
11117995	9302	4	0	-100	0	230	101300000	1000	0	0	-1	0
11130555	9307	0	0	-100	0	230	101300000	1000	0	0	-1	0
11143115	9295	0	0	-100	0	230	101300000	1000	0	0	-1	0
11155675	9307	1	0	-100	0	230	101300000	1000	0	0	-1	0
11168235	9312	0	0	-100	0	230	101300000	1000	0	0	-1	0
11180795	9297	0	0	-100	0	230	101300000	1000	0	0	-1	0
11193355	9307	3	0	-100	0	230	101300000	1000	0	0	-1	0
11205915	9305	2	0	-100	0	230	101300000	1000	0	0	-1	0
11218475	9302	0	0	-100	0	230	101300000	1000	0	0	-1	0
11231035	9305	0	0	-100	0	230	101300000	1000	0	0	-1	0
11243595	9307	4	0	-100	0	230	101300000	1000	0	0	-1	0
11256155	9302	2	0	-100	0	230	101300000	1000	0	0	-1	0
11268715	9307	0	0	-100	0	230	101300000	1000	0	0	-1	0
11281275	9307	0	0	-100	0	230	101300000	1000	0	0	-1	0
11293835	9305	0	0	-100	0	230	101300000	1000	0	0	-1	0
11306395	9300	0	0	-100	0	230	101300000	1000	0	0	-1	0
11318955	9307	1	0	-100	0	230	101300000	1000	0	0	-1	0
11331515	9305	1	0	-100	0	230	101300000	1000	0	0	-1	0
11344075	9310	0	0	-100	0	230	101300000	1000	0	0	-1	0
11356635	9307	0	0	-100	0	230	101300000	1000	0	0	-1	0
11369195	9300	0	0	-100	0	230	101300000	1000	0	0	-1	0
11381755	9300	3	0	-100	0	230	101300000	1000	0	0	-1	0
11394315	9310	0	0	-100	0	230	101300000	1000	0	0	-1	0
11406875	9307	0	0	-100	0	230	101300000	1000	0	0	-1	0
11419435	9300	0	0	-100	0	230	101300000	1000	0	0	-1	0
11431995	9302	0	0	-100	0	230	101300000	1000	0	0	-1	0
11444555	9305	0	0	-100	0	230	101300000	1000	0	0	-1	0
11457115	9312	0	0	-100	0	230	101300000	1000	0	0	-1	0
11469675	9307	0	0	-100	0	230	101300000	1000	0	0	-1	0
11482235	9302	0	0	-100	0	230	101300000	1000	0	0	-1	0
11494795	9307	1	0	-100	0	230	101300000	1000	0	0	-1	0
11507355	9307	0	0	-100	0	230	101300000	1000	0	0	-1	0
11519915	9312	0	0	-100	0	230	101300000	1000	0	0	-1	0
11532475	9307	0	0	-100	0	230	101300000	1000	0	0	-1	0
11545035	9302	0	0	-100	0	230	101300000	1000	0	0	-1	0
11557595	9302	3	0	-100	0	230	101300000	1000	0	0	-1	0
11570155	9317	0	0	-100	0	230	101300000	1000	0	0	-1	0
11582715	9305	0	0	-100	0	230	101300000	1000	0	0	-1	0
11595275	9307	0	0	-100	0	230	101300000	1000	0	0	-1	0
11607835	9297	0	0	-100	0	230	101300000	1000	0	0	-1	0
11620395	9302	3	0	-100	0	230	101300000	1000	0	0	-1	0
11632955	9310	0	0	-100	0	230	101300000	1000	0	0	-1	0
11645515	9307	0	0	-100	0	230	101300000	1000	0	0	-1	0
11658075	9307	0	0	-100	0	230	101300000	1000	0	0	-1	0
11670635	9300	0	0	-100	0	230	101300000	1000	0	0	-1	0
11683195	9302	4	0	-100	0	230	101300000	1000	0	0	-1	0
11695755	9302	2	0	-100	0	230	101300000	1000	0	0	-1	0
11708315	9307	0	0	-100	0	230	101300000	1000	0	0	-1	0
11720875	9307	0	0	-100	0	230	101300000	1000	0	0	-1	0
11733435	9290	0	0	-100	0	230	101300000	1000	0	0	-1	0
11745995	9302	0	0	-100	0	230	101300000	1000	0	0	-1	0
11758555	9312	0	0	-100	0	230	101300000	1000	0	0	-1	0
11771115	9300	0	0	-100	0	230	101300000	1000	0	0	-1	0
11783675	9302	2	0	-100	0	230	101300000	1000	0	0	-1	0
11796235	9307	0	0	-100	0	230	101300000	1000	0	0	-1	0
11808795	9305	0	0	-100	0	230	101300000	1000	0	0	-1	0
11821355	9310	0	0	-100	0	230	101300000	1000	0	0	-1	0
11833915	9297	0	0	-100	0	230	101300000	1000	0	0	-1	0
11846475	9300	1	0	-100	0	230	101300000	1000	0	0	-1	0
11859035	9307	0	0	-100	0	230	101300000	1000	0	0	-1	0
11871595	9310	0	0	-100	0	230	101300000	1000	0	0	-1	0
11884155	9300	0	0	-100	0	230	101300000	1000	0	0	-1	0
11896715	9302	4	0	-100	0	230	101300000	1000	0	0	-1	0
11909275	9312	0	0	-100	0	230	101300000	1000	0	0	-1	0
11921835	9302	0	0	-100	0	230	101300000	1000	0	0	-1	0
11934395	9302	4	0	-100	0	230	101300000	1000	0	0	-1	0
11946955	9305	0	0	-100	0	230	101300000	1000	0	0	-1	0
11959515	9307	0	0	-100	0	230	101300000	1000	0	0	-1	0
11972075	9297	0	0	-100	0	230	101300000	1000	0	0	-1	0
11984635	9297	2	0	-100	0	230	101300000	1000	0	0	-1	0
11997195	9305	0	0	-100	0	230	101300000	1000	0	0	-1	0
12009755	9307	0	0	-100	0	230	101300000	1000	0	0	-1	0
12022315	9302	0	0	-100	0	230	101300000	1000	0	0	-1	0
12034875	9297	2	0	-100	0	230	101300000	1000	0	0	-1	0
12047435	9305	0	0	-100	0	230	101300000	1000	0	0	-1	0
12059995	9307	0	0	-100	0	230	101300000	1000	0	0	-1	0
12072555	9305	0	0	-100	0	230	101300000	1000	0	0	-1	0
12085115	9305	0	0	-100	0	230	101300000	1000	0	0	-1	0
12097675	9302	2	0	-100	0	230	101300000	1000	0	0	-1	0
12110235	9310	0	0	-100	0	230	101300000	1000	0	0	-1	0
12122795	9302	0	0	-100	0	230	101300000	1000	0	0	-1	0
12135355	9300	0	0	-100	0	230	101300000	1000	0	0	-1	0
12147915	9305	4	0	-100	0	230	101300000	1000	0	0	-1	0
12160475	9305	1	0	-100	0	230	101300000	1000	0	0	-1	0
12173035	9312	0	0	-100	0	230	101300000	1000	0	0	-1	0
12185595	9305	0	0	-100	0	230	101300000	1000	0	0	-1	0
12198155	9307	0	0	-100	0	230	101300000	1000	0	0	-1	0
12210715	9305	0	0	-100	0	230	101300000	1000	0	0	-1	0
12223275	9302	3	0	-100	0	230	101300000	1000	0	0	-1	0
12235835	9305	3	0	-100	0	230	101300000	1000	0	0	-1	0
12248395	9307	0	0	-100	0	230	101300000	1000	0	0	-1	0
12260955	9307	0	0	-100	0	230	101300000	1000	0	0	-1	0
12273515	9305	0	0	-100	0	230	101300000	1000	0	0	-1	0
12286075	9305	0	0	-100	0	230	101300000	1000	0	0	-1	0
12298635	9300	0	0	-100	0	230	101300000	1000	0	0	-1	0
12311195	9307	1	0	-100	0	230	101300000	1000	0	0	-1	0
12323755	9305	1	0	-100	0	230	101300000	1000	0	0	-1	0
12336315	9302	0	0	-100	0	230	101300000	1000	0	0	-1	0
12348875	9310	0	0	-100	0	230	101300000	1000	0	0	-1	0
12361435	9307	0	0	-100	0	230	101300000	1000	0	0	-1	0
12373995	9305	0	0	-100	0	230	101300000	1000	0	0	-1	0
12386555	9300	0	0	-100	0	230	101300000	1000	0	0	-1	0
12399115	9305	2	0	-100	0	230	101300000	1000	0	0	-1	0
12411675	9307	2	0	-100	0	230	101300000	1000	0	0	-1	0
12424235	9319	0	0	-100	0	230	101300000	1000	0	0	-1	0
12436795	9307	0	0	-100	0	230	101300000	1000	0	0	-1	0
12449355	9300	0	0	-100	0	230	101300000	1000	0	0	-1	0
12461915	9300	4	0	-100	0	230	101300000	1000	0	0	-1	0
12474475	9310	0	0	-100	0	230	101300000	1000	0	0	-1	0
12487035	9307	0	0	-100	0	230	101300000	1000	0	0	-1	0
12499595	9300	0	0	-100	0	230	101300000	1000	0	0	-1	0
12512155	9307	2	0	-100	0	230	101300000	1000	0	0	-1	0
12524715	9300	1	0	-100	0	230	101300000	1000	0	0	-1	0
12537275	9307	0	0	-100	0	230	101300000	1000	0	0	-1	0
12549835	9307	0	0	-100	0	230	101300000	1000	0	0	-1	0
12562395	9305	0	0	-100	0	230	101300000	1000	0	0	-1	0
12574955	9302	0	0	-100	0	230	101300000	1000	0	0	-1	0
12587515	9305	0	0	-100	0	230	101300000	1000	0	0	-1	0
12600075	9305	0	0	-100	0	230	101300000	1000	0	0	-1	0
12612635	9305	0	0	-100	0	230	101300000	1000	0	0	-1	0
12625195	9295	0	0	-100	0	230	101300000	1000	0	0	-1	0
12637755	9302	3	0	-100	0	230	101300000	1000	0	0	-1	0
12650315	9302	1	0	-100	0	230	101300000	1000	0	0	-1	0
12662875	9302	2	0	-100	0	230	101300000	1000	0	0	-1	0
12675435	9310	0	0	-100	0	230	101300000	1000	0	0	-1	0
12687995	9307	0	0	-100	0	230	101300000	1000	0	0	-1	0
12700555	9297	0	0	-100	0	230	101300000	1000	0	0	-1	0
12713115	9302	3	0	-100	0	230	101300000	1000	0	0	-1	0
12725675	9305	1	0	-100	0	230	101300000	1000	0	0	-1	0
12738235	9302	0	0	-100	0	230	101300000	1000	0	0	-1	0
12750795	9307	0	0	-100	0	230	101300000	1000	0	0	-1	0
12763355	9292	0	0	-100	0	230	101300000	1000	0	0	-1	0
12775915	9305	3	0	-100	0	230	101300000	1000	0	0	-1	0
12788475	9302	1	0	-100	0	230	101300000	1000	0	0	-1	0
12801035	9302	0	0	-100	0	230	101300000	1000	0	0	-1	0
12813595	9312	0	0	-100	0	230	101300000	1000	0	0	-1	0
12826155	9310	0	0	-100	0	230	101300000	1000	0	0	-1	0
12838715	9302	0	0	-100	0	230	101300000	1000	0	0	-1	0
12851275	9305	2	0	-100	0	230	101300000	1000	0	0	-1	0
12863835	9305	2	0	-100	0	230	101300000	1000	0	0	-1	0
12876395	9300	1	0	-100	0	230	101300000	1000	0	0	-1	0
12888955	9310	0	0	-100	0	230	101300000	1000	0	0	-1	0
12901515	9310	0	0	-100	0	230	101300000	1000	0	0	-1	0
12914075	9310	0	0	-100	0	230	101300000	1000	0	0	-1	0
12926635	9302	0	0	-100	0	230	101300000	1000	0	0	-1	0
12939195	9302	0	0	-100	0	230	101300000	1000	0	0	-1	0
12951755	9307	4	0	-100	0	230	101300000	1000	0	0	-1	0
12964315	9305	3	0	-100	0	230	101300000	1000	0	0	-1	0
12976875	9307	0	0	-100	0	230	101300000	1000	0	0	-1	0
12989435	9305	0	0	-100	0	230	101300000	1000	0	0	-1	0
13001995	9310	4	0	-100	0	230	101300000	1000	0	0	-1	0
13014555	9307	0	0	-100	0	230	101300000	1000	0	0	-1	0
13027115	9307	0	0	-100	0	230	101300000	1000	0	0	-1	0
13039675	9300	0	0	-100	0	230	101300000	1000	0	0	-1	0
13052235	9307	0	0	-100	0	230	101300000	1000	0	0	-1	0
13064795	9297	0	0	-100	0	230	101300000	1000	0	0	-1	0
13077355	9305	4	0	-100	0	230	101300000	1000	0	0	-1	0
13089915	9307	3	0	-100	0	230	101300000	1000	0	0	-1	0
13102475	9305	1	0	-100	0	230	101300000	1000	0	0	-1	0
13115035	9310	0	0	-100	0	230	101300000	1000	0	0	-1	0
13127595	9305	0	0	-100	0	230	101300000	1000	0	0	-1	0
13140155	9305	0	0	-100	0	230	101300000	1000	0	0	-1	0
13152715	9307	0	0	-100	0	230	101300000	1000	0	0	-1	0
13165275	9305	0	0	-100	0	230	101300000	1000	0	0	-1	0
13177835	9300	0	0	-100	0	230	101300000	1000	0	0	-1	0
13190395	9310	3	0	-100	0	230	101300000	1000	0	0	-1	0
13202955	9307	3	0	-100	0	230	101300000	1000	0	0	-1	0
13215515	9302	2	0	-100	0	230	101300000	1000	0	0	-1	0
13228075	9300	3	0	-100	0	230	101300000	1000	0	0	-1	0
13240635	9305	0	0	-100	0	230	101300000	1000	0	0	-1	0
13253195	9315	0	0	-100	0	230	101300000	1000	0	0	-1	0
13265755	9307	0	0	-100	0	230	101300000	1000	0	0	-1	0
13278315	9305	0	0	-100	0	230	101300000	1000	0	0	-1	0
13290875	9302	0	0	-100	0	230	101300000	1000	0	0	-1	0
13303435	9302	4	0	-100	0	230	101300000	1000	0	0	-1	0
13315995	9300	0	0	-100	0	230	101300000	1000	0	0	-1	0
13328555	9310	1	0	-100	0	230	101300000	1000	0	0	-1	0
13341115	9310	0	0	-100	0	230	101300000	1000	0	0	-1	0
13353675	9312	0	0	-100	0	230	101300000	1000	0	0	-1	0
13366235	9310	0	0	-100	0	230	101300000	1000	0	0	-1	0
13378795	9300	0	0	-100	0	230	101300000	1000	0	0	-1	0
13391355	9305	2	0	-100	0	230	101300000	1000	0	0	-1	0
13403915	9305	0	0	-100	0	230	101300000	1000	0	0	-1	0
13416475	9305	0	0	-100	0	230	101300000	1000	0	0	-1	0
13429035	9302	0	0	-100	0	230	101300000	1000	0	0	-1	0
13441595	9305	0	0	-100	0	230	101300000	1000	0	0	-1	0
13454155	9307	4	0	-100	0	230	101300000	1000	0	0	-1	0
13466715	9307	0	0	-100	0	230	101300000	1000	0	0	-1	0
13479275	9305	0	0	-100	0	230	101300000	1000	0	0	-1	0
13491835	9300	4	0	-100	0	230	101300000	1000	0	0	-1	0
13504395	9315	0	0	-100	0	230	101300000	1000	0	0	-1	0
13516955	9307	4	0	-100	0	230	101300000	1000	0	0	-1	0
13529515	9307	0	0	-100	0	230	101300000	1000	0	0	-1	0
13542075	9305	0	0	-100	0	230	101300000	1000	0	0	-1	0
13554635	9305	2	0	-100	0	230	101300000	1000	0	0	-1	0
13567195	9307	0	0	-100	0	230	101300000	1000	0	0	-1	0
13579755	9305	2	0	-100	0	230	101300000	1000	0	0	-1	0
13592315	9310	0	0	-100	0	230	101300000	1000	0	0	-1	0
13604875	9305	0	0	-100	0	230	101300000	1000	0	0	-1	0
13617435	9305	1	0	-100	0	230	101300000	1000	0	0	-1	0
13629995	9307	0	0	-100	0	230	101300000	1000	0	0	-1	0
13642555	9302	2	0	-100	0	230	101300000	1000	0	0	-1	0
13655115	9310	0	0	-100	0	230	101300000	1000	0	0	-1	0
13667675	9305	3	0	-100	0	230	101300000	1000	0	0	-1	0
13680235	9305	0	0	-100	0	230	101300000	1000	0	0	-1	0
13692795	9302	0	0	-100	0	230	101300000	1000	0	0	-1	0
13705355	9305	0	0	-100	0	230	101300000	1000	0	0	-1	0
13717915	9305	0	0	-100	0	230	101300000	1000	0	0	-1	0
13730475	9307	3	0	-100	0	230	101300000	1000	0	0	-1	0
13743035	9312	0	0	-100	0	230	101300000	1000	0	0	-1	0
13755595	9307	0	0	-100	0	230	101300000	1000	0	0	-1	0
13768155	9305	3	0	-100	0	230	101300000	1000	0	0	-1	0
13780715	9307	0	0	-100	0	230	101300000	1000	0	0	-1	0
13793275	9305	0	0	-100	0	230	101300000	1000	0	0	-1	0
13805835	9305	0	0	-100	0	230	101300000	1000	0	0	-1	0
13818395	9307	0	0	-100	0	230	101300000	1000	0	0	-1	0
13830955	9302	0	0	-100	0	230	101300000	1000	0	0	-1	0
13843515	9307	0	0	-100	0	230	101300000	1000	0	0	-1	0
13856075	9305	0	0	-100	0	230	101300000	1000	0	0	-1	0
13868635	9307	1	0	-100	0	230	101300000	1000	0	0	-1	0
13881195	9307	0	0	-100	0	230	101300000	1000	0	0	-1	0
13893755	9307	0	0	-100	0	230	101300000	1000	0	0	-1	0
13906315	9297	0	0	-100	0	230	101300000	1000	0	0	-1	0
13918875	9302	4	0	-100	0	230	101300000	1000	0	0	-1	0
13931435	9305	0	0	-100	0	230	101300000	1000	0	0	-1	0
13943995	9302	0	0	-100	0	230	101300000	1000	0	0	-1	0
13956555	9305	0	0	-100	0	230	101300000	1000	0	0	-1	0
13969115	9300	0	0	-100	0	230	101300000	1000	0	0	-1	0
13981675	9305	0	0	-100	0	230	101300000	1000	0	0	-1	0
13994235	9305	0	0	-100	0	230	101300000	1000	0	0	-1	0
14006795	9307	2	0	-100	0	230	101300000	1000	0	0	-1	0
14019355	9307	0	0	-100	0	230	101300000	1000	0	0	-1	0
14031915	9305	0	0	-100	0	230	101300000	1000	0	0	-1	0
14044475	9305	0	0	-100	0	230	101300000	1000	0	0	-1	0
14057035	9305	0	0	-100	0	230	101300000	1000	0	0	-1	0
14069595	9307	0	0	-100	0	230	101300000	1000	0	0	-1	0
14082155	9302	0	0	-100	0	230	101300000	1000	0	0	-1	0
14094715	9305	0	0	-100	0	230	101300000	1000	0	0	-1	0
14107275	9310	0	0	-100	0	230	101300000	1000	0	0	-1	0
14119835	9312	0	0	-100	0	230	101300000	1000	0	0	-1	0
14132395	9302	1	0	-100	0	230	101300000	1000	0	0	-1	0
14144955	9302	2	0	-100	0	230	101300000	1000	0	0	-1	0
14157515	9310	0	0	-100	0	230	101300000	1000	0	0	-1	0
14170075	9302	0	0	-100	0	230	101300000	1000	0	0	-1	0
14182635	9300	3	0	-100	0	230	101300000	1000	0	0	-1	0
14195195	9305	0	0	-100	0	230	101300000	1000	0	0	-1	0
14207755	9305	4	0	-100	0	230	101300000	1000	0	0	-1	0
14220315	9302	0	0	-100	0	230	101300000	1000	0	0	-1	0
14232875	9305	0	0	-100	0	230	101300000	1000	0	0	-1	0
14245435	9300	4	0	-100	0	230	101300000	1000	0	0	-1	0
14257995	9312	4	0	-100	0	230	101300000	1000	0	0	-1	0
14270555	9302	0	0	-100	0	230	101300000	1000	0	0	-1	0
14283115	9300	0	0	-100	0	230	101300000	1000	0	0	-1	0
14295675	9305	2	0	-100	0	230	101300000	1000	0	0	-1	0
14308235	9307	0	0	-100	0	230	101300000	1000	0	0	-1	0
14320795	9300	0	0	-100	0	230	101300000	1000	0	0	-1	0
14333355	9305	0	0	-100	0	230	101300000	1000	0	0	-1	0
14345915	9307	2	0	-100	0	230	101300000	1000	0	0	-1	0
14358475	9310	0	0	-100	0	230	101300000	1000	0	0	-1	0
14371035	9302	0	0	-100	0	230	101300000	1000	0	0	-1	0
14383595	9305	2	0	-100	0	230	101300000	1000	0	0	-1	0
14396155	9302	1	0	-100	0	230	101300000	1000	0	0	-1	0
14408715	9310	0	0	-100	0	230	101300000	1000	0	0	-1	0
14421275	9302	0	0	-100	0	230	101300000	1000	0	0	-1	0
14433835	9305	3	0	-100	0	230	101300000	1000	0	0	-1	0
14446395	9305	0	0	-100	0	230	101300000	1000	0	0	-1	0
14458955	9305	0	0	-100	0	230	101300000	1000	0	0	-1	0
14471515	9300	0	0	-100	0	230	101300000	1000	0	0	-1	0
14484075	9300	4	0	-100	0	230	101300000	1000	0	0	-1	0
14496635	9302	0	0	-100	0	230	101300000	1000	0	0	-1	0
14509195	9310	0	0	-100	0	230	101300000	1000	0	0	-1	0
14521755	9302	0	0	-100	0	230	101300000	1000	0	0	-1	0
14534315	9305	4	0	-100	0	230	101300000	1000	0	0	-1	0
14546875	9307	0	0	-100	0	230	101300000	1000	0	0	-1	0
14559435	9310	0	0	-100	0	230	101300000	1000	0	0	-1	0
14571995	9300	0	0	-100	0	230	101300000	1000	0	0	-1	0
14584555	9302	4	0	-100	0	230	101300000	1000	0	0	-1	0
14597115	9305	0	0	-100	0	230	101300000	1000	0	0	-1	0
14609675	9310	0	0	-100	0	230	101300000	1000	0	0	-1	0
14622235	9305	0	0	-100	0	230	101300000	1000	0	0	-1	0
14634795	9300	0	0	-100	0	230	101300000	1000	0	0	-1	0
14647355	9305	2	0	-100	0	230	101300000	1000	0	0	-1	0
14659915	9307	0	0	-100	0	230	101300000	1000	0	0	-1	0
14672475	9302	0	0	-100	0	230	101300000	1000	0	0	-1	0
14685035	9297	0	0	-100	0	230	101300000	1000	0	0	-1	0
14697595	9305	4	0	-100	0	230	101300000	1000	0	0	-1	0
14710155	9302	3	0	-100	0	230	101300000	1000	0	0	-1	0
14722715	9300	2	0	-100	0	230	101300000	1000	0	0	-1	0
14735275	9302	0	0	-100	0	230	101300000	1000	0	0	-1	0
14747835	9297	3	0	-100	0	230	101300000	1000	0	0	-1	0
14760395	9300	2	0	-100	0	230	101300000	1000	0	0	-1	0
14772955	9302	0	0	-100	0	230	101300000	1000	0	0	-1	0
14785515	9300	0	0	-100	0	230	101300000	1000	0	0	-1	0
14798075	9305	0	0	-100	0	230	101300000	1000	0	0	-1	0
14810635	9307	0	0	-100	0	230	101300000	1000	0	0	-1	0
14823195	9302	0	0	-100	0	230	101300000	1000	0	0	-1	0
14835755	9302	0	0	-100	0	230	101300000	1000	0	0	-1	0
14848315	9305	0	0	-100	0	230	101300000	1000	0	0	-1	0
14860875	9297	0	0	-100	0	230	101300000	1000	0	0	-1	0
14873435	9305	3	0	-100	0	230	101300000	1000	0	0	-1	0
14885995	9302	0	0	-100	0	230	101300000	1000	0	0	-1	0
14898555	9302	3	0	-100	0	230	101300000	1000	0	0	-1	0
14911115	9300	2	0	-100	0	230	101300000	1000	0	0	-1	0
14923675	9300	1	0	-100	0	230	101300000	1000	0	0	-1	0
14936235	9305	0	0	-100	0	230	101300000	1000	0	0	-1	0
14948795	9310	0	0	-100	0	230	101300000	1000	0	0	-1	0
14961355	9312	0	0	-100	0	230	101300000	1000	0	0	-1	0
14973915	9312	0	0	-100	0	230	101300000	1000	0	0	-1	0
14986475	9307	0	0	-100	0	230	101300000	1000	0	0	-1	0
14999035	9300	0	0	-100	0	230	101300000	1000	0	0	-1	0
15011595	9307	1	0	-100	0	230	101300000	1000	0	0	-1	0
15024155	9302	0	0	-100	0	230	101300000	1000	0	0	-1	0
15036715	9305	0	0	-100	0	230	101300000	1000	0	0	-1	0
15049275	9310	0	0	-100	0	230	101300000	1000	0	0	-1	0
15061835	9307	0	0	-100	0	230	101300000	1000	0	0	-1	0
15074395	9305	0	0	-100	0	230	101300000	1000	0	0	-1	0
15086955	9305	0	0	-100	0	230	101300000	1000	0	0	-1	0
15099515	9307	0	0	-100	0	230	101300000	1000	0	0	-1	0
15112075	9307	0	0	-100	0	230	101300000	1000	0	0	-1	0
15124635	9305	0	0	-100	0	230	101300000	1000	0	0	-1	0
15137195	9302	0	0	-100	0	230	101300000	1000	0	0	-1	0
15149755	9307	0	0	-100	0	230	101300000	1000	0	0	-1	0
15162315	9305	0	0	-100	0	230	101300000	1000	0	0	-1	0
15174875	9305	0	0	-100	0	230	101300000	1000	0	0	-1	0
15187435	9307	0	0	-100	0	230	101300000	1000	0	0	-1	0
15199995	9307	2	0	-100	0	230	101300000	1000	0	0	-1	0
15212555	9312	0	0	-100	0	230	101300000	1000	0	0	-1	0
15225115	9307	0	0	-100	0	230	101300000	1000	0	0	-1	0
15237675	9305	0	0	-100	0	230	101300000	1000	0	0	-1	0
15250235	9307	0	0	-100	0	230	101300000	1000	0	0	-1	0
15262795	9297	0	0	-100	0	230	101300000	1000	0	0	-1	0
15275355	9302	0	0	-100	0	230	101300000	1000	0	0	-1	0
15287915	9307	3	0	-100	0	230	101300000	1000	0	0	-1	0
15300475	9302	4	0	-100	0	230	101300000	1000	0	0	-1	0
15313035	9307	0	0	-100	0	230	101300000	1000	0	0	-1	0
15325595	9307	0	0	-100	0	230	101300000	1000	0	0	-1	0
15338155	9312	0	0	-100	0	230	101300000	1000	0	0	-1	0
15350715	9307	0	0	-100	0	230	101300000	1000	0	0	-1	0
15363275	9310	0	0	-100	0	230	101300000	1000	0	0	-1	0
15375835	9310	0	0	-100	0	230	101300000	1000	0	0	-1	0
15388395	9310	0	0	-100	0	230	101300000	1000	0	0	-1	0
15400955	9302	0	0	-100	0	230	101300000	1000	0	0	-1	0
15413515	9302	4	0	-100	0	230	101300000	1000	0	0	-1	0
15426075	9305	3	0	-100	0	230	101300000	1000	0	0	-1	0
15438635	9300	4	0	-100	0	230	101300000	1000	0	0	-1	0
15451195	9305	2	0	-100	0	230	101300000	1000	0	0	-1	0
15463755	9295	3	0	-100	0	230	101300000	1000	0	0	-1	0
15476315	9305	1	0	-100	0	230	101300000	1000	0	0	-1	0
15488875	9305	0	0	-100	0	230	101300000	1000	0	0	-1	0
15501435	9305	1	0	-100	0	230	101300000	1000	0	0	-1	0
15513995	9305	0	0	-100	0	230	101300000	1000	0	0	-1	0
15526555	9315	0	0	-100	0	230	101300000	1000	0	0	-1	0
15539115	9305	0	0	-100	0	230	101300000	1000	0	0	-1	0
15551675	9302	0	0	-100	0	230	101300000	1000	0	0	-1	0
15564235	9302	0	0	-100	0	230	101300000	1000	0	0	-1	0
15576795	9302	4	0	-100	0	230	101300000	1000	0	0	-1	0
15589355	9302	1	0	-100	0	230	101300000	1000	0	0	-1	0
15601915	9305	0	0	-100	0	230	101300000	1000	0	0	-1	0
15614475	9315	0	0	-100	0	230	101300000	1000	0	0	-1	0
15627035	9305	0	0	-100	0	230	101300000	1000	0	0	-1	0
15639595	9302	0	0	-100	0	230	101300000	1000	0	0	-1	0
15652155	9310	0	0	-100	0	230	101300000	1000	0	0	-1	0
15664715	9302	2	0	-100	0	230	101300000	1000	0	0	-1	0
15677275	9307	2	0	-100	0	230	101300000	1000	0	0	-1	0
15689835	9310	0	0	-100	0	230	101300000	1000	0	0	-1	0
15702395	9305	0	0	-100	0	230	101300000	1000	0	0	-1	0
15714955	9307	0	0	-100	0	230	101300000	1000	0	0	-1	0
15727515	9300	0	0	-100	0	230	101300000	1000	0	0	-1	0
15740075	9302	0	0	-100	0	230	101300000	1000	0	0	-1	0
15752635	9305	4	0	-100	0	230	101300000	1000	0	0	-1	0
15765195	9307	2	0	-100	0	230	101300000	1000	0	0	-1	0
15777755	9297	4	0	-100	0	230	101300000	1000	0	0	-1	0
15790315	9305	0	0	-100	0	230	101300000	1000	0	0	-1	0
15802875	9302	0	0	-100	0	230	101300000	1000	0	0	-1	0
15815435	9310	0	0	-100	0	230	101300000	1000	0	0	-1	0
15827995	9315	5	0	-100	0	230	101300000	1000	0	0	-1	0
15840555	9302	0	0	-100	0	230	101300000	1000	0	0	-1	0
15853115	9305	0	0	-100	0	230	101300000	1000	0	0	-1	0
15865675	9305	0	0	-100	0	230	101300000	1000	0	0	-1	0
15878235	9307	0	0	-100	0	230	101300000	1000	0	0	-1	0
15890795	9305	0	0	-100	0	230	101300000	1000	0	0	-1	0
15903355	9297	0	0	-100	0	230	101300000	1000	0	0	-1	0
15915915	9302	3	0	-100	0	230	101300000	1000	0	0	-1	0
15928475	9305	1	0	-100	0	230	101300000	1000	0	0	-1	0
15941035	9307	0	0	-100	0	230	101300000	1000	0	0	-1	0
15953595	9310	0	0	-100	0	230	101300000	1000	0	0	-1	0
15966155	9310	0	0	-100	0	230	101300000	1000	0	0	-1	0
15978715	9302	0	0	-100	0	230	101300000	1000	0	0	-1	0
15991275	9302	0	0	-100	0	230	101300000	1000	0	0	-1	0
16003835	9302	0	0	-100	0	230	101300000	1000	0	0	-1	0
16016395	9305	0	0	-100	0	230	101300000	1000	0	0	-1	0
16028955	9302	0	0	-100	0	230	101300000	1000	0	0	-1	0
16041515	9300	0	0	-100	0	230	101300000	1000	0	0	-1	0
16054075	9305	0	0	-100	0	230	101300000	1000	0	0	-1	0
16066635	9295	0	0	-100	0	230	101300000	1000	0	0	-1	0
16079195	9300	0	0	-100	0	230	101300000	1000	0	0	-1	0
16091755	9302	1	0	-100	0	230	101300000	1000	0	0	-1	0
16104315	9307	0	0	-100	0	230	101300000	1000	0	0	-1	0
16116875	9300	4	0	-100	0	230	101300000	1000	0	0	-1	0
16129435	9302	3	0	-100	0	230	101300000	1000	0	0	-1	0
16141995	9297	0	0	-100	0	230	101300000	1000	0	0	-1	0
16154555	9305	0	0	-100	0	230	101300000	1000	0	0	-1	0
16167115	9312	0	0	-100	0	230	101300000	1000	0	0	-1	0
16179675	9307	0	0	-100	0	230	101300000	1000	0	0	-1	0
16192235	9302	0	0	-100	0	230	101300000	1000	0	0	-1	0
16204795	9302	0	0	-100	0	230	101300000	1000	0	0	-1	0
16217355	9297	0	0	-100	0	230	101300000	1000	0	0	-1	0
16229915	9305	0	0	-100	0	230	101300000	1000	0	0	-1	0
16242475	9297	3	0	-100	0	230	101300000	1000	0	0	-1	0
16255035	9305	2	0	-100	0	230	101300000	1000	0	0	-1	0
16267595	9307	1	0	-100	0	230	101300000	1000	0	0	-1	0
16280155	9302	1	0	-100	0	230	101300000	1000	0	0	-1	0
16292715	9307	0	0	-100	0	230	101300000	1000	0	0	-1	0
16305275	9310	0	0	-100	0	230	101300000	1000	0	0	-1	0
16317835	9302	0	0	-100	0	230	101300000	1000	0	0	-1	0
16330395	9312	0	0	-100	0	230	101300000	1000	0	0	-1	0
16342955	9305	0	0	-100	0	230	101300000	1000	0	0	-1	0
16355515	9307	0	0	-100	0	230	101300000	1000	0	0	-1	0
16368075	9312	0	0	-100	0	230	101300000	1000	0	0	-1	0
16380635	9307	0	0	-100	0	230	101300000	1000	0	0	-1	0
16393195	9307	3	0	-100	0	230	101300000	1000	0	0	-1	0
16405755	9302	4	0	-100	0	230	101300000	1000	0	0	-1	0
16418315	9305	0	0	-100	0	230	101300000	1000	0	0	-1	0
16430875	9305	0	0	-100	0	230	101300000	1000	0	0	-1	0
16443435	9302	0	0	-100	0	230	101300000	1000	0	0	-1	0
16455995	9305	0	0	-100	0	230	101300000	1000	0	0	-1	0
16468555	9302	0	0	-100	0	230	101300000	1000	0	0	-1	0
16481115	9307	4	0	-100	0	230	101300000	1000	0	0	-1	0
16493675	9305	0	0	-100	0	230	101300000	1000	0	0	-1	0
16506235	9307	0	0	-100	0	230	101300000	1000	0	0	-1	0
16518795	9305	0	0	-100	0	230	101300000	1000	0	0	-1	0
16531355	9302	0	0	-100	0	230	101300000	1000	0	0	-1	0
16543915	9295	0	0	-100	0	230	101300000	1000	0	0	-1	0
16556475	9302	4	0	-100	0	230	101300000	1000	0	0	-1	0
16569035	9300	2	0	-100	0	230	101300000	1000	0	0	-1	0
16581595	9307	0	0	-100	0	230	101300000	1000	0	0	-1	0
16594155	9310	0	0	-100	0	230	101300000	1000	0	0	-1	0
16606715	9300	0	0	-100	0	230	101300000	1000	0	0	-1	0
16619275	9305	4	0	-100	0	230	101300000	1000	0	0	-1	0
16631835	9305	4	0	-100	0	230	101300000	1000	0	0	-1	0
16644395	9302	2	0	-100	0	230	101300000	1000	0	0	-1	0
16656955	9310	0	0	-100	0	230	101300000	1000	0	0	-1	0
16669515	9310	0	0	-100	0	230	101300000	1000	0	0	-1	0
16682075	9307	0	0	-100	0	230	101300000	1000	0	0	-1	0
16694635	9302	0	0	-100	0	230	101300000	1000	0	0	-1	0
16707195	9307	2	0	-100	0	230	101300000	1000	0	0	-1	0
16719755	9305	0	0	-100	0	230	101300000	1000	0	0	-1	0
16732315	9310	0	0	-100	0	230	101300000	1000	0	0	-1	0
16744875	9302	0	0	-100	0	230	101300000	1000	0	0	-1	0
16757435	9302	0	0	-100	0	230	101300000	1000	0	0	-1	0
16769995	9310	0	0	-100	0	230	101300000	1000	0	0	-1	0
16782555	9302	0	0	-100	0	230	101300000	1000	0	0	-1	0
16795115	9310	0	0	-100	0	230	101300000	1000	0	0	-1	0
16807675	9307	0	0	-100	0	230	101300000	1000	0	0	-1	0
16820235	9305	0	0	-100	0	230	101300000	1000	0	0	-1	0
16832795	9302	4	0	-100	0	230	101300000	1000	0	0	-1	0
16845355	9302	1	0	-100	0	230	101300000	1000	0	0	-1	0
16857915	9307	0	0	-100	0	230	101300000	1000	0	0	-1	0
16870475	9307	0	0	-100	0	230	101300000	1000	0	0	-1	0
16883035	9300	0	0	-100	0	230	101300000	1000	0	0	-1	0
16895595	9300	4	0	-100	0	230	101300000	1000	0	0	-1	0
16908155	9305	0	0	-100	0	230	101300000	1000	0	0	-1	0
16920715	9307	0	0	-100	0	230	101300000	1000	0	0	-1	0
16933275	9310	0	0	-100	0	230	101300000	1000	0	0	-1	0
16945835	9307	0	0	-100	0	230	101300000	1000	0	0	-1	0
16958395	9300	0	0	-100	0	230	101300000	1000	0	0	-1	0
16970955	9295	0	0	-100	0	230	101300000	1000	0	0	-1	0
16983515	9305	3	0	-100	0	230	101300000	1000	0	0	-1	0
16996075	9297	3	0	-100	0	230	101300000	1000	0	0	-1	0
17008635	9307	0	0	-100	0	230	101300000	1000	0	0	-1	0
17021195	9310	0	0	-100	0	230	101300000	1000	0	0	-1	0
17033755	9310	0	0	-100	0	230	101300000	1000	0	0	-1	0
17046315	9305	0	0	-100	0	230	101300000	1000	0	0	-1	0
17058875	9302	0	0	-100	0	230	101300000	1000	0	0	-1	0
17071435	9305	0	0	-100	0	230	101300000	1000	0	0	-1	0
17083995	9302	0	0	-100	0	230	101300000	1000	0	0	-1	0
17096555	9300	3	0	-100	0	230	101300000	1000	0	0	-1	0
17109115	9310	0	0	-100	0	230	101300000	1000	0	0	-1	0
17121675	9307	0	0	-100	0	230	101300000	1000	0	0	-1	0
17134235	9305	0	0	-100	0	230	101300000	1000	0	0	-1	0
17146795	9297	0	0	-100	0	230	101300000	1000	0	0	-1	0
17159355	9302	0	0	-100	0	230	101300000	1000	0	0	-1	0
17171915	9307	1	0	-100	0	230	101300000	1000	0	0	-1	0
17184475	9307	0	0	-100	0	230	101300000	1000	0	0	-1	0
17197035	9310	0	0	-100	0	230	101300000	1000	0	0	-1	0
17209595	9307	0	0	-100	0	230	101300000	1000	0	0	-1	0
17222155	9305	3	0	-100	0	230	101300000	1000	0	0	-1	0
17234715	9302	1	0	-100	0	230	101300000	1000	0	0	-1	0
17247275	9305	0	0	-100	0	230	101300000	1000	0	0	-1	0
17259835	9302	0	0	-100	0	230	101300000	1000	0	0	-1	0
17272395	9307	0	0	-100	0	230	101300000	1000	0	0	-1	0
17284955	9302	0	0	-100	0	230	101300000	1000	0	0	-1	0
17297515	9302	4	0	-100	0	230	101300000	1000	0	0	-1	0
17310075	9307	4	0	-100	0	230	101300000	1000	0	0	-1	0
17322635	9305	0	0	-100	0	230	101300000	1000	0	0	-1	0
17335195	9307	0	0	-100	0	230	101300000	1000	0	0	-1	0
17347755	9302	0	0	-100	0	230	101300000	1000	0	0	-1	0
17360315	9307	0	0	-100	0	230	101300000	1000	0	0	-1	0
17372875	9300	4	0	-100	0	230	101300000	1000	0	0	-1	0
17385435	9302	3	0	-100	0	230	101300000	1000	0	0	-1	0
17397995	9302	0	0	-100	0	230	101300000	1000	0	0	-1	0
17410555	9315	0	0	-100	0	230	101300000	1000	0	0	-1	0
17423115	9302	0	0	-100	0	230	101300000	1000	0	0	-1	0
17435675	9312	0	0	-100	0	230	101300000	1000	0	0	-1	0
17448235	9307	0	0	-100	0	230	101300000	1000	0	0	-1	0
17460795	9302	4	0	-100	0	230	101300000	1000	0	0	-1	0
17473355	9305	0	0	-100	0	230	101300000	1000	0	0	-1	0
17485915	9310	0	0	-100	0	230	101300000	1000	0	0	-1	0
17498475	9302	0	0	-100	0	230	101300000	1000	0	0	-1	0
17511035	9300	0	0	-100	0	230	101300000	1000	0	0	-1	0
17523595	9297	0	0	-100	0	230	101300000	1000	0	0	-1	0
17536155	9302	3	0	-100	0	230	101300000	1000	0	0	-1	0
17548715	9307	0	0	-100	0	230	101300000	1000	0	0	-1	0
17561275	9305	0	0	-100	0	230	101300000	1000	0	0	-1	0
17573835	9307	0	0	-100	0	230	101300000	1000	0	0	-1	0
17586395	9307	0	0	-100	0	230	101300000	1000	0	0	-1	0
17598955	9307	0	0	-100	0	230	101300000	1000	0	0	-1	0
17611515	9310	0	0	-100	0	230	101300000	1000	0	0	-1	0
17624075	9307	0	0	-100	0	230	101300000	1000	0	0	-1	0
17636635	9302	0	0	-100	0	230	101300000	1000	0	0	-1	0
17649195	9297	0	0	-100	0	230	101300000	1000	0	0	-1	0
17661755	9302	4	0	-100	0	230	101300000	1000	0	0	-1	0
17674315	9300	2	0	-100	0	230	101300000	1000	0	0	-1	0
17686875	9310	0	0	-100	0	230	101300000	1000	0	0	-1	0
17699435	9315	0	0	-100	0	230	101300000	1000	0	0	-1	0
17711995	9310	2	0	-100	0	230	101300000	1000	0	0	-1	0
17724555	9305	0	0	-100	0	230	101300000	1000	0	0	-1	0
17737115	9302	0	0	-100	0	230	101300000	1000	0	0	-1	0
17749675	9305	1	0	-100	0	230	101300000	1000	0	0	-1	0
17762235	9305	4	0	-100	0	230	101300000	1000	0	0	-1	0
17774795	9302	1	0	-100	0	230	101300000	1000	0	0	-1	0
17787355	9320	0	0	-100	0	230	101300000	1000	0	0	-1	0
17799915	9310	0	0	-100	0	230	101300000	1000	0	0	-1	0
17812475	9307	0	0	-100	0	230	101300000	1000	0	0	-1	0
17825035	9295	0	0	-100	0	230	101300000	1000	0	0	-1	0
17837595	9305	2	0	-100	0	230	101300000	1000	0	0	-1	0
17850155	9310	0	0	-100	0	230	101300000	1000	0	0	-1	0
17862715	9307	0	0	-100	0	230	101300000	1000	0	0	-1	0
17875275	9310	0	0	-100	0	230	101300000	1000	0	0	-1	0
17887835	9302	0	0	-100	0	230	101300000	1000	0	0	-1	0
17900395	9305	4	0	-100	0	230	101300000	1000	0	0	-1	0
17912955	9307	0	0	-100	0	230	101300000	1000	0	0	-1	0
17925515	9305	0	0	-100	0	230	101300000	1000	0	0	-1	0
17938075	9295	0	0	-100	0	230	101300000	1000	0	0	-1	0
17950635	9305	1	0	-100	0	230	101300000	1000	0	0	-1	0
17963195	9310	0	0	-100	0	230	101300000	1000	0	0	-1	0
17975755	9305	0	0	-100	0	230	101300000	1000	0	0	-1	0
17988315	9300	4	0	-100	0	230	101300000	1000	0	0	-1	0
18000875	9307	0	0	-100	0	230	101300000	1000	0	0	-1	0
18013435	9310	0	0	-100	0	230	101300000	1000	0	0	-1	0
18025995	9305	0	0	-100	0	230	101300000	1000	0	0	-1	0
18038555	9305	0	0	-100	0	230	101300000	1000	0	0	-1	0
18051115	9307	0	0	-100	0	230	101300000	1000	0	0	-1	0
18063675	9297	1	0	-100	0	230	101300000	1000	0	0	-1	0
18076235	9302	0	0	-100	0	230	101300000	1000	0	0	-1	0
18088795	9307	0	0	-100	0	230	101300000	1000	0	0	-1	0
18101355	9305	0	0	-100	0	230	101300000	1000	0	0	-1	0
18113915	9310	2	0	-100	0	230	101300000	1000	0	0	-1	0
18126475	9312	0	0	-100	0	230	101300000	1000	0	0	-1	0
18139035	9307	0	0	-100	0	230	101300000	1000	0	0	-1	0
18151595	9302	0	0	-100	0	230	101300000	1000	0	0	-1	0
18164155	9310	1	0	-100	0	230	101300000	1000	0	0	-1	0
18176715	9307	0	0	-100	0	230	101300000	1000	0	0	-1	0
18189275	9305	0	0	-100	0	230	101300000	1000	0	0	-1	0
18201835	9305	0	0	-100	0	230	101300000	1000	0	0	-1	0
18214395	9302	1	0	-100	0	230	101300000	1000	0	0	-1	0
18226955	9312	0	0	-100	0	230	101300000	1000	0	0	-1	0
18239515	9305	0	0	-100	0	230	101300000	1000	0	0	-1	0
18252075	9305	0	0	-100	0	230	101300000	1000	0	0	-1	0
18264635	9302	2	0	-100	0	230	101300000	1000	0	0	-1	0
18277195	9312	0	0	-100	0	230	101300000	1000	0	0	-1	0
18289755	9312	0	0	-100	0	230	101300000	1000	0	0	-1	0
18302315	9307	0	0	-100	0	230	101300000	1000	0	0	-1	0
18314875	9302	1	0	-100	0	230	101300000	1000	0	0	-1	0
18327435	9305	2	0	-100	0	230	101300000	1000	0	0	-1	0
18339995	9305	3	0	-100	0	230	101300000	1000	0	0	-1	0
18352555	9310	0	0	-100	0	230	101300000	1000	0	0	-1	0
18365115	9307	0	0	-100	0	230	101300000	1000	0	0	-1	0
18377675	9297	0	0	-100	0	230	101300000	1000	0	0	-1	0
18390235	9307	4	0	-100	0	230	101300000	1000	0	0	-1	0
18402795	9305	0	0	-100	0	230	101300000	1000	0	0	-1	0
18415355	9310	0	0	-100	0	230	101300000	1000	0	0	-1	0
18427915	9302	0	0	-100	0	230	101300000	1000	0	0	-1	0
18440475	9302	3	0	-100	0	230	101300000	1000	0	0	-1	0
18453035	9310	0	0	-100	0	230	101300000	1000	0	0	-1	0
18465595	9300	0	0	-100	0	230	101300000	1000	0	0	-1	0
18478155	9312	0	0	-100	0	230	101300000	1000	0	0	-1	0
18490715	9302	0	0	-100	0	230	101300000	1000	0	0	-1	0
18503275	9297	0	0	-100	0	230	101300000	1000	0	0	-1	0
18515835	9305	2	0	-100	0	230	101300000	1000	0	0	-1	0
18528395	9302	3	0	-100	0	230	101300000	1000	0	0	-1	0
18540955	9305	0	0	-100	0	230	101300000	1000	0	0	-1	0
18553515	9307	0	0	-100	0	230	101300000	1000	0	0	-1	0
18566075	9310	0	0	-100	0	230	101300000	1000	0	0	-1	0
18578635	9300	0	0	-100	0	230	101300000	1000	0	0	-1	0
18591195	9297	0	0	-100	0	230	101300000	1000	0	0	-1	0
18603755	9297	5	0	-100	0	230	101300000	1000	0	0	-1	0
18616315	9307	0	0	-100	0	230	101300000	1000	0	0	-1	0
18628875	9310	0	0	-100	0	230	101300000	1000	0	0	-1	0
18641435	9305	0	0	-100	0	230	101300000	1000	0	0	-1	0
18653995	9302	0	0	-100	0	230	101300000	1000	0	0	-1	0
18666555	9307	4	0	-100	0	230	101300000	1000	0	0	-1	0
18679115	9305	0	0	-100	0	230	101300000	1000	0	0	-1	0
18691675	9312	0	0	-100	0	230	101300000	1000	0	0	-1	0
18704235	9305	0	0	-100	0	230	101300000	1000	0	0	-1	0
18716795	9297	0	0	-100	0	230	101300000	1000	0	0	-1	0
18729355	9305	4	0	-100	0	230	101300000	1000	0	0	-1	0
18741915	9307	0	0	-100	0	230	101300000	1000	0	0	-1	0
18754475	9307	0	0	-100	0	230	101300000	1000	0	0	-1	0
18767035	9307	0	0	-100	0	230	101300000	1000	0	0	-1	0
18779595	9302	0	0	-100	0	230	101300000	1000	0	0	-1	0
18792155	9310	0	0	-100	0	230	101300000	1000	0	0	-1	0
18804715	9300	0	0	-100	0	230	101300000	1000	0	0	-1	0
18817275	9300	0	0	-100	0	230	101300000	1000	0	0	-1	0
18829835	9307	2	0	-100	0	230	101300000	1000	0	0	-1	0
18842395	9302	2	0	-100	0	230	101300000	1000	0	0	-1	0
18854955	9302	0	0	-100	0	230	101300000	1000	0	0	-1	0
18867515	9307	0	0	-100	0	230	101300000	1000	0	0	-1	0
18880075	9312	0	0	-100	0	230	101300000	1000	0	0	-1	0
18892635	9312	0	0	-100	0	230	101300000	1000	0	0	-1	0
18905195	9307	0	0	-100	0	230	101300000	1000	0	0	-1	0
18917755	9302	0	0	-100	0	230	101300000	1000	0	0	-1	0
18930315	9310	0	0	-100	0	230	101300000	1000	0	0	-1	0
18942875	9305	0	0	-100	0	230	101300000	1000	0	0	-1	0
18955435	9302	0	0	-100	0	230	101300000	1000	0	0	-1	0
18967995	9297	0	0	-100	0	230	101300000	1000	0	0	-1	0
18980555	9302	3	0	-100	0	230	101300000	1000	0	0	-1	0
18993115	9305	0	0	-100	0	230	101300000	1000	0	0	-1	0
19005675	9305	0	0	-100	0	230	101300000	1000	0	0	-1	0
19018235	9307	0	0	-100	0	230	101300000	1000	0	0	-1	0
19030795	9310	0	0	-100	0	230	101300000	1000	0	0	-1	0
19043355	9307	0	0	-100	0	230	101300000	1000	0	0	-1	0
19055915	9302	0	0	-100	0	230	101300000	1000	0	0	-1	0
19068475	9300	0	0	-100	0	230	101300000	1000	0	0	-1	0
19081035	9307	2	0	-100	0	230	101300000	1000	0	0	-1	0
19093595	9307	0	0	-100	0	230	101300000	1000	0	0	-1	0
19106155	9307	0	0	-100	0	230	101300000	1000	0	0	-1	0
19118715	9302	0	0	-100	0	230	101300000	1000	0	0	-1	0
19131275	9307	0	0	-100	0	230	101300000	1000	0	0	-1	0
19143835	9302	0	0	-100	0	230	101300000	1000	0	0	-1	0
19156395	9305	3	0	-100	0	230	101300000	1000	0	0	-1	0
19168955	9305	0	0	-100	0	230	101300000	1000	0	0	-1	0
19181515	9302	0	0	-100	0	230	101300000	1000	0	0	-1	0
19194075	9302	0	0	-100	0	230	101300000	1000	0	0	-1	0
19206635	9302	0	0	-100	0	230	101300000	1000	0	0	-1	0
19219195	9305	2	0	-100	0	230	101300000	1000	0	0	-1	0
19231755	9307	0	0	-100	0	230	101300000	1000	0	0	-1	0
19244315	9310	0	0	-100	0	230	101300000	1000	0	0	-1	0
19256875	9307	0	0	-100	0	230	101300000	1000	0	0	-1	0
19269435	9305	0	0	-100	0	230	101300000	1000	0	0	-1	0
19281995	9300	0	0	-100	0	230	101300000	1000	0	0	-1	0
19294555	9302	4	0	-100	0	230	101300000	1000	0	0	-1	0
19307115	9310	0	0	-100	0	230	101300000	1000	0	0	-1	0
19319675	9310	0	0	-100	0	230	101300000	1000	0	0	-1	0
19332235	9305	0	0	-100	0	230	101300000	1000	0	0	-1	0
19344795	9297	1	0	-100	0	230	101300000	1000	0	0	-1	0
19357355	9305	0	0	-100	0	230	101300000	1000	0	0	-1	0
19369915	9300	0	0	-100	0	230	101300000	1000	0	0	-1	0
19382475	9302	2	0	-100	0	230	101300000	1000	0	0	-1	0
19395035	9315	0	0	-100	0	230	101300000	1000	0	0	-1	0
19407595	9305	0	0	-100	0	230	101300000	1000	0	0	-1	0
19420155	9300	0	0	-100	0	230	101300000	1000	0	0	-1	0
19432715	9305	2	0	-100	0	230	101300000	1000	0	0	-1	0
19445275	9307	0	0	-100	0	230	101300000	1000	0	0	-1	0
19457835	9310	0	0	-100	0	230	101300000	1000	0	0	-1	0
19470395	9307	0	0	-100	0	230	101300000	1000	0	0	-1	0
19482955	9295	0	0	-100	0	230	101300000	1000	0	0	-1	0
19495515	9297	0	0	-100	0	230	101300000	1000	0	0	-1	0
19508075	9300	4	0	-100	0	230	101300000	1000	0	0	-1	0
19520635	9310	0	0	-100	0	230	101300000	1000	0	0	-1	0
19533195	9305	0	0	-100	0	230	101300000	1000	0	0	-1	0
19545755	9300	3	0	-100	0	230	101300000	1000	0	0	-1	0
19558315	9310	0	0	-100	0	230	101300000	1000	0	0	-1	0
19570875	9305	0	0	-100	0	230	101300000	1000	0	0	-1	0
19583435	9302	3	0	-100	0	230	101300000	1000	0	0	-1	0
19595995	9307	0	0	-100	0	230	101300000	1000	0	0	-1	0
19608555	9310	0	0	-100	0	230	101300000	1000	0	0	-1	0
19621115	9305	0	0	-100	0	230	101300000	1000	0	0	-1	0
19633675	9300	3	0	-100	0	230	101300000	1000	0	0	-1	0
19646235	9302	0	0	-100	0	230	101300000	1000	0	0	-1	0
19658795	9300	0	0	-100	0	230	101300000	1000	0	0	-1	0
19671355	9302	1	0	-100	0	230	101300000	1000	0	0	-1	0
19683915	9307	0	0	-100	0	230	101300000	1000	0	0	-1	0
19696475	9305	0	0	-100	0	230	101300000	1000	0	0	-1	0
19709035	9305	3	0	-100	0	230	101300000	1000	0	0	-1	0
19721595	9302	0	0	-100	0	230	101300000	1000	0	0	-1	0
19734155	9307	0	0	-100	0	230	101300000	1000	0	0	-1	0
19746715	9305	3	0	-100	0	230	101300000	1000	0	0	-1	0
19759275	9307	0	0	-100	0	230	101300000	1000	0	0	-1	0
19771835	9310	0	0	-100	0	230	101300000	1000	0	0	-1	0
19784395	9300	0	0	-100	0	230	101300000	1000	0	0	-1	0
19796955	9302	4	0	-100	0	230	101300000	1000	0	0	-1	0
19809515	9315	0	0	-100	0	230	101300000	1000	0	0	-1	0
19822075	9302	0	0	-100	0	230	101300000	1000	0	0	-1	0
19834635	9307	3	0	-100	0	230	101300000	1000	0	0	-1	0
19847195	9307	0	0	-100	0	230	101300000	1000	0	0	-1	0
19859755	9302	0	0	-100	0	230	101300000	1000	0	0	-1	0
19872315	9300	0	0	-100	0	230	101300000	1000	0	0	-1	0
19884875	9302	4	0	-100	0	230	101300000	1000	0	0	-1	0
19897435	9310	0	0	-100	0	230	101300000	1000	0	0	-1	0
19909995	9300	0	0	-100	0	230	101300000	1000	0	0	-1	0
19922555	9300	3	0	-100	0	230	101300000	1000	0	0	-1	0
19935115	9305	0	0	-100	0	230	101300000	1000	0	0	-1	0
19947675	9310	0	0	-100	0	230	101300000	1000	0	0	-1	0
19960235	9295	0	0	-100	0	230	101300000	1000	0	0	-1	0
19972795	9307	0	0	-100	0	230	101300000	1000	0	0	-1	0
19985355	9310	0	0	-100	0	230	101300000	1000	0	0	-1	0
19997915	9297	0	0	-100	0	230	101300000	1000	0	0	-1	0
20010475	9305	0	0	-100	0	230	101300000	1000	0	0	-1	0
20023035	9310	0	0	-100	0	230	101300000	1000	0	0	-1	0
20035595	9310	0	0	-100	0	230	101300000	1000	0	0	-1	0
20048155	9307	0	0	-100	0	230	101300000	1000	0	0	-1	0
20060715	9300	0	0	-100	0	230	101300000	1000	0	0	-1	0
20073275	9307	3	0	-100	0	230	101300000	1000	0	0	-1	0
20085835	9302	4	0	-100	0	230	101300000	1000	0	0	-1	0
20098395	9302	1	0	-100	0	230	101300000	1000	0	0	-1	0
20110955	9307	0	0	-100	0	230	101300000	1000	0	0	-1	0
20123515	9312	0	0	-100	0	230	101300000	1000	0	0	-1	0
20136075	9310	0	0	-100	0	230	101300000	1000	0	0	-1	0
20148635	9300	0	0	-100	0	230	101300000	1000	0	0	-1	0
20161195	9300	4	0	-100	0	230	101300000	1000	0	0	-1	0
20173755	9310	0	0	-100	0	230	101300000	1000	0	0	-1	0
20186315	9310	0	0	-100	0	230	101300000	1000	0	0	-1	0
20198875	9307	0	0	-100	0	230	101300000	1000	0	0	-1	0
20211435	9300	0	0	-100	0	230	101300000	1000	0	0	-1	0
20223995	9300	0	0	-100	0	230	101300000	1000	0	0	-1	0
20236555	9305	0	0	-100	0	230	101300000	1000	0	0	-1	0
20249115	9307	0	0	-100	0	230	101300000	1000	0	0	-1	0
20261675	9305	0	0	-100	0	230	101300000	1000	0	0	-1	0
20274235	9300	0	0	-100	0	230	101300000	1000	0	0	-1	0
20286795	9307	1	0	-100	0	230	101300000	1000	0	0	-1	0
20299355	9300	2	0	-100	0	230	101300000	1000	0	0	-1	0
20311915	9312	0	0	-100	0	230	101300000	1000	0	0	-1	0
20324475	9305	0	0	-100	0	230	101300000	1000	0	0	-1	0
20337035	9310	0	0	-100	0	230	101300000	1000	0	0	-1	0
20349595	9302	0	0	-100	0	230	101300000	1000	0	0	-1	0
20362155	9305	0	0	-100	0	230	101300000	1000	0	0	-1	0
20374715	9305	0	0	-100	0	230	101300000	1000	0	0	-1	0
20387275	9305	0	0	-100	0	230	101300000	1000	0	0	-1	0
20399835	9300	0	0	-100	0	230	101300000	1000	0	0	-1	0
20412395	9300	0	0	-100	0	230	101300000	1000	0	0	-1	0
20424955	9302	4	0	-100	0	230	101300000	1000	0	0	-1	0
20437515	9302	3	0	-100	0	230	101300000	1000	0	0	-1	0
20450075	9300	0	0	-100	0	230	101300000	1000	0	0	-1	0
20462635	9305	0	0	-100	0	230	101300000	1000	0	0	-1	0
20475195	9307	0	0	-100	0	230	101300000	1000	0	0	-1	0
20487755	9305	0	0	-100	0	230	101300000	1000	0	0	-1	0
20500315	9302	0	0	-100	0	230	101300000	1000	0	0	-1	0
20512875	9305	0	0	-100	0	230	101300000	1000	0	0	-1	0
20525435	9295	0	0	-100	0	230	101300000	1000	0	0	-1	0
20537995	9305	0	0	-100	0	230	101300000	1000	0	0	-1	0
20550555	9305	3	0	-100	0	230	101300000	1000	0	0	-1	0
20563115	9307	0	0	-100	0	230	101300000	1000	0	0	-1	0
20575675	9305	0	0	-100	0	230	101300000	1000	0	0	-1	0
20588235	9310	0	0	-100	0	230	101300000	1000	0	0	-1	0
20600795	9307	0	0	-100	0	230	101300000	1000	0	0	-1	0
20613355	9307	0	0	-100	0	230	101300000	1000	0	0	-1	0
20625915	9302	0	0	-100	0	230	101300000	1000	0	0	-1	0
20638475	9307	0	0	-100	0	230	101300000	1000	0	0	-1	0
20651035	9300	0	0	-100	0	230	101300000	1000	0	0	-1	0
20663595	9302	4	0	-100	0	230	101300000	1000	0	0	-1	0
20676155	9307	3	0	-100	0	230	101300000	1000	0	0	-1	0
20688715	9302	1	0	-100	0	230	101300000	1000	0	0	-1	0
20701275	9310	0	0	-100	0	230	101300000	1000	0	0	-1	0
20713835	9310	0	0	-100	0	230	101300000	1000	0	0	-1	0
20726395	9305	0	0	-100	0	230	101300000	1000	0	0	-1	0
20738955	9297	0	0	-100	0	230	101300000	1000	0	0	-1	0
20751515	9300	4	0	-100	0	230	101300000	1000	0	0	-1	0
20764075	9302	1	0	-100	0	230	101300000	1000	0	0	-1	0
20776635	9305	0	0	-100	0	230	101300000	1000	0	0	-1	0
20789195	9310	0	0	-100	0	230	101300000	1000	0	0	-1	0
20801755	9307	0	0	-100	0	230	101300000	1000	0	0	-1	0
20814315	9302	0	0	-100	0	230	101300000	1000	0	0	-1	0
20826875	9305	1	0	-100	0	230	101300000	1000	0	0	-1	0
20839435	9307	1	0	-100	0	230	101300000	1000	0	0	-1	0
20851995	9307	0	0	-100	0	230	101300000	1000	0	0	-1	0
20864555	9307	0	0	-100	0	230	101300000	1000	0	0	-1	0
20877115	9310	0	0	-100	0	230	101300000	1000	0	0	-1	0
20889675	9302	0	0	-100	0	230	101300000	1000	0	0	-1	0
20902235	9307	5	0	-100	0	230	101300000	1000	0	0	-1	0
20914795	9302	1	0	-100	0	230	101300000	1000	0	0	-1	0
20927355	9312	0	0	-100	0	230	101300000	1000	0	0	-1	0
20939915	9307	0	0	-100	0	230	101300000	1000	0	0	-1	0
20952475	9302	0	0	-100	0	230	101300000	1000	0	0	-1	0
20965035	9300	4	0	-100	0	230	101300000	1000	0	0	-1	0
20977595	9305	1	0	-100	0	230	101300000	1000	0	0	-1	0
20990155	9315	0	0	-100	0	230	101300000	1000	0	0	-1	0
21002715	9307	0	0	-100	0	230	101300000	1000	0	0	-1	0
21015275	9300	0	0	-100	0	230	101300000	1000	0	0	-1	0
21027835	9300	4	0	-100	0	230	101300000	1000	0	0	-1	0
21040395	9302	0	0	-100	0	230	101300000	1000	0	0	-1	0
21052955	9315	0	0	-100	0	230	101300000	1000	0	0	-1	0
21065515	9300	0	0	-100	0	230	101300000	1000	0	0	-1	0
21078075	9302	4	0	-100	0	230	101300000	1000	0	0	-1	0
21090635	9307	1	0	-100	0	230	101300000	1000	0	0	-1	0
21103195	9305	0	0	-100	0	230	101300000	1000	0	0	-1	0
21115755	9307	0	0	-100	0	230	101300000	1000	0	0	-1	0
21128315	9305	0	0	-100	0	230	101300000	1000	0	0	-1	0
21140875	9302	0	0	-100	0	230	101300000	1000	0	0	-1	0
21153435	9302	0	0	-100	0	230	101300000	1000	0	0	-1	0
21165995	9297	0	0	-100	0	230	101300000	1000	0	0	-1	0
21178555	9297	0	0	-100	0	230	101300000	1000	0	0	-1	0
21191115	9305	4	0	-100	0	230	101300000	1000	0	0	-1	0
21203675	9305	2	0	-100	0	230	101300000	1000	0	0	-1	0
21216235	9300	0	0	-100	0	230	101300000	1000	0	0	-1	0
21228795	9312	0	0	-100	0	230	101300000	1000	0	0	-1	0
21241355	9307	0	0	-100	0	230	101300000	1000	0	0	-1	0
21253915	9307	0	0	-100	0	230	101300000	1000	0	0	-1	0
21266475	9310	0	0	-100	0	230	101300000	1000	0	0	-1	0
21279035	9305	0	0	-100	0	230	101300000	1000	0	0	-1	0
21291595	9300	0	0	-100	0	230	101300000	1000	0	0	-1	0
21304155	9293	0	0	-100	0	230	101300000	1000	0	0	-1	0
21316715	9302	4	0	-100	0	230	101300000	1000	0	0	-1	0
21329275	9302	4	0	-100	0	230	101300000	1000	0	0	-1	0
21341835	9305	0	0	-100	0	230	101300000	1000	0	0	-1	0
21354395	9307	0	0	-100	0	230	101300000	1000	0	0	-1	0
21366955	9310	0	0	-100	0	230	101300000	1000	0	0	-1	0
21379515	9302	0	0	-100	0	230	101300000	1000	0	0	-1	0
21392075	9297	0	0	-100	0	230	101300000	1000	0	0	-1	0
21404635	9307	0	0	-100	0	230	101300000	1000	0	0	-1	0
21417195	9305	4	0	-100	0	230	101300000	1000	0	0	-1	0
21429755	9307	2	0	-100	0	230	101300000	1000	0	0	-1	0
21442315	9305	0	0	-100	0	230	101300000	1000	0	0	-1	0
21454875	9310	0	0	-100	0	230	101300000	1000	0	0	-1	0
21467435	9307	0	0	-100	0	230	101300000	1000	0	0	-1	0
21479995	9305	0	0	-100	0	230	101300000	1000	0	0	-1	0
21492555	9302	0	0	-100	0	230	101300000	1000	0	0	-1	0
21505115	9295	0	0	-100	0	230	101300000	1000	0	0	-1	0
21517675	9305	3	0	-100	0	230	101300000	1000	0	0	-1	0
21530235	9305	0	0	-100	0	230	101300000	1000	0	0	-1	0
21542795	9305	1	0	-100	0	230	101300000	1000	0	0	-1	0
21555355	9302	0	0	-100	0	230	101300000	1000	0	0	-1	0
21567915	9302	0	0	-100	0	230	101300000	1000	0	0	-1	0
21580475	9300	2	0	-100	0	230	101300000	1000	0	0	-1	0
21593035	9305	0	0	-100	0	230	101300000	1000	0	0	-1	0
21605595	9305	0	0	-100	0	230	101300000	1000	0	0	-1	0
21618155	9312	0	0	-100	0	230	101300000	1000	0	0	-1	0
21630715	9310	0	0	-100	0	230	101300000	1000	0	0	-1	0
21643275	9307	0	0	-100	0	230	101300000	1000	0	0	-1	0
21655835	9305	0	0	-100	0	230	101300000	1000	0	0	-1	0
21668395	9310	0	0	-100	0	230	101300000	1000	0	0	-1	0
21680955	9302	0	0	-100	0	230	101300000	1000	0	0	-1	0
21693515	9305	0	0	-100	0	230	101300000	1000	0	0	-1	0
21706075	9307	1	0	-100	0	230	101300000	1000	0	0	-1	0
21718635	9307	0	0	-100	0	230	101300000	1000	0	0	-1	0
21731195	9315	0	0	-100	0	230	101300000	1000	0	0	-1	0
21743755	9307	0	0	-100	0	230	101300000	1000	0	0	-1	0
21756315	9305	0	0	-100	0	230	101300000	1000	0	0	-1	0
21768875	9305	0	0	-100	0	230	101300000	1000	0	0	-1	0
21781435	9305	0	0	-100	0	230	101300000	1000	0	0	-1	0
21793995	9297	0	0	-100	0	230	101300000	1000	0	0	-1	0
21806555	9300	3	0	-100	0	230	101300000	1000	0	0	-1	0
21819115	9300	0	0	-100	0	230	101300000	1000	0	0	-1	0
21831675	9305	0	0	-100	0	230	101300000	1000	0	0	-1	0
21844235	9305	0	0	-100	0	230	101300000	1000	0	0	-1	0
21856795	9302	0	0	-100	0	230	101300000	1000	0	0	-1	0
21869355	9305	2	0	-100	0	230	101300000	1000	0	0	-1	0
21881915	9302	0	0	-100	0	230	101300000	1000	0	0	-1	0
21894475	9310	0	0	-100	0	230	101300000	1000	0	0	-1	0
21907035	9307	0	0	-100	0	230	101300000	1000	0	0	-1	0
21919595	9305	0	0	-100	0	230	101300000	1000	0	0	-1	0
21932155	9305	3	0	-100	0	230	101300000	1000	0	0	-1	0
21944715	9302	0	0	-100	0	230	101300000	1000	0	0	-1	0
21957275	9295	0	0	-100	0	230	101300000	1000	0	0	-1	0
21969835	9302	2	0	-100	0	230	101300000	1000	0	0	-1	0
21982395	9310	0	0	-100	0	230	101300000	1000	0	0	-1	0
21994955	9310	0	0	-100	0	230	101300000	1000	0	0	-1	0
22007515	9305	0	0	-100	0	230	101300000	1000	0	0	-1	0
22020075	9305	4	0	-100	0	230	101300000	1000	0	0	-1	0
22032635	9302	2	0	-100	0	230	101300000	1000	0	0	-1	0
22045195	9307	0	0	-100	0	230	101300000	1000	0	0	-1	0
22057755	9307	0	0	-100	0	230	101300000	1000	0	0	-1	0
22070315	9305	0	0	-100	0	230	101300000	1000	0	0	-1	0
22082875	9302	0	0	-100	0	230	101300000	1000	0	0	-1	0
22095435	9300	3	0	-100	0	230	101300000	1000	0	0	-1	0
22107995	9305	4	0	-100	0	230	101300000	1000	0	0	-1	0
22120555	9305	0	0	-100	0	230	101300000	1000	0	0	-1	0
22133115	9302	0	0	-100	0	230	101300000	1000	0	0	-1	0
22145675	9300	4	0	-100	0	230	101300000	1000	0	0	-1	0
22158235	9300	0	0	-100	0	230	101300000	1000	0	0	-1	0
22170795	9307	0	0	-100	0	230	101300000	1000	0	0	-1	0
22183355	9297	0	0	-100	0	230	101300000	1000	0	0	-1	0
22195915	9297	0	0	-100	0	230	101300000	1000	0	0	-1	0
22208475	9302	0	0	-100	0	230	101300000	1000	0	0	-1	0
22221035	9302	3	0	-100	0	230	101300000	1000	0	0	-1	0
22233595	9305	3	0	-100	0	230	101300000	1000	0	0	-1	0
22246155	9307	3	0	-100	0	230	101300000	1000	0	0	-1	0
22258715	9302	0	0	-100	0	230	101300000	1000	0	0	-1	0
22271275	9310	0	0	-100	0	230	101300000	1000	0	0	-1	0
22283835	9307	0	0	-100	0	230	101300000	1000	0	0	-1	0
22296395	9307	0	0	-100	0	230	101300000	1000	0	0	-1	0
22308955	9305	0	0	-100	0	230	101300000	1000	0	0	-1	0
22321515	9300	5	0	-100	0	230	101300000	1000	0	0	-1	0
22334075	9305	1	0	-100	0	230	101300000	1000	0	0	-1	0
22346635	9310	0	0	-100	0	230	101300000	1000	0	0	-1	0
22359195	9307	0	0	-100	0	230	101300000	1000	0	0	-1	0
22371755	9297	0	0	-100	0	230	101300000	1000	0	0	-1	0
22384315	9297	4	0	-100	0	230	101300000	1000	0	0	-1	0
22396875	9307	0	0	-100	0	230	101300000	1000	0	0	-1	0
22409435	9305	0	0	-100	0	230	101300000	1000	0	0	-1	0
22421995	9302	1	0	-100	0	230	101300000	1000	0	0	-1	0
22434555	9307	0	0	-100	0	230	101300000	1000	0	0	-1	0
22447115	9297	0	0	-100	0	230	101300000	1000	0	0	-1	0
22459675	9300	4	0	-100	0	230	101300000	1000	0	0	-1	0
22472235	9312	0	0	-100	0	230	101300000	1000	0	0	-1	0
22484795	9305	0	0	-100	0	230	101300000	1000	0	0	-1	0
22497355	9300	0	0	-100	0	230	101300000	1000	0	0	-1	0
22509915	9302	2	0	-100	0	230	101300000	1000	0	0	-1	0
22522475	9307	0	0	-100	0	230	101300000	1000	0	0	-1	0
22535035	9312	0	0	-100	0	230	101300000	1000	0	0	-1	0
22547595	9297	0	0	-100	0	230	101300000	1000	0	0	-1	0
22560155	9302	2	0	-100	0	230	101300000	1000	0	0	-1	0
22572715	9307	0	0	-100	0	230	101300000	1000	0	0	-1	0
22585275	9302	0	0	-100	0	230	101300000	1000	0	0	-1	0
22597835	9305	5	0	-100	0	230	101300000	1000	0	0	-1	0
22610395	9305	1	0	-100	0	230	101300000	1000	0	0	-1	0
22622955	9310	0	0	-100	0	230	101300000	1000	0	0	-1	0
22635515	9302	0	0	-100	0	230	101300000	1000	0	0	-1	0
22648075	9297	0	0	-100	0	230	101300000	1000	0	0	-1	0
22660635	9307	4	0	-100	0	230	101300000	1000	0	0	-1	0
22673195	9307	0	0	-100	0	230	101300000	1000	0	0	-1	0
22685755	9307	0	0	-100	0	230	101300000	1000	0	0	-1	0
22698315	9307	0	0	-100	0	230	101300000	1000	0	0	-1	0
22710875	9305	2	0	-100	0	230	101300000	1000	0	0	-1	0
22723435	9302	0	0	-100	0	230	101300000	1000	0	0	-1	0
22735995	9310	2	0	-100	0	230	101300000	1000	0	0	-1	0
22748555	9297	0	0	-100	0	230	101300000	1000	0	0	-1	0
22761115	9305	0	0	-100	0	230	101300000	1000	0	0	-1	0
22773675	9305	0	0	-100	0	230	101300000	1000	0	0	-1	0
22786235	9300	0	0	-100	0	230	101300000	1000	0	0	-1	0
22798795	9302	4	0	-100	0	230	101300000	1000	0	0	-1	0
22811355	9315	0	0	-100	0	230	101300000	1000	0	0	-1	0
22823915	9300	0	0	-100	0	230	101300000	1000	0	0	-1	0
22836475	9302	4	0	-100	0	230	101300000	1000	0	0	-1	0
22849035	9310	0	0	-100	0	230	101300000	1000	0	0	-1	0
22861595	9302	0	0	-100	0	230	101300000	1000	0	0	-1	0
22874155	9305	0	0	-100	0	230	101300000	1000	0	0	-1	0
22886715	9307	2	0	-100	0	230	101300000	1000	0	0	-1	0
22899275	9307	0	0	-100	0	230	101300000	1000	0	0	-1	0
22911835	9312	0	0	-100	0	230	101300000	1000	0	0	-1	0
22924395	9305	0	0	-100	0	230	101300000	1000	0	0	-1	0
22936955	9300	0	0	-100	0	230	101300000	1000	0	0	-1	0
22949515	9305	2	0	-100	0	230	101300000	1000	0	0	-1	0
22962075	9307	0	0	-100	0	230	101300000	1000	0	0	-1	0
22974635	9310	0	0	-100	0	230	101300000	1000	0	0	-1	0
22987195	9295	0	0	-100	0	230	101300000	1000	0	0	-1	0
22999755	9305	3	0	-100	0	230	101300000	1000	0	0	-1	0
23012315	9307	0	0	-100	0	230	101300000	1000	0	0	-1	0
23024875	9307	0	0	-100	0	230	101300000	1000	0	0	-1	0
23037435	9305	0	0	-100	0	230	101300000	1000	0	0	-1	0
23049995	9302	0	0	-100	0	230	101300000	1000	0	0	-1	0
23062555	9300	5	0	-100	0	230	101300000	1000	0	0	-1	0
23075115	9305	0	0	-100	0	230	101300000	1000	0	0	-1	0
23087675	9307	0	0	-100	0	230	101300000	1000	0	0	-1	0
23100235	9300	0	0	-100	0	230	101300000	1000	0	0	-1	0
23112795	9302	3	0	-100	0	230	101300000	1000	0	0	-1	0
23125355	9310	0	0	-100	0	230	101300000	1000	0	0	-1	0
23137915	9307	0	0	-100	0	230	101300000	1000	0	0	-1	0
23150475	9302	0	0	-100	0	230	101300000	1000	0	0	-1	0
23163035	9300	5	0	-100	0	230	101300000	1000	0	0	-1	0
23175595	9310	0	0	-100	0	230	101300000	1000	0	0	-1	0
23188155	9310	0	0	-100	0	230	101300000	1000	0	0	-1	0
23200715	9302	0	0	-100	0	230	101300000	1000	0	0	-1	0
23213275	9310	0	0	-100	0	230	101300000	1000	0	0	-1	0
23225835	9305	0	0	-100	0	230	101300000	1000	0	0	-1	0
23238395	9305	2	0	-100	0	230	101300000	1000	0	0	-1	0
23250955	9310	0	0	-100	0	230	101300000	1000	0	0	-1	0
23263515	9305	0	0	-100	0	230	101300000	1000	0	0	-1	0
23276075	9300	0	0	-100	0	230	101300000	1000	0	0	-1	0
23288635	9302	2	0	-100	0	230	101300000	1000	0	0	-1	0
23301195	9307	0	0	-100	0	230	101300000	1000	0	0	-1	0
23313755	9300	0	0	-100	0	230	101300000	1000	0	0	-1	0
23326315	9307	3	0	-100	0	230	101300000	1000	0	0	-1	0
23338875	9307	0	0	-100	0	230	101300000	1000	0	0	-1	0
23351435	9305	0	0	-100	0	230	101300000	1000	0	0	-1	0
23363995	9300	0	0	-100	0	230	101300000	1000	0	0	-1	0
23376555	9305	5	0	-100	0	230	101300000	1000	0	0	-1	0
23389115	9307	0	0	-100	0	230	101300000	1000	0	0	-1	0
23401675	9307	0	0	-100	0	230	101300000	1000	0	0	-1	0
23414235	9307	0	0	-100	0	230	101300000	1000	0	0	-1	0
23426795	9305	4	0	-100	0	230	101300000	1000	0	0	-1	0
23439355	9315	0	0	-100	0	230	101300000	1000	0	0	-1	0
23451915	9312	0	0	-100	0	230	101300000	1000	0	0	-1	0
23464475	9297	0	0	-100	0	230	101300000	1000	0	0	-1	0
23477035	9297	3	0	-100	0	230	101300000	1000	0	0	-1	0
23489595	9307	0	0	-100	0	230	101300000	1000	0	0	-1	0
23502155	9300	0	0	-100	0	230	101300000	1000	0	0	-1	0
23514715	9300	1	0	-100	0	230	101300000	1000	0	0	-1	0
23527275	9307	0	0	-100	0	230	101300000	1000	0	0	-1	0
23539835	9302	0	0	-100	0	230	101300000	1000	0	0	-1	0
23552395	9305	3	0	-100	0	230	101300000	1000	0	0	-1	0
23564955	9297	3	0	-100	0	230	101300000	1000	0	0	-1	0
23577515	9302	0	0	-100	0	230	101300000	1000	0	0	-1	0
23590075	9307	0	0	-100	0	230	101300000	1000	0	0	-1	0
23602635	9297	4	0	-100	0	230	101300000	1000	0	0	-1	0
23615195	9305	0	0	-100	0	230	101300000	1000	0	0	-1	0
23627755	9305	0	0	-100	0	230	101300000	1000	0	0	-1	0
23640315	9302	0	0	-100	0	230	101300000	1000	0	0	-1	0
23652875	9302	4	0	-100	0	230	101300000	1000	0	0	-1	0
23665435	9300	3	0	-100	0	230	101300000	1000	0	0	-1	0
23677995	9307	4	0	-100	0	230	101300000	1000	0	0	-1	0
23690555	9305	0	0	-100	0	230	101300000	1000	0	0	-1	0
23703115	9300	1	0	-100	0	230	101300000	1000	0	0	-1	0
23715675	9302	0	0	-100	0	230	101300000	1000	0	0	-1	0
23728235	9305	2	0	-100	0	230	101300000	1000	0	0	-1	0
23740795	9302	0	0	-100	0	230	101300000	1000	0	0	-1	0
23753355	9302	0	0	-100	0	230	101300000	1000	0	0	-1	0
23765915	9300	0	0	-100	0	230	101300000	1000	0	0	-1	0
23778475	9305	0	0	-100	0	230	101300000	1000	0	0	-1	0
23791035	9307	4	0	-100	0	230	101300000	1000	0	0	-1	0
23803595	9302	0	0	-100	0	230	101300000	1000	0	0	-1	0
23816155	9310	1	0	-100	0	230	101300000	1000	0	0	-1	0
23828715	9305	0	0	-100	0	230	101300000	1000	0	0	-1	0
23841275	9302	0	0	-100	0	230	101300000	1000	0	0	-1	0
23853835	9297	0	0	-100	0	230	101300000	1000	0	0	-1	0
23866395	9310	0	0	-100	0	230	101300000	1000	0	0	-1	0
23878955	9302	4	0	-100	0	230	101300000	1000	0	0	-1	0
23891515	9307	0	0	-100	0	230	101300000	1000	0	0	-1	0
23904075	9302	4	0	-100	0	230	101300000	1000	0	0	-1	0
23916635	9307	0	0	-100	0	230	101300000	1000	0	0	-1	0
23929195	9307	2	0	-100	0	230	101300000	1000	0	0	-1	0
23941755	9310	0	0	-100	0	230	101300000	1000	0	0	-1	0
23954315	9305	0	0	-100	0	230	101300000	1000	0	0	-1	0
23966875	9300	2	0	-100	0	230	101300000	1000	0	0	-1	0
23979435	9305	0	0	-100	0	230	101300000	1000	0	0	-1	0
23991995	9300	0	0	-100	0	230	101300000	1000	0	0	-1	0
24004555	9307	0	0	-100	0	230	101300000	1000	0	0	-1	0
24017115	9300	4	0	-100	0	230	101300000	1000	0	0	-1	0
24029675	9310	0	0	-100	0	230	101300000	1000	0	0	-1	0
24042235	9297	0	0	-100	0	230	101300000	1000	0	0	-1	0
24054795	9310	0	0	-100	0	230	101300000	1000	0	0	-1	0
24067355	9300	0	0	-100	0	230	101300000	1000	0	0	-1	0
24079915	9300	2	0	-100	0	230	101300000	1000	0	0	-1	0
24092475	9305	0	0	-100	0	230	101300000	1000	0	0	-1	0
24105035	9300	3	0	-100	0	230	101300000	1000	0	0	-1	0
24117595	9310	0	0	-100	0	230	101300000	1000	0	0	-1	0
24130155	9300	4	0	-100	0	230	101300000	1000	0	0	-1	0
24142715	9302	0	0	-100	0	230	101300000	1000	0	0	-1	0
24155275	9305	1	0	-100	0	230	101300000	1000	0	0	-1	0
24167835	9310	0	0	-100	0	230	101300000	1000	0	0	-1	0
24180395	9300	0	0	-100	0	230	101300000	1000	0	0	-1	0
24192955	9315	0	0	-100	0	230	101300000	1000	0	0	-1	0
24205515	9300	0	0	-100	0	230	101300000	1000	0	0	-1	0
24218075	9305	0	0	-100	0	230	101300000	1000	0	0	-1	0
24230635	9305	0	0	-100	0	230	101300000	1000	0	0	-1	0
24243195	9307	0	0	-100	0	230	101300000	1000	0	0	-1	0
24255755	9307	0	0	-100	0	230	101300000	1000	0	0	-1	0
24268315	9302	1	0	-100	0	230	101300000	1000	0	0	-1	0
24280875	9300	0	0	-100	0	230	101300000	1000	0	0	-1	0
24293435	9307	3	0	-100	0	230	101300000	1000	0	0	-1	0
24305995	9310	1	0	-100	0	230	101300000	1000	0	0	-1	0
24318555	9302	2	0	-100	0	230	101300000	1000	0	0	-1	0
24331115	9307	0	0	-100	0	230	101300000	1000	0	0	-1	0
24343675	9305	3	0	-100	0	230	101300000	1000	0	0	-1	0
24356235	9305	0	0	-100	0	230	101300000	1000	0	0	-1	0
24368795	9307	3	0	-100	0	230	101300000	1000	0	0	-1	0
24381355	9307	0	0	-100	0	230	101300000	1000	0	0	-1	0
24393915	9307	3	0	-100	0	230	101300000	1000	0	0	-1	0
24406475	9307	0	0	-100	0	230	101300000	1000	0	0	-1	0
24419035	9302	3	0	-100	0	230	101300000	1000	0	0	-1	0
24431595	9310	0	0	-100	0	230	101300000	1000	0	0	-1	0
24444155	9300	4	0	-100	0	230	101300000	1000	0	0	-1	0
24456715	9310	0	0	-100	0	230	101300000	1000	0	0	-1	0
24469275	9307	3	0	-100	0	230	101300000	1000	0	0	-1	0
24481835	9310	0	0	-100	0	230	101300000	1000	0	0	-1	0
24494395	9295	0	0	-100	0	230	101300000	1000	0	0	-1	0
24506955	9305	0	0	-100	0	230	101300000	1000	0	0	-1	0
24519515	9307	0	0	-100	0	230	101300000	1000	0	0	-1	0
24532075	9305	2	0	-100	0	230	101300000	1000	0	0	-1	0
24544635	9305	0	0	-100	0	230	101300000	1000	0	0	-1	0
24557195	9300	0	0	-100	0	230	101300000	1000	0	0	-1	0
24569755	9307	0	0	-100	0	230	101300000	1000	0	0	-1	0
24582315	9302	0	0	-100	0	230	101300000	1000	0	0	-1	0
24594875	9305	4	0	-100	0	230	101300000	1000	0	0	-1	0
24607435	9305	0	0	-100	0	230	101300000	1000	0	0	-1	0
24619995	9305	0	0	-100	0	230	101300000	1000	0	0	-1	0
24632555	9305	0	0	-100	0	230	101300000	1000	0	0	-1	0
24645115	9300	0	0	-100	0	230	101300000	1000	0	0	-1	0
24657675	9305	1	0	-100	0	230	101300000	1000	0	0	-1	0
24670235	9312	0	0	-100	0	230	101300000	1000	0	0	-1	0
24682795	9302	5	0	-100	0	230	101300000	1000	0	0	-1	0
24695355	9305	0	0	-100	0	230	101300000	1000	0	0	-1	0
24707915	9300	0	0	-100	0	230	101300000	1000	0	0	-1	0
24720475	9300	1	0	-100	0	230	101300000	1000	0	0	-1	0
24733035	9305	0	0	-100	0	230	101300000	1000	0	0	-1	0
24745595	9310	3	0	-100	0	230	101300000	1000	0	0	-1	0
24758155	9302	3	0	-100	0	230	101300000	1000	0	0	-1	0
24770715	9300	2	0	-100	0	230	101300000	1000	0	0	-1	0
24783275	9302	0	0	-100	0	230	101300000	1000	0	0	-1	0
24795835	9310	0	0	-100	0	230	101300000	1000	0	0	-1	0
24808395	9307	0	0	-100	0	230	101300000	1000	0	0	-1	0
24833515	9300	0	0	-100	0	230	101300000	1000	0	0	-1	0
24846075	9300	4	0	-100	0	230	101300000	1000	0	0	-1	0
24858635	9310	0	0	-100	0	230	101300000	1000	0	0	-1	0
24871195	9315	0	0	-100	0	230	101300000	1000	0	0	-1	0
24883755	9310	0	0	-100	0	230	101300000	1000	0	0	-1	0
24896315	9305	0	0	-100	0	230	101300000	1000	0	0	-1	0
24908875	9307	2	0	-100	0	230	101300000	1000	0	0	-1	0
24921435	9302	2	0	-100	0	230	101300000	1000	0	0	-1	0
24933995	9307	4	0	-100	0	230	101300000	1000	0	0	-1	0
24946555	9302	0	0	-100	0	230	101300000	1000	0	0	-1	0
24959115	9302	0	0	-100	0	230	101300000	1000	0	0	-1	0
24971675	9307	2	0	-100	0	230	101300000	1000	0	0	-1	0
25034475	9302	3	0	-100	0	230	101300000	1000	0	0	-1	0
25047035	9302	1	0	-100	0	230	101300000	1000	0	0	-1	0
25059595	9302	3	0	-100	0	230	101300000	1000	0	0	-1	0
25072155	9305	0	0	-100	0	230	101300000	1000	0	0	-1	0
25084715	9305	0	0	-100	0	230	101300000	1000	0	0	-1	0
25097275	9307	0	0	-100	0	230	101300000	1000	0	0	-1	0
25109835	9302	2	0	-100	0	230	101300000	1000	0	0	-1	0
25122395	9302	1	0	-100	0	230	101300000	1000	0	0	-1	0
25134955	9310	0	0	-100	0	230	101300000	1000	0	0	-1	0
25147515	9307	0	0	-100	0	230	101300000	1000	0	0	-1	0
25160075	9305	0	0	-100	0	230	101300000	1000	0	0	-1	0
25172635	9302	0	0	-100	0	230	101300000	1000	0	0	-1	0
25247995	9300	0	0	-100	0	230	101300000	1000	0	0	-1	0
25260555	9302	0	0	-100	0	230	101300000	1000	0	0	-1	0
25273115	9312	0	0	-100	0	230	101300000	1000	0	0	-1	0
25285675	9302	0	0	-100	0	230	101300000	1000	0	0	-1	0
25298235	9300	0	0	-100	0	230	101300000	1000	0	0	-1	0
25310795	9310	2	0	-100	0	230	101300000	1000	0	0	-1	0
25323355	9302	0	0	-100	0	230	101300000	1000	0	0	-1	0
25335915	9317	0	0	-100	0	230	101300000	1000	0	0	-1	0
25348475	9305	0	0	-100	0	230	101300000	1000	0	0	-1	0
25361035	9297	0	0	-100	0	230	101300000	1000	0	0	-1	0
25373595	9305	1	0	-100	0	230	101300000	1000	0	0	-1	0
25386155	9295	3	0	-100	0	230	101300000	1000	0	0	-1	0
25398715	9307	0	0	-100	0	230	101300000	1000	0	0	-1	0
25411275	9307	0	0	-100	0	230	101300000	1000	0	0	-1	0
25423835	9302	4	0	-100	0	230	101300000	1000	0	0	-1	0
25436395	9302	0	0	-100	0	230	101300000	1000	0	0	-1	0
25448955	9312	0	0	-100	0	230	101300000	1000	0	0	-1	0
25461515	9302	0	0	-100	0	230	101300000	1000	0	0	-1	0
25474075	9300	4	0	-100	0	230	101300000	1000	0	0	-1	0
25486635	9302	0	0	-100	0	230	101300000	1000	0	0	-1	0
25499195	9305	0	0	-100	0	230	101300000	1000	0	0	-1	0
25511755	9300	0	0	-100	0	230	101300000	1000	0	0	-1	0
25524315	9310	3	0	-100	0	230	101300000	1000	0	0	-1	0
25536875	9305	0	0	-100	0	230	101300000	1000	0	0	-1	0
25549435	9307	0	0	-100	0	230	101300000	1000	0	0	-1	0
25561995	9305	0	0	-100	0	230	101300000	1000	0	0	-1	0
25574555	9305	2	0	-100	0	230	101300000	1000	0	0	-1	0
25587115	9307	0	0	-100	0	230	101300000	1000	0	0	-1	0
25599675	9305	0	0	-100	0	230	101300000	1000	0	0	-1	0
25612235	9302	0	0	-100	0	230	101300000	1000	0	0	-1	0
25624795	9300	3	0	-100	0	230	101300000	1000	0	0	-1	0
25637355	9305	0	0	-100	0	230	101300000	1000	0	0	-1	0
25649915	9302	0	0	-100	0	230	101300000	1000	0	0	-1	0
25662475	9302	4	0	-100	0	230	101300000	1000	0	0	-1	0
25675035	9305	0	0	-100	0	230	101300000	1000	0	0	-1	0
25687595	9312	0	0	-100	0	230	101300000	1000	0	0	-1	0
25700155	9300	0	0	-100	0	230	101300000	1000	0	0	-1	0
25712715	9310	3	0	-100	0	230	101300000	1000	0	0	-1	0
25725275	9307	0	0	-100	0	230	101300000	1000	0	0	-1	0
25737835	9302	0	0	-100	0	230	101300000	1000	0	0	-1	0
25750395	9307	0	0	-100	0	230	101300000	1000	0	0	-1	0
25762955	9305	2	0	-100	0	230	101300000	1000	0	0	-1	0
25775515	9302	4	0	-100	0	230	101300000	1000	0	0	-1	0
25788075	9305	0	0	-100	0	230	101300000	1000	0	0	-1	0
25800635	9307	0	0	-100	0	230	101300000	1000	0	0	-1	0
25813195	9307	0	0	-100	0	230	101300000	1000	0	0	-1	0
25825755	9305	2	0	-100	0	230	101300000	1000	0	0	-1	0
25838315	9300	1	0	-100	0	230	101300000	1000	0	0	-1	0
25850875	9312	0	0	-100	0	230	101300000	1000	0	0	-1	0
25863435	9305	0	0	-100	0	230	101300000	1000	0	0	-1	0
25875995	9305	0	0	-100	0	230	101300000	1000	0	0	-1	0
25888555	9305	4	0	-100	0	230	101300000	1000	0	0	-1	0
25901115	9305	2	0	-100	0	230	101300000	1000	0	0	-1	0
25913675	9305	1	0	-100	0	230	101300000	1000	0	0	-1	0
25926235	9307	0	0	-100	0	230	101300000	1000	0	0	-1	0
25938795	9302	0	0	-100	0	230	101300000	1000	0	0	-1	0
25951355	9305	0	0	-100	0	230	101300000	1000	0	0	-1	0
25963915	9305	4	0	-100	0	230	101300000	1000	0	0	-1	0
25976475	9310	0	0	-100	0	230	101300000	1000	0	0	-1	0
25989035	9307	0	0	-100	0	230	101300000	1000	0	0	-1	0
26001595	9302	0	0	-100	0	230	101300000	1000	0	0	-1	0
26014155	9312	3	0	-100	0	230	101300000	1000	0	0	-1	0
26026715	9305	0	0	-100	0	230	101300000	1000	0	0	-1	0
26039275	9305	0	0	-100	0	230	101300000	1000	0	0	-1	0
26051835	9310	0	0	-100	0	230	101300000	1000	0	0	-1	0
26064395	9297	0	0	-100	0	230	101300000	1000	0	0	-1	0
26076955	9302	2	0	-100	0	230	101300000	1000	0	0	-1	0
26089515	9305	0	0	-100	0	230	101300000	1000	0	0	-1	0
26102075	9307	0	0	-100	0	230	101300000	1000	0	0	-1	0
26114635	9302	3	0	-100	0	230	101300000	1000	0	0	-1	0
26127195	9305	0	0	-100	0	230	101300000	1000	0	0	-1	0
26139755	9305	0	0	-100	0	230	101300000	1000	0	0	-1	0
26152315	9307	0	0	-100	0	230	101300000	1000	0	0	-1	0
26164875	9302	4	0	-100	0	230	101300000	1000	0	0	-1	0
26177435	9310	0	0	-100	0	230	101300000	1000	0	0	-1	0
26189995	9307	4	0	-100	0	230	101300000	1000	0	0	-1	0
26202555	9307	0	0	-100	0	230	101300000	1000	0	0	-1	0
26215115	9305	0	0	-100	0	230	101300000	1000	0	0	-1	0
26227675	9307	4	0	-100	0	230	101300000	1000	0	0	-1	0
26240235	9300	3	0	-100	0	230	101300000	1000	0	0	-1	0
26252795	9310	0	0	-100	0	230	101300000	1000	0	0	-1	0
26265355	9307	0	0	-100	0	230	101300000	1000	0	0	-1	0
26277915	9302	0	0	-100	0	230	101300000	1000	0	0	-1	0
26290475	9305	0	0	-100	0	230	101300000	1000	0	0	-1	0
26303035	9307	0	0	-100	0	230	101300000	1000	0	0	-1	0
26315595	9305	0	0	-100	0	230	101300000	1000	0	0	-1	0
26328155	9305	0	0	-100	0	230	101300000	1000	0	0	-1	0
26340715	9302	4	0	-100	0	230	101300000	1000	0	0	-1	0
26353275	9305	0	0	-100	0	230	101300000	1000	0	0	-1	0
26365835	9310	0	0	-100	0	230	101300000	1000	0	0	-1	0
26378395	9297	0	0	-100	0	230	101300000	1000	0	0	-1	0
26390955	9307	3	0	-100	0	230	101300000	1000	0	0	-1	0
26403515	9300	2	0	-100	0	230	101300000	1000	0	0	-1	0
26416075	9305	0	0	-100	0	230	101300000	1000	0	0	-1	0
26428635	9307	0	0	-100	0	230	101300000	1000	0	0	-1	0
26441195	9302	0	0	-100	0	230	101300000	1000	0	0	-1	0
26453755	9302	0	0	-100	0	230	101300000	1000	0	0	-1	0
26466315	9305	3	0	-100	0	230	101300000	1000	0	0	-1	0
26478875	9305	1	0	-100	0	230	101300000	1000	0	0	-1	0
26491435	9310	0	0	-100	0	230	101300000	1000	0	0	-1	0
26503995	9300	0	0	-100	0	230	101300000	1000	0	0	-1	0
26516555	9300	0	0	-100	0	230	101300000	1000	0	0	-1	0
26529115	9300	4	0	-100	0	230	101300000	1000	0	0	-1	0
26541675	9305	0	0	-100	0	230	101300000	1000	0	0	-1	0
26554235	9305	0	0	-100	0	230	101300000	1000	0	0	-1	0
26566795	9302	0	0	-100	0	230	101300000	1000	0	0	-1	0
26579355	9307	3	0	-100	0	230	101300000	1000	0	0	-1	0
26591915	9307	0	0	-100	0	230	101300000	1000	0	0	-1	0
26604475	9302	0	0	-100	0	230	101300000	1000	0	0	-1	0
26617035	9302	0	0	-100	0	230	101300000	1000	0	0	-1	0
26629595	9302	4	0	-100	0	230	101300000	1000	0	0	-1	0
26642155	9307	0	0	-100	0	230	101300000	1000	0	0	-1	0
26654715	9312	0	0	-100	0	230	101300000	1000	0	0	-1	0
26667275	9310	0	0	-100	0	230	101300000	1000	0	0	-1	0
26679835	9302	0	0	-100	0	230	101300000	1000	0	0	-1	0
26692395	9305	3	0	-100	0	230	101300000	1000	0	0	-1	0
26704955	9302	4	0	-100	0	230	101300000	1000	0	0	-1	0
26717515	9305	0	0	-100	0	230	101300000	1000	0	0	-1	0
26730075	9305	0	0	-100	0	230	101300000	1000	0	0	-1	0
26742635	9305	0	0	-100	0	230	101300000	1000	0	0	-1	0
26755195	9297	0	0	-100	0	230	101300000	1000	0	0	-1	0
26767755	9307	4	0	-100	0	230	101300000	1000	0	0	-1	0
26780315	9305	2	0	-100	0	230	101300000	1000	0	0	-1	0
26792875	9305	0	0	-100	0	230	101300000	1000	0	0	-1	0
26805435	9305	0	0	-100	0	230	101300000	1000	0	0	-1	0
26817995	9305	1	0	-100	0	230	101300000	1000	0	0	-1	0
26830555	9305	0	0	-100	0	230	101300000	1000	0	0	-1	0
26843115	9297	0	0	-100	0	230	101300000	1000	0	0	-1	0
26855675	9302	0	0	-100	0	230	101300000	1000	0	0	-1	0
26868235	9305	0	0	-100	0	230	101300000	1000	0	0	-1	0
26880795	9300	5	0	-100	0	230	101300000	1000	0	0	-1	0
26893355	9305	2	0	-100	0	230	101300000	1000	0	0	-1	0
26905915	9302	0	0	-100	0	230	101300000	1000	0	0	-1	0
26918475	9310	0	0	-100	0	230	101300000	1000	0	0	-1	0
26931035	9305	0	0	-100	0	230	101300000	1000	0	0	-1	0
26943595	9310	0	0	-100	0	230	101300000	1000	0	0	-1	0
26956155	9312	0	0	-100	0	230	101300000	1000	0	0	-1	0
26968715	9310	0	0	-100	0	230	101300000	1000	0	0	-1	0
26981275	9305	0	0	-100	0	230	101300000	1000	0	0	-1	0
26993835	9307	0	0	-100	0	230	101300000	1000	0	0	-1	0
27006395	9305	0	0	-100	0	230	101300000	1000	0	0	-1	0
27018955	9300	0	0	-100	0	230	101300000	1000	0	0	-1	0
27031515	9305	4	0	-100	0	230	101300000	1000	0	0	-1	0
27044075	9302	0	0	-100	0	230	101300000	1000	0	0	-1	0
