timestamp	voltage	current	windSpeed	pitchAngle	rpm	temperature	ambientPressure	humidity	accelerationX	accelerationY	accelerationZ	currentSink
7032070	4007	5	0	-100	0	230	101300000	1000	0	0	-1	0
7039523	4015	0	0	-100	0	230	101300000	1000	0	0	-1	0
7052083	4012	0	0	-100	0	230	101300000	1000	0	0	-1	0
7064643	4011	3	0	-100	0	230	101300000	1000	0	0	-1	0
7077203	4007	0	0	-100	0	230	101300000	1000	0	0	-1	0
7089763	4015	0	0	-100	0	230	101300000	1000	0	0	-1	0
7102323	4008	1	0	-100	0	230	101300000	1000	0	0	-1	0
7114883	4010	0	0	-100	0	230	101300000	1000	0	0	-1	0
7127443	4016	0	0	-100	0	230	101300000	1000	0	0	-1	0
7140004	4008	0	0	-100	0	230	101300000	1000	0	0	-1	0
7152563	4009	0	0	-100	0	230	101300000	1000	0	0	-1	0
7165123	4017	0	0	-100	0	230	101300000	1000	0	0	-1	0
7177683	4013	0	0	-100	0	230	101300000	1000	0	0	-1	0
7190243	4011	4	0	-100	0	230	101300000	1000	0	0	-1	0
7202803	4009	0	0	-100	0	230	101300000	1000	0	0	-1	0
7215363	4012	0	0	-100	0	230	101300000	1000	0	0	-1	0
7227923	4014	0	0	-100	0	230	101300000	1000	0	0	-1	0
7240483	4006	1	0	-100	0	230	101300000	1000	0	0	-1	0
7253043	4008	0	0	-100	0	230	101300000	1000	0	0	-1	0
7265603	4015	0	0	-100	0	230	101300000	1000	0	0	-1	0
7278163	4000	3	0	-100	0	230	101300000	1000	0	0	-1	0
7290723	4008	0	0	-100	0	230	101300000	1000	0	0	-1	0
7303283	4014	0	0	-100	0	230	101300000	1000	0	0	-1	0
7315843	4009	0	0	-100	0	230	101300000	1000	0	0	-1	0
7328403	4014	0	0	-100	0	230	101300000	1000	0	0	-1	0
7340963	4008	0	0	-100	0	230	101300000	1000	0	0	-1	0
7709235	135	1026	0	-100	0	230	101300000	1000	0	0	-1	1500
7721795	140	1029	0	-100	0	230	101300000	1000	0	0	-1	1500
7734355	135	1028	0	-100	0	230	101300000	1000	0	0	-1	1500
7746915	131	1031	0	-100	0	230	101300000	1000	0	0	-1	1500
7759475	133	1025	0	-100	0	230	101300000	1000	0	0	-1	1500
7772035	140	1029	0	-100	0	230	101300000	1000	0	0	-1	1500
7784595	138	1028	0	-100	0	230	101300000	1000	0	0	-1	1500
7797155	128	1029	0	-100	0	230	101300000	1000	0	0	-1	1500
7809715	133	1030	0	-100	0	230	101300000	1000	0	0	-1	1500
7822275	135	1027	0	-100	0	230	101300000	1000	0	0	-1	1500
7834835	140	1026	0	-100	0	230	101300000	1000	0	0	-1	1500
7872515	133	1027	0	-100	0	230	101300000	1000	0	0	-1	1500
7885075	138	1029	0	-100	0	230	101300000	1000	0	0	-1	1500
7897635	140	1029	0	-100	0	230	101300000	1000	0	0	-1	1500
7910195	130	1032	0	-100	0	230	101300000	1000	0	0	-1	1500
7922755	130	1031	0	-100	0	230	101300000	1000	0	0	-1	1500
7935315	140	1030	0	-100	0	230	101300000	1000	0	0	-1	1500
7947875	133	1028	0	-100	0	230	101300000	1000	0	0	-1	1500
7960435	133	1028	0	-100	0	230	101300000	1000	0	0	-1	1500
7972995	140	1029	0	-100	0	230	101300000	1000	0	0	-1	1500
7985555	131	1029	0	-100	0	230	101300000	1000	0	0	-1	1500
7998115	135	1026	0	-100	0	230	101300000	1000	0	0	-1	1500
8010675	138	1028	0	-100	0	230	101300000	1000	0	0	-1	1500
8035795	140	1026	0	-100	0	230	101300000	1000	0	0	-1	1500
8048355	131	1032	0	-100	0	230	101300000	1000	0	0	-1	1500
8060915	138	1026	0	-100	0	230	101300000	1000	0	0	-1	1500
8073475	133	1030	0	-100	0	230	101300000	1000	0	0	-1	1500
8086035	140	1027	0	-100	0	230	101300000	1000	0	0	-1	1500
8098595	131	1029	0	-100	0	230	101300000	1000	0	0	-1	1500
8111155	138	1025	0	-100	0	230	101300000	1000	0	0	-1	1500
8123715	133	1031	0	-100	0	230	101300000	1000	0	0	-1	1500
8136275	140	1025	0	-100	0	230	101300000	1000	0	0	-1	1500
8148835	133	1030	0	-100	0	230	101300000	1000	0	0	-1	1500
8161395	138	1026	0	-100	0	230	101300000	1000	0	0	-1	1500
8173955	133	1030	0	-100	0	230	101300000	1000	0	0	-1	1500
8186515	138	1027	0	-100	0	230	101300000	1000	0	0	-1	1500
8199075	133	1031	0	-100	0	230	101300000	1000	0	0	-1	1500
8211635	140	1028	0	-100	0	230	101300000	1000	0	0	-1	1500
8224195	133	1030	0	-100	0	230	101300000	1000	0	0	-1	1500
8236755	138	1028	0	-100	0	230	101300000	1000	0	0	-1	1500
8249315	133	1028	0	-100	0	230	101300000	1000	0	0	-1	1500
8261875	135	1027	0	-100	0	230	101300000	1000	0	0	-1	1500
8274435	135	1027	0	-100	0	230	101300000	1000	0	0	-1	1500
8286995	133	1028	0	-100	0	230	101300000	1000	0	0	-1	1500
8299555	135	1029	0	-100	0	230	101300000	1000	0	0	-1	1500
8312115	133	1026	0	-100	0	230	101300000	1000	0	0	-1	1500
8324675	133	1029	0	-100	0	230	101300000	1000	0	0	-1	1500
8337235	128	1030	0	-100	0	230	101300000	1000	0	0	-1	1500
8349795	138	1026	0	-100	0	230	101300000	1000	0	0	-1	1500
8362355	133	1025	0	-100	0	230	101300000	1000	0	0	-1	1500
8374915	138	1026	0	-100	0	230	101300000	1000	0	0	-1	1500
8387475	133	1030	0	-100	0	230	101300000	1000	0	0	-1	1500
8400035	140	1028	0	-100	0	230	101300000	1000	0	0	-1	1500
8412595	130	1031	0	-100	0	230	101300000	1000	0	0	-1	1500
8425155	135	1026	0	-100	0	230	101300000	1000	0	0	-1	1500
8437715	133	1027	0	-100	0	230	101300000	1000	0	0	-1	1500
8450275	138	1027	0	-100	0	230	101300000	1000	0	0	-1	1500
8462835	133	1027	0	-100	0	230	101300000	1000	0	0	-1	1500
8475395	133	1027	0	-100	0	230	101300000	1000	0	0	-1	1500
8487955	140	1036	0	-100	0	230	101300000	1000	0	0	-1	1500
8500515	135	1025	0	-100	0	230	101300000	1000	0	0	-1	1500
8513075	138	1029	0	-100	0	230	101300000	1000	0	0	-1	1500
8525635	133	1032	0	-100	0	230	101300000	1000	0	0	-1	1500
8538195	133	1026	0	-100	0	230	101300000	1000	0	0	-1	1500
8550755	140	1030	0	-100	0	230	101300000	1000	0	0	-1	1500
8563315	133	1032	0	-100	0	230	101300000	1000	0	0	-1	1500
8575875	138	1023	0	-100	0	230	101300000	1000	0	0	-1	1500
8588435	138	1027	0	-100	0	230	101300000	1000	0	0	-1	1500
8600995	133	1029	0	-100	0	230	101300000	1000	0	0	-1	1500
8613555	140	1027	0	-100	0	230	101300000	1000	0	0	-1	1500
8626115	133	1030	0	-100	0	230	101300000	1000	0	0	-1	1500
8638675	135	1028	0	-100	0	230	101300000	1000	0	0	-1	1500
8651235	140	1032	0	-100	0	230	101300000	1000	0	0	-1	1500
8663795	133	1029	0	-100	0	230	101300000	1000	0	0	-1	1500
8676355	138	1023	0	-100	0	230	101300000	1000	0	0	-1	1500
8688915	131	1028	0	-100	0	230	101300000	1000	0	0	-1	1500
8701475	133	1029	0	-100	0	230	101300000	1000	0	0	-1	1500
8714035	138	1026	0	-100	0	230	101300000	1000	0	0	-1	1500
8726595	133	1027	0	-100	0	230	101300000	1000	0	0	-1	1500
8739155	128	1028	0	-100	0	230	101300000	1000	0	0	-1	1500
8751715	140	1028	0	-100	0	230	101300000	1000	0	0	-1	1500
8764275	130	1029	0	-100	0	230	101300000	1000	0	0	-1	1500
8776835	138	1028	0	-100	0	230	101300000	1000	0	0	-1	1500
8789395	130	1031	0	-100	0	230	101300000	1000	0	0	-1	1500
8801955	135	1029	0	-100	0	230	101300000	1000	0	0	-1	1500
8814515	135	1026	0	-100	0	230	101300000	1000	0	0	-1	1500
8827075	138	1025	0	-100	0	230	101300000	1000	0	0	-1	1500
8839635	140	1030	0	-100	0	230	101300000	1000	0	0	-1	1500
8852195	133	1031	0	-100	0	230	101300000	1000	0	0	-1	1500
8864755	140	1028	0	-100	0	230	101300000	1000	0	0	-1	1500
8877315	130	1026	0	-100	0	230	101300000	1000	0	0	-1	1500
8889875	131	1030	0	-100	0	230	101300000	1000	0	0	-1	1500
8902435	140	1024	0	-100	0	230	101300000	1000	0	0	-1	1500
8914995	133	1026	0	-100	0	230	101300000	1000	0	0	-1	1500
8927555	133	1027	0	-100	0	230	101300000	1000	0	0	-1	1500
8940115	138	1029	0	-100	0	230	101300000	1000	0	0	-1	1500
8952675	133	1028	0	-100	0	230	101300000	1000	0	0	-1	1500
8965235	133	1029	0	-100	0	230	101300000	1000	0	0	-1	1500
8977795	140	1026	0	-100	0	230	101300000	1000	0	0	-1	1500
8990355	140	1028	0	-100	0	230	101300000	1000	0	0	-1	1500
9002915	133	1028	0	-100	0	230	101300000	1000	0	0	-1	1500
9015475	135	1029	0	-100	0	230	101300000	1000	0	0	-1	1500
9028035	138	1028	0	-100	0	230	101300000	1000	0	0	-1	1500
9040595	140	1025	0	-100	0	230	101300000	1000	0	0	-1	1500
9053155	135	1028	0	-100	0	230	101300000	1000	0	0	-1	1500
9065715	133	1028	0	-100	0	230	101300000	1000	0	0	-1	1500
9078275	133	1031	0	-100	0	230	101300000	1000	0	0	-1	1500
9090835	133	1026	0	-100	0	230	101300000	1000	0	0	-1	1500
9103395	140	1025	0	-100	0	230	101300000	1000	0	0	-1	1500
9115955	131	1028	0	-100	0	230	101300000	1000	0	0	-1	1500
9128515	133	1028	0	-100	0	230	101300000	1000	0	0	-1	1500
9141075	140	1022	0	-100	0	230	101300000	1000	0	0	-1	1500
9153635	133	1029	0	-100	0	230	101300000	1000	0	0	-1	1500
9166195	138	1028	0	-100	0	230	101300000	1000	0	0	-1	1500
9178755	140	1029	0	-100	0	230	101300000	1000	0	0	-1	1500
9191315	133	1030	0	-100	0	230	101300000	1000	0	0	-1	1500
9203875	135	1029	0	-100	0	230	101300000	1000	0	0	-1	1500
9216435	140	1028	0	-100	0	230	101300000	1000	0	0	-1	1500
9228995	133	1026	0	-100	0	230	101300000	1000	0	0	-1	1500
9241555	138	1025	0	-100	0	230	101300000	1000	0	0	-1	1500
9254115	135	1027	0	-100	0	230	101300000	1000	0	0	-1	1500
9266675	135	1028	0	-100	0	230	101300000	1000	0	0	-1	1500
9279235	140	1023	0	-100	0	230	101300000	1000	0	0	-1	1500
9291795	133	1024	0	-100	0	230	101300000	1000	0	0	-1	1500
9304355	140	1025	0	-100	0	230	101300000	1000	0	0	-1	1500
9316915	135	1032	0	-100	0	230	101300000	1000	0	0	-1	1500
9329475	140	1028	0	-100	0	230	101300000	1000	0	0	-1	1500
9342035	135	1028	0	-100	0	230	101300000	1000	0	0	-1	1500
9354595	133	1029	0	-100	0	230	101300000	1000	0	0	-1	1500
9367155	135	1024	0	-100	0	230	101300000	1000	0	0	-1	1500
9379715	130	1026	0	-100	0	230	101300000	1000	0	0	-1	1500
9392275	133	1027	0	-100	0	230	101300000	1000	0	0	-1	1500
9404835	143	1027	0	-100	0	230	101300000	1000	0	0	-1	1500
9417395	131	1027	0	-100	0	230	101300000	1000	0	0	-1	1500
9429955	135	1033	0	-100	0	230	101300000	1000	0	0	-1	1500
9442515	133	1026	0	-100	0	230	101300000	1000	0	0	-1	1500
9455075	140	1026	0	-100	0	230	101300000	1000	0	0	-1	1500
9467635	130	1030	0	-100	0	230	101300000	1000	0	0	-1	1500
9480195	133	1030	0	-100	0	230	101300000	1000	0	0	-1	1500
9492755	140	1030	0	-100	0	230	101300000	1000	0	0	-1	1500
9505315	131	1026	0	-100	0	230	101300000	1000	0	0	-1	1500
9517875	133	1024	0	-100	0	230	101300000	1000	0	0	-1	1500
9530435	140	1025	0	-100	0	230	101300000	1000	0	0	-1	1500
9542995	133	1025	0	-100	0	230	101300000	1000	0	0	-1	1500
9555555	133	1025	0	-100	0	230	101300000	1000	0	0	-1	1500
9568115	140	1028	0	-100	0	230	101300000	1000	0	0	-1	1500
9580675	133	1028	0	-100	0	230	101300000	1000	0	0	-1	1500
9593235	138	1029	0	-100	0	230	101300000	1000	0	0	-1	1500
9605795	140	1028	0	-100	0	230	101300000	1000	0	0	-1	1500
9618355	133	1030	0	-100	0	230	101300000	1000	0	0	-1	1500
9630915	138	1027	0	-100	0	230	101300000	1000	0	0	-1	1500
9643475	140	1030	0	-100	0	230	101300000	1000	0	0	-1	1500
9656035	133	1028	0	-100	0	230	101300000	1000	0	0	-1	1500
9668595	138	1028	0	-100	0	230	101300000	1000	0	0	-1	1500
9681155	128	1030	0	-100	0	230	101300000	1000	0	0	-1	1500
9693715	135	1030	0	-100	0	230	101300000	1000	0	0	-1	1500
9706275	138	1023	0	-100	0	230	101300000	1000	0	0	-1	1500
9718835	133	1029	0	-100	0	230	101300000	1000	0	0	-1	1500
9731395	133	1028	0	-100	0	230	101300000	1000	0	0	-1	1500
9743955	140	1030	0	-100	0	230	101300000	1000	0	0	-1	1500
9756515	130	1030	0	-100	0	230	101300000	1000	0	0	-1	1500
9769075	130	1031	0	-100	0	230	101300000	1000	0	0	-1	1500
9781635	140	1025	0	-100	0	230	101300000	1000	0	0	-1	1500
9794195	133	1032	0	-100	0	230	101300000	1000	0	0	-1	1500
9806755	135	1025	0	-100	0	230	101300000	1000	0	0	-1	1500
9819315	143	1030	0	-100	0	230	101300000	1000	0	0	-1	1500
9831875	133	1031	0	-100	0	230	101300000	1000	0	0	-1	1500
9844435	140	1026	0	-100	0	230	101300000	1000	0	0	-1	1500
9856995	138	1033	0	-100	0	230	101300000	1000	0	0	-1	1500
9869555	130	1026	0	-100	0	230	101300000	1000	0	0	-1	1500
9882115	133	1026	0	-100	0	230	101300000	1000	0	0	-1	1500
9894675	140	1028	0	-100	0	230	101300000	1000	0	0	-1	1500
9907235	131	1032	0	-100	0	230	101300000	1000	0	0	-1	1500
9919795	135	1024	0	-100	0	230	101300000	1000	0	0	-1	1500
9932355	140	1023	0	-100	0	230	101300000	1000	0	0	-1	1500
9944915	133	1030	0	-100	0	230	101300000	1000	0	0	-1	1500
9957475	130	1030	0	-100	0	230	101300000	1000	0	0	-1	1500
9970035	140	1028	0	-100	0	230	101300000	1000	0	0	-1	1500
9982595	130	1030	0	-100	0	230	101300000	1000	0	0	-1	1500
9995155	130	1031	0	-100	0	230	101300000	1000	0	0	-1	1500
10007715	138	1028	0	-100	0	230	101300000	1000	0	0	-1	1500
10020275	135	1030	0	-100	0	230	101300000	1000	0	0	-1	1500
10032835	138	1024	0	-100	0	230	101300000	1000	0	0	-1	1500
10045395	138	1025	0	-100	0	230	101300000	1000	0	0	-1	1500
10057955	138	1027	0	-100	0	230	101300000	1000	0	0	-1	1500
10070515	130	1028	0	-100	0	230	101300000	1000	0	0	-1	1500
10083075	130	1029	0	-100	0	230	101300000	1000	0	0	-1	1500
10095635	143	1027	0	-100	0	230	101300000	1000	0	0	-1	1500
10108195	135	1025	0	-100	0	230	101300000	1000	0	0	-1	1500
10120755	133	1029	0	-100	0	230	101300000	1000	0	0	-1	1500
10133315	135	1026	0	-100	0	230	101300000	1000	0	0	-1	1500
10145875	143	1025	0	-100	0	230	101300000	1000	0	0	-1	1500
10158435	133	1027	0	-100	0	230	101300000	1000	0	0	-1	1500
10170995	133	1028	0	-100	0	230	101300000	1000	0	0	-1	1500
10183555	138	1026	0	-100	0	230	101300000	1000	0	0	-1	1500
10196115	135	1025	0	-100	0	230	101300000	1000	0	0	-1	1500
10208675	131	1031	0	-100	0	230	101300000	1000	0	0	-1	1500
10221235	133	1031	0	-100	0	230	101300000	1000	0	0	-1	1500
10233795	133	1028	0	-100	0	230	101300000	1000	0	0	-1	1500
10246355	133	1033	0	-100	0	230	101300000	1000	0	0	-1	1500
10258915	133	1031	0	-100	0	230	101300000	1000	0	0	-1	1500
10271475	133	1027	0	-100	0	230	101300000	1000	0	0	-1	1500
10284035	135	1026	0	-100	0	230	101300000	1000	0	0	-1	1500
10296595	138	1028	0	-100	0	230	101300000	1000	0	0	-1	1500
10309155	138	1026	0	-100	0	230	101300000	1000	0	0	-1	1500
10321715	133	1028	0	-100	0	230	101300000	1000	0	0	-1	1500
10334275	131	1026	0	-100	0	230	101300000	1000	0	0	-1	1500
10346835	131	1032	0	-100	0	230	101300000	1000	0	0	-1	1500
10359395	131	1031	0	-100	0	230	101300000	1000	0	0	-1	1500
10371955	133	1027	0	-100	0	230	101300000	1000	0	0	-1	1500
10384515	135	1029	0	-100	0	230	101300000	1000	0	0	-1	1500
10397075	138	1026	0	-100	0	230	101300000	1000	0	0	-1	1500
10409635	138	1029	0	-100	0	230	101300000	1000	0	0	-1	1500
10422195	140	1026	0	-100	0	230	101300000	1000	0	0	-1	1500
10434755	130	1027	0	-100	0	230	101300000	1000	0	0	-1	1500
10447315	133	1029	0	-100	0	230	101300000	1000	0	0	-1	1500
10459875	133	1031	0	-100	0	230	101300000	1000	0	0	-1	1500
10472435	135	1030	0	-100	0	230	101300000	1000	0	0	-1	1500
10484995	133	1027	0	-100	0	230	101300000	1000	0	0	-1	1500
10497555	133	1030	0	-100	0	230	101300000	1000	0	0	-1	1500
10510115	130	1027	0	-100	0	230	101300000	1000	0	0	-1	1500
10522675	133	1026	0	-100	0	230	101300000	1000	0	0	-1	1500
10535235	133	1029	0	-100	0	230	101300000	1000	0	0	-1	1500
10547795	131	1031	0	-100	0	230	101300000	1000	0	0	-1	1500
10560355	131	1031	0	-100	0	230	101300000	1000	0	0	-1	1500
10572915	133	1027	0	-100	0	230	101300000	1000	0	0	-1	1500
10585475	130	1025	0	-100	0	230	101300000	1000	0	0	-1	1500
10598035	130	1030	0	-100	0	230	101300000	1000	0	0	-1	1500
10610595	133	1028	0	-100	0	230	101300000	1000	0	0	-1	1500
10623155	128	1025	0	-100	0	230	101300000	1000	0	0	-1	1500
10635715	133	1028	0	-100	0	230	101300000	1000	0	0	-1	1500
10648275	140	1027	0	-100	0	230	101300000	1000	0	0	-1	1500
10660835	140	1030	0	-100	0	230	101300000	1000	0	0	-1	1500
10673395	135	1028	0	-100	0	230	101300000	1000	0	0	-1	1500
10685955	130	1028	0	-100	0	230	101300000	1000	0	0	-1	1500
10698515	135	1029	0	-100	0	230	101300000	1000	0	0	-1	1500
10711075	135	1029	0	-100	0	230	101300000	1000	0	0	-1	1500
10723635	140	1029	0	-100	0	230	101300000	1000	0	0	-1	1500
10736195	138	1027	0	-100	0	230	101300000	1000	0	0	-1	1500
10748755	140	1028	0	-100	0	230	101300000	1000	0	0	-1	1500
10761315	140	1030	0	-100	0	230	101300000	1000	0	0	-1	1500
10773875	133	1027	0	-100	0	230	101300000	1000	0	0	-1	1500
10786435	131	1033	0	-100	0	230	101300000	1000	0	0	-1	1500
10798995	131	1028	0	-100	0	230	101300000	1000	0	0	-1	1500
10811555	133	1032	0	-100	0	230	101300000	1000	0	0	-1	1500
10824115	130	1030	0	-100	0	230	101300000	1000	0	0	-1	1500
10836675	135	1026	0	-100	0	230	101300000	1000	0	0	-1	1500
10849235	140	1024	0	-100	0	230	101300000	1000	0	0	-1	1500
10861795	140	1026	0	-100	0	230	101300000	1000	0	0	-1	1500
10874355	138	1028	0	-100	0	230	101300000	1000	0	0	-1	1500
10886915	143	1027	0	-100	0	230	101300000	1000	0	0	-1	1500
10899475	140	1026	0	-100	0	230	101300000	1000	0	0	-1	1500
10912035	140	1027	0	-100	0	230	101300000	1000	0	0	-1	1500
10924595	140	1030	0	-100	0	230	101300000	1000	0	0	-1	1500
10937155	135	1022	0	-100	0	230	101300000	1000	0	0	-1	1500
10949715	131	1029	0	-100	0	230	101300000	1000	0	0	-1	1500
10962275	133	1029	0	-100	0	230	101300000	1000	0	0	-1	1500
10974835	133	1029	0	-100	0	230	101300000	1000	0	0	-1	1500
10987395	130	1026	0	-100	0	230	101300000	1000	0	0	-1	1500
10999955	138	1026	0	-100	0	230	101300000	1000	0	0	-1	1500
11012515	131	1029	0	-100	0	230	101300000	1000	0	0	-1	1500
11025075	133	1026	0	-100	0	230	101300000	1000	0	0	-1	1500
11037635	138	1026	0	-100	0	230	101300000	1000	0	0	-1	1500
11050195	130	1030	0	-100	0	230	101300000	1000	0	0	-1	1500
11062755	133	1025	0	-100	0	230	101300000	1000	0	0	-1	1500
11075315	140	1027	0	-100	0	230	101300000	1000	0	0	-1	1500
11087875	131	1032	0	-100	0	230	101300000	1000	0	0	-1	1500
11100435	138	1026	0	-100	0	230	101300000	1000	0	0	-1	1500
11112995	131	1032	0	-100	0	230	101300000	1000	0	0	-1	1500
11125555	135	1026	0	-100	0	230	101300000	1000	0	0	-1	1500
11138115	131	1028	0	-100	0	230	101300000	1000	0	0	-1	1500
11150675	138	1026	0	-100	0	230	101300000	1000	0	0	-1	1500
11163235	133	1031	0	-100	0	230	101300000	1000	0	0	-1	1500
11175795	135	1028	0	-100	0	230	101300000	1000	0	0	-1	1500
11188355	130	1026	0	-100	0	230	101300000	1000	0	0	-1	1500
11200915	130	1032	0	-100	0	230	101300000	1000	0	0	-1	1500
11213475	138	1026	0	-100	0	230	101300000	1000	0	0	-1	1500
11226035	131	1028	0	-100	0	230	101300000	1000	0	0	-1	1500
11238595	133	1028	0	-100	0	230	101300000	1000	0	0	-1	1500
11251155	128	1030	0	-100	0	230	101300000	1000	0	0	-1	1500
11263715	130	1030	0	-100	0	230	101300000	1000	0	0	-1	1500
11276275	135	1030	0	-100	0	230	101300000	1000	0	0	-1	1500
11288835	138	1026	0	-100	0	230	101300000	1000	0	0	-1	1500
11301395	143	1032	0	-100	0	230	101300000	1000	0	0	-1	1500
11313955	133	1028	0	-100	0	230	101300000	1000	0	0	-1	1500
11326515	131	1030	0	-100	0	230	101300000	1000	0	0	-1	1500
11339075	130	1030	0	-100	0	230	101300000	1000	0	0	-1	1500
11351635	135	1026	0	-100	0	230	101300000	1000	0	0	-1	1500
11364195	138	1025	0	-100	0	230	101300000	1000	0	0	-1	1500
11376755	138	1026	0	-100	0	230	101300000	1000	0	0	-1	1500
11389315	135	1028	0	-100	0	230	101300000	1000	0	0	-1	1500
11401875	133	1029	0	-100	0	230	101300000	1000	0	0	-1	1500
11414435	133	1026	0	-100	0	230	101300000	1000	0	0	-1	1500
11426995	133	1029	0	-100	0	230	101300000	1000	0	0	-1	1500
11439555	138	1021	0	-100	0	230	101300000	1000	0	0	-1	1500
11452115	133	1027	0	-100	0	230	101300000	1000	0	0	-1	1500
11464675	133	1030	0	-100	0	230	101300000	1000	0	0	-1	1500
11477235	133	1030	0	-100	0	230	101300000	1000	0	0	-1	1500
11489795	138	1026	0	-100	0	230	101300000	1000	0	0	-1	1500
11502355	138	1024	0	-100	0	230	101300000	1000	0	0	-1	1500
11514915	138	1025	0	-100	0	230	101300000	1000	0	0	-1	1500
11527475	130	1029	0	-100	0	230	101300000	1000	0	0	-1	1500
11540035	135	1031	0	-100	0	230	101300000	1000	0	0	-1	1500
11552595	135	1026	0	-100	0	230	101300000	1000	0	0	-1	1500
11565155	138	1026	0	-100	0	230	101300000	1000	0	0	-1	1500
11577715	133	1031	0	-100	0	230	101300000	1000	0	0	-1	1500
11590275	133	1031	0	-100	0	230	101300000	1000	0	0	-1	1500
11602835	133	1028	0	-100	0	230	101300000	1000	0	0	-1	1500
11615395	131	1031	0	-100	0	230	101300000	1000	0	0	-1	1500
11627955	138	1025	0	-100	0	230	101300000	1000	0	0	-1	1500
11640515	138	1022	0	-100	0	230	101300000	1000	0	0	-1	1500
11653075	135	1024	0	-100	0	230	101300000	1000	0	0	-1	1500
11665635	131	1032	0	-100	0	230	101300000	1000	0	0	-1	1500
11678195	135	1025	0	-100	0	230	101300000	1000	0	0	-1	1500
11690755	138	1025	0	-100	0	230	101300000	1000	0	0	-1	1500
11703315	140	1032	0	-100	0	230	101300000	1000	0	0	-1	1500
11715875	133	1030	0	-100	0	230	101300000	1000	0	0	-1	1500
11728435	130	1030	0	-100	0	230	101300000	1000	0	0	-1	1500
11740995	133	1022	0	-100	0	230	101300000	1000	0	0	-1	1500
11753555	140	1027	0	-100	0	230	101300000	1000	0	0	-1	1500
11766115	140	1026	0	-100	0	230	101300000	1000	0	0	-1	1500
11778675	138	1025	0	-100	0	230	101300000	1000	0	0	-1	1500
11791235	130	1030	0	-100	0	230	101300000	1000	0	0	-1	1500
11803795	133	1032	0	-100	0	230	101300000	1000	0	0	-1	1500
11816355	130	1029	0	-100	0	230	101300000	1000	0	0	-1	1500
11828915	138	1025	0	-100	0	230	101300000	1000	0	0	-1	1500
11841475	140	1023	0	-100	0	230	101300000	1000	0	0	-1	1500
11854035	135	1029	0	-100	0	230	101300000	1000	0	0	-1	1500
11866595	131	1029	0	-100	0	230	101300000	1000	0	0	-1	1500
11879155	128	1027	0	-100	0	230	101300000	1000	0	0	-1	1500
11891715	133	1046	0	-100	0	230	101300000	1000	0	0	-1	1500
11904275	138	1025	0	-100	0	230	101300000	1000	0	0	-1	1500
11916835	140	1029	0	-100	0	230	101300000	1000	0	0	-1	1500
11929395	140	1030	0	-100	0	230	101300000	1000	0	0	-1	1500
11941955	130	1029	0	-100	0	230	101300000	1000	0	0	-1	1500
11954515	133	1028	0	-100	0	230	101300000	1000	0	0	-1	1500
11967075	133	1026	0	-100	0	230	101300000	1000	0	0	-1	1500
11979635	138	1027	0	-100	0	230	101300000	1000	0	0	-1	1500
11992195	138	1023	0	-100	0	230	101300000	1000	0	0	-1	1500
12004755	143	1027	0	-100	0	230	101300000	1000	0	0	-1	1500
12017315	131	1030	0	-100	0	230	101300000	1000	0	0	-1	1500
12029875	131	1032	0	-100	0	230	101300000	1000	0	0	-1	1500
12042435	133	1024	0	-100	0	230	101300000	1000	0	0	-1	1500
12054995	138	1026	0	-100	0	230	101300000	1000	0	0	-1	1500
12067555	131	1031	0	-100	0	230	101300000	1000	0	0	-1	1500
12080115	133	1026	0	-100	0	230	101300000	1000	0	0	-1	1500
12092675	135	1026	0	-100	0	230	101300000	1000	0	0	-1	1500
12105235	140	1028	0	-100	0	230	101300000	1000	0	0	-1	1500
12117795	140	1028	0	-100	0	230	101300000	1000	0	0	-1	1500
12130355	131	1029	0	-100	0	230	101300000	1000	0	0	-1	1500
12142915	133	1030	0	-100	0	230	101300000	1000	0	0	-1	1500
12155475	140	1028	0	-100	0	230	101300000	1000	0	0	-1	1500
12168035	133	1028	0	-100	0	230	101300000	1000	0	0	-1	1500
12180595	133	1029	0	-100	0	230	101300000	1000	0	0	-1	1500
12193155	135	1025	0	-100	0	230	101300000	1000	0	0	-1	1500
12205715	131	1028	0	-100	0	230	101300000	1000	0	0	-1	1500
12218275	133	1030	0	-100	0	230	101300000	1000	0	0	-1	1500
12230835	140	1027	0	-100	0	230	101300000	1000	0	0	-1	1500
12243395	143	1027	0	-100	0	230	101300000	1000	0	0	-1	1500
12255955	130	1026	0	-100	0	230	101300000	1000	0	0	-1	1500
12268515	135	1027	0	-100	0	230	101300000	1000	0	0	-1	1500
12281075	135	1029	0	-100	0	230	101300000	1000	0	0	-1	1500
12293635	138	1025	0	-100	0	230	101300000	1000	0	0	-1	1500
12306195	133	1028	0	-100	0	230	101300000	1000	0	0	-1	1500
12318755	133	1028	0	-100	0	230	101300000	1000	0	0	-1	1500
12331315	135	1031	0	-100	0	230	101300000	1000	0	0	-1	1500
12343875	138	1023	0	-100	0	230	101300000	1000	0	0	-1	1500
12356435	133	1029	0	-100	0	230	101300000	1000	0	0	-1	1500
12368995	133	1025	0	-100	0	230	101300000	1000	0	0	-1	1500
12381555	135	1027	0	-100	0	230	101300000	1000	0	0	-1	1500
12394115	138	1029	0	-100	0	230	101300000	1000	0	0	-1	1500
12406675	138	1023	0	-100	0	230	101300000	1000	0	0	-1	1500
12419235	138	1029	0	-100	0	230	101300000	1000	0	0	-1	1500
12431795	130	1028	0	-100	0	230	101300000	1000	0	0	-1	1500
12444355	135	1028	0	-100	0	230	101300000	1000	0	0	-1	1500
12456915	140	1027	0	-100	0	230	101300000	1000	0	0	-1	1500
12469475	140	1030	0	-100	0	230	101300000	1000	0	0	-1	1500
12482035	133	1031	0	-100	0	230	101300000	1000	0	0	-1	1500
12494595	131	1032	0	-100	0	230	101300000	1000	0	0	-1	1500
12507155	138	1027	0	-100	0	230	101300000	1000	0	0	-1	1500
12519715	138	1028	0	-100	0	230	101300000	1000	0	0	-1	1500
12532275	133	1028	0	-100	0	230	101300000	1000	0	0	-1	1500
12544835	133	1029	0	-100	0	230	101300000	1000	0	0	-1	1500
12557395	138	1026	0	-100	0	230	101300000	1000	0	0	-1	1500
12569955	140	1030	0	-100	0	230	101300000	1000	0	0	-1	1500
12582515	130	1029	0	-100	0	230	101300000	1000	0	0	-1	1500
12595075	133	1026	0	-100	0	230	101300000	1000	0	0	-1	1500
12607635	135	1030	0	-100	0	230	101300000	1000	0	0	-1	1500
12620195	140	1029	0	-100	0	230	101300000	1000	0	0	-1	1500
12632755	131	1032	0	-100	0	230	101300000	1000	0	0	-1	1500
12645315	133	1032	0	-100	0	230	101300000	1000	0	0	-1	1500
12657875	138	1029	0	-100	0	230	101300000	1000	0	0	-1	1500
12670435	140	1023	0	-100	0	230	101300000	1000	0	0	-1	1500
12682995	133	1027	0	-100	0	230	101300000	1000	0	0	-1	1500
12695555	133	1031	0	-100	0	230	101300000	1000	0	0	-1	1500
12708115	135	1026	0	-100	0	230	101300000	1000	0	0	-1	1500
12720675	138	1023	0	-100	0	230	101300000	1000	0	0	-1	1500
12733235	133	1029	0	-100	0	230	101300000	1000	0	0	-1	1500
12745795	133	1033	0	-100	0	230	101300000	1000	0	0	-1	1500
12758355	138	1028	0	-100	0	230	101300000	1000	0	0	-1	1500
12770915	140	1026	0	-100	0	230	101300000	1000	0	0	-1	1500
12783475	135	1028	0	-100	0	230	101300000	1000	0	0	-1	1500
12796035	131	1030	0	-100	0	230	101300000	1000	0	0	-1	1500
12808595	133	1027	0	-100	0	230	101300000	1000	0	0	-1	1500
12821155	135	1026	0	-100	0	230	101300000	1000	0	0	-1	1500
12833715	131	1030	0	-100	0	230	101300000	1000	0	0	-1	1500
12846275	133	1031	0	-100	0	230	101300000	1000	0	0	-1	1500
12858835	138	1026	0	-100	0	230	101300000	1000	0	0	-1	1500
12871395	138	1026	0	-100	0	230	101300000	1000	0	0	-1	1500
12883955	130	1028	0	-100	0	230	101300000	1000	0	0	-1	1500
12896515	135	1032	0	-100	0	230	101300000	1000	0	0	-1	1500
12909075	138	1029	0	-100	0	230	101300000	1000	0	0	-1	1500
12921635	138	1023	0	-100	0	230	101300000	1000	0	0	-1	1500
12934195	133	1026	0	-100	0	230	101300000	1000	0	0	-1	1500
12946755	133	1029	0	-100	0	230	101300000	1000	0	0	-1	1500
12959315	138	1027	0	-100	0	230	101300000	1000	0	0	-1	1500
12971875	135	1030	0	-100	0	230	101300000	1000	0	0	-1	1500
12984435	140	1025	0	-100	0	230	101300000	1000	0	0	-1	1500
12996995	131	1028	0	-100	0	230	101300000	1000	0	0	-1	1500
13009555	130	1031	0	-100	0	230	101300000	1000	0	0	-1	1500
13022115	135	1030	0	-100	0	230	101300000	1000	0	0	-1	1500
13034675	140	1028	0	-100	0	230	101300000	1000	0	0	-1	1500
13047235	135	1026	0	-100	0	230	101300000	1000	0	0	-1	1500
13059795	130	1030	0	-100	0	230	101300000	1000	0	0	-1	1500
13072355	133	1031	0	-100	0	230	101300000	1000	0	0	-1	1500
13084915	133	1030	0	-100	0	230	101300000	1000	0	0	-1	1500
13097475	135	1026	0	-100	0	230	101300000	1000	0	0	-1	1500
13110035	140	1026	0	-100	0	230	101300000	1000	0	0	-1	1500
13122595	133	1025	0	-100	0	230	101300000	1000	0	0	-1	1500
13135155	130	1030	0	-100	0	230	101300000	1000	0	0	-1	1500
13147715	133	1028	0	-100	0	230	101300000	1000	0	0	-1	1500
13160275	135	1026	0	-100	0	230	101300000	1000	0	0	-1	1500
13172835	138	1028	0	-100	0	230	101300000	1000	0	0	-1	1500
13185395	140	1025	0	-100	0	230	101300000	1000	0	0	-1	1500
13197955	133	1027	0	-100	0	230	101300000	1000	0	0	-1	1500
13210515	130	1029	0	-100	0	230	101300000	1000	0	0	-1	1500
13223075	133	1031	0	-100	0	230	101300000	1000	0	0	-1	1500
13235635	135	1033	0	-100	0	230	101300000	1000	0	0	-1	1500
13248195	133	1047	0	-100	0	230	101300000	1000	0	0	-1	1500
13260755	135	1027	0	-100	0	230	101300000	1000	0	0	-1	1500
13273315	140	1026	0	-100	0	230	101300000	1000	0	0	-1	1500
13285875	138	1024	0	-100	0	230	101300000	1000	0	0	-1	1500
13298435	133	1026	0	-100	0	230	101300000	1000	0	0	-1	1500
13310995	131	1029	0	-100	0	230	101300000	1000	0	0	-1	1500
13323555	133	1026	0	-100	0	230	101300000	1000	0	0	-1	1500
13336115	133	1029	0	-100	0	230	101300000	1000	0	0	-1	1500
13348675	135	1027	0	-100	0	230	101300000	1000	0	0	-1	1500
13361235	140	1026	0	-100	0	230	101300000	1000	0	0	-1	1500
13373795	143	1027	0	-100	0	230	101300000	1000	0	0	-1	1500
13386355	138	1028	0	-100	0	230	101300000	1000	0	0	-1	1500
13398915	140	1023	0	-100	0	230	101300000	1000	0	0	-1	1500
13411475	135	1029	0	-100	0	230	101300000	1000	0	0	-1	1500
13424035	133	1029	0	-100	0	230	101300000	1000	0	0	-1	1500
13436595	133	1027	0	-100	0	230	101300000	1000	0	0	-1	1500
13449155	133	1029	0	-100	0	230	101300000	1000	0	0	-1	1500
13461715	140	1027	0	-100	0	230	101300000	1000	0	0	-1	1500
13474275	130	1031	0	-100	0	230	101300000	1000	0	0	-1	1500
13486835	133	1027	0	-100	0	230	101300000	1000	0	0	-1	1500
13499395	135	1027	0	-100	0	230	101300000	1000	0	0	-1	1500
13511955	140	1025	0	-100	0	230	101300000	1000	0	0	-1	1500
13524515	143	1029	0	-100	0	230	101300000	1000	0	0	-1	1500
13537075	135	1029	0	-100	0	230	101300000	1000	0	0	-1	1500
13549635	130	1029	0	-100	0	230	101300000	1000	0	0	-1	1500
13562195	133	1028	0	-100	0	230	101300000	1000	0	0	-1	1500
13574755	133	1031	0	-100	0	230	101300000	1000	0	0	-1	1500
13587315	138	1025	0	-100	0	230	101300000	1000	0	0	-1	1500
13599875	138	1024	0	-100	0	230	101300000	1000	0	0	-1	1500
13612435	140	1029	0	-100	0	230	101300000	1000	0	0	-1	1500
13624995	140	1030	0	-100	0	230	101300000	1000	0	0	-1	1500
13637555	131	1030	0	-100	0	230	101300000	1000	0	0	-1	1500
13650115	133	1027	0	-100	0	230	101300000	1000	0	0	-1	1500
13662675	131	1028	0	-100	0	230	101300000	1000	0	0	-1	1500
13675235	133	1033	0	-100	0	230	101300000	1000	0	0	-1	1500
13687795	138	1025	0	-100	0	230	101300000	1000	0	0	-1	1500
13700355	138	1028	0	-100	0	230	101300000	1000	0	0	-1	1500
13712915	140	1026	0	-100	0	230	101300000	1000	0	0	-1	1500
13725475	135	1027	0	-100	0	230	101300000	1000	0	0	-1	1500
13738035	131	1030	0	-100	0	230	101300000	1000	0	0	-1	1500
13750595	133	1033	0	-100	0	230	101300000	1000	0	0	-1	1500
13763155	130	1028	0	-100	0	230	101300000	1000	0	0	-1	1500
13775715	130	1032	0	-100	0	230	101300000	1000	0	0	-1	1500
13788275	133	1028	0	-100	0	230	101300000	1000	0	0	-1	1500
13800835	133	1027	0	-100	0	230	101300000	1000	0	0	-1	1500
13813395	138	1027	0	-100	0	230	101300000	1000	0	0	-1	1500
13825955	138	1029	0	-100	0	230	101300000	1000	0	0	-1	1500
13838515	138	1031	0	-100	0	230	101300000	1000	0	0	-1	1500
13851075	135	1028	0	-100	0	230	101300000	1000	0	0	-1	1500
13863635	133	1030	0	-100	0	230	101300000	1000	0	0	-1	1500
13876195	135	1034	0	-100	0	230	101300000	1000	0	0	-1	1500
13888755	133	1031	0	-100	0	230	101300000	1000	0	0	-1	1500
13901315	135	1027	0	-100	0	230	101300000	1000	0	0	-1	1500
13913875	133	1028	0	-100	0	230	101300000	1000	0	0	-1	1500
13926435	133	1029	0	-100	0	230	101300000	1000	0	0	-1	1500
13938995	131	1028	0	-100	0	230	101300000	1000	0	0	-1	1500
13951555	133	1029	0	-100	0	230	101300000	1000	0	0	-1	1500
13964115	131	1031	0	-100	0	230	101300000	1000	0	0	-1	1500
13976675	131	1030	0	-100	0	230	101300000	1000	0	0	-1	1500
13989235	131	1029	0	-100	0	230	101300000	1000	0	0	-1	1500
14001795	133	1031	0	-100	0	230	101300000	1000	0	0	-1	1500
14014355	133	1029	0	-100	0	230	101300000	1000	0	0	-1	1500
14026915	133	1030	0	-100	0	230	101300000	1000	0	0	-1	1500
14039475	135	1025	0	-100	0	230	101300000	1000	0	0	-1	1500
14052035	140	1025	0	-100	0	230	101300000	1000	0	0	-1	1500
14064595	140	1032	0	-100	0	230	101300000	1000	0	0	-1	1500
14077155	130	1029	0	-100	0	230	101300000	1000	0	0	-1	1500
14089715	133	1029	0	-100	0	230	101300000	1000	0	0	-1	1500
14102275	130	1032	0	-100	0	230	101300000	1000	0	0	-1	1500
14114835	133	1028	0	-100	0	230	101300000	1000	0	0	-1	1500
14127395	140	1029	0	-100	0	230	101300000	1000	0	0	-1	1500
14139955	138	1027	0	-100	0	230	101300000	1000	0	0	-1	1500
14152515	135	1025	0	-100	0	230	101300000	1000	0	0	-1	1500
14165075	133	1029	0	-100	0	230	101300000	1000	0	0	-1	1500
14177635	135	1031	0	-100	0	230	101300000	1000	0	0	-1	1500
14190195	131	1031	0	-100	0	230	101300000	1000	0	0	-1	1500
14202755	131	1029	0	-100	0	230	101300000	1000	0	0	-1	1500
14215315	140	1029	0	-100	0	230	101300000	1000	0	0	-1	1500
14227875	140	1027	0	-100	0	230	101300000	1000	0	0	-1	1500
14240435	138	1027	0	-100	0	230	101300000	1000	0	0	-1	1500
14252995	135	1026	0	-100	0	230	101300000	1000	0	0	-1	1500
14265555	133	1028	0	-100	0	230	101300000	1000	0	0	-1	1500
14278115	133	1031	0	-100	0	230	101300000	1000	0	0	-1	1500
14290675	133	1029	0	-100	0	230	101300000	1000	0	0	-1	1500
14303235	130	1029	0	-100	0	230	101300000	1000	0	0	-1	1500
14315795	140	1026	0	-100	0	230	101300000	1000	0	0	-1	1500
14328355	138	1025	0	-100	0	230	101300000	1000	0	0	-1	1500
14340915	135	1027	0	-100	0	230	101300000	1000	0	0	-1	1500
14353475	133	1028	0	-100	0	230	101300000	1000	0	0	-1	1500
14366035	135	1029	0	-100	0	230	101300000	1000	0	0	-1	1500
14378595	130	1031	0	-100	0	230	101300000	1000	0	0	-1	1500
14391155	128	1029	0	-100	0	230	101300000	1000	0	0	-1	1500
14403715	133	1028	0	-100	0	230	101300000	1000	0	0	-1	1500
14416275	138	1029	0	-100	0	230	101300000	1000	0	0	-1	1500
14428835	140	1030	0	-100	0	230	101300000	1000	0	0	-1	1500
14441395	138	1027	0	-100	0	230	101300000	1000	0	0	-1	1500
14453955	130	1028	0	-100	0	230	101300000	1000	0	0	-1	1500
14466515	133	1030	0	-100	0	230	101300000	1000	0	0	-1	1500
14479075	131	1032	0	-100	0	230	101300000	1000	0	0	-1	1500
14491635	133	1029	0	-100	0	230	101300000	1000	0	0	-1	1500
14504195	135	1028	0	-100	0	230	101300000	1000	0	0	-1	1500
14516755	133	1027	0	-100	0	230	101300000	1000	0	0	-1	1500
14529315	133	1026	0	-100	0	230	101300000	1000	0	0	-1	1500
14541875	143	1031	0	-100	0	230	101300000	1000	0	0	-1	1500
14554435	138	1025	0	-100	0	230	101300000	1000	0	0	-1	1500
14566995	138	1029	0	-100	0	230	101300000	1000	0	0	-1	1500
14579555	135	1025	0	-100	0	230	101300000	1000	0	0	-1	1500
14592115	133	1033	0	-100	0	230	101300000	1000	0	0	-1	1500
14604675	135	1038	0	-100	0	230	101300000	1000	0	0	-1	1500
14617235	131	1033	0	-100	0	230	101300000	1000	0	0	-1	1500
14629795	133	1032	0	-100	0	230	101300000	1000	0	0	-1	1500
14642355	130	1026	0	-100	0	230	101300000	1000	0	0	-1	1500
14654915	135	1027	0	-100	0	230	101300000	1000	0	0	-1	1500
14667475	143	1025	0	-100	0	230	101300000	1000	0	0	-1	1500
14680035	138	1029	0	-100	0	230	101300000	1000	0	0	-1	1500
14692595	138	1029	0	-100	0	230	101300000	1000	0	0	-1	1500
14705155	135	1021	0	-100	0	230	101300000	1000	0	0	-1	1500
14717715	140	1025	0	-100	0	230	101300000	1000	0	0	-1	1500
14730275	140	1025	0	-100	0	230	101300000	1000	0	0	-1	1500
14742835	140	1028	0	-100	0	230	101300000	1000	0	0	-1	1500
14755395	133	1032	0	-100	0	230	101300000	1000	0	0	-1	1500
14767955	135	1029	0	-100	0	230	101300000	1000	0	0	-1	1500
14780515	135	1030	0	-100	0	230	101300000	1000	0	0	-1	1500
14793075	133	1032	0	-100	0	230	101300000	1000	0	0	-1	1500
14805635	131	1028	0	-100	0	230	101300000	1000	0	0	-1	1500
14818195	135	1030	0	-100	0	230	101300000	1000	0	0	-1	1500
14830755	140	1025	0	-100	0	230	101300000	1000	0	0	-1	1500
14843315	138	1025	0	-100	0	230	101300000	1000	0	0	-1	1500
14855875	133	1029	0	-100	0	230	101300000	1000	0	0	-1	1500
14868435	131	1030	0	-100	0	230	101300000	1000	0	0	-1	1500
14880995	140	1028	0	-100	0	230	101300000	1000	0	0	-1	1500
14893555	140	1027	0	-100	0	230	101300000	1000	0	0	-1	1500
14906115	130	1027	0	-100	0	230	101300000	1000	0	0	-1	1500
14918675	133	1029	0	-100	0	230	101300000	1000	0	0	-1	1500
14931235	140	1028	0	-100	0	230	101300000	1000	0	0	-1	1500
14943795	133	1030	0	-100	0	230	101300000	1000	0	0	-1	1500
14956355	133	1022	0	-100	0	230	101300000	1000	0	0	-1	1500
14968915	135	1029	0	-100	0	230	101300000	1000	0	0	-1	1500
14981475	135	1029	0	-100	0	230	101300000	1000	0	0	-1	1500
14994035	130	1027	0	-100	0	230	101300000	1000	0	0	-1	1500
15006595	138	1027	0	-100	0	230	101300000	1000	0	0	-1	1500
15019155	130	1023	0	-100	0	230	101300000	1000	0	0	-1	1500
15031715	133	1027	0	-100	0	230	101300000	1000	0	0	-1	1500
15044275	130	1030	0	-100	0	230	101300000	1000	0	0	-1	1500
15056835	138	1026	0	-100	0	230	101300000	1000	0	0	-1	1500
15069395	138	1027	0	-100	0	230	101300000	1000	0	0	-1	1500
15081955	133	1030	0	-100	0	230	101300000	1000	0	0	-1	1500
15094515	130	1030	0	-100	0	230	101300000	1000	0	0	-1	1500
15107075	135	1029	0	-100	0	230	101300000	1000	0	0	-1	1500
15119635	140	1026	0	-100	0	230	101300000	1000	0	0	-1	1500
15132195	138	1026	0	-100	0	230	101300000	1000	0	0	-1	1500
15144755	130	1027	0	-100	0	230	101300000	1000	0	0	-1	1500
15157315	131	1027	0	-100	0	230	101300000	1000	0	0	-1	1500
15169875	138	1026	0	-100	0	230	101300000	1000	0	0	-1	1500
15182435	133	1024	0	-100	0	230	101300000	1000	0	0	-1	1500
15194995	135	1027	0	-100	0	230	101300000	1000	0	0	-1	1500
15207555	133	1029	0	-100	0	230	101300000	1000	0	0	-1	1500
15220115	140	1027	0	-100	0	230	101300000	1000	0	0	-1	1500
15232675	135	1025	0	-100	0	230	101300000	1000	0	0	-1	1500
15245235	138	1030	0	-100	0	230	101300000	1000	0	0	-1	1500
15257795	133	1029	0	-100	0	230	101300000	1000	0	0	-1	1500
15270355	138	1026	0	-100	0	230	101300000	1000	0	0	-1	1500
15282915	130	1030	0	-100	0	230	101300000	1000	0	0	-1	1500
15295475	131	1032	0	-100	0	230	101300000	1000	0	0	-1	1500
15308035	138	1030	0	-100	0	230	101300000	1000	0	0	-1	1500
15320595	140	1027	0	-100	0	230	101300000	1000	0	0	-1	1500
15333155	130	1029	0	-100	0	230	101300000	1000	0	0	-1	1500
15345715	133	1030	0	-100	0	230	101300000	1000	0	0	-1	1500
15358275	130	1028	0	-100	0	230	101300000	1000	0	0	-1	1500
15370835	140	1024	0	-100	0	230	101300000	1000	0	0	-1	1500
15383395	133	1026	0	-100	0	230	101300000	1000	0	0	-1	1500
15395955	133	1029	0	-100	0	230	101300000	1000	0	0	-1	1500
15408515	133	1028	0	-100	0	230	101300000	1000	0	0	-1	1500
15421075	140	1026	0	-100	0	230	101300000	1000	0	0	-1	1500
15433635	135	1026	0	-100	0	230	101300000	1000	0	0	-1	1500
15446195	133	1027	0	-100	0	230	101300000	1000	0	0	-1	1500
15458755	131	1033	0	-100	0	230	101300000	1000	0	0	-1	1500
15471315	133	1027	0	-100	0	230	101300000	1000	0	0	-1	1500
15483875	140	1026	0	-100	0	230	101300000	1000	0	0	-1	1500
15496435	138	1027	0	-100	0	230	101300000	1000	0	0	-1	1500
15508995	133	1026	0	-100	0	230	101300000	1000	0	0	-1	1500
15521555	133	1028	0	-100	0	230	101300000	1000	0	0	-1	1500
15534115	130	1028	0	-100	0	230	101300000	1000	0	0	-1	1500
15546675	135	1028	0	-100	0	230	101300000	1000	0	0	-1	1500
15559235	140	1029	0	-100	0	230	101300000	1000	0	0	-1	1500
15571795	138	1027	0	-100	0	230	101300000	1000	0	0	-1	1500
15584355	133	1026	0	-100	0	230	101300000	1000	0	0	-1	1500
15596915	133	1032	0	-100	0	230	101300000	1000	0	0	-1	1500
15609475	140	1026	0	-100	0	230	101300000	1000	0	0	-1	1500
15622035	135	1026	0	-100	0	230	101300000	1000	0	0	-1	1500
15634595	130	1030	0	-100	0	230	101300000	1000	0	0	-1	1500
15647155	130	1032	0	-100	0	230	101300000	1000	0	0	-1	1500
15659715	133	1026	0	-100	0	230	101300000	1000	0	0	-1	1500
15672275	140	1029	0	-100	0	230	101300000	1000	0	0	-1	1500
15684835	133	1026	0	-100	0	230	101300000	1000	0	0	-1	1500
15697395	133	1031	0	-100	0	230	101300000	1000	0	0	-1	1500
15709955	130	1028	0	-100	0	230	101300000	1000	0	0	-1	1500
15722515	140	1032	0	-100	0	230	101300000	1000	0	0	-1	1500
15735075	138	1026	0	-100	0	230	101300000	1000	0	0	-1	1500
15747635	135	1026	0	-100	0	230	101300000	1000	0	0	-1	1500
15760195	135	1028	0	-100	0	230	101300000	1000	0	0	-1	1500
15772755	128	1028	0	-100	0	230	101300000	1000	0	0	-1	1500
15785315	140	1023	0	-100	0	230	101300000	1000	0	0	-1	1500
15797875	133	1028	0	-100	0	230	101300000	1000	0	0	-1	1500
15810435	133	1033	0	-100	0	230	101300000	1000	0	0	-1	1500
15822995	138	1027	0	-100	0	230	101300000	1000	0	0	-1	1500
15835555	133	1029	0	-100	0	230	101300000	1000	0	0	-1	1500
15848115	131	1030	0	-100	0	230	101300000	1000	0	0	-1	1500
15860675	140	1030	0	-100	0	230	101300000	1000	0	0	-1	1500
15873235	138	1028	0	-100	0	230	101300000	1000	0	0	-1	1500
15885795	135	1029	0	-100	0	230	101300000	1000	0	0	-1	1500
15898355	135	1027	0	-100	0	230	101300000	1000	0	0	-1	1500
15910915	140	1028	0	-100	0	230	101300000	1000	0	0	-1	1500
15923475	133	1026	0	-100	0	230	101300000	1000	0	0	-1	1500
15936035	133	1027	0	-100	0	230	101300000	1000	0	0	-1	1500
15948595	131	1029	0	-100	0	230	101300000	1000	0	0	-1	1500
15961155	135	1028	0	-100	0	230	101300000	1000	0	0	-1	1500
15973715	135	1028	0	-100	0	230	101300000	1000	0	0	-1	1500
15986275	130	1027	0	-100	0	230	101300000	1000	0	0	-1	1500
15998835	140	1029	0	-100	0	230	101300000	1000	0	0	-1	1500
16011395	135	1029	0	-100	0	230	101300000	1000	0	0	-1	1500
16023955	130	1029	0	-100	0	230	101300000	1000	0	0	-1	1500
16036515	140	1023	0	-100	0	230	101300000	1000	0	0	-1	1500
16049075	138	1026	0	-100	0	230	101300000	1000	0	0	-1	1500
16061635	130	1029	0	-100	0	230	101300000	1000	0	0	-1	1500
16074195	130	1029	0	-100	0	230	101300000	1000	0	0	-1	1500
16086755	140	1023	0	-100	0	230	101300000	1000	0	0	-1	1500
16099315	135	1026	0	-100	0	230	101300000	1000	0	0	-1	1500
16111875	133	1035	0	-100	0	230	101300000	1000	0	0	-1	1500
16124435	133	1028	0	-100	0	230	101300000	1000	0	0	-1	1500
16136995	138	1030	0	-100	0	230	101300000	1000	0	0	-1	1500
16149555	133	1030	0	-100	0	230	101300000	1000	0	0	-1	1500
16162115	128	1032	0	-100	0	230	101300000	1000	0	0	-1	1500
16174675	140	1026	0	-100	0	230	101300000	1000	0	0	-1	1500
16187235	131	1030	0	-100	0	230	101300000	1000	0	0	-1	1500
16199795	128	1032	0	-100	0	230	101300000	1000	0	0	-1	1500
16212355	140	1030	0	-100	0	230	101300000	1000	0	0	-1	1500
16224915	135	1027	0	-100	0	230	101300000	1000	0	0	-1	1500
16237475	133	1029	0	-100	0	230	101300000	1000	0	0	-1	1500
16250035	138	1023	0	-100	0	230	101300000	1000	0	0	-1	1500
16262595	135	1025	0	-100	0	230	101300000	1000	0	0	-1	1500
16275155	130	1030	0	-100	0	230	101300000	1000	0	0	-1	1500
16287715	133	1031	0	-100	0	230	101300000	1000	0	0	-1	1500
16300275	140	1027	0	-100	0	230	101300000	1000	0	0	-1	1500
16312835	135	1029	0	-100	0	230	101300000	1000	0	0	-1	1500
16325395	130	1029	0	-100	0	230	101300000	1000	0	0	-1	1500
16337955	128	1028	0	-100	0	230	101300000	1000	0	0	-1	1500
16350515	135	1029	0	-100	0	230	101300000	1000	0	0	-1	1500
16363075	128	1027	0	-100	0	230	101300000	1000	0	0	-1	1500
16375635	128	1026	0	-100	0	230	101300000	1000	0	0	-1	1500
16388195	135	1026	0	-100	0	230	101300000	1000	0	0	-1	1500
16400755	130	1026	0	-100	0	230	101300000	1000	0	0	-1	1500
16413315	130	1025	0	-100	0	230	101300000	1000	0	0	-1	1500
16425875	133	1029	0	-100	0	230	101300000	1000	0	0	-1	1500
16438435	128	1032	0	-100	0	230	101300000	1000	0	0	-1	1500
16450995	126	1030	0	-100	0	230	101300000	1000	0	0	-1	1500
16463555	133	1028	0	-100	0	230	101300000	1000	0	0	-1	1500
16476115	135	1023	0	-100	0	230	101300000	1000	0	0	-1	1500
16488675	130	1023	0	-100	0	230	101300000	1000	0	0	-1	1500
16501235	130	1043	0	-100	0	230	101300000	1000	0	0	-1	1500
16513795	128	1030	0	-100	0	230	101300000	1000	0	0	-1	1500
16526355	128	1029	0	-100	0	230	101300000	1000	0	0	-1	1500
16538915	135	1025	0	-100	0	230	101300000	1000	0	0	-1	1500
16551475	135	1028	0	-100	0	230	101300000	1000	0	0	-1	1500
16564035	135	1027	0	-100	0	230	101300000	1000	0	0	-1	1500
16576595	128	1026	0	-100	0	230	101300000	1000	0	0	-1	1500
16589155	135	1027	0	-100	0	230	101300000	1000	0	0	-1	1500
16601715	126	1028	0	-100	0	230	101300000	1000	0	0	-1	1500
16614275	128	1029	0	-100	0	230	101300000	1000	0	0	-1	1500
16626835	128	1029	0	-100	0	230	101300000	1000	0	0	-1	1500
16639395	130	1029	0	-100	0	230	101300000	1000	0	0	-1	1500
16651955	135	1025	0	-100	0	230	101300000	1000	0	0	-1	1500
16664515	138	1025	0	-100	0	230	101300000	1000	0	0	-1	1500
16677075	138	1023	0	-100	0	230	101300000	1000	0	0	-1	1500
16689635	138	1025	0	-100	0	230	101300000	1000	0	0	-1	1500
16702195	135	1023	0	-100	0	230	101300000	1000	0	0	-1	1500
16714755	135	1024	0	-100	0	230	101300000	1000	0	0	-1	1500
16727315	135	1028	0	-100	0	230	101300000	1000	0	0	-1	1500
16739875	133	1027	0	-100	0	230	101300000	1000	0	0	-1	1500
16752435	133	1027	0	-100	0	230	101300000	1000	0	0	-1	1500
16764995	133	1028	0	-100	0	230	101300000	1000	0	0	-1	1500
16777555	133	1026	0	-100	0	230	101300000	1000	0	0	-1	1500
16790115	130	1025	0	-100	0	230	101300000	1000	0	0	-1	1500
16802675	130	1029	0	-100	0	230	101300000	1000	0	0	-1	1500
16815235	126	1030	0	-100	0	230	101300000	1000	0	0	-1	1500
16827795	128	1026	0	-100	0	230	101300000	1000	0	0	-1	1500
16840355	130	1029	0	-100	0	230	101300000	1000	0	0	-1	1500
16852915	128	1030	0	-100	0	230	101300000	1000	0	0	-1	1500
16865475	128	1033	0	-100	0	230	101300000	1000	0	0	-1	1500
16878035	130	1031	0	-100	0	230	101300000	1000	0	0	-1	1500
16890595	128	1030	0	-100	0	230	101300000	1000	0	0	-1	1500
16903155	133	1030	0	-100	0	230	101300000	1000	0	0	-1	1500
16915715	130	1031	0	-100	0	230	101300000	1000	0	0	-1	1500
16928275	133	1030	0	-100	0	230	101300000	1000	0	0	-1	1500
16940835	130	1026	0	-100	0	230	101300000	1000	0	0	-1	1500
16953395	128	1034	0	-100	0	230	101300000	1000	0	0	-1	1500
16965955	130	1023	0	-100	0	230	101300000	1000	0	0	-1	1500
16978515	130	1028	0	-100	0	230	101300000	1000	0	0	-1	1500
16991075	130	1028	0	-100	0	230	101300000	1000	0	0	-1	1500
17003635	130	1028	0	-100	0	230	101300000	1000	0	0	-1	1500
17016195	133	1028	0	-100	0	230	101300000	1000	0	0	-1	1500
17028755	133	1029	0	-100	0	230	101300000	1000	0	0	-1	1500
17041315	133	1028	0	-100	0	230	101300000	1000	0	0	-1	1500
17053875	135	1028	0	-100	0	230	101300000	1000	0	0	-1	1500
17066435	135	1028	0	-100	0	230	101300000	1000	0	0	-1	1500
17078995	135	1029	0	-100	0	230	101300000	1000	0	0	-1	1500
17091555	135	1027	0	-100	0	230	101300000	1000	0	0	-1	1500
17104115	135	1026	0	-100	0	230	101300000	1000	0	0	-1	1500
17116675	133	1026	0	-100	0	230	101300000	1000	0	0	-1	1500
17129235	128	1029	0	-100	0	230	101300000	1000	0	0	-1	1500
17141795	128	1030	0	-100	0	230	101300000	1000	0	0	-1	1500
17154355	128	1029	0	-100	0	230	101300000	1000	0	0	-1	1500
17166915	130	1027	0	-100	0	230	101300000	1000	0	0	-1	1500
17179475	133	1026	0	-100	0	230	101300000	1000	0	0	-1	1500
17192035	133	1028	0	-100	0	230	101300000	1000	0	0	-1	1500
17204595	135	1029	0	-100	0	230	101300000	1000	0	0	-1	1500
17217155	140	1023	0	-100	0	230	101300000	1000	0	0	-1	1500
17229715	135	1026	0	-100	0	230	101300000	1000	0	0	-1	1500
17242275	135	1026	0	-100	0	230	101300000	1000	0	0	-1	1500
17254835	133	1026	0	-100	0	230	101300000	1000	0	0	-1	1500
17267395	130	1028	0	-100	0	230	101300000	1000	0	0	-1	1500
17279955	130	1026	0	-100	0	230	101300000	1000	0	0	-1	1500
17292515	135	1028	0	-100	0	230	101300000	1000	0	0	-1	1500
17305075	130	1027	0	-100	0	230	101300000	1000	0	0	-1	1500
17317635	126	1026	0	-100	0	230	101300000	1000	0	0	-1	1500
17330195	130	1027	0	-100	0	230	101300000	1000	0	0	-1	1500
17342755	130	1028	0	-100	0	230	101300000	1000	0	0	-1	1500
17355315	138	1027	0	-100	0	230	101300000	1000	0	0	-1	1500
17367875	135	1028	0	-100	0	230	101300000	1000	0	0	-1	1500
17380435	133	1028	0	-100	0	230	101300000	1000	0	0	-1	1500
17392995	133	1024	0	-100	0	230	101300000	1000	0	0	-1	1500
17405555	128	1028	0	-100	0	230	101300000	1000	0	0	-1	1500
17418115	128	1027	0	-100	0	230	101300000	1000	0	0	-1	1500
17430675	126	1030	0	-100	0	230	101300000	1000	0	0	-1	1500
17443235	128	1028	0	-100	0	230	101300000	1000	0	0	-1	1500
17455795	128	1026	0	-100	0	230	101300000	1000	0	0	-1	1500
17468355	130	1026	0	-100	0	230	101300000	1000	0	0	-1	1500
17480915	128	1029	0	-100	0	230	101300000	1000	0	0	-1	1500
17493475	135	1026	0	-100	0	230	101300000	1000	0	0	-1	1500
17506035	135	1028	0	-100	0	230	101300000	1000	0	0	-1	1500
17518595	138	1025	0	-100	0	230	101300000	1000	0	0	-1	1500
17531155	140	1027	0	-100	0	230	101300000	1000	0	0	-1	1500
17543715	135	1023	0	-100	0	230	101300000	1000	0	0	-1	1500
17556275	138	1032	0	-100	0	230	101300000	1000	0	0	-1	1500
17568835	135	1025	0	-100	0	230	101300000	1000	0	0	-1	1500
17581395	133	1022	0	-100	0	230	101300000	1000	0	0	-1	1500
17593955	135	1024	0	-100	0	230	101300000	1000	0	0	-1	1500
17606515	135	1028	0	-100	0	230	101300000	1000	0	0	-1	1500
17619075	138	1030	0	-100	0	230	101300000	1000	0	0	-1	1500
17631635	135	1027	0	-100	0	230	101300000	1000	0	0	-1	1500
17644195	130	1025	0	-100	0	230	101300000	1000	0	0	-1	1500
17656755	126	1026	0	-100	0	230	101300000	1000	0	0	-1	1500
17669315	130	1029	0	-100	0	230	101300000	1000	0	0	-1	1500
17681875	130	1025	0	-100	0	230	101300000	1000	0	0	-1	1500
17694435	130	1025	0	-100	0	230	101300000	1000	0	0	-1	1500
17706995	133	1028	0	-100	0	230	101300000	1000	0	0	-1	1500
17719555	135	1027	0	-100	0	230	101300000	1000	0	0	-1	1500
17732115	135	1026	0	-100	0	230	101300000	1000	0	0	-1	1500
17744675	133	1023	0	-100	0	230	101300000	1000	0	0	-1	1500
17757235	130	1028	0	-100	0	230	101300000	1000	0	0	-1	1500
17769795	133	1026	0	-100	0	230	101300000	1000	0	0	-1	1500
17782355	128	1029	0	-100	0	230	101300000	1000	0	0	-1	1500
17794915	128	1030	0	-100	0	230	101300000	1000	0	0	-1	1500
17807475	130	1024	0	-100	0	230	101300000	1000	0	0	-1	1500
17820035	130	1028	0	-100	0	230	101300000	1000	0	0	-1	1500
17832595	130	1028	0	-100	0	230	101300000	1000	0	0	-1	1500
17845155	135	1029	0	-100	0	230	101300000	1000	0	0	-1	1500
17857715	128	1031	0	-100	0	230	101300000	1000	0	0	-1	1500
17870275	130	1029	0	-100	0	230	101300000	1000	0	0	-1	1500
17882835	128	1028	0	-100	0	230	101300000	1000	0	0	-1	1500
17895395	128	1029	0	-100	0	230	101300000	1000	0	0	-1	1500
17907955	128	1032	0	-100	0	230	101300000	1000	0	0	-1	1500
17920515	128	1028	0	-100	0	230	101300000	1000	0	0	-1	1500
17933075	128	1032	0	-100	0	230	101300000	1000	0	0	-1	1500
17945635	130	1026	0	-100	0	230	101300000	1000	0	0	-1	1500
17958195	133	1026	0	-100	0	230	101300000	1000	0	0	-1	1500
17970755	135	1026	0	-100	0	230	101300000	1000	0	0	-1	1500
17983315	135	1026	0	-100	0	230	101300000	1000	0	0	-1	1500
17995875	133	1025	0	-100	0	230	101300000	1000	0	0	-1	1500
18008435	128	1028	0	-100	0	230	101300000	1000	0	0	-1	1500
18020995	128	1029	0	-100	0	230	101300000	1000	0	0	-1	1500
18033555	130	1030	0	-100	0	230	101300000	1000	0	0	-1	1500
18046115	128	1031	0	-100	0	230	101300000	1000	0	0	-1	1500
18058675	130	1027	0	-100	0	230	101300000	1000	0	0	-1	1500
18071235	135	1023	0	-100	0	230	101300000	1000	0	0	-1	1500
18083795	130	1025	0	-100	0	230	101300000	1000	0	0	-1	1500
18096355	128	1030	0	-100	0	230	101300000	1000	0	0	-1	1500
18108915	128	1027	0	-100	0	230	101300000	1000	0	0	-1	1500
18121475	133	1031	0	-100	0	230	101300000	1000	0	0	-1	1500
18134035	135	1031	0	-100	0	230	101300000	1000	0	0	-1	1500
18146595	126	1030	0	-100	0	230	101300000	1000	0	0	-1	1500
18159155	133	1028	0	-100	0	230	101300000	1000	0	0	-1	1500
18171715	133	1027	0	-100	0	230	101300000	1000	0	0	-1	1500
18184275	130	1026	0	-100	0	230	101300000	1000	0	0	-1	1500
18196835	130	1030	0	-100	0	230	101300000	1000	0	0	-1	1500
18209395	128	1025	0	-100	0	230	101300000	1000	0	0	-1	1500
18221955	135	1023	0	-100	0	230	101300000	1000	0	0	-1	1500
18234515	126	1030	0	-100	0	230	101300000	1000	0	0	-1	1500
18247075	130	1030	0	-100	0	230	101300000	1000	0	0	-1	1500
18259635	130	1029	0	-100	0	230	101300000	1000	0	0	-1	1500
18272195	135	1021	0	-100	0	230	101300000	1000	0	0	-1	1500
18284755	126	1046	0	-100	0	230	101300000	1000	0	0	-1	1500
18297315	128	1030	0	-100	0	230	101300000	1000	0	0	-1	1500
18309875	135	1026	0	-100	0	230	101300000	1000	0	0	-1	1500
18322435	128	1030	0	-100	0	230	101300000	1000	0	0	-1	1500
18334995	126	1029	0	-100	0	230	101300000	1000	0	0	-1	1500
18347555	128	1030	0	-100	0	230	101300000	1000	0	0	-1	1500
18360115	133	1029	0	-100	0	230	101300000	1000	0	0	-1	1500
18372675	128	1026	0	-100	0	230	101300000	1000	0	0	-1	1500
18385235	130	1032	0	-100	0	230	101300000	1000	0	0	-1	1500
18397795	133	1025	0	-100	0	230	101300000	1000	0	0	-1	1500
18410355	138	1028	0	-100	0	230	101300000	1000	0	0	-1	1500
18422915	128	1029	0	-100	0	230	101300000	1000	0	0	-1	1500
18435475	128	1031	0	-100	0	230	101300000	1000	0	0	-1	1500
18448035	128	1031	0	-100	0	230	101300000	1000	0	0	-1	1500
18460595	133	1025	0	-100	0	230	101300000	1000	0	0	-1	1500
18473155	135	1027	0	-100	0	230	101300000	1000	0	0	-1	1500
18485715	128	1029	0	-100	0	230	101300000	1000	0	0	-1	1500
18498275	130	1027	0	-100	0	230	101300000	1000	0	0	-1	1500
18510835	133	1027	0	-100	0	230	101300000	1000	0	0	-1	1500
18523395	135	1023	0	-100	0	230	101300000	1000	0	0	-1	1500
18535955	130	1028	0	-100	0	230	101300000	1000	0	0	-1	1500
18548515	126	1030	0	-100	0	230	101300000	1000	0	0	-1	1500
18561075	128	1031	0	-100	0	230	101300000	1000	0	0	-1	1500
18573635	128	1029	0	-100	0	230	101300000	1000	0	0	-1	1500
18586195	130	1033	0	-100	0	230	101300000	1000	0	0	-1	1500
18598755	130	1027	0	-100	0	230	101300000	1000	0	0	-1	1500
18611315	126	1026	0	-100	0	230	101300000	1000	0	0	-1	1500
18623875	130	1023	0	-100	0	230	101300000	1000	0	0	-1	1500
18636435	135	1022	0	-100	0	230	101300000	1000	0	0	-1	1500
18648995	133	1028	0	-100	0	230	101300000	1000	0	0	-1	1500
18661555	128	1029	0	-100	0	230	101300000	1000	0	0	-1	1500
18674115	126	1029	0	-100	0	230	101300000	1000	0	0	-1	1500
18686675	130	1028	0	-100	0	230	101300000	1000	0	0	-1	1500
18699235	128	1030	0	-100	0	230	101300000	1000	0	0	-1	1500
18711795	128	1027	0	-100	0	230	101300000	1000	0	0	-1	1500
18724355	135	1021	0	-100	0	230	101300000	1000	0	0	-1	1500
18736915	135	1022	0	-100	0	230	101300000	1000	0	0	-1	1500
18749475	135	1027	0	-100	0	230	101300000	1000	0	0	-1	1500
18762035	128	1025	0	-100	0	230	101300000	1000	0	0	-1	1500
18774595	128	1029	0	-100	0	230	101300000	1000	0	0	-1	1500
18787155	133	1028	0	-100	0	230	101300000	1000	0	0	-1	1500
18799715	128	1026	0	-100	0	230	101300000	1000	0	0	-1	1500
18812275	126	1039	0	-100	0	230	101300000	1000	0	0	-1	1500
18824835	126	1036	0	-100	0	230	101300000	1000	0	0	-1	1500
18837395	130	1029	0	-100	0	230	101300000	1000	0	0	-1	1500
18849955	130	1029	0	-100	0	230	101300000	1000	0	0	-1	1500
18862515	128	1029	0	-100	0	230	101300000	1000	0	0	-1	1500
18875075	128	1029	0	-100	0	230	101300000	1000	0	0	-1	1500
18887635	128	1029	0	-100	0	230	101300000	1000	0	0	-1	1500
18900195	130	1025	0	-100	0	230	101300000	1000	0	0	-1	1500
18912755	128	1025	0	-100	0	230	101300000	1000	0	0	-1	1500
18925315	128	1025	0	-100	0	230	101300000	1000	0	0	-1	1500
18937875	130	1026	0	-100	0	230	101300000	1000	0	0	-1	1500
18950435	130	1023	0	-100	0	230	101300000	1000	0	0	-1	1500
18962995	130	1026	0	-100	0	230	101300000	1000	0	0	-1	1500
18975555	128	1025	0	-100	0	230	101300000	1000	0	0	-1	1500
18988115	133	1026	0	-100	0	230	101300000	1000	0	0	-1	1500
19000675	135	1027	0	-100	0	230	101300000	1000	0	0	-1	1500
19013235	135	1027	0	-100	0	230	101300000	1000	0	0	-1	1500
19025795	135	1022	0	-100	0	230	101300000	1000	0	0	-1	1500
19038355	135	1028	0	-100	0	230	101300000	1000	0	0	-1	1500
19050915	135	1028	0	-100	0	230	101300000	1000	0	0	-1	1500
19063475	135	1029	0	-100	0	230	101300000	1000	0	0	-1	1500
19076035	130	1023	0	-100	0	230	101300000	1000	0	0	-1	1500
19088595	128	1028	0	-100	0	230	101300000	1000	0	0	-1	1500
19101155	133	1029	0	-100	0	230	101300000	1000	0	0	-1	1500
19113715	126	1028	0	-100	0	230	101300000	1000	0	0	-1	1500
19126275	128	1026	0	-100	0	230	101300000	1000	0	0	-1	1500
19138835	128	1032	0	-100	0	230	101300000	1000	0	0	-1	1500
19151395	130	1027	0	-100	0	230	101300000	1000	0	0	-1	1500
19163955	133	1028	0	-100	0	230	101300000	1000	0	0	-1	1500
19176515	135	1028	0	-100	0	230	101300000	1000	0	0	-1	1500
19189075	128	1030	0	-100	0	230	101300000	1000	0	0	-1	1500
19201635	128	1030	0	-100	0	230	101300000	1000	0	0	-1	1500
19214195	126	1030	0	-100	0	230	101300000	1000	0	0	-1	1500
19226755	128	1028	0	-100	0	230	101300000	1000	0	0	-1	1500
19239315	133	1027	0	-100	0	230	101300000	1000	0	0	-1	1500
19251875	135	1021	0	-100	0	230	101300000	1000	0	0	-1	1500
19264435	130	1027	0	-100	0	230	101300000	1000	0	0	-1	1500
19276995	126	1029	0	-100	0	230	101300000	1000	0	0	-1	1500
19289555	126	1029	0	-100	0	230	101300000	1000	0	0	-1	1500
19302115	133	1029	0	-100	0	230	101300000	1000	0	0	-1	1500
19314675	130	1027	0	-100	0	230	101300000	1000	0	0	-1	1500
19327235	128	1029	0	-100	0	230	101300000	1000	0	0	-1	1500
19339795	130	1027	0	-100	0	230	101300000	1000	0	0	-1	1500
19352355	130	1028	0	-100	0	230	101300000	1000	0	0	-1	1500
19364915	128	1027	0	-100	0	230	101300000	1000	0	0	-1	1500
19377475	133	1027	0	-100	0	230	101300000	1000	0	0	-1	1500
19390035	133	1028	0	-100	0	230	101300000	1000	0	0	-1	1500
19402595	135	1030	0	-100	0	230	101300000	1000	0	0	-1	1500
19415155	133	1026	0	-100	0	230	101300000	1000	0	0	-1	1500
19427715	128	1031	0	-100	0	230	101300000	1000	0	0	-1	1500
19440275	130	1027	0	-100	0	230	101300000	1000	0	0	-1	1500
19452835	135	1026	0	-100	0	230	101300000	1000	0	0	-1	1500
19465395	135	1022	0	-100	0	230	101300000	1000	0	0	-1	1500
19477955	135	1028	0	-100	0	230	101300000	1000	0	0	-1	1500
19490515	130	1029	0	-100	0	230	101300000	1000	0	0	-1	1500
19503075	128	1028	0	-100	0	230	101300000	1000	0	0	-1	1500
19515635	128	1029	0	-100	0	230	101300000	1000	0	0	-1	1500
19528195	126	1031	0	-100	0	230	101300000	1000	0	0	-1	1500
19540755	128	1029	0	-100	0	230	101300000	1000	0	0	-1	1500
19553315	128	1030	0	-100	0	230	101300000	1000	0	0	-1	1500
19565875	128	1031	0	-100	0	230	101300000	1000	0	0	-1	1500
19578435	128	1029	0	-100	0	230	101300000	1000	0	0	-1	1500
19590995	126	1028	0	-100	0	230	101300000	1000	0	0	-1	1500
19603555	126	1028	0	-100	0	230	101300000	1000	0	0	-1	1500
19616115	128	1039	0	-100	0	230	101300000	1000	0	0	-1	1500
19628675	128	1031	0	-100	0	230	101300000	1000	0	0	-1	1500
19641235	128	1029	0	-100	0	230	101300000	1000	0	0	-1	1500
19653795	128	1028	0	-100	0	230	101300000	1000	0	0	-1	1500
19666355	130	1026	0	-100	0	230	101300000	1000	0	0	-1	1500
19678915	128	1027	0	-100	0	230	101300000	1000	0	0	-1	1500
19691475	130	1025	0	-100	0	230	101300000	1000	0	0	-1	1500
19704035	130	1029	0	-100	0	230	101300000	1000	0	0	-1	1500
19716595	128	1030	0	-100	0	230	101300000	1000	0	0	-1	1500
19729155	133	1028	0	-100	0	230	101300000	1000	0	0	-1	1500
19741715	128	1029	0	-100	0	230	101300000	1000	0	0	-1	1500
19754275	128	1029	0	-100	0	230	101300000	1000	0	0	-1	1500
19766835	128	1030	0	-100	0	230	101300000	1000	0	0	-1	1500
19779395	128	1029	0	-100	0	230	101300000	1000	0	0	-1	1500
19791955	130	1025	0	-100	0	230	101300000	1000	0	0	-1	1500
19804515	135	1027	0	-100	0	230	101300000	1000	0	0	-1	1500
19817075	135	1027	0	-100	0	230	101300000	1000	0	0	-1	1500
19829635	135	1026	0	-100	0	230	101300000	1000	0	0	-1	1500
19842195	138	1029	0	-100	0	230	101300000	1000	0	0	-1	1500
19854755	138	1025	0	-100	0	230	101300000	1000	0	0	-1	1500
19867315	135	1022	0	-100	0	230	101300000	1000	0	0	-1	1500
19879875	135	1027	0	-100	0	230	101300000	1000	0	0	-1	1500
19892435	135	1025	0	-100	0	230	101300000	1000	0	0	-1	1500
19904995	133	1027	0	-100	0	230	101300000	1000	0	0	-1	1500
19917555	135	1025	0	-100	0	230	101300000	1000	0	0	-1	1500
19930115	133	1026	0	-100	0	230	101300000	1000	0	0	-1	1500
19942675	133	1026	0	-100	0	230	101300000	1000	0	0	-1	1500
19955235	138	1028	0	-100	0	230	101300000	1000	0	0	-1	1500
19967795	130	1024	0	-100	0	230	101300000	1000	0	0	-1	1500
19980355	130	1028	0	-100	0	230	101300000	1000	0	0	-1	1500
19992915	126	1031	0	-100	0	230	101300000	1000	0	0	-1	1500
20005475	128	1026	0	-100	0	230	101300000	1000	0	0	-1	1500
20018035	126	1030	0	-100	0	230	101300000	1000	0	0	-1	1500
20030595	128	1028	0	-100	0	230	101300000	1000	0	0	-1	1500
20043155	133	1028	0	-100	0	230	101300000	1000	0	0	-1	1500
20055715	126	1028	0	-100	0	230	101300000	1000	0	0	-1	1500
20068275	128	1033	0	-100	0	230	101300000	1000	0	0	-1	1500
20080835	130	1030	0	-100	0	230	101300000	1000	0	0	-1	1500
20093395	128	1026	0	-100	0	230	101300000	1000	0	0	-1	1500
20105955	128	1030	0	-100	0	230	101300000	1000	0	0	-1	1500
20118515	130	1026	0	-100	0	230	101300000	1000	0	0	-1	1500
20131075	133	1025	0	-100	0	230	101300000	1000	0	0	-1	1500
20143635	135	1027	0	-100	0	230	101300000	1000	0	0	-1	1500
20156195	135	1024	0	-100	0	230	101300000	1000	0	0	-1	1500
20168755	135	1028	0	-100	0	230	101300000	1000	0	0	-1	1500
20181315	135	1026	0	-100	0	230	101300000	1000	0	0	-1	1500
20193875	135	1028	0	-100	0	230	101300000	1000	0	0	-1	1500
20206435	135	1023	0	-100	0	230	101300000	1000	0	0	-1	1500
20218995	133	1033	0	-100	0	230	101300000	1000	0	0	-1	1500
20231555	138	1027	0	-100	0	230	101300000	1000	0	0	-1	1500
20244115	130	1024	0	-100	0	230	101300000	1000	0	0	-1	1500
20256675	128	1025	0	-100	0	230	101300000	1000	0	0	-1	1500
20269235	126	1027	0	-100	0	230	101300000	1000	0	0	-1	1500
20281795	126	1028	0	-100	0	230	101300000	1000	0	0	-1	1500
20294355	128	1028	0	-100	0	230	101300000	1000	0	0	-1	1500
20306915	128	1029	0	-100	0	230	101300000	1000	0	0	-1	1500
20319475	128	1029	0	-100	0	230	101300000	1000	0	0	-1	1500
20332035	130	1030	0	-100	0	230	101300000	1000	0	0	-1	1500
20344595	130	1026	0	-100	0	230	101300000	1000	0	0	-1	1500
20357155	133	1027	0	-100	0	230	101300000	1000	0	0	-1	1500
20369715	128	1029	0	-100	0	230	101300000	1000	0	0	-1	1500
20382275	133	1028	0	-100	0	230	101300000	1000	0	0	-1	1500
20394835	135	1026	0	-100	0	230	101300000	1000	0	0	-1	1500
20407395	133	1031	0	-100	0	230	101300000	1000	0	0	-1	1500
20419955	126	1031	0	-100	0	230	101300000	1000	0	0	-1	1500
20432515	128	1027	0	-100	0	230	101300000	1000	0	0	-1	1500
20445075	128	1028	0	-100	0	230	101300000	1000	0	0	-1	1500
20457635	130	1027	0	-100	0	230	101300000	1000	0	0	-1	1500
20470195	133	1028	0	-100	0	230	101300000	1000	0	0	-1	1500
20482755	135	1024	0	-100	0	230	101300000	1000	0	0	-1	1500
20495315	135	1028	0	-100	0	230	101300000	1000	0	0	-1	1500
20507875	138	1027	0	-100	0	230	101300000	1000	0	0	-1	1500
20520435	130	1027	0	-100	0	230	101300000	1000	0	0	-1	1500
20532995	128	1033	0	-100	0	230	101300000	1000	0	0	-1	1500
20545555	128	1028	0	-100	0	230	101300000	1000	0	0	-1	1500
20558115	128	1027	0	-100	0	230	101300000	1000	0	0	-1	1500
20570675	130	1026	0	-100	0	230	101300000	1000	0	0	-1	1500
20583235	135	1022	0	-100	0	230	101300000	1000	0	0	-1	1500
20595795	130	1021	0	-100	0	230	101300000	1000	0	0	-1	1500
20608355	130	1030	0	-100	0	230	101300000	1000	0	0	-1	1500
20620915	130	1025	0	-100	0	230	101300000	1000	0	0	-1	1500
20633475	128	1030	0	-100	0	230	101300000	1000	0	0	-1	1500
20646035	130	1025	0	-100	0	230	101300000	1000	0	0	-1	1500
20658595	133	1032	0	-100	0	230	101300000	1000	0	0	-1	1500
20671155	138	1026	0	-100	0	230	101300000	1000	0	0	-1	1500
20683715	135	1027	0	-100	0	230	101300000	1000	0	0	-1	1500
20696275	128	1028	0	-100	0	230	101300000	1000	0	0	-1	1500
20708835	128	1029	0	-100	0	230	101300000	1000	0	0	-1	1500
20721395	128	1029	0	-100	0	230	101300000	1000	0	0	-1	1500
20733955	130	1027	0	-100	0	230	101300000	1000	0	0	-1	1500
20746515	135	1025	0	-100	0	230	101300000	1000	0	0	-1	1500
20759075	128	1029	0	-100	0	230	101300000	1000	0	0	-1	1500
20771635	126	1024	0	-100	0	230	101300000	1000	0	0	-1	1500
20784195	128	1030	0	-100	0	230	101300000	1000	0	0	-1	1500
20796755	130	1031	0	-100	0	230	101300000	1000	0	0	-1	1500
20809315	130	1026	0	-100	0	230	101300000	1000	0	0	-1	1500
20821875	130	1025	0	-100	0	230	101300000	1000	0	0	-1	1500
20834435	128	1026	0	-100	0	230	101300000	1000	0	0	-1	1500
20846995	128	1022	0	-100	0	230	101300000	1000	0	0	-1	1500
20859555	128	1024	0	-100	0	230	101300000	1000	0	0	-1	1500
20872115	130	1028	0	-100	0	230	101300000	1000	0	0	-1	1500
20884675	128	1029	0	-100	0	230	101300000	1000	0	0	-1	1500
20897235	128	1028	0	-100	0	230	101300000	1000	0	0	-1	1500
20909795	128	1029	0	-100	0	230	101300000	1000	0	0	-1	1500
20922355	133	1028	0	-100	0	230	101300000	1000	0	0	-1	1500
20934915	138	1027	0	-100	0	230	101300000	1000	0	0	-1	1500
20947475	135	1026	0	-100	0	230	101300000	1000	0	0	-1	1500
20960035	130	1026	0	-100	0	230	101300000	1000	0	0	-1	1500
20972595	126	1028	0	-100	0	230	101300000	1000	0	0	-1	1500
20985155	133	1028	0	-100	0	230	101300000	1000	0	0	-1	1500
20997715	128	1033	0	-100	0	230	101300000	1000	0	0	-1	1500
21010275	128	1028	0	-100	0	230	101300000	1000	0	0	-1	1500
21022835	130	1030	0	-100	0	230	101300000	1000	0	0	-1	1500
21035395	128	1031	0	-100	0	230	101300000	1000	0	0	-1	1500
21047955	130	1032	0	-100	0	230	101300000	1000	0	0	-1	1500
21060515	140	1025	0	-100	0	230	101300000	1000	0	0	-1	1500
21073075	133	1025	0	-100	0	230	101300000	1000	0	0	-1	1500
21085635	135	1030	0	-100	0	230	101300000	1000	0	0	-1	1500
21098195	133	1025	0	-100	0	230	101300000	1000	0	0	-1	1500
21110755	126	1029	0	-100	0	230	101300000	1000	0	0	-1	1500
21123315	128	1028	0	-100	0	230	101300000	1000	0	0	-1	1500
21135875	128	1031	0	-100	0	230	101300000	1000	0	0	-1	1500
21148435	128	1030	0	-100	0	230	101300000	1000	0	0	-1	1500
21160995	135	1029	0	-100	0	230	101300000	1000	0	0	-1	1500
21173555	130	1030	0	-100	0	230	101300000	1000	0	0	-1	1500
21186115	135	1026	0	-100	0	230	101300000	1000	0	0	-1	1500
21198675	126	1029	0	-100	0	230	101300000	1000	0	0	-1	1500
21211235	135	1026	0	-100	0	230	101300000	1000	0	0	-1	1500
21223795	126	1027	0	-100	0	230	101300000	1000	0	0	-1	1500
21236355	128	1032	0	-100	0	230	101300000	1000	0	0	-1	1500
21248915	135	1025	0	-100	0	230	101300000	1000	0	0	-1	1500
21261475	126	1030	0	-100	0	230	101300000	1000	0	0	-1	1500
21274035	130	1029	0	-100	0	230	101300000	1000	0	0	-1	1500
21286595	130	1025	0	-100	0	230	101300000	1000	0	0	-1	1500
21299155	133	1029	0	-100	0	230	101300000	1000	0	0	-1	1500
21311715	135	1029	0	-100	0	230	101300000	1000	0	0	-1	1500
21324275	130	1026	0	-100	0	230	101300000	1000	0	0	-1	1500
21336835	138	1026	0	-100	0	230	101300000	1000	0	0	-1	1500
21349395	128	1027	0	-100	0	230	101300000	1000	0	0	-1	1500
21361955	130	1028	0	-100	0	230	101300000	1000	0	0	-1	1500
21374515	128	1027	0	-100	0	230	101300000	1000	0	0	-1	1500
21387075	130	1026	0	-100	0	230	101300000	1000	0	0	-1	1500
21399635	128	1031	0	-100	0	230	101300000	1000	0	0	-1	1500
21412195	138	1028	0	-100	0	230	101300000	1000	0	0	-1	1500
21424755	130	1027	0	-100	0	230	101300000	1000	0	0	-1	1500
21437315	138	1027	0	-100	0	230	101300000	1000	0	0	-1	1500
21449875	126	1030	0	-100	0	230	101300000	1000	0	0	-1	1500
21462435	128	1032	0	-100	0	230	101300000	1000	0	0	-1	1500
21474995	135	1029	0	-100	0	230	101300000	1000	0	0	-1	1500
21487555	130	1029	0	-100	0	230	101300000	1000	0	0	-1	1500
21500115	135	1026	0	-100	0	230	101300000	1000	0	0	-1	1500
21512675	128	1031	0	-100	0	230	101300000	1000	0	0	-1	1500
21525235	135	1029	0	-100	0	230	101300000	1000	0	0	-1	1500
21537795	126	1030	0	-100	0	230	101300000	1000	0	0	-1	1500
21550355	135	1028	0	-100	0	230	101300000	1000	0	0	-1	1500
21562915	128	1029	0	-100	0	230	101300000	1000	0	0	-1	1500
21575475	133	1028	0	-100	0	230	101300000	1000	0	0	-1	1500
21588035	128	1031	0	-100	0	230	101300000	1000	0	0	-1	1500
21600595	128	1031	0	-100	0	230	101300000	1000	0	0	-1	1500
21613155	138	1026	0	-100	0	230	101300000	1000	0	0	-1	1500
21625715	126	1029	0	-100	0	230	101300000	1000	0	0	-1	1500
21638275	128	1029	0	-100	0	230	101300000	1000	0	0	-1	1500
21650835	135	1025	0	-100	0	230	101300000	1000	0	0	-1	1500
21663395	130	1027	0	-100	0	230	101300000	1000	0	0	-1	1500
21675955	130	1027	0	-100	0	230	101300000	1000	0	0	-1	1500
21688515	128	1026	0	-100	0	230	101300000	1000	0	0	-1	1500
21701075	128	1031	0	-100	0	230	101300000	1000	0	0	-1	1500
21713635	135	1026	0	-100	0	230	101300000	1000	0	0	-1	1500
21726195	128	1026	0	-100	0	230	101300000	1000	0	0	-1	1500
21738755	135	1023	0	-100	0	230	101300000	1000	0	0	-1	1500
21751315	128	1030	0	-100	0	230	101300000	1000	0	0	-1	1500
21763875	133	1025	0	-100	0	230	101300000	1000	0	0	-1	1500
21776435	128	1030	0	-100	0	230	101300000	1000	0	0	-1	1500
21788995	130	1027	0	-100	0	230	101300000	1000	0	0	-1	1500
21801555	130	1024	0	-100	0	230	101300000	1000	0	0	-1	1500
21814115	138	1029	0	-100	0	230	101300000	1000	0	0	-1	1500
21826675	128	1030	0	-100	0	230	101300000	1000	0	0	-1	1500
21839235	128	1031	0	-100	0	230	101300000	1000	0	0	-1	1500
21851795	130	1026	0	-100	0	230	101300000	1000	0	0	-1	1500
21864355	138	1025	0	-100	0	230	101300000	1000	0	0	-1	1500
21876915	128	1029	0	-100	0	230	101300000	1000	0	0	-1	1500
21889475	128	1027	0	-100	0	230	101300000	1000	0	0	-1	1500
21902035	130	1025	0	-100	0	230	101300000	1000	0	0	-1	1500
21914595	135	1029	0	-100	0	230	101300000	1000	0	0	-1	1500
21927155	135	1025	0	-100	0	230	101300000	1000	0	0	-1	1500
21939715	128	1029	0	-100	0	230	101300000	1000	0	0	-1	1500
21952275	128	1030	0	-100	0	230	101300000	1000	0	0	-1	1500
21964835	133	1024	0	-100	0	230	101300000	1000	0	0	-1	1500
21977395	138	1026	0	-100	0	230	101300000	1000	0	0	-1	1500
21989955	126	1029	0	-100	0	230	101300000	1000	0	0	-1	1500
22002515	128	1029	0	-100	0	230	101300000	1000	0	0	-1	1500
22015075	133	1025	0	-100	0	230	101300000	1000	0	0	-1	1500
22027635	138	1027	0	-100	0	230	101300000	1000	0	0	-1	1500
22040195	128	1029	0	-100	0	230	101300000	1000	0	0	-1	1500
22052755	130	1026	0	-100	0	230	101300000	1000	0	0	-1	1500
22065315	135	1025	0	-100	0	230	101300000	1000	0	0	-1	1500
22077875	130	1040	0	-100	0	230	101300000	1000	0	0	-1	1500
22090435	130	1027	0	-100	0	230	101300000	1000	0	0	-1	1500
22102995	133	1028	0	-100	0	230	101300000	1000	0	0	-1	1500
22115555	128	1027	0	-100	0	230	101300000	1000	0	0	-1	1500
22128115	128	1029	0	-100	0	230	101300000	1000	0	0	-1	1500
22140675	130	1028	0	-100	0	230	101300000	1000	0	0	-1	1500
22153235	133	1029	0	-100	0	230	101300000	1000	0	0	-1	1500
22165795	128	1029	0	-100	0	230	101300000	1000	0	0	-1	1500
22178355	128	1028	0	-100	0	230	101300000	1000	0	0	-1	1500
22190915	133	1025	0	-100	0	230	101300000	1000	0	0	-1	1500
22203475	123	1027	0	-100	0	230	101300000	1000	0	0	-1	1500
22216035	138	1031	0	-100	0	230	101300000	1000	0	0	-1	1500
22228595	128	1028	0	-100	0	230	101300000	1000	0	0	-1	1500
22241155	138	1026	0	-100	0	230	101300000	1000	0	0	-1	1500
22253715	128	1031	0	-100	0	230	101300000	1000	0	0	-1	1500
22266275	130	1027	0	-100	0	230	101300000	1000	0	0	-1	1500
22278835	128	1032	0	-100	0	230	101300000	1000	0	0	-1	1500
22291395	130	1025	0	-100	0	230	101300000	1000	0	0	-1	1500
22303955	130	1026	0	-100	0	230	101300000	1000	0	0	-1	1500
22316515	128	1026	0	-100	0	230	101300000	1000	0	0	-1	1500
22329075	130	1023	0	-100	0	230	101300000	1000	0	0	-1	1500
22341635	126	1026	0	-100	0	230	101300000	1000	0	0	-1	1500
22354195	133	1026	0	-100	0	230	101300000	1000	0	0	-1	1500
22366755	126	1030	0	-100	0	230	101300000	1000	0	0	-1	1500
22379315	128	1028	0	-100	0	230	101300000	1000	0	0	-1	1500
22391875	128	1029	0	-100	0	230	101300000	1000	0	0	-1	1500
22404435	133	1025	0	-100	0	230	101300000	1000	0	0	-1	1500
22416995	128	1033	0	-100	0	230	101300000	1000	0	0	-1	1500
22429555	128	1031	0	-100	0	230	101300000	1000	0	0	-1	1500
22442115	135	1025	0	-100	0	230	101300000	1000	0	0	-1	1500
22454675	130	1029	0	-100	0	230	101300000	1000	0	0	-1	1500
22467235	130	1024	0	-100	0	230	101300000	1000	0	0	-1	1500
22479795	133	1027	0	-100	0	230	101300000	1000	0	0	-1	1500
22492355	128	1033	0	-100	0	230	101300000	1000	0	0	-1	1500
22504915	133	1028	0	-100	0	230	101300000	1000	0	0	-1	1500
22517475	130	1026	0	-100	0	230	101300000	1000	0	0	-1	1500
22530035	128	1030	0	-100	0	230	101300000	1000	0	0	-1	1500
22542595	128	1029	0	-100	0	230	101300000	1000	0	0	-1	1500
22555155	138	1029	0	-100	0	230	101300000	1000	0	0	-1	1500
22567715	128	1032	0	-100	0	230	101300000	1000	0	0	-1	1500
22580275	130	1027	0	-100	0	230	101300000	1000	0	0	-1	1500
22592835	133	1026	0	-100	0	230	101300000	1000	0	0	-1	1500
22605395	130	1024	0	-100	0	230	101300000	1000	0	0	-1	1500
22617955	128	1029	0	-100	0	230	101300000	1000	0	0	-1	1500
22630515	128	1030	0	-100	0	230	101300000	1000	0	0	-1	1500
22643075	133	1024	0	-100	0	230	101300000	1000	0	0	-1	1500
22655635	133	1024	0	-100	0	230	101300000	1000	0	0	-1	1500
22668195	130	1028	0	-100	0	230	101300000	1000	0	0	-1	1500
22680755	128	1030	0	-100	0	230	101300000	1000	0	0	-1	1500
22693315	128	1027	0	-100	0	230	101300000	1000	0	0	-1	1500
22705875	135	1024	0	-100	0	230	101300000	1000	0	0	-1	1500
22718435	133	1030	0	-100	0	230	101300000	1000	0	0	-1	1500
22730995	128	1031	0	-100	0	230	101300000	1000	0	0	-1	1500
22743555	128	1031	0	-100	0	230	101300000	1000	0	0	-1	1500
22756115	128	1028	0	-100	0	230	101300000	1000	0	0	-1	1500
22768675	133	1027	0	-100	0	230	101300000	1000	0	0	-1	1500
22781235	135	1027	0	-100	0	230	101300000	1000	0	0	-1	1500
22793795	135	1026	0	-100	0	230	101300000	1000	0	0	-1	1500
22806355	128	1027	0	-100	0	230	101300000	1000	0	0	-1	1500
22818915	128	1032	0	-100	0	230	101300000	1000	0	0	-1	1500
22831475	128	1030	0	-100	0	230	101300000	1000	0	0	-1	1500
22844035	135	1029	0	-100	0	230	101300000	1000	0	0	-1	1500
22856595	138	1030	0	-100	0	230	101300000	1000	0	0	-1	1500
22869155	135	1028	0	-100	0	230	101300000	1000	0	0	-1	1500
22881715	128	1031	0	-100	0	230	101300000	1000	0	0	-1	1500
22894275	126	1029	0	-100	0	230	101300000	1000	0	0	-1	1500
22906835	135	1026	0	-100	0	230	101300000	1000	0	0	-1	1500
22919395	133	1027	0	-100	0	230	101300000	1000	0	0	-1	1500
22931955	130	1029	0	-100	0	230	101300000	1000	0	0	-1	1500
22944515	130	1029	0	-100	0	230	101300000	1000	0	0	-1	1500
22957075	135	1024	0	-100	0	230	101300000	1000	0	0	-1	1500
22969635	128	1028	0	-100	0	230	101300000	1000	0	0	-1	1500
22982195	130	1025	0	-100	0	230	101300000	1000	0	0	-1	1500
22994755	133	1024	0	-100	0	230	101300000	1000	0	0	-1	1500
23007315	133	1029	0	-100	0	230	101300000	1000	0	0	-1	1500
23019875	130	1049	0	-100	0	230	101300000	1000	0	0	-1	1500
23032435	130	1026	0	-100	0	230	101300000	1000	0	0	-1	1500
23044995	135	1026	0	-100	0	230	101300000	1000	0	0	-1	1500
23057555	130	1027	0	-100	0	230	101300000	1000	0	0	-1	1500
23070115	128	1030	0	-100	0	230	101300000	1000	0	0	-1	1500
23082675	130	1026	0	-100	0	230	101300000	1000	0	0	-1	1500
23095235	128	1030	0	-100	0	230	101300000	1000	0	0	-1	1500
23107795	135	1029	0	-100	0	230	101300000	1000	0	0	-1	1500
23120355	128	1026	0	-100	0	230	101300000	1000	0	0	-1	1500
23132915	128	1028	0	-100	0	230	101300000	1000	0	0	-1	1500
23145475	133	1026	0	-100	0	230	101300000	1000	0	0	-1	1500
23158035	135	1021	0	-100	0	230	101300000	1000	0	0	-1	1500
23170595	128	1023	0	-100	0	230	101300000	1000	0	0	-1	1500
23183155	133	1028	0	-100	0	230	101300000	1000	0	0	-1	1500
23195715	133	1026	0	-100	0	230	101300000	1000	0	0	-1	1500
23208275	133	1027	0	-100	0	230	101300000	1000	0	0	-1	1500
23220835	135	1028	0	-100	0	230	101300000	1000	0	0	-1	1500
23233395	130	1028	0	-100	0	230	101300000	1000	0	0	-1	1500
23245955	126	1029	0	-100	0	230	101300000	1000	0	0	-1	1500
23258515	130	1032	0	-100	0	230	101300000	1000	0	0	-1	1500
23271075	135	1025	0	-100	0	230	101300000	1000	0	0	-1	1500
23283635	138	1029	0	-100	0	230	101300000	1000	0	0	-1	1500
23296195	126	1029	0	-100	0	230	101300000	1000	0	0	-1	1500
23308755	128	1028	0	-100	0	230	101300000	1000	0	0	-1	1500
23321315	128	1026	0	-100	0	230	101300000	1000	0	0	-1	1500
23333875	135	1028	0	-100	0	230	101300000	1000	0	0	-1	1500
23346435	133	1029	0	-100	0	230	101300000	1000	0	0	-1	1500
23358995	128	1031	0	-100	0	230	101300000	1000	0	0	-1	1500
23371555	128	1031	0	-100	0	230	101300000	1000	0	0	-1	1500
23384115	128	1029	0	-100	0	230	101300000	1000	0	0	-1	1500
23396675	130	1030	0	-100	0	230	101300000	1000	0	0	-1	1500
23409235	128	1029	0	-100	0	230	101300000	1000	0	0	-1	1500
23421795	133	1026	0	-100	0	230	101300000	1000	0	0	-1	1500
23434355	135	1028	0	-100	0	230	101300000	1000	0	0	-1	1500
23446915	135	1029	0	-100	0	230	101300000	1000	0	0	-1	1500
23459475	126	1027	0	-100	0	230	101300000	1000	0	0	-1	1500
23472035	128	1030	0	-100	0	230	101300000	1000	0	0	-1	1500
23484595	130	1030	0	-100	0	230	101300000	1000	0	0	-1	1500
23497155	133	1032	0	-100	0	230	101300000	1000	0	0	-1	1500
23509715	135	1023	0	-100	0	230	101300000	1000	0	0	-1	1500
23522275	135	1026	0	-100	0	230	101300000	1000	0	0	-1	1500
23534835	126	1030	0	-100	0	230	101300000	1000	0	0	-1	1500
23547395	130	1029	0	-100	0	230	101300000	1000	0	0	-1	1500
23559955	133	1024	0	-100	0	230	101300000	1000	0	0	-1	1500
23572515	135	1022	0	-100	0	230	101300000	1000	0	0	-1	1500
23585075	128	1029	0	-100	0	230	101300000	1000	0	0	-1	1500
23597635	133	1030	0	-100	0	230	101300000	1000	0	0	-1	1500
23610195	128	1025	0	-100	0	230	101300000	1000	0	0	-1	1500
23622755	135	1029	0	-100	0	230	101300000	1000	0	0	-1	1500
23635315	133	1024	0	-100	0	230	101300000	1000	0	0	-1	1500
23647875	126	1029	0	-100	0	230	101300000	1000	0	0	-1	1500
23660435	130	1023	0	-100	0	230	101300000	1000	0	0	-1	1500
23672995	130	1025	0	-100	0	230	101300000	1000	0	0	-1	1500
23685555	135	1025	0	-100	0	230	101300000	1000	0	0	-1	1500
23698115	128	1029	0	-100	0	230	101300000	1000	0	0	-1	1500
23710675	128	1029	0	-100	0	230	101300000	1000	0	0	-1	1500
23723235	130	1028	0	-100	0	230	101300000	1000	0	0	-1	1500
23735795	128	1028	0	-100	0	230	101300000	1000	0	0	-1	1500
23748355	133	1027	0	-100	0	230	101300000	1000	0	0	-1	1500
23760915	135	1026	0	-100	0	230	101300000	1000	0	0	-1	1500
23773475	130	1027	0	-100	0	230	101300000	1000	0	0	-1	1500
23786035	128	1031	0	-100	0	230	101300000	1000	0	0	-1	1500
23798595	128	1032	0	-100	0	230	101300000	1000	0	0	-1	1500
23811155	135	1028	0	-100	0	230	101300000	1000	0	0	-1	1500
23823715	135	1025	0	-100	0	230	101300000	1000	0	0	-1	1500
23836275	135	1029	0	-100	0	230	101300000	1000	0	0	-1	1500
23848835	128	1023	0	-100	0	230	101300000	1000	0	0	-1	1500
23861395	130	1028	0	-100	0	230	101300000	1000	0	0	-1	1500
23873955	126	1028	0	-100	0	230	101300000	1000	0	0	-1	1500
23886515	130	1030	0	-100	0	230	101300000	1000	0	0	-1	1500
23899075	128	1031	0	-100	0	230	101300000	1000	0	0	-1	1500
23911635	130	1028	0	-100	0	230	101300000	1000	0	0	-1	1500
23924195	133	1029	0	-100	0	230	101300000	1000	0	0	-1	1500
23936755	138	1029	0	-100	0	230	101300000	1000	0	0	-1	1500
23949315	126	1027	0	-100	0	230	101300000	1000	0	0	-1	1500
23961875	128	1035	0	-100	0	230	101300000	1000	0	0	-1	1500
23974435	128	1035	0	-100	0	230	101300000	1000	0	0	-1	1500
23986995	133	1027	0	-100	0	230	101300000	1000	0	0	-1	1500
23999555	135	1021	0	-100	0	230	101300000	1000	0	0	-1	1500
24012115	130	1026	0	-100	0	230	101300000	1000	0	0	-1	1500
24024675	128	1027	0	-100	0	230	101300000	1000	0	0	-1	1500
24037235	133	1029	0	-100	0	230	101300000	1000	0	0	-1	1500
24049795	135	1029	0	-100	0	230	101300000	1000	0	0	-1	1500
24062355	135	1031	0	-100	0	230	101300000	1000	0	0	-1	1500
24074915	126	1028	0	-100	0	230	101300000	1000	0	0	-1	1500
24087475	128	1028	0	-100	0	230	101300000	1000	0	0	-1	1500
24100035	133	1028	0	-100	0	230	101300000	1000	0	0	-1	1500
24112595	135	1024	0	-100	0	230	101300000	1000	0	0	-1	1500
24125155	140	1030	0	-100	0	230	101300000	1000	0	0	-1	1500
24137715	128	1026	0	-100	0	230	101300000	1000	0	0	-1	1500
24150275	128	1027	0	-100	0	230	101300000	1000	0	0	-1	1500
24162835	128	1036	0	-100	0	230	101300000	1000	0	0	-1	1500
24175395	130	1026	0	-100	0	230	101300000	1000	0	0	-1	1500
24187955	130	1027	0	-100	0	230	101300000	1000	0	0	-1	1500
24200515	133	1026	0	-100	0	230	101300000	1000	0	0	-1	1500
24213075	133	1029	0	-100	0	230	101300000	1000	0	0	-1	1500
24225635	135	1029	0	-100	0	230	101300000	1000	0	0	-1	1500
24238195	130	1026	0	-100	0	230	101300000	1000	0	0	-1	1500
24250755	128	1028	0	-100	0	230	101300000	1000	0	0	-1	1500
24263315	128	1026	0	-100	0	230	101300000	1000	0	0	-1	1500
24275875	126	1027	0	-100	0	230	101300000	1000	0	0	-1	1500
24288435	126	1030	0	-100	0	230	101300000	1000	0	0	-1	1500
24300995	128	1030	0	-100	0	230	101300000	1000	0	0	-1	1500
24313555	130	1032	0	-100	0	230	101300000	1000	0	0	-1	1500
24326115	133	1026	0	-100	0	230	101300000	1000	0	0	-1	1500
24338675	130	1027	0	-100	0	230	101300000	1000	0	0	-1	1500
24351235	128	1029	0	-100	0	230	101300000	1000	0	0	-1	1500
24363795	130	1024	0	-100	0	230	101300000	1000	0	0	-1	1500
24376355	130	1027	0	-100	0	230	101300000	1000	0	0	-1	1500
24388915	133	1029	0	-100	0	230	101300000	1000	0	0	-1	1500
24401475	135	1028	0	-100	0	230	101300000	1000	0	0	-1	1500
24414035	133	1028	0	-100	0	230	101300000	1000	0	0	-1	1500
24426595	135	1027	0	-100	0	230	101300000	1000	0	0	-1	1500
24439155	140	1025	0	-100	0	230	101300000	1000	0	0	-1	1500
24451715	135	1027	0	-100	0	230	101300000	1000	0	0	-1	1500
24464275	135	1027	0	-100	0	230	101300000	1000	0	0	-1	1500
24476835	130	1028	0	-100	0	230	101300000	1000	0	0	-1	1500
24489395	126	1027	0	-100	0	230	101300000	1000	0	0	-1	1500
24501955	128	1030	0	-100	0	230	101300000	1000	0	0	-1	1500
24514515	130	1025	0	-100	0	230	101300000	1000	0	0	-1	1500
24527075	130	1026	0	-100	0	230	101300000	1000	0	0	-1	1500
24539635	135	1027	0	-100	0	230	101300000	1000	0	0	-1	1500
24552195	138	1030	0	-100	0	230	101300000	1000	0	0	-1	1500
24564755	130	1025	0	-100	0	230	101300000	1000	0	0	-1	1500
24577315	128	1030	0	-100	0	230	101300000	1000	0	0	-1	1500
24589875	128	1027	0	-100	0	230	101300000	1000	0	0	-1	1500
24602435	128	1027	0	-100	0	230	101300000	1000	0	0	-1	1500
24614995	126	1025	0	-100	0	230	101300000	1000	0	0	-1	1500
24627555	128	1030	0	-100	0	230	101300000	1000	0	0	-1	1500
24640115	130	1025	0	-100	0	230	101300000	1000	0	0	-1	1500
24652675	130	1028	0	-100	0	230	101300000	1000	0	0	-1	1500
24665235	130	1029	0	-100	0	230	101300000	1000	0	0	-1	1500
24677795	135	1028	0	-100	0	230	101300000	1000	0	0	-1	1500
24690355	135	1024	0	-100	0	230	101300000	1000	0	0	-1	1500
24702915	135	1028	0	-100	0	230	101300000	1000	0	0	-1	1500
24715475	135	1024	0	-100	0	230	101300000	1000	0	0	-1	1500
24728035	133	1028	0	-100	0	230	101300000	1000	0	0	-1	1500
24740595	128	1030	0	-100	0	230	101300000	1000	0	0	-1	1500
24753155	130	1031	0	-100	0	230	101300000	1000	0	0	-1	1500
24765715	130	1028	0	-100	0	230	101300000	1000	0	0	-1	1500
24778275	128	1030	0	-100	0	230	101300000	1000	0	0	-1	1500
24790835	130	1027	0	-100	0	230	101300000	1000	0	0	-1	1500
24803395	133	1025	0	-100	0	230	101300000	1000	0	0	-1	1500
24815955	135	1028	0	-100	0	230	101300000	1000	0	0	-1	1500
24828515	130	1025	0	-100	0	230	101300000	1000	0	0	-1	1500
24841075	128	1026	0	-100	0	230	101300000	1000	0	0	-1	1500
24853635	128	1026	0	-100	0	230	101300000	1000	0	0	-1	1500
24866195	130	1026	0	-100	0	230	101300000	1000	0	0	-1	1500
24878755	128	1029	0	-100	0	230	101300000	1000	0	0	-1	1500
24891315	126	1027	0	-100	0	230	101300000	1000	0	0	-1	1500
24903875	128	1030	0	-100	0	230	101300000	1000	0	0	-1	1500
24916435	128	1028	0	-100	0	230	101300000	1000	0	0	-1	1500
24928995	126	1026	0	-100	0	230	101300000	1000	0	0	-1	1500
24941555	126	1027	0	-100	0	230	101300000	1000	0	0	-1	1500
24954115	128	1029	0	-100	0	230	101300000	1000	0	0	-1	1500
24966675	126	1027	0	-100	0	230	101300000	1000	0	0	-1	1500
24979235	126	1028	0	-100	0	230	101300000	1000	0	0	-1	1500
24991795	128	1032	0	-100	0	230	101300000	1000	0	0	-1	1500
25004355	126	1029	0	-100	0	230	101300000	1000	0	0	-1	1500
25016915	128	1034	0	-100	0	230	101300000	1000	0	0	-1	1500
25029475	130	1026	0	-100	0	230	101300000	1000	0	0	-1	1500
25042035	128	1025	0	-100	0	230	101300000	1000	0	0	-1	1500
25054595	133	1026	0	-100	0	230	101300000	1000	0	0	-1	1500
25067155	140	1029	0	-100	0	230	101300000	1000	0	0	-1	1500
25079715	130	1028	0	-100	0	230	101300000	1000	0	0	-1	1500
25092275	128	1032	0	-100	0	230	101300000	1000	0	0	-1	1500
25104835	128	1030	0	-100	0	230	101300000	1000	0	0	-1	1500
25117395	135	1030	0	-100	0	230	101300000	1000	0	0	-1	1500
25129955	133	1028	0	-100	0	230	101300000	1000	0	0	-1	1500
25142515	130	1029	0	-100	0	230	101300000	1000	0	0	-1	1500
25155075	128	1030	0	-100	0	230	101300000	1000	0	0	-1	1500
25167635	133	1024	0	-100	0	230	101300000	1000	0	0	-1	1500
25180195	135	1024	0	-100	0	230	101300000	1000	0	0	-1	1500
25192755	133	1030	0	-100	0	230	101300000	1000	0	0	-1	1500
25205315	130	1024	0	-100	0	230	101300000	1000	0	0	-1	1500
25217875	128	1030	0	-100	0	230	101300000	1000	0	0	-1	1500
25230435	128	1028	0	-100	0	230	101300000	1000	0	0	-1	1500
25242995	130	1026	0	-100	0	230	101300000	1000	0	0	-1	1500
25255555	130	1025	0	-100	0	230	101300000	1000	0	0	-1	1500
25268115	135	1023	0	-100	0	230	101300000	1000	0	0	-1	1500
25280675	130	1025	0	-100	0	230	101300000	1000	0	0	-1	1500
25293235	128	1031	0	-100	0	230	101300000	1000	0	0	-1	1500
25305795	130	1027	0	-100	0	230	101300000	1000	0	0	-1	1500
25318355	126	1029	0	-100	0	230	101300000	1000	0	0	-1	1500
25330915	133	1025	0	-100	0	230	101300000	1000	0	0	-1	1500
25343475	133	1026	0	-100	0	230	101300000	1000	0	0	-1	1500
25356035	128	1026	0	-100	0	230	101300000	1000	0	0	-1	1500
25368595	128	1026	0	-100	0	230	101300000	1000	0	0	-1	1500
25381155	135	1030	0	-100	0	230	101300000	1000	0	0	-1	1500
25393715	130	1024	0	-100	0	230	101300000	1000	0	0	-1	1500
25406275	130	1026	0	-100	0	230	101300000	1000	0	0	-1	1500
25418835	135	1026	0	-100	0	230	101300000	1000	0	0	-1	1500
25431395	133	1030	0	-100	0	230	101300000	1000	0	0	-1	1500
25443955	135	1028	0	-100	0	230	101300000	1000	0	0	-1	1500
25456515	128	1028	0	-100	0	230	101300000	1000	0	0	-1	1500
25469075	128	1032	0	-100	0	230	101300000	1000	0	0	-1	1500
25481635	128	1029	0	-100	0	230	101300000	1000	0	0	-1	1500
25494195	128	1031	0	-100	0	230	101300000	1000	0	0	-1	1500
25506755	128	1029	0	-100	0	230	101300000	1000	0	0	-1	1500
25519315	130	1027	0	-100	0	230	101300000	1000	0	0	-1	1500
25531875	128	1033	0	-100	0	230	101300000	1000	0	0	-1	1500
25544435	130	1024	0	-100	0	230	101300000	1000	0	0	-1	1500
25556995	135	1024	0	-100	0	230	101300000	1000	0	0	-1	1500
25569555	135	1026	0	-100	0	230	101300000	1000	0	0	-1	1500
25582115	135	1025	0	-100	0	230	101300000	1000	0	0	-1	1500
25594675	126	1028	0	-100	0	230	101300000	1000	0	0	-1	1500
25607235	126	1028	0	-100	0	230	101300000	1000	0	0	-1	1500
25619795	131	1028	0	-100	0	230	101300000	1000	0	0	-1	1500
25632355	130	1031	0	-100	0	230	101300000	1000	0	0	-1	1500
25644915	128	1025	0	-100	0	230	101300000	1000	0	0	-1	1500
25657475	128	1032	0	-100	0	230	101300000	1000	0	0	-1	1500
25670035	130	1025	0	-100	0	230	101300000	1000	0	0	-1	1500
25682595	133	1028	0	-100	0	230	101300000	1000	0	0	-1	1500
25695155	138	1025	0	-100	0	230	101300000	1000	0	0	-1	1500
25707715	133	1022	0	-100	0	230	101300000	1000	0	0	-1	1500
25720275	128	1029	0	-100	0	230	101300000	1000	0	0	-1	1500
25732835	126	1030	0	-100	0	230	101300000	1000	0	0	-1	1500
25745395	126	1029	0	-100	0	230	101300000	1000	0	0	-1	1500
25757955	130	1022	0	-100	0	230	101300000	1000	0	0	-1	1500
25770515	128	1032	0	-100	0	230	101300000	1000	0	0	-1	1500
25783075	133	1026	0	-100	0	230	101300000	1000	0	0	-1	1500
25795635	138	1029	0	-100	0	230	101300000	1000	0	0	-1	1500
25808195	135	1022	0	-100	0	230	101300000	1000	0	0	-1	1500
25820755	138	1024	0	-100	0	230	101300000	1000	0	0	-1	1500
25833315	133	1023	0	-100	0	230	101300000	1000	0	0	-1	1500
25845875	135	1025	0	-100	0	230	101300000	1000	0	0	-1	1500
25858435	135	1023	0	-100	0	230	101300000	1000	0	0	-1	1500
25870995	135	1027	0	-100	0	230	101300000	1000	0	0	-1	1500
25883555	130	1025	0	-100	0	230	101300000	1000	0	0	-1	1500
25896115	128	1030	0	-100	0	230	101300000	1000	0	0	-1	1500
25908675	126	1027	0	-100	0	230	101300000	1000	0	0	-1	1500
25921235	130	1028	0	-100	0	230	101300000	1000	0	0	-1	1500
25933795	126	1030	0	-100	0	230	101300000	1000	0	0	-1	1500
25946355	128	1030	0	-100	0	230	101300000	1000	0	0	-1	1500
25958915	130	1029	0	-100	0	230	101300000	1000	0	0	-1	1500
25971475	128	1029	0	-100	0	230	101300000	1000	0	0	-1	1500
25984035	133	1026	0	-100	0	230	101300000	1000	0	0	-1	1500
25996595	135	1022	0	-100	0	230	101300000	1000	0	0	-1	1500
26009155	133	1026	0	-100	0	230	101300000	1000	0	0	-1	1500
26021715	128	1029	0	-100	0	230	101300000	1000	0	0	-1	1500
26034275	130	1024	0	-100	0	230	101300000	1000	0	0	-1	1500
26046835	128	1026	0	-100	0	230	101300000	1000	0	0	-1	1500
26059395	133	1028	0	-100	0	230	101300000	1000	0	0	-1	1500
26071955	135	1027	0	-100	0	230	101300000	1000	0	0	-1	1500
26084515	128	1029	0	-100	0	230	101300000	1000	0	0	-1	1500
26097075	128	1030	0	-100	0	230	101300000	1000	0	0	-1	1500
26109635	126	1030	0	-100	0	230	101300000	1000	0	0	-1	1500
26122195	133	1026	0	-100	0	230	101300000	1000	0	0	-1	1500
26134755	135	1024	0	-100	0	230	101300000	1000	0	0	-1	1500
26147315	126	1043	0	-100	0	230	101300000	1000	0	0	-1	1500
26159875	128	1030	0	-100	0	230	101300000	1000	0	0	-1	1500
26172435	130	1027	0	-100	0	230	101300000	1000	0	0	-1	1500
26184995	133	1029	0	-100	0	230	101300000	1000	0	0	-1	1500
26197555	133	1029	0	-100	0	230	101300000	1000	0	0	-1	1500
26210115	133	1023	0	-100	0	230	101300000	1000	0	0	-1	1500
26222675	128	1025	0	-100	0	230	101300000	1000	0	0	-1	1500
26235235	128	1031	0	-100	0	230	101300000	1000	0	0	-1	1500
26247795	128	1028	0	-100	0	230	101300000	1000	0	0	-1	1500
26260355	128	1029	0	-100	0	230	101300000	1000	0	0	-1	1500
26272915	133	1027	0	-100	0	230	101300000	1000	0	0	-1	1500
26285475	135	1028	0	-100	0	230	101300000	1000	0	0	-1	1500
26298035	138	1026	0	-100	0	230	101300000	1000	0	0	-1	1500
26310595	128	1026	0	-100	0	230	101300000	1000	0	0	-1	1500
26323155	131	1031	0	-100	0	230	101300000	1000	0	0	-1	1500
26335715	128	1029	0	-100	0	230	101300000	1000	0	0	-1	1500
26348275	130	1029	0	-100	0	230	101300000	1000	0	0	-1	1500
26360835	135	1025	0	-100	0	230	101300000	1000	0	0	-1	1500
26373395	138	1030	0	-100	0	230	101300000	1000	0	0	-1	1500
26385955	128	1026	0	-100	0	230	101300000	1000	0	0	-1	1500
26398515	128	1028	0	-100	0	230	101300000	1000	0	0	-1	1500
26411075	130	1028	0	-100	0	230	101300000	1000	0	0	-1	1500
26423635	130	1030	0	-100	0	230	101300000	1000	0	0	-1	1500
26436195	133	1025	0	-100	0	230	101300000	1000	0	0	-1	1500
26448755	138	1025	0	-100	0	230	101300000	1000	0	0	-1	1500
26461315	128	1025	0	-100	0	230	101300000	1000	0	0	-1	1500
26473875	128	1031	0	-100	0	230	101300000	1000	0	0	-1	1500
26486435	128	1026	0	-100	0	230	101300000	1000	0	0	-1	1500
26498995	133	1027	0	-100	0	230	101300000	1000	0	0	-1	1500
26511555	135	1022	0	-100	0	230	101300000	1000	0	0	-1	1500
26524115	128	1028	0	-100	0	230	101300000	1000	0	0	-1	1500
26536675	128	1030	0	-100	0	230	101300000	1000	0	0	-1	1500
26549235	130	1027	0	-100	0	230	101300000	1000	0	0	-1	1500
26561795	133	1028	0	-100	0	230	101300000	1000	0	0	-1	1500
26574355	133	1028	0	-100	0	230	101300000	1000	0	0	-1	1500
26586915	135	1026	0	-100	0	230	101300000	1000	0	0	-1	1500
26599475	130	1026	0	-100	0	230	101300000	1000	0	0	-1	1500
26612035	128	1030	0	-100	0	230	101300000	1000	0	0	-1	1500
26624595	128	1032	0	-100	0	230	101300000	1000	0	0	-1	1500
26637155	138	1028	0	-100	0	230	101300000	1000	0	0	-1	1500
26649715	133	1021	0	-100	0	230	101300000	1000	0	0	-1	1500
26662275	128	1029	0	-100	0	230	101300000	1000	0	0	-1	1500
26674835	128	1030	0	-100	0	230	101300000	1000	0	0	-1	1500
26687395	128	1030	0	-100	0	230	101300000	1000	0	0	-1	1500
26699955	133	1026	0	-100	0	230	101300000	1000	0	0	-1	1500
26712515	128	1029	0	-100	0	230	101300000	1000	0	0	-1	1500
26725075	130	1027	0	-100	0	230	101300000	1000	0	0	-1	1500
26737635	130	1026	0	-100	0	230	101300000	1000	0	0	-1	1500
26750195	135	1029	0	-100	0	230	101300000	1000	0	0	-1	1500
26762755	138	1025	0	-100	0	230	101300000	1000	0	0	-1	1500
26775315	128	1027	0	-100	0	230	101300000	1000	0	0	-1	1500
26787875	128	1030	0	-100	0	230	101300000	1000	0	0	-1	1500
26800435	128	1030	0	-100	0	230	101300000	1000	0	0	-1	1500
26812995	133	1026	0	-100	0	230	101300000	1000	0	0	-1	1500
26825555	138	1024	0	-100	0	230	101300000	1000	0	0	-1	1500
26838115	131	1029	0	-100	0	230	101300000	1000	0	0	-1	1500
26850675	128	1027	0	-100	0	230	101300000	1000	0	0	-1	1500
26863235	128	1030	0	-100	0	230	101300000	1000	0	0	-1	1500
26875795	135	1026	0	-100	0	230	101300000	1000	0	0	-1	1500
26888355	130	1028	0	-100	0	230	101300000	1000	0	0	-1	1500
26900915	128	1032	0	-100	0	230	101300000	1000	0	0	-1	1500
26913475	130	1026	0	-100	0	230	101300000	1000	0	0	-1	1500
26926035	130	1029	0	-100	0	230	101300000	1000	0	0	-1	1500
26938595	133	1027	0	-100	0	230	101300000	1000	0	0	-1	1500
26951155	140	1030	0	-100	0	230	101300000	1000	0	0	-1	1500
26963715	126	1028	0	-100	0	230	101300000	1000	0	0	-1	1500
26976275	130	1029	0	-100	0	230	101300000	1000	0	0	-1	1500
26988835	130	1028	0	-100	0	230	101300000	1000	0	0	-1	1500
27001395	130	1029	0	-100	0	230	101300000	1000	0	0	-1	1500
27013955	133	1025	0	-100	0	230	101300000	1000	0	0	-1	1500
27026515	135	1027	0	-100	0	230	101300000	1000	0	0	-1	1500
27039075	130	1028	0	-100	0	230	101300000	1000	0	0	-1	1500
