timestamp	voltage	current	windSpeed	pitchAngle	rpm	temperature	ambientPressure	humidity	accelerationX	accelerationY	accelerationZ	currentSink
7035070	4010	6	0	-100	0	230	101300000	1000	0	0	-1	0
7042523	4009	0	0	-100	0	230	101300000	1000	0	0	-1	0
7055083	4009	0	0	-100	0	230	101300000	1000	0	0	-1	0
7067643	4010	0	0	-100	0	230	101300000	1000	0	0	-1	0
7080203	4012	0	0	-100	0	230	101300000	1000	0	0	-1	0
7092763	4010	0	0	-100	0	230	101300000	1000	0	0	-1	0
7105323	4012	0	0	-100	0	230	101300000	1000	0	0	-1	0
7117883	4012	0	0	-100	0	230	101300000	1000	0	0	-1	0
7130443	4008	0	0	-100	0	230	101300000	1000	0	0	-1	0
7143004	4010	0	0	-100	0	230	101300000	1000	0	0	-1	0
7155563	4005	3	0	-100	0	230	101300000	1000	0	0	-1	0
7168123	4008	2	0	-100	0	230	101300000	1000	0	0	-1	0
7180683	4006	4	0	-100	0	230	101300000	1000	0	0	-1	0
7193243	4004	4	0	-100	0	230	101300000	1000	0	0	-1	0
7205803	4001	4	0	-100	0	230	101300000	1000	0	0	-1	0
7218363	4004	2	0	-100	0	230	101300000	1000	0	0	-1	0
7230923	4001	2	0	-100	0	230	101300000	1000	0	0	-1	0
7243483	4006	0	0	-100	0	230	101300000	1000	0	0	-1	0
7256043	4012	0	0	-100	0	230	101300000	1000	0	0	-1	0
7268603	4011	0	0	-100	0	230	101300000	1000	0	0	-1	0
7281163	4012	0	0	-100	0	230	101300000	1000	0	0	-1	0
7293723	4006	4	0	-100	0	230	101300000	1000	0	0	-1	0
7306283	4004	3	0	-100	0	230	101300000	1000	0	0	-1	0
7318843	4001	1	0	-100	0	230	101300000	1000	0	0	-1	0
7331403	4004	2	0	-100	0	230	101300000	1000	0	0	-1	0
7343963	4005	4	0	-100	0	230	101300000	1000	0	0	-1	0
7712235	7	101	0	-100	0	230	101300000	1000	0	0	-1	1500
7724795	0	102	0	-100	0	230	101300000	1000	0	0	-1	1500
7737355	0	101	0	-100	0	230	101300000	1000	0	0	-1	1500
7749915	7	100	0	-100	0	230	101300000	1000	0	0	-1	1500
7762475	4	101	0	-100	0	230	101300000	1000	0	0	-1	1500
7775035	0	99	0	-100	0	230	101300000	1000	0	0	-1	1500
7787595	0	101	0	-100	0	230	101300000	1000	0	0	-1	1500
7800155	12	99	0	-100	0	230	101300000	1000	0	0	-1	1500
7812715	4	105	0	-100	0	230	101300000	1000	0	0	-1	1500
7825275	2	105	0	-100	0	230	101300000	1000	0	0	-1	1500
7837835	0	104	0	-100	0	230	101300000	1000	0	0	-1	1500
7850395	7	97	0	-100	0	230	101300000	1000	0	0	-1	1500
7862955	7	102	0	-100	0	230	101300000	1000	0	0	-1	1500
7875515	2	102	0	-100	0	230	101300000	1000	0	0	-1	1500
7888075	0	102	0	-100	0	230	101300000	1000	0	0	-1	1500
7900635	0	101	0	-100	0	230	101300000	1000	0	0	-1	1500
7913195	0	104	0	-100	0	230	101300000	1000	0	0	-1	1500
7925755	0	104	0	-100	0	230	101300000	1000	0	0	-1	1500
7938315	7	99	0	-100	0	230	101300000	1000	0	0	-1	1500
7950875	4	105	0	-100	0	230	101300000	1000	0	0	-1	1500
7963435	0	103	0	-100	0	230	101300000	1000	0	0	-1	1500
7975995	0	101	0	-100	0	230	101300000	1000	0	0	-1	1500
7988555	4	101	0	-100	0	230	101300000	1000	0	0	-1	1500
8001115	4	102	0	-100	0	230	101300000	1000	0	0	-1	1500
8013675	0	100	0	-100	0	230	101300000	1000	0	0	-1	1500
8026235	0	101	0	-100	0	230	101300000	1000	0	0	-1	1500
8038795	7	101	0	-100	0	230	101300000	1000	0	0	-1	1500
8051355	4	102	0	-100	0	230	101300000	1000	0	0	-1	1500
8063915	0	99	0	-100	0	230	101300000	1000	0	0	-1	1500
8076475	2	100	0	-100	0	230	101300000	1000	0	0	-1	1500
8089035	0	105	0	-100	0	230	101300000	1000	0	0	-1	1500
8101595	7	101	0	-100	0	230	101300000	1000	0	0	-1	1500
8114155	14	99	0	-100	0	230	101300000	1000	0	0	-1	1500
8126715	7	102	0	-100	0	230	101300000	1000	0	0	-1	1500
8139275	2	100	0	-100	0	230	101300000	1000	0	0	-1	1500
8151835	2	105	0	-100	0	230	101300000	1000	0	0	-1	1500
8164395	0	104	0	-100	0	230	101300000	1000	0	0	-1	1500
8176955	0	98	0	-100	0	230	101300000	1000	0	0	-1	1500
8189515	0	99	0	-100	0	230	101300000	1000	0	0	-1	1500
8202075	0	105	0	-100	0	230	101300000	1000	0	0	-1	1500
8214635	0	101	0	-100	0	230	101300000	1000	0	0	-1	1500
8227195	0	104	0	-100	0	230	101300000	1000	0	0	-1	1500
8239755	0	101	0	-100	0	230	101300000	1000	0	0	-1	1500
8252315	0	103	0	-100	0	230	101300000	1000	0	0	-1	1500
8264875	7	97	0	-100	0	230	101300000	1000	0	0	-1	1500
8277435	7	99	0	-100	0	230	101300000	1000	0	0	-1	1500
8289995	0	102	0	-100	0	230	101300000	1000	0	0	-1	1500
8302555	0	100	0	-100	0	230	101300000	1000	0	0	-1	1500
8315115	0	99	0	-100	0	230	101300000	1000	0	0	-1	1500
8327675	0	105	0	-100	0	230	101300000	1000	0	0	-1	1500
8340235	0	103	0	-100	0	230	101300000	1000	0	0	-1	1500
8352795	0	102	0	-100	0	230	101300000	1000	0	0	-1	1500
8365355	0	105	0	-100	0	230	101300000	1000	0	0	-1	1500
8377915	2	98	0	-100	0	230	101300000	1000	0	0	-1	1500
8390475	7	101	0	-100	0	230	101300000	1000	0	0	-1	1500
8403035	7	98	0	-100	0	230	101300000	1000	0	0	-1	1500
8415595	9	100	0	-100	0	230	101300000	1000	0	0	-1	1500
8428155	12	100	0	-100	0	230	101300000	1000	0	0	-1	1500
8440715	7	104	0	-100	0	230	101300000	1000	0	0	-1	1500
8453275	4	104	0	-100	0	230	101300000	1000	0	0	-1	1500
8465835	4	105	0	-100	0	230	101300000	1000	0	0	-1	1500
8478395	4	101	0	-100	0	230	101300000	1000	0	0	-1	1500
8490955	0	96	0	-100	0	230	101300000	1000	0	0	-1	1500
8503515	0	103	0	-100	0	230	101300000	1000	0	0	-1	1500
8516075	0	98	0	-100	0	230	101300000	1000	0	0	-1	1500
8528635	0	101	0	-100	0	230	101300000	1000	0	0	-1	1500
8541195	2	96	0	-100	0	230	101300000	1000	0	0	-1	1500
8553755	7	96	0	-100	0	230	101300000	1000	0	0	-1	1500
8566315	4	100	0	-100	0	230	101300000	1000	0	0	-1	1500
8578875	7	98	0	-100	0	230	101300000	1000	0	0	-1	1500
8591435	4	101	0	-100	0	230	101300000	1000	0	0	-1	1500
8603995	0	105	0	-100	0	230	101300000	1000	0	0	-1	1500
8616555	2	105	0	-100	0	230	101300000	1000	0	0	-1	1500
8629115	2	103	0	-100	0	230	101300000	1000	0	0	-1	1500
8641675	0	100	0	-100	0	230	101300000	1000	0	0	-1	1500
8654235	0	104	0	-100	0	230	101300000	1000	0	0	-1	1500
8666795	7	98	0	-100	0	230	101300000	1000	0	0	-1	1500
8679355	4	100	0	-100	0	230	101300000	1000	0	0	-1	1500
8691915	2	100	0	-100	0	230	101300000	1000	0	0	-1	1500
8704475	0	102	0	-100	0	230	101300000	1000	0	0	-1	1500
8717035	0	101	0	-100	0	230	101300000	1000	0	0	-1	1500
8729595	0	101	0	-100	0	230	101300000	1000	0	0	-1	1500
8742155	4	100	0	-100	0	230	101300000	1000	0	0	-1	1500
8754715	9	100	0	-100	0	230	101300000	1000	0	0	-1	1500
8767275	7	98	0	-100	0	230	101300000	1000	0	0	-1	1500
8779835	2	101	0	-100	0	230	101300000	1000	0	0	-1	1500
8792395	0	102	0	-100	0	230	101300000	1000	0	0	-1	1500
8804955	0	103	0	-100	0	230	101300000	1000	0	0	-1	1500
8817515	2	100	0	-100	0	230	101300000	1000	0	0	-1	1500
8830075	7	101	0	-100	0	230	101300000	1000	0	0	-1	1500
8842635	2	103	0	-100	0	230	101300000	1000	0	0	-1	1500
8855195	2	105	0	-100	0	230	101300000	1000	0	0	-1	1500
8867755	0	103	0	-100	0	230	101300000	1000	0	0	-1	1500
8880315	4	99	0	-100	0	230	101300000	1000	0	0	-1	1500
8892875	7	101	0	-100	0	230	101300000	1000	0	0	-1	1500
8905435	2	102	0	-100	0	230	101300000	1000	0	0	-1	1500
8917995	2	98	0	-100	0	230	101300000	1000	0	0	-1	1500
8930555	2	100	0	-100	0	230	101300000	1000	0	0	-1	1500
8943115	9	99	0	-100	0	230	101300000	1000	0	0	-1	1500
8955675	0	99	0	-100	0	230	101300000	1000	0	0	-1	1500
8968235	2	104	0	-100	0	230	101300000	1000	0	0	-1	1500
8980795	0	100	0	-100	0	230	101300000	1000	0	0	-1	1500
8993355	7	101	0	-100	0	230	101300000	1000	0	0	-1	1500
9005915	2	100	0	-100	0	230	101300000	1000	0	0	-1	1500
9018475	2	104	0	-100	0	230	101300000	1000	0	0	-1	1500
9031035	0	104	0	-100	0	230	101300000	1000	0	0	-1	1500
9043595	7	102	0	-100	0	230	101300000	1000	0	0	-1	1500
9056155	4	107	0	-100	0	230	101300000	1000	0	0	-1	1500
9068715	0	104	0	-100	0	230	101300000	1000	0	0	-1	1500
9081275	7	104	0	-100	0	230	101300000	1000	0	0	-1	1500
9093835	4	104	0	-100	0	230	101300000	1000	0	0	-1	1500
9106395	0	100	0	-100	0	230	101300000	1000	0	0	-1	1500
9118955	0	98	0	-100	0	230	101300000	1000	0	0	-1	1500
9131515	0	104	0	-100	0	230	101300000	1000	0	0	-1	1500
9144075	7	96	0	-100	0	230	101300000	1000	0	0	-1	1500
9156635	4	101	0	-100	0	230	101300000	1000	0	0	-1	1500
9169195	2	105	0	-100	0	230	101300000	1000	0	0	-1	1500
9181755	0	102	0	-100	0	230	101300000	1000	0	0	-1	1500
9194315	0	102	0	-100	0	230	101300000	1000	0	0	-1	1500
9206875	7	99	0	-100	0	230	101300000	1000	0	0	-1	1500
9219435	4	105	0	-100	0	230	101300000	1000	0	0	-1	1500
9231995	0	102	0	-100	0	230	101300000	1000	0	0	-1	1500
9244555	0	105	0	-100	0	230	101300000	1000	0	0	-1	1500
9257115	2	97	0	-100	0	230	101300000	1000	0	0	-1	1500
9269675	9	100	0	-100	0	230	101300000	1000	0	0	-1	1500
9282235	4	100	0	-100	0	230	101300000	1000	0	0	-1	1500
9294795	4	101	0	-100	0	230	101300000	1000	0	0	-1	1500
9307355	0	99	0	-100	0	230	101300000	1000	0	0	-1	1500
9319915	0	102	0	-100	0	230	101300000	1000	0	0	-1	1500
9332475	0	101	0	-100	0	230	101300000	1000	0	0	-1	1500
9345035	2	103	0	-100	0	230	101300000	1000	0	0	-1	1500
9357595	0	101	0	-100	0	230	101300000	1000	0	0	-1	1500
9370155	4	101	0	-100	0	230	101300000	1000	0	0	-1	1500
9382715	2	100	0	-100	0	230	101300000	1000	0	0	-1	1500
9395275	2	101	0	-100	0	230	101300000	1000	0	0	-1	1500
9407835	4	102	0	-100	0	230	101300000	1000	0	0	-1	1500
9420395	9	98	0	-100	0	230	101300000	1000	0	0	-1	1500
9432955	7	98	0	-100	0	230	101300000	1000	0	0	-1	1500
9445515	7	99	0	-100	0	230	101300000	1000	0	0	-1	1500
9458075	7	103	0	-100	0	230	101300000	1000	0	0	-1	1500
9470635	4	102	0	-100	0	230	101300000	1000	0	0	-1	1500
9483195	7	100	0	-100	0	230	101300000	1000	0	0	-1	1500
9495755	7	102	0	-100	0	230	101300000	1000	0	0	-1	1500
9508315	7	99	0	-100	0	230	101300000	1000	0	0	-1	1500
9520875	2	97	0	-100	0	230	101300000	1000	0	0	-1	1500
9533435	0	102	0	-100	0	230	101300000	1000	0	0	-1	1500
9545995	0	101	0	-100	0	230	101300000	1000	0	0	-1	1500
9558555	7	103	0	-100	0	230	101300000	1000	0	0	-1	1500
9571115	7	97	0	-100	0	230	101300000	1000	0	0	-1	1500
9583675	7	102	0	-100	0	230	101300000	1000	0	0	-1	1500
9596235	2	98	0	-100	0	230	101300000	1000	0	0	-1	1500
9608795	0	101	0	-100	0	230	101300000	1000	0	0	-1	1500
9621355	2	105	0	-100	0	230	101300000	1000	0	0	-1	1500
9633915	2	104	0	-100	0	230	101300000	1000	0	0	-1	1500
9646475	4	103	0	-100	0	230	101300000	1000	0	0	-1	1500
9659035	7	103	0	-100	0	230	101300000	1000	0	0	-1	1500
9671595	7	101	0	-100	0	230	101300000	1000	0	0	-1	1500
9684155	9	101	0	-100	0	230	101300000	1000	0	0	-1	1500
9696715	0	102	0	-100	0	230	101300000	1000	0	0	-1	1500
9709275	0	101	0	-100	0	230	101300000	1000	0	0	-1	1500
9721835	0	102	0	-100	0	230	101300000	1000	0	0	-1	1500
9734395	0	99	0	-100	0	230	101300000	1000	0	0	-1	1500
9746955	2	105	0	-100	0	230	101300000	1000	0	0	-1	1500
9759515	0	98	0	-100	0	230	101300000	1000	0	0	-1	1500
9772075	4	102	0	-100	0	230	101300000	1000	0	0	-1	1500
9784635	4	102	0	-100	0	230	101300000	1000	0	0	-1	1500
9797195	4	101	0	-100	0	230	101300000	1000	0	0	-1	1500
9809755	2	102	0	-100	0	230	101300000	1000	0	0	-1	1500
9822315	7	100	0	-100	0	230	101300000	1000	0	0	-1	1500
9834875	4	102	0	-100	0	230	101300000	1000	0	0	-1	1500
9847435	4	103	0	-100	0	230	101300000	1000	0	0	-1	1500
9859995	7	104	0	-100	0	230	101300000	1000	0	0	-1	1500
9872555	4	99	0	-100	0	230	101300000	1000	0	0	-1	1500
9885115	0	105	0	-100	0	230	101300000	1000	0	0	-1	1500
9897675	0	100	0	-100	0	230	101300000	1000	0	0	-1	1500
9910235	0	102	0	-100	0	230	101300000	1000	0	0	-1	1500
9922795	0	100	0	-100	0	230	101300000	1000	0	0	-1	1500
9935355	2	102	0	-100	0	230	101300000	1000	0	0	-1	1500
9947915	4	105	0	-100	0	230	101300000	1000	0	0	-1	1500
9960475	9	100	0	-100	0	230	101300000	1000	0	0	-1	1500
9973035	7	103	0	-100	0	230	101300000	1000	0	0	-1	1500
9985595	0	102	0	-100	0	230	101300000	1000	0	0	-1	1500
9998155	4	101	0	-100	0	230	101300000	1000	0	0	-1	1500
10010715	0	102	0	-100	0	230	101300000	1000	0	0	-1	1500
10023275	4	102	0	-100	0	230	101300000	1000	0	0	-1	1500
10035835	4	101	0	-100	0	230	101300000	1000	0	0	-1	1500
10048395	0	106	0	-100	0	230	101300000	1000	0	0	-1	1500
10060955	0	101	0	-100	0	230	101300000	1000	0	0	-1	1500
10073515	0	101	0	-100	0	230	101300000	1000	0	0	-1	1500
10086075	4	98	0	-100	0	230	101300000	1000	0	0	-1	1500
10098635	4	99	0	-100	0	230	101300000	1000	0	0	-1	1500
10111195	0	104	0	-100	0	230	101300000	1000	0	0	-1	1500
10123755	0	101	0	-100	0	230	101300000	1000	0	0	-1	1500
10136315	0	100	0	-100	0	230	101300000	1000	0	0	-1	1500
10148875	4	101	0	-100	0	230	101300000	1000	0	0	-1	1500
10161435	7	103	0	-100	0	230	101300000	1000	0	0	-1	1500
10173995	0	99	0	-100	0	230	101300000	1000	0	0	-1	1500
10186555	0	101	0	-100	0	230	101300000	1000	0	0	-1	1500
10199115	4	104	0	-100	0	230	101300000	1000	0	0	-1	1500
10211675	7	100	0	-100	0	230	101300000	1000	0	0	-1	1500
10224235	2	101	0	-100	0	230	101300000	1000	0	0	-1	1500
10236795	0	104	0	-100	0	230	101300000	1000	0	0	-1	1500
10249355	0	100	0	-100	0	230	101300000	1000	0	0	-1	1500
10261915	2	102	0	-100	0	230	101300000	1000	0	0	-1	1500
10274475	7	102	0	-100	0	230	101300000	1000	0	0	-1	1500
10287035	7	103	0	-100	0	230	101300000	1000	0	0	-1	1500
10299595	0	102	0	-100	0	230	101300000	1000	0	0	-1	1500
10312155	2	102	0	-100	0	230	101300000	1000	0	0	-1	1500
10324715	4	103	0	-100	0	230	101300000	1000	0	0	-1	1500
10337275	0	99	0	-100	0	230	101300000	1000	0	0	-1	1500
10349835	4	102	0	-100	0	230	101300000	1000	0	0	-1	1500
10362395	7	104	0	-100	0	230	101300000	1000	0	0	-1	1500
10374955	2	103	0	-100	0	230	101300000	1000	0	0	-1	1500
10387515	0	101	0	-100	0	230	101300000	1000	0	0	-1	1500
10400075	0	100	0	-100	0	230	101300000	1000	0	0	-1	1500
10412635	0	101	0	-100	0	230	101300000	1000	0	0	-1	1500
10425195	0	100	0	-100	0	230	101300000	1000	0	0	-1	1500
10437755	4	101	0	-100	0	230	101300000	1000	0	0	-1	1500
10450315	4	98	0	-100	0	230	101300000	1000	0	0	-1	1500
10462875	2	101	0	-100	0	230	101300000	1000	0	0	-1	1500
10475435	0	101	0	-100	0	230	101300000	1000	0	0	-1	1500
10487995	2	100	0	-100	0	230	101300000	1000	0	0	-1	1500
10500555	0	98	0	-100	0	230	101300000	1000	0	0	-1	1500
10513115	4	100	0	-100	0	230	101300000	1000	0	0	-1	1500
10525675	4	102	0	-100	0	230	101300000	1000	0	0	-1	1500
10538235	0	101	0	-100	0	230	101300000	1000	0	0	-1	1500
10550795	0	102	0	-100	0	230	101300000	1000	0	0	-1	1500
10563355	7	99	0	-100	0	230	101300000	1000	0	0	-1	1500
10575915	7	101	0	-100	0	230	101300000	1000	0	0	-1	1500
10588475	2	99	0	-100	0	230	101300000	1000	0	0	-1	1500
10601035	0	103	0	-100	0	230	101300000	1000	0	0	-1	1500
10613595	2	103	0	-100	0	230	101300000	1000	0	0	-1	1500
10626155	7	105	0	-100	0	230	101300000	1000	0	0	-1	1500
10638715	0	99	0	-100	0	230	101300000	1000	0	0	-1	1500
10651275	0	104	0	-100	0	230	101300000	1000	0	0	-1	1500
10663835	0	103	0	-100	0	230	101300000	1000	0	0	-1	1500
10676395	0	96	0	-100	0	230	101300000	1000	0	0	-1	1500
10688955	4	100	0	-100	0	230	101300000	1000	0	0	-1	1500
10701515	4	101	0	-100	0	230	101300000	1000	0	0	-1	1500
10714075	2	102	0	-100	0	230	101300000	1000	0	0	-1	1500
10726635	0	101	0	-100	0	230	101300000	1000	0	0	-1	1500
10739195	0	100	0	-100	0	230	101300000	1000	0	0	-1	1500
10751755	2	103	0	-100	0	230	101300000	1000	0	0	-1	1500
10764315	2	103	0	-100	0	230	101300000	1000	0	0	-1	1500
10776875	0	101	0	-100	0	230	101300000	1000	0	0	-1	1500
10789435	0	101	0	-100	0	230	101300000	1000	0	0	-1	1500
10801995	0	104	0	-100	0	230	101300000	1000	0	0	-1	1500
10814555	0	101	0	-100	0	230	101300000	1000	0	0	-1	1500
10827115	2	105	0	-100	0	230	101300000	1000	0	0	-1	1500
10839675	2	103	0	-100	0	230	101300000	1000	0	0	-1	1500
10852235	0	101	0	-100	0	230	101300000	1000	0	0	-1	1500
10864795	0	101	0	-100	0	230	101300000	1000	0	0	-1	1500
10877355	2	100	0	-100	0	230	101300000	1000	0	0	-1	1500
10889915	4	100	0	-100	0	230	101300000	1000	0	0	-1	1500
10902475	7	97	0	-100	0	230	101300000	1000	0	0	-1	1500
10915035	4	104	0	-100	0	230	101300000	1000	0	0	-1	1500
10927595	2	101	0	-100	0	230	101300000	1000	0	0	-1	1500
10940155	4	100	0	-100	0	230	101300000	1000	0	0	-1	1500
10952715	0	101	0	-100	0	230	101300000	1000	0	0	-1	1500
10965275	0	98	0	-100	0	230	101300000	1000	0	0	-1	1500
10977835	2	102	0	-100	0	230	101300000	1000	0	0	-1	1500
10990395	0	101	0	-100	0	230	101300000	1000	0	0	-1	1500
11002955	4	103	0	-100	0	230	101300000	1000	0	0	-1	1500
11015515	4	104	0	-100	0	230	101300000	1000	0	0	-1	1500
11028075	0	101	0	-100	0	230	101300000	1000	0	0	-1	1500
11040635	2	101	0	-100	0	230	101300000	1000	0	0	-1	1500
11053195	0	100	0	-100	0	230	101300000	1000	0	0	-1	1500
11065755	0	97	0	-100	0	230	101300000	1000	0	0	-1	1500
11078315	4	101	0	-100	0	230	101300000	1000	0	0	-1	1500
11090875	7	98	0	-100	0	230	101300000	1000	0	0	-1	1500
11103435	2	101	0	-100	0	230	101300000	1000	0	0	-1	1500
11115995	0	102	0	-100	0	230	101300000	1000	0	0	-1	1500
11128555	0	104	0	-100	0	230	101300000	1000	0	0	-1	1500
11141115	0	100	0	-100	0	230	101300000	1000	0	0	-1	1500
11153675	0	100	0	-100	0	230	101300000	1000	0	0	-1	1500
11166235	0	101	0	-100	0	230	101300000	1000	0	0	-1	1500
11178795	0	96	0	-100	0	230	101300000	1000	0	0	-1	1500
11191355	4	101	0	-100	0	230	101300000	1000	0	0	-1	1500
11203915	0	98	0	-100	0	230	101300000	1000	0	0	-1	1500
11216475	2	102	0	-100	0	230	101300000	1000	0	0	-1	1500
11229035	2	105	0	-100	0	230	101300000	1000	0	0	-1	1500
11241595	4	101	0	-100	0	230	101300000	1000	0	0	-1	1500
11254155	12	100	0	-100	0	230	101300000	1000	0	0	-1	1500
11266715	7	100	0	-100	0	230	101300000	1000	0	0	-1	1500
11279275	0	103	0	-100	0	230	101300000	1000	0	0	-1	1500
11291835	0	101	0	-100	0	230	101300000	1000	0	0	-1	1500
11304395	0	101	0	-100	0	230	101300000	1000	0	0	-1	1500
11316955	0	100	0	-100	0	230	101300000	1000	0	0	-1	1500
11329515	2	105	0	-100	0	230	101300000	1000	0	0	-1	1500
11342075	0	98	0	-100	0	230	101300000	1000	0	0	-1	1500
11354635	0	101	0	-100	0	230	101300000	1000	0	0	-1	1500
11367195	2	103	0	-100	0	230	101300000	1000	0	0	-1	1500
11379755	2	102	0	-100	0	230	101300000	1000	0	0	-1	1500
11392315	7	102	0	-100	0	230	101300000	1000	0	0	-1	1500
11404875	7	100	0	-100	0	230	101300000	1000	0	0	-1	1500
11417435	4	105	0	-100	0	230	101300000	1000	0	0	-1	1500
11429995	4	103	0	-100	0	230	101300000	1000	0	0	-1	1500
11442555	0	103	0	-100	0	230	101300000	1000	0	0	-1	1500
11455115	0	103	0	-100	0	230	101300000	1000	0	0	-1	1500
11467675	0	101	0	-100	0	230	101300000	1000	0	0	-1	1500
11480235	4	103	0	-100	0	230	101300000	1000	0	0	-1	1500
11492795	0	101	0	-100	0	230	101300000	1000	0	0	-1	1500
11505355	0	97	0	-100	0	230	101300000	1000	0	0	-1	1500
11517915	4	101	0	-100	0	230	101300000	1000	0	0	-1	1500
11530475	7	102	0	-100	0	230	101300000	1000	0	0	-1	1500
11543035	2	100	0	-100	0	230	101300000	1000	0	0	-1	1500
11555595	0	101	0	-100	0	230	101300000	1000	0	0	-1	1500
11568155	4	105	0	-100	0	230	101300000	1000	0	0	-1	1500
11580715	0	101	0	-100	0	230	101300000	1000	0	0	-1	1500
11593275	2	103	0	-100	0	230	101300000	1000	0	0	-1	1500
11605835	4	100	0	-100	0	230	101300000	1000	0	0	-1	1500
11618395	7	101	0	-100	0	230	101300000	1000	0	0	-1	1500
11630955	2	100	0	-100	0	230	101300000	1000	0	0	-1	1500
11643515	0	102	0	-100	0	230	101300000	1000	0	0	-1	1500
11656075	0	99	0	-100	0	230	101300000	1000	0	0	-1	1500
11668635	0	100	0	-100	0	230	101300000	1000	0	0	-1	1500
11681195	2	100	0	-100	0	230	101300000	1000	0	0	-1	1500
11693755	7	100	0	-100	0	230	101300000	1000	0	0	-1	1500
11706315	7	96	0	-100	0	230	101300000	1000	0	0	-1	1500
11718875	2	98	0	-100	0	230	101300000	1000	0	0	-1	1500
11731435	0	102	0	-100	0	230	101300000	1000	0	0	-1	1500
11743995	0	102	0	-100	0	230	101300000	1000	0	0	-1	1500
11756555	2	105	0	-100	0	230	101300000	1000	0	0	-1	1500
11769115	0	102	0	-100	0	230	101300000	1000	0	0	-1	1500
11781675	2	104	0	-100	0	230	101300000	1000	0	0	-1	1500
11794235	2	105	0	-100	0	230	101300000	1000	0	0	-1	1500
11806795	0	100	0	-100	0	230	101300000	1000	0	0	-1	1500
11819355	2	106	0	-100	0	230	101300000	1000	0	0	-1	1500
11831915	7	101	0	-100	0	230	101300000	1000	0	0	-1	1500
11844475	4	100	0	-100	0	230	101300000	1000	0	0	-1	1500
11857035	0	105	0	-100	0	230	101300000	1000	0	0	-1	1500
11869595	0	101	0	-100	0	230	101300000	1000	0	0	-1	1500
11882155	4	101	0	-100	0	230	101300000	1000	0	0	-1	1500
11894715	2	102	0	-100	0	230	101300000	1000	0	0	-1	1500
11907275	0	101	0	-100	0	230	101300000	1000	0	0	-1	1500
11919835	0	100	0	-100	0	230	101300000	1000	0	0	-1	1500
11932395	0	103	0	-100	0	230	101300000	1000	0	0	-1	1500
11944955	4	103	0	-100	0	230	101300000	1000	0	0	-1	1500
11957515	7	102	0	-100	0	230	101300000	1000	0	0	-1	1500
11970075	7	97	0	-100	0	230	101300000	1000	0	0	-1	1500
11982635	0	102	0	-100	0	230	101300000	1000	0	0	-1	1500
11995195	0	100	0	-100	0	230	101300000	1000	0	0	-1	1500
12007755	0	100	0	-100	0	230	101300000	1000	0	0	-1	1500
12020315	7	101	0	-100	0	230	101300000	1000	0	0	-1	1500
12032875	7	97	0	-100	0	230	101300000	1000	0	0	-1	1500
12045435	0	101	0	-100	0	230	101300000	1000	0	0	-1	1500
12057995	0	100	0	-100	0	230	101300000	1000	0	0	-1	1500
12070555	0	102	0	-100	0	230	101300000	1000	0	0	-1	1500
12083115	2	103	0	-100	0	230	101300000	1000	0	0	-1	1500
12095675	2	102	0	-100	0	230	101300000	1000	0	0	-1	1500
12108235	0	101	0	-100	0	230	101300000	1000	0	0	-1	1500
12120795	2	101	0	-100	0	230	101300000	1000	0	0	-1	1500
12133355	7	100	0	-100	0	230	101300000	1000	0	0	-1	1500
12145915	7	99	0	-100	0	230	101300000	1000	0	0	-1	1500
12158475	2	101	0	-100	0	230	101300000	1000	0	0	-1	1500
12171035	0	101	0	-100	0	230	101300000	1000	0	0	-1	1500
12183595	0	102	0	-100	0	230	101300000	1000	0	0	-1	1500
12196155	12	100	0	-100	0	230	101300000	1000	0	0	-1	1500
12208715	0	105	0	-100	0	230	101300000	1000	0	0	-1	1500
12221275	0	103	0	-100	0	230	101300000	1000	0	0	-1	1500
12233835	0	101	0	-100	0	230	101300000	1000	0	0	-1	1500
12246395	7	101	0	-100	0	230	101300000	1000	0	0	-1	1500
12258955	2	97	0	-100	0	230	101300000	1000	0	0	-1	1500
12271515	0	101	0	-100	0	230	101300000	1000	0	0	-1	1500
12284075	0	99	0	-100	0	230	101300000	1000	0	0	-1	1500
12296635	7	101	0	-100	0	230	101300000	1000	0	0	-1	1500
12309195	0	105	0	-100	0	230	101300000	1000	0	0	-1	1500
12321755	2	104	0	-100	0	230	101300000	1000	0	0	-1	1500
12334315	4	101	0	-100	0	230	101300000	1000	0	0	-1	1500
12346875	7	101	0	-100	0	230	101300000	1000	0	0	-1	1500
12359435	7	98	0	-100	0	230	101300000	1000	0	0	-1	1500
12371995	7	102	0	-100	0	230	101300000	1000	0	0	-1	1500
12384555	7	103	0	-100	0	230	101300000	1000	0	0	-1	1500
12397115	7	100	0	-100	0	230	101300000	1000	0	0	-1	1500
12409675	4	102	0	-100	0	230	101300000	1000	0	0	-1	1500
12422235	0	100	0	-100	0	230	101300000	1000	0	0	-1	1500
12434795	0	100	0	-100	0	230	101300000	1000	0	0	-1	1500
12447355	0	102	0	-100	0	230	101300000	1000	0	0	-1	1500
12459915	7	98	0	-100	0	230	101300000	1000	0	0	-1	1500
12472475	4	102	0	-100	0	230	101300000	1000	0	0	-1	1500
12485035	2	105	0	-100	0	230	101300000	1000	0	0	-1	1500
12497595	0	100	0	-100	0	230	101300000	1000	0	0	-1	1500
12510155	4	101	0	-100	0	230	101300000	1000	0	0	-1	1500
12522715	2	103	0	-100	0	230	101300000	1000	0	0	-1	1500
12535275	7	101	0	-100	0	230	101300000	1000	0	0	-1	1500
12547835	0	98	0	-100	0	230	101300000	1000	0	0	-1	1500
12560395	2	102	0	-100	0	230	101300000	1000	0	0	-1	1500
12572955	7	102	0	-100	0	230	101300000	1000	0	0	-1	1500
12585515	4	103	0	-100	0	230	101300000	1000	0	0	-1	1500
12598075	0	99	0	-100	0	230	101300000	1000	0	0	-1	1500
12610635	0	103	0	-100	0	230	101300000	1000	0	0	-1	1500
12623195	4	101	0	-100	0	230	101300000	1000	0	0	-1	1500
12635755	4	101	0	-100	0	230	101300000	1000	0	0	-1	1500
12648315	0	100	0	-100	0	230	101300000	1000	0	0	-1	1500
12660875	0	101	0	-100	0	230	101300000	1000	0	0	-1	1500
12673435	2	102	0	-100	0	230	101300000	1000	0	0	-1	1500
12685995	7	104	0	-100	0	230	101300000	1000	0	0	-1	1500
12698555	4	104	0	-100	0	230	101300000	1000	0	0	-1	1500
12711115	0	101	0	-100	0	230	101300000	1000	0	0	-1	1500
12723675	2	102	0	-100	0	230	101300000	1000	0	0	-1	1500
12736235	0	102	0	-100	0	230	101300000	1000	0	0	-1	1500
12748795	0	106	0	-100	0	230	101300000	1000	0	0	-1	1500
12761355	7	100	0	-100	0	230	101300000	1000	0	0	-1	1500
12773915	7	102	0	-100	0	230	101300000	1000	0	0	-1	1500
12786475	7	99	0	-100	0	230	101300000	1000	0	0	-1	1500
12799035	0	101	0	-100	0	230	101300000	1000	0	0	-1	1500
12811595	0	101	0	-100	0	230	101300000	1000	0	0	-1	1500
12824155	9	103	0	-100	0	230	101300000	1000	0	0	-1	1500
12836715	7	102	0	-100	0	230	101300000	1000	0	0	-1	1500
12849275	0	96	0	-100	0	230	101300000	1000	0	0	-1	1500
12861835	2	105	0	-100	0	230	101300000	1000	0	0	-1	1500
12874395	0	101	0	-100	0	230	101300000	1000	0	0	-1	1500
12886955	0	101	0	-100	0	230	101300000	1000	0	0	-1	1500
12899515	7	96	0	-100	0	230	101300000	1000	0	0	-1	1500
12912075	2	102	0	-100	0	230	101300000	1000	0	0	-1	1500
12924635	0	99	0	-100	0	230	101300000	1000	0	0	-1	1500
12937195	0	106	0	-100	0	230	101300000	1000	0	0	-1	1500
12949755	7	103	0	-100	0	230	101300000	1000	0	0	-1	1500
12962315	7	101	0	-100	0	230	101300000	1000	0	0	-1	1500
12974875	4	105	0	-100	0	230	101300000	1000	0	0	-1	1500
12987435	0	99	0	-100	0	230	101300000	1000	0	0	-1	1500
12999995	0	101	0	-100	0	230	101300000	1000	0	0	-1	1500
13012555	0	102	0	-100	0	230	101300000	1000	0	0	-1	1500
13025115	4	99	0	-100	0	230	101300000	1000	0	0	-1	1500
13037675	4	105	0	-100	0	230	101300000	1000	0	0	-1	1500
13050235	2	104	0	-100	0	230	101300000	1000	0	0	-1	1500
13062795	0	105	0	-100	0	230	101300000	1000	0	0	-1	1500
13075355	2	98	0	-100	0	230	101300000	1000	0	0	-1	1500
13087915	7	99	0	-100	0	230	101300000	1000	0	0	-1	1500
13100475	7	101	0	-100	0	230	101300000	1000	0	0	-1	1500
13113035	2	102	0	-100	0	230	101300000	1000	0	0	-1	1500
13125595	0	101	0	-100	0	230	101300000	1000	0	0	-1	1500
13138155	4	105	0	-100	0	230	101300000	1000	0	0	-1	1500
13150715	2	102	0	-100	0	230	101300000	1000	0	0	-1	1500
13163275	0	103	0	-100	0	230	101300000	1000	0	0	-1	1500
13175835	0	103	0	-100	0	230	101300000	1000	0	0	-1	1500
13188395	7	98	0	-100	0	230	101300000	1000	0	0	-1	1500
13200955	4	103	0	-100	0	230	101300000	1000	0	0	-1	1500
13213515	0	98	0	-100	0	230	101300000	1000	0	0	-1	1500
13226075	0	101	0	-100	0	230	101300000	1000	0	0	-1	1500
13238635	0	102	0	-100	0	230	101300000	1000	0	0	-1	1500
13251195	0	101	0	-100	0	230	101300000	1000	0	0	-1	1500
13263755	7	96	0	-100	0	230	101300000	1000	0	0	-1	1500
13276315	4	101	0	-100	0	230	101300000	1000	0	0	-1	1500
13288875	0	100	0	-100	0	230	101300000	1000	0	0	-1	1500
13301435	0	99	0	-100	0	230	101300000	1000	0	0	-1	1500
13313995	0	101	0	-100	0	230	101300000	1000	0	0	-1	1500
13326555	0	101	0	-100	0	230	101300000	1000	0	0	-1	1500
13339115	0	99	0	-100	0	230	101300000	1000	0	0	-1	1500
13351675	0	100	0	-100	0	230	101300000	1000	0	0	-1	1500
13364235	0	103	0	-100	0	230	101300000	1000	0	0	-1	1500
13376795	0	103	0	-100	0	230	101300000	1000	0	0	-1	1500
13389355	2	98	0	-100	0	230	101300000	1000	0	0	-1	1500
13401915	2	97	0	-100	0	230	101300000	1000	0	0	-1	1500
13414475	0	103	0	-100	0	230	101300000	1000	0	0	-1	1500
13427035	0	104	0	-100	0	230	101300000	1000	0	0	-1	1500
13439595	0	101	0	-100	0	230	101300000	1000	0	0	-1	1500
13452155	4	104	0	-100	0	230	101300000	1000	0	0	-1	1500
13464715	0	101	0	-100	0	230	101300000	1000	0	0	-1	1500
13477275	0	101	0	-100	0	230	101300000	1000	0	0	-1	1500
13489835	2	105	0	-100	0	230	101300000	1000	0	0	-1	1500
13502395	0	101	0	-100	0	230	101300000	1000	0	0	-1	1500
13514955	0	101	0	-100	0	230	101300000	1000	0	0	-1	1500
13527515	0	96	0	-100	0	230	101300000	1000	0	0	-1	1500
13540075	0	96	0	-100	0	230	101300000	1000	0	0	-1	1500
13552635	2	102	0	-100	0	230	101300000	1000	0	0	-1	1500
13565195	4	102	0	-100	0	230	101300000	1000	0	0	-1	1500
13577755	2	101	0	-100	0	230	101300000	1000	0	0	-1	1500
13590315	7	100	0	-100	0	230	101300000	1000	0	0	-1	1500
13602875	4	101	0	-100	0	230	101300000	1000	0	0	-1	1500
13615435	2	101	0	-100	0	230	101300000	1000	0	0	-1	1500
13627995	2	100	0	-100	0	230	101300000	1000	0	0	-1	1500
13640555	0	99	0	-100	0	230	101300000	1000	0	0	-1	1500
13653115	2	102	0	-100	0	230	101300000	1000	0	0	-1	1500
13665675	2	103	0	-100	0	230	101300000	1000	0	0	-1	1500
13678235	2	103	0	-100	0	230	101300000	1000	0	0	-1	1500
13690795	0	98	0	-100	0	230	101300000	1000	0	0	-1	1500
13703355	2	103	0	-100	0	230	101300000	1000	0	0	-1	1500
13715915	2	101	0	-100	0	230	101300000	1000	0	0	-1	1500
13728475	0	99	0	-100	0	230	101300000	1000	0	0	-1	1500
13741035	0	103	0	-100	0	230	101300000	1000	0	0	-1	1500
13753595	0	104	0	-100	0	230	101300000	1000	0	0	-1	1500
13766155	4	104	0	-100	0	230	101300000	1000	0	0	-1	1500
13778715	0	101	0	-100	0	230	101300000	1000	0	0	-1	1500
13791275	0	101	0	-100	0	230	101300000	1000	0	0	-1	1500
13803835	0	101	0	-100	0	230	101300000	1000	0	0	-1	1500
13816395	0	101	0	-100	0	230	101300000	1000	0	0	-1	1500
13828955	0	101	0	-100	0	230	101300000	1000	0	0	-1	1500
13841515	0	102	0	-100	0	230	101300000	1000	0	0	-1	1500
13854075	0	105	0	-100	0	230	101300000	1000	0	0	-1	1500
13866635	0	102	0	-100	0	230	101300000	1000	0	0	-1	1500
13879195	2	98	0	-100	0	230	101300000	1000	0	0	-1	1500
13891755	7	98	0	-100	0	230	101300000	1000	0	0	-1	1500
13904315	7	103	0	-100	0	230	101300000	1000	0	0	-1	1500
13916875	4	104	0	-100	0	230	101300000	1000	0	0	-1	1500
13929435	0	98	0	-100	0	230	101300000	1000	0	0	-1	1500
13941995	2	101	0	-100	0	230	101300000	1000	0	0	-1	1500
13954555	2	104	0	-100	0	230	101300000	1000	0	0	-1	1500
13967115	2	101	0	-100	0	230	101300000	1000	0	0	-1	1500
13979675	7	100	0	-100	0	230	101300000	1000	0	0	-1	1500
13992235	4	103	0	-100	0	230	101300000	1000	0	0	-1	1500
14004795	2	101	0	-100	0	230	101300000	1000	0	0	-1	1500
14017355	0	100	0	-100	0	230	101300000	1000	0	0	-1	1500
14029915	0	99	0	-100	0	230	101300000	1000	0	0	-1	1500
14042475	0	104	0	-100	0	230	101300000	1000	0	0	-1	1500
14055035	2	100	0	-100	0	230	101300000	1000	0	0	-1	1500
14067595	9	100	0	-100	0	230	101300000	1000	0	0	-1	1500
14080155	12	103	0	-100	0	230	101300000	1000	0	0	-1	1500
14092715	2	101	0	-100	0	230	101300000	1000	0	0	-1	1500
14105275	0	99	0	-100	0	230	101300000	1000	0	0	-1	1500
14117835	0	100	0	-100	0	230	101300000	1000	0	0	-1	1500
14130395	2	104	0	-100	0	230	101300000	1000	0	0	-1	1500
14142955	0	101	0	-100	0	230	101300000	1000	0	0	-1	1500
14155515	0	105	0	-100	0	230	101300000	1000	0	0	-1	1500
14168075	0	105	0	-100	0	230	101300000	1000	0	0	-1	1500
14180635	0	103	0	-100	0	230	101300000	1000	0	0	-1	1500
14193195	4	101	0	-100	0	230	101300000	1000	0	0	-1	1500
14205755	7	98	0	-100	0	230	101300000	1000	0	0	-1	1500
14218315	7	105	0	-100	0	230	101300000	1000	0	0	-1	1500
14230875	4	103	0	-100	0	230	101300000	1000	0	0	-1	1500
14243435	2	105	0	-100	0	230	101300000	1000	0	0	-1	1500
14255995	2	103	0	-100	0	230	101300000	1000	0	0	-1	1500
14268555	0	101	0	-100	0	230	101300000	1000	0	0	-1	1500
14281115	0	103	0	-100	0	230	101300000	1000	0	0	-1	1500
14293675	7	99	0	-100	0	230	101300000	1000	0	0	-1	1500
14306235	4	101	0	-100	0	230	101300000	1000	0	0	-1	1500
14318795	2	101	0	-100	0	230	101300000	1000	0	0	-1	1500
14331355	4	103	0	-100	0	230	101300000	1000	0	0	-1	1500
14343915	0	101	0	-100	0	230	101300000	1000	0	0	-1	1500
14356475	0	101	0	-100	0	230	101300000	1000	0	0	-1	1500
14369035	4	105	0	-100	0	230	101300000	1000	0	0	-1	1500
14381595	7	98	0	-100	0	230	101300000	1000	0	0	-1	1500
14394155	9	102	0	-100	0	230	101300000	1000	0	0	-1	1500
14406715	0	97	0	-100	0	230	101300000	1000	0	0	-1	1500
14419275	0	103	0	-100	0	230	101300000	1000	0	0	-1	1500
14431835	0	100	0	-100	0	230	101300000	1000	0	0	-1	1500
14444395	0	102	0	-100	0	230	101300000	1000	0	0	-1	1500
14456955	2	104	0	-100	0	230	101300000	1000	0	0	-1	1500
14469515	0	102	0	-100	0	230	101300000	1000	0	0	-1	1500
14482075	0	105	0	-100	0	230	101300000	1000	0	0	-1	1500
14494635	2	98	0	-100	0	230	101300000	1000	0	0	-1	1500
14507195	0	103	0	-100	0	230	101300000	1000	0	0	-1	1500
14519755	0	99	0	-100	0	230	101300000	1000	0	0	-1	1500
14532315	2	101	0	-100	0	230	101300000	1000	0	0	-1	1500
14544875	2	103	0	-100	0	230	101300000	1000	0	0	-1	1500
14557435	0	100	0	-100	0	230	101300000	1000	0	0	-1	1500
14569995	0	105	0	-100	0	230	101300000	1000	0	0	-1	1500
14582555	0	103	0	-100	0	230	101300000	1000	0	0	-1	1500
14595115	0	100	0	-100	0	230	101300000	1000	0	0	-1	1500
14607675	2	104	0	-100	0	230	101300000	1000	0	0	-1	1500
14620235	0	101	0	-100	0	230	101300000	1000	0	0	-1	1500
14632795	0	102	0	-100	0	230	101300000	1000	0	0	-1	1500
14645355	0	99	0	-100	0	230	101300000	1000	0	0	-1	1500
14657915	2	104	0	-100	0	230	101300000	1000	0	0	-1	1500
14670475	2	103	0	-100	0	230	101300000	1000	0	0	-1	1500
14683035	4	100	0	-100	0	230	101300000	1000	0	0	-1	1500
14695595	0	104	0	-100	0	230	101300000	1000	0	0	-1	1500
14708155	4	103	0	-100	0	230	101300000	1000	0	0	-1	1500
14720715	2	103	0	-100	0	230	101300000	1000	0	0	-1	1500
14733275	0	101	0	-100	0	230	101300000	1000	0	0	-1	1500
14745835	0	102	0	-100	0	230	101300000	1000	0	0	-1	1500
14758395	0	97	0	-100	0	230	101300000	1000	0	0	-1	1500
14770955	2	100	0	-100	0	230	101300000	1000	0	0	-1	1500
14783515	4	102	0	-100	0	230	101300000	1000	0	0	-1	1500
14796075	2	101	0	-100	0	230	101300000	1000	0	0	-1	1500
14808635	2	103	0	-100	0	230	101300000	1000	0	0	-1	1500
14821195	2	100	0	-100	0	230	101300000	1000	0	0	-1	1500
14833755	7	101	0	-100	0	230	101300000	1000	0	0	-1	1500
14846315	2	101	0	-100	0	230	101300000	1000	0	0	-1	1500
14858875	2	102	0	-100	0	230	101300000	1000	0	0	-1	1500
14871435	2	105	0	-100	0	230	101300000	1000	0	0	-1	1500
14883995	0	97	0	-100	0	230	101300000	1000	0	0	-1	1500
14896555	0	102	0	-100	0	230	101300000	1000	0	0	-1	1500
14909115	0	106	0	-100	0	230	101300000	1000	0	0	-1	1500
14921675	9	100	0	-100	0	230	101300000	1000	0	0	-1	1500
14934235	9	99	0	-100	0	230	101300000	1000	0	0	-1	1500
14946795	4	102	0	-100	0	230	101300000	1000	0	0	-1	1500
14959355	0	100	0	-100	0	230	101300000	1000	0	0	-1	1500
14971915	0	100	0	-100	0	230	101300000	1000	0	0	-1	1500
14984475	2	103	0	-100	0	230	101300000	1000	0	0	-1	1500
14997035	0	102	0	-100	0	230	101300000	1000	0	0	-1	1500
15009595	0	101	0	-100	0	230	101300000	1000	0	0	-1	1500
15022155	9	103	0	-100	0	230	101300000	1000	0	0	-1	1500
15034715	7	98	0	-100	0	230	101300000	1000	0	0	-1	1500
15047275	4	103	0	-100	0	230	101300000	1000	0	0	-1	1500
15059835	0	99	0	-100	0	230	101300000	1000	0	0	-1	1500
15072395	0	100	0	-100	0	230	101300000	1000	0	0	-1	1500
15084955	2	105	0	-100	0	230	101300000	1000	0	0	-1	1500
15097515	0	99	0	-100	0	230	101300000	1000	0	0	-1	1500
15110075	0	102	0	-100	0	230	101300000	1000	0	0	-1	1500
15122635	0	100	0	-100	0	230	101300000	1000	0	0	-1	1500
15135195	0	101	0	-100	0	230	101300000	1000	0	0	-1	1500
15147755	0	101	0	-100	0	230	101300000	1000	0	0	-1	1500
15160315	0	102	0	-100	0	230	101300000	1000	0	0	-1	1500
15172875	4	100	0	-100	0	230	101300000	1000	0	0	-1	1500
15185435	7	101	0	-100	0	230	101300000	1000	0	0	-1	1500
15197995	7	99	0	-100	0	230	101300000	1000	0	0	-1	1500
15210555	4	104	0	-100	0	230	101300000	1000	0	0	-1	1500
15223115	4	101	0	-100	0	230	101300000	1000	0	0	-1	1500
15235675	2	104	0	-100	0	230	101300000	1000	0	0	-1	1500
15248235	4	103	0	-100	0	230	101300000	1000	0	0	-1	1500
15260795	4	100	0	-100	0	230	101300000	1000	0	0	-1	1500
15273355	7	100	0	-100	0	230	101300000	1000	0	0	-1	1500
15285915	7	101	0	-100	0	230	101300000	1000	0	0	-1	1500
15298475	4	105	0	-100	0	230	101300000	1000	0	0	-1	1500
15311035	7	100	0	-100	0	230	101300000	1000	0	0	-1	1500
15323595	4	101	0	-100	0	230	101300000	1000	0	0	-1	1500
15336155	12	103	0	-100	0	230	101300000	1000	0	0	-1	1500
15348715	7	104	0	-100	0	230	101300000	1000	0	0	-1	1500
15361275	7	101	0	-100	0	230	101300000	1000	0	0	-1	1500
15373835	4	101	0	-100	0	230	101300000	1000	0	0	-1	1500
15386395	4	101	0	-100	0	230	101300000	1000	0	0	-1	1500
15398955	7	99	0	-100	0	230	101300000	1000	0	0	-1	1500
15411515	4	104	0	-100	0	230	101300000	1000	0	0	-1	1500
15424075	4	105	0	-100	0	230	101300000	1000	0	0	-1	1500
15436635	7	102	0	-100	0	230	101300000	1000	0	0	-1	1500
15449195	4	100	0	-100	0	230	101300000	1000	0	0	-1	1500
15461755	7	102	0	-100	0	230	101300000	1000	0	0	-1	1500
15474315	7	104	0	-100	0	230	101300000	1000	0	0	-1	1500
15486875	7	100	0	-100	0	230	101300000	1000	0	0	-1	1500
15499435	7	96	0	-100	0	230	101300000	1000	0	0	-1	1500
15511995	4	100	0	-100	0	230	101300000	1000	0	0	-1	1500
15524555	4	102	0	-100	0	230	101300000	1000	0	0	-1	1500
15537115	0	104	0	-100	0	230	101300000	1000	0	0	-1	1500
15549675	0	100	0	-100	0	230	101300000	1000	0	0	-1	1500
15562235	0	101	0	-100	0	230	101300000	1000	0	0	-1	1500
15574795	0	104	0	-100	0	230	101300000	1000	0	0	-1	1500
15587355	2	104	0	-100	0	230	101300000	1000	0	0	-1	1500
15599915	2	105	0	-100	0	230	101300000	1000	0	0	-1	1500
15612475	0	99	0	-100	0	230	101300000	1000	0	0	-1	1500
15625035	2	101	0	-100	0	230	101300000	1000	0	0	-1	1500
15637595	4	101	0	-100	0	230	101300000	1000	0	0	-1	1500
15650155	12	102	0	-100	0	230	101300000	1000	0	0	-1	1500
15662715	9	99	0	-100	0	230	101300000	1000	0	0	-1	1500
15675275	7	96	0	-100	0	230	101300000	1000	0	0	-1	1500
15687835	9	100	0	-100	0	230	101300000	1000	0	0	-1	1500
15700395	0	102	0	-100	0	230	101300000	1000	0	0	-1	1500
15712955	0	101	0	-100	0	230	101300000	1000	0	0	-1	1500
15725515	0	101	0	-100	0	230	101300000	1000	0	0	-1	1500
15738075	2	103	0	-100	0	230	101300000	1000	0	0	-1	1500
15750635	4	103	0	-100	0	230	101300000	1000	0	0	-1	1500
15763195	7	100	0	-100	0	230	101300000	1000	0	0	-1	1500
15775755	7	100	0	-100	0	230	101300000	1000	0	0	-1	1500
15788315	7	101	0	-100	0	230	101300000	1000	0	0	-1	1500
15800875	0	101	0	-100	0	230	101300000	1000	0	0	-1	1500
15813435	0	98	0	-100	0	230	101300000	1000	0	0	-1	1500
15825995	2	101	0	-100	0	230	101300000	1000	0	0	-1	1500
15838555	0	99	0	-100	0	230	101300000	1000	0	0	-1	1500
15851115	0	100	0	-100	0	230	101300000	1000	0	0	-1	1500
15863675	0	102	0	-100	0	230	101300000	1000	0	0	-1	1500
15876235	0	99	0	-100	0	230	101300000	1000	0	0	-1	1500
15888795	0	98	0	-100	0	230	101300000	1000	0	0	-1	1500
15901355	2	102	0	-100	0	230	101300000	1000	0	0	-1	1500
15913915	2	101	0	-100	0	230	101300000	1000	0	0	-1	1500
15926475	4	100	0	-100	0	230	101300000	1000	0	0	-1	1500
15939035	4	100	0	-100	0	230	101300000	1000	0	0	-1	1500
15951595	7	100	0	-100	0	230	101300000	1000	0	0	-1	1500
15964155	12	102	0	-100	0	230	101300000	1000	0	0	-1	1500
15976715	7	100	0	-100	0	230	101300000	1000	0	0	-1	1500
15989275	7	98	0	-100	0	230	101300000	1000	0	0	-1	1500
16001835	4	101	0	-100	0	230	101300000	1000	0	0	-1	1500
16014395	2	101	0	-100	0	230	101300000	1000	0	0	-1	1500
16026955	2	98	0	-100	0	230	101300000	1000	0	0	-1	1500
16039515	0	102	0	-100	0	230	101300000	1000	0	0	-1	1500
16052075	0	103	0	-100	0	230	101300000	1000	0	0	-1	1500
16064635	0	98	0	-100	0	230	101300000	1000	0	0	-1	1500
16077195	0	100	0	-100	0	230	101300000	1000	0	0	-1	1500
16089755	0	100	0	-100	0	230	101300000	1000	0	0	-1	1500
16102315	0	101	0	-100	0	230	101300000	1000	0	0	-1	1500
16114875	2	104	0	-100	0	230	101300000	1000	0	0	-1	1500
16127435	0	100	0	-100	0	230	101300000	1000	0	0	-1	1500
16139995	0	103	0	-100	0	230	101300000	1000	0	0	-1	1500
16152555	0	103	0	-100	0	230	101300000	1000	0	0	-1	1500
16165115	2	103	0	-100	0	230	101300000	1000	0	0	-1	1500
16177675	4	103	0	-100	0	230	101300000	1000	0	0	-1	1500
16190235	7	102	0	-100	0	230	101300000	1000	0	0	-1	1500
16202795	9	99	0	-100	0	230	101300000	1000	0	0	-1	1500
16215355	2	96	0	-100	0	230	101300000	1000	0	0	-1	1500
16227915	0	102	0	-100	0	230	101300000	1000	0	0	-1	1500
16240475	0	101	0	-100	0	230	101300000	1000	0	0	-1	1500
16253035	2	104	0	-100	0	230	101300000	1000	0	0	-1	1500
16265595	2	105	0	-100	0	230	101300000	1000	0	0	-1	1500
16278155	7	102	0	-100	0	230	101300000	1000	0	0	-1	1500
16290715	4	103	0	-100	0	230	101300000	1000	0	0	-1	1500
16303275	4	104	0	-100	0	230	101300000	1000	0	0	-1	1500
16315835	4	100	0	-100	0	230	101300000	1000	0	0	-1	1500
16328395	4	103	0	-100	0	230	101300000	1000	0	0	-1	1500
16340955	7	100	0	-100	0	230	101300000	1000	0	0	-1	1500
16353515	4	98	0	-100	0	230	101300000	1000	0	0	-1	1500
16366075	7	100	0	-100	0	230	101300000	1000	0	0	-1	1500
16378635	7	99	0	-100	0	230	101300000	1000	0	0	-1	1500
16391195	7	102	0	-100	0	230	101300000	1000	0	0	-1	1500
16403755	7	97	0	-100	0	230	101300000	1000	0	0	-1	1500
16416315	2	102	0	-100	0	230	101300000	1000	0	0	-1	1500
16428875	4	101	0	-100	0	230	101300000	1000	0	0	-1	1500
16441435	7	101	0	-100	0	230	101300000	1000	0	0	-1	1500
16453995	4	100	0	-100	0	230	101300000	1000	0	0	-1	1500
16466555	7	102	0	-100	0	230	101300000	1000	0	0	-1	1500
16479115	7	100	0	-100	0	230	101300000	1000	0	0	-1	1500
16491675	7	101	0	-100	0	230	101300000	1000	0	0	-1	1500
16504235	7	99	0	-100	0	230	101300000	1000	0	0	-1	1500
16516795	4	100	0	-100	0	230	101300000	1000	0	0	-1	1500
16529355	4	101	0	-100	0	230	101300000	1000	0	0	-1	1500
16541915	7	103	0	-100	0	230	101300000	1000	0	0	-1	1500
16554475	7	102	0	-100	0	230	101300000	1000	0	0	-1	1500
16567035	4	100	0	-100	0	230	101300000	1000	0	0	-1	1500
16579595	4	102	0	-100	0	230	101300000	1000	0	0	-1	1500
16592155	4	104	0	-100	0	230	101300000	1000	0	0	-1	1500
16604715	0	103	0	-100	0	230	101300000	1000	0	0	-1	1500
16617275	2	104	0	-100	0	230	101300000	1000	0	0	-1	1500
16629835	0	100	0	-100	0	230	101300000	1000	0	0	-1	1500
16642395	0	103	0	-100	0	230	101300000	1000	0	0	-1	1500
16654955	0	97	0	-100	0	230	101300000	1000	0	0	-1	1500
16667515	0	95	0	-100	0	230	101300000	1000	0	0	-1	1500
16680075	4	102	0	-100	0	230	101300000	1000	0	0	-1	1500
16692635	4	102	0	-100	0	230	101300000	1000	0	0	-1	1500
16705195	7	98	0	-100	0	230	101300000	1000	0	0	-1	1500
16717755	2	97	0	-100	0	230	101300000	1000	0	0	-1	1500
16730315	2	104	0	-100	0	230	101300000	1000	0	0	-1	1500
16742875	4	102	0	-100	0	230	101300000	1000	0	0	-1	1500
16755435	7	102	0	-100	0	230	101300000	1000	0	0	-1	1500
16767995	0	101	0	-100	0	230	101300000	1000	0	0	-1	1500
16780555	2	101	0	-100	0	230	101300000	1000	0	0	-1	1500
16793115	2	97	0	-100	0	230	101300000	1000	0	0	-1	1500
16805675	0	100	0	-100	0	230	101300000	1000	0	0	-1	1500
16818235	7	101	0	-100	0	230	101300000	1000	0	0	-1	1500
16830795	4	102	0	-100	0	230	101300000	1000	0	0	-1	1500
16843355	2	100	0	-100	0	230	101300000	1000	0	0	-1	1500
16855915	0	99	0	-100	0	230	101300000	1000	0	0	-1	1500
16868475	7	101	0	-100	0	230	101300000	1000	0	0	-1	1500
16881035	0	100	0	-100	0	230	101300000	1000	0	0	-1	1500
16893595	4	103	0	-100	0	230	101300000	1000	0	0	-1	1500
16906155	14	101	0	-100	0	230	101300000	1000	0	0	-1	1500
16918715	0	100	0	-100	0	230	101300000	1000	0	0	-1	1500
16931275	4	104	0	-100	0	230	101300000	1000	0	0	-1	1500
16943835	2	101	0	-100	0	230	101300000	1000	0	0	-1	1500
16956395	0	99	0	-100	0	230	101300000	1000	0	0	-1	1500
16968955	4	100	0	-100	0	230	101300000	1000	0	0	-1	1500
16981515	7	100	0	-100	0	230	101300000	1000	0	0	-1	1500
16994075	0	101	0	-100	0	230	101300000	1000	0	0	-1	1500
17006635	7	98	0	-100	0	230	101300000	1000	0	0	-1	1500
17019195	0	103	0	-100	0	230	101300000	1000	0	0	-1	1500
17031755	0	98	0	-100	0	230	101300000	1000	0	0	-1	1500
17044315	4	101	0	-100	0	230	101300000	1000	0	0	-1	1500
17056875	0	104	0	-100	0	230	101300000	1000	0	0	-1	1500
17069435	0	98	0	-100	0	230	101300000	1000	0	0	-1	1500
17081995	4	102	0	-100	0	230	101300000	1000	0	0	-1	1500
17094555	0	100	0	-100	0	230	101300000	1000	0	0	-1	1500
17107115	4	101	0	-100	0	230	101300000	1000	0	0	-1	1500
17119675	0	103	0	-100	0	230	101300000	1000	0	0	-1	1500
17132235	0	100	0	-100	0	230	101300000	1000	0	0	-1	1500
17144795	9	100	0	-100	0	230	101300000	1000	0	0	-1	1500
17157355	0	102	0	-100	0	230	101300000	1000	0	0	-1	1500
17169915	0	97	0	-100	0	230	101300000	1000	0	0	-1	1500
17182475	7	100	0	-100	0	230	101300000	1000	0	0	-1	1500
17195035	2	101	0	-100	0	230	101300000	1000	0	0	-1	1500
17207595	2	102	0	-100	0	230	101300000	1000	0	0	-1	1500
17220155	12	103	0	-100	0	230	101300000	1000	0	0	-1	1500
17232715	0	99	0	-100	0	230	101300000	1000	0	0	-1	1500
17245275	7	100	0	-100	0	230	101300000	1000	0	0	-1	1500
17257835	0	103	0	-100	0	230	101300000	1000	0	0	-1	1500
17270395	4	101	0	-100	0	230	101300000	1000	0	0	-1	1500
17282955	2	101	0	-100	0	230	101300000	1000	0	0	-1	1500
17295515	2	103	0	-100	0	230	101300000	1000	0	0	-1	1500
17308075	9	99	0	-100	0	230	101300000	1000	0	0	-1	1500
17320635	0	101	0	-100	0	230	101300000	1000	0	0	-1	1500
17333195	4	104	0	-100	0	230	101300000	1000	0	0	-1	1500
17345755	2	101	0	-100	0	230	101300000	1000	0	0	-1	1500
17358315	4	105	0	-100	0	230	101300000	1000	0	0	-1	1500
17370875	0	105	0	-100	0	230	101300000	1000	0	0	-1	1500
17383435	0	101	0	-100	0	230	101300000	1000	0	0	-1	1500
17395995	7	104	0	-100	0	230	101300000	1000	0	0	-1	1500
17408555	0	103	0	-100	0	230	101300000	1000	0	0	-1	1500
17421115	4	105	0	-100	0	230	101300000	1000	0	0	-1	1500
17433675	4	103	0	-100	0	230	101300000	1000	0	0	-1	1500
17446235	4	104	0	-100	0	230	101300000	1000	0	0	-1	1500
17458795	0	103	0	-100	0	230	101300000	1000	0	0	-1	1500
17471355	0	97	0	-100	0	230	101300000	1000	0	0	-1	1500
17483915	4	103	0	-100	0	230	101300000	1000	0	0	-1	1500
17496475	0	105	0	-100	0	230	101300000	1000	0	0	-1	1500
17509035	0	100	0	-100	0	230	101300000	1000	0	0	-1	1500
17521595	4	98	0	-100	0	230	101300000	1000	0	0	-1	1500
17534155	4	99	0	-100	0	230	101300000	1000	0	0	-1	1500
17546715	4	104	0	-100	0	230	101300000	1000	0	0	-1	1500
17559275	4	102	0	-100	0	230	101300000	1000	0	0	-1	1500
17571835	0	102	0	-100	0	230	101300000	1000	0	0	-1	1500
17584395	0	101	0	-100	0	230	101300000	1000	0	0	-1	1500
17596955	4	103	0	-100	0	230	101300000	1000	0	0	-1	1500
17609515	4	104	0	-100	0	230	101300000	1000	0	0	-1	1500
17622075	0	101	0	-100	0	230	101300000	1000	0	0	-1	1500
17634635	2	102	0	-100	0	230	101300000	1000	0	0	-1	1500
17647195	7	104	0	-100	0	230	101300000	1000	0	0	-1	1500
17659755	0	98	0	-100	0	230	101300000	1000	0	0	-1	1500
17672315	2	102	0	-100	0	230	101300000	1000	0	0	-1	1500
17684875	0	104	0	-100	0	230	101300000	1000	0	0	-1	1500
17697435	0	100	0	-100	0	230	101300000	1000	0	0	-1	1500
17709995	7	104	0	-100	0	230	101300000	1000	0	0	-1	1500
17722555	0	101	0	-100	0	230	101300000	1000	0	0	-1	1500
17735115	7	103	0	-100	0	230	101300000	1000	0	0	-1	1500
17747675	2	102	0	-100	0	230	101300000	1000	0	0	-1	1500
17760235	7	99	0	-100	0	230	101300000	1000	0	0	-1	1500
17772795	2	101	0	-100	0	230	101300000	1000	0	0	-1	1500
17785355	9	100	0	-100	0	230	101300000	1000	0	0	-1	1500
17797915	0	101	0	-100	0	230	101300000	1000	0	0	-1	1500
17810475	0	104	0	-100	0	230	101300000	1000	0	0	-1	1500
17823035	4	101	0	-100	0	230	101300000	1000	0	0	-1	1500
17835595	0	100	0	-100	0	230	101300000	1000	0	0	-1	1500
17848155	9	107	0	-100	0	230	101300000	1000	0	0	-1	1500
17860715	0	104	0	-100	0	230	101300000	1000	0	0	-1	1500
17873275	4	100	0	-100	0	230	101300000	1000	0	0	-1	1500
17885835	0	102	0	-100	0	230	101300000	1000	0	0	-1	1500
17898395	4	105	0	-100	0	230	101300000	1000	0	0	-1	1500
17910955	0	101	0	-100	0	230	101300000	1000	0	0	-1	1500
17923515	4	101	0	-100	0	230	101300000	1000	0	0	-1	1500
17936075	2	100	0	-100	0	230	101300000	1000	0	0	-1	1500
17948635	2	104	0	-100	0	230	101300000	1000	0	0	-1	1500
17961195	4	102	0	-100	0	230	101300000	1000	0	0	-1	1500
17973755	0	103	0	-100	0	230	101300000	1000	0	0	-1	1500
17986315	2	103	0	-100	0	230	101300000	1000	0	0	-1	1500
17998875	4	103	0	-100	0	230	101300000	1000	0	0	-1	1500
18011435	4	101	0	-100	0	230	101300000	1000	0	0	-1	1500
18023995	2	100	0	-100	0	230	101300000	1000	0	0	-1	1500
18036555	4	101	0	-100	0	230	101300000	1000	0	0	-1	1500
18049115	0	101	0	-100	0	230	101300000	1000	0	0	-1	1500
18061675	7	97	0	-100	0	230	101300000	1000	0	0	-1	1500
18074235	0	101	0	-100	0	230	101300000	1000	0	0	-1	1500
18086795	4	100	0	-100	0	230	101300000	1000	0	0	-1	1500
18099355	0	101	0	-100	0	230	101300000	1000	0	0	-1	1500
18111915	7	101	0	-100	0	230	101300000	1000	0	0	-1	1500
18124475	0	100	0	-100	0	230	101300000	1000	0	0	-1	1500
18137035	4	101	0	-100	0	230	101300000	1000	0	0	-1	1500
18149595	0	102	0	-100	0	230	101300000	1000	0	0	-1	1500
18162155	4	104	0	-100	0	230	101300000	1000	0	0	-1	1500
18174715	7	98	0	-100	0	230	101300000	1000	0	0	-1	1500
18187275	0	100	0	-100	0	230	101300000	1000	0	0	-1	1500
18199835	4	104	0	-100	0	230	101300000	1000	0	0	-1	1500
18212395	0	102	0	-100	0	230	101300000	1000	0	0	-1	1500
18224955	0	99	0	-100	0	230	101300000	1000	0	0	-1	1500
18237515	7	100	0	-100	0	230	101300000	1000	0	0	-1	1500
18250075	2	100	0	-100	0	230	101300000	1000	0	0	-1	1500
18262635	2	103	0	-100	0	230	101300000	1000	0	0	-1	1500
18275195	4	103	0	-100	0	230	101300000	1000	0	0	-1	1500
18287755	7	102	0	-100	0	230	101300000	1000	0	0	-1	1500
18300315	0	103	0	-100	0	230	101300000	1000	0	0	-1	1500
18312875	0	100	0	-100	0	230	101300000	1000	0	0	-1	1500
18325435	2	104	0	-100	0	230	101300000	1000	0	0	-1	1500
18337995	0	102	0	-100	0	230	101300000	1000	0	0	-1	1500
18350555	0	99	0	-100	0	230	101300000	1000	0	0	-1	1500
18363115	7	100	0	-100	0	230	101300000	1000	0	0	-1	1500
18375675	9	102	0	-100	0	230	101300000	1000	0	0	-1	1500
18388235	0	105	0	-100	0	230	101300000	1000	0	0	-1	1500
18400795	0	104	0	-100	0	230	101300000	1000	0	0	-1	1500
18413355	0	100	0	-100	0	230	101300000	1000	0	0	-1	1500
18425915	4	101	0	-100	0	230	101300000	1000	0	0	-1	1500
18438475	7	99	0	-100	0	230	101300000	1000	0	0	-1	1500
18451035	2	99	0	-100	0	230	101300000	1000	0	0	-1	1500
18463595	0	100	0	-100	0	230	101300000	1000	0	0	-1	1500
18476155	2	104	0	-100	0	230	101300000	1000	0	0	-1	1500
18488715	0	103	0	-100	0	230	101300000	1000	0	0	-1	1500
18501275	4	101	0	-100	0	230	101300000	1000	0	0	-1	1500
18513835	7	101	0	-100	0	230	101300000	1000	0	0	-1	1500
18526395	0	103	0	-100	0	230	101300000	1000	0	0	-1	1500
18538955	0	99	0	-100	0	230	101300000	1000	0	0	-1	1500
18551515	2	102	0	-100	0	230	101300000	1000	0	0	-1	1500
18564075	7	97	0	-100	0	230	101300000	1000	0	0	-1	1500
18576635	4	100	0	-100	0	230	101300000	1000	0	0	-1	1500
18589195	0	100	0	-100	0	230	101300000	1000	0	0	-1	1500
18601755	0	100	0	-100	0	230	101300000	1000	0	0	-1	1500
18614315	7	100	0	-100	0	230	101300000	1000	0	0	-1	1500
18626875	0	101	0	-100	0	230	101300000	1000	0	0	-1	1500
18639435	2	105	0	-100	0	230	101300000	1000	0	0	-1	1500
18651995	2	103	0	-100	0	230	101300000	1000	0	0	-1	1500
18664555	7	103	0	-100	0	230	101300000	1000	0	0	-1	1500
18677115	0	104	0	-100	0	230	101300000	1000	0	0	-1	1500
18689675	2	104	0	-100	0	230	101300000	1000	0	0	-1	1500
18702235	7	102	0	-100	0	230	101300000	1000	0	0	-1	1500
18714795	2	97	0	-100	0	230	101300000	1000	0	0	-1	1500
18727355	2	102	0	-100	0	230	101300000	1000	0	0	-1	1500
18739915	7	97	0	-100	0	230	101300000	1000	0	0	-1	1500
18752475	2	99	0	-100	0	230	101300000	1000	0	0	-1	1500
18765035	0	101	0	-100	0	230	101300000	1000	0	0	-1	1500
18777595	4	105	0	-100	0	230	101300000	1000	0	0	-1	1500
18790155	12	101	0	-100	0	230	101300000	1000	0	0	-1	1500
18802715	0	101	0	-100	0	230	101300000	1000	0	0	-1	1500
18815275	2	105	0	-100	0	230	101300000	1000	0	0	-1	1500
18827835	7	99	0	-100	0	230	101300000	1000	0	0	-1	1500
18840395	0	107	0	-100	0	230	101300000	1000	0	0	-1	1500
18852955	2	102	0	-100	0	230	101300000	1000	0	0	-1	1500
18865515	4	101	0	-100	0	230	101300000	1000	0	0	-1	1500
18878075	2	99	0	-100	0	230	101300000	1000	0	0	-1	1500
18890635	2	102	0	-100	0	230	101300000	1000	0	0	-1	1500
18903195	7	100	0	-100	0	230	101300000	1000	0	0	-1	1500
18915755	0	103	0	-100	0	230	101300000	1000	0	0	-1	1500
18928315	0	101	0	-100	0	230	101300000	1000	0	0	-1	1500
18940875	7	100	0	-100	0	230	101300000	1000	0	0	-1	1500
18953435	0	100	0	-100	0	230	101300000	1000	0	0	-1	1500
18965995	2	104	0	-100	0	230	101300000	1000	0	0	-1	1500
18978555	0	103	0	-100	0	230	101300000	1000	0	0	-1	1500
18991115	2	104	0	-100	0	230	101300000	1000	0	0	-1	1500
19003675	7	103	0	-100	0	230	101300000	1000	0	0	-1	1500
19016235	0	104	0	-100	0	230	101300000	1000	0	0	-1	1500
19028795	2	98	0	-100	0	230	101300000	1000	0	0	-1	1500
19041355	0	100	0	-100	0	230	101300000	1000	0	0	-1	1500
19053915	2	101	0	-100	0	230	101300000	1000	0	0	-1	1500
19066475	0	104	0	-100	0	230	101300000	1000	0	0	-1	1500
19079035	2	105	0	-100	0	230	101300000	1000	0	0	-1	1500
19091595	7	96	0	-100	0	230	101300000	1000	0	0	-1	1500
19104155	4	101	0	-100	0	230	101300000	1000	0	0	-1	1500
19116715	4	101	0	-100	0	230	101300000	1000	0	0	-1	1500
19129275	0	105	0	-100	0	230	101300000	1000	0	0	-1	1500
19141835	0	100	0	-100	0	230	101300000	1000	0	0	-1	1500
19154395	7	99	0	-100	0	230	101300000	1000	0	0	-1	1500
19166955	0	102	0	-100	0	230	101300000	1000	0	0	-1	1500
19179515	2	103	0	-100	0	230	101300000	1000	0	0	-1	1500
19192075	4	103	0	-100	0	230	101300000	1000	0	0	-1	1500
19204635	0	98	0	-100	0	230	101300000	1000	0	0	-1	1500
19217195	7	100	0	-100	0	230	101300000	1000	0	0	-1	1500
19229755	2	100	0	-100	0	230	101300000	1000	0	0	-1	1500
19242315	4	96	0	-100	0	230	101300000	1000	0	0	-1	1500
19254875	0	99	0	-100	0	230	101300000	1000	0	0	-1	1500
19267435	7	101	0	-100	0	230	101300000	1000	0	0	-1	1500
19279995	0	101	0	-100	0	230	101300000	1000	0	0	-1	1500
19292555	0	101	0	-100	0	230	101300000	1000	0	0	-1	1500
19305115	7	100	0	-100	0	230	101300000	1000	0	0	-1	1500
19317675	0	101	0	-100	0	230	101300000	1000	0	0	-1	1500
19330235	2	105	0	-100	0	230	101300000	1000	0	0	-1	1500
19342795	2	104	0	-100	0	230	101300000	1000	0	0	-1	1500
19355355	9	98	0	-100	0	230	101300000	1000	0	0	-1	1500
19367915	0	100	0	-100	0	230	101300000	1000	0	0	-1	1500
19380475	4	102	0	-100	0	230	101300000	1000	0	0	-1	1500
19393035	2	100	0	-100	0	230	101300000	1000	0	0	-1	1500
19405595	0	101	0	-100	0	230	101300000	1000	0	0	-1	1500
19418155	12	104	0	-100	0	230	101300000	1000	0	0	-1	1500
19430715	0	99	0	-100	0	230	101300000	1000	0	0	-1	1500
19443275	7	100	0	-100	0	230	101300000	1000	0	0	-1	1500
19455835	0	103	0	-100	0	230	101300000	1000	0	0	-1	1500
19468395	0	102	0	-100	0	230	101300000	1000	0	0	-1	1500
19480955	7	100	0	-100	0	230	101300000	1000	0	0	-1	1500
19493515	0	101	0	-100	0	230	101300000	1000	0	0	-1	1500
19506075	0	99	0	-100	0	230	101300000	1000	0	0	-1	1500
19518635	7	98	0	-100	0	230	101300000	1000	0	0	-1	1500
19531195	0	101	0	-100	0	230	101300000	1000	0	0	-1	1500
19543755	0	102	0	-100	0	230	101300000	1000	0	0	-1	1500
19556315	7	96	0	-100	0	230	101300000	1000	0	0	-1	1500
19568875	0	101	0	-100	0	230	101300000	1000	0	0	-1	1500
19581435	2	102	0	-100	0	230	101300000	1000	0	0	-1	1500
19593995	7	103	0	-100	0	230	101300000	1000	0	0	-1	1500
19606555	0	102	0	-100	0	230	101300000	1000	0	0	-1	1500
19619115	0	100	0	-100	0	230	101300000	1000	0	0	-1	1500
19631675	4	103	0	-100	0	230	101300000	1000	0	0	-1	1500
19644235	7	99	0	-100	0	230	101300000	1000	0	0	-1	1500
19656795	4	100	0	-100	0	230	101300000	1000	0	0	-1	1500
19669355	0	102	0	-100	0	230	101300000	1000	0	0	-1	1500
19681915	2	102	0	-100	0	230	101300000	1000	0	0	-1	1500
19694475	0	101	0	-100	0	230	101300000	1000	0	0	-1	1500
19707035	7	100	0	-100	0	230	101300000	1000	0	0	-1	1500
19719595	7	97	0	-100	0	230	101300000	1000	0	0	-1	1500
19732155	7	101	0	-100	0	230	101300000	1000	0	0	-1	1500
19744715	0	103	0	-100	0	230	101300000	1000	0	0	-1	1500
19757275	2	102	0	-100	0	230	101300000	1000	0	0	-1	1500
19769835	0	100	0	-100	0	230	101300000	1000	0	0	-1	1500
19782395	2	102	0	-100	0	230	101300000	1000	0	0	-1	1500
19794955	4	103	0	-100	0	230	101300000	1000	0	0	-1	1500
19807515	7	100	0	-100	0	230	101300000	1000	0	0	-1	1500
19820075	2	101	0	-100	0	230	101300000	1000	0	0	-1	1500
19832635	0	102	0	-100	0	230	101300000	1000	0	0	-1	1500
19845195	2	105	0	-100	0	230	101300000	1000	0	0	-1	1500
19857755	0	101	0	-100	0	230	101300000	1000	0	0	-1	1500
19870315	7	102	0	-100	0	230	101300000	1000	0	0	-1	1500
19882875	2	97	0	-100	0	230	101300000	1000	0	0	-1	1500
19895435	0	102	0	-100	0	230	101300000	1000	0	0	-1	1500
19907995	0	103	0	-100	0	230	101300000	1000	0	0	-1	1500
19920555	4	100	0	-100	0	230	101300000	1000	0	0	-1	1500
19933115	7	103	0	-100	0	230	101300000	1000	0	0	-1	1500
19945675	2	99	0	-100	0	230	101300000	1000	0	0	-1	1500
19958235	2	102	0	-100	0	230	101300000	1000	0	0	-1	1500
19970795	2	100	0	-100	0	230	101300000	1000	0	0	-1	1500
19983355	7	97	0	-100	0	230	101300000	1000	0	0	-1	1500
19995915	2	100	0	-100	0	230	101300000	1000	0	0	-1	1500
20008475	0	106	0	-100	0	230	101300000	1000	0	0	-1	1500
20021035	2	103	0	-100	0	230	101300000	1000	0	0	-1	1500
20033595	7	100	0	-100	0	230	101300000	1000	0	0	-1	1500
20046155	12	100	0	-100	0	230	101300000	1000	0	0	-1	1500
20058715	2	100	0	-100	0	230	101300000	1000	0	0	-1	1500
20071275	0	100	0	-100	0	230	101300000	1000	0	0	-1	1500
20083835	0	98	0	-100	0	230	101300000	1000	0	0	-1	1500
20096395	7	102	0	-100	0	230	101300000	1000	0	0	-1	1500
20108955	2	101	0	-100	0	230	101300000	1000	0	0	-1	1500
20121515	0	101	0	-100	0	230	101300000	1000	0	0	-1	1500
20134075	2	105	0	-100	0	230	101300000	1000	0	0	-1	1500
20146635	7	97	0	-100	0	230	101300000	1000	0	0	-1	1500
20159195	2	97	0	-100	0	230	101300000	1000	0	0	-1	1500
20171755	0	103	0	-100	0	230	101300000	1000	0	0	-1	1500
20184315	0	98	0	-100	0	230	101300000	1000	0	0	-1	1500
20196875	4	105	0	-100	0	230	101300000	1000	0	0	-1	1500
20209435	7	99	0	-100	0	230	101300000	1000	0	0	-1	1500
20221995	0	99	0	-100	0	230	101300000	1000	0	0	-1	1500
20234555	2	101	0	-100	0	230	101300000	1000	0	0	-1	1500
20247115	0	98	0	-100	0	230	101300000	1000	0	0	-1	1500
20259675	0	101	0	-100	0	230	101300000	1000	0	0	-1	1500
20272235	4	103	0	-100	0	230	101300000	1000	0	0	-1	1500
20284795	7	99	0	-100	0	230	101300000	1000	0	0	-1	1500
20297355	0	102	0	-100	0	230	101300000	1000	0	0	-1	1500
20309915	2	106	0	-100	0	230	101300000	1000	0	0	-1	1500
20322475	2	104	0	-100	0	230	101300000	1000	0	0	-1	1500
20335035	7	97	0	-100	0	230	101300000	1000	0	0	-1	1500
20347595	0	100	0	-100	0	230	101300000	1000	0	0	-1	1500
20360155	2	103	0	-100	0	230	101300000	1000	0	0	-1	1500
20372715	0	100	0	-100	0	230	101300000	1000	0	0	-1	1500
20385275	4	101	0	-100	0	230	101300000	1000	0	0	-1	1500
20397835	2	100	0	-100	0	230	101300000	1000	0	0	-1	1500
20410395	2	100	0	-100	0	230	101300000	1000	0	0	-1	1500
20422955	0	101	0	-100	0	230	101300000	1000	0	0	-1	1500
20435515	0	99	0	-100	0	230	101300000	1000	0	0	-1	1500
20448075	2	103	0	-100	0	230	101300000	1000	0	0	-1	1500
20460635	4	101	0	-100	0	230	101300000	1000	0	0	-1	1500
20473195	2	96	0	-100	0	230	101300000	1000	0	0	-1	1500
20485755	0	100	0	-100	0	230	101300000	1000	0	0	-1	1500
20498315	0	103	0	-100	0	230	101300000	1000	0	0	-1	1500
20510875	4	104	0	-100	0	230	101300000	1000	0	0	-1	1500
20523435	7	99	0	-100	0	230	101300000	1000	0	0	-1	1500
20535995	0	99	0	-100	0	230	101300000	1000	0	0	-1	1500
20548555	0	99	0	-100	0	230	101300000	1000	0	0	-1	1500
20561115	0	101	0	-100	0	230	101300000	1000	0	0	-1	1500
20573675	4	105	0	-100	0	230	101300000	1000	0	0	-1	1500
20586235	7	102	0	-100	0	230	101300000	1000	0	0	-1	1500
20598795	2	99	0	-100	0	230	101300000	1000	0	0	-1	1500
20611355	4	101	0	-100	0	230	101300000	1000	0	0	-1	1500
20623915	0	102	0	-100	0	230	101300000	1000	0	0	-1	1500
20636475	0	100	0	-100	0	230	101300000	1000	0	0	-1	1500
20649035	2	104	0	-100	0	230	101300000	1000	0	0	-1	1500
20661595	2	102	0	-100	0	230	101300000	1000	0	0	-1	1500
20674155	12	103	0	-100	0	230	101300000	1000	0	0	-1	1500
20686715	7	101	0	-100	0	230	101300000	1000	0	0	-1	1500
20699275	0	103	0	-100	0	230	101300000	1000	0	0	-1	1500
20711835	0	104	0	-100	0	230	101300000	1000	0	0	-1	1500
20724395	2	101	0	-100	0	230	101300000	1000	0	0	-1	1500
20736955	2	104	0	-100	0	230	101300000	1000	0	0	-1	1500
20749515	7	100	0	-100	0	230	101300000	1000	0	0	-1	1500
20762075	2	100	0	-100	0	230	101300000	1000	0	0	-1	1500
20774635	0	101	0	-100	0	230	101300000	1000	0	0	-1	1500
20787195	2	105	0	-100	0	230	101300000	1000	0	0	-1	1500
20799755	2	100	0	-100	0	230	101300000	1000	0	0	-1	1500
20812315	4	100	0	-100	0	230	101300000	1000	0	0	-1	1500
20824875	2	100	0	-100	0	230	101300000	1000	0	0	-1	1500
20837435	0	105	0	-100	0	230	101300000	1000	0	0	-1	1500
20849995	0	101	0	-100	0	230	101300000	1000	0	0	-1	1500
20862555	2	101	0	-100	0	230	101300000	1000	0	0	-1	1500
20875115	7	102	0	-100	0	230	101300000	1000	0	0	-1	1500
20887675	2	103	0	-100	0	230	101300000	1000	0	0	-1	1500
20900235	7	98	0	-100	0	230	101300000	1000	0	0	-1	1500
20912795	0	99	0	-100	0	230	101300000	1000	0	0	-1	1500
20925355	4	98	0	-100	0	230	101300000	1000	0	0	-1	1500
20937915	0	105	0	-100	0	230	101300000	1000	0	0	-1	1500
20950475	0	105	0	-100	0	230	101300000	1000	0	0	-1	1500
20963035	7	102	0	-100	0	230	101300000	1000	0	0	-1	1500
20975595	0	103	0	-100	0	230	101300000	1000	0	0	-1	1500
20988155	7	104	0	-100	0	230	101300000	1000	0	0	-1	1500
21000715	7	102	0	-100	0	230	101300000	1000	0	0	-1	1500
21013275	0	102	0	-100	0	230	101300000	1000	0	0	-1	1500
21025835	2	105	0	-100	0	230	101300000	1000	0	0	-1	1500
21038395	7	99	0	-100	0	230	101300000	1000	0	0	-1	1500
21050955	0	101	0	-100	0	230	101300000	1000	0	0	-1	1500
21063515	4	102	0	-100	0	230	101300000	1000	0	0	-1	1500
21076075	2	101	0	-100	0	230	101300000	1000	0	0	-1	1500
21088635	2	104	0	-100	0	230	101300000	1000	0	0	-1	1500
21101195	4	100	0	-100	0	230	101300000	1000	0	0	-1	1500
21113755	0	101	0	-100	0	230	101300000	1000	0	0	-1	1500
21126315	2	105	0	-100	0	230	101300000	1000	0	0	-1	1500
21138875	0	101	0	-100	0	230	101300000	1000	0	0	-1	1500
21151435	2	104	0	-100	0	230	101300000	1000	0	0	-1	1500
21163995	2	103	0	-100	0	230	101300000	1000	0	0	-1	1500
21176555	2	103	0	-100	0	230	101300000	1000	0	0	-1	1500
21189115	7	99	0	-100	0	230	101300000	1000	0	0	-1	1500
21201675	2	99	0	-100	0	230	101300000	1000	0	0	-1	1500
21214235	2	103	0	-100	0	230	101300000	1000	0	0	-1	1500
21226795	7	102	0	-100	0	230	101300000	1000	0	0	-1	1500
21239355	0	104	0	-100	0	230	101300000	1000	0	0	-1	1500
21251915	0	101	0	-100	0	230	101300000	1000	0	0	-1	1500
21264475	2	101	0	-100	0	230	101300000	1000	0	0	-1	1500
21277035	4	99	0	-100	0	230	101300000	1000	0	0	-1	1500
21289595	2	105	0	-100	0	230	101300000	1000	0	0	-1	1500
21302155	12	101	0	-100	0	230	101300000	1000	0	0	-1	1500
21314715	0	101	0	-100	0	230	101300000	1000	0	0	-1	1500
21327275	7	100	0	-100	0	230	101300000	1000	0	0	-1	1500
21339835	0	104	0	-100	0	230	101300000	1000	0	0	-1	1500
21352395	0	100	0	-100	0	230	101300000	1000	0	0	-1	1500
21364955	7	101	0	-100	0	230	101300000	1000	0	0	-1	1500
21377515	0	97	0	-100	0	230	101300000	1000	0	0	-1	1500
21390075	4	103	0	-100	0	230	101300000	1000	0	0	-1	1500
21402635	0	105	0	-100	0	230	101300000	1000	0	0	-1	1500
21415195	4	103	0	-100	0	230	101300000	1000	0	0	-1	1500
21427755	9	99	0	-100	0	230	101300000	1000	0	0	-1	1500
21440315	0	98	0	-100	0	230	101300000	1000	0	0	-1	1500
21452875	7	100	0	-100	0	230	101300000	1000	0	0	-1	1500
21465435	0	100	0	-100	0	230	101300000	1000	0	0	-1	1500
21477995	2	98	0	-100	0	230	101300000	1000	0	0	-1	1500
21490555	0	102	0	-100	0	230	101300000	1000	0	0	-1	1500
21503115	0	99	0	-100	0	230	101300000	1000	0	0	-1	1500
21515675	4	103	0	-100	0	230	101300000	1000	0	0	-1	1500
21528235	2	103	0	-100	0	230	101300000	1000	0	0	-1	1500
21540795	7	101	0	-100	0	230	101300000	1000	0	0	-1	1500
21553355	0	101	0	-100	0	230	101300000	1000	0	0	-1	1500
21565915	0	98	0	-100	0	230	101300000	1000	0	0	-1	1500
21578475	7	102	0	-100	0	230	101300000	1000	0	0	-1	1500
21591035	4	103	0	-100	0	230	101300000	1000	0	0	-1	1500
21603595	4	100	0	-100	0	230	101300000	1000	0	0	-1	1500
21616155	2	103	0	-100	0	230	101300000	1000	0	0	-1	1500
21628715	4	105	0	-100	0	230	101300000	1000	0	0	-1	1500
21641275	7	100	0	-100	0	230	101300000	1000	0	0	-1	1500
21653835	0	102	0	-100	0	230	101300000	1000	0	0	-1	1500
21666395	0	102	0	-100	0	230	101300000	1000	0	0	-1	1500
21678955	4	99	0	-100	0	230	101300000	1000	0	0	-1	1500
21691515	0	101	0	-100	0	230	101300000	1000	0	0	-1	1500
21704075	0	104	0	-100	0	230	101300000	1000	0	0	-1	1500
21716635	7	102	0	-100	0	230	101300000	1000	0	0	-1	1500
21729195	0	102	0	-100	0	230	101300000	1000	0	0	-1	1500
21741755	2	106	0	-100	0	230	101300000	1000	0	0	-1	1500
21754315	7	101	0	-100	0	230	101300000	1000	0	0	-1	1500
21766875	0	102	0	-100	0	230	101300000	1000	0	0	-1	1500
21779435	2	101	0	-100	0	230	101300000	1000	0	0	-1	1500
21791995	2	104	0	-100	0	230	101300000	1000	0	0	-1	1500
21804555	0	101	0	-100	0	230	101300000	1000	0	0	-1	1500
21817115	4	100	0	-100	0	230	101300000	1000	0	0	-1	1500
21829675	0	97	0	-100	0	230	101300000	1000	0	0	-1	1500
21842235	7	102	0	-100	0	230	101300000	1000	0	0	-1	1500
21854795	0	103	0	-100	0	230	101300000	1000	0	0	-1	1500
21867355	0	100	0	-100	0	230	101300000	1000	0	0	-1	1500
21879915	7	97	0	-100	0	230	101300000	1000	0	0	-1	1500
21892475	0	104	0	-100	0	230	101300000	1000	0	0	-1	1500
21905035	0	97	0	-100	0	230	101300000	1000	0	0	-1	1500
21917595	7	102	0	-100	0	230	101300000	1000	0	0	-1	1500
21930155	4	105	0	-100	0	230	101300000	1000	0	0	-1	1500
21942715	7	101	0	-100	0	230	101300000	1000	0	0	-1	1500
21955275	0	104	0	-100	0	230	101300000	1000	0	0	-1	1500
21967835	2	101	0	-100	0	230	101300000	1000	0	0	-1	1500
21980395	2	100	0	-100	0	230	101300000	1000	0	0	-1	1500
21992955	0	100	0	-100	0	230	101300000	1000	0	0	-1	1500
22005515	4	98	0	-100	0	230	101300000	1000	0	0	-1	1500
22018075	0	101	0	-100	0	230	101300000	1000	0	0	-1	1500
22030635	0	102	0	-100	0	230	101300000	1000	0	0	-1	1500
22043195	7	102	0	-100	0	230	101300000	1000	0	0	-1	1500
22055755	2	102	0	-100	0	230	101300000	1000	0	0	-1	1500
22068315	0	102	0	-100	0	230	101300000	1000	0	0	-1	1500
22080875	2	101	0	-100	0	230	101300000	1000	0	0	-1	1500
22093435	7	99	0	-100	0	230	101300000	1000	0	0	-1	1500
22105995	4	103	0	-100	0	230	101300000	1000	0	0	-1	1500
22118555	0	103	0	-100	0	230	101300000	1000	0	0	-1	1500
22131115	0	102	0	-100	0	230	101300000	1000	0	0	-1	1500
22143675	2	104	0	-100	0	230	101300000	1000	0	0	-1	1500
22156235	2	102	0	-100	0	230	101300000	1000	0	0	-1	1500
22168795	7	101	0	-100	0	230	101300000	1000	0	0	-1	1500
22181355	0	104	0	-100	0	230	101300000	1000	0	0	-1	1500
22193915	2	104	0	-100	0	230	101300000	1000	0	0	-1	1500
22206475	2	105	0	-100	0	230	101300000	1000	0	0	-1	1500
22219035	0	100	0	-100	0	230	101300000	1000	0	0	-1	1500
22231595	2	100	0	-100	0	230	101300000	1000	0	0	-1	1500
22244155	9	103	0	-100	0	230	101300000	1000	0	0	-1	1500
22256715	7	103	0	-100	0	230	101300000	1000	0	0	-1	1500
22269275	2	98	0	-100	0	230	101300000	1000	0	0	-1	1500
22281835	0	98	0	-100	0	230	101300000	1000	0	0	-1	1500
22294395	0	101	0	-100	0	230	101300000	1000	0	0	-1	1500
22306955	4	103	0	-100	0	230	101300000	1000	0	0	-1	1500
22319515	4	102	0	-100	0	230	101300000	1000	0	0	-1	1500
22332075	0	101	0	-100	0	230	101300000	1000	0	0	-1	1500
22344635	0	100	0	-100	0	230	101300000	1000	0	0	-1	1500
22357195	2	102	0	-100	0	230	101300000	1000	0	0	-1	1500
22369755	4	100	0	-100	0	230	101300000	1000	0	0	-1	1500
22382315	7	103	0	-100	0	230	101300000	1000	0	0	-1	1500
22394875	0	101	0	-100	0	230	101300000	1000	0	0	-1	1500
22407435	0	104	0	-100	0	230	101300000	1000	0	0	-1	1500
22419995	2	101	0	-100	0	230	101300000	1000	0	0	-1	1500
22432555	4	101	0	-100	0	230	101300000	1000	0	0	-1	1500
22445115	2	101	0	-100	0	230	101300000	1000	0	0	-1	1500
22457675	0	101	0	-100	0	230	101300000	1000	0	0	-1	1500
22470235	0	100	0	-100	0	230	101300000	1000	0	0	-1	1500
22482795	4	104	0	-100	0	230	101300000	1000	0	0	-1	1500
22495355	7	98	0	-100	0	230	101300000	1000	0	0	-1	1500
22507915	0	101	0	-100	0	230	101300000	1000	0	0	-1	1500
22520475	0	101	0	-100	0	230	101300000	1000	0	0	-1	1500
22533035	0	96	0	-100	0	230	101300000	1000	0	0	-1	1500
22545595	7	98	0	-100	0	230	101300000	1000	0	0	-1	1500
22558155	2	103	0	-100	0	230	101300000	1000	0	0	-1	1500
22570715	0	103	0	-100	0	230	101300000	1000	0	0	-1	1500
22583275	7	101	0	-100	0	230	101300000	1000	0	0	-1	1500
22595835	4	104	0	-100	0	230	101300000	1000	0	0	-1	1500
22608395	2	100	0	-100	0	230	101300000	1000	0	0	-1	1500
22620955	2	105	0	-100	0	230	101300000	1000	0	0	-1	1500
22633515	2	103	0	-100	0	230	101300000	1000	0	0	-1	1500
22646075	4	101	0	-100	0	230	101300000	1000	0	0	-1	1500
22658635	7	103	0	-100	0	230	101300000	1000	0	0	-1	1500
22671195	0	101	0	-100	0	230	101300000	1000	0	0	-1	1500
22683755	0	101	0	-100	0	230	101300000	1000	0	0	-1	1500
22696315	0	100	0	-100	0	230	101300000	1000	0	0	-1	1500
22708875	4	100	0	-100	0	230	101300000	1000	0	0	-1	1500
22721435	9	100	0	-100	0	230	101300000	1000	0	0	-1	1500
22733995	0	100	0	-100	0	230	101300000	1000	0	0	-1	1500
22746555	0	98	0	-100	0	230	101300000	1000	0	0	-1	1500
22759115	4	104	0	-100	0	230	101300000	1000	0	0	-1	1500
22771675	9	98	0	-100	0	230	101300000	1000	0	0	-1	1500
22784235	0	104	0	-100	0	230	101300000	1000	0	0	-1	1500
22796795	0	100	0	-100	0	230	101300000	1000	0	0	-1	1500
22809355	4	103	0	-100	0	230	101300000	1000	0	0	-1	1500
22821915	9	101	0	-100	0	230	101300000	1000	0	0	-1	1500
22834475	0	102	0	-100	0	230	101300000	1000	0	0	-1	1500
22847035	0	100	0	-100	0	230	101300000	1000	0	0	-1	1500
22859595	4	103	0	-100	0	230	101300000	1000	0	0	-1	1500
22872155	7	100	0	-100	0	230	101300000	1000	0	0	-1	1500
22884715	0	101	0	-100	0	230	101300000	1000	0	0	-1	1500
22897275	2	105	0	-100	0	230	101300000	1000	0	0	-1	1500
22909835	7	101	0	-100	0	230	101300000	1000	0	0	-1	1500
22922395	0	101	0	-100	0	230	101300000	1000	0	0	-1	1500
22934955	2	104	0	-100	0	230	101300000	1000	0	0	-1	1500
22947515	4	104	0	-100	0	230	101300000	1000	0	0	-1	1500
22960075	7	101	0	-100	0	230	101300000	1000	0	0	-1	1500
22972635	0	103	0	-100	0	230	101300000	1000	0	0	-1	1500
22985195	2	104	0	-100	0	230	101300000	1000	0	0	-1	1500
22997755	4	102	0	-100	0	230	101300000	1000	0	0	-1	1500
23010315	0	104	0	-100	0	230	101300000	1000	0	0	-1	1500
23022875	2	101	0	-100	0	230	101300000	1000	0	0	-1	1500
23035435	4	102	0	-100	0	230	101300000	1000	0	0	-1	1500
23047995	7	103	0	-100	0	230	101300000	1000	0	0	-1	1500
23060555	0	104	0	-100	0	230	101300000	1000	0	0	-1	1500
23073115	0	103	0	-100	0	230	101300000	1000	0	0	-1	1500
23085675	4	100	0	-100	0	230	101300000	1000	0	0	-1	1500
23098235	0	103	0	-100	0	230	101300000	1000	0	0	-1	1500
23110795	2	102	0	-100	0	230	101300000	1000	0	0	-1	1500
23123355	4	100	0	-100	0	230	101300000	1000	0	0	-1	1500
23135915	9	100	0	-100	0	230	101300000	1000	0	0	-1	1500
23148475	0	98	0	-100	0	230	101300000	1000	0	0	-1	1500
23161035	2	102	0	-100	0	230	101300000	1000	0	0	-1	1500
23173595	4	101	0	-100	0	230	101300000	1000	0	0	-1	1500
23186155	4	101	0	-100	0	230	101300000	1000	0	0	-1	1500
23198715	2	105	0	-100	0	230	101300000	1000	0	0	-1	1500
23211275	7	104	0	-100	0	230	101300000	1000	0	0	-1	1500
23223835	0	106	0	-100	0	230	101300000	1000	0	0	-1	1500
23236395	2	101	0	-100	0	230	101300000	1000	0	0	-1	1500
23248955	2	105	0	-100	0	230	101300000	1000	0	0	-1	1500
23261515	7	100	0	-100	0	230	101300000	1000	0	0	-1	1500
23274075	0	103	0	-100	0	230	101300000	1000	0	0	-1	1500
23286635	0	101	0	-100	0	230	101300000	1000	0	0	-1	1500
23299195	7	100	0	-100	0	230	101300000	1000	0	0	-1	1500
23311755	2	96	0	-100	0	230	101300000	1000	0	0	-1	1500
23324315	0	99	0	-100	0	230	101300000	1000	0	0	-1	1500
23336875	0	99	0	-100	0	230	101300000	1000	0	0	-1	1500
23349435	4	97	0	-100	0	230	101300000	1000	0	0	-1	1500
23361995	0	101	0	-100	0	230	101300000	1000	0	0	-1	1500
23374555	0	100	0	-100	0	230	101300000	1000	0	0	-1	1500
23387115	7	100	0	-100	0	230	101300000	1000	0	0	-1	1500
23399675	7	105	0	-100	0	230	101300000	1000	0	0	-1	1500
23412235	0	101	0	-100	0	230	101300000	1000	0	0	-1	1500
23424795	0	104	0	-100	0	230	101300000	1000	0	0	-1	1500
23437355	4	103	0	-100	0	230	101300000	1000	0	0	-1	1500
23449915	7	102	0	-100	0	230	101300000	1000	0	0	-1	1500
23462475	0	102	0	-100	0	230	101300000	1000	0	0	-1	1500
23475035	0	100	0	-100	0	230	101300000	1000	0	0	-1	1500
23487595	0	97	0	-100	0	230	101300000	1000	0	0	-1	1500
23500155	12	104	0	-100	0	230	101300000	1000	0	0	-1	1500
23512715	0	107	0	-100	0	230	101300000	1000	0	0	-1	1500
23525275	0	97	0	-100	0	230	101300000	1000	0	0	-1	1500
23537835	7	98	0	-100	0	230	101300000	1000	0	0	-1	1500
23550395	7	103	0	-100	0	230	101300000	1000	0	0	-1	1500
23562955	0	105	0	-100	0	230	101300000	1000	0	0	-1	1500
23575515	2	105	0	-100	0	230	101300000	1000	0	0	-1	1500
23588075	4	101	0	-100	0	230	101300000	1000	0	0	-1	1500
23600635	7	99	0	-100	0	230	101300000	1000	0	0	-1	1500
23613195	4	102	0	-100	0	230	101300000	1000	0	0	-1	1500
23625755	2	100	0	-100	0	230	101300000	1000	0	0	-1	1500
23638315	0	101	0	-100	0	230	101300000	1000	0	0	-1	1500
23650875	2	103	0	-100	0	230	101300000	1000	0	0	-1	1500
23663435	0	101	0	-100	0	230	101300000	1000	0	0	-1	1500
23675995	4	97	0	-100	0	230	101300000	1000	0	0	-1	1500
23688555	7	101	0	-100	0	230	101300000	1000	0	0	-1	1500
23701115	2	103	0	-100	0	230	101300000	1000	0	0	-1	1500
23713675	0	103	0	-100	0	230	101300000	1000	0	0	-1	1500
23726235	0	102	0	-100	0	230	101300000	1000	0	0	-1	1500
23738795	2	104	0	-100	0	230	101300000	1000	0	0	-1	1500
23751355	0	98	0	-100	0	230	101300000	1000	0	0	-1	1500
23763915	4	105	0	-100	0	230	101300000	1000	0	0	-1	1500
23776475	7	99	0	-100	0	230	101300000	1000	0	0	-1	1500
23789035	2	96	0	-100	0	230	101300000	1000	0	0	-1	1500
23801595	0	100	0	-100	0	230	101300000	1000	0	0	-1	1500
23814155	7	103	0	-100	0	230	101300000	1000	0	0	-1	1500
23826715	7	100	0	-100	0	230	101300000	1000	0	0	-1	1500
23839275	4	100	0	-100	0	230	101300000	1000	0	0	-1	1500
23851835	2	97	0	-100	0	230	101300000	1000	0	0	-1	1500
23864395	0	101	0	-100	0	230	101300000	1000	0	0	-1	1500
23876955	0	100	0	-100	0	230	101300000	1000	0	0	-1	1500
23889515	4	105	0	-100	0	230	101300000	1000	0	0	-1	1500
23902075	7	100	0	-100	0	230	101300000	1000	0	0	-1	1500
23914635	0	101	0	-100	0	230	101300000	1000	0	0	-1	1500
23927195	4	104	0	-100	0	230	101300000	1000	0	0	-1	1500
23939755	4	100	0	-100	0	230	101300000	1000	0	0	-1	1500
23952315	7	97	0	-100	0	230	101300000	1000	0	0	-1	1500
23964875	0	100	0	-100	0	230	101300000	1000	0	0	-1	1500
23977435	0	98	0	-100	0	230	101300000	1000	0	0	-1	1500
23989995	0	103	0	-100	0	230	101300000	1000	0	0	-1	1500
24002555	2	101	0	-100	0	230	101300000	1000	0	0	-1	1500
24015115	4	100	0	-100	0	230	101300000	1000	0	0	-1	1500
24027675	7	100	0	-100	0	230	101300000	1000	0	0	-1	1500
24040235	7	100	0	-100	0	230	101300000	1000	0	0	-1	1500
24052795	0	101	0	-100	0	230	101300000	1000	0	0	-1	1500
24065355	0	100	0	-100	0	230	101300000	1000	0	0	-1	1500
24077915	0	97	0	-100	0	230	101300000	1000	0	0	-1	1500
24090475	7	100	0	-100	0	230	101300000	1000	0	0	-1	1500
24103035	0	104	0	-100	0	230	101300000	1000	0	0	-1	1500
24115595	0	103	0	-100	0	230	101300000	1000	0	0	-1	1500
24128155	4	101	0	-100	0	230	101300000	1000	0	0	-1	1500
24140715	0	106	0	-100	0	230	101300000	1000	0	0	-1	1500
24153275	0	98	0	-100	0	230	101300000	1000	0	0	-1	1500
24165835	2	103	0	-100	0	230	101300000	1000	0	0	-1	1500
24178395	2	105	0	-100	0	230	101300000	1000	0	0	-1	1500
24190955	2	104	0	-100	0	230	101300000	1000	0	0	-1	1500
24203515	2	105	0	-100	0	230	101300000	1000	0	0	-1	1500
24216075	2	102	0	-100	0	230	101300000	1000	0	0	-1	1500
24228635	0	99	0	-100	0	230	101300000	1000	0	0	-1	1500
24241195	2	105	0	-100	0	230	101300000	1000	0	0	-1	1500
24253755	0	100	0	-100	0	230	101300000	1000	0	0	-1	1500
24266315	0	99	0	-100	0	230	101300000	1000	0	0	-1	1500
24278875	0	100	0	-100	0	230	101300000	1000	0	0	-1	1500
24291435	0	102	0	-100	0	230	101300000	1000	0	0	-1	1500
24303995	0	97	0	-100	0	230	101300000	1000	0	0	-1	1500
24316555	0	101	0	-100	0	230	101300000	1000	0	0	-1	1500
24329115	0	104	0	-100	0	230	101300000	1000	0	0	-1	1500
24341675	0	103	0	-100	0	230	101300000	1000	0	0	-1	1500
24354235	0	100	0	-100	0	230	101300000	1000	0	0	-1	1500
24366795	0	102	0	-100	0	230	101300000	1000	0	0	-1	1500
24379355	0	107	0	-100	0	230	101300000	1000	0	0	-1	1500
24391915	0	105	0	-100	0	230	101300000	1000	0	0	-1	1500
24404475	2	96	0	-100	0	230	101300000	1000	0	0	-1	1500
24417035	0	102	0	-100	0	230	101300000	1000	0	0	-1	1500
24429595	0	105	0	-100	0	230	101300000	1000	0	0	-1	1500
24442155	4	104	0	-100	0	230	101300000	1000	0	0	-1	1500
24454715	4	105	0	-100	0	230	101300000	1000	0	0	-1	1500
24467275	0	99	0	-100	0	230	101300000	1000	0	0	-1	1500
24479835	0	105	0	-100	0	230	101300000	1000	0	0	-1	1500
24492395	0	101	0	-100	0	230	101300000	1000	0	0	-1	1500
24504955	0	103	0	-100	0	230	101300000	1000	0	0	-1	1500
24517515	2	103	0	-100	0	230	101300000	1000	0	0	-1	1500
24530075	2	105	0	-100	0	230	101300000	1000	0	0	-1	1500
24542635	2	105	0	-100	0	230	101300000	1000	0	0	-1	1500
24555195	4	104	0	-100	0	230	101300000	1000	0	0	-1	1500
24567755	0	98	0	-100	0	230	101300000	1000	0	0	-1	1500
24580315	0	102	0	-100	0	230	101300000	1000	0	0	-1	1500
24592875	0	102	0	-100	0	230	101300000	1000	0	0	-1	1500
24605435	0	103	0	-100	0	230	101300000	1000	0	0	-1	1500
24617995	0	100	0	-100	0	230	101300000	1000	0	0	-1	1500
24630555	0	103	0	-100	0	230	101300000	1000	0	0	-1	1500
24643115	4	102	0	-100	0	230	101300000	1000	0	0	-1	1500
24655675	2	100	0	-100	0	230	101300000	1000	0	0	-1	1500
24668235	0	102	0	-100	0	230	101300000	1000	0	0	-1	1500
24680795	0	103	0	-100	0	230	101300000	1000	0	0	-1	1500
24693355	0	103	0	-100	0	230	101300000	1000	0	0	-1	1500
24705915	0	101	0	-100	0	230	101300000	1000	0	0	-1	1500
24718475	2	105	0	-100	0	230	101300000	1000	0	0	-1	1500
24731035	0	98	0	-100	0	230	101300000	1000	0	0	-1	1500
24743595	7	103	0	-100	0	230	101300000	1000	0	0	-1	1500
24756155	12	102	0	-100	0	230	101300000	1000	0	0	-1	1500
24768715	0	105	0	-100	0	230	101300000	1000	0	0	-1	1500
24781275	2	101	0	-100	0	230	101300000	1000	0	0	-1	1500
24793835	2	104	0	-100	0	230	101300000	1000	0	0	-1	1500
24806395	2	104	0	-100	0	230	101300000	1000	0	0	-1	1500
24818955	0	101	0	-100	0	230	101300000	1000	0	0	-1	1500
24831515	4	101	0	-100	0	230	101300000	1000	0	0	-1	1500
24844075	7	100	0	-100	0	230	101300000	1000	0	0	-1	1500
24856635	0	102	0	-100	0	230	101300000	1000	0	0	-1	1500
24869195	2	105	0	-100	0	230	101300000	1000	0	0	-1	1500
24881755	2	101	0	-100	0	230	101300000	1000	0	0	-1	1500
24894315	7	103	0	-100	0	230	101300000	1000	0	0	-1	1500
24906875	7	101	0	-100	0	230	101300000	1000	0	0	-1	1500
24919435	0	104	0	-100	0	230	101300000	1000	0	0	-1	1500
24931995	0	98	0	-100	0	230	101300000	1000	0	0	-1	1500
24944555	2	104	0	-100	0	230	101300000	1000	0	0	-1	1500
24957115	0	98	0	-100	0	230	101300000	1000	0	0	-1	1500
24969675	4	102	0	-100	0	230	101300000	1000	0	0	-1	1500
24982235	7	99	0	-100	0	230	101300000	1000	0	0	-1	1500
24994795	0	99	0	-100	0	230	101300000	1000	0	0	-1	1500
25007355	0	98	0	-100	0	230	101300000	1000	0	0	-1	1500
25019915	0	101	0	-100	0	230	101300000	1000	0	0	-1	1500
25032475	4	103	0	-100	0	230	101300000	1000	0	0	-1	1500
25045035	7	97	0	-100	0	230	101300000	1000	0	0	-1	1500
25057595	0	104	0	-100	0	230	101300000	1000	0	0	-1	1500
25070155	4	102	0	-100	0	230	101300000	1000	0	0	-1	1500
25082715	0	101	0	-100	0	230	101300000	1000	0	0	-1	1500
25095275	4	102	0	-100	0	230	101300000	1000	0	0	-1	1500
25107835	4	100	0	-100	0	230	101300000	1000	0	0	-1	1500
25120395	7	101	0	-100	0	230	101300000	1000	0	0	-1	1500
25132955	0	104	0	-100	0	230	101300000	1000	0	0	-1	1500
25145515	0	104	0	-100	0	230	101300000	1000	0	0	-1	1500
25158075	9	99	0	-100	0	230	101300000	1000	0	0	-1	1500
25170635	0	101	0	-100	0	230	101300000	1000	0	0	-1	1500
25183195	0	102	0	-100	0	230	101300000	1000	0	0	-1	1500
25195755	4	102	0	-100	0	230	101300000	1000	0	0	-1	1500
25208315	2	100	0	-100	0	230	101300000	1000	0	0	-1	1500
25220875	0	101	0	-100	0	230	101300000	1000	0	0	-1	1500
25233435	4	102	0	-100	0	230	101300000	1000	0	0	-1	1500
25245995	7	105	0	-100	0	230	101300000	1000	0	0	-1	1500
25258555	0	98	0	-100	0	230	101300000	1000	0	0	-1	1500
25271115	2	102	0	-100	0	230	101300000	1000	0	0	-1	1500
25283675	4	99	0	-100	0	230	101300000	1000	0	0	-1	1500
25296235	0	104	0	-100	0	230	101300000	1000	0	0	-1	1500
25308795	0	98	0	-100	0	230	101300000	1000	0	0	-1	1500
25321355	0	100	0	-100	0	230	101300000	1000	0	0	-1	1500
25333915	4	101	0	-100	0	230	101300000	1000	0	0	-1	1500
25346475	7	100	0	-100	0	230	101300000	1000	0	0	-1	1500
25359035	0	103	0	-100	0	230	101300000	1000	0	0	-1	1500
25371595	0	99	0	-100	0	230	101300000	1000	0	0	-1	1500
25384155	7	102	0	-100	0	230	101300000	1000	0	0	-1	1500
25396715	7	102	0	-100	0	230	101300000	1000	0	0	-1	1500
25409275	2	97	0	-100	0	230	101300000	1000	0	0	-1	1500
25421835	0	99	0	-100	0	230	101300000	1000	0	0	-1	1500
25434395	2	101	0	-100	0	230	101300000	1000	0	0	-1	1500
25446955	7	98	0	-100	0	230	101300000	1000	0	0	-1	1500
25459515	0	101	0	-100	0	230	101300000	1000	0	0	-1	1500
25472075	2	105	0	-100	0	230	101300000	1000	0	0	-1	1500
25484635	7	100	0	-100	0	230	101300000	1000	0	0	-1	1500
25497195	7	104	0	-100	0	230	101300000	1000	0	0	-1	1500
25509755	0	101	0	-100	0	230	101300000	1000	0	0	-1	1500
25522315	4	105	0	-100	0	230	101300000	1000	0	0	-1	1500
25534875	4	100	0	-100	0	230	101300000	1000	0	0	-1	1500
25547435	9	100	0	-100	0	230	101300000	1000	0	0	-1	1500
25559995	4	102	0	-100	0	230	101300000	1000	0	0	-1	1500
25572555	2	101	0	-100	0	230	101300000	1000	0	0	-1	1500
25585115	0	103	0	-100	0	230	101300000	1000	0	0	-1	1500
25597675	0	100	0	-100	0	230	101300000	1000	0	0	-1	1500
25610235	2	102	0	-100	0	230	101300000	1000	0	0	-1	1500
25622795	4	100	0	-100	0	230	101300000	1000	0	0	-1	1500
25635355	7	100	0	-100	0	230	101300000	1000	0	0	-1	1500
25647915	0	101	0	-100	0	230	101300000	1000	0	0	-1	1500
25660475	2	105	0	-100	0	230	101300000	1000	0	0	-1	1500
25673035	0	99	0	-100	0	230	101300000	1000	0	0	-1	1500
25685595	4	100	0	-100	0	230	101300000	1000	0	0	-1	1500
25698155	12	100	0	-100	0	230	101300000	1000	0	0	-1	1500
25710715	0	100	0	-100	0	230	101300000	1000	0	0	-1	1500
25723275	0	99	0	-100	0	230	101300000	1000	0	0	-1	1500
25735835	4	104	0	-100	0	230	101300000	1000	0	0	-1	1500
25748395	0	102	0	-100	0	230	101300000	1000	0	0	-1	1500
25760955	0	99	0	-100	0	230	101300000	1000	0	0	-1	1500
25773515	4	101	0	-100	0	230	101300000	1000	0	0	-1	1500
25786075	7	102	0	-100	0	230	101300000	1000	0	0	-1	1500
25798635	0	104	0	-100	0	230	101300000	1000	0	0	-1	1500
25811195	0	100	0	-100	0	230	101300000	1000	0	0	-1	1500
25823755	2	103	0	-100	0	230	101300000	1000	0	0	-1	1500
25836315	7	100	0	-100	0	230	101300000	1000	0	0	-1	1500
25848875	0	102	0	-100	0	230	101300000	1000	0	0	-1	1500
25861435	0	100	0	-100	0	230	101300000	1000	0	0	-1	1500
25873995	4	100	0	-100	0	230	101300000	1000	0	0	-1	1500
25886555	2	100	0	-100	0	230	101300000	1000	0	0	-1	1500
25899115	2	102	0	-100	0	230	101300000	1000	0	0	-1	1500
25911675	4	103	0	-100	0	230	101300000	1000	0	0	-1	1500
25924235	0	103	0	-100	0	230	101300000	1000	0	0	-1	1500
25936795	0	100	0	-100	0	230	101300000	1000	0	0	-1	1500
25949355	7	104	0	-100	0	230	101300000	1000	0	0	-1	1500
25961915	0	101	0	-100	0	230	101300000	1000	0	0	-1	1500
25974475	0	102	0	-100	0	230	101300000	1000	0	0	-1	1500
25987035	7	102	0	-100	0	230	101300000	1000	0	0	-1	1500
25999595	2	101	0	-100	0	230	101300000	1000	0	0	-1	1500
26012155	4	104	0	-100	0	230	101300000	1000	0	0	-1	1500
26024715	7	104	0	-100	0	230	101300000	1000	0	0	-1	1500
26037275	2	97	0	-100	0	230	101300000	1000	0	0	-1	1500
26049835	0	102	0	-100	0	230	101300000	1000	0	0	-1	1500
26062395	2	103	0	-100	0	230	101300000	1000	0	0	-1	1500
26074955	7	103	0	-100	0	230	101300000	1000	0	0	-1	1500
26087515	9	98	0	-100	0	230	101300000	1000	0	0	-1	1500
26100075	2	101	0	-100	0	230	101300000	1000	0	0	-1	1500
26112635	0	102	0	-100	0	230	101300000	1000	0	0	-1	1500
26125195	0	99	0	-100	0	230	101300000	1000	0	0	-1	1500
26137755	2	104	0	-100	0	230	101300000	1000	0	0	-1	1500
26150315	0	101	0	-100	0	230	101300000	1000	0	0	-1	1500
26162875	2	102	0	-100	0	230	101300000	1000	0	0	-1	1500
26175435	2	101	0	-100	0	230	101300000	1000	0	0	-1	1500
26187995	4	100	0	-100	0	230	101300000	1000	0	0	-1	1500
26200555	4	99	0	-100	0	230	101300000	1000	0	0	-1	1500
26213115	7	100	0	-100	0	230	101300000	1000	0	0	-1	1500
26225675	7	100	0	-100	0	230	101300000	1000	0	0	-1	1500
26238235	7	102	0	-100	0	230	101300000	1000	0	0	-1	1500
26250795	4	103	0	-100	0	230	101300000	1000	0	0	-1	1500
26263355	7	102	0	-100	0	230	101300000	1000	0	0	-1	1500
26275915	4	100	0	-100	0	230	101300000	1000	0	0	-1	1500
26288475	4	99	0	-100	0	230	101300000	1000	0	0	-1	1500
26301035	9	100	0	-100	0	230	101300000	1000	0	0	-1	1500
26313595	0	105	0	-100	0	230	101300000	1000	0	0	-1	1500
26326155	4	104	0	-100	0	230	101300000	1000	0	0	-1	1500
26338715	0	103	0	-100	0	230	101300000	1000	0	0	-1	1500
26351275	2	105	0	-100	0	230	101300000	1000	0	0	-1	1500
26363835	0	100	0	-100	0	230	101300000	1000	0	0	-1	1500
26376395	7	100	0	-100	0	230	101300000	1000	0	0	-1	1500
26388955	4	98	0	-100	0	230	101300000	1000	0	0	-1	1500
26401515	7	101	0	-100	0	230	101300000	1000	0	0	-1	1500
26414075	0	101	0	-100	0	230	101300000	1000	0	0	-1	1500
26426635	0	99	0	-100	0	230	101300000	1000	0	0	-1	1500
26439195	0	100	0	-100	0	230	101300000	1000	0	0	-1	1500
26451755	7	101	0	-100	0	230	101300000	1000	0	0	-1	1500
26464315	4	97	0	-100	0	230	101300000	1000	0	0	-1	1500
26476875	0	103	0	-100	0	230	101300000	1000	0	0	-1	1500
26489435	0	100	0	-100	0	230	101300000	1000	0	0	-1	1500
26501995	0	104	0	-100	0	230	101300000	1000	0	0	-1	1500
26514555	2	105	0	-100	0	230	101300000	1000	0	0	-1	1500
26527115	7	101	0	-100	0	230	101300000	1000	0	0	-1	1500
26539675	7	102	0	-100	0	230	101300000	1000	0	0	-1	1500
26552235	0	105	0	-100	0	230	101300000	1000	0	0	-1	1500
26564795	0	100	0	-100	0	230	101300000	1000	0	0	-1	1500
26577355	0	102	0	-100	0	230	101300000	1000	0	0	-1	1500
26589915	0	102	0	-100	0	230	101300000	1000	0	0	-1	1500
26602475	2	104	0	-100	0	230	101300000	1000	0	0	-1	1500
26615035	0	102	0	-100	0	230	101300000	1000	0	0	-1	1500
26627595	0	97	0	-100	0	230	101300000	1000	0	0	-1	1500
26640155	9	104	0	-100	0	230	101300000	1000	0	0	-1	1500
26652715	4	100	0	-100	0	230	101300000	1000	0	0	-1	1500
26665275	2	100	0	-100	0	230	101300000	1000	0	0	-1	1500
26677835	0	102	0	-100	0	230	101300000	1000	0	0	-1	1500
26690395	2	103	0	-100	0	230	101300000	1000	0	0	-1	1500
26702955	2	105	0	-100	0	230	101300000	1000	0	0	-1	1500
26715515	0	101	0	-100	0	230	101300000	1000	0	0	-1	1500
26728075	0	101	0	-100	0	230	101300000	1000	0	0	-1	1500
26740635	2	101	0	-100	0	230	101300000	1000	0	0	-1	1500
26753195	12	101	0	-100	0	230	101300000	1000	0	0	-1	1500
26765755	0	105	0	-100	0	230	101300000	1000	0	0	-1	1500
26778315	0	101	0	-100	0	230	101300000	1000	0	0	-1	1500
26790875	0	101	0	-100	0	230	101300000	1000	0	0	-1	1500
26803435	4	101	0	-100	0	230	101300000	1000	0	0	-1	1500
26815995	0	97	0	-100	0	230	101300000	1000	0	0	-1	1500
26828555	0	100	0	-100	0	230	101300000	1000	0	0	-1	1500
26841115	2	103	0	-100	0	230	101300000	1000	0	0	-1	1500
26853675	4	101	0	-100	0	230	101300000	1000	0	0	-1	1500
26866235	7	101	0	-100	0	230	101300000	1000	0	0	-1	1500
26878795	0	105	0	-100	0	230	101300000	1000	0	0	-1	1500
26891355	2	103	0	-100	0	230	101300000	1000	0	0	-1	1500
26903915	0	101	0	-100	0	230	101300000	1000	0	0	-1	1500
26916475	4	102	0	-100	0	230	101300000	1000	0	0	-1	1500
26929035	4	101	0	-100	0	230	101300000	1000	0	0	-1	1500
26941595	7	98	0	-100	0	230	101300000	1000	0	0	-1	1500
26954155	9	102	0	-100	0	230	101300000	1000	0	0	-1	1500
26966715	0	105	0	-100	0	230	101300000	1000	0	0	-1	1500
26979275	2	99	0	-100	0	230	101300000	1000	0	0	-1	1500
26991835	0	101	0	-100	0	230	101300000	1000	0	0	-1	1500
27004395	0	100	0	-100	0	230	101300000	1000	0	0	-1	1500
27016955	0	101	0	-100	0	230	101300000	1000	0	0	-1	1500
27029515	2	104	0	-100	0	230	101300000	1000	0	0	-1	1500
27042075	0	99	0	-100	0	230	101300000	1000	0	0	-1	1500
27054635	0	100	0	-100	0	230	101300000	1000	0	0	-1	1500
27067195	4	101	0	-100	0	230	101300000	1000	0	0	-1	1500
27079755	7	99	0	-100	0	230	101300000	1000	0	0	-1	1500
27092315	4	101	0	-100	0	230	101300000	1000	0	0	-1	1500
27104875	0	101	0	-100	0	230	101300000	1000	0	0	-1	1500
27117435	0	100	0	-100	0	230	101300000	1000	0	0	-1	1500
27129995	2	100	0	-100	0	230	101300000	1000	0	0	-1	1500
27142555	2	105	0	-100	0	230	101300000	1000	0	0	-1	1500
27155115	7	101	0	-100	0	230	101300000	1000	0	0	-1	1500
27167675	4	100	0	-100	0	230	101300000	1000	0	0	-1	1500
27180235	0	103	0	-100	0	230	101300000	1000	0	0	-1	1500
27192795	4	102	0	-100	0	230	101300000	1000	0	0	-1	1500
27205355	0	101	0	-100	0	230	101300000	1000	0	0	-1	1500
27217915	0	100	0	-100	0	230	101300000	1000	0	0	-1	1500
27230475	2	103	0	-100	0	230	101300000	1000	0	0	-1	1500
27243035	4	102	0	-100	0	230	101300000	1000	0	0	-1	1500
27255595	7	99	0	-100	0	230	101300000	1000	0	0	-1	1500
27268155	14	101	0	-100	0	230	101300000	1000	0	0	-1	1500
27280715	7	101	0	-100	0	230	101300000	1000	0	0	-1	1500
27293275	4	101	0	-100	0	230	101300000	1000	0	0	-1	1500
27305835	2	98	0	-100	0	230	101300000	1000	0	0	-1	1500
27318395	0	102	0	-100	0	230	101300000	1000	0	0	-1	1500
27330955	0	102	0	-100	0	230	101300000	1000	0	0	-1	1500
27343515	0	102	0	-100	0	230	101300000	1000	0	0	-1	1500
27356075	4	101	0	-100	0	230	101300000	1000	0	0	-1	1500
27368635	2	97	0	-100	0	230	101300000	1000	0	0	-1	1500
27381195	2	105	0	-100	0	230	101300000	1000	0	0	-1	1500
27393755	7	101	0	-100	0	230	101300000	1000	0	0	-1	1500
27406315	2	96	0	-100	0	230	101300000	1000	0	0	-1	1500
27418875	0	97	0	-100	0	230	101300000	1000	0	0	-1	1500
27431435	4	103	0	-100	0	230	101300000	1000	0	0	-1	1500
27443995	7	106	0	-100	0	230	101300000	1000	0	0	-1	1500
27456555	0	102	0	-100	0	230	101300000	1000	0	0	-1	1500
27469115	2	103	0	-100	0	230	101300000	1000	0	0	-1	1500
27481675	7	97	0	-100	0	230	101300000	1000	0	0	-1	1500
27494235	0	104	0	-100	0	230	101300000	1000	0	0	-1	1500
27506795	0	96	0	-100	0	230	101300000	1000	0	0	-1	1500
27519355	7	101	0	-100	0	230	101300000	1000	0	0	-1	1500
27531915	0	104	0	-100	0	230	101300000	1000	0	0	-1	1500
27544475	0	100	0	-100	0	230	101300000	1000	0	0	-1	1500
27557035	7	98	0	-100	0	230	101300000	1000	0	0	-1	1500
27569595	0	101	0	-100	0	230	101300000	1000	0	0	-1	1500
27582155	7	100	0	-100	0	230	101300000	1000	0	0	-1	1500
27594715	4	102	0	-100	0	230	101300000	1000	0	0	-1	1500
27607275	0	100	0	-100	0	230	101300000	1000	0	0	-1	1500
27619835	0	99	0	-100	0	230	101300000	1000	0	0	-1	1500
27632395	9	99	0	-100	0	230	101300000	1000	0	0	-1	1500
27644955	0	101	0	-100	0	230	101300000	1000	0	0	-1	1500
27657515	4	103	0	-100	0	230	101300000	1000	0	0	-1	1500
27670075	7	99	0	-100	0	230	101300000	1000	0	0	-1	1500
27682635	0	102	0	-100	0	230	101300000	1000	0	0	-1	1500
27695195	0	97	0	-100	0	230	101300000	1000	0	0	-1	1500
27707755	7	98	0	-100	0	230	101300000	1000	0	0	-1	1500
27720315	0	102	0	-100	0	230	101300000	1000	0	0	-1	1500
27732875	2	104	0	-100	0	230	101300000	1000	0	0	-1	1500
27745435	7	102	0	-100	0	230	101300000	1000	0	0	-1	1500
27757995	2	102	0	-100	0	230	101300000	1000	0	0	-1	1500
27770555	0	101	0	-100	0	230	101300000	1000	0	0	-1	1500
27783115	0	101	0	-100	0	230	101300000	1000	0	0	-1	1500
27795675	7	101	0	-100	0	230	101300000	1000	0	0	-1	1500
27808235	2	95	0	-100	0	230	101300000	1000	0	0	-1	1500
27820795	0	102	0	-100	0	230	101300000	1000	0	0	-1	1500
27833355	4	101	0	-100	0	230	101300000	1000	0	0	-1	1500
27845915	4	101	0	-100	0	230	101300000	1000	0	0	-1	1500
27858475	0	98	0	-100	0	230	101300000	1000	0	0	-1	1500
27871035	7	98	0	-100	0	230	101300000	1000	0	0	-1	1500
27883595	9	101	0	-100	0	230	101300000	1000	0	0	-1	1500
27896155	2	98	0	-100	0	230	101300000	1000	0	0	-1	1500
27908715	0	105	0	-100	0	230	101300000	1000	0	0	-1	1500
27921275	0	101	0	-100	0	230	101300000	1000	0	0	-1	1500
27933835	0	99	0	-100	0	230	101300000	1000	0	0	-1	1500
27946395	4	105	0	-100	0	230	101300000	1000	0	0	-1	1500
27958955	7	101	0	-100	0	230	101300000	1000	0	0	-1	1500
27971515	0	101	0	-100	0	230	101300000	1000	0	0	-1	1500
27984075	2	104	0	-100	0	230	101300000	1000	0	0	-1	1500
27996635	0	99	0	-100	0	230	101300000	1000	0	0	-1	1500
28009195	7	102	0	-100	0	230	101300000	1000	0	0	-1	1500
28021755	7	101	0	-100	0	230	101300000	1000	0	0	-1	1500
28034315	0	101	0	-100	0	230	101300000	1000	0	0	-1	1500
28046875	2	104	0	-100	0	230	101300000	1000	0	0	-1	1500
28059435	0	100	0	-100	0	230	101300000	1000	0	0	-1	1500
28071995	4	101	0	-100	0	230	101300000	1000	0	0	-1	1500
28084555	7	96	0	-100	0	230	101300000	1000	0	0	-1	1500
28097115	0	105	0	-100	0	230	101300000	1000	0	0	-1	1500
28109675	0	102	0	-100	0	230	101300000	1000	0	0	-1	1500
28122235	0	99	0	-100	0	230	101300000	1000	0	0	-1	1500
28134795	2	100	0	-100	0	230	101300000	1000	0	0	-1	1500
28147355	7	99	0	-100	0	230	101300000	1000	0	0	-1	1500
28159915	4	100	0	-100	0	230	101300000	1000	0	0	-1	1500
28172475	0	105	0	-100	0	230	101300000	1000	0	0	-1	1500
28185035	2	102	0	-100	0	230	101300000	1000	0	0	-1	1500
28197595	0	101	0	-100	0	230	101300000	1000	0	0	-1	1500
28210155	7	100	0	-100	0	230	101300000	1000	0	0	-1	1500
28222715	4	103	0	-100	0	230	101300000	1000	0	0	-1	1500
28235275	7	103	0	-100	0	230	101300000	1000	0	0	-1	1500
28247835	4	101	0	-100	0	230	101300000	1000	0	0	-1	1500
28260395	2	102	0	-100	0	230	101300000	1000	0	0	-1	1500
28272955	0	105	0	-100	0	230	101300000	1000	0	0	-1	1500
28285515	0	101	0	-100	0	230	101300000	1000	0	0	-1	1500
28298075	2	100	0	-100	0	230	101300000	1000	0	0	-1	1500
28310635	4	101	0	-100	0	230	101300000	1000	0	0	-1	1500
28323195	7	101	0	-100	0	230	101300000	1000	0	0	-1	1500
28335755	7	100	0	-100	0	230	101300000	1000	0	0	-1	1500
28348315	4	100	0	-100	0	230	101300000	1000	0	0	-1	1500
28360875	0	101	0	-100	0	230	101300000	1000	0	0	-1	1500
28373435	0	97	0	-100	0	230	101300000	1000	0	0	-1	1500
28385995	7	103	0	-100	0	230	101300000	1000	0	0	-1	1500
28398555	2	96	0	-100	0	230	101300000	1000	0	0	-1	1500
28411115	0	98	0	-100	0	230	101300000	1000	0	0	-1	1500
28423675	0	99	0	-100	0	230	101300000	1000	0	0	-1	1500
28436235	7	99	0	-100	0	230	101300000	1000	0	0	-1	1500
28448795	4	101	0	-100	0	230	101300000	1000	0	0	-1	1500
28461355	0	103	0	-100	0	230	101300000	1000	0	0	-1	1500
28473915	0	100	0	-100	0	230	101300000	1000	0	0	-1	1500
28486475	4	101	0	-100	0	230	101300000	1000	0	0	-1	1500
28499035	7	101	0	-100	0	230	101300000	1000	0	0	-1	1500
28511595	7	101	0	-100	0	230	101300000	1000	0	0	-1	1500
28524155	9	100	0	-100	0	230	101300000	1000	0	0	-1	1500
28536715	2	101	0	-100	0	230	101300000	1000	0	0	-1	1500
28549275	2	98	0	-100	0	230	101300000	1000	0	0	-1	1500
28561835	0	101	0	-100	0	230	101300000	1000	0	0	-1	1500
28574395	0	101	0	-100	0	230	101300000	1000	0	0	-1	1500
28586955	0	99	0	-100	0	230	101300000	1000	0	0	-1	1500
28599515	2	101	0	-100	0	230	101300000	1000	0	0	-1	1500
28612075	4	100	0	-100	0	230	101300000	1000	0	0	-1	1500
28624635	7	97	0	-100	0	230	101300000	1000	0	0	-1	1500
28637195	0	105	0	-100	0	230	101300000	1000	0	0	-1	1500
28649755	0	102	0	-100	0	230	101300000	1000	0	0	-1	1500
28662315	2	104	0	-100	0	230	101300000	1000	0	0	-1	1500
28674875	0	105	0	-100	0	230	101300000	1000	0	0	-1	1500
28687435	0	100	0	-100	0	230	101300000	1000	0	0	-1	1500
28699995	4	101	0	-100	0	230	101300000	1000	0	0	-1	1500
28712555	4	103	0	-100	0	230	101300000	1000	0	0	-1	1500
28725115	0	105	0	-100	0	230	101300000	1000	0	0	-1	1500
28737675	0	99	0	-100	0	230	101300000	1000	0	0	-1	1500
28750235	4	104	0	-100	0	230	101300000	1000	0	0	-1	1500
28762795	9	100	0	-100	0	230	101300000	1000	0	0	-1	1500
28775355	2	99	0	-100	0	230	101300000	1000	0	0	-1	1500
28787915	0	105	0	-100	0	230	101300000	1000	0	0	-1	1500
28800475	2	105	0	-100	0	230	101300000	1000	0	0	-1	1500
28813035	2	101	0	-100	0	230	101300000	1000	0	0	-1	1500
28825595	4	98	0	-100	0	230	101300000	1000	0	0	-1	1500
28838155	12	103	0	-100	0	230	101300000	1000	0	0	-1	1500
28850715	0	101	0	-100	0	230	101300000	1000	0	0	-1	1500
28863275	0	99	0	-100	0	230	101300000	1000	0	0	-1	1500
28875835	0	101	0	-100	0	230	101300000	1000	0	0	-1	1500
28888395	4	101	0	-100	0	230	101300000	1000	0	0	-1	1500
28900955	4	102	0	-100	0	230	101300000	1000	0	0	-1	1500
28913515	0	101	0	-100	0	230	101300000	1000	0	0	-1	1500
28926075	4	98	0	-100	0	230	101300000	1000	0	0	-1	1500
28938635	7	99	0	-100	0	230	101300000	1000	0	0	-1	1500
28951195	0	101	0	-100	0	230	101300000	1000	0	0	-1	1500
28963755	0	98	0	-100	0	230	101300000	1000	0	0	-1	1500
28976315	2	102	0	-100	0	230	101300000	1000	0	0	-1	1500
28988875	4	101	0	-100	0	230	101300000	1000	0	0	-1	1500
29001435	0	101	0	-100	0	230	101300000	1000	0	0	-1	1500
29013995	2	101	0	-100	0	230	101300000	1000	0	0	-1	1500
29026555	7	103	0	-100	0	230	101300000	1000	0	0	-1	1500
29039115	0	104	0	-100	0	230	101300000	1000	0	0	-1	1500
29051675	0	104	0	-100	0	230	101300000	1000	0	0	-1	1500
29064235	4	101	0	-100	0	230	101300000	1000	0	0	-1	1500
29076795	2	101	0	-100	0	230	101300000	1000	0	0	-1	1500
29089355	0	101	0	-100	0	230	101300000	1000	0	0	-1	1500
29101915	0	101	0	-100	0	230	101300000	1000	0	0	-1	1500
29114475	4	101	0	-100	0	230	101300000	1000	0	0	-1	1500
29127035	7	103	0	-100	0	230	101300000	1000	0	0	-1	1500
29139595	0	101	0	-100	0	230	101300000	1000	0	0	-1	1500
29152155	4	105	0	-100	0	230	101300000	1000	0	0	-1	1500
29164715	4	101	0	-100	0	230	101300000	1000	0	0	-1	1500
29177275	2	101	0	-100	0	230	101300000	1000	0	0	-1	1500
29189835	2	102	0	-100	0	230	101300000	1000	0	0	-1	1500
29202395	0	99	0	-100	0	230	101300000	1000	0	0	-1	1500
29214955	2	101	0	-100	0	230	101300000	1000	0	0	-1	1500
29227515	7	99	0	-100	0	230	101300000	1000	0	0	-1	1500
29240075	0	103	0	-100	0	230	101300000	1000	0	0	-1	1500
29252635	2	101	0	-100	0	230	101300000	1000	0	0	-1	1500
29265195	4	101	0	-100	0	230	101300000	1000	0	0	-1	1500
29277755	0	97	0	-100	0	230	101300000	1000	0	0	-1	1500
29290315	4	101	0	-100	0	230	101300000	1000	0	0	-1	1500
29302875	7	103	0	-100	0	230	101300000	1000	0	0	-1	1500
29315435	0	100	0	-100	0	230	101300000	1000	0	0	-1	1500
29327995	0	105	0	-100	0	230	101300000	1000	0	0	-1	1500
29340555	4	99	0	-100	0	230	101300000	1000	0	0	-1	1500
29353115	0	103	0	-100	0	230	101300000	1000	0	0	-1	1500
29365675	0	100	0	-100	0	230	101300000	1000	0	0	-1	1500
29378235	7	100	0	-100	0	230	101300000	1000	0	0	-1	1500
29390795	4	101	0	-100	0	230	101300000	1000	0	0	-1	1500
29403355	0	100	0	-100	0	230	101300000	1000	0	0	-1	1500
29415915	0	97	0	-100	0	230	101300000	1000	0	0	-1	1500
29428475	9	100	0	-100	0	230	101300000	1000	0	0	-1	1500
29441035	0	99	0	-100	0	230	101300000	1000	0	0	-1	1500
29453595	0	97	0	-100	0	230	101300000	1000	0	0	-1	1500
29466155	12	100	0	-100	0	230	101300000	1000	0	0	-1	1500
29478715	0	104	0	-100	0	230	101300000	1000	0	0	-1	1500
29491275	2	101	0	-100	0	230	101300000	1000	0	0	-1	1500
29503835	4	101	0	-100	0	230	101300000	1000	0	0	-1	1500
29516395	2	104	0	-100	0	230	101300000	1000	0	0	-1	1500
29528955	7	100	0	-100	0	230	101300000	1000	0	0	-1	1500
29541515	2	97	0	-100	0	230	101300000	1000	0	0	-1	1500
29554075	2	104	0	-100	0	230	101300000	1000	0	0	-1	1500
29566635	4	103	0	-100	0	230	101300000	1000	0	0	-1	1500
29579195	0	102	0	-100	0	230	101300000	1000	0	0	-1	1500
29591755	0	101	0	-100	0	230	101300000	1000	0	0	-1	1500
29604315	4	104	0	-100	0	230	101300000	1000	0	0	-1	1500
29616875	0	103	0	-100	0	230	101300000	1000	0	0	-1	1500
29629435	2	106	0	-100	0	230	101300000	1000	0	0	-1	1500
29641995	9	104	0	-100	0	230	101300000	1000	0	0	-1	1500
29654555	0	105	0	-100	0	230	101300000	1000	0	0	-1	1500
29667115	0	98	0	-100	0	230	101300000	1000	0	0	-1	1500
29679675	2	105	0	-100	0	230	101300000	1000	0	0	-1	1500
29692235	4	99	0	-100	0	230	101300000	1000	0	0	-1	1500
29704795	0	101	0	-100	0	230	101300000	1000	0	0	-1	1500
29717355	0	103	0	-100	0	230	101300000	1000	0	0	-1	1500
29729915	7	102	0	-100	0	230	101300000	1000	0	0	-1	1500
29742475	0	102	0	-100	0	230	101300000	1000	0	0	-1	1500
29755035	2	105	0	-100	0	230	101300000	1000	0	0	-1	1500
29767595	7	100	0	-100	0	230	101300000	1000	0	0	-1	1500
29780155	4	101	0	-100	0	230	101300000	1000	0	0	-1	1500
29792715	0	97	0	-100	0	230	101300000	1000	0	0	-1	1500
29805275	0	100	0	-100	0	230	101300000	1000	0	0	-1	1500
29817835	2	102	0	-100	0	230	101300000	1000	0	0	-1	1500
29830395	4	101	0	-100	0	230	101300000	1000	0	0	-1	1500
29842955	2	96	0	-100	0	230	101300000	1000	0	0	-1	1500
29855515	0	102	0	-100	0	230	101300000	1000	0	0	-1	1500
29868075	0	100	0	-100	0	230	101300000	1000	0	0	-1	1500
29880635	4	100	0	-100	0	230	101300000	1000	0	0	-1	1500
29893195	7	96	0	-100	0	230	101300000	1000	0	0	-1	1500
29905755	2	100	0	-100	0	230	101300000	1000	0	0	-1	1500
29918315	2	103	0	-100	0	230	101300000	1000	0	0	-1	1500
29930875	4	101	0	-100	0	230	101300000	1000	0	0	-1	1500
29943435	7	97	0	-100	0	230	101300000	1000	0	0	-1	1500
29955995	2	104	0	-100	0	230	101300000	1000	0	0	-1	1500
29968555	0	104	0	-100	0	230	101300000	1000	0	0	-1	1500
29981115	2	103	0	-100	0	230	101300000	1000	0	0	-1	1500
29993675	2	102	0	-100	0	230	101300000	1000	0	0	-1	1500
30006235	4	101	0	-100	0	230	101300000	1000	0	0	-1	1500
30018795	9	100	0	-100	0	230	101300000	1000	0	0	-1	1500
30031355	7	102	0	-100	0	230	101300000	1000	0	0	-1	1500
30043915	4	103	0	-100	0	230	101300000	1000	0	0	-1	1500
30056475	2	97	0	-100	0	230	101300000	1000	0	0	-1	1500
30069035	0	100	0	-100	0	230	101300000	1000	0	0	-1	1500
30081595	0	99	0	-100	0	230	101300000	1000	0	0	-1	1500
30094155	4	105	0	-100	0	230	101300000	1000	0	0	-1	1500
30106715	2	107	0	-100	0	230	101300000	1000	0	0	-1	1500
30119275	7	100	0	-100	0	230	101300000	1000	0	0	-1	1500
30131835	7	102	0	-100	0	230	101300000	1000	0	0	-1	1500
30144395	0	102	0	-100	0	230	101300000	1000	0	0	-1	1500
30156955	0	101	0	-100	0	230	101300000	1000	0	0	-1	1500
30169515	0	101	0	-100	0	230	101300000	1000	0	0	-1	1500
30182075	0	101	0	-100	0	230	101300000	1000	0	0	-1	1500
30194635	0	101	0	-100	0	230	101300000	1000	0	0	-1	1500
30207195	2	103	0	-100	0	230	101300000	1000	0	0	-1	1500
30219755	0	100	0	-100	0	230	101300000	1000	0	0	-1	1500
30232315	0	103	0	-100	0	230	101300000	1000	0	0	-1	1500
30244875	0	97	0	-100	0	230	101300000	1000	0	0	-1	1500
30257435	4	103	0	-100	0	230	101300000	1000	0	0	-1	1500
30269995	7	105	0	-100	0	230	101300000	1000	0	0	-1	1500
30282555	7	101	0	-100	0	230	101300000	1000	0	0	-1	1500
30295115	9	99	0	-100	0	230	101300000	1000	0	0	-1	1500
30307675	2	102	0	-100	0	230	101300000	1000	0	0	-1	1500
30320235	0	106	0	-100	0	230	101300000	1000	0	0	-1	1500
30332795	0	100	0	-100	0	230	101300000	1000	0	0	-1	1500
30345355	0	100	0	-100	0	230	101300000	1000	0	0	-1	1500
30357915	0	104	0	-100	0	230	101300000	1000	0	0	-1	1500
30370475	0	100	0	-100	0	230	101300000	1000	0	0	-1	1500
30383035	0	99	0	-100	0	230	101300000	1000	0	0	-1	1500
30395595	2	104	0	-100	0	230	101300000	1000	0	0	-1	1500
30408155	4	104	0	-100	0	230	101300000	1000	0	0	-1	1500
30420715	0	100	0	-100	0	230	101300000	1000	0	0	-1	1500
30433275	0	103	0	-100	0	230	101300000	1000	0	0	-1	1500
30445835	0	101	0	-100	0	230	101300000	1000	0	0	-1	1500
30458395	0	101	0	-100	0	230	101300000	1000	0	0	-1	1500
30470955	0	101	0	-100	0	230	101300000	1000	0	0	-1	1500
30483515	0	99	0	-100	0	230	101300000	1000	0	0	-1	1500
30496075	4	103	0	-100	0	230	101300000	1000	0	0	-1	1500
30508635	9	98	0	-100	0	230	101300000	1000	0	0	-1	1500
30521195	4	105	0	-100	0	230	101300000	1000	0	0	-1	1500
30533755	0	105	0	-100	0	230	101300000	1000	0	0	-1	1500
30546315	2	100	0	-100	0	230	101300000	1000	0	0	-1	1500
30558875	4	103	0	-100	0	230	101300000	1000	0	0	-1	1500
30571435	9	100	0	-100	0	230	101300000	1000	0	0	-1	1500
30583995	4	100	0	-100	0	230	101300000	1000	0	0	-1	1500
30596555	4	101	0	-100	0	230	101300000	1000	0	0	-1	1500
30609115	2	101	0	-100	0	230	101300000	1000	0	0	-1	1500
30621675	7	100	0	-100	0	230	101300000	1000	0	0	-1	1500
30634235	7	98	0	-100	0	230	101300000	1000	0	0	-1	1500
30646795	4	101	0	-100	0	230	101300000	1000	0	0	-1	1500
30659355	0	102	0	-100	0	230	101300000	1000	0	0	-1	1500
30671915	0	101	0	-100	0	230	101300000	1000	0	0	-1	1500
30684475	2	105	0	-100	0	230	101300000	1000	0	0	-1	1500
30697035	0	99	0	-100	0	230	101300000	1000	0	0	-1	1500
30709595	4	100	0	-100	0	230	101300000	1000	0	0	-1	1500
30722155	12	103	0	-100	0	230	101300000	1000	0	0	-1	1500
30734715	7	101	0	-100	0	230	101300000	1000	0	0	-1	1500
30747275	0	102	0	-100	0	230	101300000	1000	0	0	-1	1500
30759835	0	101	0	-100	0	230	101300000	1000	0	0	-1	1500
30772395	0	100	0	-100	0	230	101300000	1000	0	0	-1	1500
30784955	0	101	0	-100	0	230	101300000	1000	0	0	-1	1500
30797515	0	101	0	-100	0	230	101300000	1000	0	0	-1	1500
30810075	0	99	0	-100	0	230	101300000	1000	0	0	-1	1500
30822635	4	103	0	-100	0	230	101300000	1000	0	0	-1	1500
30835195	9	100	0	-100	0	230	101300000	1000	0	0	-1	1500
30847755	2	98	0	-100	0	230	101300000	1000	0	0	-1	1500
30860315	0	102	0	-100	0	230	101300000	1000	0	0	-1	1500
30872875	0	102	0	-100	0	230	101300000	1000	0	0	-1	1500
30885435	2	103	0	-100	0	230	101300000	1000	0	0	-1	1500
30897995	0	104	0	-100	0	230	101300000	1000	0	0	-1	1500
30910555	0	98	0	-100	0	230	101300000	1000	0	0	-1	1500
30923115	4	103	0	-100	0	230	101300000	1000	0	0	-1	1500
30935675	7	101	0	-100	0	230	101300000	1000	0	0	-1	1500
30948235	7	100	0	-100	0	230	101300000	1000	0	0	-1	1500
30960795	7	104	0	-100	0	230	101300000	1000	0	0	-1	1500
30973355	2	99	0	-100	0	230	101300000	1000	0	0	-1	1500
30985915	0	100	0	-100	0	230	101300000	1000	0	0	-1	1500
30998475	0	100	0	-100	0	230	101300000	1000	0	0	-1	1500
31011035	4	101	0	-100	0	230	101300000	1000	0	0	-1	1500
31023595	7	100	0	-100	0	230	101300000	1000	0	0	-1	1500
31036155	9	104	0	-100	0	230	101300000	1000	0	0	-1	1500
31048715	0	104	0	-100	0	230	101300000	1000	0	0	-1	1500
31061275	2	105	0	-100	0	230	101300000	1000	0	0	-1	1500
31073835	7	98	0	-100	0	230	101300000	1000	0	0	-1	1500
31086395	0	103	0	-100	0	230	101300000	1000	0	0	-1	1500
31098955	2	105	0	-100	0	230	101300000	1000	0	0	-1	1500
31111515	4	102	0	-100	0	230	101300000	1000	0	0	-1	1500
31124075	2	100	0	-100	0	230	101300000	1000	0	0	-1	1500
31136635	2	105	0	-100	0	230	101300000	1000	0	0	-1	1500
31149195	4	101	0	-100	0	230	101300000	1000	0	0	-1	1500
31161755	7	98	0	-100	0	230	101300000	1000	0	0	-1	1500
31174315	0	102	0	-100	0	230	101300000	1000	0	0	-1	1500
31186875	2	103	0	-100	0	230	101300000	1000	0	0	-1	1500
31199435	7	100	0	-100	0	230	101300000	1000	0	0	-1	1500
31211995	0	100	0	-100	0	230	101300000	1000	0	0	-1	1500
31224555	0	102	0	-100	0	230	101300000	1000	0	0	-1	1500
31237115	7	99	0	-100	0	230	101300000	1000	0	0	-1	1500
31249675	0	103	0	-100	0	230	101300000	1000	0	0	-1	1500
31262235	0	100	0	-100	0	230	101300000	1000	0	0	-1	1500
31274795	4	99	0	-100	0	230	101300000	1000	0	0	-1	1500
31287355	4	100	0	-100	0	230	101300000	1000	0	0	-1	1500
31299915	0	99	0	-100	0	230	101300000	1000	0	0	-1	1500
31312475	2	101	0	-100	0	230	101300000	1000	0	0	-1	1500
31325035	7	100	0	-100	0	230	101300000	1000	0	0	-1	1500
31337595	0	101	0	-100	0	230	101300000	1000	0	0	-1	1500
31350155	7	101	0	-100	0	230	101300000	1000	0	0	-1	1500
31362715	7	101	0	-100	0	230	101300000	1000	0	0	-1	1500
31375275	0	103	0	-100	0	230	101300000	1000	0	0	-1	1500
31387835	0	103	0	-100	0	230	101300000	1000	0	0	-1	1500
31400395	2	103	0	-100	0	230	101300000	1000	0	0	-1	1500
31412955	4	100	0	-100	0	230	101300000	1000	0	0	-1	1500
31425515	7	102	0	-100	0	230	101300000	1000	0	0	-1	1500
31438075	9	99	0	-100	0	230	101300000	1000	0	0	-1	1500
31450635	7	103	0	-100	0	230	101300000	1000	0	0	-1	1500
31463195	0	102	0	-100	0	230	101300000	1000	0	0	-1	1500
31475755	0	102	0	-100	0	230	101300000	1000	0	0	-1	1500
31488315	2	102	0	-100	0	230	101300000	1000	0	0	-1	1500
31500875	0	97	0	-100	0	230	101300000	1000	0	0	-1	1500
31513435	4	100	0	-100	0	230	101300000	1000	0	0	-1	1500
31525995	9	102	0	-100	0	230	101300000	1000	0	0	-1	1500
31538555	2	96	0	-100	0	230	101300000	1000	0	0	-1	1500
31551115	4	103	0	-100	0	230	101300000	1000	0	0	-1	1500
31563675	0	96	0	-100	0	230	101300000	1000	0	0	-1	1500
31576235	4	105	0	-100	0	230	101300000	1000	0	0	-1	1500
31588795	4	98	0	-100	0	230	101300000	1000	0	0	-1	1500
31601355	4	103	0	-100	0	230	101300000	1000	0	0	-1	1500
31613915	0	101	0	-100	0	230	101300000	1000	0	0	-1	1500
31626475	2	106	0	-100	0	230	101300000	1000	0	0	-1	1500
31639035	2	101	0	-100	0	230	101300000	1000	0	0	-1	1500
31651595	4	101	0	-100	0	230	101300000	1000	0	0	-1	1500
31664155	12	105	0	-100	0	230	101300000	1000	0	0	-1	1500
31676715	4	100	0	-100	0	230	101300000	1000	0	0	-1	1500
31689275	0	102	0	-100	0	230	101300000	1000	0	0	-1	1500
31701835	0	99	0	-100	0	230	101300000	1000	0	0	-1	1500
31714395	4	103	0	-100	0	230	101300000	1000	0	0	-1	1500
31726955	2	106	0	-100	0	230	101300000	1000	0	0	-1	1500
31739515	2	101	0	-100	0	230	101300000	1000	0	0	-1	1500
31752075	4	105	0	-100	0	230	101300000	1000	0	0	-1	1500
31764635	2	101	0	-100	0	230	101300000	1000	0	0	-1	1500
31777195	7	102	0	-100	0	230	101300000	1000	0	0	-1	1500
31789755	2	96	0	-100	0	230	101300000	1000	0	0	-1	1500
31802315	0	101	0	-100	0	230	101300000	1000	0	0	-1	1500
31814875	0	99	0	-100	0	230	101300000	1000	0	0	-1	1500
31827435	2	104	0	-100	0	230	101300000	1000	0	0	-1	1500
31839995	2	103	0	-100	0	230	101300000	1000	0	0	-1	1500
31852555	7	104	0	-100	0	230	101300000	1000	0	0	-1	1500
31865115	7	102	0	-100	0	230	101300000	1000	0	0	-1	1500
31877675	0	102	0	-100	0	230	101300000	1000	0	0	-1	1500
31890235	2	105	0	-100	0	230	101300000	1000	0	0	-1	1500
31902795	0	99	0	-100	0	230	101300000	1000	0	0	-1	1500
31915355	4	101	0	-100	0	230	101300000	1000	0	0	-1	1500
31927915	7	101	0	-100	0	230	101300000	1000	0	0	-1	1500
31940475	0	101	0	-100	0	230	101300000	1000	0	0	-1	1500
31953035	0	100	0	-100	0	230	101300000	1000	0	0	-1	1500
31965595	2	105	0	-100	0	230	101300000	1000	0	0	-1	1500
31978155	9	102	0	-100	0	230	101300000	1000	0	0	-1	1500
31990715	4	100	0	-100	0	230	101300000	1000	0	0	-1	1500
32003275	7	101	0	-100	0	230	101300000	1000	0	0	-1	1500
32015835	7	99	0	-100	0	230	101300000	1000	0	0	-1	1500
32028395	7	100	0	-100	0	230	101300000	1000	0	0	-1	1500
32040955	7	99	0	-100	0	230	101300000	1000	0	0	-1	1500
32053515	7	102	0	-100	0	230	101300000	1000	0	0	-1	1500
32066075	7	102	0	-100	0	230	101300000	1000	0	0	-1	1500
32078635	7	102	0	-100	0	230	101300000	1000	0	0	-1	1500
32091195	7	104	0	-100	0	230	101300000	1000	0	0	-1	1500
32103755	7	98	0	-100	0	230	101300000	1000	0	0	-1	1500
32116315	7	99	0	-100	0	230	101300000	1000	0	0	-1	1500
32128875	9	98	0	-100	0	230	101300000	1000	0	0	-1	1500
32141435	4	101	0	-100	0	230	101300000	1000	0	0	-1	1500
32153995	0	100	0	-100	0	230	101300000	1000	0	0	-1	1500
32166555	0	104	0	-100	0	230	101300000	1000	0	0	-1	1500
32179115	0	100	0	-100	0	230	101300000	1000	0	0	-1	1500
32191675	0	99	0	-100	0	230	101300000	1000	0	0	-1	1500
32204235	2	101	0	-100	0	230	101300000	1000	0	0	-1	1500
32216795	0	102	0	-100	0	230	101300000	1000	0	0	-1	1500
32229355	2	103	0	-100	0	230	101300000	1000	0	0	-1	1500
32241915	4	103	0	-100	0	230	101300000	1000	0	0	-1	1500
32254475	4	101	0	-100	0	230	101300000	1000	0	0	-1	1500
32267035	7	101	0	-100	0	230	101300000	1000	0	0	-1	1500
32279595	7	100	0	-100	0	230	101300000	1000	0	0	-1	1500
32292155	7	101	0	-100	0	230	101300000	1000	0	0	-1	1500
32304715	0	103	0	-100	0	230	101300000	1000	0	0	-1	1500
32317275	0	100	0	-100	0	230	101300000	1000	0	0	-1	1500
32329835	4	103	0	-100	0	230	101300000	1000	0	0	-1	1500
32342395	4	101	0	-100	0	230	101300000	1000	0	0	-1	1500
32354955	0	102	0	-100	0	230	101300000	1000	0	0	-1	1500
32367515	0	98	0	-100	0	230	101300000	1000	0	0	-1	1500
32380075	4	98	0	-100	0	230	101300000	1000	0	0	-1	1500
32392635	4	103	0	-100	0	230	101300000	1000	0	0	-1	1500
32405195	0	105	0	-100	0	230	101300000	1000	0	0	-1	1500
32417755	0	101	0	-100	0	230	101300000	1000	0	0	-1	1500
32430315	7	97	0	-100	0	230	101300000	1000	0	0	-1	1500
32442875	0	101	0	-100	0	230	101300000	1000	0	0	-1	1500
32455435	0	98	0	-100	0	230	101300000	1000	0	0	-1	1500
32467995	4	100	0	-100	0	230	101300000	1000	0	0	-1	1500
32480555	0	105	0	-100	0	230	101300000	1000	0	0	-1	1500
32493115	0	100	0	-100	0	230	101300000	1000	0	0	-1	1500
32505675	4	101	0	-100	0	230	101300000	1000	0	0	-1	1500
32518235	7	101	0	-100	0	230	101300000	1000	0	0	-1	1500
32530795	0	101	0	-100	0	230	101300000	1000	0	0	-1	1500
32543355	0	99	0	-100	0	230	101300000	1000	0	0	-1	1500
32555915	0	99	0	-100	0	230	101300000	1000	0	0	-1	1500
32568475	2	105	0	-100	0	230	101300000	1000	0	0	-1	1500
32581035	0	102	0	-100	0	230	101300000	1000	0	0	-1	1500
32593595	0	101	0	-100	0	230	101300000	1000	0	0	-1	1500
32606155	12	100	0	-100	0	230	101300000	1000	0	0	-1	1500
32618715	7	100	0	-100	0	230	101300000	1000	0	0	-1	1500
32631275	4	101	0	-100	0	230	101300000	1000	0	0	-1	1500
32643835	4	102	0	-100	0	230	101300000	1000	0	0	-1	1500
32656395	2	101	0	-100	0	230	101300000	1000	0	0	-1	1500
32668955	0	101	0	-100	0	230	101300000	1000	0	0	-1	1500
32681515	0	97	0	-100	0	230	101300000	1000	0	0	-1	1500
32694075	4	103	0	-100	0	230	101300000	1000	0	0	-1	1500
32706635	7	101	0	-100	0	230	101300000	1000	0	0	-1	1500
32719195	7	100	0	-100	0	230	101300000	1000	0	0	-1	1500
32731755	4	102	0	-100	0	230	101300000	1000	0	0	-1	1500
32744315	2	99	0	-100	0	230	101300000	1000	0	0	-1	1500
32756875	0	104	0	-100	0	230	101300000	1000	0	0	-1	1500
32769435	0	101	0	-100	0	230	101300000	1000	0	0	-1	1500
32781995	0	101	0	-100	0	230	101300000	1000	0	0	-1	1500
32794555	0	101	0	-100	0	230	101300000	1000	0	0	-1	1500
32807115	0	100	0	-100	0	230	101300000	1000	0	0	-1	1500
32819675	0	103	0	-100	0	230	101300000	1000	0	0	-1	1500
32832235	0	99	0	-100	0	230	101300000	1000	0	0	-1	1500
32844795	2	104	0	-100	0	230	101300000	1000	0	0	-1	1500
32857355	0	100	0	-100	0	230	101300000	1000	0	0	-1	1500
32869915	0	100	0	-100	0	230	101300000	1000	0	0	-1	1500
32882475	2	100	0	-100	0	230	101300000	1000	0	0	-1	1500
32895035	0	99	0	-100	0	230	101300000	1000	0	0	-1	1500
32907595	0	101	0	-100	0	230	101300000	1000	0	0	-1	1500
32920155	4	104	0	-100	0	230	101300000	1000	0	0	-1	1500
32932715	0	104	0	-100	0	230	101300000	1000	0	0	-1	1500
32945275	0	101	0	-100	0	230	101300000	1000	0	0	-1	1500
32957835	0	105	0	-100	0	230	101300000	1000	0	0	-1	1500
32970395	0	102	0	-100	0	230	101300000	1000	0	0	-1	1500
32982955	0	105	0	-100	0	230	101300000	1000	0	0	-1	1500
32995515	2	100	0	-100	0	230	101300000	1000	0	0	-1	1500
33008075	7	101	0	-100	0	230	101300000	1000	0	0	-1	1500
33020635	7	101	0	-100	0	230	101300000	1000	0	0	-1	1500
33033195	2	101	0	-100	0	230	101300000	1000	0	0	-1	1500
33045755	7	101	0	-100	0	230	101300000	1000	0	0	-1	1500
33058315	4	102	0	-100	0	230	101300000	1000	0	0	-1	1500
33070875	2	100	0	-100	0	230	101300000	1000	0	0	-1	1500
33083435	0	102	0	-100	0	230	101300000	1000	0	0	-1	1500
33095995	0	100	0	-100	0	230	101300000	1000	0	0	-1	1500
33108555	0	101	0	-100	0	230	101300000	1000	0	0	-1	1500
33121115	0	104	0	-100	0	230	101300000	1000	0	0	-1	1500
33133675	0	98	0	-100	0	230	101300000	1000	0	0	-1	1500
33146235	0	101	0	-100	0	230	101300000	1000	0	0	-1	1500
33158795	0	98	0	-100	0	230	101300000	1000	0	0	-1	1500
33171355	2	102	0	-100	0	230	101300000	1000	0	0	-1	1500
33183915	0	99	0	-100	0	230	101300000	1000	0	0	-1	1500
33196475	2	105	0	-100	0	230	101300000	1000	0	0	-1	1500
33209035	2	104	0	-100	0	230	101300000	1000	0	0	-1	1500
33221595	0	102	0	-100	0	230	101300000	1000	0	0	-1	1500
33234155	4	105	0	-100	0	230	101300000	1000	0	0	-1	1500
33246715	0	100	0	-100	0	230	101300000	1000	0	0	-1	1500
33259275	4	103	0	-100	0	230	101300000	1000	0	0	-1	1500
33271835	7	100	0	-100	0	230	101300000	1000	0	0	-1	1500
33284395	7	103	0	-100	0	230	101300000	1000	0	0	-1	1500
33296955	7	96	0	-100	0	230	101300000	1000	0	0	-1	1500
33309515	7	97	0	-100	0	230	101300000	1000	0	0	-1	1500
33322075	7	96	0	-100	0	230	101300000	1000	0	0	-1	1500
33334635	7	96	0	-100	0	230	101300000	1000	0	0	-1	1500
33347195	7	98	0	-100	0	230	101300000	1000	0	0	-1	1500
33359755	7	96	0	-100	0	230	101300000	1000	0	0	-1	1500
33372315	7	99	0	-100	0	230	101300000	1000	0	0	-1	1500
33384875	7	103	0	-100	0	230	101300000	1000	0	0	-1	1500
33397435	4	100	0	-100	0	230	101300000	1000	0	0	-1	1500
33409995	7	100	0	-100	0	230	101300000	1000	0	0	-1	1500
33422555	9	99	0	-100	0	230	101300000	1000	0	0	-1	1500
33435115	4	98	0	-100	0	230	101300000	1000	0	0	-1	1500
33447675	7	98	0	-100	0	230	101300000	1000	0	0	-1	1500
33460235	7	103	0	-100	0	230	101300000	1000	0	0	-1	1500
33472795	4	102	0	-100	0	230	101300000	1000	0	0	-1	1500
33485355	2	100	0	-100	0	230	101300000	1000	0	0	-1	1500
33497915	2	100	0	-100	0	230	101300000	1000	0	0	-1	1500
33510475	2	100	0	-100	0	230	101300000	1000	0	0	-1	1500
33523035	4	103	0	-100	0	230	101300000	1000	0	0	-1	1500
33535595	4	101	0	-100	0	230	101300000	1000	0	0	-1	1500
33548155	12	102	0	-100	0	230	101300000	1000	0	0	-1	1500
33560715	7	102	0	-100	0	230	101300000	1000	0	0	-1	1500
33573275	7	102	0	-100	0	230	101300000	1000	0	0	-1	1500
33585835	9	100	0	-100	0	230	101300000	1000	0	0	-1	1500
33598395	9	99	0	-100	0	230	101300000	1000	0	0	-1	1500
33610955	4	100	0	-100	0	230	101300000	1000	0	0	-1	1500
33623515	4	101	0	-100	0	230	101300000	1000	0	0	-1	1500
33636075	2	102	0	-100	0	230	101300000	1000	0	0	-1	1500
33648635	0	102	0	-100	0	230	101300000	1000	0	0	-1	1500
33661195	2	105	0	-100	0	230	101300000	1000	0	0	-1	1500
33673755	0	100	0	-100	0	230	101300000	1000	0	0	-1	1500
33686315	0	101	0	-100	0	230	101300000	1000	0	0	-1	1500
33698875	0	100	0	-100	0	230	101300000	1000	0	0	-1	1500
33711435	0	102	0	-100	0	230	101300000	1000	0	0	-1	1500
33723995	0	101	0	-100	0	230	101300000	1000	0	0	-1	1500
33736555	0	104	0	-100	0	230	101300000	1000	0	0	-1	1500
33749115	0	105	0	-100	0	230	101300000	1000	0	0	-1	1500
33761675	4	99	0	-100	0	230	101300000	1000	0	0	-1	1500
33774235	0	101	0	-100	0	230	101300000	1000	0	0	-1	1500
33786795	0	105	0	-100	0	230	101300000	1000	0	0	-1	1500
33799355	0	102	0	-100	0	230	101300000	1000	0	0	-1	1500
33811915	0	101	0	-100	0	230	101300000	1000	0	0	-1	1500
33824475	0	96	0	-100	0	230	101300000	1000	0	0	-1	1500
33837035	2	102	0	-100	0	230	101300000	1000	0	0	-1	1500
33849595	0	103	0	-100	0	230	101300000	1000	0	0	-1	1500
33862155	2	104	0	-100	0	230	101300000	1000	0	0	-1	1500
33874715	0	104	0	-100	0	230	101300000	1000	0	0	-1	1500
33887275	0	105	0	-100	0	230	101300000	1000	0	0	-1	1500
33899835	0	103	0	-100	0	230	101300000	1000	0	0	-1	1500
33912395	0	102	0	-100	0	230	101300000	1000	0	0	-1	1500
33924955	0	104	0	-100	0	230	101300000	1000	0	0	-1	1500
33937515	0	102	0	-100	0	230	101300000	1000	0	0	-1	1500
33950075	4	101	0	-100	0	230	101300000	1000	0	0	-1	1500
33962635	4	103	0	-100	0	230	101300000	1000	0	0	-1	1500
33975195	7	98	0	-100	0	230	101300000	1000	0	0	-1	1500
33987755	4	99	0	-100	0	230	101300000	1000	0	0	-1	1500
34000315	4	102	0	-100	0	230	101300000	1000	0	0	-1	1500
34012875	0	99	0	-100	0	230	101300000	1000	0	0	-1	1500
34025435	0	100	0	-100	0	230	101300000	1000	0	0	-1	1500
34037995	0	101	0	-100	0	230	101300000	1000	0	0	-1	1500
34050555	0	100	0	-100	0	230	101300000	1000	0	0	-1	1500
34063115	0	100	0	-100	0	230	101300000	1000	0	0	-1	1500
34075675	0	101	0	-100	0	230	101300000	1000	0	0	-1	1500
34088235	0	101	0	-100	0	230	101300000	1000	0	0	-1	1500
34100795	7	101	0	-100	0	230	101300000	1000	0	0	-1	1500
34113355	4	103	0	-100	0	230	101300000	1000	0	0	-1	1500
34125915	2	101	0	-100	0	230	101300000	1000	0	0	-1	1500
34138475	0	98	0	-100	0	230	101300000	1000	0	0	-1	1500
34151035	0	101	0	-100	0	230	101300000	1000	0	0	-1	1500
34163595	2	100	0	-100	0	230	101300000	1000	0	0	-1	1500
34176155	7	101	0	-100	0	230	101300000	1000	0	0	-1	1500
34188715	7	102	0	-100	0	230	101300000	1000	0	0	-1	1500
34201275	7	101	0	-100	0	230	101300000	1000	0	0	-1	1500
34213835	2	103	0	-100	0	230	101300000	1000	0	0	-1	1500
34226395	0	99	0	-100	0	230	101300000	1000	0	0	-1	1500
34238955	0	97	0	-100	0	230	101300000	1000	0	0	-1	1500
34251515	0	96	0	-100	0	230	101300000	1000	0	0	-1	1500
34264075	0	98	0	-100	0	230	101300000	1000	0	0	-1	1500
34276635	0	100	0	-100	0	230	101300000	1000	0	0	-1	1500
34289195	4	102	0	-100	0	230	101300000	1000	0	0	-1	1500
34301755	2	101	0	-100	0	230	101300000	1000	0	0	-1	1500
34314315	4	101	0	-100	0	230	101300000	1000	0	0	-1	1500
34326875	4	100	0	-100	0	230	101300000	1000	0	0	-1	1500
34339435	4	102	0	-100	0	230	101300000	1000	0	0	-1	1500
34351995	0	105	0	-100	0	230	101300000	1000	0	0	-1	1500
34364555	0	101	0	-100	0	230	101300000	1000	0	0	-1	1500
34377115	0	102	0	-100	0	230	101300000	1000	0	0	-1	1500
34389675	0	105	0	-100	0	230	101300000	1000	0	0	-1	1500
34402235	4	102	0	-100	0	230	101300000	1000	0	0	-1	1500
34414795	7	99	0	-100	0	230	101300000	1000	0	0	-1	1500
34427355	4	101	0	-100	0	230	101300000	1000	0	0	-1	1500
34439915	7	100	0	-100	0	230	101300000	1000	0	0	-1	1500
34452475	4	105	0	-100	0	230	101300000	1000	0	0	-1	1500
34465035	0	101	0	-100	0	230	101300000	1000	0	0	-1	1500
34477595	0	98	0	-100	0	230	101300000	1000	0	0	-1	1500
34490155	4	104	0	-100	0	230	101300000	1000	0	0	-1	1500
34502715	0	98	0	-100	0	230	101300000	1000	0	0	-1	1500
34515275	4	105	0	-100	0	230	101300000	1000	0	0	-1	1500
34527835	2	103	0	-100	0	230	101300000	1000	0	0	-1	1500
34540395	0	99	0	-100	0	230	101300000	1000	0	0	-1	1500
34552955	0	98	0	-100	0	230	101300000	1000	0	0	-1	1500
34565515	0	101	0	-100	0	230	101300000	1000	0	0	-1	1500
34578075	0	99	0	-100	0	230	101300000	1000	0	0	-1	1500
34590635	2	105	0	-100	0	230	101300000	1000	0	0	-1	1500
34603195	2	101	0	-100	0	230	101300000	1000	0	0	-1	1500
34615755	4	101	0	-100	0	230	101300000	1000	0	0	-1	1500
34628315	7	101	0	-100	0	230	101300000	1000	0	0	-1	1500
34640875	7	101	0	-100	0	230	101300000	1000	0	0	-1	1500
34653435	7	101	0	-100	0	230	101300000	1000	0	0	-1	1500
34665995	2	104	0	-100	0	230	101300000	1000	0	0	-1	1500
34678555	0	103	0	-100	0	230	101300000	1000	0	0	-1	1500
34691115	2	104	0	-100	0	230	101300000	1000	0	0	-1	1500
34703675	2	101	0	-100	0	230	101300000	1000	0	0	-1	1500
34716235	4	101	0	-100	0	230	101300000	1000	0	0	-1	1500
34728795	7	102	0	-100	0	230	101300000	1000	0	0	-1	1500
34741355	7	102	0	-100	0	230	101300000	1000	0	0	-1	1500
34753915	7	98	0	-100	0	230	101300000	1000	0	0	-1	1500
34766475	4	103	0	-100	0	230	101300000	1000	0	0	-1	1500
34779035	2	97	0	-100	0	230	101300000	1000	0	0	-1	1500
34791595	0	97	0	-100	0	230	101300000	1000	0	0	-1	1500
34804155	4	106	0	-100	0	230	101300000	1000	0	0	-1	1500
34816715	9	100	0	-100	0	230	101300000	1000	0	0	-1	1500
34829275	7	101	0	-100	0	230	101300000	1000	0	0	-1	1500
34841835	0	99	0	-100	0	230	101300000	1000	0	0	-1	1500
34854395	0	101	0	-100	0	230	101300000	1000	0	0	-1	1500
34866955	0	101	0	-100	0	230	101300000	1000	0	0	-1	1500
34879515	4	100	0	-100	0	230	101300000	1000	0	0	-1	1500
