timestamp	voltage	current	windSpeed	pitchAngle	rpm	temperature	ambientPressure	humidity	accelerationX	accelerationY	accelerationZ	currentSink
7037070	8018	0	0	-100	0	230	101300000	1000	0	0	-1	0
7044523	8018	6	0	-100	0	230	101300000	1000	0	0	-1	0
7057083	8025	0	0	-100	0	230	101300000	1000	0	0	-1	0
7069643	8020	0	0	-100	0	230	101300000	1000	0	0	-1	0
7082203	8013	4	0	-100	0	230	101300000	1000	0	0	-1	0
7094763	8022	0	0	-100	0	230	101300000	1000	0	0	-1	0
7107323	8015	0	0	-100	0	230	101300000	1000	0	0	-1	0
7119883	8015	3	0	-100	0	230	101300000	1000	0	0	-1	0
7132443	8020	0	0	-100	0	230	101300000	1000	0	0	-1	0
7145004	8030	0	0	-100	0	230	101300000	1000	0	0	-1	0
7157563	8018	4	0	-100	0	230	101300000	1000	0	0	-1	0
7170123	8018	1	0	-100	0	230	101300000	1000	0	0	-1	0
7182683	8020	0	0	-100	0	230	101300000	1000	0	0	-1	0
7195243	8015	4	0	-100	0	230	101300000	1000	0	0	-1	0
7207803	8025	0	0	-100	0	230	101300000	1000	0	0	-1	0
7220363	8018	0	0	-100	0	230	101300000	1000	0	0	-1	0
7232923	8013	1	0	-100	0	230	101300000	1000	0	0	-1	0
7245483	8018	0	0	-100	0	230	101300000	1000	0	0	-1	0
7258043	8017	4	0	-100	0	230	101300000	1000	0	0	-1	0
7270603	8018	0	0	-100	0	230	101300000	1000	0	0	-1	0
7283163	8022	0	0	-100	0	230	101300000	1000	0	0	-1	0
7295723	8013	0	0	-100	0	230	101300000	1000	0	0	-1	0
7308283	8018	0	0	-100	0	230	101300000	1000	0	0	-1	0
7320843	8020	2	0	-100	0	230	101300000	1000	0	0	-1	0
7333403	8017	2	0	-100	0	230	101300000	1000	0	0	-1	0
7345963	8025	0	0	-100	0	230	101300000	1000	0	0	-1	0
7714235	1289	1080	0	-100	0	230	101300000	1000	0	0	-1	1500
7726795	1297	1078	0	-100	0	230	101300000	1000	0	0	-1	1500
7739355	1144	1081	0	-100	0	230	101300000	1000	0	0	-1	1500
7751915	1117	1079	0	-100	0	230	101300000	1000	0	0	-1	1500
7764475	1219	1080	0	-100	0	230	101300000	1000	0	0	-1	1500
7777035	1195	1078	0	-100	0	230	101300000	1000	0	0	-1	1500
7789595	1243	1078	0	-100	0	230	101300000	1000	0	0	-1	1500
7802155	1150	1078	0	-100	0	230	101300000	1000	0	0	-1	1500
7814715	1277	1074	0	-100	0	230	101300000	1000	0	0	-1	1500
7827275	1253	1077	0	-100	0	230	101300000	1000	0	0	-1	1500
7839835	1191	1073	0	-100	0	230	101300000	1000	0	0	-1	1500
7852395	1305	1077	0	-100	0	230	101300000	1000	0	0	-1	1500
7864955	1252	1075	0	-100	0	230	101300000	1000	0	0	-1	1500
7877515	1200	1080	0	-100	0	230	101300000	1000	0	0	-1	1500
7890075	1248	1080	0	-100	0	230	101300000	1000	0	0	-1	1500
7902635	1211	1077	0	-100	0	230	101300000	1000	0	0	-1	1500
7915195	1256	1079	0	-100	0	230	101300000	1000	0	0	-1	1500
7927755	1248	1079	0	-100	0	230	101300000	1000	0	0	-1	1500
7940315	1323	1075	0	-100	0	230	101300000	1000	0	0	-1	1500
7952875	1217	1078	0	-100	0	230	101300000	1000	0	0	-1	1500
7965435	1285	1080	0	-100	0	230	101300000	1000	0	0	-1	1500
7977995	1226	1079	0	-100	0	230	101300000	1000	0	0	-1	1500
7990555	1246	1080	0	-100	0	230	101300000	1000	0	0	-1	1500
8003115	1151	1080	0	-100	0	230	101300000	1000	0	0	-1	1500
8015675	1246	1082	0	-100	0	230	101300000	1000	0	0	-1	1500
8028235	1290	1079	0	-100	0	230	101300000	1000	0	0	-1	1500
8040795	1204	1076	0	-100	0	230	101300000	1000	0	0	-1	1500
8053355	1016	1083	0	-100	0	230	101300000	1000	0	0	-1	1500
8065915	1258	1077	0	-100	0	230	101300000	1000	0	0	-1	1500
8078475	1245	1078	0	-100	0	230	101300000	1000	0	0	-1	1500
8091035	1222	1080	0	-100	0	230	101300000	1000	0	0	-1	1500
8103595	1189	1082	0	-100	0	230	101300000	1000	0	0	-1	1500
8116155	1298	1080	0	-100	0	230	101300000	1000	0	0	-1	1500
8128715	1272	1076	0	-100	0	230	101300000	1000	0	0	-1	1500
8141275	1234	1083	0	-100	0	230	101300000	1000	0	0	-1	1500
8153835	1194	1079	0	-100	0	230	101300000	1000	0	0	-1	1500
8166395	1139	1080	0	-100	0	230	101300000	1000	0	0	-1	1500
8178955	1275	1078	0	-100	0	230	101300000	1000	0	0	-1	1500
8191515	1198	1075	0	-100	0	230	101300000	1000	0	0	-1	1500
8204075	1098	1082	0	-100	0	230	101300000	1000	0	0	-1	1500
8216635	1300	1084	0	-100	0	230	101300000	1000	0	0	-1	1500
8229195	1307	1082	0	-100	0	230	101300000	1000	0	0	-1	1500
8241755	1129	1081	0	-100	0	230	101300000	1000	0	0	-1	1500
8254315	1098	1077	0	-100	0	230	101300000	1000	0	0	-1	1500
8266875	1273	1077	0	-100	0	230	101300000	1000	0	0	-1	1500
8279435	1309	1084	0	-100	0	230	101300000	1000	0	0	-1	1500
8291995	1275	1078	0	-100	0	230	101300000	1000	0	0	-1	1500
8304555	1233	1080	0	-100	0	230	101300000	1000	0	0	-1	1500
8317115	1229	1080	0	-100	0	230	101300000	1000	0	0	-1	1500
8329675	1224	1077	0	-100	0	230	101300000	1000	0	0	-1	1500
8342235	1176	1083	0	-100	0	230	101300000	1000	0	0	-1	1500
8354795	1313	1077	0	-100	0	230	101300000	1000	0	0	-1	1500
8367355	1261	1080	0	-100	0	230	101300000	1000	0	0	-1	1500
8379915	787	1092	0	-100	0	230	101300000	1000	0	0	-1	1500
8392475	138	1083	0	-100	0	230	101300000	1000	0	0	-1	1500
8405035	138	1081	0	-100	0	230	101300000	1000	0	0	-1	1500
8417595	145	1075	0	-100	0	230	101300000	1000	0	0	-1	1500
8430155	140	1082	0	-100	0	230	101300000	1000	0	0	-1	1500
8442715	143	1079	0	-100	0	230	101300000	1000	0	0	-1	1500
8455275	135	1081	0	-100	0	230	101300000	1000	0	0	-1	1500
8467835	143	1080	0	-100	0	230	101300000	1000	0	0	-1	1500
8480395	138	1084	0	-100	0	230	101300000	1000	0	0	-1	1500
8492955	143	1078	0	-100	0	230	101300000	1000	0	0	-1	1500
8505515	138	1080	0	-100	0	230	101300000	1000	0	0	-1	1500
8518075	145	1076	0	-100	0	230	101300000	1000	0	0	-1	1500
8530635	135	1080	0	-100	0	230	101300000	1000	0	0	-1	1500
8543195	138	1078	0	-100	0	230	101300000	1000	0	0	-1	1500
8555755	143	1079	0	-100	0	230	101300000	1000	0	0	-1	1500
8568315	138	1081	0	-100	0	230	101300000	1000	0	0	-1	1500
8580875	143	1077	0	-100	0	230	101300000	1000	0	0	-1	1500
8593435	138	1085	0	-100	0	230	101300000	1000	0	0	-1	1500
8605995	145	1079	0	-100	0	230	101300000	1000	0	0	-1	1500
8618555	135	1082	0	-100	0	230	101300000	1000	0	0	-1	1500
8631115	143	1081	0	-100	0	230	101300000	1000	0	0	-1	1500
8643675	138	1082	0	-100	0	230	101300000	1000	0	0	-1	1500
8656235	140	1079	0	-100	0	230	101300000	1000	0	0	-1	1500
8668795	135	1080	0	-100	0	230	101300000	1000	0	0	-1	1500
8681355	143	1082	0	-100	0	230	101300000	1000	0	0	-1	1500
8693915	135	1080	0	-100	0	230	101300000	1000	0	0	-1	1500
8706475	143	1080	0	-100	0	230	101300000	1000	0	0	-1	1500
8719035	138	1080	0	-100	0	230	101300000	1000	0	0	-1	1500
8731595	143	1079	0	-100	0	230	101300000	1000	0	0	-1	1500
8744155	143	1080	0	-100	0	230	101300000	1000	0	0	-1	1500
8756715	135	1082	0	-100	0	230	101300000	1000	0	0	-1	1500
8769275	145	1077	0	-100	0	230	101300000	1000	0	0	-1	1500
8781835	138	1081	0	-100	0	230	101300000	1000	0	0	-1	1500
8794395	140	1078	0	-100	0	230	101300000	1000	0	0	-1	1500
8806955	138	1078	0	-100	0	230	101300000	1000	0	0	-1	1500
8819515	140	1078	0	-100	0	230	101300000	1000	0	0	-1	1500
8832075	140	1079	0	-100	0	230	101300000	1000	0	0	-1	1500
8844635	143	1077	0	-100	0	230	101300000	1000	0	0	-1	1500
8857195	138	1081	0	-100	0	230	101300000	1000	0	0	-1	1500
8869755	138	1080	0	-100	0	230	101300000	1000	0	0	-1	1500
8882315	143	1076	0	-100	0	230	101300000	1000	0	0	-1	1500
8894875	143	1080	0	-100	0	230	101300000	1000	0	0	-1	1500
8907435	135	1082	0	-100	0	230	101300000	1000	0	0	-1	1500
8919995	140	1075	0	-100	0	230	101300000	1000	0	0	-1	1500
8932555	145	1076	0	-100	0	230	101300000	1000	0	0	-1	1500
8945115	138	1079	0	-100	0	230	101300000	1000	0	0	-1	1500
8957675	138	1079	0	-100	0	230	101300000	1000	0	0	-1	1500
8970235	140	1076	0	-100	0	230	101300000	1000	0	0	-1	1500
8982795	142	1074	0	-100	0	230	101300000	1000	0	0	-1	1500
8995355	138	1079	0	-100	0	230	101300000	1000	0	0	-1	1500
9007915	138	1084	0	-100	0	230	101300000	1000	0	0	-1	1500
9020475	138	1077	0	-100	0	230	101300000	1000	0	0	-1	1500
9033035	143	1081	0	-100	0	230	101300000	1000	0	0	-1	1500
9045595	140	1079	0	-100	0	230	101300000	1000	0	0	-1	1500
9058155	143	1081	0	-100	0	230	101300000	1000	0	0	-1	1500
9070715	143	1082	0	-100	0	230	101300000	1000	0	0	-1	1500
9083275	135	1081	0	-100	0	230	101300000	1000	0	0	-1	1500
9095835	135	1078	0	-100	0	230	101300000	1000	0	0	-1	1500
9108395	142	1079	0	-100	0	230	101300000	1000	0	0	-1	1500
9120955	138	1082	0	-100	0	230	101300000	1000	0	0	-1	1500
9133515	143	1078	0	-100	0	230	101300000	1000	0	0	-1	1500
9146075	140	1079	0	-100	0	230	101300000	1000	0	0	-1	1500
9158635	138	1083	0	-100	0	230	101300000	1000	0	0	-1	1500
9171195	142	1079	0	-100	0	230	101300000	1000	0	0	-1	1500
9183755	135	1079	0	-100	0	230	101300000	1000	0	0	-1	1500
9196315	143	1078	0	-100	0	230	101300000	1000	0	0	-1	1500
9208875	135	1083	0	-100	0	230	101300000	1000	0	0	-1	1500
9221435	140	1075	0	-100	0	230	101300000	1000	0	0	-1	1500
9233995	135	1080	0	-100	0	230	101300000	1000	0	0	-1	1500
9246555	140	1077	0	-100	0	230	101300000	1000	0	0	-1	1500
9259115	138	1078	0	-100	0	230	101300000	1000	0	0	-1	1500
9271675	135	1078	0	-100	0	230	101300000	1000	0	0	-1	1500
9284235	138	1078	0	-100	0	230	101300000	1000	0	0	-1	1500
9296795	135	1082	0	-100	0	230	101300000	1000	0	0	-1	1500
9309355	145	1078	0	-100	0	230	101300000	1000	0	0	-1	1500
9321915	138	1081	0	-100	0	230	101300000	1000	0	0	-1	1500
9334475	142	1080	0	-100	0	230	101300000	1000	0	0	-1	1500
9347035	138	1076	0	-100	0	230	101300000	1000	0	0	-1	1500
9359595	138	1080	0	-100	0	230	101300000	1000	0	0	-1	1500
9372155	150	1077	0	-100	0	230	101300000	1000	0	0	-1	1500
9384715	138	1083	0	-100	0	230	101300000	1000	0	0	-1	1500
9397275	143	1077	0	-100	0	230	101300000	1000	0	0	-1	1500
9409835	135	1080	0	-100	0	230	101300000	1000	0	0	-1	1500
9422395	143	1078	0	-100	0	230	101300000	1000	0	0	-1	1500
9434955	135	1079	0	-100	0	230	101300000	1000	0	0	-1	1500
9447515	138	1078	0	-100	0	230	101300000	1000	0	0	-1	1500
9460075	138	1077	0	-100	0	230	101300000	1000	0	0	-1	1500
9472635	138	1081	0	-100	0	230	101300000	1000	0	0	-1	1500
9485195	143	1080	0	-100	0	230	101300000	1000	0	0	-1	1500
9497755	138	1082	0	-100	0	230	101300000	1000	0	0	-1	1500
9510315	145	1080	0	-100	0	230	101300000	1000	0	0	-1	1500
9522875	135	1081	0	-100	0	230	101300000	1000	0	0	-1	1500
9535435	143	1080	0	-100	0	230	101300000	1000	0	0	-1	1500
9547995	135	1084	0	-100	0	230	101300000	1000	0	0	-1	1500
9560555	140	1077	0	-100	0	230	101300000	1000	0	0	-1	1500
9573115	138	1078	0	-100	0	230	101300000	1000	0	0	-1	1500
9585675	138	1078	0	-100	0	230	101300000	1000	0	0	-1	1500
9598235	145	1081	0	-100	0	230	101300000	1000	0	0	-1	1500
9610795	138	1079	0	-100	0	230	101300000	1000	0	0	-1	1500
9623355	145	1078	0	-100	0	230	101300000	1000	0	0	-1	1500
9635915	140	1082	0	-100	0	230	101300000	1000	0	0	-1	1500
9648475	143	1077	0	-100	0	230	101300000	1000	0	0	-1	1500
9661035	135	1083	0	-100	0	230	101300000	1000	0	0	-1	1500
9673595	142	1078	0	-100	0	230	101300000	1000	0	0	-1	1500
9686155	140	1081	0	-100	0	230	101300000	1000	0	0	-1	1500
9698715	140	1078	0	-100	0	230	101300000	1000	0	0	-1	1500
9711275	135	1080	0	-100	0	230	101300000	1000	0	0	-1	1500
9723835	145	1076	0	-100	0	230	101300000	1000	0	0	-1	1500
9736395	138	1076	0	-100	0	230	101300000	1000	0	0	-1	1500
9748955	138	1078	0	-100	0	230	101300000	1000	0	0	-1	1500
9761515	140	1079	0	-100	0	230	101300000	1000	0	0	-1	1500
9774075	138	1082	0	-100	0	230	101300000	1000	0	0	-1	1500
9786635	143	1077	0	-100	0	230	101300000	1000	0	0	-1	1500
9799195	138	1078	0	-100	0	230	101300000	1000	0	0	-1	1500
9811755	138	1081	0	-100	0	230	101300000	1000	0	0	-1	1500
9824315	140	1077	0	-100	0	230	101300000	1000	0	0	-1	1500
9836875	145	1079	0	-100	0	230	101300000	1000	0	0	-1	1500
9849435	145	1078	0	-100	0	230	101300000	1000	0	0	-1	1500
9861995	140	1081	0	-100	0	230	101300000	1000	0	0	-1	1500
9874555	140	1081	0	-100	0	230	101300000	1000	0	0	-1	1500
9887115	135	1079	0	-100	0	230	101300000	1000	0	0	-1	1500
9899675	140	1078	0	-100	0	230	101300000	1000	0	0	-1	1500
9912235	143	1080	0	-100	0	230	101300000	1000	0	0	-1	1500
9924795	143	1077	0	-100	0	230	101300000	1000	0	0	-1	1500
9937355	135	1080	0	-100	0	230	101300000	1000	0	0	-1	1500
9949915	135	1081	0	-100	0	230	101300000	1000	0	0	-1	1500
9962475	133	1079	0	-100	0	230	101300000	1000	0	0	-1	1500
9975035	143	1090	0	-100	0	230	101300000	1000	0	0	-1	1500
9987595	143	1080	0	-100	0	230	101300000	1000	0	0	-1	1500
10000155	145	1080	0	-100	0	230	101300000	1000	0	0	-1	1500
10012715	138	1082	0	-100	0	230	101300000	1000	0	0	-1	1500
10025275	140	1077	0	-100	0	230	101300000	1000	0	0	-1	1500
10037835	138	1080	0	-100	0	230	101300000	1000	0	0	-1	1500
10050395	143	1075	0	-100	0	230	101300000	1000	0	0	-1	1500
10062955	138	1082	0	-100	0	230	101300000	1000	0	0	-1	1500
10075515	138	1079	0	-100	0	230	101300000	1000	0	0	-1	1500
10088075	145	1080	0	-100	0	230	101300000	1000	0	0	-1	1500
10100635	143	1077	0	-100	0	230	101300000	1000	0	0	-1	1500
10113195	138	1082	0	-100	0	230	101300000	1000	0	0	-1	1500
10125755	138	1081	0	-100	0	230	101300000	1000	0	0	-1	1500
10138315	143	1080	0	-100	0	230	101300000	1000	0	0	-1	1500
10150875	140	1078	0	-100	0	230	101300000	1000	0	0	-1	1500
10163435	138	1078	0	-100	0	230	101300000	1000	0	0	-1	1500
10175995	135	1081	0	-100	0	230	101300000	1000	0	0	-1	1500
10188555	143	1078	0	-100	0	230	101300000	1000	0	0	-1	1500
10201115	143	1074	0	-100	0	230	101300000	1000	0	0	-1	1500
10213675	143	1081	0	-100	0	230	101300000	1000	0	0	-1	1500
10226235	138	1080	0	-100	0	230	101300000	1000	0	0	-1	1500
10238795	135	1077	0	-100	0	230	101300000	1000	0	0	-1	1500
10251355	145	1077	0	-100	0	230	101300000	1000	0	0	-1	1500
10263915	138	1079	0	-100	0	230	101300000	1000	0	0	-1	1500
10276475	138	1080	0	-100	0	230	101300000	1000	0	0	-1	1500
10289035	135	1080	0	-100	0	230	101300000	1000	0	0	-1	1500
10301595	140	1078	0	-100	0	230	101300000	1000	0	0	-1	1500
10314155	150	1081	0	-100	0	230	101300000	1000	0	0	-1	1500
10326715	138	1078	0	-100	0	230	101300000	1000	0	0	-1	1500
10339275	135	1080	0	-100	0	230	101300000	1000	0	0	-1	1500
10351835	143	1080	0	-100	0	230	101300000	1000	0	0	-1	1500
10364395	140	1079	0	-100	0	230	101300000	1000	0	0	-1	1500
10376955	138	1082	0	-100	0	230	101300000	1000	0	0	-1	1500
10389515	138	1077	0	-100	0	230	101300000	1000	0	0	-1	1500
10402075	143	1078	0	-100	0	230	101300000	1000	0	0	-1	1500
10414635	145	1073	0	-100	0	230	101300000	1000	0	0	-1	1500
10427195	140	1078	0	-100	0	230	101300000	1000	0	0	-1	1500
10439755	138	1082	0	-100	0	230	101300000	1000	0	0	-1	1500
10452315	135	1081	0	-100	0	230	101300000	1000	0	0	-1	1500
10464875	145	1078	0	-100	0	230	101300000	1000	0	0	-1	1500
10477435	145	1077	0	-100	0	230	101300000	1000	0	0	-1	1500
10489995	138	1078	0	-100	0	230	101300000	1000	0	0	-1	1500
10502555	135	1080	0	-100	0	230	101300000	1000	0	0	-1	1500
10515115	138	1082	0	-100	0	230	101300000	1000	0	0	-1	1500
10527675	145	1080	0	-100	0	230	101300000	1000	0	0	-1	1500
10540235	135	1081	0	-100	0	230	101300000	1000	0	0	-1	1500
10552795	138	1083	0	-100	0	230	101300000	1000	0	0	-1	1500
10565355	138	1080	0	-100	0	230	101300000	1000	0	0	-1	1500
10577915	143	1077	0	-100	0	230	101300000	1000	0	0	-1	1500
10590475	138	1083	0	-100	0	230	101300000	1000	0	0	-1	1500
10603035	143	1081	0	-100	0	230	101300000	1000	0	0	-1	1500
10615595	140	1074	0	-100	0	230	101300000	1000	0	0	-1	1500
10628155	143	1082	0	-100	0	230	101300000	1000	0	0	-1	1500
10640715	145	1078	0	-100	0	230	101300000	1000	0	0	-1	1500
10653275	142	1079	0	-100	0	230	101300000	1000	0	0	-1	1500
10665835	138	1081	0	-100	0	230	101300000	1000	0	0	-1	1500
10678395	138	1081	0	-100	0	230	101300000	1000	0	0	-1	1500
10690955	140	1076	0	-100	0	230	101300000	1000	0	0	-1	1500
10703515	135	1082	0	-100	0	230	101300000	1000	0	0	-1	1500
10716075	142	1076	0	-100	0	230	101300000	1000	0	0	-1	1500
10728635	135	1084	0	-100	0	230	101300000	1000	0	0	-1	1500
10741195	143	1074	0	-100	0	230	101300000	1000	0	0	-1	1500
10753755	138	1081	0	-100	0	230	101300000	1000	0	0	-1	1500
10766315	133	1081	0	-100	0	230	101300000	1000	0	0	-1	1500
10778875	143	1077	0	-100	0	230	101300000	1000	0	0	-1	1500
10791435	135	1081	0	-100	0	230	101300000	1000	0	0	-1	1500
10803995	140	1083	0	-100	0	230	101300000	1000	0	0	-1	1500
10816555	140	1078	0	-100	0	230	101300000	1000	0	0	-1	1500
10829115	135	1080	0	-100	0	230	101300000	1000	0	0	-1	1500
10841675	145	1078	0	-100	0	230	101300000	1000	0	0	-1	1500
10854235	135	1079	0	-100	0	230	101300000	1000	0	0	-1	1500
10866795	142	1080	0	-100	0	230	101300000	1000	0	0	-1	1500
10879355	140	1079	0	-100	0	230	101300000	1000	0	0	-1	1500
10891915	143	1079	0	-100	0	230	101300000	1000	0	0	-1	1500
10904475	135	1079	0	-100	0	230	101300000	1000	0	0	-1	1500
10917035	135	1081	0	-100	0	230	101300000	1000	0	0	-1	1500
10929595	145	1074	0	-100	0	230	101300000	1000	0	0	-1	1500
10942155	145	1077	0	-100	0	230	101300000	1000	0	0	-1	1500
10954715	138	1079	0	-100	0	230	101300000	1000	0	0	-1	1500
10967275	138	1081	0	-100	0	230	101300000	1000	0	0	-1	1500
10979835	145	1078	0	-100	0	230	101300000	1000	0	0	-1	1500
10992395	140	1075	0	-100	0	230	101300000	1000	0	0	-1	1500
11004955	135	1081	0	-100	0	230	101300000	1000	0	0	-1	1500
11017515	140	1076	0	-100	0	230	101300000	1000	0	0	-1	1500
11030075	143	1074	0	-100	0	230	101300000	1000	0	0	-1	1500
11042635	140	1076	0	-100	0	230	101300000	1000	0	0	-1	1500
11055195	138	1083	0	-100	0	230	101300000	1000	0	0	-1	1500
11067755	138	1080	0	-100	0	230	101300000	1000	0	0	-1	1500
11080315	145	1077	0	-100	0	230	101300000	1000	0	0	-1	1500
11092875	143	1076	0	-100	0	230	101300000	1000	0	0	-1	1500
11105435	138	1080	0	-100	0	230	101300000	1000	0	0	-1	1500
11117995	135	1077	0	-100	0	230	101300000	1000	0	0	-1	1500
11130555	135	1076	0	-100	0	230	101300000	1000	0	0	-1	1500
11143115	145	1075	0	-100	0	230	101300000	1000	0	0	-1	1500
11155675	143	1077	0	-100	0	230	101300000	1000	0	0	-1	1500
11168235	138	1081	0	-100	0	230	101300000	1000	0	0	-1	1500
11180795	135	1080	0	-100	0	230	101300000	1000	0	0	-1	1500
11193355	145	1079	0	-100	0	230	101300000	1000	0	0	-1	1500
11205915	140	1080	0	-100	0	230	101300000	1000	0	0	-1	1500
11218475	138	1085	0	-100	0	230	101300000	1000	0	0	-1	1500
11231035	138	1079	0	-100	0	230	101300000	1000	0	0	-1	1500
11243595	143	1081	0	-100	0	230	101300000	1000	0	0	-1	1500
11256155	143	1077	0	-100	0	230	101300000	1000	0	0	-1	1500
11268715	138	1077	0	-100	0	230	101300000	1000	0	0	-1	1500
11281275	135	1080	0	-100	0	230	101300000	1000	0	0	-1	1500
11293835	145	1074	0	-100	0	230	101300000	1000	0	0	-1	1500
11306395	140	1078	0	-100	0	230	101300000	1000	0	0	-1	1500
11318955	135	1081	0	-100	0	230	101300000	1000	0	0	-1	1500
11331515	143	1078	0	-100	0	230	101300000	1000	0	0	-1	1500
11344075	135	1081	0	-100	0	230	101300000	1000	0	0	-1	1500
11356635	135	1079	0	-100	0	230	101300000	1000	0	0	-1	1500
11369195	143	1080	0	-100	0	230	101300000	1000	0	0	-1	1500
11381755	135	1081	0	-100	0	230	101300000	1000	0	0	-1	1500
11394315	145	1081	0	-100	0	230	101300000	1000	0	0	-1	1500
11406875	135	1081	0	-100	0	230	101300000	1000	0	0	-1	1500
11419435	147	1080	0	-100	0	230	101300000	1000	0	0	-1	1500
11431995	138	1077	0	-100	0	230	101300000	1000	0	0	-1	1500
11444555	138	1078	0	-100	0	230	101300000	1000	0	0	-1	1500
11457115	143	1076	0	-100	0	230	101300000	1000	0	0	-1	1500
11469675	135	1084	0	-100	0	230	101300000	1000	0	0	-1	1500
11482235	147	1081	0	-100	0	230	101300000	1000	0	0	-1	1500
11494795	138	1081	0	-100	0	230	101300000	1000	0	0	-1	1500
11507355	138	1080	0	-100	0	230	101300000	1000	0	0	-1	1500
11519915	140	1080	0	-100	0	230	101300000	1000	0	0	-1	1500
11532475	138	1082	0	-100	0	230	101300000	1000	0	0	-1	1500
11545035	143	1077	0	-100	0	230	101300000	1000	0	0	-1	1500
11557595	140	1079	0	-100	0	230	101300000	1000	0	0	-1	1500
11570155	150	1080	0	-100	0	230	101300000	1000	0	0	-1	1500
11582715	140	1079	0	-100	0	230	101300000	1000	0	0	-1	1500
11595275	135	1081	0	-100	0	230	101300000	1000	0	0	-1	1500
11607835	145	1075	0	-100	0	230	101300000	1000	0	0	-1	1500
11620395	138	1079	0	-100	0	230	101300000	1000	0	0	-1	1500
11632955	138	1079	0	-100	0	230	101300000	1000	0	0	-1	1500
11645515	140	1082	0	-100	0	230	101300000	1000	0	0	-1	1500
11658075	138	1084	0	-100	0	230	101300000	1000	0	0	-1	1500
11670635	145	1080	0	-100	0	230	101300000	1000	0	0	-1	1500
11683195	140	1080	0	-100	0	230	101300000	1000	0	0	-1	1500
11695755	140	1079	0	-100	0	230	101300000	1000	0	0	-1	1500
11708315	135	1078	0	-100	0	230	101300000	1000	0	0	-1	1500
11720875	135	1079	0	-100	0	230	101300000	1000	0	0	-1	1500
11733435	140	1075	0	-100	0	230	101300000	1000	0	0	-1	1500
11745995	138	1079	0	-100	0	230	101300000	1000	0	0	-1	1500
11758555	145	1076	0	-100	0	230	101300000	1000	0	0	-1	1500
11771115	138	1079	0	-100	0	230	101300000	1000	0	0	-1	1500
11783675	140	1077	0	-100	0	230	101300000	1000	0	0	-1	1500
11796235	143	1082	0	-100	0	230	101300000	1000	0	0	-1	1500
11808795	135	1081	0	-100	0	230	101300000	1000	0	0	-1	1500
11821355	138	1082	0	-100	0	230	101300000	1000	0	0	-1	1500
11833915	135	1087	0	-100	0	230	101300000	1000	0	0	-1	1500
11846475	145	1080	0	-100	0	230	101300000	1000	0	0	-1	1500
11859035	140	1078	0	-100	0	230	101300000	1000	0	0	-1	1500
11871595	143	1076	0	-100	0	230	101300000	1000	0	0	-1	1500
11884155	143	1079	0	-100	0	230	101300000	1000	0	0	-1	1500
11896715	135	1079	0	-100	0	230	101300000	1000	0	0	-1	1500
11909275	143	1081	0	-100	0	230	101300000	1000	0	0	-1	1500
11921835	145	1077	0	-100	0	230	101300000	1000	0	0	-1	1500
11934395	138	1080	0	-100	0	230	101300000	1000	0	0	-1	1500
11946955	138	1081	0	-100	0	230	101300000	1000	0	0	-1	1500
11959515	133	1080	0	-100	0	230	101300000	1000	0	0	-1	1500
11972075	138	1081	0	-100	0	230	101300000	1000	0	0	-1	1500
11984635	147	1080	0	-100	0	230	101300000	1000	0	0	-1	1500
11997195	145	1079	0	-100	0	230	101300000	1000	0	0	-1	1500
12009755	135	1084	0	-100	0	230	101300000	1000	0	0	-1	1500
12022315	138	1080	0	-100	0	230	101300000	1000	0	0	-1	1500
12034875	135	1081	0	-100	0	230	101300000	1000	0	0	-1	1500
12047435	140	1076	0	-100	0	230	101300000	1000	0	0	-1	1500
12059995	140	1085	0	-100	0	230	101300000	1000	0	0	-1	1500
12072555	145	1075	0	-100	0	230	101300000	1000	0	0	-1	1500
12085115	143	1074	0	-100	0	230	101300000	1000	0	0	-1	1500
12097675	145	1081	0	-100	0	230	101300000	1000	0	0	-1	1500
12110235	143	1077	0	-100	0	230	101300000	1000	0	0	-1	1500
12122795	138	1076	0	-100	0	230	101300000	1000	0	0	-1	1500
12135355	140	1079	0	-100	0	230	101300000	1000	0	0	-1	1500
12147915	140	1076	0	-100	0	230	101300000	1000	0	0	-1	1500
12160475	135	1078	0	-100	0	230	101300000	1000	0	0	-1	1500
12173035	135	1079	0	-100	0	230	101300000	1000	0	0	-1	1500
12185595	138	1078	0	-100	0	230	101300000	1000	0	0	-1	1500
12198155	150	1075	0	-100	0	230	101300000	1000	0	0	-1	1500
12210715	140	1080	0	-100	0	230	101300000	1000	0	0	-1	1500
12223275	135	1079	0	-100	0	230	101300000	1000	0	0	-1	1500
12235835	138	1080	0	-100	0	230	101300000	1000	0	0	-1	1500
12248395	143	1076	0	-100	0	230	101300000	1000	0	0	-1	1500
12260955	143	1077	0	-100	0	230	101300000	1000	0	0	-1	1500
12273515	138	1082	0	-100	0	230	101300000	1000	0	0	-1	1500
12286075	140	1081	0	-100	0	230	101300000	1000	0	0	-1	1500
12298635	143	1078	0	-100	0	230	101300000	1000	0	0	-1	1500
12311195	145	1077	0	-100	0	230	101300000	1000	0	0	-1	1500
12323755	138	1081	0	-100	0	230	101300000	1000	0	0	-1	1500
12336315	135	1082	0	-100	0	230	101300000	1000	0	0	-1	1500
12348875	145	1079	0	-100	0	230	101300000	1000	0	0	-1	1500
12361435	145	1077	0	-100	0	230	101300000	1000	0	0	-1	1500
12373995	135	1075	0	-100	0	230	101300000	1000	0	0	-1	1500
12386555	135	1078	0	-100	0	230	101300000	1000	0	0	-1	1500
12399115	145	1077	0	-100	0	230	101300000	1000	0	0	-1	1500
12411675	140	1077	0	-100	0	230	101300000	1000	0	0	-1	1500
12424235	138	1079	0	-100	0	230	101300000	1000	0	0	-1	1500
12436795	138	1080	0	-100	0	230	101300000	1000	0	0	-1	1500
12449355	135	1080	0	-100	0	230	101300000	1000	0	0	-1	1500
12461915	145	1078	0	-100	0	230	101300000	1000	0	0	-1	1500
12474475	143	1079	0	-100	0	230	101300000	1000	0	0	-1	1500
12487035	138	1079	0	-100	0	230	101300000	1000	0	0	-1	1500
12499595	140	1077	0	-100	0	230	101300000	1000	0	0	-1	1500
12512155	140	1081	0	-100	0	230	101300000	1000	0	0	-1	1500
12524715	135	1079	0	-100	0	230	101300000	1000	0	0	-1	1500
12537275	140	1078	0	-100	0	230	101300000	1000	0	0	-1	1500
12549835	145	1077	0	-100	0	230	101300000	1000	0	0	-1	1500
12562395	143	1079	0	-100	0	230	101300000	1000	0	0	-1	1500
12574955	145	1079	0	-100	0	230	101300000	1000	0	0	-1	1500
12587515	143	1082	0	-100	0	230	101300000	1000	0	0	-1	1500
12600075	143	1078	0	-100	0	230	101300000	1000	0	0	-1	1500
12612635	142	1077	0	-100	0	230	101300000	1000	0	0	-1	1500
12625195	140	1080	0	-100	0	230	101300000	1000	0	0	-1	1500
12637755	138	1082	0	-100	0	230	101300000	1000	0	0	-1	1500
12650315	138	1082	0	-100	0	230	101300000	1000	0	0	-1	1500
12662875	138	1085	0	-100	0	230	101300000	1000	0	0	-1	1500
12675435	135	1076	0	-100	0	230	101300000	1000	0	0	-1	1500
12687995	140	1079	0	-100	0	230	101300000	1000	0	0	-1	1500
12700555	140	1077	0	-100	0	230	101300000	1000	0	0	-1	1500
12713115	143	1081	0	-100	0	230	101300000	1000	0	0	-1	1500
12725675	145	1078	0	-100	0	230	101300000	1000	0	0	-1	1500
12738235	143	1078	0	-100	0	230	101300000	1000	0	0	-1	1500
12750795	140	1082	0	-100	0	230	101300000	1000	0	0	-1	1500
12763355	138	1076	0	-100	0	230	101300000	1000	0	0	-1	1500
12775915	135	1080	0	-100	0	230	101300000	1000	0	0	-1	1500
12788475	135	1079	0	-100	0	230	101300000	1000	0	0	-1	1500
12801035	138	1079	0	-100	0	230	101300000	1000	0	0	-1	1500
12813595	143	1083	0	-100	0	230	101300000	1000	0	0	-1	1500
12826155	150	1081	0	-100	0	230	101300000	1000	0	0	-1	1500
12838715	140	1075	0	-100	0	230	101300000	1000	0	0	-1	1500
12851275	140	1079	0	-100	0	230	101300000	1000	0	0	-1	1500
12863835	135	1082	0	-100	0	230	101300000	1000	0	0	-1	1500
12876395	135	1079	0	-100	0	230	101300000	1000	0	0	-1	1500
12888955	138	1080	0	-100	0	230	101300000	1000	0	0	-1	1500
12901515	138	1081	0	-100	0	230	101300000	1000	0	0	-1	1500
12914075	138	1082	0	-100	0	230	101300000	1000	0	0	-1	1500
12926635	138	1081	0	-100	0	230	101300000	1000	0	0	-1	1500
12939195	135	1083	0	-100	0	230	101300000	1000	0	0	-1	1500
12951755	135	1081	0	-100	0	230	101300000	1000	0	0	-1	1500
12964315	145	1077	0	-100	0	230	101300000	1000	0	0	-1	1500
12976875	145	1076	0	-100	0	230	101300000	1000	0	0	-1	1500
12989435	140	1077	0	-100	0	230	101300000	1000	0	0	-1	1500
13001995	140	1079	0	-100	0	230	101300000	1000	0	0	-1	1500
13014555	138	1080	0	-100	0	230	101300000	1000	0	0	-1	1500
13027115	135	1081	0	-100	0	230	101300000	1000	0	0	-1	1500
13039675	140	1073	0	-100	0	230	101300000	1000	0	0	-1	1500
13052235	145	1072	0	-100	0	230	101300000	1000	0	0	-1	1500
13064795	140	1078	0	-100	0	230	101300000	1000	0	0	-1	1500
13077355	138	1080	0	-100	0	230	101300000	1000	0	0	-1	1500
13089915	135	1079	0	-100	0	230	101300000	1000	0	0	-1	1500
13102475	143	1076	0	-100	0	230	101300000	1000	0	0	-1	1500
13115035	138	1076	0	-100	0	230	101300000	1000	0	0	-1	1500
13127595	140	1080	0	-100	0	230	101300000	1000	0	0	-1	1500
13140155	140	1081	0	-100	0	230	101300000	1000	0	0	-1	1500
13152715	145	1079	0	-100	0	230	101300000	1000	0	0	-1	1500
13165275	143	1079	0	-100	0	230	101300000	1000	0	0	-1	1500
13177835	135	1082	0	-100	0	230	101300000	1000	0	0	-1	1500
13190395	138	1079	0	-100	0	230	101300000	1000	0	0	-1	1500
13202955	143	1077	0	-100	0	230	101300000	1000	0	0	-1	1500
13215515	135	1083	0	-100	0	230	101300000	1000	0	0	-1	1500
13228075	138	1082	0	-100	0	230	101300000	1000	0	0	-1	1500
13240635	143	1082	0	-100	0	230	101300000	1000	0	0	-1	1500
13253195	143	1078	0	-100	0	230	101300000	1000	0	0	-1	1500
13265755	140	1082	0	-100	0	230	101300000	1000	0	0	-1	1500
13278315	140	1078	0	-100	0	230	101300000	1000	0	0	-1	1500
13290875	138	1078	0	-100	0	230	101300000	1000	0	0	-1	1500
13303435	138	1081	0	-100	0	230	101300000	1000	0	0	-1	1500
13315995	143	1080	0	-100	0	230	101300000	1000	0	0	-1	1500
13328555	138	1081	0	-100	0	230	101300000	1000	0	0	-1	1500
13341115	143	1078	0	-100	0	230	101300000	1000	0	0	-1	1500
13353675	138	1081	0	-100	0	230	101300000	1000	0	0	-1	1500
13366235	135	1079	0	-100	0	230	101300000	1000	0	0	-1	1500
13378795	145	1077	0	-100	0	230	101300000	1000	0	0	-1	1500
13391355	138	1081	0	-100	0	230	101300000	1000	0	0	-1	1500
13403915	143	1079	0	-100	0	230	101300000	1000	0	0	-1	1500
13416475	143	1077	0	-100	0	230	101300000	1000	0	0	-1	1500
13429035	138	1077	0	-100	0	230	101300000	1000	0	0	-1	1500
13441595	138	1079	0	-100	0	230	101300000	1000	0	0	-1	1500
13454155	147	1081	0	-100	0	230	101300000	1000	0	0	-1	1500
13466715	145	1075	0	-100	0	230	101300000	1000	0	0	-1	1500
13479275	145	1082	0	-100	0	230	101300000	1000	0	0	-1	1500
13491835	143	1075	0	-100	0	230	101300000	1000	0	0	-1	1500
13504395	145	1078	0	-100	0	230	101300000	1000	0	0	-1	1500
13516955	145	1075	0	-100	0	230	101300000	1000	0	0	-1	1500
13529515	145	1073	0	-100	0	230	101300000	1000	0	0	-1	1500
13542075	145	1076	0	-100	0	230	101300000	1000	0	0	-1	1500
13554635	138	1079	0	-100	0	230	101300000	1000	0	0	-1	1500
13567195	138	1083	0	-100	0	230	101300000	1000	0	0	-1	1500
13579755	138	1080	0	-100	0	230	101300000	1000	0	0	-1	1500
13592315	138	1078	0	-100	0	230	101300000	1000	0	0	-1	1500
13604875	138	1080	0	-100	0	230	101300000	1000	0	0	-1	1500
13617435	140	1077	0	-100	0	230	101300000	1000	0	0	-1	1500
13629995	138	1081	0	-100	0	230	101300000	1000	0	0	-1	1500
13642555	138	1078	0	-100	0	230	101300000	1000	0	0	-1	1500
13655115	138	1079	0	-100	0	230	101300000	1000	0	0	-1	1500
13667675	140	1078	0	-100	0	230	101300000	1000	0	0	-1	1500
13680235	143	1079	0	-100	0	230	101300000	1000	0	0	-1	1500
13692795	145	1072	0	-100	0	230	101300000	1000	0	0	-1	1500
13705355	140	1089	0	-100	0	230	101300000	1000	0	0	-1	1500
13717915	135	1078	0	-100	0	230	101300000	1000	0	0	-1	1500
13730475	138	1083	0	-100	0	230	101300000	1000	0	0	-1	1500
13743035	138	1081	0	-100	0	230	101300000	1000	0	0	-1	1500
13755595	140	1078	0	-100	0	230	101300000	1000	0	0	-1	1500
13768155	145	1079	0	-100	0	230	101300000	1000	0	0	-1	1500
13780715	135	1078	0	-100	0	230	101300000	1000	0	0	-1	1500
13793275	135	1082	0	-100	0	230	101300000	1000	0	0	-1	1500
13805835	138	1080	0	-100	0	230	101300000	1000	0	0	-1	1500
13818395	138	1077	0	-100	0	230	101300000	1000	0	0	-1	1500
13830955	138	1081	0	-100	0	230	101300000	1000	0	0	-1	1500
13843515	138	1077	0	-100	0	230	101300000	1000	0	0	-1	1500
13856075	135	1081	0	-100	0	230	101300000	1000	0	0	-1	1500
13868635	138	1077	0	-100	0	230	101300000	1000	0	0	-1	1500
13881195	140	1082	0	-100	0	230	101300000	1000	0	0	-1	1500
13893755	138	1084	0	-100	0	230	101300000	1000	0	0	-1	1500
13906315	135	1079	0	-100	0	230	101300000	1000	0	0	-1	1500
13918875	138	1083	0	-100	0	230	101300000	1000	0	0	-1	1500
13931435	138	1080	0	-100	0	230	101300000	1000	0	0	-1	1500
13943995	143	1080	0	-100	0	230	101300000	1000	0	0	-1	1500
13956555	145	1077	0	-100	0	230	101300000	1000	0	0	-1	1500
13969115	138	1076	0	-100	0	230	101300000	1000	0	0	-1	1500
13981675	138	1081	0	-100	0	230	101300000	1000	0	0	-1	1500
13994235	140	1084	0	-100	0	230	101300000	1000	0	0	-1	1500
14006795	138	1081	0	-100	0	230	101300000	1000	0	0	-1	1500
14019355	145	1078	0	-100	0	230	101300000	1000	0	0	-1	1500
14031915	147	1080	0	-100	0	230	101300000	1000	0	0	-1	1500
14044475	147	1076	0	-100	0	230	101300000	1000	0	0	-1	1500
14057035	143	1078	0	-100	0	230	101300000	1000	0	0	-1	1500
14069595	138	1083	0	-100	0	230	101300000	1000	0	0	-1	1500
14082155	138	1079	0	-100	0	230	101300000	1000	0	0	-1	1500
14094715	145	1082	0	-100	0	230	101300000	1000	0	0	-1	1500
14107275	147	1078	0	-100	0	230	101300000	1000	0	0	-1	1500
14119835	147	1075	0	-100	0	230	101300000	1000	0	0	-1	1500
14132395	148	1080	0	-100	0	230	101300000	1000	0	0	-1	1500
14144955	140	1079	0	-100	0	230	101300000	1000	0	0	-1	1500
14157515	138	1079	0	-100	0	230	101300000	1000	0	0	-1	1500
14170075	143	1078	0	-100	0	230	101300000	1000	0	0	-1	1500
14182635	140	1080	0	-100	0	230	101300000	1000	0	0	-1	1500
14195195	143	1080	0	-100	0	230	101300000	1000	0	0	-1	1500
14207755	150	1080	0	-100	0	230	101300000	1000	0	0	-1	1500
14220315	147	1075	0	-100	0	230	101300000	1000	0	0	-1	1500
14232875	147	1080	0	-100	0	230	101300000	1000	0	0	-1	1500
14245435	143	1080	0	-100	0	230	101300000	1000	0	0	-1	1500
14257995	138	1084	0	-100	0	230	101300000	1000	0	0	-1	1500
14270555	140	1080	0	-100	0	230	101300000	1000	0	0	-1	1500
14283115	145	1084	0	-100	0	230	101300000	1000	0	0	-1	1500
14295675	143	1082	0	-100	0	230	101300000	1000	0	0	-1	1500
14308235	145	1080	0	-100	0	230	101300000	1000	0	0	-1	1500
14320795	145	1077	0	-100	0	230	101300000	1000	0	0	-1	1500
14333355	140	1082	0	-100	0	230	101300000	1000	0	0	-1	1500
14345915	140	1081	0	-100	0	230	101300000	1000	0	0	-1	1500
14358475	147	1081	0	-100	0	230	101300000	1000	0	0	-1	1500
14371035	145	1083	0	-100	0	230	101300000	1000	0	0	-1	1500
14383595	140	1078	0	-100	0	230	101300000	1000	0	0	-1	1500
14396155	140	1082	0	-100	0	230	101300000	1000	0	0	-1	1500
14408715	140	1084	0	-100	0	230	101300000	1000	0	0	-1	1500
14421275	145	1076	0	-100	0	230	101300000	1000	0	0	-1	1500
14433835	147	1079	0	-100	0	230	101300000	1000	0	0	-1	1500
14446395	147	1078	0	-100	0	230	101300000	1000	0	0	-1	1500
14458955	143	1078	0	-100	0	230	101300000	1000	0	0	-1	1500
14471515	140	1083	0	-100	0	230	101300000	1000	0	0	-1	1500
14484075	140	1083	0	-100	0	230	101300000	1000	0	0	-1	1500
14496635	143	1082	0	-100	0	230	101300000	1000	0	0	-1	1500
14509195	140	1081	0	-100	0	230	101300000	1000	0	0	-1	1500
14521755	140	1085	0	-100	0	230	101300000	1000	0	0	-1	1500
14534315	147	1081	0	-100	0	230	101300000	1000	0	0	-1	1500
14546875	150	1076	0	-100	0	230	101300000	1000	0	0	-1	1500
14559435	140	1082	0	-100	0	230	101300000	1000	0	0	-1	1500
14571995	140	1078	0	-100	0	230	101300000	1000	0	0	-1	1500
14584555	140	1085	0	-100	0	230	101300000	1000	0	0	-1	1500
14597115	145	1079	0	-100	0	230	101300000	1000	0	0	-1	1500
14609675	147	1081	0	-100	0	230	101300000	1000	0	0	-1	1500
14622235	150	1077	0	-100	0	230	101300000	1000	0	0	-1	1500
14634795	145	1079	0	-100	0	230	101300000	1000	0	0	-1	1500
14647355	140	1091	0	-100	0	230	101300000	1000	0	0	-1	1500
14659915	143	1083	0	-100	0	230	101300000	1000	0	0	-1	1500
14672475	145	1077	0	-100	0	230	101300000	1000	0	0	-1	1500
14685035	145	1080	0	-100	0	230	101300000	1000	0	0	-1	1500
14697595	147	1074	0	-100	0	230	101300000	1000	0	0	-1	1500
14710155	138	1084	0	-100	0	230	101300000	1000	0	0	-1	1500
14722715	140	1083	0	-100	0	230	101300000	1000	0	0	-1	1500
14735275	145	1081	0	-100	0	230	101300000	1000	0	0	-1	1500
14747835	145	1082	0	-100	0	230	101300000	1000	0	0	-1	1500
14760395	140	1082	0	-100	0	230	101300000	1000	0	0	-1	1500
14772955	140	1083	0	-100	0	230	101300000	1000	0	0	-1	1500
14785515	150	1080	0	-100	0	230	101300000	1000	0	0	-1	1500
14798075	143	1077	0	-100	0	230	101300000	1000	0	0	-1	1500
14810635	143	1078	0	-100	0	230	101300000	1000	0	0	-1	1500
14823195	145	1081	0	-100	0	230	101300000	1000	0	0	-1	1500
14835755	147	1080	0	-100	0	230	101300000	1000	0	0	-1	1500
14848315	143	1081	0	-100	0	230	101300000	1000	0	0	-1	1500
14860875	143	1078	0	-100	0	230	101300000	1000	0	0	-1	1500
14873435	150	1074	0	-100	0	230	101300000	1000	0	0	-1	1500
14885995	140	1083	0	-100	0	230	101300000	1000	0	0	-1	1500
14898555	143	1080	0	-100	0	230	101300000	1000	0	0	-1	1500
14911115	145	1079	0	-100	0	230	101300000	1000	0	0	-1	1500
14923675	147	1079	0	-100	0	230	101300000	1000	0	0	-1	1500
14936235	140	1078	0	-100	0	230	101300000	1000	0	0	-1	1500
14948795	143	1077	0	-100	0	230	101300000	1000	0	0	-1	1500
14961355	145	1077	0	-100	0	230	101300000	1000	0	0	-1	1500
14973915	150	1080	0	-100	0	230	101300000	1000	0	0	-1	1500
14986475	143	1081	0	-100	0	230	101300000	1000	0	0	-1	1500
14999035	145	1082	0	-100	0	230	101300000	1000	0	0	-1	1500
15011595	140	1083	0	-100	0	230	101300000	1000	0	0	-1	1500
15024155	142	1076	0	-100	0	230	101300000	1000	0	0	-1	1500
15036715	145	1080	0	-100	0	230	101300000	1000	0	0	-1	1500
15049275	147	1079	0	-100	0	230	101300000	1000	0	0	-1	1500
15061835	143	1078	0	-100	0	230	101300000	1000	0	0	-1	1500
15074395	140	1081	0	-100	0	230	101300000	1000	0	0	-1	1500
15086955	140	1082	0	-100	0	230	101300000	1000	0	0	-1	1500
15099515	140	1083	0	-100	0	230	101300000	1000	0	0	-1	1500
15112075	147	1082	0	-100	0	230	101300000	1000	0	0	-1	1500
15124635	150	1079	0	-100	0	230	101300000	1000	0	0	-1	1500
15137195	140	1082	0	-100	0	230	101300000	1000	0	0	-1	1500
15149755	143	1076	0	-100	0	230	101300000	1000	0	0	-1	1500
15162315	145	1079	0	-100	0	230	101300000	1000	0	0	-1	1500
15174875	150	1081	0	-100	0	230	101300000	1000	0	0	-1	1500
15187435	140	1081	0	-100	0	230	101300000	1000	0	0	-1	1500
15199995	143	1078	0	-100	0	230	101300000	1000	0	0	-1	1500
15212555	143	1077	0	-100	0	230	101300000	1000	0	0	-1	1500
15225115	147	1073	0	-100	0	230	101300000	1000	0	0	-1	1500
15237675	143	1080	0	-100	0	230	101300000	1000	0	0	-1	1500
15250235	143	1080	0	-100	0	230	101300000	1000	0	0	-1	1500
15262795	147	1079	0	-100	0	230	101300000	1000	0	0	-1	1500
15275355	145	1078	0	-100	0	230	101300000	1000	0	0	-1	1500
15287915	143	1085	0	-100	0	230	101300000	1000	0	0	-1	1500
15300475	145	1077	0	-100	0	230	101300000	1000	0	0	-1	1500
15313035	143	1078	0	-100	0	230	101300000	1000	0	0	-1	1500
15325595	143	1074	0	-100	0	230	101300000	1000	0	0	-1	1500
15338155	143	1079	0	-100	0	230	101300000	1000	0	0	-1	1500
15350715	143	1080	0	-100	0	230	101300000	1000	0	0	-1	1500
15363275	143	1080	0	-100	0	230	101300000	1000	0	0	-1	1500
15375835	143	1080	0	-100	0	230	101300000	1000	0	0	-1	1500
15388395	147	1078	0	-100	0	230	101300000	1000	0	0	-1	1500
15400955	138	1082	0	-100	0	230	101300000	1000	0	0	-1	1500
15413515	140	1080	0	-100	0	230	101300000	1000	0	0	-1	1500
15426075	147	1078	0	-100	0	230	101300000	1000	0	0	-1	1500
15438635	143	1077	0	-100	0	230	101300000	1000	0	0	-1	1500
15451195	140	1082	0	-100	0	230	101300000	1000	0	0	-1	1500
15463755	140	1082	0	-100	0	230	101300000	1000	0	0	-1	1500
15476315	147	1079	0	-100	0	230	101300000	1000	0	0	-1	1500
15488875	143	1078	0	-100	0	230	101300000	1000	0	0	-1	1500
15501435	138	1082	0	-100	0	230	101300000	1000	0	0	-1	1500
15513995	143	1078	0	-100	0	230	101300000	1000	0	0	-1	1500
15526555	145	1078	0	-100	0	230	101300000	1000	0	0	-1	1500
15539115	140	1080	0	-100	0	230	101300000	1000	0	0	-1	1500
15551675	150	1078	0	-100	0	230	101300000	1000	0	0	-1	1500
15564235	140	1084	0	-100	0	230	101300000	1000	0	0	-1	1500
15576795	143	1078	0	-100	0	230	101300000	1000	0	0	-1	1500
15589355	147	1077	0	-100	0	230	101300000	1000	0	0	-1	1500
15601915	140	1081	0	-100	0	230	101300000	1000	0	0	-1	1500
15614475	143	1080	0	-100	0	230	101300000	1000	0	0	-1	1500
15627035	145	1080	0	-100	0	230	101300000	1000	0	0	-1	1500
15639595	147	1077	0	-100	0	230	101300000	1000	0	0	-1	1500
15652155	138	1084	0	-100	0	230	101300000	1000	0	0	-1	1500
15664715	145	1081	0	-100	0	230	101300000	1000	0	0	-1	1500
15677275	143	1080	0	-100	0	230	101300000	1000	0	0	-1	1500
15689835	143	1081	0	-100	0	230	101300000	1000	0	0	-1	1500
15702395	145	1079	0	-100	0	230	101300000	1000	0	0	-1	1500
15714955	143	1080	0	-100	0	230	101300000	1000	0	0	-1	1500
15727515	140	1083	0	-100	0	230	101300000	1000	0	0	-1	1500
15740075	140	1078	0	-100	0	230	101300000	1000	0	0	-1	1500
15752635	147	1076	0	-100	0	230	101300000	1000	0	0	-1	1500
15765195	140	1081	0	-100	0	230	101300000	1000	0	0	-1	1500
15777755	143	1080	0	-100	0	230	101300000	1000	0	0	-1	1500
15790315	147	1075	0	-100	0	230	101300000	1000	0	0	-1	1500
15802875	147	1078	0	-100	0	230	101300000	1000	0	0	-1	1500
15815435	140	1079	0	-100	0	230	101300000	1000	0	0	-1	1500
15827995	143	1080	0	-100	0	230	101300000	1000	0	0	-1	1500
15840555	143	1082	0	-100	0	230	101300000	1000	0	0	-1	1500
15853115	145	1080	0	-100	0	230	101300000	1000	0	0	-1	1500
15865675	147	1076	0	-100	0	230	101300000	1000	0	0	-1	1500
15878235	140	1081	0	-100	0	230	101300000	1000	0	0	-1	1500
15890795	140	1081	0	-100	0	230	101300000	1000	0	0	-1	1500
15903355	147	1078	0	-100	0	230	101300000	1000	0	0	-1	1500
15915915	138	1081	0	-100	0	230	101300000	1000	0	0	-1	1500
15928475	140	1085	0	-100	0	230	101300000	1000	0	0	-1	1500
15941035	147	1078	0	-100	0	230	101300000	1000	0	0	-1	1500
15953595	147	1077	0	-100	0	230	101300000	1000	0	0	-1	1500
15966155	135	1078	0	-100	0	230	101300000	1000	0	0	-1	1500
15978715	143	1083	0	-100	0	230	101300000	1000	0	0	-1	1500
15991275	143	1082	0	-100	0	230	101300000	1000	0	0	-1	1500
16003835	145	1079	0	-100	0	230	101300000	1000	0	0	-1	1500
16016395	147	1078	0	-100	0	230	101300000	1000	0	0	-1	1500
16028955	140	1081	0	-100	0	230	101300000	1000	0	0	-1	1500
16041515	143	1078	0	-100	0	230	101300000	1000	0	0	-1	1500
16054075	140	1081	0	-100	0	230	101300000	1000	0	0	-1	1500
16066635	143	1078	0	-100	0	230	101300000	1000	0	0	-1	1500
16079195	147	1079	0	-100	0	230	101300000	1000	0	0	-1	1500
16091755	147	1076	0	-100	0	230	101300000	1000	0	0	-1	1500
16104315	150	1081	0	-100	0	230	101300000	1000	0	0	-1	1500
16116875	138	1080	0	-100	0	230	101300000	1000	0	0	-1	1500
16129435	143	1079	0	-100	0	230	101300000	1000	0	0	-1	1500
16141995	147	1078	0	-100	0	230	101300000	1000	0	0	-1	1500
16154555	140	1081	0	-100	0	230	101300000	1000	0	0	-1	1500
16167115	140	1080	0	-100	0	230	101300000	1000	0	0	-1	1500
16179675	147	1077	0	-100	0	230	101300000	1000	0	0	-1	1500
16192235	140	1084	0	-100	0	230	101300000	1000	0	0	-1	1500
16204795	145	1077	0	-100	0	230	101300000	1000	0	0	-1	1500
16217355	140	1080	0	-100	0	230	101300000	1000	0	0	-1	1500
16229915	143	1083	0	-100	0	230	101300000	1000	0	0	-1	1500
16242475	150	1076	0	-100	0	230	101300000	1000	0	0	-1	1500
16255035	138	1082	0	-100	0	230	101300000	1000	0	0	-1	1500
16267595	145	1078	0	-100	0	230	101300000	1000	0	0	-1	1500
16280155	140	1081	0	-100	0	230	101300000	1000	0	0	-1	1500
16292715	140	1081	0	-100	0	230	101300000	1000	0	0	-1	1500
16305275	143	1076	0	-100	0	230	101300000	1000	0	0	-1	1500
16317835	147	1081	0	-100	0	230	101300000	1000	0	0	-1	1500
16330395	140	1081	0	-100	0	230	101300000	1000	0	0	-1	1500
16342955	143	1083	0	-100	0	230	101300000	1000	0	0	-1	1500
16355515	147	1077	0	-100	0	230	101300000	1000	0	0	-1	1500
16368075	143	1076	0	-100	0	230	101300000	1000	0	0	-1	1500
16380635	140	1082	0	-100	0	230	101300000	1000	0	0	-1	1500
16393195	138	1081	0	-100	0	230	101300000	1000	0	0	-1	1500
16405755	147	1081	0	-100	0	230	101300000	1000	0	0	-1	1500
16418315	147	1077	0	-100	0	230	101300000	1000	0	0	-1	1500
16430875	138	1080	0	-100	0	230	101300000	1000	0	0	-1	1500
16443435	143	1076	0	-100	0	230	101300000	1000	0	0	-1	1500
16455995	143	1080	0	-100	0	230	101300000	1000	0	0	-1	1500
16468555	148	1079	0	-100	0	230	101300000	1000	0	0	-1	1500
16481115	147	1079	0	-100	0	230	101300000	1000	0	0	-1	1500
16493675	150	1079	0	-100	0	230	101300000	1000	0	0	-1	1500
16506235	147	1077	0	-100	0	230	101300000	1000	0	0	-1	1500
16518795	150	1077	0	-100	0	230	101300000	1000	0	0	-1	1500
16531355	147	1079	0	-100	0	230	101300000	1000	0	0	-1	1500
16543915	145	1080	0	-100	0	230	101300000	1000	0	0	-1	1500
16556475	140	1080	0	-100	0	230	101300000	1000	0	0	-1	1500
16569035	138	1081	0	-100	0	230	101300000	1000	0	0	-1	1500
16581595	143	1080	0	-100	0	230	101300000	1000	0	0	-1	1500
16594155	138	1081	0	-100	0	230	101300000	1000	0	0	-1	1500
16606715	145	1081	0	-100	0	230	101300000	1000	0	0	-1	1500
16619275	147	1077	0	-100	0	230	101300000	1000	0	0	-1	1500
16631835	150	1083	0	-100	0	230	101300000	1000	0	0	-1	1500
16644395	140	1083	0	-100	0	230	101300000	1000	0	0	-1	1500
16656955	140	1085	0	-100	0	230	101300000	1000	0	0	-1	1500
16669515	140	1079	0	-100	0	230	101300000	1000	0	0	-1	1500
16682075	143	1078	0	-100	0	230	101300000	1000	0	0	-1	1500
16694635	147	1078	0	-100	0	230	101300000	1000	0	0	-1	1500
16707195	150	1076	0	-100	0	230	101300000	1000	0	0	-1	1500
16719755	145	1081	0	-100	0	230	101300000	1000	0	0	-1	1500
16732315	143	1079	0	-100	0	230	101300000	1000	0	0	-1	1500
16744875	140	1080	0	-100	0	230	101300000	1000	0	0	-1	1500
16757435	145	1079	0	-100	0	230	101300000	1000	0	0	-1	1500
16769995	145	1077	0	-100	0	230	101300000	1000	0	0	-1	1500
16782555	143	1079	0	-100	0	230	101300000	1000	0	0	-1	1500
16795115	138	1082	0	-100	0	230	101300000	1000	0	0	-1	1500
16807675	143	1082	0	-100	0	230	101300000	1000	0	0	-1	1500
16820235	140	1082	0	-100	0	230	101300000	1000	0	0	-1	1500
16832795	140	1081	0	-100	0	230	101300000	1000	0	0	-1	1500
16845355	138	1081	0	-100	0	230	101300000	1000	0	0	-1	1500
16857915	138	1082	0	-100	0	230	101300000	1000	0	0	-1	1500
16870475	143	1078	0	-100	0	230	101300000	1000	0	0	-1	1500
16883035	143	1080	0	-100	0	230	101300000	1000	0	0	-1	1500
16895595	140	1085	0	-100	0	230	101300000	1000	0	0	-1	1500
16908155	138	1081	0	-100	0	230	101300000	1000	0	0	-1	1500
16920715	143	1081	0	-100	0	230	101300000	1000	0	0	-1	1500
16933275	143	1081	0	-100	0	230	101300000	1000	0	0	-1	1500
16945835	145	1077	0	-100	0	230	101300000	1000	0	0	-1	1500
16958395	147	1073	0	-100	0	230	101300000	1000	0	0	-1	1500
16970955	143	1079	0	-100	0	230	101300000	1000	0	0	-1	1500
16983515	140	1079	0	-100	0	230	101300000	1000	0	0	-1	1500
16996075	143	1081	0	-100	0	230	101300000	1000	0	0	-1	1500
17008635	145	1078	0	-100	0	230	101300000	1000	0	0	-1	1500
17021195	147	1074	0	-100	0	230	101300000	1000	0	0	-1	1500
17033755	148	1078	0	-100	0	230	101300000	1000	0	0	-1	1500
17046315	138	1081	0	-100	0	230	101300000	1000	0	0	-1	1500
17058875	140	1084	0	-100	0	230	101300000	1000	0	0	-1	1500
17071435	138	1081	0	-100	0	230	101300000	1000	0	0	-1	1500
17083995	147	1078	0	-100	0	230	101300000	1000	0	0	-1	1500
17096555	147	1078	0	-100	0	230	101300000	1000	0	0	-1	1500
17109115	150	1078	0	-100	0	230	101300000	1000	0	0	-1	1500
17121675	143	1080	0	-100	0	230	101300000	1000	0	0	-1	1500
17134235	138	1081	0	-100	0	230	101300000	1000	0	0	-1	1500
17146795	140	1081	0	-100	0	230	101300000	1000	0	0	-1	1500
17159355	143	1083	0	-100	0	230	101300000	1000	0	0	-1	1500
17171915	145	1081	0	-100	0	230	101300000	1000	0	0	-1	1500
17184475	143	1083	0	-100	0	230	101300000	1000	0	0	-1	1500
17197035	145	1080	0	-100	0	230	101300000	1000	0	0	-1	1500
17209595	147	1076	0	-100	0	230	101300000	1000	0	0	-1	1500
17222155	138	1079	0	-100	0	230	101300000	1000	0	0	-1	1500
17234715	143	1078	0	-100	0	230	101300000	1000	0	0	-1	1500
17247275	145	1080	0	-100	0	230	101300000	1000	0	0	-1	1500
17259835	147	1078	0	-100	0	230	101300000	1000	0	0	-1	1500
17272395	140	1080	0	-100	0	230	101300000	1000	0	0	-1	1500
17284955	140	1083	0	-100	0	230	101300000	1000	0	0	-1	1500
17297515	140	1081	0	-100	0	230	101300000	1000	0	0	-1	1500
17310075	143	1079	0	-100	0	230	101300000	1000	0	0	-1	1500
17322635	145	1076	0	-100	0	230	101300000	1000	0	0	-1	1500
17335195	150	1081	0	-100	0	230	101300000	1000	0	0	-1	1500
17347755	140	1083	0	-100	0	230	101300000	1000	0	0	-1	1500
17360315	143	1085	0	-100	0	230	101300000	1000	0	0	-1	1500
17372875	143	1081	0	-100	0	230	101300000	1000	0	0	-1	1500
17385435	150	1080	0	-100	0	230	101300000	1000	0	0	-1	1500
17397995	150	1082	0	-100	0	230	101300000	1000	0	0	-1	1500
17410555	145	1084	0	-100	0	230	101300000	1000	0	0	-1	1500
17423115	143	1080	0	-100	0	230	101300000	1000	0	0	-1	1500
17435675	140	1083	0	-100	0	230	101300000	1000	0	0	-1	1500
17448235	143	1081	0	-100	0	230	101300000	1000	0	0	-1	1500
17460795	140	1079	0	-100	0	230	101300000	1000	0	0	-1	1500
17473355	145	1078	0	-100	0	230	101300000	1000	0	0	-1	1500
17485915	147	1080	0	-100	0	230	101300000	1000	0	0	-1	1500
17498475	150	1079	0	-100	0	230	101300000	1000	0	0	-1	1500
17511035	143	1081	0	-100	0	230	101300000	1000	0	0	-1	1500
17523595	138	1083	0	-100	0	230	101300000	1000	0	0	-1	1500
17536155	140	1081	0	-100	0	230	101300000	1000	0	0	-1	1500
17548715	140	1080	0	-100	0	230	101300000	1000	0	0	-1	1500
17561275	145	1079	0	-100	0	230	101300000	1000	0	0	-1	1500
17573835	147	1077	0	-100	0	230	101300000	1000	0	0	-1	1500
17586395	140	1080	0	-100	0	230	101300000	1000	0	0	-1	1500
17598955	138	1081	0	-100	0	230	101300000	1000	0	0	-1	1500
17611515	143	1077	0	-100	0	230	101300000	1000	0	0	-1	1500
17624075	140	1082	0	-100	0	230	101300000	1000	0	0	-1	1500
17636635	145	1078	0	-100	0	230	101300000	1000	0	0	-1	1500
17649195	147	1078	0	-100	0	230	101300000	1000	0	0	-1	1500
17661755	147	1072	0	-100	0	230	101300000	1000	0	0	-1	1500
17674315	147	1077	0	-100	0	230	101300000	1000	0	0	-1	1500
17686875	143	1076	0	-100	0	230	101300000	1000	0	0	-1	1500
17699435	143	1079	0	-100	0	230	101300000	1000	0	0	-1	1500
17711995	143	1081	0	-100	0	230	101300000	1000	0	0	-1	1500
17724555	145	1082	0	-100	0	230	101300000	1000	0	0	-1	1500
17737115	145	1082	0	-100	0	230	101300000	1000	0	0	-1	1500
17749675	147	1077	0	-100	0	230	101300000	1000	0	0	-1	1500
17762235	148	1078	0	-100	0	230	101300000	1000	0	0	-1	1500
17774795	143	1079	0	-100	0	230	101300000	1000	0	0	-1	1500
17787355	140	1078	0	-100	0	230	101300000	1000	0	0	-1	1500
17799915	140	1080	0	-100	0	230	101300000	1000	0	0	-1	1500
17812475	140	1078	0	-100	0	230	101300000	1000	0	0	-1	1500
17825035	140	1080	0	-100	0	230	101300000	1000	0	0	-1	1500
17837595	138	1079	0	-100	0	230	101300000	1000	0	0	-1	1500
17850155	138	1080	0	-100	0	230	101300000	1000	0	0	-1	1500
17862715	138	1082	0	-100	0	230	101300000	1000	0	0	-1	1500
17875275	140	1079	0	-100	0	230	101300000	1000	0	0	-1	1500
17887835	140	1082	0	-100	0	230	101300000	1000	0	0	-1	1500
17900395	143	1077	0	-100	0	230	101300000	1000	0	0	-1	1500
17912955	140	1083	0	-100	0	230	101300000	1000	0	0	-1	1500
17925515	143	1082	0	-100	0	230	101300000	1000	0	0	-1	1500
17938075	140	1079	0	-100	0	230	101300000	1000	0	0	-1	1500
17950635	143	1077	0	-100	0	230	101300000	1000	0	0	-1	1500
17963195	143	1077	0	-100	0	230	101300000	1000	0	0	-1	1500
17975755	140	1085	0	-100	0	230	101300000	1000	0	0	-1	1500
17988315	143	1079	0	-100	0	230	101300000	1000	0	0	-1	1500
18000875	143	1081	0	-100	0	230	101300000	1000	0	0	-1	1500
18013435	143	1081	0	-100	0	230	101300000	1000	0	0	-1	1500
18025995	140	1078	0	-100	0	230	101300000	1000	0	0	-1	1500
18038555	140	1080	0	-100	0	230	101300000	1000	0	0	-1	1500
18051115	143	1077	0	-100	0	230	101300000	1000	0	0	-1	1500
18063675	143	1076	0	-100	0	230	101300000	1000	0	0	-1	1500
18076235	147	1079	0	-100	0	230	101300000	1000	0	0	-1	1500
18088795	145	1077	0	-100	0	230	101300000	1000	0	0	-1	1500
18101355	147	1079	0	-100	0	230	101300000	1000	0	0	-1	1500
18113915	140	1081	0	-100	0	230	101300000	1000	0	0	-1	1500
18126475	140	1084	0	-100	0	230	101300000	1000	0	0	-1	1500
18139035	140	1082	0	-100	0	230	101300000	1000	0	0	-1	1500
18151595	138	1082	0	-100	0	230	101300000	1000	0	0	-1	1500
18164155	140	1075	0	-100	0	230	101300000	1000	0	0	-1	1500
18176715	143	1082	0	-100	0	230	101300000	1000	0	0	-1	1500
18189275	138	1081	0	-100	0	230	101300000	1000	0	0	-1	1500
18201835	140	1083	0	-100	0	230	101300000	1000	0	0	-1	1500
18214395	143	1080	0	-100	0	230	101300000	1000	0	0	-1	1500
18226955	143	1081	0	-100	0	230	101300000	1000	0	0	-1	1500
18239515	143	1080	0	-100	0	230	101300000	1000	0	0	-1	1500
18252075	143	1077	0	-100	0	230	101300000	1000	0	0	-1	1500
18264635	140	1084	0	-100	0	230	101300000	1000	0	0	-1	1500
18277195	143	1080	0	-100	0	230	101300000	1000	0	0	-1	1500
18289755	147	1077	0	-100	0	230	101300000	1000	0	0	-1	1500
18302315	147	1079	0	-100	0	230	101300000	1000	0	0	-1	1500
18314875	147	1079	0	-100	0	230	101300000	1000	0	0	-1	1500
18327435	140	1081	0	-100	0	230	101300000	1000	0	0	-1	1500
18339995	143	1083	0	-100	0	230	101300000	1000	0	0	-1	1500
18352555	140	1083	0	-100	0	230	101300000	1000	0	0	-1	1500
18365115	143	1078	0	-100	0	230	101300000	1000	0	0	-1	1500
18377675	145	1078	0	-100	0	230	101300000	1000	0	0	-1	1500
18390235	147	1075	0	-100	0	230	101300000	1000	0	0	-1	1500
18402795	145	1080	0	-100	0	230	101300000	1000	0	0	-1	1500
18415355	138	1080	0	-100	0	230	101300000	1000	0	0	-1	1500
18427915	140	1083	0	-100	0	230	101300000	1000	0	0	-1	1500
18440475	143	1081	0	-100	0	230	101300000	1000	0	0	-1	1500
18453035	145	1080	0	-100	0	230	101300000	1000	0	0	-1	1500
18465595	145	1078	0	-100	0	230	101300000	1000	0	0	-1	1500
18478155	138	1079	0	-100	0	230	101300000	1000	0	0	-1	1500
18490715	145	1080	0	-100	0	230	101300000	1000	0	0	-1	1500
18503275	147	1075	0	-100	0	230	101300000	1000	0	0	-1	1500
18515835	143	1079	0	-100	0	230	101300000	1000	0	0	-1	1500
18528395	143	1079	0	-100	0	230	101300000	1000	0	0	-1	1500
18540955	140	1079	0	-100	0	230	101300000	1000	0	0	-1	1500
18553515	140	1080	0	-100	0	230	101300000	1000	0	0	-1	1500
18566075	143	1078	0	-100	0	230	101300000	1000	0	0	-1	1500
18578635	145	1078	0	-100	0	230	101300000	1000	0	0	-1	1500
18591195	147	1081	0	-100	0	230	101300000	1000	0	0	-1	1500
18603755	147	1078	0	-100	0	230	101300000	1000	0	0	-1	1500
18616315	147	1078	0	-100	0	230	101300000	1000	0	0	-1	1500
18628875	150	1078	0	-100	0	230	101300000	1000	0	0	-1	1500
18641435	147	1077	0	-100	0	230	101300000	1000	0	0	-1	1500
18653995	150	1080	0	-100	0	230	101300000	1000	0	0	-1	1500
18666555	150	1076	0	-100	0	230	101300000	1000	0	0	-1	1500
18679115	148	1077	0	-100	0	230	101300000	1000	0	0	-1	1500
18691675	150	1081	0	-100	0	230	101300000	1000	0	0	-1	1500
18704235	150	1080	0	-100	0	230	101300000	1000	0	0	-1	1500
18716795	152	1081	0	-100	0	230	101300000	1000	0	0	-1	1500
18729355	148	1080	0	-100	0	230	101300000	1000	0	0	-1	1500
18741915	143	1080	0	-100	0	230	101300000	1000	0	0	-1	1500
18754475	140	1084	0	-100	0	230	101300000	1000	0	0	-1	1500
18767035	140	1082	0	-100	0	230	101300000	1000	0	0	-1	1500
18779595	143	1083	0	-100	0	230	101300000	1000	0	0	-1	1500
18792155	138	1078	0	-100	0	230	101300000	1000	0	0	-1	1500
18804715	145	1081	0	-100	0	230	101300000	1000	0	0	-1	1500
18817275	147	1074	0	-100	0	230	101300000	1000	0	0	-1	1500
18829835	150	1084	0	-100	0	230	101300000	1000	0	0	-1	1500
18842395	140	1077	0	-100	0	230	101300000	1000	0	0	-1	1500
18854955	140	1085	0	-100	0	230	101300000	1000	0	0	-1	1500
18867515	140	1079	0	-100	0	230	101300000	1000	0	0	-1	1500
18880075	145	1079	0	-100	0	230	101300000	1000	0	0	-1	1500
18892635	145	1080	0	-100	0	230	101300000	1000	0	0	-1	1500
18905195	147	1076	0	-100	0	230	101300000	1000	0	0	-1	1500
18917755	147	1077	0	-100	0	230	101300000	1000	0	0	-1	1500
18930315	148	1080	0	-100	0	230	101300000	1000	0	0	-1	1500
18942875	145	1080	0	-100	0	230	101300000	1000	0	0	-1	1500
18955435	143	1080	0	-100	0	230	101300000	1000	0	0	-1	1500
18967995	143	1080	0	-100	0	230	101300000	1000	0	0	-1	1500
18980555	143	1077	0	-100	0	230	101300000	1000	0	0	-1	1500
18993115	145	1079	0	-100	0	230	101300000	1000	0	0	-1	1500
19005675	150	1081	0	-100	0	230	101300000	1000	0	0	-1	1500
19018235	147	1076	0	-100	0	230	101300000	1000	0	0	-1	1500
19030795	147	1080	0	-100	0	230	101300000	1000	0	0	-1	1500
19043355	145	1078	0	-100	0	230	101300000	1000	0	0	-1	1500
19055915	145	1093	0	-100	0	230	101300000	1000	0	0	-1	1500
19068475	145	1078	0	-100	0	230	101300000	1000	0	0	-1	1500
19081035	145	1080	0	-100	0	230	101300000	1000	0	0	-1	1500
19093595	147	1077	0	-100	0	230	101300000	1000	0	0	-1	1500
19106155	143	1079	0	-100	0	230	101300000	1000	0	0	-1	1500
19118715	145	1078	0	-100	0	230	101300000	1000	0	0	-1	1500
19131275	150	1082	0	-100	0	230	101300000	1000	0	0	-1	1500
19143835	147	1078	0	-100	0	230	101300000	1000	0	0	-1	1500
19156395	147	1078	0	-100	0	230	101300000	1000	0	0	-1	1500
19168955	148	1078	0	-100	0	230	101300000	1000	0	0	-1	1500
19181515	140	1078	0	-100	0	230	101300000	1000	0	0	-1	1500
19194075	140	1081	0	-100	0	230	101300000	1000	0	0	-1	1500
19206635	145	1081	0	-100	0	230	101300000	1000	0	0	-1	1500
19219195	147	1077	0	-100	0	230	101300000	1000	0	0	-1	1500
19231755	143	1079	0	-100	0	230	101300000	1000	0	0	-1	1500
19244315	140	1083	0	-100	0	230	101300000	1000	0	0	-1	1500
19256875	143	1080	0	-100	0	230	101300000	1000	0	0	-1	1500
19269435	140	1079	0	-100	0	230	101300000	1000	0	0	-1	1500
19281995	140	1080	0	-100	0	230	101300000	1000	0	0	-1	1500
19294555	143	1078	0	-100	0	230	101300000	1000	0	0	-1	1500
19307115	143	1078	0	-100	0	230	101300000	1000	0	0	-1	1500
19319675	145	1078	0	-100	0	230	101300000	1000	0	0	-1	1500
19332235	147	1081	0	-100	0	230	101300000	1000	0	0	-1	1500
19344795	147	1076	0	-100	0	230	101300000	1000	0	0	-1	1500
19357355	140	1079	0	-100	0	230	101300000	1000	0	0	-1	1500
19369915	140	1083	0	-100	0	230	101300000	1000	0	0	-1	1500
19382475	138	1084	0	-100	0	230	101300000	1000	0	0	-1	1500
19395035	145	1078	0	-100	0	230	101300000	1000	0	0	-1	1500
19407595	150	1078	0	-100	0	230	101300000	1000	0	0	-1	1500
19420155	138	1079	0	-100	0	230	101300000	1000	0	0	-1	1500
19432715	138	1079	0	-100	0	230	101300000	1000	0	0	-1	1500
19445275	140	1082	0	-100	0	230	101300000	1000	0	0	-1	1500
19457835	138	1081	0	-100	0	230	101300000	1000	0	0	-1	1500
19470395	140	1081	0	-100	0	230	101300000	1000	0	0	-1	1500
19482955	143	1077	0	-100	0	230	101300000	1000	0	0	-1	1500
19495515	140	1081	0	-100	0	230	101300000	1000	0	0	-1	1500
19508075	143	1079	0	-100	0	230	101300000	1000	0	0	-1	1500
19520635	147	1081	0	-100	0	230	101300000	1000	0	0	-1	1500
19533195	147	1075	0	-100	0	230	101300000	1000	0	0	-1	1500
19545755	147	1080	0	-100	0	230	101300000	1000	0	0	-1	1500
19558315	145	1081	0	-100	0	230	101300000	1000	0	0	-1	1500
19570875	138	1079	0	-100	0	230	101300000	1000	0	0	-1	1500
19583435	138	1083	0	-100	0	230	101300000	1000	0	0	-1	1500
19595995	143	1078	0	-100	0	230	101300000	1000	0	0	-1	1500
19608555	140	1083	0	-100	0	230	101300000	1000	0	0	-1	1500
19621115	143	1077	0	-100	0	230	101300000	1000	0	0	-1	1500
19633675	147	1079	0	-100	0	230	101300000	1000	0	0	-1	1500
19646235	147	1074	0	-100	0	230	101300000	1000	0	0	-1	1500
19658795	145	1078	0	-100	0	230	101300000	1000	0	0	-1	1500
19671355	138	1082	0	-100	0	230	101300000	1000	0	0	-1	1500
19683915	140	1084	0	-100	0	230	101300000	1000	0	0	-1	1500
19696475	143	1079	0	-100	0	230	101300000	1000	0	0	-1	1500
19709035	140	1085	0	-100	0	230	101300000	1000	0	0	-1	1500
19721595	143	1078	0	-100	0	230	101300000	1000	0	0	-1	1500
19734155	142	1080	0	-100	0	230	101300000	1000	0	0	-1	1500
19746715	150	1079	0	-100	0	230	101300000	1000	0	0	-1	1500
19759275	147	1077	0	-100	0	230	101300000	1000	0	0	-1	1500
19771835	140	1082	0	-100	0	230	101300000	1000	0	0	-1	1500
19784395	140	1081	0	-100	0	230	101300000	1000	0	0	-1	1500
19796955	140	1083	0	-100	0	230	101300000	1000	0	0	-1	1500
19809515	140	1083	0	-100	0	230	101300000	1000	0	0	-1	1500
19822075	145	1081	0	-100	0	230	101300000	1000	0	0	-1	1500
19834635	147	1077	0	-100	0	230	101300000	1000	0	0	-1	1500
19847195	147	1078	0	-100	0	230	101300000	1000	0	0	-1	1500
19859755	148	1076	0	-100	0	230	101300000	1000	0	0	-1	1500
19872315	145	1076	0	-100	0	230	101300000	1000	0	0	-1	1500
19884875	147	1079	0	-100	0	230	101300000	1000	0	0	-1	1500
19897435	143	1080	0	-100	0	230	101300000	1000	0	0	-1	1500
19909995	140	1081	0	-100	0	230	101300000	1000	0	0	-1	1500
19922555	140	1082	0	-100	0	230	101300000	1000	0	0	-1	1500
19935115	140	1081	0	-100	0	230	101300000	1000	0	0	-1	1500
19947675	140	1078	0	-100	0	230	101300000	1000	0	0	-1	1500
19960235	138	1080	0	-100	0	230	101300000	1000	0	0	-1	1500
19972795	138	1080	0	-100	0	230	101300000	1000	0	0	-1	1500
19985355	143	1081	0	-100	0	230	101300000	1000	0	0	-1	1500
19997915	140	1081	0	-100	0	230	101300000	1000	0	0	-1	1500
20010475	143	1077	0	-100	0	230	101300000	1000	0	0	-1	1500
20023035	150	1077	0	-100	0	230	101300000	1000	0	0	-1	1500
20035595	145	1078	0	-100	0	230	101300000	1000	0	0	-1	1500
20048155	138	1082	0	-100	0	230	101300000	1000	0	0	-1	1500
20060715	140	1082	0	-100	0	230	101300000	1000	0	0	-1	1500
20073275	140	1080	0	-100	0	230	101300000	1000	0	0	-1	1500
20085835	145	1081	0	-100	0	230	101300000	1000	0	0	-1	1500
20098395	147	1077	0	-100	0	230	101300000	1000	0	0	-1	1500
20110955	150	1081	0	-100	0	230	101300000	1000	0	0	-1	1500
20123515	140	1080	0	-100	0	230	101300000	1000	0	0	-1	1500
20136075	140	1082	0	-100	0	230	101300000	1000	0	0	-1	1500
20148635	147	1077	0	-100	0	230	101300000	1000	0	0	-1	1500
20161195	145	1077	0	-100	0	230	101300000	1000	0	0	-1	1500
20173755	140	1083	0	-100	0	230	101300000	1000	0	0	-1	1500
20186315	143	1078	0	-100	0	230	101300000	1000	0	0	-1	1500
20198875	150	1081	0	-100	0	230	101300000	1000	0	0	-1	1500
20211435	138	1079	0	-100	0	230	101300000	1000	0	0	-1	1500
20223995	143	1079	0	-100	0	230	101300000	1000	0	0	-1	1500
20236555	145	1079	0	-100	0	230	101300000	1000	0	0	-1	1500
20249115	145	1080	0	-100	0	230	101300000	1000	0	0	-1	1500
20261675	143	1083	0	-100	0	230	101300000	1000	0	0	-1	1500
20274235	140	1084	0	-100	0	230	101300000	1000	0	0	-1	1500
20286795	147	1079	0	-100	0	230	101300000	1000	0	0	-1	1500
20299355	145	1078	0	-100	0	230	101300000	1000	0	0	-1	1500
20311915	140	1082	0	-100	0	230	101300000	1000	0	0	-1	1500
20324475	140	1081	0	-100	0	230	101300000	1000	0	0	-1	1500
20337035	147	1078	0	-100	0	230	101300000	1000	0	0	-1	1500
20349595	150	1080	0	-100	0	230	101300000	1000	0	0	-1	1500
20362155	138	1080	0	-100	0	230	101300000	1000	0	0	-1	1500
20374715	143	1079	0	-100	0	230	101300000	1000	0	0	-1	1500
20387275	143	1077	0	-100	0	230	101300000	1000	0	0	-1	1500
20399835	147	1074	0	-100	0	230	101300000	1000	0	0	-1	1500
20412395	138	1082	0	-100	0	230	101300000	1000	0	0	-1	1500
20424955	143	1078	0	-100	0	230	101300000	1000	0	0	-1	1500
20437515	147	1077	0	-100	0	230	101300000	1000	0	0	-1	1500
20450075	150	1081	0	-100	0	230	101300000	1000	0	0	-1	1500
20462635	140	1082	0	-100	0	230	101300000	1000	0	0	-1	1500
20475195	143	1082	0	-100	0	230	101300000	1000	0	0	-1	1500
20487755	145	1075	0	-100	0	230	101300000	1000	0	0	-1	1500
20500315	147	1078	0	-100	0	230	101300000	1000	0	0	-1	1500
20512875	143	1081	0	-100	0	230	101300000	1000	0	0	-1	1500
20525435	143	1077	0	-100	0	230	101300000	1000	0	0	-1	1500
20537995	145	1078	0	-100	0	230	101300000	1000	0	0	-1	1500
20550555	147	1077	0	-100	0	230	101300000	1000	0	0	-1	1500
20563115	140	1080	0	-100	0	230	101300000	1000	0	0	-1	1500
20575675	140	1081	0	-100	0	230	101300000	1000	0	0	-1	1500
20588235	143	1078	0	-100	0	230	101300000	1000	0	0	-1	1500
20600795	145	1078	0	-100	0	230	101300000	1000	0	0	-1	1500
20613355	150	1078	0	-100	0	230	101300000	1000	0	0	-1	1500
20625915	140	1082	0	-100	0	230	101300000	1000	0	0	-1	1500
20638475	145	1080	0	-100	0	230	101300000	1000	0	0	-1	1500
20651035	145	1077	0	-100	0	230	101300000	1000	0	0	-1	1500
20663595	147	1079	0	-100	0	230	101300000	1000	0	0	-1	1500
20676155	135	1078	0	-100	0	230	101300000	1000	0	0	-1	1500
20688715	143	1083	0	-100	0	230	101300000	1000	0	0	-1	1500
20701275	140	1080	0	-100	0	230	101300000	1000	0	0	-1	1500
20713835	147	1080	0	-100	0	230	101300000	1000	0	0	-1	1500
20726395	150	1078	0	-100	0	230	101300000	1000	0	0	-1	1500
20738955	140	1079	0	-100	0	230	101300000	1000	0	0	-1	1500
20751515	140	1081	0	-100	0	230	101300000	1000	0	0	-1	1500
20764075	148	1076	0	-100	0	230	101300000	1000	0	0	-1	1500
20776635	140	1082	0	-100	0	230	101300000	1000	0	0	-1	1500
20789195	143	1077	0	-100	0	230	101300000	1000	0	0	-1	1500
20801755	147	1078	0	-100	0	230	101300000	1000	0	0	-1	1500
20814315	147	1080	0	-100	0	230	101300000	1000	0	0	-1	1500
20826875	138	1082	0	-100	0	230	101300000	1000	0	0	-1	1500
20839435	140	1085	0	-100	0	230	101300000	1000	0	0	-1	1500
20851995	143	1078	0	-100	0	230	101300000	1000	0	0	-1	1500
20864555	150	1082	0	-100	0	230	101300000	1000	0	0	-1	1500
20877115	140	1084	0	-100	0	230	101300000	1000	0	0	-1	1500
20889675	145	1079	0	-100	0	230	101300000	1000	0	0	-1	1500
20902235	148	1081	0	-100	0	230	101300000	1000	0	0	-1	1500
20914795	140	1085	0	-100	0	230	101300000	1000	0	0	-1	1500
20927355	143	1076	0	-100	0	230	101300000	1000	0	0	-1	1500
20939915	147	1076	0	-100	0	230	101300000	1000	0	0	-1	1500
20952475	140	1080	0	-100	0	230	101300000	1000	0	0	-1	1500
20965035	140	1084	0	-100	0	230	101300000	1000	0	0	-1	1500
20977595	145	1081	0	-100	0	230	101300000	1000	0	0	-1	1500
20990155	147	1080	0	-100	0	230	101300000	1000	0	0	-1	1500
21002715	138	1083	0	-100	0	230	101300000	1000	0	0	-1	1500
21015275	140	1077	0	-100	0	230	101300000	1000	0	0	-1	1500
21027835	145	1081	0	-100	0	230	101300000	1000	0	0	-1	1500
21040395	150	1076	0	-100	0	230	101300000	1000	0	0	-1	1500
21052955	138	1081	0	-100	0	230	101300000	1000	0	0	-1	1500
21065515	140	1085	0	-100	0	230	101300000	1000	0	0	-1	1500
21078075	147	1075	0	-100	0	230	101300000	1000	0	0	-1	1500
21090635	140	1083	0	-100	0	230	101300000	1000	0	0	-1	1500
21103195	143	1084	0	-100	0	230	101300000	1000	0	0	-1	1500
21115755	140	1078	0	-100	0	230	101300000	1000	0	0	-1	1500
21128315	140	1080	0	-100	0	230	101300000	1000	0	0	-1	1500
21140875	140	1083	0	-100	0	230	101300000	1000	0	0	-1	1500
21153435	145	1080	0	-100	0	230	101300000	1000	0	0	-1	1500
21165995	148	1083	0	-100	0	230	101300000	1000	0	0	-1	1500
21178555	140	1081	0	-100	0	230	101300000	1000	0	0	-1	1500
21191115	140	1082	0	-100	0	230	101300000	1000	0	0	-1	1500
21203675	145	1081	0	-100	0	230	101300000	1000	0	0	-1	1500
21216235	145	1077	0	-100	0	230	101300000	1000	0	0	-1	1500
21228795	140	1083	0	-100	0	230	101300000	1000	0	0	-1	1500
21241355	140	1079	0	-100	0	230	101300000	1000	0	0	-1	1500
21253915	143	1075	0	-100	0	230	101300000	1000	0	0	-1	1500
21266475	147	1074	0	-100	0	230	101300000	1000	0	0	-1	1500
21279035	143	1076	0	-100	0	230	101300000	1000	0	0	-1	1500
21291595	143	1080	0	-100	0	230	101300000	1000	0	0	-1	1500
21304155	138	1076	0	-100	0	230	101300000	1000	0	0	-1	1500
21316715	143	1081	0	-100	0	230	101300000	1000	0	0	-1	1500
21329275	147	1076	0	-100	0	230	101300000	1000	0	0	-1	1500
21341835	150	1077	0	-100	0	230	101300000	1000	0	0	-1	1500
21354395	140	1081	0	-100	0	230	101300000	1000	0	0	-1	1500
21366955	143	1076	0	-100	0	230	101300000	1000	0	0	-1	1500
21379515	145	1078	0	-100	0	230	101300000	1000	0	0	-1	1500
21392075	147	1078	0	-100	0	230	101300000	1000	0	0	-1	1500
21404635	140	1076	0	-100	0	230	101300000	1000	0	0	-1	1500
21417195	140	1085	0	-100	0	230	101300000	1000	0	0	-1	1500
21429755	138	1084	0	-100	0	230	101300000	1000	0	0	-1	1500
21442315	147	1079	0	-100	0	230	101300000	1000	0	0	-1	1500
21454875	150	1081	0	-100	0	230	101300000	1000	0	0	-1	1500
21467435	145	1080	0	-100	0	230	101300000	1000	0	0	-1	1500
21479995	147	1082	0	-100	0	230	101300000	1000	0	0	-1	1500
21492555	143	1078	0	-100	0	230	101300000	1000	0	0	-1	1500
21505115	143	1081	0	-100	0	230	101300000	1000	0	0	-1	1500
21517675	138	1081	0	-100	0	230	101300000	1000	0	0	-1	1500
21530235	143	1081	0	-100	0	230	101300000	1000	0	0	-1	1500
21542795	143	1081	0	-100	0	230	101300000	1000	0	0	-1	1500
21555355	145	1081	0	-100	0	230	101300000	1000	0	0	-1	1500
21567915	140	1082	0	-100	0	230	101300000	1000	0	0	-1	1500
21580475	143	1076	0	-100	0	230	101300000	1000	0	0	-1	1500
21593035	145	1079	0	-100	0	230	101300000	1000	0	0	-1	1500
21605595	147	1077	0	-100	0	230	101300000	1000	0	0	-1	1500
21618155	147	1078	0	-100	0	230	101300000	1000	0	0	-1	1500
21630715	147	1073	0	-100	0	230	101300000	1000	0	0	-1	1500
21643275	147	1073	0	-100	0	230	101300000	1000	0	0	-1	1500
21655835	147	1077	0	-100	0	230	101300000	1000	0	0	-1	1500
21668395	147	1079	0	-100	0	230	101300000	1000	0	0	-1	1500
21680955	145	1076	0	-100	0	230	101300000	1000	0	0	-1	1500
21693515	145	1076	0	-100	0	230	101300000	1000	0	0	-1	1500
21706075	143	1078	0	-100	0	230	101300000	1000	0	0	-1	1500
21718635	140	1087	0	-100	0	230	101300000	1000	0	0	-1	1500
21731195	140	1081	0	-100	0	230	101300000	1000	0	0	-1	1500
21743755	143	1075	0	-100	0	230	101300000	1000	0	0	-1	1500
21756315	145	1083	0	-100	0	230	101300000	1000	0	0	-1	1500
21768875	143	1081	0	-100	0	230	101300000	1000	0	0	-1	1500
21781435	138	1083	0	-100	0	230	101300000	1000	0	0	-1	1500
21793995	140	1073	0	-100	0	230	101300000	1000	0	0	-1	1500
21806555	143	1081	0	-100	0	230	101300000	1000	0	0	-1	1500
21819115	143	1077	0	-100	0	230	101300000	1000	0	0	-1	1500
21831675	143	1075	0	-100	0	230	101300000	1000	0	0	-1	1500
21844235	143	1080	0	-100	0	230	101300000	1000	0	0	-1	1500
21856795	143	1079	0	-100	0	230	101300000	1000	0	0	-1	1500
21869355	150	1079	0	-100	0	230	101300000	1000	0	0	-1	1500
21881915	147	1091	0	-100	0	230	101300000	1000	0	0	-1	1500
21894475	147	1082	0	-100	0	230	101300000	1000	0	0	-1	1500
21907035	145	1080	0	-100	0	230	101300000	1000	0	0	-1	1500
21919595	145	1077	0	-100	0	230	101300000	1000	0	0	-1	1500
21932155	138	1077	0	-100	0	230	101300000	1000	0	0	-1	1500
21944715	140	1078	0	-100	0	230	101300000	1000	0	0	-1	1500
21957275	143	1078	0	-100	0	230	101300000	1000	0	0	-1	1500
21969835	145	1080	0	-100	0	230	101300000	1000	0	0	-1	1500
21982395	143	1078	0	-100	0	230	101300000	1000	0	0	-1	1500
21994955	140	1079	0	-100	0	230	101300000	1000	0	0	-1	1500
22007515	140	1080	0	-100	0	230	101300000	1000	0	0	-1	1500
22020075	143	1077	0	-100	0	230	101300000	1000	0	0	-1	1500
22032635	147	1078	0	-100	0	230	101300000	1000	0	0	-1	1500
22045195	145	1078	0	-100	0	230	101300000	1000	0	0	-1	1500
22057755	145	1078	0	-100	0	230	101300000	1000	0	0	-1	1500
22070315	145	1081	0	-100	0	230	101300000	1000	0	0	-1	1500
22082875	147	1080	0	-100	0	230	101300000	1000	0	0	-1	1500
22095435	147	1077	0	-100	0	230	101300000	1000	0	0	-1	1500
22107995	147	1081	0	-100	0	230	101300000	1000	0	0	-1	1500
22120555	147	1081	0	-100	0	230	101300000	1000	0	0	-1	1500
22133115	147	1078	0	-100	0	230	101300000	1000	0	0	-1	1500
22145675	147	1077	0	-100	0	230	101300000	1000	0	0	-1	1500
22158235	150	1077	0	-100	0	230	101300000	1000	0	0	-1	1500
22170795	147	1079	0	-100	0	230	101300000	1000	0	0	-1	1500
22183355	148	1078	0	-100	0	230	101300000	1000	0	0	-1	1500
22195915	148	1080	0	-100	0	230	101300000	1000	0	0	-1	1500
22208475	147	1072	0	-100	0	230	101300000	1000	0	0	-1	1500
22221035	147	1078	0	-100	0	230	101300000	1000	0	0	-1	1500
22233595	140	1081	0	-100	0	230	101300000	1000	0	0	-1	1500
22246155	138	1081	0	-100	0	230	101300000	1000	0	0	-1	1500
22258715	143	1077	0	-100	0	230	101300000	1000	0	0	-1	1500
22271275	143	1085	0	-100	0	230	101300000	1000	0	0	-1	1500
22283835	140	1083	0	-100	0	230	101300000	1000	0	0	-1	1500
22296395	143	1078	0	-100	0	230	101300000	1000	0	0	-1	1500
22308955	147	1075	0	-100	0	230	101300000	1000	0	0	-1	1500
22321515	148	1078	0	-100	0	230	101300000	1000	0	0	-1	1500
22334075	147	1078	0	-100	0	230	101300000	1000	0	0	-1	1500
22346635	147	1076	0	-100	0	230	101300000	1000	0	0	-1	1500
22359195	143	1077	0	-100	0	230	101300000	1000	0	0	-1	1500
22371755	138	1080	0	-100	0	230	101300000	1000	0	0	-1	1500
22384315	140	1079	0	-100	0	230	101300000	1000	0	0	-1	1500
22396875	140	1079	0	-100	0	230	101300000	1000	0	0	-1	1500
22409435	140	1082	0	-100	0	230	101300000	1000	0	0	-1	1500
22421995	143	1077	0	-100	0	230	101300000	1000	0	0	-1	1500
22434555	140	1082	0	-100	0	230	101300000	1000	0	0	-1	1500
22447115	140	1081	0	-100	0	230	101300000	1000	0	0	-1	1500
22459675	140	1099	0	-100	0	230	101300000	1000	0	0	-1	1500
22472235	145	1077	0	-100	0	230	101300000	1000	0	0	-1	1500
22484795	147	1077	0	-100	0	230	101300000	1000	0	0	-1	1500
22497355	150	1079	0	-100	0	230	101300000	1000	0	0	-1	1500
22509915	143	1078	0	-100	0	230	101300000	1000	0	0	-1	1500
22522475	138	1080	0	-100	0	230	101300000	1000	0	0	-1	1500
22535035	140	1084	0	-100	0	230	101300000	1000	0	0	-1	1500
22547595	140	1083	0	-100	0	230	101300000	1000	0	0	-1	1500
22560155	138	1080	0	-100	0	230	101300000	1000	0	0	-1	1500
22572715	143	1079	0	-100	0	230	101300000	1000	0	0	-1	1500
22585275	140	1080	0	-100	0	230	101300000	1000	0	0	-1	1500
22597835	138	1081	0	-100	0	230	101300000	1000	0	0	-1	1500
22610395	140	1080	0	-100	0	230	101300000	1000	0	0	-1	1500
22622955	143	1083	0	-100	0	230	101300000	1000	0	0	-1	1500
22635515	140	1081	0	-100	0	230	101300000	1000	0	0	-1	1500
22648075	138	1079	0	-100	0	230	101300000	1000	0	0	-1	1500
22660635	138	1080	0	-100	0	230	101300000	1000	0	0	-1	1500
22673195	138	1084	0	-100	0	230	101300000	1000	0	0	-1	1500
22685755	140	1084	0	-100	0	230	101300000	1000	0	0	-1	1500
22698315	140	1083	0	-100	0	230	101300000	1000	0	0	-1	1500
22710875	145	1081	0	-100	0	230	101300000	1000	0	0	-1	1500
22723435	140	1082	0	-100	0	230	101300000	1000	0	0	-1	1500
22735995	145	1079	0	-100	0	230	101300000	1000	0	0	-1	1500
22748555	147	1080	0	-100	0	230	101300000	1000	0	0	-1	1500
22761115	147	1077	0	-100	0	230	101300000	1000	0	0	-1	1500
22773675	147	1077	0	-100	0	230	101300000	1000	0	0	-1	1500
22786235	150	1078	0	-100	0	230	101300000	1000	0	0	-1	1500
22798795	147	1075	0	-100	0	230	101300000	1000	0	0	-1	1500
22811355	150	1074	0	-100	0	230	101300000	1000	0	0	-1	1500
22823915	150	1081	0	-100	0	230	101300000	1000	0	0	-1	1500
22836475	150	1075	0	-100	0	230	101300000	1000	0	0	-1	1500
22849035	147	1080	0	-100	0	230	101300000	1000	0	0	-1	1500
22861595	147	1077	0	-100	0	230	101300000	1000	0	0	-1	1500
22874155	145	1077	0	-100	0	230	101300000	1000	0	0	-1	1500
22886715	143	1080	0	-100	0	230	101300000	1000	0	0	-1	1500
22899275	145	1078	0	-100	0	230	101300000	1000	0	0	-1	1500
22911835	143	1078	0	-100	0	230	101300000	1000	0	0	-1	1500
22924395	140	1084	0	-100	0	230	101300000	1000	0	0	-1	1500
22936955	140	1083	0	-100	0	230	101300000	1000	0	0	-1	1500
22949515	145	1077	0	-100	0	230	101300000	1000	0	0	-1	1500
22962075	147	1079	0	-100	0	230	101300000	1000	0	0	-1	1500
22974635	147	1080	0	-100	0	230	101300000	1000	0	0	-1	1500
22987195	150	1076	0	-100	0	230	101300000	1000	0	0	-1	1500
22999755	150	1083	0	-100	0	230	101300000	1000	0	0	-1	1500
23012315	145	1081	0	-100	0	230	101300000	1000	0	0	-1	1500
23024875	140	1081	0	-100	0	230	101300000	1000	0	0	-1	1500
23037435	140	1078	0	-100	0	230	101300000	1000	0	0	-1	1500
23049995	140	1078	0	-100	0	230	101300000	1000	0	0	-1	1500
23062555	145	1080	0	-100	0	230	101300000	1000	0	0	-1	1500
23075115	140	1083	0	-100	0	230	101300000	1000	0	0	-1	1500
23087675	140	1080	0	-100	0	230	101300000	1000	0	0	-1	1500
23100235	140	1079	0	-100	0	230	101300000	1000	0	0	-1	1500
23112795	145	1078	0	-100	0	230	101300000	1000	0	0	-1	1500
23125355	147	1080	0	-100	0	230	101300000	1000	0	0	-1	1500
23137915	147	1081	0	-100	0	230	101300000	1000	0	0	-1	1500
23150475	145	1081	0	-100	0	230	101300000	1000	0	0	-1	1500
23163035	147	1075	0	-100	0	230	101300000	1000	0	0	-1	1500
23175595	150	1078	0	-100	0	230	101300000	1000	0	0	-1	1500
23188155	145	1079	0	-100	0	230	101300000	1000	0	0	-1	1500
23200715	147	1080	0	-100	0	230	101300000	1000	0	0	-1	1500
23213275	143	1079	0	-100	0	230	101300000	1000	0	0	-1	1500
23225835	138	1082	0	-100	0	230	101300000	1000	0	0	-1	1500
23238395	140	1081	0	-100	0	230	101300000	1000	0	0	-1	1500
23250955	143	1079	0	-100	0	230	101300000	1000	0	0	-1	1500
23263515	143	1077	0	-100	0	230	101300000	1000	0	0	-1	1500
23276075	145	1075	0	-100	0	230	101300000	1000	0	0	-1	1500
23288635	147	1080	0	-100	0	230	101300000	1000	0	0	-1	1500
23301195	145	1078	0	-100	0	230	101300000	1000	0	0	-1	1500
23313755	147	1078	0	-100	0	230	101300000	1000	0	0	-1	1500
23326315	147	1077	0	-100	0	230	101300000	1000	0	0	-1	1500
23338875	147	1078	0	-100	0	230	101300000	1000	0	0	-1	1500
23351435	150	1078	0	-100	0	230	101300000	1000	0	0	-1	1500
23363995	140	1081	0	-100	0	230	101300000	1000	0	0	-1	1500
23376555	140	1081	0	-100	0	230	101300000	1000	0	0	-1	1500
23389115	143	1079	0	-100	0	230	101300000	1000	0	0	-1	1500
23401675	138	1081	0	-100	0	230	101300000	1000	0	0	-1	1500
23414235	143	1078	0	-100	0	230	101300000	1000	0	0	-1	1500
23426795	145	1083	0	-100	0	230	101300000	1000	0	0	-1	1500
23439355	147	1080	0	-100	0	230	101300000	1000	0	0	-1	1500
23451915	150	1077	0	-100	0	230	101300000	1000	0	0	-1	1500
23464475	145	1081	0	-100	0	230	101300000	1000	0	0	-1	1500
23477035	138	1087	0	-100	0	230	101300000	1000	0	0	-1	1500
23489595	140	1084	0	-100	0	230	101300000	1000	0	0	-1	1500
23502155	140	1078	0	-100	0	230	101300000	1000	0	0	-1	1500
23514715	143	1079	0	-100	0	230	101300000	1000	0	0	-1	1500
23527275	140	1082	0	-100	0	230	101300000	1000	0	0	-1	1500
23539835	147	1076	0	-100	0	230	101300000	1000	0	0	-1	1500
23552395	147	1076	0	-100	0	230	101300000	1000	0	0	-1	1500
23564955	140	1078	0	-100	0	230	101300000	1000	0	0	-1	1500
23577515	140	1080	0	-100	0	230	101300000	1000	0	0	-1	1500
23590075	138	1078	0	-100	0	230	101300000	1000	0	0	-1	1500
23602635	140	1080	0	-100	0	230	101300000	1000	0	0	-1	1500
23615195	140	1101	0	-100	0	230	101300000	1000	0	0	-1	1500
23627755	145	1081	0	-100	0	230	101300000	1000	0	0	-1	1500
23640315	147	1075	0	-100	0	230	101300000	1000	0	0	-1	1500
23652875	147	1075	0	-100	0	230	101300000	1000	0	0	-1	1500
23665435	150	1082	0	-100	0	230	101300000	1000	0	0	-1	1500
23677995	150	1079	0	-100	0	230	101300000	1000	0	0	-1	1500
23690555	150	1078	0	-100	0	230	101300000	1000	0	0	-1	1500
23703115	147	1074	0	-100	0	230	101300000	1000	0	0	-1	1500
23715675	145	1080	0	-100	0	230	101300000	1000	0	0	-1	1500
23728235	147	1081	0	-100	0	230	101300000	1000	0	0	-1	1500
23740795	147	1080	0	-100	0	230	101300000	1000	0	0	-1	1500
23753355	145	1081	0	-100	0	230	101300000	1000	0	0	-1	1500
23765915	145	1080	0	-100	0	230	101300000	1000	0	0	-1	1500
23778475	150	1080	0	-100	0	230	101300000	1000	0	0	-1	1500
23791035	147	1072	0	-100	0	230	101300000	1000	0	0	-1	1500
23803595	147	1079	0	-100	0	230	101300000	1000	0	0	-1	1500
23816155	142	1075	0	-100	0	230	101300000	1000	0	0	-1	1500
23828715	147	1073	0	-100	0	230	101300000	1000	0	0	-1	1500
23841275	148	1077	0	-100	0	230	101300000	1000	0	0	-1	1500
23853835	147	1080	0	-100	0	230	101300000	1000	0	0	-1	1500
23866395	143	1080	0	-100	0	230	101300000	1000	0	0	-1	1500
23878955	140	1081	0	-100	0	230	101300000	1000	0	0	-1	1500
23891515	140	1078	0	-100	0	230	101300000	1000	0	0	-1	1500
23904075	145	1080	0	-100	0	230	101300000	1000	0	0	-1	1500
23916635	147	1079	0	-100	0	230	101300000	1000	0	0	-1	1500
23929195	138	1083	0	-100	0	230	101300000	1000	0	0	-1	1500
23941755	143	1077	0	-100	0	230	101300000	1000	0	0	-1	1500
23954315	147	1080	0	-100	0	230	101300000	1000	0	0	-1	1500
23966875	143	1078	0	-100	0	230	101300000	1000	0	0	-1	1500
23979435	140	1083	0	-100	0	230	101300000	1000	0	0	-1	1500
23991995	140	1076	0	-100	0	230	101300000	1000	0	0	-1	1500
24004555	145	1081	0	-100	0	230	101300000	1000	0	0	-1	1500
24017115	145	1079	0	-100	0	230	101300000	1000	0	0	-1	1500
24029675	140	1083	0	-100	0	230	101300000	1000	0	0	-1	1500
24042235	140	1081	0	-100	0	230	101300000	1000	0	0	-1	1500
24054795	145	1078	0	-100	0	230	101300000	1000	0	0	-1	1500
24067355	147	1080	0	-100	0	230	101300000	1000	0	0	-1	1500
24079915	140	1081	0	-100	0	230	101300000	1000	0	0	-1	1500
24092475	140	1082	0	-100	0	230	101300000	1000	0	0	-1	1500
24105035	140	1081	0	-100	0	230	101300000	1000	0	0	-1	1500
24117595	147	1072	0	-100	0	230	101300000	1000	0	0	-1	1500
24130155	138	1083	0	-100	0	230	101300000	1000	0	0	-1	1500
24142715	143	1081	0	-100	0	230	101300000	1000	0	0	-1	1500
24155275	147	1080	0	-100	0	230	101300000	1000	0	0	-1	1500
24167835	140	1081	0	-100	0	230	101300000	1000	0	0	-1	1500
24180395	143	1076	0	-100	0	230	101300000	1000	0	0	-1	1500
24192955	147	1079	0	-100	0	230	101300000	1000	0	0	-1	1500
24205515	140	1083	0	-100	0	230	101300000	1000	0	0	-1	1500
24218075	143	1080	0	-100	0	230	101300000	1000	0	0	-1	1500
24230635	147	1080	0	-100	0	230	101300000	1000	0	0	-1	1500
24243195	140	1080	0	-100	0	230	101300000	1000	0	0	-1	1500
24255755	143	1084	0	-100	0	230	101300000	1000	0	0	-1	1500
24268315	147	1080	0	-100	0	230	101300000	1000	0	0	-1	1500
24280875	140	1079	0	-100	0	230	101300000	1000	0	0	-1	1500
24293435	143	1081	0	-100	0	230	101300000	1000	0	0	-1	1500
24305995	140	1075	0	-100	0	230	101300000	1000	0	0	-1	1500
24318555	145	1077	0	-100	0	230	101300000	1000	0	0	-1	1500
24331115	150	1078	0	-100	0	230	101300000	1000	0	0	-1	1500
24343675	145	1080	0	-100	0	230	101300000	1000	0	0	-1	1500
24356235	140	1082	0	-100	0	230	101300000	1000	0	0	-1	1500
24368795	140	1080	0	-100	0	230	101300000	1000	0	0	-1	1500
24381355	145	1077	0	-100	0	230	101300000	1000	0	0	-1	1500
24393915	145	1077	0	-100	0	230	101300000	1000	0	0	-1	1500
24406475	143	1079	0	-100	0	230	101300000	1000	0	0	-1	1500
24419035	140	1086	0	-100	0	230	101300000	1000	0	0	-1	1500
24431595	147	1078	0	-100	0	230	101300000	1000	0	0	-1	1500
24444155	138	1075	0	-100	0	230	101300000	1000	0	0	-1	1500
24456715	140	1082	0	-100	0	230	101300000	1000	0	0	-1	1500
24469275	145	1079	0	-100	0	230	101300000	1000	0	0	-1	1500
24481835	147	1079	0	-100	0	230	101300000	1000	0	0	-1	1500
24494395	143	1082	0	-100	0	230	101300000	1000	0	0	-1	1500
24506955	140	1083	0	-100	0	230	101300000	1000	0	0	-1	1500
24519515	140	1082	0	-100	0	230	101300000	1000	0	0	-1	1500
24532075	140	1081	0	-100	0	230	101300000	1000	0	0	-1	1500
24544635	147	1078	0	-100	0	230	101300000	1000	0	0	-1	1500
24557195	145	1076	0	-100	0	230	101300000	1000	0	0	-1	1500
24569755	143	1081	0	-100	0	230	101300000	1000	0	0	-1	1500
24582315	140	1082	0	-100	0	230	101300000	1000	0	0	-1	1500
24594875	140	1079	0	-100	0	230	101300000	1000	0	0	-1	1500
24607435	147	1078	0	-100	0	230	101300000	1000	0	0	-1	1500
24619995	150	1080	0	-100	0	230	101300000	1000	0	0	-1	1500
24632555	140	1080	0	-100	0	230	101300000	1000	0	0	-1	1500
24645115	143	1079	0	-100	0	230	101300000	1000	0	0	-1	1500
24657675	140	1078	0	-100	0	230	101300000	1000	0	0	-1	1500
24670235	145	1077	0	-100	0	230	101300000	1000	0	0	-1	1500
24682795	148	1080	0	-100	0	230	101300000	1000	0	0	-1	1500
24695355	150	1092	0	-100	0	230	101300000	1000	0	0	-1	1500
24707915	140	1077	0	-100	0	230	101300000	1000	0	0	-1	1500
24720475	140	1085	0	-100	0	230	101300000	1000	0	0	-1	1500
24733035	143	1079	0	-100	0	230	101300000	1000	0	0	-1	1500
24745595	140	1084	0	-100	0	230	101300000	1000	0	0	-1	1500
24758155	140	1078	0	-100	0	230	101300000	1000	0	0	-1	1500
24770715	145	1076	0	-100	0	230	101300000	1000	0	0	-1	1500
24783275	150	1080	0	-100	0	230	101300000	1000	0	0	-1	1500
24795835	147	1075	0	-100	0	230	101300000	1000	0	0	-1	1500
24808395	147	1079	0	-100	0	230	101300000	1000	0	0	-1	1500
24820955	138	1083	0	-100	0	230	101300000	1000	0	0	-1	1500
24833515	140	1081	0	-100	0	230	101300000	1000	0	0	-1	1500
24846075	147	1077	0	-100	0	230	101300000	1000	0	0	-1	1500
24858635	140	1080	0	-100	0	230	101300000	1000	0	0	-1	1500
24871195	143	1080	0	-100	0	230	101300000	1000	0	0	-1	1500
24883755	147	1082	0	-100	0	230	101300000	1000	0	0	-1	1500
24896315	140	1082	0	-100	0	230	101300000	1000	0	0	-1	1500
24908875	143	1080	0	-100	0	230	101300000	1000	0	0	-1	1500
24921435	150	1081	0	-100	0	230	101300000	1000	0	0	-1	1500
24933995	140	1079	0	-100	0	230	101300000	1000	0	0	-1	1500
24946555	145	1092	0	-100	0	230	101300000	1000	0	0	-1	1500
24959115	147	1079	0	-100	0	230	101300000	1000	0	0	-1	1500
24971675	143	1081	0	-100	0	230	101300000	1000	0	0	-1	1500
24984235	147	1078	0	-100	0	230	101300000	1000	0	0	-1	1500
24996795	143	1083	0	-100	0	230	101300000	1000	0	0	-1	1500
25009355	147	1077	0	-100	0	230	101300000	1000	0	0	-1	1500
25021915	140	1080	0	-100	0	230	101300000	1000	0	0	-1	1500
25034475	140	1082	0	-100	0	230	101300000	1000	0	0	-1	1500
25047035	145	1080	0	-100	0	230	101300000	1000	0	0	-1	1500
25059595	147	1077	0	-100	0	230	101300000	1000	0	0	-1	1500
25072155	145	1075	0	-100	0	230	101300000	1000	0	0	-1	1500
25084715	140	1083	0	-100	0	230	101300000	1000	0	0	-1	1500
25097275	138	1084	0	-100	0	230	101300000	1000	0	0	-1	1500
25109835	147	1077	0	-100	0	230	101300000	1000	0	0	-1	1500
25122395	140	1083	0	-100	0	230	101300000	1000	0	0	-1	1500
25134955	143	1093	0	-100	0	230	101300000	1000	0	0	-1	1500
25147515	147	1077	0	-100	0	230	101300000	1000	0	0	-1	1500
25160075	140	1081	0	-100	0	230	101300000	1000	0	0	-1	1500
25172635	147	1077	0	-100	0	230	101300000	1000	0	0	-1	1500
25185195	140	1082	0	-100	0	230	101300000	1000	0	0	-1	1500
25197755	148	1079	0	-100	0	230	101300000	1000	0	0	-1	1500
25210315	140	1084	0	-100	0	230	101300000	1000	0	0	-1	1500
25222875	150	1081	0	-100	0	230	101300000	1000	0	0	-1	1500
25235435	140	1078	0	-100	0	230	101300000	1000	0	0	-1	1500
25247995	150	1079	0	-100	0	230	101300000	1000	0	0	-1	1500
25260555	140	1083	0	-100	0	230	101300000	1000	0	0	-1	1500
25273115	145	1079	0	-100	0	230	101300000	1000	0	0	-1	1500
25285675	140	1082	0	-100	0	230	101300000	1000	0	0	-1	1500
25298235	143	1077	0	-100	0	230	101300000	1000	0	0	-1	1500
25310795	140	1082	0	-100	0	230	101300000	1000	0	0	-1	1500
25323355	145	1078	0	-100	0	230	101300000	1000	0	0	-1	1500
25335915	140	1083	0	-100	0	230	101300000	1000	0	0	-1	1500
25348475	150	1079	0	-100	0	230	101300000	1000	0	0	-1	1500
25361035	140	1081	0	-100	0	230	101300000	1000	0	0	-1	1500
25373595	140	1082	0	-100	0	230	101300000	1000	0	0	-1	1500
25386155	145	1079	0	-100	0	230	101300000	1000	0	0	-1	1500
25398715	140	1081	0	-100	0	230	101300000	1000	0	0	-1	1500
25411275	147	1076	0	-100	0	230	101300000	1000	0	0	-1	1500
25423835	138	1080	0	-100	0	230	101300000	1000	0	0	-1	1500
25436395	138	1083	0	-100	0	230	101300000	1000	0	0	-1	1500
25448955	150	1079	0	-100	0	230	101300000	1000	0	0	-1	1500
25461515	143	1081	0	-100	0	230	101300000	1000	0	0	-1	1500
25474075	147	1075	0	-100	0	230	101300000	1000	0	0	-1	1500
25486635	140	1082	0	-100	0	230	101300000	1000	0	0	-1	1500
25499195	147	1079	0	-100	0	230	101300000	1000	0	0	-1	1500
25511755	138	1080	0	-100	0	230	101300000	1000	0	0	-1	1500
25524315	145	1081	0	-100	0	230	101300000	1000	0	0	-1	1500
25536875	140	1079	0	-100	0	230	101300000	1000	0	0	-1	1500
25549435	145	1079	0	-100	0	230	101300000	1000	0	0	-1	1500
25561995	140	1079	0	-100	0	230	101300000	1000	0	0	-1	1500
25574555	145	1078	0	-100	0	230	101300000	1000	0	0	-1	1500
25587115	140	1084	0	-100	0	230	101300000	1000	0	0	-1	1500
25599675	147	1079	0	-100	0	230	101300000	1000	0	0	-1	1500
25612235	143	1082	0	-100	0	230	101300000	1000	0	0	-1	1500
25624795	143	1078	0	-100	0	230	101300000	1000	0	0	-1	1500
25637355	138	1082	0	-100	0	230	101300000	1000	0	0	-1	1500
25649915	147	1075	0	-100	0	230	101300000	1000	0	0	-1	1500
25662475	140	1080	0	-100	0	230	101300000	1000	0	0	-1	1500
25675035	145	1079	0	-100	0	230	101300000	1000	0	0	-1	1500
25687595	147	1079	0	-100	0	230	101300000	1000	0	0	-1	1500
25700155	138	1084	0	-100	0	230	101300000	1000	0	0	-1	1500
25712715	143	1078	0	-100	0	230	101300000	1000	0	0	-1	1500
25725275	143	1078	0	-100	0	230	101300000	1000	0	0	-1	1500
25737835	140	1084	0	-100	0	230	101300000	1000	0	0	-1	1500
25750395	140	1081	0	-100	0	230	101300000	1000	0	0	-1	1500
25762955	145	1079	0	-100	0	230	101300000	1000	0	0	-1	1500
25775515	140	1078	0	-100	0	230	101300000	1000	0	0	-1	1500
25788075	143	1081	0	-100	0	230	101300000	1000	0	0	-1	1500
25800635	145	1080	0	-100	0	230	101300000	1000	0	0	-1	1500
25813195	143	1079	0	-100	0	230	101300000	1000	0	0	-1	1500
25825755	138	1083	0	-100	0	230	101300000	1000	0	0	-1	1500
25838315	145	1079	0	-100	0	230	101300000	1000	0	0	-1	1500
25850875	147	1074	0	-100	0	230	101300000	1000	0	0	-1	1500
25863435	138	1081	0	-100	0	230	101300000	1000	0	0	-1	1500
25875995	140	1077	0	-100	0	230	101300000	1000	0	0	-1	1500
25888555	147	1074	0	-100	0	230	101300000	1000	0	0	-1	1500
25901115	140	1083	0	-100	0	230	101300000	1000	0	0	-1	1500
25913675	143	1078	0	-100	0	230	101300000	1000	0	0	-1	1500
25926235	147	1080	0	-100	0	230	101300000	1000	0	0	-1	1500
25938795	140	1081	0	-100	0	230	101300000	1000	0	0	-1	1500
25951355	143	1080	0	-100	0	230	101300000	1000	0	0	-1	1500
25963915	150	1079	0	-100	0	230	101300000	1000	0	0	-1	1500
25976475	143	1079	0	-100	0	230	101300000	1000	0	0	-1	1500
25989035	140	1083	0	-100	0	230	101300000	1000	0	0	-1	1500
26001595	140	1083	0	-100	0	230	101300000	1000	0	0	-1	1500
26014155	142	1076	0	-100	0	230	101300000	1000	0	0	-1	1500
26026715	147	1075	0	-100	0	230	101300000	1000	0	0	-1	1500
26039275	143	1080	0	-100	0	230	101300000	1000	0	0	-1	1500
26051835	140	1084	0	-100	0	230	101300000	1000	0	0	-1	1500
26064395	140	1080	0	-100	0	230	101300000	1000	0	0	-1	1500
26076955	145	1082	0	-100	0	230	101300000	1000	0	0	-1	1500
26089515	147	1078	0	-100	0	230	101300000	1000	0	0	-1	1500
26102075	140	1080	0	-100	0	230	101300000	1000	0	0	-1	1500
26114635	138	1086	0	-100	0	230	101300000	1000	0	0	-1	1500
26127195	140	1082	0	-100	0	230	101300000	1000	0	0	-1	1500
26139755	143	1079	0	-100	0	230	101300000	1000	0	0	-1	1500
26152315	147	1079	0	-100	0	230	101300000	1000	0	0	-1	1500
26164875	143	1078	0	-100	0	230	101300000	1000	0	0	-1	1500
26177435	138	1081	0	-100	0	230	101300000	1000	0	0	-1	1500
26189995	140	1080	0	-100	0	230	101300000	1000	0	0	-1	1500
26202555	143	1081	0	-100	0	230	101300000	1000	0	0	-1	1500
26215115	143	1075	0	-100	0	230	101300000	1000	0	0	-1	1500
26227675	147	1077	0	-100	0	230	101300000	1000	0	0	-1	1500
26240235	147	1078	0	-100	0	230	101300000	1000	0	0	-1	1500
26252795	150	1078	0	-100	0	230	101300000	1000	0	0	-1	1500
26265355	147	1080	0	-100	0	230	101300000	1000	0	0	-1	1500
26277915	147	1080	0	-100	0	230	101300000	1000	0	0	-1	1500
26290475	145	1080	0	-100	0	230	101300000	1000	0	0	-1	1500
26303035	143	1081	0	-100	0	230	101300000	1000	0	0	-1	1500
26315595	140	1080	0	-100	0	230	101300000	1000	0	0	-1	1500
26328155	140	1079	0	-100	0	230	101300000	1000	0	0	-1	1500
26340715	143	1077	0	-100	0	230	101300000	1000	0	0	-1	1500
26353275	138	1080	0	-100	0	230	101300000	1000	0	0	-1	1500
26365835	140	1082	0	-100	0	230	101300000	1000	0	0	-1	1500
26378395	140	1082	0	-100	0	230	101300000	1000	0	0	-1	1500
26390955	143	1092	0	-100	0	230	101300000	1000	0	0	-1	1500
26403515	145	1079	0	-100	0	230	101300000	1000	0	0	-1	1500
26416075	145	1080	0	-100	0	230	101300000	1000	0	0	-1	1500
26428635	138	1081	0	-100	0	230	101300000	1000	0	0	-1	1500
26441195	140	1079	0	-100	0	230	101300000	1000	0	0	-1	1500
26453755	145	1078	0	-100	0	230	101300000	1000	0	0	-1	1500
26466315	147	1076	0	-100	0	230	101300000	1000	0	0	-1	1500
26478875	150	1079	0	-100	0	230	101300000	1000	0	0	-1	1500
26491435	145	1083	0	-100	0	230	101300000	1000	0	0	-1	1500
26503995	140	1083	0	-100	0	230	101300000	1000	0	0	-1	1500
26516555	143	1080	0	-100	0	230	101300000	1000	0	0	-1	1500
26529115	140	1084	0	-100	0	230	101300000	1000	0	0	-1	1500
26541675	147	1080	0	-100	0	230	101300000	1000	0	0	-1	1500
26554235	148	1082	0	-100	0	230	101300000	1000	0	0	-1	1500
26566795	143	1080	0	-100	0	230	101300000	1000	0	0	-1	1500
26579355	140	1083	0	-100	0	230	101300000	1000	0	0	-1	1500
26591915	138	1078	0	-100	0	230	101300000	1000	0	0	-1	1500
26604475	143	1081	0	-100	0	230	101300000	1000	0	0	-1	1500
26617035	143	1080	0	-100	0	230	101300000	1000	0	0	-1	1500
26629595	140	1080	0	-100	0	230	101300000	1000	0	0	-1	1500
26642155	140	1079	0	-100	0	230	101300000	1000	0	0	-1	1500
26654715	150	1077	0	-100	0	230	101300000	1000	0	0	-1	1500
26667275	140	1080	0	-100	0	230	101300000	1000	0	0	-1	1500
26679835	143	1084	0	-100	0	230	101300000	1000	0	0	-1	1500
26692395	143	1077	0	-100	0	230	101300000	1000	0	0	-1	1500
26704955	145	1077	0	-100	0	230	101300000	1000	0	0	-1	1500
26717515	143	1084	0	-100	0	230	101300000	1000	0	0	-1	1500
26730075	147	1080	0	-100	0	230	101300000	1000	0	0	-1	1500
26742635	140	1081	0	-100	0	230	101300000	1000	0	0	-1	1500
26755195	140	1081	0	-100	0	230	101300000	1000	0	0	-1	1500
26767755	147	1079	0	-100	0	230	101300000	1000	0	0	-1	1500
26780315	145	1079	0	-100	0	230	101300000	1000	0	0	-1	1500
26792875	143	1079	0	-100	0	230	101300000	1000	0	0	-1	1500
26805435	147	1078	0	-100	0	230	101300000	1000	0	0	-1	1500
26817995	140	1082	0	-100	0	230	101300000	1000	0	0	-1	1500
26830555	145	1084	0	-100	0	230	101300000	1000	0	0	-1	1500
26843115	148	1081	0	-100	0	230	101300000	1000	0	0	-1	1500
26855675	140	1079	0	-100	0	230	101300000	1000	0	0	-1	1500
26868235	140	1081	0	-100	0	230	101300000	1000	0	0	-1	1500
26880795	147	1077	0	-100	0	230	101300000	1000	0	0	-1	1500
26893355	135	1080	0	-100	0	230	101300000	1000	0	0	-1	1500
26905915	140	1081	0	-100	0	230	101300000	1000	0	0	-1	1500
26918475	147	1077	0	-100	0	230	101300000	1000	0	0	-1	1500
26931035	140	1082	0	-100	0	230	101300000	1000	0	0	-1	1500
26943595	140	1081	0	-100	0	230	101300000	1000	0	0	-1	1500
26956155	145	1079	0	-100	0	230	101300000	1000	0	0	-1	1500
26968715	140	1082	0	-100	0	230	101300000	1000	0	0	-1	1500
26981275	143	1079	0	-100	0	230	101300000	1000	0	0	-1	1500
26993835	150	1075	0	-100	0	230	101300000	1000	0	0	-1	1500
27006395	140	1082	0	-100	0	230	101300000	1000	0	0	-1	1500
27018955	143	1080	0	-100	0	230	101300000	1000	0	0	-1	1500
27031515	150	1079	0	-100	0	230	101300000	1000	0	0	-1	1500
27044075	140	1083	0	-100	0	230	101300000	1000	0	0	-1	1500
