timestamp	voltage	current	windSpeed	pitchAngle	rpm	temperature	ambientPressure	humidity	accelerationX	accelerationY	accelerationZ	currentSink
7040070	4019	0	0	-100	0	230	101300000	1000	0	0	-1	0
7047523	4006	0	0	-100	0	230	101300000	1000	0	0	-1	0
7060083	4011	0	0	-100	0	230	101300000	1000	0	0	-1	0
7072643	4005	0	0	-100	0	230	101300000	1000	0	0	-1	0
7085203	4004	3	0	-100	0	230	101300000	1000	0	0	-1	0
7097763	4006	4	0	-100	0	230	101300000	1000	0	0	-1	0
7110323	4004	2	0	-100	0	230	101300000	1000	0	0	-1	0
7122883	4009	0	0	-100	0	230	101300000	1000	0	0	-1	0
7135443	4010	0	0	-100	0	230	101300000	1000	0	0	-1	0
7148004	4005	6	0	-100	0	230	101300000	1000	0	0	-1	0
7160563	4011	0	0	-100	0	230	101300000	1000	0	0	-1	0
7173123	4011	0	0	-100	0	230	101300000	1000	0	0	-1	0
7185683	4008	0	0	-100	0	230	101300000	1000	0	0	-1	0
7198243	4005	0	0	-100	0	230	101300000	1000	0	0	-1	0
7210803	4003	5	0	-100	0	230	101300000	1000	0	0	-1	0
7223363	4005	2	0	-100	0	230	101300000	1000	0	0	-1	0
7235923	4011	0	0	-100	0	230	101300000	1000	0	0	-1	0
7248483	4009	0	0	-100	0	230	101300000	1000	0	0	-1	0
7261043	4011	0	0	-100	0	230	101300000	1000	0	0	-1	0
7273603	4010	0	0	-100	0	230	101300000	1000	0	0	-1	0
7286163	4004	0	0	-100	0	230	101300000	1000	0	0	-1	0
7298723	4006	2	0	-100	0	230	101300000	1000	0	0	-1	0
7311283	4005	4	0	-100	0	230	101300000	1000	0	0	-1	0
7323843	4011	0	0	-100	0	230	101300000	1000	0	0	-1	0
7336403	4006	0	0	-100	0	230	101300000	1000	0	0	-1	0
7348963	4005	5	0	-100	0	230	101300000	1000	0	0	-1	0
7704675	0	12	0	-100	0	230	101300000	1000	0	0	-1	1500
7717235	0	10	0	-100	0	230	101300000	1000	0	0	-1	1500
7729795	0	8	0	-100	0	230	101300000	1000	0	0	-1	1500
7742355	0	5	0	-100	0	230	101300000	1000	0	0	-1	1500
7754915	0	8	0	-100	0	230	101300000	1000	0	0	-1	1500
7767475	0	7	0	-100	0	230	101300000	1000	0	0	-1	1500
7780035	0	7	0	-100	0	230	101300000	1000	0	0	-1	1500
7792595	0	10	0	-100	0	230	101300000	1000	0	0	-1	1500
7805155	0	13	0	-100	0	230	101300000	1000	0	0	-1	1500
7817715	0	11	0	-100	0	230	101300000	1000	0	0	-1	1500
7830275	0	9	0	-100	0	230	101300000	1000	0	0	-1	1500
7842835	0	8	0	-100	0	230	101300000	1000	0	0	-1	1500
7855395	0	9	0	-100	0	230	101300000	1000	0	0	-1	1500
7867955	0	6	0	-100	0	230	101300000	1000	0	0	-1	1500
7880515	0	13	0	-100	0	230	101300000	1000	0	0	-1	1500
7893075	0	13	0	-100	0	230	101300000	1000	0	0	-1	1500
7905635	0	9	0	-100	0	230	101300000	1000	0	0	-1	1500
7918195	0	5	0	-100	0	230	101300000	1000	0	0	-1	1500
7930755	0	6	0	-100	0	230	101300000	1000	0	0	-1	1500
7943315	0	6	0	-100	0	230	101300000	1000	0	0	-1	1500
7955875	0	8	0	-100	0	230	101300000	1000	0	0	-1	1500
7968435	0	12	0	-100	0	230	101300000	1000	0	0	-1	1500
7980995	0	7	0	-100	0	230	101300000	1000	0	0	-1	1500
7993555	0	12	0	-100	0	230	101300000	1000	0	0	-1	1500
8006115	0	12	0	-100	0	230	101300000	1000	0	0	-1	1500
8018675	0	8	0	-100	0	230	101300000	1000	0	0	-1	1500
8031235	0	5	0	-100	0	230	101300000	1000	0	0	-1	1500
8043795	0	8	0	-100	0	230	101300000	1000	0	0	-1	1500
8056355	0	10	0	-100	0	230	101300000	1000	0	0	-1	1500
8068915	0	12	0	-100	0	230	101300000	1000	0	0	-1	1500
8081475	0	8	0	-100	0	230	101300000	1000	0	0	-1	1500
8094035	0	8	0	-100	0	230	101300000	1000	0	0	-1	1500
8106595	0	8	0	-100	0	230	101300000	1000	0	0	-1	1500
8119155	0	13	0	-100	0	230	101300000	1000	0	0	-1	1500
8131715	0	12	0	-100	0	230	101300000	1000	0	0	-1	1500
8144275	0	8	0	-100	0	230	101300000	1000	0	0	-1	1500
8156835	0	9	0	-100	0	230	101300000	1000	0	0	-1	1500
8219635	0	12	0	-100	0	230	101300000	1000	0	0	-1	1500
8232195	0	8	0	-100	0	230	101300000	1000	0	0	-1	1500
8244755	0	8	0	-100	0	230	101300000	1000	0	0	-1	1500
8257315	0	5	0	-100	0	230	101300000	1000	0	0	-1	1500
8269875	0	7	0	-100	0	230	101300000	1000	0	0	-1	1500
8282435	0	9	0	-100	0	230	101300000	1000	0	0	-1	1500
8294995	0	11	0	-100	0	230	101300000	1000	0	0	-1	1500
8307555	0	7	0	-100	0	230	101300000	1000	0	0	-1	1500
8320115	0	6	0	-100	0	230	101300000	1000	0	0	-1	1500
8332675	0	10	0	-100	0	230	101300000	1000	0	0	-1	1500
8345235	0	8	0	-100	0	230	101300000	1000	0	0	-1	1500
8420595	0	4	0	-100	0	230	101300000	1000	0	0	-1	1500
8433155	0	5	0	-100	0	230	101300000	1000	0	0	-1	1500
8445715	0	8	0	-100	0	230	101300000	1000	0	0	-1	1500
8458275	0	8	0	-100	0	230	101300000	1000	0	0	-1	1500
8470835	0	8	0	-100	0	230	101300000	1000	0	0	-1	1500
8483395	0	13	0	-100	0	230	101300000	1000	0	0	-1	1500
8495955	0	12	0	-100	0	230	101300000	1000	0	0	-1	1500
8508515	0	12	0	-100	0	230	101300000	1000	0	0	-1	1500
8521075	0	9	0	-100	0	230	101300000	1000	0	0	-1	1500
8533635	0	8	0	-100	0	230	101300000	1000	0	0	-1	1500
8546195	0	6	0	-100	0	230	101300000	1000	0	0	-1	1500
8558755	0	8	0	-100	0	230	101300000	1000	0	0	-1	1500
8571315	0	7	0	-100	0	230	101300000	1000	0	0	-1	1500
8583875	0	8	0	-100	0	230	101300000	1000	0	0	-1	1500
8596435	0	12	0	-100	0	230	101300000	1000	0	0	-1	1500
8608995	0	6	0	-100	0	230	101300000	1000	0	0	-1	1500
8621555	0	10	0	-100	0	230	101300000	1000	0	0	-1	1500
8634115	0	8	0	-100	0	230	101300000	1000	0	0	-1	1500
8646675	0	8	0	-100	0	230	101300000	1000	0	0	-1	1500
8659235	0	5	0	-100	0	230	101300000	1000	0	0	-1	1500
8671795	0	9	0	-100	0	230	101300000	1000	0	0	-1	1500
8684355	0	8	0	-100	0	230	101300000	1000	0	0	-1	1500
8696915	0	12	0	-100	0	230	101300000	1000	0	0	-1	1500
8709475	0	13	0	-100	0	230	101300000	1000	0	0	-1	1500
8722035	0	11	0	-100	0	230	101300000	1000	0	0	-1	1500
8734595	0	10	0	-100	0	230	101300000	1000	0	0	-1	1500
8747155	0	10	0	-100	0	230	101300000	1000	0	0	-1	1500
8759715	0	9	0	-100	0	230	101300000	1000	0	0	-1	1500
8772275	0	7	0	-100	0	230	101300000	1000	0	0	-1	1500
8784835	0	8	0	-100	0	230	101300000	1000	0	0	-1	1500
8797395	0	8	0	-100	0	230	101300000	1000	0	0	-1	1500
8809955	0	8	0	-100	0	230	101300000	1000	0	0	-1	1500
8822515	0	9	0	-100	0	230	101300000	1000	0	0	-1	1500
8835075	0	7	0	-100	0	230	101300000	1000	0	0	-1	1500
8847635	0	7	0	-100	0	230	101300000	1000	0	0	-1	1500
8860195	0	8	0	-100	0	230	101300000	1000	0	0	-1	1500
8872755	0	12	0	-100	0	230	101300000	1000	0	0	-1	1500
8885315	0	12	0	-100	0	230	101300000	1000	0	0	-1	1500
8897875	0	9	0	-100	0	230	101300000	1000	0	0	-1	1500
8910435	0	7	0	-100	0	230	101300000	1000	0	0	-1	1500
8922995	0	11	0	-100	0	230	101300000	1000	0	0	-1	1500
8935555	0	7	0	-100	0	230	101300000	1000	0	0	-1	1500
8948115	0	8	0	-100	0	230	101300000	1000	0	0	-1	1500
8960675	0	9	0	-100	0	230	101300000	1000	0	0	-1	1500
8973235	0	10	0	-100	0	230	101300000	1000	0	0	-1	1500
8985795	0	11	0	-100	0	230	101300000	1000	0	0	-1	1500
8998355	0	8	0	-100	0	230	101300000	1000	0	0	-1	1500
9010915	0	4	0	-100	0	230	101300000	1000	0	0	-1	1500
9023475	0	8	0	-100	0	230	101300000	1000	0	0	-1	1500
9036035	0	7	0	-100	0	230	101300000	1000	0	0	-1	1500
9048595	0	7	0	-100	0	230	101300000	1000	0	0	-1	1500
9061155	0	6	0	-100	0	230	101300000	1000	0	0	-1	1500
9073715	0	9	0	-100	0	230	101300000	1000	0	0	-1	1500
9086275	0	12	0	-100	0	230	101300000	1000	0	0	-1	1500
9098835	0	12	0	-100	0	230	101300000	1000	0	0	-1	1500
9111395	0	8	0	-100	0	230	101300000	1000	0	0	-1	1500
9123955	0	7	0	-100	0	230	101300000	1000	0	0	-1	1500
9136515	0	8	0	-100	0	230	101300000	1000	0	0	-1	1500
9149075	0	12	0	-100	0	230	101300000	1000	0	0	-1	1500
9161635	0	12	0	-100	0	230	101300000	1000	0	0	-1	1500
9174195	2	7	0	-100	0	230	101300000	1000	0	0	-1	1500
9186755	0	10	0	-100	0	230	101300000	1000	0	0	-1	1500
9199315	0	8	0	-100	0	230	101300000	1000	0	0	-1	1500
9211875	0	6	0	-100	0	230	101300000	1000	0	0	-1	1500
9224435	0	9	0	-100	0	230	101300000	1000	0	0	-1	1500
9236995	0	8	0	-100	0	230	101300000	1000	0	0	-1	1500
9249555	0	12	0	-100	0	230	101300000	1000	0	0	-1	1500
9262115	0	11	0	-100	0	230	101300000	1000	0	0	-1	1500
9274675	0	6	0	-100	0	230	101300000	1000	0	0	-1	1500
9287235	0	12	0	-100	0	230	101300000	1000	0	0	-1	1500
9299795	0	8	0	-100	0	230	101300000	1000	0	0	-1	1500
9312355	0	7	0	-100	0	230	101300000	1000	0	0	-1	1500
9324915	0	13	0	-100	0	230	101300000	1000	0	0	-1	1500
9337475	0	10	0	-100	0	230	101300000	1000	0	0	-1	1500
9350035	0	6	0	-100	0	230	101300000	1000	0	0	-1	1500
9362595	0	12	0	-100	0	230	101300000	1000	0	0	-1	1500
9375155	0	10	0	-100	0	230	101300000	1000	0	0	-1	1500
9387715	0	5	0	-100	0	230	101300000	1000	0	0	-1	1500
9400275	0	12	0	-100	0	230	101300000	1000	0	0	-1	1500
9412835	0	9	0	-100	0	230	101300000	1000	0	0	-1	1500
9425395	0	6	0	-100	0	230	101300000	1000	0	0	-1	1500
9437955	0	12	0	-100	0	230	101300000	1000	0	0	-1	1500
9450515	0	7	0	-100	0	230	101300000	1000	0	0	-1	1500
9463075	0	7	0	-100	0	230	101300000	1000	0	0	-1	1500
9475635	0	10	0	-100	0	230	101300000	1000	0	0	-1	1500
9488195	0	8	0	-100	0	230	101300000	1000	0	0	-1	1500
9500755	0	8	0	-100	0	230	101300000	1000	0	0	-1	1500
9513315	0	11	0	-100	0	230	101300000	1000	0	0	-1	1500
9525875	0	8	0	-100	0	230	101300000	1000	0	0	-1	1500
9538435	0	8	0	-100	0	230	101300000	1000	0	0	-1	1500
9550995	0	8	0	-100	0	230	101300000	1000	0	0	-1	1500
9563555	0	14	0	-100	0	230	101300000	1000	0	0	-1	1500
9576115	0	12	0	-100	0	230	101300000	1000	0	0	-1	1500
9588675	0	8	0	-100	0	230	101300000	1000	0	0	-1	1500
9601235	0	6	0	-100	0	230	101300000	1000	0	0	-1	1500
9613795	0	6	0	-100	0	230	101300000	1000	0	0	-1	1500
9626355	0	9	0	-100	0	230	101300000	1000	0	0	-1	1500
9638915	0	12	0	-100	0	230	101300000	1000	0	0	-1	1500
9651475	0	10	0	-100	0	230	101300000	1000	0	0	-1	1500
9664035	0	5	0	-100	0	230	101300000	1000	0	0	-1	1500
9676595	0	10	0	-100	0	230	101300000	1000	0	0	-1	1500
9689155	0	12	0	-100	0	230	101300000	1000	0	0	-1	1500
9701715	0	6	0	-100	0	230	101300000	1000	0	0	-1	1500
9714275	0	6	0	-100	0	230	101300000	1000	0	0	-1	1500
9726835	0	10	0	-100	0	230	101300000	1000	0	0	-1	1500
9739395	0	12	0	-100	0	230	101300000	1000	0	0	-1	1500
9751955	0	5	0	-100	0	230	101300000	1000	0	0	-1	1500
9764515	0	6	0	-100	0	230	101300000	1000	0	0	-1	1500
9777075	0	9	0	-100	0	230	101300000	1000	0	0	-1	1500
9789635	0	12	0	-100	0	230	101300000	1000	0	0	-1	1500
9802195	0	8	0	-100	0	230	101300000	1000	0	0	-1	1500
9814755	0	8	0	-100	0	230	101300000	1000	0	0	-1	1500
9827315	0	10	0	-100	0	230	101300000	1000	0	0	-1	1500
9839875	0	14	0	-100	0	230	101300000	1000	0	0	-1	1500
9852435	0	9	0	-100	0	230	101300000	1000	0	0	-1	1500
9864995	0	13	0	-100	0	230	101300000	1000	0	0	-1	1500
9877555	0	5	0	-100	0	230	101300000	1000	0	0	-1	1500
9890115	0	11	0	-100	0	230	101300000	1000	0	0	-1	1500
9902675	0	9	0	-100	0	230	101300000	1000	0	0	-1	1500
9915235	0	7	0	-100	0	230	101300000	1000	0	0	-1	1500
9927795	0	8	0	-100	0	230	101300000	1000	0	0	-1	1500
9940355	0	13	0	-100	0	230	101300000	1000	0	0	-1	1500
9952915	0	4	0	-100	0	230	101300000	1000	0	0	-1	1500
9965475	0	9	0	-100	0	230	101300000	1000	0	0	-1	1500
9978035	0	9	0	-100	0	230	101300000	1000	0	0	-1	1500
9990595	0	8	0	-100	0	230	101300000	1000	0	0	-1	1500
10003155	0	11	0	-100	0	230	101300000	1000	0	0	-1	1500
10015715	0	8	0	-100	0	230	101300000	1000	0	0	-1	1500
10028275	0	6	0	-100	0	230	101300000	1000	0	0	-1	1500
10040835	0	8	0	-100	0	230	101300000	1000	0	0	-1	1500
10053395	0	12	0	-100	0	230	101300000	1000	0	0	-1	1500
10065955	0	5	0	-100	0	230	101300000	1000	0	0	-1	1500
10078515	0	7	0	-100	0	230	101300000	1000	0	0	-1	1500
10091075	0	12	0	-100	0	230	101300000	1000	0	0	-1	1500
10103635	0	8	0	-100	0	230	101300000	1000	0	0	-1	1500
10116195	0	6	0	-100	0	230	101300000	1000	0	0	-1	1500
10128755	0	12	0	-100	0	230	101300000	1000	0	0	-1	1500
10141315	0	8	0	-100	0	230	101300000	1000	0	0	-1	1500
10153875	0	5	0	-100	0	230	101300000	1000	0	0	-1	1500
10166435	0	12	0	-100	0	230	101300000	1000	0	0	-1	1500
10178995	0	13	0	-100	0	230	101300000	1000	0	0	-1	1500
10191555	0	8	0	-100	0	230	101300000	1000	0	0	-1	1500
10204115	0	8	0	-100	0	230	101300000	1000	0	0	-1	1500
10216675	0	7	0	-100	0	230	101300000	1000	0	0	-1	1500
10229235	0	12	0	-100	0	230	101300000	1000	0	0	-1	1500
10241795	0	6	0	-100	0	230	101300000	1000	0	0	-1	1500
10254355	0	13	0	-100	0	230	101300000	1000	0	0	-1	1500
10266915	0	9	0	-100	0	230	101300000	1000	0	0	-1	1500
10279475	0	7	0	-100	0	230	101300000	1000	0	0	-1	1500
10292035	0	12	0	-100	0	230	101300000	1000	0	0	-1	1500
10304595	0	6	0	-100	0	230	101300000	1000	0	0	-1	1500
10317155	0	6	0	-100	0	230	101300000	1000	0	0	-1	1500
10329715	0	12	0	-100	0	230	101300000	1000	0	0	-1	1500
10342275	0	7	0	-100	0	230	101300000	1000	0	0	-1	1500
10354835	0	12	0	-100	0	230	101300000	1000	0	0	-1	1500
10367395	0	10	0	-100	0	230	101300000	1000	0	0	-1	1500
10379955	0	7	0	-100	0	230	101300000	1000	0	0	-1	1500
10392515	0	11	0	-100	0	230	101300000	1000	0	0	-1	1500
10405075	0	8	0	-100	0	230	101300000	1000	0	0	-1	1500
10417635	0	12	0	-100	0	230	101300000	1000	0	0	-1	1500
10430195	0	8	0	-100	0	230	101300000	1000	0	0	-1	1500
10442755	0	9	0	-100	0	230	101300000	1000	0	0	-1	1500
10455315	0	8	0	-100	0	230	101300000	1000	0	0	-1	1500
10467875	0	6	0	-100	0	230	101300000	1000	0	0	-1	1500
10480435	0	12	0	-100	0	230	101300000	1000	0	0	-1	1500
10492995	0	11	0	-100	0	230	101300000	1000	0	0	-1	1500
10505555	0	12	0	-100	0	230	101300000	1000	0	0	-1	1500
10518115	0	8	0	-100	0	230	101300000	1000	0	0	-1	1500
10530675	0	6	0	-100	0	230	101300000	1000	0	0	-1	1500
10543235	0	12	0	-100	0	230	101300000	1000	0	0	-1	1500
10555795	0	8	0	-100	0	230	101300000	1000	0	0	-1	1500
10568355	0	7	0	-100	0	230	101300000	1000	0	0	-1	1500
10580915	0	11	0	-100	0	230	101300000	1000	0	0	-1	1500
10593475	0	7	0	-100	0	230	101300000	1000	0	0	-1	1500
10606035	0	10	0	-100	0	230	101300000	1000	0	0	-1	1500
10618595	0	7	0	-100	0	230	101300000	1000	0	0	-1	1500
10631155	0	12	0	-100	0	230	101300000	1000	0	0	-1	1500
10643715	0	8	0	-100	0	230	101300000	1000	0	0	-1	1500
10656275	0	13	0	-100	0	230	101300000	1000	0	0	-1	1500
10668835	0	5	0	-100	0	230	101300000	1000	0	0	-1	1500
10681395	0	9	0	-100	0	230	101300000	1000	0	0	-1	1500
10693955	0	8	0	-100	0	230	101300000	1000	0	0	-1	1500
10706515	0	6	0	-100	0	230	101300000	1000	0	0	-1	1500
10719075	0	12	0	-100	0	230	101300000	1000	0	0	-1	1500
10731635	0	6	0	-100	0	230	101300000	1000	0	0	-1	1500
10744195	0	13	0	-100	0	230	101300000	1000	0	0	-1	1500
10756755	0	8	0	-100	0	230	101300000	1000	0	0	-1	1500
10769315	0	12	0	-100	0	230	101300000	1000	0	0	-1	1500
10781875	0	8	0	-100	0	230	101300000	1000	0	0	-1	1500
10794435	0	8	0	-100	0	230	101300000	1000	0	0	-1	1500
10806995	0	7	0	-100	0	230	101300000	1000	0	0	-1	1500
10819555	0	7	0	-100	0	230	101300000	1000	0	0	-1	1500
10832115	0	6	0	-100	0	230	101300000	1000	0	0	-1	1500
10844675	0	12	0	-100	0	230	101300000	1000	0	0	-1	1500
10857235	0	7	0	-100	0	230	101300000	1000	0	0	-1	1500
10869795	0	7	0	-100	0	230	101300000	1000	0	0	-1	1500
10882355	0	12	0	-100	0	230	101300000	1000	0	0	-1	1500
10894915	0	7	0	-100	0	230	101300000	1000	0	0	-1	1500
10907475	0	9	0	-100	0	230	101300000	1000	0	0	-1	1500
10920035	0	9	0	-100	0	230	101300000	1000	0	0	-1	1500
10932595	0	7	0	-100	0	230	101300000	1000	0	0	-1	1500
10945155	0	12	0	-100	0	230	101300000	1000	0	0	-1	1500
10957715	0	6	0	-100	0	230	101300000	1000	0	0	-1	1500
10970275	0	13	0	-100	0	230	101300000	1000	0	0	-1	1500
10982835	0	9	0	-100	0	230	101300000	1000	0	0	-1	1500
10995395	0	7	0	-100	0	230	101300000	1000	0	0	-1	1500
11007955	0	13	0	-100	0	230	101300000	1000	0	0	-1	1500
11020515	0	11	0	-100	0	230	101300000	1000	0	0	-1	1500
11033075	0	6	0	-100	0	230	101300000	1000	0	0	-1	1500
11045635	0	8	0	-100	0	230	101300000	1000	0	0	-1	1500
11058195	0	11	0	-100	0	230	101300000	1000	0	0	-1	1500
11070755	0	8	0	-100	0	230	101300000	1000	0	0	-1	1500
11083315	0	8	0	-100	0	230	101300000	1000	0	0	-1	1500
11095875	0	10	0	-100	0	230	101300000	1000	0	0	-1	1500
11108435	0	12	0	-100	0	230	101300000	1000	0	0	-1	1500
11120995	0	14	0	-100	0	230	101300000	1000	0	0	-1	1500
11133555	0	8	0	-100	0	230	101300000	1000	0	0	-1	1500
11146115	0	9	0	-100	0	230	101300000	1000	0	0	-1	1500
11158675	0	9	0	-100	0	230	101300000	1000	0	0	-1	1500
11171235	0	8	0	-100	0	230	101300000	1000	0	0	-1	1500
11183795	0	9	0	-100	0	230	101300000	1000	0	0	-1	1500
11196355	0	12	0	-100	0	230	101300000	1000	0	0	-1	1500
11208915	0	6	0	-100	0	230	101300000	1000	0	0	-1	1500
11221475	0	7	0	-100	0	230	101300000	1000	0	0	-1	1500
11234035	0	14	0	-100	0	230	101300000	1000	0	0	-1	1500
11246595	0	7	0	-100	0	230	101300000	1000	0	0	-1	1500
11259155	0	7	0	-100	0	230	101300000	1000	0	0	-1	1500
11271715	0	12	0	-100	0	230	101300000	1000	0	0	-1	1500
11284275	0	8	0	-100	0	230	101300000	1000	0	0	-1	1500
11296835	0	7	0	-100	0	230	101300000	1000	0	0	-1	1500
11309395	0	12	0	-100	0	230	101300000	1000	0	0	-1	1500
11321955	0	7	0	-100	0	230	101300000	1000	0	0	-1	1500
11334515	0	7	0	-100	0	230	101300000	1000	0	0	-1	1500
11347075	0	12	0	-100	0	230	101300000	1000	0	0	-1	1500
11359635	0	7	0	-100	0	230	101300000	1000	0	0	-1	1500
11372195	0	8	0	-100	0	230	101300000	1000	0	0	-1	1500
11384755	0	12	0	-100	0	230	101300000	1000	0	0	-1	1500
11397315	0	8	0	-100	0	230	101300000	1000	0	0	-1	1500
11409875	0	7	0	-100	0	230	101300000	1000	0	0	-1	1500
11422435	0	12	0	-100	0	230	101300000	1000	0	0	-1	1500
11434995	0	14	0	-100	0	230	101300000	1000	0	0	-1	1500
11447555	0	6	0	-100	0	230	101300000	1000	0	0	-1	1500
11460115	0	12	0	-100	0	230	101300000	1000	0	0	-1	1500
11472675	0	8	0	-100	0	230	101300000	1000	0	0	-1	1500
11485235	0	7	0	-100	0	230	101300000	1000	0	0	-1	1500
11497795	0	12	0	-100	0	230	101300000	1000	0	0	-1	1500
11510355	0	5	0	-100	0	230	101300000	1000	0	0	-1	1500
11522915	0	7	0	-100	0	230	101300000	1000	0	0	-1	1500
11535475	0	12	0	-100	0	230	101300000	1000	0	0	-1	1500
11548035	0	8	0	-100	0	230	101300000	1000	0	0	-1	1500
11560595	0	15	0	-100	0	230	101300000	1000	0	0	-1	1500
11573155	0	8	0	-100	0	230	101300000	1000	0	0	-1	1500
11585715	0	6	0	-100	0	230	101300000	1000	0	0	-1	1500
11598275	0	12	0	-100	0	230	101300000	1000	0	0	-1	1500
11610835	0	5	0	-100	0	230	101300000	1000	0	0	-1	1500
11623395	0	7	0	-100	0	230	101300000	1000	0	0	-1	1500
11635955	0	11	0	-100	0	230	101300000	1000	0	0	-1	1500
11648515	0	5	0	-100	0	230	101300000	1000	0	0	-1	1500
11661075	0	8	0	-100	0	230	101300000	1000	0	0	-1	1500
11673635	0	8	0	-100	0	230	101300000	1000	0	0	-1	1500
11686195	0	8	0	-100	0	230	101300000	1000	0	0	-1	1500
11698755	0	10	0	-100	0	230	101300000	1000	0	0	-1	1500
11711315	0	6	0	-100	0	230	101300000	1000	0	0	-1	1500
11723875	0	12	0	-100	0	230	101300000	1000	0	0	-1	1500
11736435	0	8	0	-100	0	230	101300000	1000	0	0	-1	1500
11748995	0	8	0	-100	0	230	101300000	1000	0	0	-1	1500
11761555	0	11	0	-100	0	230	101300000	1000	0	0	-1	1500
11774115	0	9	0	-100	0	230	101300000	1000	0	0	-1	1500
11786675	0	6	0	-100	0	230	101300000	1000	0	0	-1	1500
11799235	0	12	0	-100	0	230	101300000	1000	0	0	-1	1500
11811795	0	8	0	-100	0	230	101300000	1000	0	0	-1	1500
11824355	0	7	0	-100	0	230	101300000	1000	0	0	-1	1500
11836915	0	12	0	-100	0	230	101300000	1000	0	0	-1	1500
11849475	0	7	0	-100	0	230	101300000	1000	0	0	-1	1500
11862035	0	6	0	-100	0	230	101300000	1000	0	0	-1	1500
11874595	0	12	0	-100	0	230	101300000	1000	0	0	-1	1500
11887155	0	9	0	-100	0	230	101300000	1000	0	0	-1	1500
11899715	0	9	0	-100	0	230	101300000	1000	0	0	-1	1500
11912275	0	10	0	-100	0	230	101300000	1000	0	0	-1	1500
11924835	0	6	0	-100	0	230	101300000	1000	0	0	-1	1500
11937395	0	13	0	-100	0	230	101300000	1000	0	0	-1	1500
11949955	0	7	0	-100	0	230	101300000	1000	0	0	-1	1500
11962515	0	8	0	-100	0	230	101300000	1000	0	0	-1	1500
11975075	0	6	0	-100	0	230	101300000	1000	0	0	-1	1500
11987635	0	10	0	-100	0	230	101300000	1000	0	0	-1	1500
12000195	0	9	0	-100	0	230	101300000	1000	0	0	-1	1500
12012755	0	9	0	-100	0	230	101300000	1000	0	0	-1	1500
12025315	0	11	0	-100	0	230	101300000	1000	0	0	-1	1500
12037875	0	7	0	-100	0	230	101300000	1000	0	0	-1	1500
12050435	0	9	0	-100	0	230	101300000	1000	0	0	-1	1500
12062995	0	8	0	-100	0	230	101300000	1000	0	0	-1	1500
12075555	0	5	0	-100	0	230	101300000	1000	0	0	-1	1500
12088115	0	7	0	-100	0	230	101300000	1000	0	0	-1	1500
12100675	0	8	0	-100	0	230	101300000	1000	0	0	-1	1500
12113235	0	14	0	-100	0	230	101300000	1000	0	0	-1	1500
12125795	0	8	0	-100	0	230	101300000	1000	0	0	-1	1500
12138355	0	8	0	-100	0	230	101300000	1000	0	0	-1	1500
12150915	0	10	0	-100	0	230	101300000	1000	0	0	-1	1500
12163475	0	7	0	-100	0	230	101300000	1000	0	0	-1	1500
12176035	0	13	0	-100	0	230	101300000	1000	0	0	-1	1500
12188595	0	4	0	-100	0	230	101300000	1000	0	0	-1	1500
12201155	0	10	0	-100	0	230	101300000	1000	0	0	-1	1500
12213715	0	8	0	-100	0	230	101300000	1000	0	0	-1	1500
12226275	0	7	0	-100	0	230	101300000	1000	0	0	-1	1500
12238835	0	11	0	-100	0	230	101300000	1000	0	0	-1	1500
12251395	0	4	0	-100	0	230	101300000	1000	0	0	-1	1500
12263955	0	6	0	-100	0	230	101300000	1000	0	0	-1	1500
12276515	0	12	0	-100	0	230	101300000	1000	0	0	-1	1500
12289075	0	8	0	-100	0	230	101300000	1000	0	0	-1	1500
12301635	0	10	0	-100	0	230	101300000	1000	0	0	-1	1500
12314195	0	8	0	-100	0	230	101300000	1000	0	0	-1	1500
12326755	0	6	0	-100	0	230	101300000	1000	0	0	-1	1500
12339315	0	12	0	-100	0	230	101300000	1000	0	0	-1	1500
12351875	0	6	0	-100	0	230	101300000	1000	0	0	-1	1500
12364435	0	9	0	-100	0	230	101300000	1000	0	0	-1	1500
12376995	0	13	0	-100	0	230	101300000	1000	0	0	-1	1500
12389555	0	6	0	-100	0	230	101300000	1000	0	0	-1	1500
12402115	0	11	0	-100	0	230	101300000	1000	0	0	-1	1500
12414675	0	7	0	-100	0	230	101300000	1000	0	0	-1	1500
12427235	0	12	0	-100	0	230	101300000	1000	0	0	-1	1500
12439795	0	8	0	-100	0	230	101300000	1000	0	0	-1	1500
12452355	0	8	0	-100	0	230	101300000	1000	0	0	-1	1500
12464915	0	8	0	-100	0	230	101300000	1000	0	0	-1	1500
12477475	0	9	0	-100	0	230	101300000	1000	0	0	-1	1500
12490035	0	9	0	-100	0	230	101300000	1000	0	0	-1	1500
12502595	0	9	0	-100	0	230	101300000	1000	0	0	-1	1500
12515155	0	8	0	-100	0	230	101300000	1000	0	0	-1	1500
12527715	0	12	0	-100	0	230	101300000	1000	0	0	-1	1500
12540275	0	9	0	-100	0	230	101300000	1000	0	0	-1	1500
12552835	0	12	0	-100	0	230	101300000	1000	0	0	-1	1500
12565395	0	7	0	-100	0	230	101300000	1000	0	0	-1	1500
12577955	0	10	0	-100	0	230	101300000	1000	0	0	-1	1500
12590515	0	7	0	-100	0	230	101300000	1000	0	0	-1	1500
12603075	0	10	0	-100	0	230	101300000	1000	0	0	-1	1500
12615635	0	9	0	-100	0	230	101300000	1000	0	0	-1	1500
12628195	0	7	0	-100	0	230	101300000	1000	0	0	-1	1500
12640755	0	7	0	-100	0	230	101300000	1000	0	0	-1	1500
12653315	0	11	0	-100	0	230	101300000	1000	0	0	-1	1500
12665875	0	6	0	-100	0	230	101300000	1000	0	0	-1	1500
12678435	0	8	0	-100	0	230	101300000	1000	0	0	-1	1500
12690995	0	8	0	-100	0	230	101300000	1000	0	0	-1	1500
12703555	0	8	0	-100	0	230	101300000	1000	0	0	-1	1500
12716115	0	8	0	-100	0	230	101300000	1000	0	0	-1	1500
12728675	0	8	0	-100	0	230	101300000	1000	0	0	-1	1500
12741235	0	7	0	-100	0	230	101300000	1000	0	0	-1	1500
12753795	0	9	0	-100	0	230	101300000	1000	0	0	-1	1500
12766355	0	7	0	-100	0	230	101300000	1000	0	0	-1	1500
12778915	0	12	0	-100	0	230	101300000	1000	0	0	-1	1500
12791475	0	5	0	-100	0	230	101300000	1000	0	0	-1	1500
12804035	0	6	0	-100	0	230	101300000	1000	0	0	-1	1500
12816595	0	12	0	-100	0	230	101300000	1000	0	0	-1	1500
12829155	0	8	0	-100	0	230	101300000	1000	0	0	-1	1500
12841715	0	6	0	-100	0	230	101300000	1000	0	0	-1	1500
12854275	0	14	0	-100	0	230	101300000	1000	0	0	-1	1500
12866835	0	9	0	-100	0	230	101300000	1000	0	0	-1	1500
12879395	0	7	0	-100	0	230	101300000	1000	0	0	-1	1500
12891955	0	12	0	-100	0	230	101300000	1000	0	0	-1	1500
12904515	0	9	0	-100	0	230	101300000	1000	0	0	-1	1500
12917075	0	8	0	-100	0	230	101300000	1000	0	0	-1	1500
12929635	0	13	0	-100	0	230	101300000	1000	0	0	-1	1500
12942195	0	7	0	-100	0	230	101300000	1000	0	0	-1	1500
12954755	0	9	0	-100	0	230	101300000	1000	0	0	-1	1500
12967315	0	8	0	-100	0	230	101300000	1000	0	0	-1	1500
12979875	0	9	0	-100	0	230	101300000	1000	0	0	-1	1500
12992435	0	8	0	-100	0	230	101300000	1000	0	0	-1	1500
13004995	0	8	0	-100	0	230	101300000	1000	0	0	-1	1500
13017555	0	10	0	-100	0	230	101300000	1000	0	0	-1	1500
13030115	0	6	0	-100	0	230	101300000	1000	0	0	-1	1500
13042675	0	12	0	-100	0	230	101300000	1000	0	0	-1	1500
13055235	0	6	0	-100	0	230	101300000	1000	0	0	-1	1500
13067795	0	8	0	-100	0	230	101300000	1000	0	0	-1	1500
13080355	0	8	0	-100	0	230	101300000	1000	0	0	-1	1500
13092915	0	7	0	-100	0	230	101300000	1000	0	0	-1	1500
13105475	0	12	0	-100	0	230	101300000	1000	0	0	-1	1500
13118035	0	8	0	-100	0	230	101300000	1000	0	0	-1	1500
13130595	0	12	0	-100	0	230	101300000	1000	0	0	-1	1500
13143155	0	7	0	-100	0	230	101300000	1000	0	0	-1	1500
13155715	0	10	0	-100	0	230	101300000	1000	0	0	-1	1500
13168275	0	7	0	-100	0	230	101300000	1000	0	0	-1	1500
13180835	0	11	0	-100	0	230	101300000	1000	0	0	-1	1500
13193395	0	5	0	-100	0	230	101300000	1000	0	0	-1	1500
13205955	0	9	0	-100	0	230	101300000	1000	0	0	-1	1500
13218515	0	8	0	-100	0	230	101300000	1000	0	0	-1	1500
13231075	0	8	0	-100	0	230	101300000	1000	0	0	-1	1500
13243635	0	8	0	-100	0	230	101300000	1000	0	0	-1	1500
13256195	0	9	0	-100	0	230	101300000	1000	0	0	-1	1500
13268755	0	8	0	-100	0	230	101300000	1000	0	0	-1	1500
13281315	0	9	0	-100	0	230	101300000	1000	0	0	-1	1500
13293875	0	8	0	-100	0	230	101300000	1000	0	0	-1	1500
13306435	0	10	0	-100	0	230	101300000	1000	0	0	-1	1500
13318995	0	13	0	-100	0	230	101300000	1000	0	0	-1	1500
13331555	0	8	0	-100	0	230	101300000	1000	0	0	-1	1500
13344115	0	12	0	-100	0	230	101300000	1000	0	0	-1	1500
13356675	0	8	0	-100	0	230	101300000	1000	0	0	-1	1500
13369235	0	12	0	-100	0	230	101300000	1000	0	0	-1	1500
13381795	0	9	0	-100	0	230	101300000	1000	0	0	-1	1500
13394355	0	7	0	-100	0	230	101300000	1000	0	0	-1	1500
13406915	0	12	0	-100	0	230	101300000	1000	0	0	-1	1500
13419475	0	8	0	-100	0	230	101300000	1000	0	0	-1	1500
13432035	0	14	0	-100	0	230	101300000	1000	0	0	-1	1500
13444595	0	7	0	-100	0	230	101300000	1000	0	0	-1	1500
13457155	0	10	0	-100	0	230	101300000	1000	0	0	-1	1500
13469715	0	9	0	-100	0	230	101300000	1000	0	0	-1	1500
13482275	0	7	0	-100	0	230	101300000	1000	0	0	-1	1500
13494835	0	13	0	-100	0	230	101300000	1000	0	0	-1	1500
13507395	0	5	0	-100	0	230	101300000	1000	0	0	-1	1500
13519955	0	11	0	-100	0	230	101300000	1000	0	0	-1	1500
13532515	0	11	0	-100	0	230	101300000	1000	0	0	-1	1500
13545075	0	6	0	-100	0	230	101300000	1000	0	0	-1	1500
13557635	0	12	0	-100	0	230	101300000	1000	0	0	-1	1500
13570195	0	6	0	-100	0	230	101300000	1000	0	0	-1	1500
13582755	0	12	0	-100	0	230	101300000	1000	0	0	-1	1500
13595315	0	8	0	-100	0	230	101300000	1000	0	0	-1	1500
13607875	0	8	0	-100	0	230	101300000	1000	0	0	-1	1500
13620435	0	9	0	-100	0	230	101300000	1000	0	0	-1	1500
13632995	0	8	0	-100	0	230	101300000	1000	0	0	-1	1500
13645555	0	10	0	-100	0	230	101300000	1000	0	0	-1	1500
13658115	0	5	0	-100	0	230	101300000	1000	0	0	-1	1500
13670675	0	12	0	-100	0	230	101300000	1000	0	0	-1	1500
13683235	0	6	0	-100	0	230	101300000	1000	0	0	-1	1500
13695795	0	13	0	-100	0	230	101300000	1000	0	0	-1	1500
13708355	0	5	0	-100	0	230	101300000	1000	0	0	-1	1500
13720915	0	12	0	-100	0	230	101300000	1000	0	0	-1	1500
13733475	0	5	0	-100	0	230	101300000	1000	0	0	-1	1500
13746035	0	10	0	-100	0	230	101300000	1000	0	0	-1	1500
13758595	0	12	0	-100	0	230	101300000	1000	0	0	-1	1500
13771155	0	6	0	-100	0	230	101300000	1000	0	0	-1	1500
13783715	0	8	0	-100	0	230	101300000	1000	0	0	-1	1500
13796275	0	9	0	-100	0	230	101300000	1000	0	0	-1	1500
13808835	0	6	0	-100	0	230	101300000	1000	0	0	-1	1500
13821395	0	7	0	-100	0	230	101300000	1000	0	0	-1	1500
13833955	0	8	0	-100	0	230	101300000	1000	0	0	-1	1500
13846515	0	12	0	-100	0	230	101300000	1000	0	0	-1	1500
13859075	0	10	0	-100	0	230	101300000	1000	0	0	-1	1500
13871635	0	4	0	-100	0	230	101300000	1000	0	0	-1	1500
13884195	0	7	0	-100	0	230	101300000	1000	0	0	-1	1500
13896755	0	13	0	-100	0	230	101300000	1000	0	0	-1	1500
13909315	0	10	0	-100	0	230	101300000	1000	0	0	-1	1500
13921875	0	8	0	-100	0	230	101300000	1000	0	0	-1	1500
13934435	0	6	0	-100	0	230	101300000	1000	0	0	-1	1500
13946995	0	7	0	-100	0	230	101300000	1000	0	0	-1	1500
13959555	0	9	0	-100	0	230	101300000	1000	0	0	-1	1500
13972115	0	6	0	-100	0	230	101300000	1000	0	0	-1	1500
13984675	0	8	0	-100	0	230	101300000	1000	0	0	-1	1500
13997235	0	11	0	-100	0	230	101300000	1000	0	0	-1	1500
14009795	0	8	0	-100	0	230	101300000	1000	0	0	-1	1500
14022355	0	8	0	-100	0	230	101300000	1000	0	0	-1	1500
14034915	0	8	0	-100	0	230	101300000	1000	0	0	-1	1500
14047475	0	12	0	-100	0	230	101300000	1000	0	0	-1	1500
14060035	0	8	0	-100	0	230	101300000	1000	0	0	-1	1500
14072595	0	6	0	-100	0	230	101300000	1000	0	0	-1	1500
14085155	0	12	0	-100	0	230	101300000	1000	0	0	-1	1500
14097715	0	9	0	-100	0	230	101300000	1000	0	0	-1	1500
14110275	0	10	0	-100	0	230	101300000	1000	0	0	-1	1500
14122835	0	9	0	-100	0	230	101300000	1000	0	0	-1	1500
14135395	0	7	0	-100	0	230	101300000	1000	0	0	-1	1500
14147955	0	11	0	-100	0	230	101300000	1000	0	0	-1	1500
14160515	0	6	0	-100	0	230	101300000	1000	0	0	-1	1500
14173075	0	8	0	-100	0	230	101300000	1000	0	0	-1	1500
14185635	0	7	0	-100	0	230	101300000	1000	0	0	-1	1500
14198195	0	8	0	-100	0	230	101300000	1000	0	0	-1	1500
14210755	0	8	0	-100	0	230	101300000	1000	0	0	-1	1500
14223315	0	8	0	-100	0	230	101300000	1000	0	0	-1	1500
14235875	0	12	0	-100	0	230	101300000	1000	0	0	-1	1500
14248435	0	7	0	-100	0	230	101300000	1000	0	0	-1	1500
14260995	0	7	0	-100	0	230	101300000	1000	0	0	-1	1500
14298675	0	8	0	-100	0	230	101300000	1000	0	0	-1	1500
14311235	0	5	0	-100	0	230	101300000	1000	0	0	-1	1500
14323795	0	13	0	-100	0	230	101300000	1000	0	0	-1	1500
14336355	0	9	0	-100	0	230	101300000	1000	0	0	-1	1500
14348915	0	12	0	-100	0	230	101300000	1000	0	0	-1	1500
14361475	0	6	0	-100	0	230	101300000	1000	0	0	-1	1500
14374035	0	12	0	-100	0	230	101300000	1000	0	0	-1	1500
14386595	0	6	0	-100	0	230	101300000	1000	0	0	-1	1500
14399155	0	11	0	-100	0	230	101300000	1000	0	0	-1	1500
14411715	0	7	0	-100	0	230	101300000	1000	0	0	-1	1500
14424275	0	9	0	-100	0	230	101300000	1000	0	0	-1	1500
14436835	0	8	0	-100	0	230	101300000	1000	0	0	-1	1500
14449395	0	8	0	-100	0	230	101300000	1000	0	0	-1	1500
14461955	0	8	0	-100	0	230	101300000	1000	0	0	-1	1500
14474515	0	7	0	-100	0	230	101300000	1000	0	0	-1	1500
14487075	0	8	0	-100	0	230	101300000	1000	0	0	-1	1500
14499635	0	11	0	-100	0	230	101300000	1000	0	0	-1	1500
14512195	0	6	0	-100	0	230	101300000	1000	0	0	-1	1500
14524755	0	12	0	-100	0	230	101300000	1000	0	0	-1	1500
14537315	0	8	0	-100	0	230	101300000	1000	0	0	-1	1500
14549875	0	9	0	-100	0	230	101300000	1000	0	0	-1	1500
14562435	0	7	0	-100	0	230	101300000	1000	0	0	-1	1500
14574995	0	9	0	-100	0	230	101300000	1000	0	0	-1	1500
14587555	0	8	0	-100	0	230	101300000	1000	0	0	-1	1500
14600115	0	8	0	-100	0	230	101300000	1000	0	0	-1	1500
14612675	0	12	0	-100	0	230	101300000	1000	0	0	-1	1500
14625235	0	8	0	-100	0	230	101300000	1000	0	0	-1	1500
14637795	0	12	0	-100	0	230	101300000	1000	0	0	-1	1500
14650355	0	8	0	-100	0	230	101300000	1000	0	0	-1	1500
14662915	0	12	0	-100	0	230	101300000	1000	0	0	-1	1500
14675475	0	5	0	-100	0	230	101300000	1000	0	0	-1	1500
14688035	0	7	0	-100	0	230	101300000	1000	0	0	-1	1500
14700595	0	11	0	-100	0	230	101300000	1000	0	0	-1	1500
14713155	0	8	0	-100	0	230	101300000	1000	0	0	-1	1500
14725715	0	7	0	-100	0	230	101300000	1000	0	0	-1	1500
14738275	0	13	0	-100	0	230	101300000	1000	0	0	-1	1500
14750835	0	5	0	-100	0	230	101300000	1000	0	0	-1	1500
14763395	0	6	0	-100	0	230	101300000	1000	0	0	-1	1500
14775955	0	12	0	-100	0	230	101300000	1000	0	0	-1	1500
14788515	0	6	0	-100	0	230	101300000	1000	0	0	-1	1500
14801075	0	7	0	-100	0	230	101300000	1000	0	0	-1	1500
14813635	0	11	0	-100	0	230	101300000	1000	0	0	-1	1500
14826195	0	8	0	-100	0	230	101300000	1000	0	0	-1	1500
14838755	0	6	0	-100	0	230	101300000	1000	0	0	-1	1500
14851315	0	15	0	-100	0	230	101300000	1000	0	0	-1	1500
14863875	0	8	0	-100	0	230	101300000	1000	0	0	-1	1500
14876435	0	10	0	-100	0	230	101300000	1000	0	0	-1	1500
14888995	0	10	0	-100	0	230	101300000	1000	0	0	-1	1500
14901555	0	8	0	-100	0	230	101300000	1000	0	0	-1	1500
14914115	0	8	0	-100	0	230	101300000	1000	0	0	-1	1500
14926675	0	8	0	-100	0	230	101300000	1000	0	0	-1	1500
14939235	0	6	0	-100	0	230	101300000	1000	0	0	-1	1500
14951795	0	12	0	-100	0	230	101300000	1000	0	0	-1	1500
14964355	0	11	0	-100	0	230	101300000	1000	0	0	-1	1500
14976915	0	9	0	-100	0	230	101300000	1000	0	0	-1	1500
14989475	0	7	0	-100	0	230	101300000	1000	0	0	-1	1500
15002035	0	13	0	-100	0	230	101300000	1000	0	0	-1	1500
15014595	0	8	0	-100	0	230	101300000	1000	0	0	-1	1500
15027155	0	5	0	-100	0	230	101300000	1000	0	0	-1	1500
15039715	0	9	0	-100	0	230	101300000	1000	0	0	-1	1500
15052275	0	11	0	-100	0	230	101300000	1000	0	0	-1	1500
15064835	0	6	0	-100	0	230	101300000	1000	0	0	-1	1500
15077395	0	8	0	-100	0	230	101300000	1000	0	0	-1	1500
15089955	0	8	0	-100	0	230	101300000	1000	0	0	-1	1500
15102515	0	9	0	-100	0	230	101300000	1000	0	0	-1	1500
15115075	0	7	0	-100	0	230	101300000	1000	0	0	-1	1500
15127635	0	8	0	-100	0	230	101300000	1000	0	0	-1	1500
15140195	0	7	0	-100	0	230	101300000	1000	0	0	-1	1500
15152755	0	13	0	-100	0	230	101300000	1000	0	0	-1	1500
15165315	0	6	0	-100	0	230	101300000	1000	0	0	-1	1500
15177875	0	12	0	-100	0	230	101300000	1000	0	0	-1	1500
15190435	0	8	0	-100	0	230	101300000	1000	0	0	-1	1500
15202995	0	8	0	-100	0	230	101300000	1000	0	0	-1	1500
15215555	0	8	0	-100	0	230	101300000	1000	0	0	-1	1500
15228115	0	12	0	-100	0	230	101300000	1000	0	0	-1	1500
15240675	0	6	0	-100	0	230	101300000	1000	0	0	-1	1500
15253235	0	12	0	-100	0	230	101300000	1000	0	0	-1	1500
15265795	0	6	0	-100	0	230	101300000	1000	0	0	-1	1500
15278355	0	11	0	-100	0	230	101300000	1000	0	0	-1	1500
15290915	0	7	0	-100	0	230	101300000	1000	0	0	-1	1500
15303475	0	10	0	-100	0	230	101300000	1000	0	0	-1	1500
15316035	0	9	0	-100	0	230	101300000	1000	0	0	-1	1500
15328595	0	8	0	-100	0	230	101300000	1000	0	0	-1	1500
15341155	0	12	0	-100	0	230	101300000	1000	0	0	-1	1500
15353715	0	8	0	-100	0	230	101300000	1000	0	0	-1	1500
15366275	0	13	0	-100	0	230	101300000	1000	0	0	-1	1500
15378835	0	9	0	-100	0	230	101300000	1000	0	0	-1	1500
15391395	0	8	0	-100	0	230	101300000	1000	0	0	-1	1500
15403955	0	7	0	-100	0	230	101300000	1000	0	0	-1	1500
15416515	0	8	0	-100	0	230	101300000	1000	0	0	-1	1500
15429075	0	8	0	-100	0	230	101300000	1000	0	0	-1	1500
15441635	0	10	0	-100	0	230	101300000	1000	0	0	-1	1500
15454195	0	7	0	-100	0	230	101300000	1000	0	0	-1	1500
15466755	0	9	0	-100	0	230	101300000	1000	0	0	-1	1500
15479315	0	8	0	-100	0	230	101300000	1000	0	0	-1	1500
15491875	0	9	0	-100	0	230	101300000	1000	0	0	-1	1500
15504435	0	9	0	-100	0	230	101300000	1000	0	0	-1	1500
15516995	0	8	0	-100	0	230	101300000	1000	0	0	-1	1500
15529555	0	8	0	-100	0	230	101300000	1000	0	0	-1	1500
15542115	0	8	0	-100	0	230	101300000	1000	0	0	-1	1500
15554675	0	7	0	-100	0	230	101300000	1000	0	0	-1	1500
15567235	0	6	0	-100	0	230	101300000	1000	0	0	-1	1500
15579795	0	11	0	-100	0	230	101300000	1000	0	0	-1	1500
15592355	0	7	0	-100	0	230	101300000	1000	0	0	-1	1500
15604915	0	12	0	-100	0	230	101300000	1000	0	0	-1	1500
15617475	0	7	0	-100	0	230	101300000	1000	0	0	-1	1500
15630035	0	6	0	-100	0	230	101300000	1000	0	0	-1	1500
15642595	0	11	0	-100	0	230	101300000	1000	0	0	-1	1500
15655155	0	7	0	-100	0	230	101300000	1000	0	0	-1	1500
15667715	0	9	0	-100	0	230	101300000	1000	0	0	-1	1500
15680275	0	7	0	-100	0	230	101300000	1000	0	0	-1	1500
15692835	0	8	0	-100	0	230	101300000	1000	0	0	-1	1500
15705395	0	8	0	-100	0	230	101300000	1000	0	0	-1	1500
15717955	0	6	0	-100	0	230	101300000	1000	0	0	-1	1500
15730515	0	12	0	-100	0	230	101300000	1000	0	0	-1	1500
15743075	0	5	0	-100	0	230	101300000	1000	0	0	-1	1500
15755635	0	8	0	-100	0	230	101300000	1000	0	0	-1	1500
15768195	0	5	0	-100	0	230	101300000	1000	0	0	-1	1500
15780755	0	14	0	-100	0	230	101300000	1000	0	0	-1	1500
15793315	0	8	0	-100	0	230	101300000	1000	0	0	-1	1500
15805875	0	12	0	-100	0	230	101300000	1000	0	0	-1	1500
15818435	0	4	0	-100	0	230	101300000	1000	0	0	-1	1500
15830995	0	9	0	-100	0	230	101300000	1000	0	0	-1	1500
15843555	0	8	0	-100	0	230	101300000	1000	0	0	-1	1500
15856115	0	8	0	-100	0	230	101300000	1000	0	0	-1	1500
15868675	0	10	0	-100	0	230	101300000	1000	0	0	-1	1500
15881235	0	7	0	-100	0	230	101300000	1000	0	0	-1	1500
15893795	0	9	0	-100	0	230	101300000	1000	0	0	-1	1500
15906355	0	10	0	-100	0	230	101300000	1000	0	0	-1	1500
15918915	0	8	0	-100	0	230	101300000	1000	0	0	-1	1500
15931475	0	8	0	-100	0	230	101300000	1000	0	0	-1	1500
15944035	0	8	0	-100	0	230	101300000	1000	0	0	-1	1500
15956595	0	6	0	-100	0	230	101300000	1000	0	0	-1	1500
15969155	0	10	0	-100	0	230	101300000	1000	0	0	-1	1500
15981715	0	8	0	-100	0	230	101300000	1000	0	0	-1	1500
15994275	0	9	0	-100	0	230	101300000	1000	0	0	-1	1500
16006835	0	8	0	-100	0	230	101300000	1000	0	0	-1	1500
16019395	0	8	0	-100	0	230	101300000	1000	0	0	-1	1500
16031955	0	7	0	-100	0	230	101300000	1000	0	0	-1	1500
16044515	0	8	0	-100	0	230	101300000	1000	0	0	-1	1500
16057075	0	9	0	-100	0	230	101300000	1000	0	0	-1	1500
16069635	0	7	0	-100	0	230	101300000	1000	0	0	-1	1500
16082195	0	11	0	-100	0	230	101300000	1000	0	0	-1	1500
16094755	0	8	0	-100	0	230	101300000	1000	0	0	-1	1500
16107315	0	13	0	-100	0	230	101300000	1000	0	0	-1	1500
16119875	0	5	0	-100	0	230	101300000	1000	0	0	-1	1500
16132435	0	10	0	-100	0	230	101300000	1000	0	0	-1	1500
16144995	0	8	0	-100	0	230	101300000	1000	0	0	-1	1500
16157555	0	7	0	-100	0	230	101300000	1000	0	0	-1	1500
16170115	0	8	0	-100	0	230	101300000	1000	0	0	-1	1500
16182675	0	10	0	-100	0	230	101300000	1000	0	0	-1	1500
16195235	0	6	0	-100	0	230	101300000	1000	0	0	-1	1500
16207795	0	5	0	-100	0	230	101300000	1000	0	0	-1	1500
16220355	0	12	0	-100	0	230	101300000	1000	0	0	-1	1500
16232915	0	8	0	-100	0	230	101300000	1000	0	0	-1	1500
16245475	0	8	0	-100	0	230	101300000	1000	0	0	-1	1500
16258035	0	8	0	-100	0	230	101300000	1000	0	0	-1	1500
16270595	0	10	0	-100	0	230	101300000	1000	0	0	-1	1500
16283155	0	6	0	-100	0	230	101300000	1000	0	0	-1	1500
16295715	0	10	0	-100	0	230	101300000	1000	0	0	-1	1500
16308275	0	11	0	-100	0	230	101300000	1000	0	0	-1	1500
16320835	0	8	0	-100	0	230	101300000	1000	0	0	-1	1500
16333395	0	10	0	-100	0	230	101300000	1000	0	0	-1	1500
16345955	0	10	0	-100	0	230	101300000	1000	0	0	-1	1500
16358515	0	6	0	-100	0	230	101300000	1000	0	0	-1	1500
16371075	0	8	0	-100	0	230	101300000	1000	0	0	-1	1500
16383635	0	8	0	-100	0	230	101300000	1000	0	0	-1	1500
16396195	0	7	0	-100	0	230	101300000	1000	0	0	-1	1500
16408755	0	13	0	-100	0	230	101300000	1000	0	0	-1	1500
16421315	0	9	0	-100	0	230	101300000	1000	0	0	-1	1500
16433875	0	8	0	-100	0	230	101300000	1000	0	0	-1	1500
16446435	0	8	0	-100	0	230	101300000	1000	0	0	-1	1500
16458995	0	6	0	-100	0	230	101300000	1000	0	0	-1	1500
16471555	0	8	0	-100	0	230	101300000	1000	0	0	-1	1500
16484115	0	7	0	-100	0	230	101300000	1000	0	0	-1	1500
16496675	0	9	0	-100	0	230	101300000	1000	0	0	-1	1500
16509235	0	9	0	-100	0	230	101300000	1000	0	0	-1	1500
16521795	0	7	0	-100	0	230	101300000	1000	0	0	-1	1500
16534355	0	13	0	-100	0	230	101300000	1000	0	0	-1	1500
16546915	0	7	0	-100	0	230	101300000	1000	0	0	-1	1500
16559475	0	10	0	-100	0	230	101300000	1000	0	0	-1	1500
16572035	0	10	0	-100	0	230	101300000	1000	0	0	-1	1500
16584595	0	8	0	-100	0	230	101300000	1000	0	0	-1	1500
16597155	0	9	0	-100	0	230	101300000	1000	0	0	-1	1500
16609715	0	11	0	-100	0	230	101300000	1000	0	0	-1	1500
16622275	0	6	0	-100	0	230	101300000	1000	0	0	-1	1500
16634835	0	12	0	-100	0	230	101300000	1000	0	0	-1	1500
16647395	0	7	0	-100	0	230	101300000	1000	0	0	-1	1500
16659955	0	12	0	-100	0	230	101300000	1000	0	0	-1	1500
16672515	0	8	0	-100	0	230	101300000	1000	0	0	-1	1500
16685075	0	11	0	-100	0	230	101300000	1000	0	0	-1	1500
16697635	0	9	0	-100	0	230	101300000	1000	0	0	-1	1500
16710195	0	7	0	-100	0	230	101300000	1000	0	0	-1	1500
16722755	0	11	0	-100	0	230	101300000	1000	0	0	-1	1500
16735315	0	4	0	-100	0	230	101300000	1000	0	0	-1	1500
16747875	0	12	0	-100	0	230	101300000	1000	0	0	-1	1500
16760435	0	8	0	-100	0	230	101300000	1000	0	0	-1	1500
16772995	0	8	0	-100	0	230	101300000	1000	0	0	-1	1500
16785555	0	8	0	-100	0	230	101300000	1000	0	0	-1	1500
16798115	0	12	0	-100	0	230	101300000	1000	0	0	-1	1500
16810675	0	7	0	-100	0	230	101300000	1000	0	0	-1	1500
16823235	0	12	0	-100	0	230	101300000	1000	0	0	-1	1500
16835795	0	7	0	-100	0	230	101300000	1000	0	0	-1	1500
16848355	0	12	0	-100	0	230	101300000	1000	0	0	-1	1500
16860915	0	9	0	-100	0	230	101300000	1000	0	0	-1	1500
16873475	0	13	0	-100	0	230	101300000	1000	0	0	-1	1500
16886035	0	7	0	-100	0	230	101300000	1000	0	0	-1	1500
16898595	0	13	0	-100	0	230	101300000	1000	0	0	-1	1500
16911155	0	4	0	-100	0	230	101300000	1000	0	0	-1	1500
16923715	0	9	0	-100	0	230	101300000	1000	0	0	-1	1500
16936275	0	8	0	-100	0	230	101300000	1000	0	0	-1	1500
16948835	0	6	0	-100	0	230	101300000	1000	0	0	-1	1500
16961395	0	9	0	-100	0	230	101300000	1000	0	0	-1	1500
16973955	0	6	0	-100	0	230	101300000	1000	0	0	-1	1500
16986515	0	13	0	-100	0	230	101300000	1000	0	0	-1	1500
16999075	0	8	0	-100	0	230	101300000	1000	0	0	-1	1500
17011635	0	5	0	-100	0	230	101300000	1000	0	0	-1	1500
17024195	0	12	0	-100	0	230	101300000	1000	0	0	-1	1500
17036755	0	8	0	-100	0	230	101300000	1000	0	0	-1	1500
17049315	0	7	0	-100	0	230	101300000	1000	0	0	-1	1500
17061875	0	10	0	-100	0	230	101300000	1000	0	0	-1	1500
17074435	0	13	0	-100	0	230	101300000	1000	0	0	-1	1500
17086995	0	12	0	-100	0	230	101300000	1000	0	0	-1	1500
17099555	0	6	0	-100	0	230	101300000	1000	0	0	-1	1500
17112115	0	12	0	-100	0	230	101300000	1000	0	0	-1	1500
17124675	0	4	0	-100	0	230	101300000	1000	0	0	-1	1500
17149795	0	10	0	-100	0	230	101300000	1000	0	0	-1	1500
17162355	0	6	0	-100	0	230	101300000	1000	0	0	-1	1500
17174915	0	13	0	-100	0	230	101300000	1000	0	0	-1	1500
17187475	0	8	0	-100	0	230	101300000	1000	0	0	-1	1500
17200035	0	6	0	-100	0	230	101300000	1000	0	0	-1	1500
17212595	0	8	0	-100	0	230	101300000	1000	0	0	-1	1500
17225155	0	13	0	-100	0	230	101300000	1000	0	0	-1	1500
17237715	0	11	0	-100	0	230	101300000	1000	0	0	-1	1500
17250275	0	8	0	-100	0	230	101300000	1000	0	0	-1	1500
17262835	0	8	0	-100	0	230	101300000	1000	0	0	-1	1500
17275395	0	6	0	-100	0	230	101300000	1000	0	0	-1	1500
17287955	0	13	0	-100	0	230	101300000	1000	0	0	-1	1500
17325635	0	5	0	-100	0	230	101300000	1000	0	0	-1	1500
17338195	0	9	0	-100	0	230	101300000	1000	0	0	-1	1500
17350755	0	10	0	-100	0	230	101300000	1000	0	0	-1	1500
17363315	0	8	0	-100	0	230	101300000	1000	0	0	-1	1500
17375875	0	9	0	-100	0	230	101300000	1000	0	0	-1	1500
17388435	0	7	0	-100	0	230	101300000	1000	0	0	-1	1500
17400995	0	6	0	-100	0	230	101300000	1000	0	0	-1	1500
17413555	0	12	0	-100	0	230	101300000	1000	0	0	-1	1500
17426115	0	11	0	-100	0	230	101300000	1000	0	0	-1	1500
17438675	0	8	0	-100	0	230	101300000	1000	0	0	-1	1500
17451235	0	9	0	-100	0	230	101300000	1000	0	0	-1	1500
17463795	0	7	0	-100	0	230	101300000	1000	0	0	-1	1500
17476355	0	9	0	-100	0	230	101300000	1000	0	0	-1	1500
17488915	0	12	0	-100	0	230	101300000	1000	0	0	-1	1500
17501475	0	11	0	-100	0	230	101300000	1000	0	0	-1	1500
17514035	0	9	0	-100	0	230	101300000	1000	0	0	-1	1500
17526595	0	6	0	-100	0	230	101300000	1000	0	0	-1	1500
17539155	0	7	0	-100	0	230	101300000	1000	0	0	-1	1500
17551715	0	6	0	-100	0	230	101300000	1000	0	0	-1	1500
17564275	0	8	0	-100	0	230	101300000	1000	0	0	-1	1500
17576835	0	12	0	-100	0	230	101300000	1000	0	0	-1	1500
17589395	0	10	0	-100	0	230	101300000	1000	0	0	-1	1500
17601955	0	7	0	-100	0	230	101300000	1000	0	0	-1	1500
17614515	0	6	0	-100	0	230	101300000	1000	0	0	-1	1500
17627075	0	5	0	-100	0	230	101300000	1000	0	0	-1	1500
17639635	0	6	0	-100	0	230	101300000	1000	0	0	-1	1500
17652195	0	7	0	-100	0	230	101300000	1000	0	0	-1	1500
17664755	0	10	0	-100	0	230	101300000	1000	0	0	-1	1500
17677315	0	12	0	-100	0	230	101300000	1000	0	0	-1	1500
17689875	0	9	0	-100	0	230	101300000	1000	0	0	-1	1500
17702435	0	7	0	-100	0	230	101300000	1000	0	0	-1	1500
17714995	0	9	0	-100	0	230	101300000	1000	0	0	-1	1500
17727555	0	9	0	-100	0	230	101300000	1000	0	0	-1	1500
17740115	0	12	0	-100	0	230	101300000	1000	0	0	-1	1500
17752675	0	10	0	-100	0	230	101300000	1000	0	0	-1	1500
17765235	0	7	0	-100	0	230	101300000	1000	0	0	-1	1500
17777795	0	5	0	-100	0	230	101300000	1000	0	0	-1	1500
17790355	0	10	0	-100	0	230	101300000	1000	0	0	-1	1500
17802915	0	12	0	-100	0	230	101300000	1000	0	0	-1	1500
17815475	0	12	0	-100	0	230	101300000	1000	0	0	-1	1500
17828035	0	8	0	-100	0	230	101300000	1000	0	0	-1	1500
17840595	0	7	0	-100	0	230	101300000	1000	0	0	-1	1500
17853155	0	6	0	-100	0	230	101300000	1000	0	0	-1	1500
17865715	0	9	0	-100	0	230	101300000	1000	0	0	-1	1500
17878275	0	12	0	-100	0	230	101300000	1000	0	0	-1	1500
17890835	0	11	0	-100	0	230	101300000	1000	0	0	-1	1500
17903395	0	5	0	-100	0	230	101300000	1000	0	0	-1	1500
17915955	0	8	0	-100	0	230	101300000	1000	0	0	-1	1500
17928515	0	8	0	-100	0	230	101300000	1000	0	0	-1	1500
17941075	0	12	0	-100	0	230	101300000	1000	0	0	-1	1500
17953635	0	12	0	-100	0	230	101300000	1000	0	0	-1	1500
17966195	0	10	0	-100	0	230	101300000	1000	0	0	-1	1500
17978755	0	11	0	-100	0	230	101300000	1000	0	0	-1	1500
17991315	0	11	0	-100	0	230	101300000	1000	0	0	-1	1500
18003875	0	8	0	-100	0	230	101300000	1000	0	0	-1	1500
18016435	0	5	0	-100	0	230	101300000	1000	0	0	-1	1500
18028995	0	11	0	-100	0	230	101300000	1000	0	0	-1	1500
18041555	0	8	0	-100	0	230	101300000	1000	0	0	-1	1500
18054115	0	8	0	-100	0	230	101300000	1000	0	0	-1	1500
18066675	0	7	0	-100	0	230	101300000	1000	0	0	-1	1500
18079235	0	9	0	-100	0	230	101300000	1000	0	0	-1	1500
18091795	0	12	0	-100	0	230	101300000	1000	0	0	-1	1500
18104355	0	10	0	-100	0	230	101300000	1000	0	0	-1	1500
18116915	0	8	0	-100	0	230	101300000	1000	0	0	-1	1500
18129475	0	7	0	-100	0	230	101300000	1000	0	0	-1	1500
18142035	0	8	0	-100	0	230	101300000	1000	0	0	-1	1500
18154595	0	5	0	-100	0	230	101300000	1000	0	0	-1	1500
18167155	0	7	0	-100	0	230	101300000	1000	0	0	-1	1500
18179715	0	9	0	-100	0	230	101300000	1000	0	0	-1	1500
18192275	0	9	0	-100	0	230	101300000	1000	0	0	-1	1500
18204835	0	12	0	-100	0	230	101300000	1000	0	0	-1	1500
18217395	0	12	0	-100	0	230	101300000	1000	0	0	-1	1500
18229955	0	10	0	-100	0	230	101300000	1000	0	0	-1	1500
18242515	0	7	0	-100	0	230	101300000	1000	0	0	-1	1500
18255075	0	8	0	-100	0	230	101300000	1000	0	0	-1	1500
18267635	0	6	0	-100	0	230	101300000	1000	0	0	-1	1500
18280195	0	8	0	-100	0	230	101300000	1000	0	0	-1	1500
18292755	0	10	0	-100	0	230	101300000	1000	0	0	-1	1500
18305315	0	12	0	-100	0	230	101300000	1000	0	0	-1	1500
18317875	0	13	0	-100	0	230	101300000	1000	0	0	-1	1500
18330435	0	9	0	-100	0	230	101300000	1000	0	0	-1	1500
18342995	0	13	0	-100	0	230	101300000	1000	0	0	-1	1500
18355555	0	7	0	-100	0	230	101300000	1000	0	0	-1	1500
18368115	0	4	0	-100	0	230	101300000	1000	0	0	-1	1500
18380675	0	6	0	-100	0	230	101300000	1000	0	0	-1	1500
18393235	0	8	0	-100	0	230	101300000	1000	0	0	-1	1500
18405795	0	14	0	-100	0	230	101300000	1000	0	0	-1	1500
18418355	0	8	0	-100	0	230	101300000	1000	0	0	-1	1500
18430915	0	6	0	-100	0	230	101300000	1000	0	0	-1	1500
18443475	0	8	0	-100	0	230	101300000	1000	0	0	-1	1500
18456035	0	8	0	-100	0	230	101300000	1000	0	0	-1	1500
18468595	0	13	0	-100	0	230	101300000	1000	0	0	-1	1500
18481155	0	12	0	-100	0	230	101300000	1000	0	0	-1	1500
18493715	0	8	0	-100	0	230	101300000	1000	0	0	-1	1500
18506275	0	4	0	-100	0	230	101300000	1000	0	0	-1	1500
18518835	0	8	0	-100	0	230	101300000	1000	0	0	-1	1500
18531395	0	8	0	-100	0	230	101300000	1000	0	0	-1	1500
18543955	0	9	0	-100	0	230	101300000	1000	0	0	-1	1500
18556515	0	9	0	-100	0	230	101300000	1000	0	0	-1	1500
18569075	0	12	0	-100	0	230	101300000	1000	0	0	-1	1500
18581635	0	10	0	-100	0	230	101300000	1000	0	0	-1	1500
18594195	0	8	0	-100	0	230	101300000	1000	0	0	-1	1500
18606755	0	8	0	-100	0	230	101300000	1000	0	0	-1	1500
18619315	0	7	0	-100	0	230	101300000	1000	0	0	-1	1500
18631875	0	7	0	-100	0	230	101300000	1000	0	0	-1	1500
18644435	0	8	0	-100	0	230	101300000	1000	0	0	-1	1500
18656995	0	14	0	-100	0	230	101300000	1000	0	0	-1	1500
18669555	0	9	0	-100	0	230	101300000	1000	0	0	-1	1500
18682115	0	11	0	-100	0	230	101300000	1000	0	0	-1	1500
18694675	0	12	0	-100	0	230	101300000	1000	0	0	-1	1500
18707235	0	11	0	-100	0	230	101300000	1000	0	0	-1	1500
18719795	0	9	0	-100	0	230	101300000	1000	0	0	-1	1500
18732355	0	7	0	-100	0	230	101300000	1000	0	0	-1	1500
18744915	0	6	0	-100	0	230	101300000	1000	0	0	-1	1500
18757475	0	9	0	-100	0	230	101300000	1000	0	0	-1	1500
18770035	0	12	0	-100	0	230	101300000	1000	0	0	-1	1500
18782595	0	10	0	-100	0	230	101300000	1000	0	0	-1	1500
18795155	0	10	0	-100	0	230	101300000	1000	0	0	-1	1500
18807715	0	9	0	-100	0	230	101300000	1000	0	0	-1	1500
18820275	0	8	0	-100	0	230	101300000	1000	0	0	-1	1500
18832835	0	7	0	-100	0	230	101300000	1000	0	0	-1	1500
18845395	0	9	0	-100	0	230	101300000	1000	0	0	-1	1500
18857955	0	12	0	-100	0	230	101300000	1000	0	0	-1	1500
18870515	0	8	0	-100	0	230	101300000	1000	0	0	-1	1500
18883075	0	7	0	-100	0	230	101300000	1000	0	0	-1	1500
18895635	0	7	0	-100	0	230	101300000	1000	0	0	-1	1500
18908195	0	13	0	-100	0	230	101300000	1000	0	0	-1	1500
18920755	0	10	0	-100	0	230	101300000	1000	0	0	-1	1500
18933315	0	5	0	-100	0	230	101300000	1000	0	0	-1	1500
18945875	0	7	0	-100	0	230	101300000	1000	0	0	-1	1500
18958435	0	9	0	-100	0	230	101300000	1000	0	0	-1	1500
18970995	0	9	0	-100	0	230	101300000	1000	0	0	-1	1500
18983555	0	8	0	-100	0	230	101300000	1000	0	0	-1	1500
18996115	0	9	0	-100	0	230	101300000	1000	0	0	-1	1500
19008675	0	10	0	-100	0	230	101300000	1000	0	0	-1	1500
19021235	0	8	0	-100	0	230	101300000	1000	0	0	-1	1500
19033795	0	12	0	-100	0	230	101300000	1000	0	0	-1	1500
19046355	0	10	0	-100	0	230	101300000	1000	0	0	-1	1500
19058915	0	5	0	-100	0	230	101300000	1000	0	0	-1	1500
19071475	0	5	0	-100	0	230	101300000	1000	0	0	-1	1500
19084035	0	13	0	-100	0	230	101300000	1000	0	0	-1	1500
19096595	0	10	0	-100	0	230	101300000	1000	0	0	-1	1500
19109155	0	5	0	-100	0	230	101300000	1000	0	0	-1	1500
19121715	0	5	0	-100	0	230	101300000	1000	0	0	-1	1500
19134275	0	13	0	-100	0	230	101300000	1000	0	0	-1	1500
19146835	0	8	0	-100	0	230	101300000	1000	0	0	-1	1500
19159395	0	6	0	-100	0	230	101300000	1000	0	0	-1	1500
19171955	0	13	0	-100	0	230	101300000	1000	0	0	-1	1500
19184515	0	5	0	-100	0	230	101300000	1000	0	0	-1	1500
19197075	0	8	0	-100	0	230	101300000	1000	0	0	-1	1500
19209635	0	13	0	-100	0	230	101300000	1000	0	0	-1	1500
19222195	0	8	0	-100	0	230	101300000	1000	0	0	-1	1500
19234755	0	5	0	-100	0	230	101300000	1000	0	0	-1	1500
19247315	0	13	0	-100	0	230	101300000	1000	0	0	-1	1500
19259875	0	11	0	-100	0	230	101300000	1000	0	0	-1	1500
19272435	0	5	0	-100	0	230	101300000	1000	0	0	-1	1500
19284995	0	10	0	-100	0	230	101300000	1000	0	0	-1	1500
19297555	0	12	0	-100	0	230	101300000	1000	0	0	-1	1500
19310115	0	8	0	-100	0	230	101300000	1000	0	0	-1	1500
19322675	0	8	0	-100	0	230	101300000	1000	0	0	-1	1500
19335235	0	9	0	-100	0	230	101300000	1000	0	0	-1	1500
19347795	0	9	0	-100	0	230	101300000	1000	0	0	-1	1500
19360355	0	5	0	-100	0	230	101300000	1000	0	0	-1	1500
19372915	0	13	0	-100	0	230	101300000	1000	0	0	-1	1500
19385475	0	8	0	-100	0	230	101300000	1000	0	0	-1	1500
19398035	0	12	0	-100	0	230	101300000	1000	0	0	-1	1500
19410595	0	8	0	-100	0	230	101300000	1000	0	0	-1	1500
19423155	0	9	0	-100	0	230	101300000	1000	0	0	-1	1500
19435715	0	8	0	-100	0	230	101300000	1000	0	0	-1	1500
19448275	0	6	0	-100	0	230	101300000	1000	0	0	-1	1500
19460835	0	12	0	-100	0	230	101300000	1000	0	0	-1	1500
19473395	0	7	0	-100	0	230	101300000	1000	0	0	-1	1500
19485955	0	8	0	-100	0	230	101300000	1000	0	0	-1	1500
19498515	0	10	0	-100	0	230	101300000	1000	0	0	-1	1500
19511075	0	12	0	-100	0	230	101300000	1000	0	0	-1	1500
19523635	0	6	0	-100	0	230	101300000	1000	0	0	-1	1500
19536195	0	7	0	-100	0	230	101300000	1000	0	0	-1	1500
19548755	0	8	0	-100	0	230	101300000	1000	0	0	-1	1500
19561315	0	12	0	-100	0	230	101300000	1000	0	0	-1	1500
19573875	0	11	0	-100	0	230	101300000	1000	0	0	-1	1500
19586435	0	6	0	-100	0	230	101300000	1000	0	0	-1	1500
19598995	0	8	0	-100	0	230	101300000	1000	0	0	-1	1500
19611555	0	10	0	-100	0	230	101300000	1000	0	0	-1	1500
19624115	0	12	0	-100	0	230	101300000	1000	0	0	-1	1500
19636675	0	10	0	-100	0	230	101300000	1000	0	0	-1	1500
19649235	0	7	0	-100	0	230	101300000	1000	0	0	-1	1500
19661795	0	6	0	-100	0	230	101300000	1000	0	0	-1	1500
19674355	0	10	0	-100	0	230	101300000	1000	0	0	-1	1500
19686915	0	9	0	-100	0	230	101300000	1000	0	0	-1	1500
19699475	0	8	0	-100	0	230	101300000	1000	0	0	-1	1500
19712035	0	10	0	-100	0	230	101300000	1000	0	0	-1	1500
19724595	0	10	0	-100	0	230	101300000	1000	0	0	-1	1500
19737155	0	7	0	-100	0	230	101300000	1000	0	0	-1	1500
19749715	0	10	0	-100	0	230	101300000	1000	0	0	-1	1500
19762275	0	9	0	-100	0	230	101300000	1000	0	0	-1	1500
19774835	0	8	0	-100	0	230	101300000	1000	0	0	-1	1500
19787395	0	8	0	-100	0	230	101300000	1000	0	0	-1	1500
19799955	0	9	0	-100	0	230	101300000	1000	0	0	-1	1500
19812515	0	6	0	-100	0	230	101300000	1000	0	0	-1	1500
19825075	0	11	0	-100	0	230	101300000	1000	0	0	-1	1500
19837635	0	9	0	-100	0	230	101300000	1000	0	0	-1	1500
19850195	0	12	0	-100	0	230	101300000	1000	0	0	-1	1500
19862755	0	7	0	-100	0	230	101300000	1000	0	0	-1	1500
19875315	0	7	0	-100	0	230	101300000	1000	0	0	-1	1500
19887875	0	9	0	-100	0	230	101300000	1000	0	0	-1	1500
19900435	0	11	0	-100	0	230	101300000	1000	0	0	-1	1500
19912995	0	12	0	-100	0	230	101300000	1000	0	0	-1	1500
19925555	0	9	0	-100	0	230	101300000	1000	0	0	-1	1500
19938115	0	7	0	-100	0	230	101300000	1000	0	0	-1	1500
19950675	0	12	0	-100	0	230	101300000	1000	0	0	-1	1500
19963235	0	7	0	-100	0	230	101300000	1000	0	0	-1	1500
19975795	0	7	0	-100	0	230	101300000	1000	0	0	-1	1500
19988355	0	12	0	-100	0	230	101300000	1000	0	0	-1	1500
20000915	0	9	0	-100	0	230	101300000	1000	0	0	-1	1500
20013475	0	7	0	-100	0	230	101300000	1000	0	0	-1	1500
20026035	0	9	0	-100	0	230	101300000	1000	0	0	-1	1500
20038595	0	12	0	-100	0	230	101300000	1000	0	0	-1	1500
20051155	0	7	0	-100	0	230	101300000	1000	0	0	-1	1500
20063715	0	9	0	-100	0	230	101300000	1000	0	0	-1	1500
20076275	0	11	0	-100	0	230	101300000	1000	0	0	-1	1500
20088835	0	8	0	-100	0	230	101300000	1000	0	0	-1	1500
20101395	0	8	0	-100	0	230	101300000	1000	0	0	-1	1500
20113955	0	10	0	-100	0	230	101300000	1000	0	0	-1	1500
20126515	0	8	0	-100	0	230	101300000	1000	0	0	-1	1500
20139075	0	11	0	-100	0	230	101300000	1000	0	0	-1	1500
20151635	0	11	0	-100	0	230	101300000	1000	0	0	-1	1500
20164195	0	8	0	-100	0	230	101300000	1000	0	0	-1	1500
20176755	0	8	0	-100	0	230	101300000	1000	0	0	-1	1500
20189315	0	12	0	-100	0	230	101300000	1000	0	0	-1	1500
20201875	0	12	0	-100	0	230	101300000	1000	0	0	-1	1500
20214435	0	8	0	-100	0	230	101300000	1000	0	0	-1	1500
20226995	0	12	0	-100	0	230	101300000	1000	0	0	-1	1500
20239555	0	6	0	-100	0	230	101300000	1000	0	0	-1	1500
20252115	0	9	0	-100	0	230	101300000	1000	0	0	-1	1500
20264675	0	10	0	-100	0	230	101300000	1000	0	0	-1	1500
20277235	0	8	0	-100	0	230	101300000	1000	0	0	-1	1500
20289795	0	5	0	-100	0	230	101300000	1000	0	0	-1	1500
20302355	0	12	0	-100	0	230	101300000	1000	0	0	-1	1500
20314915	0	8	0	-100	0	230	101300000	1000	0	0	-1	1500
20327475	0	8	0	-100	0	230	101300000	1000	0	0	-1	1500
20340035	0	8	0	-100	0	230	101300000	1000	0	0	-1	1500
20352595	0	10	0	-100	0	230	101300000	1000	0	0	-1	1500
20365155	0	4	0	-100	0	230	101300000	1000	0	0	-1	1500
20377715	0	6	0	-100	0	230	101300000	1000	0	0	-1	1500
20390275	0	12	0	-100	0	230	101300000	1000	0	0	-1	1500
20402835	0	8	0	-100	0	230	101300000	1000	0	0	-1	1500
20415395	0	12	0	-100	0	230	101300000	1000	0	0	-1	1500
20427955	0	8	0	-100	0	230	101300000	1000	0	0	-1	1500
20440515	0	8	0	-100	0	230	101300000	1000	0	0	-1	1500
20453075	0	12	0	-100	0	230	101300000	1000	0	0	-1	1500
20465635	0	4	0	-100	0	230	101300000	1000	0	0	-1	1500
20478195	0	8	0	-100	0	230	101300000	1000	0	0	-1	1500
20490755	0	12	0	-100	0	230	101300000	1000	0	0	-1	1500
20503315	0	7	0	-100	0	230	101300000	1000	0	0	-1	1500
20515875	0	6	0	-100	0	230	101300000	1000	0	0	-1	1500
20528435	0	9	0	-100	0	230	101300000	1000	0	0	-1	1500
20540995	0	9	0	-100	0	230	101300000	1000	0	0	-1	1500
20553555	0	9	0	-100	0	230	101300000	1000	0	0	-1	1500
20566115	0	9	0	-100	0	230	101300000	1000	0	0	-1	1500
20578675	0	13	0	-100	0	230	101300000	1000	0	0	-1	1500
20591235	0	10	0	-100	0	230	101300000	1000	0	0	-1	1500
20603795	0	5	0	-100	0	230	101300000	1000	0	0	-1	1500
20616355	0	8	0	-100	0	230	101300000	1000	0	0	-1	1500
20628915	0	6	0	-100	0	230	101300000	1000	0	0	-1	1500
20641475	0	12	0	-100	0	230	101300000	1000	0	0	-1	1500
20654035	0	10	0	-100	0	230	101300000	1000	0	0	-1	1500
20666595	0	7	0	-100	0	230	101300000	1000	0	0	-1	1500
20679155	0	9	0	-100	0	230	101300000	1000	0	0	-1	1500
20691715	0	10	0	-100	0	230	101300000	1000	0	0	-1	1500
20704275	0	12	0	-100	0	230	101300000	1000	0	0	-1	1500
20716835	0	8	0	-100	0	230	101300000	1000	0	0	-1	1500
20729395	0	7	0	-100	0	230	101300000	1000	0	0	-1	1500
20741955	0	11	0	-100	0	230	101300000	1000	0	0	-1	1500
20754515	0	7	0	-100	0	230	101300000	1000	0	0	-1	1500
20767075	0	7	0	-100	0	230	101300000	1000	0	0	-1	1500
20779635	0	12	0	-100	0	230	101300000	1000	0	0	-1	1500
20792195	0	4	0	-100	0	230	101300000	1000	0	0	-1	1500
20804755	0	8	0	-100	0	230	101300000	1000	0	0	-1	1500
20817315	0	12	0	-100	0	230	101300000	1000	0	0	-1	1500
20829875	0	8	0	-100	0	230	101300000	1000	0	0	-1	1500
20842435	0	6	0	-100	0	230	101300000	1000	0	0	-1	1500
20854995	0	9	0	-100	0	230	101300000	1000	0	0	-1	1500
20867555	0	9	0	-100	0	230	101300000	1000	0	0	-1	1500
20880115	0	4	0	-100	0	230	101300000	1000	0	0	-1	1500
20892675	0	5	0	-100	0	230	101300000	1000	0	0	-1	1500
20905235	0	12	0	-100	0	230	101300000	1000	0	0	-1	1500
20917795	0	8	0	-100	0	230	101300000	1000	0	0	-1	1500
20930355	0	6	0	-100	0	230	101300000	1000	0	0	-1	1500
20942915	0	8	0	-100	0	230	101300000	1000	0	0	-1	1500
20955475	0	11	0	-100	0	230	101300000	1000	0	0	-1	1500
20968035	0	8	0	-100	0	230	101300000	1000	0	0	-1	1500
20980595	0	7	0	-100	0	230	101300000	1000	0	0	-1	1500
20993155	0	8	0	-100	0	230	101300000	1000	0	0	-1	1500
21005715	0	9	0	-100	0	230	101300000	1000	0	0	-1	1500
21018275	0	8	0	-100	0	230	101300000	1000	0	0	-1	1500
21030835	0	13	0	-100	0	230	101300000	1000	0	0	-1	1500
21043395	0	10	0	-100	0	230	101300000	1000	0	0	-1	1500
21055955	0	9	0	-100	0	230	101300000	1000	0	0	-1	1500
21068515	0	8	0	-100	0	230	101300000	1000	0	0	-1	1500
21081075	0	6	0	-100	0	230	101300000	1000	0	0	-1	1500
21093635	0	8	0	-100	0	230	101300000	1000	0	0	-1	1500
21106195	0	12	0	-100	0	230	101300000	1000	0	0	-1	1500
21118755	0	8	0	-100	0	230	101300000	1000	0	0	-1	1500
21131315	0	8	0	-100	0	230	101300000	1000	0	0	-1	1500
21143875	0	6	0	-100	0	230	101300000	1000	0	0	-1	1500
21156435	0	12	0	-100	0	230	101300000	1000	0	0	-1	1500
21168995	0	8	0	-100	0	230	101300000	1000	0	0	-1	1500
21181555	0	4	0	-100	0	230	101300000	1000	0	0	-1	1500
21194115	0	6	0	-100	0	230	101300000	1000	0	0	-1	1500
21206675	0	12	0	-100	0	230	101300000	1000	0	0	-1	1500
21219235	0	12	0	-100	0	230	101300000	1000	0	0	-1	1500
21231795	0	8	0	-100	0	230	101300000	1000	0	0	-1	1500
21244355	0	7	0	-100	0	230	101300000	1000	0	0	-1	1500
21256915	0	8	0	-100	0	230	101300000	1000	0	0	-1	1500
21269475	0	12	0	-100	0	230	101300000	1000	0	0	-1	1500
21282035	0	9	0	-100	0	230	101300000	1000	0	0	-1	1500
21294595	0	4	0	-100	0	230	101300000	1000	0	0	-1	1500
21307155	0	6	0	-100	0	230	101300000	1000	0	0	-1	1500
21319715	0	9	0	-100	0	230	101300000	1000	0	0	-1	1500
21332275	0	12	0	-100	0	230	101300000	1000	0	0	-1	1500
21344835	0	11	0	-100	0	230	101300000	1000	0	0	-1	1500
21357395	0	9	0	-100	0	230	101300000	1000	0	0	-1	1500
21369955	0	8	0	-100	0	230	101300000	1000	0	0	-1	1500
21382515	0	6	0	-100	0	230	101300000	1000	0	0	-1	1500
21395075	0	8	0	-100	0	230	101300000	1000	0	0	-1	1500
21407635	0	12	0	-100	0	230	101300000	1000	0	0	-1	1500
21420195	0	10	0	-100	0	230	101300000	1000	0	0	-1	1500
21432755	0	8	0	-100	0	230	101300000	1000	0	0	-1	1500
21445315	0	5	0	-100	0	230	101300000	1000	0	0	-1	1500
21457875	0	7	0	-100	0	230	101300000	1000	0	0	-1	1500
21470435	0	7	0	-100	0	230	101300000	1000	0	0	-1	1500
21482995	0	6	0	-100	0	230	101300000	1000	0	0	-1	1500
21495555	0	13	0	-100	0	230	101300000	1000	0	0	-1	1500
21508115	0	13	0	-100	0	230	101300000	1000	0	0	-1	1500
21520675	0	10	0	-100	0	230	101300000	1000	0	0	-1	1500
21533235	0	10	0	-100	0	230	101300000	1000	0	0	-1	1500
21545795	0	8	0	-100	0	230	101300000	1000	0	0	-1	1500
21558355	0	5	0	-100	0	230	101300000	1000	0	0	-1	1500
21570915	0	7	0	-100	0	230	101300000	1000	0	0	-1	1500
21583475	0	6	0	-100	0	230	101300000	1000	0	0	-1	1500
21596035	0	9	0	-100	0	230	101300000	1000	0	0	-1	1500
21608595	0	12	0	-100	0	230	101300000	1000	0	0	-1	1500
21621155	0	12	0	-100	0	230	101300000	1000	0	0	-1	1500
21633715	0	9	0	-100	0	230	101300000	1000	0	0	-1	1500
21646275	0	7	0	-100	0	230	101300000	1000	0	0	-1	1500
21658835	0	7	0	-100	0	230	101300000	1000	0	0	-1	1500
21671395	0	5	0	-100	0	230	101300000	1000	0	0	-1	1500
21683955	0	8	0	-100	0	230	101300000	1000	0	0	-1	1500
21696515	0	6	0	-100	0	230	101300000	1000	0	0	-1	1500
21709075	0	8	0	-100	0	230	101300000	1000	0	0	-1	1500
21721635	0	12	0	-100	0	230	101300000	1000	0	0	-1	1500
21734195	0	8	0	-100	0	230	101300000	1000	0	0	-1	1500
21746755	0	6	0	-100	0	230	101300000	1000	0	0	-1	1500
21759315	0	6	0	-100	0	230	101300000	1000	0	0	-1	1500
21771875	0	8	0	-100	0	230	101300000	1000	0	0	-1	1500
21784435	0	10	0	-100	0	230	101300000	1000	0	0	-1	1500
21796995	0	8	0	-100	0	230	101300000	1000	0	0	-1	1500
21809555	0	10	0	-100	0	230	101300000	1000	0	0	-1	1500
21822115	0	8	0	-100	0	230	101300000	1000	0	0	-1	1500
21834675	0	6	0	-100	0	230	101300000	1000	0	0	-1	1500
21847235	0	8	0	-100	0	230	101300000	1000	0	0	-1	1500
21859795	0	7	0	-100	0	230	101300000	1000	0	0	-1	1500
21872355	0	8	0	-100	0	230	101300000	1000	0	0	-1	1500
21884915	0	8	0	-100	0	230	101300000	1000	0	0	-1	1500
21897475	0	14	0	-100	0	230	101300000	1000	0	0	-1	1500
21910035	0	12	0	-100	0	230	101300000	1000	0	0	-1	1500
21922595	0	8	0	-100	0	230	101300000	1000	0	0	-1	1500
21935155	0	8	0	-100	0	230	101300000	1000	0	0	-1	1500
21947715	0	8	0	-100	0	230	101300000	1000	0	0	-1	1500
21960275	0	12	0	-100	0	230	101300000	1000	0	0	-1	1500
21972835	0	10	0	-100	0	230	101300000	1000	0	0	-1	1500
21985395	0	8	0	-100	0	230	101300000	1000	0	0	-1	1500
21997955	0	6	0	-100	0	230	101300000	1000	0	0	-1	1500
22010515	0	10	0	-100	0	230	101300000	1000	0	0	-1	1500
22023075	0	11	0	-100	0	230	101300000	1000	0	0	-1	1500
22035635	0	6	0	-100	0	230	101300000	1000	0	0	-1	1500
22048195	0	8	0	-100	0	230	101300000	1000	0	0	-1	1500
22060755	0	9	0	-100	0	230	101300000	1000	0	0	-1	1500
22073315	0	8	0	-100	0	230	101300000	1000	0	0	-1	1500
22085875	0	5	0	-100	0	230	101300000	1000	0	0	-1	1500
22098435	0	13	0	-100	0	230	101300000	1000	0	0	-1	1500
22110995	0	9	0	-100	0	230	101300000	1000	0	0	-1	1500
22123555	0	9	0	-100	0	230	101300000	1000	0	0	-1	1500
22136115	0	9	0	-100	0	230	101300000	1000	0	0	-1	1500
22148675	0	8	0	-100	0	230	101300000	1000	0	0	-1	1500
22161235	0	7	0	-100	0	230	101300000	1000	0	0	-1	1500
22173795	0	5	0	-100	0	230	101300000	1000	0	0	-1	1500
22186355	0	10	0	-100	0	230	101300000	1000	0	0	-1	1500
22198915	0	11	0	-100	0	230	101300000	1000	0	0	-1	1500
22211475	0	7	0	-100	0	230	101300000	1000	0	0	-1	1500
22224035	0	8	0	-100	0	230	101300000	1000	0	0	-1	1500
22236595	0	7	0	-100	0	230	101300000	1000	0	0	-1	1500
22249155	0	12	0	-100	0	230	101300000	1000	0	0	-1	1500
22261715	0	8	0	-100	0	230	101300000	1000	0	0	-1	1500
22274275	0	12	0	-100	0	230	101300000	1000	0	0	-1	1500
22286835	0	8	0	-100	0	230	101300000	1000	0	0	-1	1500
22299395	0	7	0	-100	0	230	101300000	1000	0	0	-1	1500
22311955	0	14	0	-100	0	230	101300000	1000	0	0	-1	1500
22324515	0	6	0	-100	0	230	101300000	1000	0	0	-1	1500
22337075	0	8	0	-100	0	230	101300000	1000	0	0	-1	1500
22349635	0	11	0	-100	0	230	101300000	1000	0	0	-1	1500
22362195	0	8	0	-100	0	230	101300000	1000	0	0	-1	1500
22374755	0	10	0	-100	0	230	101300000	1000	0	0	-1	1500
22387315	0	9	0	-100	0	230	101300000	1000	0	0	-1	1500
22399875	0	8	0	-100	0	230	101300000	1000	0	0	-1	1500
22412435	0	8	0	-100	0	230	101300000	1000	0	0	-1	1500
22424995	0	8	0	-100	0	230	101300000	1000	0	0	-1	1500
22437555	0	8	0	-100	0	230	101300000	1000	0	0	-1	1500
22450115	0	8	0	-100	0	230	101300000	1000	0	0	-1	1500
22462675	0	5	0	-100	0	230	101300000	1000	0	0	-1	1500
22475235	0	12	0	-100	0	230	101300000	1000	0	0	-1	1500
22487795	0	8	0	-100	0	230	101300000	1000	0	0	-1	1500
22500355	0	4	0	-100	0	230	101300000	1000	0	0	-1	1500
22512915	0	12	0	-100	0	230	101300000	1000	0	0	-1	1500
22525475	0	5	0	-100	0	230	101300000	1000	0	0	-1	1500
22538035	0	12	0	-100	0	230	101300000	1000	0	0	-1	1500
22550595	0	6	0	-100	0	230	101300000	1000	0	0	-1	1500
22563155	0	9	0	-100	0	230	101300000	1000	0	0	-1	1500
22575715	0	9	0	-100	0	230	101300000	1000	0	0	-1	1500
22588275	0	5	0	-100	0	230	101300000	1000	0	0	-1	1500
22600835	0	12	0	-100	0	230	101300000	1000	0	0	-1	1500
22613395	0	8	0	-100	0	230	101300000	1000	0	0	-1	1500
22625955	0	13	0	-100	0	230	101300000	1000	0	0	-1	1500
22638515	0	5	0	-100	0	230	101300000	1000	0	0	-1	1500
22651075	0	13	0	-100	0	230	101300000	1000	0	0	-1	1500
22663635	0	8	0	-100	0	230	101300000	1000	0	0	-1	1500
22676195	0	12	0	-100	0	230	101300000	1000	0	0	-1	1500
22688755	0	7	0	-100	0	230	101300000	1000	0	0	-1	1500
22701315	0	12	0	-100	0	230	101300000	1000	0	0	-1	1500
22713875	0	8	0	-100	0	230	101300000	1000	0	0	-1	1500
22726435	0	6	0	-100	0	230	101300000	1000	0	0	-1	1500
22738995	0	6	0	-100	0	230	101300000	1000	0	0	-1	1500
22751555	0	8	0	-100	0	230	101300000	1000	0	0	-1	1500
22764115	0	10	0	-100	0	230	101300000	1000	0	0	-1	1500
22776675	0	8	0	-100	0	230	101300000	1000	0	0	-1	1500
22789235	0	9	0	-100	0	230	101300000	1000	0	0	-1	1500
22801795	0	7	0	-100	0	230	101300000	1000	0	0	-1	1500
22814355	0	8	0	-100	0	230	101300000	1000	0	0	-1	1500
22826915	0	8	0	-100	0	230	101300000	1000	0	0	-1	1500
22839475	0	12	0	-100	0	230	101300000	1000	0	0	-1	1500
22852035	0	8	0	-100	0	230	101300000	1000	0	0	-1	1500
22864595	0	10	0	-100	0	230	101300000	1000	0	0	-1	1500
22877155	0	7	0	-100	0	230	101300000	1000	0	0	-1	1500
22889715	0	6	0	-100	0	230	101300000	1000	0	0	-1	1500
22902275	0	12	0	-100	0	230	101300000	1000	0	0	-1	1500
22914835	0	8	0	-100	0	230	101300000	1000	0	0	-1	1500
22927395	0	11	0	-100	0	230	101300000	1000	0	0	-1	1500
22939955	0	8	0	-100	0	230	101300000	1000	0	0	-1	1500
22952515	0	8	0	-100	0	230	101300000	1000	0	0	-1	1500
22965075	0	12	0	-100	0	230	101300000	1000	0	0	-1	1500
22977635	0	8	0	-100	0	230	101300000	1000	0	0	-1	1500
22990195	0	12	0	-100	0	230	101300000	1000	0	0	-1	1500
23002755	0	5	0	-100	0	230	101300000	1000	0	0	-1	1500
23015315	0	7	0	-100	0	230	101300000	1000	0	0	-1	1500
23027875	0	8	0	-100	0	230	101300000	1000	0	0	-1	1500
23040435	0	7	0	-100	0	230	101300000	1000	0	0	-1	1500
23052995	0	5	0	-100	0	230	101300000	1000	0	0	-1	1500
23065555	0	8	0	-100	0	230	101300000	1000	0	0	-1	1500
23078115	0	8	0	-100	0	230	101300000	1000	0	0	-1	1500
23090675	0	5	0	-100	0	230	101300000	1000	0	0	-1	1500
23103235	0	13	0	-100	0	230	101300000	1000	0	0	-1	1500
23115795	0	8	0	-100	0	230	101300000	1000	0	0	-1	1500
23128355	0	12	0	-100	0	230	101300000	1000	0	0	-1	1500
23140915	0	8	0	-100	0	230	101300000	1000	0	0	-1	1500
23153475	0	7	0	-100	0	230	101300000	1000	0	0	-1	1500
23166035	0	12	0	-100	0	230	101300000	1000	0	0	-1	1500
23178595	0	8	0	-100	0	230	101300000	1000	0	0	-1	1500
23191155	0	9	0	-100	0	230	101300000	1000	0	0	-1	1500
23203715	0	8	0	-100	0	230	101300000	1000	0	0	-1	1500
23216275	0	12	0	-100	0	230	101300000	1000	0	0	-1	1500
23228835	0	8	0	-100	0	230	101300000	1000	0	0	-1	1500
23241395	0	12	0	-100	0	230	101300000	1000	0	0	-1	1500
23253955	0	8	0	-100	0	230	101300000	1000	0	0	-1	1500
23266515	0	13	0	-100	0	230	101300000	1000	0	0	-1	1500
23279075	0	7	0	-100	0	230	101300000	1000	0	0	-1	1500
23291635	0	12	0	-100	0	230	101300000	1000	0	0	-1	1500
23304195	0	7	0	-100	0	230	101300000	1000	0	0	-1	1500
23316755	0	7	0	-100	0	230	101300000	1000	0	0	-1	1500
23329315	0	8	0	-100	0	230	101300000	1000	0	0	-1	1500
23341875	0	8	0	-100	0	230	101300000	1000	0	0	-1	1500
23354435	0	9	0	-100	0	230	101300000	1000	0	0	-1	1500
23366995	0	12	0	-100	0	230	101300000	1000	0	0	-1	1500
23379555	0	9	0	-100	0	230	101300000	1000	0	0	-1	1500
23392115	0	8	0	-100	0	230	101300000	1000	0	0	-1	1500
23404675	0	7	0	-100	0	230	101300000	1000	0	0	-1	1500
23417235	0	10	0	-100	0	230	101300000	1000	0	0	-1	1500
23429795	0	6	0	-100	0	230	101300000	1000	0	0	-1	1500
23442355	0	12	0	-100	0	230	101300000	1000	0	0	-1	1500
23454915	0	7	0	-100	0	230	101300000	1000	0	0	-1	1500
23467475	0	12	0	-100	0	230	101300000	1000	0	0	-1	1500
23480035	0	9	0	-100	0	230	101300000	1000	0	0	-1	1500
23492595	0	12	0	-100	0	230	101300000	1000	0	0	-1	1500
23505155	0	6	0	-100	0	230	101300000	1000	0	0	-1	1500
23517715	0	9	0	-100	0	230	101300000	1000	0	0	-1	1500
23530275	0	8	0	-100	0	230	101300000	1000	0	0	-1	1500
23542835	0	6	0	-100	0	230	101300000	1000	0	0	-1	1500
23555395	0	10	0	-100	0	230	101300000	1000	0	0	-1	1500
23567955	0	7	0	-100	0	230	101300000	1000	0	0	-1	1500
23580515	0	9	0	-100	0	230	101300000	1000	0	0	-1	1500
23593075	0	12	0	-100	0	230	101300000	1000	0	0	-1	1500
23605635	0	8	0	-100	0	230	101300000	1000	0	0	-1	1500
23618195	0	6	0	-100	0	230	101300000	1000	0	0	-1	1500
23630755	0	8	0	-100	0	230	101300000	1000	0	0	-1	1500
23643315	0	12	0	-100	0	230	101300000	1000	0	0	-1	1500
23655875	0	7	0	-100	0	230	101300000	1000	0	0	-1	1500
23668435	0	8	0	-100	0	230	101300000	1000	0	0	-1	1500
23680995	0	7	0	-100	0	230	101300000	1000	0	0	-1	1500
23693555	0	12	0	-100	0	230	101300000	1000	0	0	-1	1500
23706115	0	8	0	-100	0	230	101300000	1000	0	0	-1	1500
23718675	0	6	0	-100	0	230	101300000	1000	0	0	-1	1500
23731235	0	7	0	-100	0	230	101300000	1000	0	0	-1	1500
23743795	0	10	0	-100	0	230	101300000	1000	0	0	-1	1500
23756355	0	13	0	-100	0	230	101300000	1000	0	0	-1	1500
23768915	0	8	0	-100	0	230	101300000	1000	0	0	-1	1500
23781475	0	8	0	-100	0	230	101300000	1000	0	0	-1	1500
23794035	0	9	0	-100	0	230	101300000	1000	0	0	-1	1500
23806595	0	13	0	-100	0	230	101300000	1000	0	0	-1	1500
23819155	0	12	0	-100	0	230	101300000	1000	0	0	-1	1500
23831715	0	8	0	-100	0	230	101300000	1000	0	0	-1	1500
23844275	0	8	0	-100	0	230	101300000	1000	0	0	-1	1500
23856835	0	8	0	-100	0	230	101300000	1000	0	0	-1	1500
23869395	0	12	0	-100	0	230	101300000	1000	0	0	-1	1500
23881955	0	8	0	-100	0	230	101300000	1000	0	0	-1	1500
23894515	0	8	0	-100	0	230	101300000	1000	0	0	-1	1500
23907075	0	8	0	-100	0	230	101300000	1000	0	0	-1	1500
23919635	0	12	0	-100	0	230	101300000	1000	0	0	-1	1500
23932195	0	8	0	-100	0	230	101300000	1000	0	0	-1	1500
23944755	0	8	0	-100	0	230	101300000	1000	0	0	-1	1500
23957315	0	9	0	-100	0	230	101300000	1000	0	0	-1	1500
23969875	0	13	0	-100	0	230	101300000	1000	0	0	-1	1500
23982435	0	8	0	-100	0	230	101300000	1000	0	0	-1	1500
23994995	0	8	0	-100	0	230	101300000	1000	0	0	-1	1500
24007555	0	12	0	-100	0	230	101300000	1000	0	0	-1	1500
24020115	0	9	0	-100	0	230	101300000	1000	0	0	-1	1500
24032675	0	7	0	-100	0	230	101300000	1000	0	0	-1	1500
24045235	0	13	0	-100	0	230	101300000	1000	0	0	-1	1500
24057795	0	8	0	-100	0	230	101300000	1000	0	0	-1	1500
24070355	0	6	0	-100	0	230	101300000	1000	0	0	-1	1500
24082915	0	13	0	-100	0	230	101300000	1000	0	0	-1	1500
24095475	0	9	0	-100	0	230	101300000	1000	0	0	-1	1500
24108035	0	7	0	-100	0	230	101300000	1000	0	0	-1	1500
24120595	0	9	0	-100	0	230	101300000	1000	0	0	-1	1500
24133155	0	12	0	-100	0	230	101300000	1000	0	0	-1	1500
24145715	0	8	0	-100	0	230	101300000	1000	0	0	-1	1500
24158275	0	12	0	-100	0	230	101300000	1000	0	0	-1	1500
24170835	0	7	0	-100	0	230	101300000	1000	0	0	-1	1500
24183395	0	7	0	-100	0	230	101300000	1000	0	0	-1	1500
24195955	0	12	0	-100	0	230	101300000	1000	0	0	-1	1500
24208515	0	9	0	-100	0	230	101300000	1000	0	0	-1	1500
24221075	0	7	0	-100	0	230	101300000	1000	0	0	-1	1500
24233635	0	10	0	-100	0	230	101300000	1000	0	0	-1	1500
24246195	0	7	0	-100	0	230	101300000	1000	0	0	-1	1500
24258755	0	12	0	-100	0	230	101300000	1000	0	0	-1	1500
24271315	0	8	0	-100	0	230	101300000	1000	0	0	-1	1500
24283875	0	9	0	-100	0	230	101300000	1000	0	0	-1	1500
24296435	0	8	0	-100	0	230	101300000	1000	0	0	-1	1500
24308995	0	9	0	-100	0	230	101300000	1000	0	0	-1	1500
24321555	0	13	0	-100	0	230	101300000	1000	0	0	-1	1500
24334115	0	6	0	-100	0	230	101300000	1000	0	0	-1	1500
24346675	0	11	0	-100	0	230	101300000	1000	0	0	-1	1500
24359235	0	8	0	-100	0	230	101300000	1000	0	0	-1	1500
24371795	0	7	0	-100	0	230	101300000	1000	0	0	-1	1500
24384355	0	9	0	-100	0	230	101300000	1000	0	0	-1	1500
24396915	0	12	0	-100	0	230	101300000	1000	0	0	-1	1500
24409475	0	8	0	-100	0	230	101300000	1000	0	0	-1	1500
24422035	0	11	0	-100	0	230	101300000	1000	0	0	-1	1500
24434595	0	10	0	-100	0	230	101300000	1000	0	0	-1	1500
24447155	0	8	0	-100	0	230	101300000	1000	0	0	-1	1500
24459715	0	4	0	-100	0	230	101300000	1000	0	0	-1	1500
24472275	0	8	0	-100	0	230	101300000	1000	0	0	-1	1500
24484835	0	8	0	-100	0	230	101300000	1000	0	0	-1	1500
24497395	0	9	0	-100	0	230	101300000	1000	0	0	-1	1500
24509955	0	12	0	-100	0	230	101300000	1000	0	0	-1	1500
24522515	2	7	0	-100	0	230	101300000	1000	0	0	-1	1500
24535075	0	8	0	-100	0	230	101300000	1000	0	0	-1	1500
24547635	0	8	0	-100	0	230	101300000	1000	0	0	-1	1500
24560195	0	9	0	-100	0	230	101300000	1000	0	0	-1	1500
24572755	0	12	0	-100	0	230	101300000	1000	0	0	-1	1500
24585315	0	8	0	-100	0	230	101300000	1000	0	0	-1	1500
24597875	0	8	0	-100	0	230	101300000	1000	0	0	-1	1500
24610435	0	9	0	-100	0	230	101300000	1000	0	0	-1	1500
24622995	0	9	0	-100	0	230	101300000	1000	0	0	-1	1500
24635555	0	8	0	-100	0	230	101300000	1000	0	0	-1	1500
24648115	0	10	0	-100	0	230	101300000	1000	0	0	-1	1500
24660675	0	12	0	-100	0	230	101300000	1000	0	0	-1	1500
24673235	0	7	0	-100	0	230	101300000	1000	0	0	-1	1500
24685795	0	7	0	-100	0	230	101300000	1000	0	0	-1	1500
24698355	0	9	0	-100	0	230	101300000	1000	0	0	-1	1500
24710915	0	12	0	-100	0	230	101300000	1000	0	0	-1	1500
24723475	0	11	0	-100	0	230	101300000	1000	0	0	-1	1500
24736035	0	8	0	-100	0	230	101300000	1000	0	0	-1	1500
24748595	0	9	0	-100	0	230	101300000	1000	0	0	-1	1500
24761155	0	7	0	-100	0	230	101300000	1000	0	0	-1	1500
24773715	0	10	0	-100	0	230	101300000	1000	0	0	-1	1500
24786275	0	12	0	-100	0	230	101300000	1000	0	0	-1	1500
24798835	0	8	0	-100	0	230	101300000	1000	0	0	-1	1500
24811395	0	9	0	-100	0	230	101300000	1000	0	0	-1	1500
24823955	0	8	0	-100	0	230	101300000	1000	0	0	-1	1500
24836515	0	12	0	-100	0	230	101300000	1000	0	0	-1	1500
24849075	0	8	0	-100	0	230	101300000	1000	0	0	-1	1500
24861635	0	7	0	-100	0	230	101300000	1000	0	0	-1	1500
24874195	0	11	0	-100	0	230	101300000	1000	0	0	-1	1500
24886755	0	8	0	-100	0	230	101300000	1000	0	0	-1	1500
24899315	0	5	0	-100	0	230	101300000	1000	0	0	-1	1500
24911875	0	14	0	-100	0	230	101300000	1000	0	0	-1	1500
24924435	0	8	0	-100	0	230	101300000	1000	0	0	-1	1500
24936995	0	10	0	-100	0	230	101300000	1000	0	0	-1	1500
24949555	0	8	0	-100	0	230	101300000	1000	0	0	-1	1500
24962115	0	11	0	-100	0	230	101300000	1000	0	0	-1	1500
24974675	0	6	0	-100	0	230	101300000	1000	0	0	-1	1500
24987235	0	9	0	-100	0	230	101300000	1000	0	0	-1	1500
24999795	0	8	0	-100	0	230	101300000	1000	0	0	-1	1500
25012355	0	6	0	-100	0	230	101300000	1000	0	0	-1	1500
25024915	0	12	0	-100	0	230	101300000	1000	0	0	-1	1500
25037475	0	5	0	-100	0	230	101300000	1000	0	0	-1	1500
25050035	0	8	0	-100	0	230	101300000	1000	0	0	-1	1500
25062595	0	12	0	-100	0	230	101300000	1000	0	0	-1	1500
25075155	0	8	0	-100	0	230	101300000	1000	0	0	-1	1500
25087715	0	13	0	-100	0	230	101300000	1000	0	0	-1	1500
25100275	0	8	0	-100	0	230	101300000	1000	0	0	-1	1500
25112835	0	6	0	-100	0	230	101300000	1000	0	0	-1	1500
25125395	0	12	0	-100	0	230	101300000	1000	0	0	-1	1500
25137955	0	6	0	-100	0	230	101300000	1000	0	0	-1	1500
25150515	0	13	0	-100	0	230	101300000	1000	0	0	-1	1500
25163075	0	9	0	-100	0	230	101300000	1000	0	0	-1	1500
25175635	0	12	0	-100	0	230	101300000	1000	0	0	-1	1500
25188195	0	5	0	-100	0	230	101300000	1000	0	0	-1	1500
25200755	0	12	0	-100	0	230	101300000	1000	0	0	-1	1500
25213315	0	8	0	-100	0	230	101300000	1000	0	0	-1	1500
25225875	0	12	0	-100	0	230	101300000	1000	0	0	-1	1500
25238435	0	8	0	-100	0	230	101300000	1000	0	0	-1	1500
25250995	0	6	0	-100	0	230	101300000	1000	0	0	-1	1500
25263555	0	8	0	-100	0	230	101300000	1000	0	0	-1	1500
25276115	0	12	0	-100	0	230	101300000	1000	0	0	-1	1500
25288675	0	8	0	-100	0	230	101300000	1000	0	0	-1	1500
25301235	0	6	0	-100	0	230	101300000	1000	0	0	-1	1500
25313795	0	12	0	-100	0	230	101300000	1000	0	0	-1	1500
25326355	0	8	0	-100	0	230	101300000	1000	0	0	-1	1500
25338915	0	12	0	-100	0	230	101300000	1000	0	0	-1	1500
25351475	0	7	0	-100	0	230	101300000	1000	0	0	-1	1500
25364035	0	6	0	-100	0	230	101300000	1000	0	0	-1	1500
25376595	0	13	0	-100	0	230	101300000	1000	0	0	-1	1500
25389155	0	12	0	-100	0	230	101300000	1000	0	0	-1	1500
25401715	0	10	0	-100	0	230	101300000	1000	0	0	-1	1500
25414275	0	6	0	-100	0	230	101300000	1000	0	0	-1	1500
25426835	0	8	0	-100	0	230	101300000	1000	0	0	-1	1500
25439395	0	8	0	-100	0	230	101300000	1000	0	0	-1	1500
25451955	0	14	0	-100	0	230	101300000	1000	0	0	-1	1500
25464515	0	10	0	-100	0	230	101300000	1000	0	0	-1	1500
25477075	0	8	0	-100	0	230	101300000	1000	0	0	-1	1500
25489635	0	6	0	-100	0	230	101300000	1000	0	0	-1	1500
25502195	0	9	0	-100	0	230	101300000	1000	0	0	-1	1500
25514755	0	10	0	-100	0	230	101300000	1000	0	0	-1	1500
25527315	0	6	0	-100	0	230	101300000	1000	0	0	-1	1500
25539875	0	13	0	-100	0	230	101300000	1000	0	0	-1	1500
25552435	0	8	0	-100	0	230	101300000	1000	0	0	-1	1500
25564995	0	11	0	-100	0	230	101300000	1000	0	0	-1	1500
25577555	0	8	0	-100	0	230	101300000	1000	0	0	-1	1500
25590115	0	10	0	-100	0	230	101300000	1000	0	0	-1	1500
25602675	0	5	0	-100	0	230	101300000	1000	0	0	-1	1500
25615235	0	8	0	-100	0	230	101300000	1000	0	0	-1	1500
25627795	0	12	0	-100	0	230	101300000	1000	0	0	-1	1500
25640355	0	8	0	-100	0	230	101300000	1000	0	0	-1	1500
25652915	0	6	0	-100	0	230	101300000	1000	0	0	-1	1500
25665475	0	9	0	-100	0	230	101300000	1000	0	0	-1	1500
25678035	0	12	0	-100	0	230	101300000	1000	0	0	-1	1500
25690595	0	8	0	-100	0	230	101300000	1000	0	0	-1	1500
25703155	0	7	0	-100	0	230	101300000	1000	0	0	-1	1500
25715715	0	8	0	-100	0	230	101300000	1000	0	0	-1	1500
25728275	0	12	0	-100	0	230	101300000	1000	0	0	-1	1500
25740835	0	8	0	-100	0	230	101300000	1000	0	0	-1	1500
25753395	0	9	0	-100	0	230	101300000	1000	0	0	-1	1500
25765955	0	7	0	-100	0	230	101300000	1000	0	0	-1	1500
25778515	0	12	0	-100	0	230	101300000	1000	0	0	-1	1500
25791075	0	8	0	-100	0	230	101300000	1000	0	0	-1	1500
25803635	0	6	0	-100	0	230	101300000	1000	0	0	-1	1500
25816195	0	7	0	-100	0	230	101300000	1000	0	0	-1	1500
25828755	0	12	0	-100	0	230	101300000	1000	0	0	-1	1500
25841315	0	10	0	-100	0	230	101300000	1000	0	0	-1	1500
25853875	0	7	0	-100	0	230	101300000	1000	0	0	-1	1500
25866435	0	8	0	-100	0	230	101300000	1000	0	0	-1	1500
25878995	0	5	0	-100	0	230	101300000	1000	0	0	-1	1500
25891555	0	12	0	-100	0	230	101300000	1000	0	0	-1	1500
25904115	0	9	0	-100	0	230	101300000	1000	0	0	-1	1500
25916675	0	5	0	-100	0	230	101300000	1000	0	0	-1	1500
25929235	0	7	0	-100	0	230	101300000	1000	0	0	-1	1500
25941795	0	14	0	-100	0	230	101300000	1000	0	0	-1	1500
25954355	0	9	0	-100	0	230	101300000	1000	0	0	-1	1500
25966915	0	5	0	-100	0	230	101300000	1000	0	0	-1	1500
25979475	0	7	0	-100	0	230	101300000	1000	0	0	-1	1500
25992035	0	12	0	-100	0	230	101300000	1000	0	0	-1	1500
26004595	0	8	0	-100	0	230	101300000	1000	0	0	-1	1500
26017155	0	7	0	-100	0	230	101300000	1000	0	0	-1	1500
26029715	0	9	0	-100	0	230	101300000	1000	0	0	-1	1500
26042275	0	12	0	-100	0	230	101300000	1000	0	0	-1	1500
26054835	0	7	0	-100	0	230	101300000	1000	0	0	-1	1500
26067395	0	8	0	-100	0	230	101300000	1000	0	0	-1	1500
26079955	0	8	0	-100	0	230	101300000	1000	0	0	-1	1500
26092515	0	9	0	-100	0	230	101300000	1000	0	0	-1	1500
26105075	0	7	0	-100	0	230	101300000	1000	0	0	-1	1500
26117635	0	13	0	-100	0	230	101300000	1000	0	0	-1	1500
26130195	0	5	0	-100	0	230	101300000	1000	0	0	-1	1500
26142755	0	8	0	-100	0	230	101300000	1000	0	0	-1	1500
26155315	0	9	0	-100	0	230	101300000	1000	0	0	-1	1500
26167875	0	6	0	-100	0	230	101300000	1000	0	0	-1	1500
26180435	0	12	0	-100	0	230	101300000	1000	0	0	-1	1500
26192995	0	8	0	-100	0	230	101300000	1000	0	0	-1	1500
26205555	0	10	0	-100	0	230	101300000	1000	0	0	-1	1500
26218115	0	5	0	-100	0	230	101300000	1000	0	0	-1	1500
26230675	0	11	0	-100	0	230	101300000	1000	0	0	-1	1500
26243235	0	6	0	-100	0	230	101300000	1000	0	0	-1	1500
26255795	0	13	0	-100	0	230	101300000	1000	0	0	-1	1500
26268355	0	5	0	-100	0	230	101300000	1000	0	0	-1	1500
26280915	0	8	0	-100	0	230	101300000	1000	0	0	-1	1500
26293475	0	12	0	-100	0	230	101300000	1000	0	0	-1	1500
26306035	0	4	0	-100	0	230	101300000	1000	0	0	-1	1500
26318595	0	8	0	-100	0	230	101300000	1000	0	0	-1	1500
26331155	0	12	0	-100	0	230	101300000	1000	0	0	-1	1500
26343715	0	6	0	-100	0	230	101300000	1000	0	0	-1	1500
26356275	0	8	0	-100	0	230	101300000	1000	0	0	-1	1500
26368835	0	10	0	-100	0	230	101300000	1000	0	0	-1	1500
26381395	0	8	0	-100	0	230	101300000	1000	0	0	-1	1500
26393955	0	9	0	-100	0	230	101300000	1000	0	0	-1	1500
26406515	0	11	0	-100	0	230	101300000	1000	0	0	-1	1500
26419075	0	5	0	-100	0	230	101300000	1000	0	0	-1	1500
26431635	0	8	0	-100	0	230	101300000	1000	0	0	-1	1500
26444195	0	12	0	-100	0	230	101300000	1000	0	0	-1	1500
26456755	0	7	0	-100	0	230	101300000	1000	0	0	-1	1500
26469315	0	7	0	-100	0	230	101300000	1000	0	0	-1	1500
26481875	0	11	0	-100	0	230	101300000	1000	0	0	-1	1500
26494435	0	6	0	-100	0	230	101300000	1000	0	0	-1	1500
26506995	0	9	0	-100	0	230	101300000	1000	0	0	-1	1500
26519555	0	6	0	-100	0	230	101300000	1000	0	0	-1	1500
26532115	0	13	0	-100	0	230	101300000	1000	0	0	-1	1500
26544675	0	8	0	-100	0	230	101300000	1000	0	0	-1	1500
26557235	0	8	0	-100	0	230	101300000	1000	0	0	-1	1500
26569795	0	8	0	-100	0	230	101300000	1000	0	0	-1	1500
26582355	0	12	0	-100	0	230	101300000	1000	0	0	-1	1500
26594915	0	8	0	-100	0	230	101300000	1000	0	0	-1	1500
26607475	0	8	0	-100	0	230	101300000	1000	0	0	-1	1500
26620035	0	7	0	-100	0	230	101300000	1000	0	0	-1	1500
26632595	0	9	0	-100	0	230	101300000	1000	0	0	-1	1500
26645155	0	12	0	-100	0	230	101300000	1000	0	0	-1	1500
26657715	0	8	0	-100	0	230	101300000	1000	0	0	-1	1500
26670275	0	5	0	-100	0	230	101300000	1000	0	0	-1	1500
26682835	0	6	0	-100	0	230	101300000	1000	0	0	-1	1500
26695395	0	5	0	-100	0	230	101300000	1000	0	0	-1	1500
26707955	0	8	0	-100	0	230	101300000	1000	0	0	-1	1500
26720515	0	13	0	-100	0	230	101300000	1000	0	0	-1	1500
26733075	0	13	0	-100	0	230	101300000	1000	0	0	-1	1500
26745635	0	8	0	-100	0	230	101300000	1000	0	0	-1	1500
26758195	0	8	0	-100	0	230	101300000	1000	0	0	-1	1500
26770755	0	8	0	-100	0	230	101300000	1000	0	0	-1	1500
26783315	0	8	0	-100	0	230	101300000	1000	0	0	-1	1500
26795875	0	9	0	-100	0	230	101300000	1000	0	0	-1	1500
26808435	0	14	0	-100	0	230	101300000	1000	0	0	-1	1500
26820995	0	8	0	-100	0	230	101300000	1000	0	0	-1	1500
26833555	0	6	0	-100	0	230	101300000	1000	0	0	-1	1500
26846115	0	6	0	-100	0	230	101300000	1000	0	0	-1	1500
26858675	0	12	0	-100	0	230	101300000	1000	0	0	-1	1500
26871235	0	7	0	-100	0	230	101300000	1000	0	0	-1	1500
26883795	0	5	0	-100	0	230	101300000	1000	0	0	-1	1500
26896355	0	12	0	-100	0	230	101300000	1000	0	0	-1	1500
26908915	0	6	0	-100	0	230	101300000	1000	0	0	-1	1500
26921475	0	7	0	-100	0	230	101300000	1000	0	0	-1	1500
26934035	0	12	0	-100	0	230	101300000	1000	0	0	-1	1500
26946595	0	8	0	-100	0	230	101300000	1000	0	0	-1	1500
26959155	0	7	0	-100	0	230	101300000	1000	0	0	-1	1500
26971715	0	8	0	-100	0	230	101300000	1000	0	0	-1	1500
26984275	0	11	0	-100	0	230	101300000	1000	0	0	-1	1500
26996835	0	8	0	-100	0	230	101300000	1000	0	0	-1	1500
27009395	0	6	0	-100	0	230	101300000	1000	0	0	-1	1500
27021955	0	8	0	-100	0	230	101300000	1000	0	0	-1	1500
27034515	0	12	0	-100	0	230	101300000	1000	0	0	-1	1500
27047075	0	12	0	-100	0	230	101300000	1000	0	0	-1	1500
