timestamp	voltage	current	windSpeed	pitchAngle	rpm	temperature	ambientPressure	humidity	accelerationX	accelerationY	accelerationZ	currentSink
7037070	4015	0	0	-100	0	230	101300000	1000	0	0	-1	0
7044523	4016	0	0	-100	0	230	101300000	1000	0	0	-1	0
7057083	4011	0	0	-100	0	230	101300000	1000	0	0	-1	0
7069643	4011	0	0	-100	0	230	101300000	1000	0	0	-1	0
7082203	4010	4	0	-100	0	230	101300000	1000	0	0	-1	0
7094763	4012	2	0	-100	0	230	101300000	1000	0	0	-1	0
7107323	4012	3	0	-100	0	230	101300000	1000	0	0	-1	0
7119883	4013	0	0	-100	0	230	101300000	1000	0	0	-1	0
7132443	4018	0	0	-100	0	230	101300000	1000	0	0	-1	0
7145004	4009	0	0	-100	0	230	101300000	1000	0	0	-1	0
7157563	4010	0	0	-100	0	230	101300000	1000	0	0	-1	0
7170123	4011	3	0	-100	0	230	101300000	1000	0	0	-1	0
7182683	4011	0	0	-100	0	230	101300000	1000	0	0	-1	0
7195243	4019	0	0	-100	0	230	101300000	1000	0	0	-1	0
7207803	4016	0	0	-100	0	230	101300000	1000	0	0	-1	0
7220363	4013	0	0	-100	0	230	101300000	1000	0	0	-1	0
7232923	4010	0	0	-100	0	230	101300000	1000	0	0	-1	0
7245483	4010	4	0	-100	0	230	101300000	1000	0	0	-1	0
7258043	4018	0	0	-100	0	230	101300000	1000	0	0	-1	0
7270603	4014	0	0	-100	0	230	101300000	1000	0	0	-1	0
7283163	4012	0	0	-100	0	230	101300000	1000	0	0	-1	0
7295723	4012	4	0	-100	0	230	101300000	1000	0	0	-1	0
7308283	4008	0	0	-100	0	230	101300000	1000	0	0	-1	0
7320843	4016	0	0	-100	0	230	101300000	1000	0	0	-1	0
7333403	4013	0	0	-100	0	230	101300000	1000	0	0	-1	0
7345963	4011	0	0	-100	0	230	101300000	1000	0	0	-1	0
7714235	14	153	0	-100	0	230	101300000	1000	0	0	-1	1500
7726795	19	155	0	-100	0	230	101300000	1000	0	0	-1	1500
7739355	19	153	0	-100	0	230	101300000	1000	0	0	-1	1500
7751915	19	151	0	-100	0	230	101300000	1000	0	0	-1	1500
7764475	21	156	0	-100	0	230	101300000	1000	0	0	-1	1500
7777035	14	151	0	-100	0	230	101300000	1000	0	0	-1	1500
7789595	9	157	0	-100	0	230	101300000	1000	0	0	-1	1500
7802155	12	154	0	-100	0	230	101300000	1000	0	0	-1	1500
7814715	12	157	0	-100	0	230	101300000	1000	0	0	-1	1500
7827275	12	158	0	-100	0	230	101300000	1000	0	0	-1	1500
7839835	12	156	0	-100	0	230	101300000	1000	0	0	-1	1500
7852395	12	156	0	-100	0	230	101300000	1000	0	0	-1	1500
7864955	12	158	0	-100	0	230	101300000	1000	0	0	-1	1500
7877515	12	158	0	-100	0	230	101300000	1000	0	0	-1	1500
7890075	12	157	0	-100	0	230	101300000	1000	0	0	-1	1500
7902635	14	156	0	-100	0	230	101300000	1000	0	0	-1	1500
7915195	14	153	0	-100	0	230	101300000	1000	0	0	-1	1500
7927755	16	156	0	-100	0	230	101300000	1000	0	0	-1	1500
7940315	14	152	0	-100	0	230	101300000	1000	0	0	-1	1500
7952875	16	155	0	-100	0	230	101300000	1000	0	0	-1	1500
7965435	12	152	0	-100	0	230	101300000	1000	0	0	-1	1500
7977995	16	152	0	-100	0	230	101300000	1000	0	0	-1	1500
7990555	16	154	0	-100	0	230	101300000	1000	0	0	-1	1500
8003115	19	156	0	-100	0	230	101300000	1000	0	0	-1	1500
8015675	19	151	0	-100	0	230	101300000	1000	0	0	-1	1500
8028235	19	151	0	-100	0	230	101300000	1000	0	0	-1	1500
8040795	19	152	0	-100	0	230	101300000	1000	0	0	-1	1500
8053355	19	152	0	-100	0	230	101300000	1000	0	0	-1	1500
8065915	19	151	0	-100	0	230	101300000	1000	0	0	-1	1500
8078475	21	153	0	-100	0	230	101300000	1000	0	0	-1	1500
8091035	19	152	0	-100	0	230	101300000	1000	0	0	-1	1500
8103595	12	154	0	-100	0	230	101300000	1000	0	0	-1	1500
8116155	14	155	0	-100	0	230	101300000	1000	0	0	-1	1500
8128715	12	152	0	-100	0	230	101300000	1000	0	0	-1	1500
8141275	12	158	0	-100	0	230	101300000	1000	0	0	-1	1500
8153835	12	155	0	-100	0	230	101300000	1000	0	0	-1	1500
8166395	12	156	0	-100	0	230	101300000	1000	0	0	-1	1500
8178955	9	159	0	-100	0	230	101300000	1000	0	0	-1	1500
8191515	16	151	0	-100	0	230	101300000	1000	0	0	-1	1500
8204075	21	151	0	-100	0	230	101300000	1000	0	0	-1	1500
8216635	21	153	0	-100	0	230	101300000	1000	0	0	-1	1500
8229195	14	151	0	-100	0	230	101300000	1000	0	0	-1	1500
8241755	12	153	0	-100	0	230	101300000	1000	0	0	-1	1500
8254315	12	154	0	-100	0	230	101300000	1000	0	0	-1	1500
8266875	12	153	0	-100	0	230	101300000	1000	0	0	-1	1500
8279435	12	158	0	-100	0	230	101300000	1000	0	0	-1	1500
8291995	12	155	0	-100	0	230	101300000	1000	0	0	-1	1500
8304555	16	159	0	-100	0	230	101300000	1000	0	0	-1	1500
8317115	7	156	0	-100	0	230	101300000	1000	0	0	-1	1500
8329675	14	155	0	-100	0	230	101300000	1000	0	0	-1	1500
8342235	16	151	0	-100	0	230	101300000	1000	0	0	-1	1500
8354795	16	152	0	-100	0	230	101300000	1000	0	0	-1	1500
8367355	16	149	0	-100	0	230	101300000	1000	0	0	-1	1500
8379915	12	151	0	-100	0	230	101300000	1000	0	0	-1	1500
8392475	14	156	0	-100	0	230	101300000	1000	0	0	-1	1500
8405035	14	154	0	-100	0	230	101300000	1000	0	0	-1	1500
8417595	9	157	0	-100	0	230	101300000	1000	0	0	-1	1500
8430155	16	153	0	-100	0	230	101300000	1000	0	0	-1	1500
8442715	21	151	0	-100	0	230	101300000	1000	0	0	-1	1500
8455275	14	153	0	-100	0	230	101300000	1000	0	0	-1	1500
8467835	12	154	0	-100	0	230	101300000	1000	0	0	-1	1500
8480395	12	156	0	-100	0	230	101300000	1000	0	0	-1	1500
8492955	12	155	0	-100	0	230	101300000	1000	0	0	-1	1500
8505515	12	155	0	-100	0	230	101300000	1000	0	0	-1	1500
8518075	14	155	0	-100	0	230	101300000	1000	0	0	-1	1500
8530635	12	154	0	-100	0	230	101300000	1000	0	0	-1	1500
8543195	14	151	0	-100	0	230	101300000	1000	0	0	-1	1500
8555755	16	151	0	-100	0	230	101300000	1000	0	0	-1	1500
8568315	19	151	0	-100	0	230	101300000	1000	0	0	-1	1500
8580875	16	153	0	-100	0	230	101300000	1000	0	0	-1	1500
8593435	14	155	0	-100	0	230	101300000	1000	0	0	-1	1500
8605995	12	152	0	-100	0	230	101300000	1000	0	0	-1	1500
8618555	12	156	0	-100	0	230	101300000	1000	0	0	-1	1500
8631115	9	155	0	-100	0	230	101300000	1000	0	0	-1	1500
8643675	12	156	0	-100	0	230	101300000	1000	0	0	-1	1500
8656235	9	153	0	-100	0	230	101300000	1000	0	0	-1	1500
8668795	12	157	0	-100	0	230	101300000	1000	0	0	-1	1500
8681355	12	152	0	-100	0	230	101300000	1000	0	0	-1	1500
8693915	12	156	0	-100	0	230	101300000	1000	0	0	-1	1500
8706475	12	158	0	-100	0	230	101300000	1000	0	0	-1	1500
8719035	14	155	0	-100	0	230	101300000	1000	0	0	-1	1500
8731595	12	152	0	-100	0	230	101300000	1000	0	0	-1	1500
8744155	12	153	0	-100	0	230	101300000	1000	0	0	-1	1500
8756715	19	155	0	-100	0	230	101300000	1000	0	0	-1	1500
8769275	19	151	0	-100	0	230	101300000	1000	0	0	-1	1500
8781835	19	153	0	-100	0	230	101300000	1000	0	0	-1	1500
8794395	21	151	0	-100	0	230	101300000	1000	0	0	-1	1500
8806955	19	155	0	-100	0	230	101300000	1000	0	0	-1	1500
8819515	19	151	0	-100	0	230	101300000	1000	0	0	-1	1500
8832075	19	152	0	-100	0	230	101300000	1000	0	0	-1	1500
8844635	21	150	0	-100	0	230	101300000	1000	0	0	-1	1500
8857195	16	151	0	-100	0	230	101300000	1000	0	0	-1	1500
8869755	19	154	0	-100	0	230	101300000	1000	0	0	-1	1500
8882315	12	154	0	-100	0	230	101300000	1000	0	0	-1	1500
8894875	12	157	0	-100	0	230	101300000	1000	0	0	-1	1500
8907435	12	155	0	-100	0	230	101300000	1000	0	0	-1	1500
8919995	16	155	0	-100	0	230	101300000	1000	0	0	-1	1500
8932555	19	151	0	-100	0	230	101300000	1000	0	0	-1	1500
8945115	19	154	0	-100	0	230	101300000	1000	0	0	-1	1500
8957675	14	150	0	-100	0	230	101300000	1000	0	0	-1	1500
8970235	9	156	0	-100	0	230	101300000	1000	0	0	-1	1500
8982795	12	157	0	-100	0	230	101300000	1000	0	0	-1	1500
8995355	12	156	0	-100	0	230	101300000	1000	0	0	-1	1500
9007915	12	156	0	-100	0	230	101300000	1000	0	0	-1	1500
9020475	12	156	0	-100	0	230	101300000	1000	0	0	-1	1500
9033035	12	156	0	-100	0	230	101300000	1000	0	0	-1	1500
9045595	12	157	0	-100	0	230	101300000	1000	0	0	-1	1500
9058155	9	154	0	-100	0	230	101300000	1000	0	0	-1	1500
9070715	12	157	0	-100	0	230	101300000	1000	0	0	-1	1500
9083275	9	153	0	-100	0	230	101300000	1000	0	0	-1	1500
9095835	9	156	0	-100	0	230	101300000	1000	0	0	-1	1500
9108395	12	153	0	-100	0	230	101300000	1000	0	0	-1	1500
9120955	12	156	0	-100	0	230	101300000	1000	0	0	-1	1500
9133515	12	155	0	-100	0	230	101300000	1000	0	0	-1	1500
9146075	14	153	0	-100	0	230	101300000	1000	0	0	-1	1500
9158635	16	151	0	-100	0	230	101300000	1000	0	0	-1	1500
9171195	16	153	0	-100	0	230	101300000	1000	0	0	-1	1500
9183755	12	155	0	-100	0	230	101300000	1000	0	0	-1	1500
9196315	9	153	0	-100	0	230	101300000	1000	0	0	-1	1500
9208875	12	157	0	-100	0	230	101300000	1000	0	0	-1	1500
9221435	16	151	0	-100	0	230	101300000	1000	0	0	-1	1500
9233995	19	153	0	-100	0	230	101300000	1000	0	0	-1	1500
9246555	12	154	0	-100	0	230	101300000	1000	0	0	-1	1500
9259115	12	158	0	-100	0	230	101300000	1000	0	0	-1	1500
9271675	12	153	0	-100	0	230	101300000	1000	0	0	-1	1500
9284235	14	155	0	-100	0	230	101300000	1000	0	0	-1	1500
9296795	14	152	0	-100	0	230	101300000	1000	0	0	-1	1500
9309355	19	153	0	-100	0	230	101300000	1000	0	0	-1	1500
9321915	19	152	0	-100	0	230	101300000	1000	0	0	-1	1500
9334475	19	153	0	-100	0	230	101300000	1000	0	0	-1	1500
9347035	12	154	0	-100	0	230	101300000	1000	0	0	-1	1500
9359595	12	158	0	-100	0	230	101300000	1000	0	0	-1	1500
9372155	14	152	0	-100	0	230	101300000	1000	0	0	-1	1500
9384715	12	154	0	-100	0	230	101300000	1000	0	0	-1	1500
9397275	19	153	0	-100	0	230	101300000	1000	0	0	-1	1500
9409835	16	151	0	-100	0	230	101300000	1000	0	0	-1	1500
9422395	19	153	0	-100	0	230	101300000	1000	0	0	-1	1500
9434955	19	153	0	-100	0	230	101300000	1000	0	0	-1	1500
9447515	14	150	0	-100	0	230	101300000	1000	0	0	-1	1500
9460075	14	153	0	-100	0	230	101300000	1000	0	0	-1	1500
9472635	9	156	0	-100	0	230	101300000	1000	0	0	-1	1500
9485195	12	157	0	-100	0	230	101300000	1000	0	0	-1	1500
9497755	9	156	0	-100	0	230	101300000	1000	0	0	-1	1500
9510315	12	154	0	-100	0	230	101300000	1000	0	0	-1	1500
9522875	12	155	0	-100	0	230	101300000	1000	0	0	-1	1500
9535435	21	152	0	-100	0	230	101300000	1000	0	0	-1	1500
9547995	14	152	0	-100	0	230	101300000	1000	0	0	-1	1500
9560555	16	152	0	-100	0	230	101300000	1000	0	0	-1	1500
9573115	16	158	0	-100	0	230	101300000	1000	0	0	-1	1500
9585675	16	150	0	-100	0	230	101300000	1000	0	0	-1	1500
9598235	12	153	0	-100	0	230	101300000	1000	0	0	-1	1500
9610795	7	155	0	-100	0	230	101300000	1000	0	0	-1	1500
9623355	9	156	0	-100	0	230	101300000	1000	0	0	-1	1500
9635915	12	159	0	-100	0	230	101300000	1000	0	0	-1	1500
9648475	12	153	0	-100	0	230	101300000	1000	0	0	-1	1500
9661035	12	155	0	-100	0	230	101300000	1000	0	0	-1	1500
9673595	14	152	0	-100	0	230	101300000	1000	0	0	-1	1500
9686155	12	155	0	-100	0	230	101300000	1000	0	0	-1	1500
9698715	12	157	0	-100	0	230	101300000	1000	0	0	-1	1500
9711275	14	157	0	-100	0	230	101300000	1000	0	0	-1	1500
9723835	12	157	0	-100	0	230	101300000	1000	0	0	-1	1500
9736395	9	155	0	-100	0	230	101300000	1000	0	0	-1	1500
9748955	16	154	0	-100	0	230	101300000	1000	0	0	-1	1500
9761515	16	155	0	-100	0	230	101300000	1000	0	0	-1	1500
9774075	19	149	0	-100	0	230	101300000	1000	0	0	-1	1500
9786635	16	151	0	-100	0	230	101300000	1000	0	0	-1	1500
9799195	12	160	0	-100	0	230	101300000	1000	0	0	-1	1500
9811755	14	152	0	-100	0	230	101300000	1000	0	0	-1	1500
9824315	7	156	0	-100	0	230	101300000	1000	0	0	-1	1500
9836875	9	153	0	-100	0	230	101300000	1000	0	0	-1	1500
9849435	9	155	0	-100	0	230	101300000	1000	0	0	-1	1500
9861995	12	154	0	-100	0	230	101300000	1000	0	0	-1	1500
9874555	9	154	0	-100	0	230	101300000	1000	0	0	-1	1500
9887115	9	155	0	-100	0	230	101300000	1000	0	0	-1	1500
9899675	9	155	0	-100	0	230	101300000	1000	0	0	-1	1500
9912235	14	155	0	-100	0	230	101300000	1000	0	0	-1	1500
9924795	16	153	0	-100	0	230	101300000	1000	0	0	-1	1500
9937355	12	152	0	-100	0	230	101300000	1000	0	0	-1	1500
9949915	12	155	0	-100	0	230	101300000	1000	0	0	-1	1500
9962475	14	155	0	-100	0	230	101300000	1000	0	0	-1	1500
9975035	12	152	0	-100	0	230	101300000	1000	0	0	-1	1500
9987595	16	153	0	-100	0	230	101300000	1000	0	0	-1	1500
10000155	16	155	0	-100	0	230	101300000	1000	0	0	-1	1500
10012715	19	151	0	-100	0	230	101300000	1000	0	0	-1	1500
10025275	21	152	0	-100	0	230	101300000	1000	0	0	-1	1500
10037835	12	152	0	-100	0	230	101300000	1000	0	0	-1	1500
10050395	12	153	0	-100	0	230	101300000	1000	0	0	-1	1500
10062955	12	156	0	-100	0	230	101300000	1000	0	0	-1	1500
10075515	14	155	0	-100	0	230	101300000	1000	0	0	-1	1500
10138315	16	156	0	-100	0	230	101300000	1000	0	0	-1	1500
10150875	19	153	0	-100	0	230	101300000	1000	0	0	-1	1500
10163435	19	154	0	-100	0	230	101300000	1000	0	0	-1	1500
10175995	12	152	0	-100	0	230	101300000	1000	0	0	-1	1500
10188555	12	158	0	-100	0	230	101300000	1000	0	0	-1	1500
10201115	12	155	0	-100	0	230	101300000	1000	0	0	-1	1500
10213675	9	158	0	-100	0	230	101300000	1000	0	0	-1	1500
10226235	9	155	0	-100	0	230	101300000	1000	0	0	-1	1500
10238795	14	155	0	-100	0	230	101300000	1000	0	0	-1	1500
10251355	12	154	0	-100	0	230	101300000	1000	0	0	-1	1500
10263915	16	154	0	-100	0	230	101300000	1000	0	0	-1	1500
10289035	19	154	0	-100	0	230	101300000	1000	0	0	-1	1500
10301595	12	155	0	-100	0	230	101300000	1000	0	0	-1	1500
10314155	14	159	0	-100	0	230	101300000	1000	0	0	-1	1500
10326715	24	154	0	-100	0	230	101300000	1000	0	0	-1	1500
10339275	16	150	0	-100	0	230	101300000	1000	0	0	-1	1500
10351835	14	156	0	-100	0	230	101300000	1000	0	0	-1	1500
10364395	12	156	0	-100	0	230	101300000	1000	0	0	-1	1500
10376955	19	154	0	-100	0	230	101300000	1000	0	0	-1	1500
10389515	16	152	0	-100	0	230	101300000	1000	0	0	-1	1500
10402075	12	156	0	-100	0	230	101300000	1000	0	0	-1	1500
10414635	14	156	0	-100	0	230	101300000	1000	0	0	-1	1500
10427195	16	151	0	-100	0	230	101300000	1000	0	0	-1	1500
10439755	14	156	0	-100	0	230	101300000	1000	0	0	-1	1500
10452315	14	153	0	-100	0	230	101300000	1000	0	0	-1	1500
10464875	16	152	0	-100	0	230	101300000	1000	0	0	-1	1500
10477435	12	157	0	-100	0	230	101300000	1000	0	0	-1	1500
10489995	12	151	0	-100	0	230	101300000	1000	0	0	-1	1500
10502555	19	154	0	-100	0	230	101300000	1000	0	0	-1	1500
10515115	16	154	0	-100	0	230	101300000	1000	0	0	-1	1500
10527675	14	152	0	-100	0	230	101300000	1000	0	0	-1	1500
10540235	9	155	0	-100	0	230	101300000	1000	0	0	-1	1500
10552795	12	155	0	-100	0	230	101300000	1000	0	0	-1	1500
10565355	12	155	0	-100	0	230	101300000	1000	0	0	-1	1500
10577915	14	152	0	-100	0	230	101300000	1000	0	0	-1	1500
10590475	16	155	0	-100	0	230	101300000	1000	0	0	-1	1500
10603035	19	152	0	-100	0	230	101300000	1000	0	0	-1	1500
10615595	16	151	0	-100	0	230	101300000	1000	0	0	-1	1500
10628155	12	155	0	-100	0	230	101300000	1000	0	0	-1	1500
10640715	12	154	0	-100	0	230	101300000	1000	0	0	-1	1500
10653275	12	152	0	-100	0	230	101300000	1000	0	0	-1	1500
10665835	19	151	0	-100	0	230	101300000	1000	0	0	-1	1500
10678395	16	151	0	-100	0	230	101300000	1000	0	0	-1	1500
10690955	14	155	0	-100	0	230	101300000	1000	0	0	-1	1500
10703515	9	153	0	-100	0	230	101300000	1000	0	0	-1	1500
10716075	19	155	0	-100	0	230	101300000	1000	0	0	-1	1500
10728635	14	152	0	-100	0	230	101300000	1000	0	0	-1	1500
10741195	14	155	0	-100	0	230	101300000	1000	0	0	-1	1500
10753755	9	152	0	-100	0	230	101300000	1000	0	0	-1	1500
10766315	19	151	0	-100	0	230	101300000	1000	0	0	-1	1500
10778875	14	151	0	-100	0	230	101300000	1000	0	0	-1	1500
10791435	12	154	0	-100	0	230	101300000	1000	0	0	-1	1500
10803995	12	151	0	-100	0	230	101300000	1000	0	0	-1	1500
10816555	14	153	0	-100	0	230	101300000	1000	0	0	-1	1500
10829115	16	154	0	-100	0	230	101300000	1000	0	0	-1	1500
10841675	9	156	0	-100	0	230	101300000	1000	0	0	-1	1500
10854235	12	154	0	-100	0	230	101300000	1000	0	0	-1	1500
10866795	19	153	0	-100	0	230	101300000	1000	0	0	-1	1500
10879355	14	153	0	-100	0	230	101300000	1000	0	0	-1	1500
10891915	9	156	0	-100	0	230	101300000	1000	0	0	-1	1500
10904475	16	148	0	-100	0	230	101300000	1000	0	0	-1	1500
10917035	14	154	0	-100	0	230	101300000	1000	0	0	-1	1500
10929595	19	151	0	-100	0	230	101300000	1000	0	0	-1	1500
10942155	14	157	0	-100	0	230	101300000	1000	0	0	-1	1500
10954715	19	151	0	-100	0	230	101300000	1000	0	0	-1	1500
10967275	12	154	0	-100	0	230	101300000	1000	0	0	-1	1500
10979835	14	149	0	-100	0	230	101300000	1000	0	0	-1	1500
10992395	16	152	0	-100	0	230	101300000	1000	0	0	-1	1500
11004955	9	154	0	-100	0	230	101300000	1000	0	0	-1	1500
11017515	19	153	0	-100	0	230	101300000	1000	0	0	-1	1500
11030075	14	152	0	-100	0	230	101300000	1000	0	0	-1	1500
11042635	19	152	0	-100	0	230	101300000	1000	0	0	-1	1500
11055195	12	155	0	-100	0	230	101300000	1000	0	0	-1	1500
11067755	12	156	0	-100	0	230	101300000	1000	0	0	-1	1500
11080315	16	150	0	-100	0	230	101300000	1000	0	0	-1	1500
11092875	14	156	0	-100	0	230	101300000	1000	0	0	-1	1500
11105435	12	155	0	-100	0	230	101300000	1000	0	0	-1	1500
11117995	19	155	0	-100	0	230	101300000	1000	0	0	-1	1500
11130555	12	154	0	-100	0	230	101300000	1000	0	0	-1	1500
11143115	12	154	0	-100	0	230	101300000	1000	0	0	-1	1500
11155675	12	150	0	-100	0	230	101300000	1000	0	0	-1	1500
11168235	12	156	0	-100	0	230	101300000	1000	0	0	-1	1500
11180795	16	151	0	-100	0	230	101300000	1000	0	0	-1	1500
11193355	12	154	0	-100	0	230	101300000	1000	0	0	-1	1500
11205915	12	155	0	-100	0	230	101300000	1000	0	0	-1	1500
11218475	19	153	0	-100	0	230	101300000	1000	0	0	-1	1500
11231035	16	150	0	-100	0	230	101300000	1000	0	0	-1	1500
11243595	12	157	0	-100	0	230	101300000	1000	0	0	-1	1500
11256155	12	155	0	-100	0	230	101300000	1000	0	0	-1	1500
11268715	16	154	0	-100	0	230	101300000	1000	0	0	-1	1500
11281275	19	152	0	-100	0	230	101300000	1000	0	0	-1	1500
11293835	14	152	0	-100	0	230	101300000	1000	0	0	-1	1500
11306395	12	156	0	-100	0	230	101300000	1000	0	0	-1	1500
11318955	14	154	0	-100	0	230	101300000	1000	0	0	-1	1500
11331515	19	155	0	-100	0	230	101300000	1000	0	0	-1	1500
11344075	14	156	0	-100	0	230	101300000	1000	0	0	-1	1500
11356635	12	152	0	-100	0	230	101300000	1000	0	0	-1	1500
11369195	19	154	0	-100	0	230	101300000	1000	0	0	-1	1500
11381755	12	156	0	-100	0	230	101300000	1000	0	0	-1	1500
11394315	9	152	0	-100	0	230	101300000	1000	0	0	-1	1500
11406875	14	152	0	-100	0	230	101300000	1000	0	0	-1	1500
11419435	14	152	0	-100	0	230	101300000	1000	0	0	-1	1500
11431995	14	152	0	-100	0	230	101300000	1000	0	0	-1	1500
11444555	9	155	0	-100	0	230	101300000	1000	0	0	-1	1500
11457115	14	153	0	-100	0	230	101300000	1000	0	0	-1	1500
11469675	16	151	0	-100	0	230	101300000	1000	0	0	-1	1500
11482235	14	155	0	-100	0	230	101300000	1000	0	0	-1	1500
11494795	12	153	0	-100	0	230	101300000	1000	0	0	-1	1500
11507355	21	155	0	-100	0	230	101300000	1000	0	0	-1	1500
11519915	12	154	0	-100	0	230	101300000	1000	0	0	-1	1500
11532475	12	154	0	-100	0	230	101300000	1000	0	0	-1	1500
11545035	19	151	0	-100	0	230	101300000	1000	0	0	-1	1500
11557595	12	154	0	-100	0	230	101300000	1000	0	0	-1	1500
11570155	12	158	0	-100	0	230	101300000	1000	0	0	-1	1500
11582715	14	152	0	-100	0	230	101300000	1000	0	0	-1	1500
11595275	16	151	0	-100	0	230	101300000	1000	0	0	-1	1500
11607835	14	156	0	-100	0	230	101300000	1000	0	0	-1	1500
11620395	12	154	0	-100	0	230	101300000	1000	0	0	-1	1500
11632955	9	153	0	-100	0	230	101300000	1000	0	0	-1	1500
11645515	12	156	0	-100	0	230	101300000	1000	0	0	-1	1500
11658075	19	156	0	-100	0	230	101300000	1000	0	0	-1	1500
11670635	21	153	0	-100	0	230	101300000	1000	0	0	-1	1500
11683195	14	156	0	-100	0	230	101300000	1000	0	0	-1	1500
11695755	9	154	0	-100	0	230	101300000	1000	0	0	-1	1500
11708315	16	156	0	-100	0	230	101300000	1000	0	0	-1	1500
11720875	16	149	0	-100	0	230	101300000	1000	0	0	-1	1500
11733435	9	155	0	-100	0	230	101300000	1000	0	0	-1	1500
11745995	14	151	0	-100	0	230	101300000	1000	0	0	-1	1500
11758555	12	156	0	-100	0	230	101300000	1000	0	0	-1	1500
11771115	9	155	0	-100	0	230	101300000	1000	0	0	-1	1500
11783675	12	152	0	-100	0	230	101300000	1000	0	0	-1	1500
11796235	19	154	0	-100	0	230	101300000	1000	0	0	-1	1500
11808795	16	152	0	-100	0	230	101300000	1000	0	0	-1	1500
11821355	19	154	0	-100	0	230	101300000	1000	0	0	-1	1500
11833915	12	155	0	-100	0	230	101300000	1000	0	0	-1	1500
11846475	12	152	0	-100	0	230	101300000	1000	0	0	-1	1500
11859035	9	152	0	-100	0	230	101300000	1000	0	0	-1	1500
11871595	12	154	0	-100	0	230	101300000	1000	0	0	-1	1500
11884155	19	154	0	-100	0	230	101300000	1000	0	0	-1	1500
11896715	16	150	0	-100	0	230	101300000	1000	0	0	-1	1500
11909275	16	155	0	-100	0	230	101300000	1000	0	0	-1	1500
11921835	12	154	0	-100	0	230	101300000	1000	0	0	-1	1500
11934395	14	155	0	-100	0	230	101300000	1000	0	0	-1	1500
11946955	12	155	0	-100	0	230	101300000	1000	0	0	-1	1500
11959515	14	152	0	-100	0	230	101300000	1000	0	0	-1	1500
11972075	19	152	0	-100	0	230	101300000	1000	0	0	-1	1500
11984635	14	151	0	-100	0	230	101300000	1000	0	0	-1	1500
11997195	14	157	0	-100	0	230	101300000	1000	0	0	-1	1500
12009755	12	154	0	-100	0	230	101300000	1000	0	0	-1	1500
12022315	19	151	0	-100	0	230	101300000	1000	0	0	-1	1500
12034875	12	153	0	-100	0	230	101300000	1000	0	0	-1	1500
12047435	9	154	0	-100	0	230	101300000	1000	0	0	-1	1500
12059995	16	155	0	-100	0	230	101300000	1000	0	0	-1	1500
12072555	16	152	0	-100	0	230	101300000	1000	0	0	-1	1500
12085115	9	156	0	-100	0	230	101300000	1000	0	0	-1	1500
12097675	9	154	0	-100	0	230	101300000	1000	0	0	-1	1500
12110235	14	156	0	-100	0	230	101300000	1000	0	0	-1	1500
12122795	16	156	0	-100	0	230	101300000	1000	0	0	-1	1500
12135355	12	152	0	-100	0	230	101300000	1000	0	0	-1	1500
12147915	14	156	0	-100	0	230	101300000	1000	0	0	-1	1500
12160475	16	159	0	-100	0	230	101300000	1000	0	0	-1	1500
12173035	9	155	0	-100	0	230	101300000	1000	0	0	-1	1500
12185595	14	154	0	-100	0	230	101300000	1000	0	0	-1	1500
12198155	19	152	0	-100	0	230	101300000	1000	0	0	-1	1500
12210715	19	155	0	-100	0	230	101300000	1000	0	0	-1	1500
12223275	12	156	0	-100	0	230	101300000	1000	0	0	-1	1500
12235835	12	153	0	-100	0	230	101300000	1000	0	0	-1	1500
12248395	12	155	0	-100	0	230	101300000	1000	0	0	-1	1500
12260955	19	153	0	-100	0	230	101300000	1000	0	0	-1	1500
12273515	16	152	0	-100	0	230	101300000	1000	0	0	-1	1500
12286075	12	152	0	-100	0	230	101300000	1000	0	0	-1	1500
12298635	12	155	0	-100	0	230	101300000	1000	0	0	-1	1500
12311195	19	151	0	-100	0	230	101300000	1000	0	0	-1	1500
12323755	14	151	0	-100	0	230	101300000	1000	0	0	-1	1500
12336315	9	154	0	-100	0	230	101300000	1000	0	0	-1	1500
12348875	16	154	0	-100	0	230	101300000	1000	0	0	-1	1500
12361435	16	151	0	-100	0	230	101300000	1000	0	0	-1	1500
12373995	12	154	0	-100	0	230	101300000	1000	0	0	-1	1500
12386555	12	155	0	-100	0	230	101300000	1000	0	0	-1	1500
12399115	21	153	0	-100	0	230	101300000	1000	0	0	-1	1500
12411675	16	152	0	-100	0	230	101300000	1000	0	0	-1	1500
12424235	9	156	0	-100	0	230	101300000	1000	0	0	-1	1500
12436795	9	153	0	-100	0	230	101300000	1000	0	0	-1	1500
12449355	19	152	0	-100	0	230	101300000	1000	0	0	-1	1500
12461915	16	151	0	-100	0	230	101300000	1000	0	0	-1	1500
12474475	12	152	0	-100	0	230	101300000	1000	0	0	-1	1500
12487035	9	155	0	-100	0	230	101300000	1000	0	0	-1	1500
12499595	19	152	0	-100	0	230	101300000	1000	0	0	-1	1500
12512155	12	156	0	-100	0	230	101300000	1000	0	0	-1	1500
12524715	9	156	0	-100	0	230	101300000	1000	0	0	-1	1500
12537275	12	151	0	-100	0	230	101300000	1000	0	0	-1	1500
12549835	16	151	0	-100	0	230	101300000	1000	0	0	-1	1500
12562395	16	151	0	-100	0	230	101300000	1000	0	0	-1	1500
12574955	14	153	0	-100	0	230	101300000	1000	0	0	-1	1500
12587515	14	154	0	-100	0	230	101300000	1000	0	0	-1	1500
12600075	9	152	0	-100	0	230	101300000	1000	0	0	-1	1500
12612635	19	153	0	-100	0	230	101300000	1000	0	0	-1	1500
12625195	16	153	0	-100	0	230	101300000	1000	0	0	-1	1500
12637755	9	156	0	-100	0	230	101300000	1000	0	0	-1	1500
12650315	12	153	0	-100	0	230	101300000	1000	0	0	-1	1500
12662875	19	153	0	-100	0	230	101300000	1000	0	0	-1	1500
12675435	12	155	0	-100	0	230	101300000	1000	0	0	-1	1500
12687995	12	159	0	-100	0	230	101300000	1000	0	0	-1	1500
12700555	19	151	0	-100	0	230	101300000	1000	0	0	-1	1500
12713115	14	154	0	-100	0	230	101300000	1000	0	0	-1	1500
12725675	12	158	0	-100	0	230	101300000	1000	0	0	-1	1500
12738235	12	151	0	-100	0	230	101300000	1000	0	0	-1	1500
12750795	19	151	0	-100	0	230	101300000	1000	0	0	-1	1500
12763355	12	152	0	-100	0	230	101300000	1000	0	0	-1	1500
12775915	12	157	0	-100	0	230	101300000	1000	0	0	-1	1500
12788475	9	153	0	-100	0	230	101300000	1000	0	0	-1	1500
12801035	14	152	0	-100	0	230	101300000	1000	0	0	-1	1500
12813595	21	153	0	-100	0	230	101300000	1000	0	0	-1	1500
12826155	16	154	0	-100	0	230	101300000	1000	0	0	-1	1500
12838715	14	151	0	-100	0	230	101300000	1000	0	0	-1	1500
12851275	14	156	0	-100	0	230	101300000	1000	0	0	-1	1500
12863835	9	156	0	-100	0	230	101300000	1000	0	0	-1	1500
12876395	16	150	0	-100	0	230	101300000	1000	0	0	-1	1500
12888955	16	152	0	-100	0	230	101300000	1000	0	0	-1	1500
12901515	12	156	0	-100	0	230	101300000	1000	0	0	-1	1500
12914075	12	153	0	-100	0	230	101300000	1000	0	0	-1	1500
12926635	19	154	0	-100	0	230	101300000	1000	0	0	-1	1500
12939195	19	152	0	-100	0	230	101300000	1000	0	0	-1	1500
12951755	9	157	0	-100	0	230	101300000	1000	0	0	-1	1500
12964315	9	155	0	-100	0	230	101300000	1000	0	0	-1	1500
12976875	9	152	0	-100	0	230	101300000	1000	0	0	-1	1500
12989435	19	151	0	-100	0	230	101300000	1000	0	0	-1	1500
13001995	19	150	0	-100	0	230	101300000	1000	0	0	-1	1500
13014555	12	153	0	-100	0	230	101300000	1000	0	0	-1	1500
13027115	12	156	0	-100	0	230	101300000	1000	0	0	-1	1500
13039675	19	151	0	-100	0	230	101300000	1000	0	0	-1	1500
13052235	16	153	0	-100	0	230	101300000	1000	0	0	-1	1500
13064795	12	155	0	-100	0	230	101300000	1000	0	0	-1	1500
13077355	19	152	0	-100	0	230	101300000	1000	0	0	-1	1500
13089915	12	157	0	-100	0	230	101300000	1000	0	0	-1	1500
13102475	7	153	0	-100	0	230	101300000	1000	0	0	-1	1500
13115035	19	155	0	-100	0	230	101300000	1000	0	0	-1	1500
13127595	12	152	0	-100	0	230	101300000	1000	0	0	-1	1500
13140155	12	156	0	-100	0	230	101300000	1000	0	0	-1	1500
13152715	12	154	0	-100	0	230	101300000	1000	0	0	-1	1500
13165275	16	155	0	-100	0	230	101300000	1000	0	0	-1	1500
13177835	9	155	0	-100	0	230	101300000	1000	0	0	-1	1500
13190395	12	158	0	-100	0	230	101300000	1000	0	0	-1	1500
13202955	21	155	0	-100	0	230	101300000	1000	0	0	-1	1500
13215515	12	153	0	-100	0	230	101300000	1000	0	0	-1	1500
13228075	12	156	0	-100	0	230	101300000	1000	0	0	-1	1500
13240635	19	151	0	-100	0	230	101300000	1000	0	0	-1	1500
13253195	9	156	0	-100	0	230	101300000	1000	0	0	-1	1500
13265755	9	154	0	-100	0	230	101300000	1000	0	0	-1	1500
13278315	14	156	0	-100	0	230	101300000	1000	0	0	-1	1500
13290875	12	155	0	-100	0	230	101300000	1000	0	0	-1	1500
13303435	12	156	0	-100	0	230	101300000	1000	0	0	-1	1500
13315995	19	154	0	-100	0	230	101300000	1000	0	0	-1	1500
13328555	12	151	0	-100	0	230	101300000	1000	0	0	-1	1500
13341115	12	155	0	-100	0	230	101300000	1000	0	0	-1	1500
13353675	19	151	0	-100	0	230	101300000	1000	0	0	-1	1500
13366235	14	154	0	-100	0	230	101300000	1000	0	0	-1	1500
13378795	12	158	0	-100	0	230	101300000	1000	0	0	-1	1500
13391355	12	154	0	-100	0	230	101300000	1000	0	0	-1	1500
13403915	14	151	0	-100	0	230	101300000	1000	0	0	-1	1500
13416475	9	155	0	-100	0	230	101300000	1000	0	0	-1	1500
13429035	16	151	0	-100	0	230	101300000	1000	0	0	-1	1500
13441595	9	158	0	-100	0	230	101300000	1000	0	0	-1	1500
13454155	9	154	0	-100	0	230	101300000	1000	0	0	-1	1500
13466715	16	152	0	-100	0	230	101300000	1000	0	0	-1	1500
13479275	14	156	0	-100	0	230	101300000	1000	0	0	-1	1500
13491835	21	154	0	-100	0	230	101300000	1000	0	0	-1	1500
13504395	9	156	0	-100	0	230	101300000	1000	0	0	-1	1500
13516955	14	150	0	-100	0	230	101300000	1000	0	0	-1	1500
13529515	12	153	0	-100	0	230	101300000	1000	0	0	-1	1500
13542075	12	156	0	-100	0	230	101300000	1000	0	0	-1	1500
13554635	16	153	0	-100	0	230	101300000	1000	0	0	-1	1500
13567195	14	159	0	-100	0	230	101300000	1000	0	0	-1	1500
13579755	21	155	0	-100	0	230	101300000	1000	0	0	-1	1500
13592315	12	151	0	-100	0	230	101300000	1000	0	0	-1	1500
13604875	12	157	0	-100	0	230	101300000	1000	0	0	-1	1500
13617435	19	150	0	-100	0	230	101300000	1000	0	0	-1	1500
13629995	14	151	0	-100	0	230	101300000	1000	0	0	-1	1500
13642555	21	154	0	-100	0	230	101300000	1000	0	0	-1	1500
13655115	14	151	0	-100	0	230	101300000	1000	0	0	-1	1500
13667675	12	157	0	-100	0	230	101300000	1000	0	0	-1	1500
13680235	9	156	0	-100	0	230	101300000	1000	0	0	-1	1500
13692795	12	150	0	-100	0	230	101300000	1000	0	0	-1	1500
13705355	19	151	0	-100	0	230	101300000	1000	0	0	-1	1500
13717915	16	151	0	-100	0	230	101300000	1000	0	0	-1	1500
13730475	12	155	0	-100	0	230	101300000	1000	0	0	-1	1500
13743035	9	156	0	-100	0	230	101300000	1000	0	0	-1	1500
13755595	12	152	0	-100	0	230	101300000	1000	0	0	-1	1500
13768155	19	151	0	-100	0	230	101300000	1000	0	0	-1	1500
13780715	19	154	0	-100	0	230	101300000	1000	0	0	-1	1500
13793275	12	153	0	-100	0	230	101300000	1000	0	0	-1	1500
13805835	9	156	0	-100	0	230	101300000	1000	0	0	-1	1500
13818395	12	151	0	-100	0	230	101300000	1000	0	0	-1	1500
13830955	21	152	0	-100	0	230	101300000	1000	0	0	-1	1500
13843515	14	153	0	-100	0	230	101300000	1000	0	0	-1	1500
13856075	12	154	0	-100	0	230	101300000	1000	0	0	-1	1500
13868635	12	158	0	-100	0	230	101300000	1000	0	0	-1	1500
13881195	9	155	0	-100	0	230	101300000	1000	0	0	-1	1500
13893755	14	152	0	-100	0	230	101300000	1000	0	0	-1	1500
13906315	19	154	0	-100	0	230	101300000	1000	0	0	-1	1500
13918875	16	151	0	-100	0	230	101300000	1000	0	0	-1	1500
13931435	9	156	0	-100	0	230	101300000	1000	0	0	-1	1500
13943995	12	153	0	-100	0	230	101300000	1000	0	0	-1	1500
13956555	9	152	0	-100	0	230	101300000	1000	0	0	-1	1500
13969115	9	152	0	-100	0	230	101300000	1000	0	0	-1	1500
13981675	12	153	0	-100	0	230	101300000	1000	0	0	-1	1500
13994235	19	151	0	-100	0	230	101300000	1000	0	0	-1	1500
14006795	16	153	0	-100	0	230	101300000	1000	0	0	-1	1500
14019355	9	156	0	-100	0	230	101300000	1000	0	0	-1	1500
14031915	9	155	0	-100	0	230	101300000	1000	0	0	-1	1500
14044475	9	152	0	-100	0	230	101300000	1000	0	0	-1	1500
14057035	16	152	0	-100	0	230	101300000	1000	0	0	-1	1500
14069595	19	153	0	-100	0	230	101300000	1000	0	0	-1	1500
14082155	12	151	0	-100	0	230	101300000	1000	0	0	-1	1500
14094715	12	156	0	-100	0	230	101300000	1000	0	0	-1	1500
14107275	9	155	0	-100	0	230	101300000	1000	0	0	-1	1500
14119835	16	153	0	-100	0	230	101300000	1000	0	0	-1	1500
14132395	21	151	0	-100	0	230	101300000	1000	0	0	-1	1500
14144955	19	157	0	-100	0	230	101300000	1000	0	0	-1	1500
14157515	12	157	0	-100	0	230	101300000	1000	0	0	-1	1500
14170075	14	156	0	-100	0	230	101300000	1000	0	0	-1	1500
14182635	14	156	0	-100	0	230	101300000	1000	0	0	-1	1500
14195195	12	153	0	-100	0	230	101300000	1000	0	0	-1	1500
14207755	19	153	0	-100	0	230	101300000	1000	0	0	-1	1500
14220315	16	151	0	-100	0	230	101300000	1000	0	0	-1	1500
14232875	19	156	0	-100	0	230	101300000	1000	0	0	-1	1500
14245435	14	153	0	-100	0	230	101300000	1000	0	0	-1	1500
14257995	14	154	0	-100	0	230	101300000	1000	0	0	-1	1500
14270555	12	157	0	-100	0	230	101300000	1000	0	0	-1	1500
14283115	9	154	0	-100	0	230	101300000	1000	0	0	-1	1500
14295675	9	156	0	-100	0	230	101300000	1000	0	0	-1	1500
14308235	16	153	0	-100	0	230	101300000	1000	0	0	-1	1500
14320795	19	150	0	-100	0	230	101300000	1000	0	0	-1	1500
14333355	16	150	0	-100	0	230	101300000	1000	0	0	-1	1500
14345915	14	152	0	-100	0	230	101300000	1000	0	0	-1	1500
14358475	14	152	0	-100	0	230	101300000	1000	0	0	-1	1500
14371035	14	156	0	-100	0	230	101300000	1000	0	0	-1	1500
14383595	12	155	0	-100	0	230	101300000	1000	0	0	-1	1500
14396155	9	151	0	-100	0	230	101300000	1000	0	0	-1	1500
14408715	12	152	0	-100	0	230	101300000	1000	0	0	-1	1500
14421275	19	151	0	-100	0	230	101300000	1000	0	0	-1	1500
14433835	16	150	0	-100	0	230	101300000	1000	0	0	-1	1500
14446395	9	156	0	-100	0	230	101300000	1000	0	0	-1	1500
14458955	14	155	0	-100	0	230	101300000	1000	0	0	-1	1500
14471515	12	157	0	-100	0	230	101300000	1000	0	0	-1	1500
14484075	12	156	0	-100	0	230	101300000	1000	0	0	-1	1500
14496635	9	154	0	-100	0	230	101300000	1000	0	0	-1	1500
14509195	12	154	0	-100	0	230	101300000	1000	0	0	-1	1500
14521755	14	154	0	-100	0	230	101300000	1000	0	0	-1	1500
14534315	9	152	0	-100	0	230	101300000	1000	0	0	-1	1500
14546875	16	156	0	-100	0	230	101300000	1000	0	0	-1	1500
14559435	16	152	0	-100	0	230	101300000	1000	0	0	-1	1500
14571995	21	158	0	-100	0	230	101300000	1000	0	0	-1	1500
14584555	19	150	0	-100	0	230	101300000	1000	0	0	-1	1500
14597115	16	150	0	-100	0	230	101300000	1000	0	0	-1	1500
14609675	16	152	0	-100	0	230	101300000	1000	0	0	-1	1500
14622235	14	157	0	-100	0	230	101300000	1000	0	0	-1	1500
14634795	12	153	0	-100	0	230	101300000	1000	0	0	-1	1500
14647355	14	158	0	-100	0	230	101300000	1000	0	0	-1	1500
14659915	12	157	0	-100	0	230	101300000	1000	0	0	-1	1500
14672475	12	156	0	-100	0	230	101300000	1000	0	0	-1	1500
14685035	12	156	0	-100	0	230	101300000	1000	0	0	-1	1500
14697595	14	158	0	-100	0	230	101300000	1000	0	0	-1	1500
14710155	12	156	0	-100	0	230	101300000	1000	0	0	-1	1500
14722715	12	158	0	-100	0	230	101300000	1000	0	0	-1	1500
14735275	12	155	0	-100	0	230	101300000	1000	0	0	-1	1500
14747835	12	155	0	-100	0	230	101300000	1000	0	0	-1	1500
14760395	14	156	0	-100	0	230	101300000	1000	0	0	-1	1500
14772955	12	155	0	-100	0	230	101300000	1000	0	0	-1	1500
14785515	12	156	0	-100	0	230	101300000	1000	0	0	-1	1500
14798075	9	153	0	-100	0	230	101300000	1000	0	0	-1	1500
14810635	12	155	0	-100	0	230	101300000	1000	0	0	-1	1500
14823195	12	157	0	-100	0	230	101300000	1000	0	0	-1	1500
14835755	14	153	0	-100	0	230	101300000	1000	0	0	-1	1500
14848315	19	153	0	-100	0	230	101300000	1000	0	0	-1	1500
14860875	16	151	0	-100	0	230	101300000	1000	0	0	-1	1500
14873435	12	155	0	-100	0	230	101300000	1000	0	0	-1	1500
14885995	14	155	0	-100	0	230	101300000	1000	0	0	-1	1500
14898555	12	155	0	-100	0	230	101300000	1000	0	0	-1	1500
14911115	9	154	0	-100	0	230	101300000	1000	0	0	-1	1500
14923675	12	158	0	-100	0	230	101300000	1000	0	0	-1	1500
14936235	12	155	0	-100	0	230	101300000	1000	0	0	-1	1500
14948795	19	155	0	-100	0	230	101300000	1000	0	0	-1	1500
14961355	19	152	0	-100	0	230	101300000	1000	0	0	-1	1500
14973915	16	151	0	-100	0	230	101300000	1000	0	0	-1	1500
14986475	12	156	0	-100	0	230	101300000	1000	0	0	-1	1500
14999035	9	155	0	-100	0	230	101300000	1000	0	0	-1	1500
15011595	14	155	0	-100	0	230	101300000	1000	0	0	-1	1500
15024155	12	156	0	-100	0	230	101300000	1000	0	0	-1	1500
15036715	12	157	0	-100	0	230	101300000	1000	0	0	-1	1500
15049275	12	155	0	-100	0	230	101300000	1000	0	0	-1	1500
15061835	16	152	0	-100	0	230	101300000	1000	0	0	-1	1500
15074395	19	151	0	-100	0	230	101300000	1000	0	0	-1	1500
15086955	14	156	0	-100	0	230	101300000	1000	0	0	-1	1500
15099515	14	158	0	-100	0	230	101300000	1000	0	0	-1	1500
15112075	12	156	0	-100	0	230	101300000	1000	0	0	-1	1500
15124635	9	155	0	-100	0	230	101300000	1000	0	0	-1	1500
15137195	16	152	0	-100	0	230	101300000	1000	0	0	-1	1500
15149755	16	155	0	-100	0	230	101300000	1000	0	0	-1	1500
15162315	16	152	0	-100	0	230	101300000	1000	0	0	-1	1500
15174875	16	151	0	-100	0	230	101300000	1000	0	0	-1	1500
15187435	19	155	0	-100	0	230	101300000	1000	0	0	-1	1500
15199995	14	155	0	-100	0	230	101300000	1000	0	0	-1	1500
15212555	12	155	0	-100	0	230	101300000	1000	0	0	-1	1500
15225115	9	157	0	-100	0	230	101300000	1000	0	0	-1	1500
15237675	14	153	0	-100	0	230	101300000	1000	0	0	-1	1500
15250235	14	160	0	-100	0	230	101300000	1000	0	0	-1	1500
15262795	9	153	0	-100	0	230	101300000	1000	0	0	-1	1500
15275355	12	156	0	-100	0	230	101300000	1000	0	0	-1	1500
15287915	14	152	0	-100	0	230	101300000	1000	0	0	-1	1500
15300475	16	154	0	-100	0	230	101300000	1000	0	0	-1	1500
15313035	19	151	0	-100	0	230	101300000	1000	0	0	-1	1500
15325595	19	150	0	-100	0	230	101300000	1000	0	0	-1	1500
15338155	19	152	0	-100	0	230	101300000	1000	0	0	-1	1500
15350715	16	152	0	-100	0	230	101300000	1000	0	0	-1	1500
15363275	9	159	0	-100	0	230	101300000	1000	0	0	-1	1500
15375835	12	153	0	-100	0	230	101300000	1000	0	0	-1	1500
15388395	12	155	0	-100	0	230	101300000	1000	0	0	-1	1500
15400955	9	154	0	-100	0	230	101300000	1000	0	0	-1	1500
15413515	14	152	0	-100	0	230	101300000	1000	0	0	-1	1500
15426075	19	153	0	-100	0	230	101300000	1000	0	0	-1	1500
15438635	16	151	0	-100	0	230	101300000	1000	0	0	-1	1500
15451195	12	156	0	-100	0	230	101300000	1000	0	0	-1	1500
15463755	12	155	0	-100	0	230	101300000	1000	0	0	-1	1500
15476315	9	154	0	-100	0	230	101300000	1000	0	0	-1	1500
15488875	19	154	0	-100	0	230	101300000	1000	0	0	-1	1500
15501435	19	155	0	-100	0	230	101300000	1000	0	0	-1	1500
15513995	12	152	0	-100	0	230	101300000	1000	0	0	-1	1500
15526555	9	153	0	-100	0	230	101300000	1000	0	0	-1	1500
15539115	16	152	0	-100	0	230	101300000	1000	0	0	-1	1500
15551675	14	151	0	-100	0	230	101300000	1000	0	0	-1	1500
15564235	14	160	0	-100	0	230	101300000	1000	0	0	-1	1500
15576795	14	156	0	-100	0	230	101300000	1000	0	0	-1	1500
15589355	21	152	0	-100	0	230	101300000	1000	0	0	-1	1500
15601915	16	151	0	-100	0	230	101300000	1000	0	0	-1	1500
15614475	12	152	0	-100	0	230	101300000	1000	0	0	-1	1500
15627035	12	154	0	-100	0	230	101300000	1000	0	0	-1	1500
15639595	9	154	0	-100	0	230	101300000	1000	0	0	-1	1500
15652155	19	152	0	-100	0	230	101300000	1000	0	0	-1	1500
15664715	16	153	0	-100	0	230	101300000	1000	0	0	-1	1500
15677275	12	152	0	-100	0	230	101300000	1000	0	0	-1	1500
15689835	14	153	0	-100	0	230	101300000	1000	0	0	-1	1500
15702395	9	153	0	-100	0	230	101300000	1000	0	0	-1	1500
15714955	16	153	0	-100	0	230	101300000	1000	0	0	-1	1500
15727515	19	151	0	-100	0	230	101300000	1000	0	0	-1	1500
15740075	14	151	0	-100	0	230	101300000	1000	0	0	-1	1500
15752635	14	152	0	-100	0	230	101300000	1000	0	0	-1	1500
15765195	14	158	0	-100	0	230	101300000	1000	0	0	-1	1500
15777755	14	153	0	-100	0	230	101300000	1000	0	0	-1	1500
15790315	16	148	0	-100	0	230	101300000	1000	0	0	-1	1500
15802875	16	154	0	-100	0	230	101300000	1000	0	0	-1	1500
15815435	14	152	0	-100	0	230	101300000	1000	0	0	-1	1500
15827995	12	155	0	-100	0	230	101300000	1000	0	0	-1	1500
15840555	9	154	0	-100	0	230	101300000	1000	0	0	-1	1500
15853115	16	152	0	-100	0	230	101300000	1000	0	0	-1	1500
15865675	19	151	0	-100	0	230	101300000	1000	0	0	-1	1500
15878235	14	151	0	-100	0	230	101300000	1000	0	0	-1	1500
15890795	12	155	0	-100	0	230	101300000	1000	0	0	-1	1500
15903355	12	159	0	-100	0	230	101300000	1000	0	0	-1	1500
15915915	16	155	0	-100	0	230	101300000	1000	0	0	-1	1500
15928475	16	153	0	-100	0	230	101300000	1000	0	0	-1	1500
15941035	12	155	0	-100	0	230	101300000	1000	0	0	-1	1500
15953595	12	157	0	-100	0	230	101300000	1000	0	0	-1	1500
15966155	21	151	0	-100	0	230	101300000	1000	0	0	-1	1500
15978715	14	151	0	-100	0	230	101300000	1000	0	0	-1	1500
15991275	9	156	0	-100	0	230	101300000	1000	0	0	-1	1500
16003835	19	154	0	-100	0	230	101300000	1000	0	0	-1	1500
16016395	12	156	0	-100	0	230	101300000	1000	0	0	-1	1500
16028955	12	155	0	-100	0	230	101300000	1000	0	0	-1	1500
16041515	16	153	0	-100	0	230	101300000	1000	0	0	-1	1500
16054075	16	152	0	-100	0	230	101300000	1000	0	0	-1	1500
16066635	12	154	0	-100	0	230	101300000	1000	0	0	-1	1500
16079195	12	155	0	-100	0	230	101300000	1000	0	0	-1	1500
16091755	19	151	0	-100	0	230	101300000	1000	0	0	-1	1500
16104315	12	152	0	-100	0	230	101300000	1000	0	0	-1	1500
16116875	9	155	0	-100	0	230	101300000	1000	0	0	-1	1500
16129435	14	153	0	-100	0	230	101300000	1000	0	0	-1	1500
16141995	19	155	0	-100	0	230	101300000	1000	0	0	-1	1500
16154555	9	156	0	-100	0	230	101300000	1000	0	0	-1	1500
16167115	12	156	0	-100	0	230	101300000	1000	0	0	-1	1500
16179675	16	150	0	-100	0	230	101300000	1000	0	0	-1	1500
16192235	12	153	0	-100	0	230	101300000	1000	0	0	-1	1500
16204795	12	157	0	-100	0	230	101300000	1000	0	0	-1	1500
16217355	19	153	0	-100	0	230	101300000	1000	0	0	-1	1500
16229915	16	152	0	-100	0	230	101300000	1000	0	0	-1	1500
16242475	12	156	0	-100	0	230	101300000	1000	0	0	-1	1500
16255035	14	152	0	-100	0	230	101300000	1000	0	0	-1	1500
16267595	19	152	0	-100	0	230	101300000	1000	0	0	-1	1500
16280155	12	152	0	-100	0	230	101300000	1000	0	0	-1	1500
16292715	12	153	0	-100	0	230	101300000	1000	0	0	-1	1500
16305275	12	155	0	-100	0	230	101300000	1000	0	0	-1	1500
16317835	12	152	0	-100	0	230	101300000	1000	0	0	-1	1500
16330395	16	151	0	-100	0	230	101300000	1000	0	0	-1	1500
16342955	9	157	0	-100	0	230	101300000	1000	0	0	-1	1500
16355515	12	158	0	-100	0	230	101300000	1000	0	0	-1	1500
16368075	14	152	0	-100	0	230	101300000	1000	0	0	-1	1500
16380635	19	153	0	-100	0	230	101300000	1000	0	0	-1	1500
16393195	12	155	0	-100	0	230	101300000	1000	0	0	-1	1500
16405755	12	157	0	-100	0	230	101300000	1000	0	0	-1	1500
16418315	12	155	0	-100	0	230	101300000	1000	0	0	-1	1500
16430875	16	154	0	-100	0	230	101300000	1000	0	0	-1	1500
16443435	16	155	0	-100	0	230	101300000	1000	0	0	-1	1500
16455995	12	156	0	-100	0	230	101300000	1000	0	0	-1	1500
16468555	14	154	0	-100	0	230	101300000	1000	0	0	-1	1500
16481115	9	154	0	-100	0	230	101300000	1000	0	0	-1	1500
16493675	12	155	0	-100	0	230	101300000	1000	0	0	-1	1500
16506235	19	154	0	-100	0	230	101300000	1000	0	0	-1	1500
16518795	19	151	0	-100	0	230	101300000	1000	0	0	-1	1500
16531355	14	152	0	-100	0	230	101300000	1000	0	0	-1	1500
16543915	9	154	0	-100	0	230	101300000	1000	0	0	-1	1500
16556475	19	151	0	-100	0	230	101300000	1000	0	0	-1	1500
16569035	14	155	0	-100	0	230	101300000	1000	0	0	-1	1500
16581595	9	153	0	-100	0	230	101300000	1000	0	0	-1	1500
16594155	12	153	0	-100	0	230	101300000	1000	0	0	-1	1500
16606715	16	155	0	-100	0	230	101300000	1000	0	0	-1	1500
16619275	14	157	0	-100	0	230	101300000	1000	0	0	-1	1500
16631835	12	156	0	-100	0	230	101300000	1000	0	0	-1	1500
16644395	19	150	0	-100	0	230	101300000	1000	0	0	-1	1500
16656955	14	155	0	-100	0	230	101300000	1000	0	0	-1	1500
16669515	19	151	0	-100	0	230	101300000	1000	0	0	-1	1500
16682075	12	156	0	-100	0	230	101300000	1000	0	0	-1	1500
16694635	16	152	0	-100	0	230	101300000	1000	0	0	-1	1500
16707195	12	155	0	-100	0	230	101300000	1000	0	0	-1	1500
16719755	19	152	0	-100	0	230	101300000	1000	0	0	-1	1500
16732315	12	156	0	-100	0	230	101300000	1000	0	0	-1	1500
16744875	12	156	0	-100	0	230	101300000	1000	0	0	-1	1500
16757435	16	156	0	-100	0	230	101300000	1000	0	0	-1	1500
16769995	12	154	0	-100	0	230	101300000	1000	0	0	-1	1500
16782555	16	152	0	-100	0	230	101300000	1000	0	0	-1	1500
16795115	9	152	0	-100	0	230	101300000	1000	0	0	-1	1500
16807675	16	154	0	-100	0	230	101300000	1000	0	0	-1	1500
16820235	12	153	0	-100	0	230	101300000	1000	0	0	-1	1500
16832795	9	154	0	-100	0	230	101300000	1000	0	0	-1	1500
16845355	19	156	0	-100	0	230	101300000	1000	0	0	-1	1500
16857915	14	156	0	-100	0	230	101300000	1000	0	0	-1	1500
16870475	19	154	0	-100	0	230	101300000	1000	0	0	-1	1500
16883035	16	149	0	-100	0	230	101300000	1000	0	0	-1	1500
16895595	12	157	0	-100	0	230	101300000	1000	0	0	-1	1500
16908155	19	154	0	-100	0	230	101300000	1000	0	0	-1	1500
16920715	14	151	0	-100	0	230	101300000	1000	0	0	-1	1500
16933275	14	158	0	-100	0	230	101300000	1000	0	0	-1	1500
16945835	16	154	0	-100	0	230	101300000	1000	0	0	-1	1500
16958395	12	154	0	-100	0	230	101300000	1000	0	0	-1	1500
16970955	12	156	0	-100	0	230	101300000	1000	0	0	-1	1500
16983515	19	156	0	-100	0	230	101300000	1000	0	0	-1	1500
16996075	12	151	0	-100	0	230	101300000	1000	0	0	-1	1500
17008635	12	154	0	-100	0	230	101300000	1000	0	0	-1	1500
17021195	19	153	0	-100	0	230	101300000	1000	0	0	-1	1500
17033755	14	156	0	-100	0	230	101300000	1000	0	0	-1	1500
17046315	12	155	0	-100	0	230	101300000	1000	0	0	-1	1500
17058875	19	154	0	-100	0	230	101300000	1000	0	0	-1	1500
17071435	14	151	0	-100	0	230	101300000	1000	0	0	-1	1500
17083995	16	151	0	-100	0	230	101300000	1000	0	0	-1	1500
17096555	9	152	0	-100	0	230	101300000	1000	0	0	-1	1500
17109115	12	154	0	-100	0	230	101300000	1000	0	0	-1	1500
17121675	19	155	0	-100	0	230	101300000	1000	0	0	-1	1500
17134235	14	152	0	-100	0	230	101300000	1000	0	0	-1	1500
17146795	9	155	0	-100	0	230	101300000	1000	0	0	-1	1500
17159355	16	151	0	-100	0	230	101300000	1000	0	0	-1	1500
17171915	12	156	0	-100	0	230	101300000	1000	0	0	-1	1500
17184475	21	155	0	-100	0	230	101300000	1000	0	0	-1	1500
17197035	12	151	0	-100	0	230	101300000	1000	0	0	-1	1500
17209595	12	153	0	-100	0	230	101300000	1000	0	0	-1	1500
17222155	16	150	0	-100	0	230	101300000	1000	0	0	-1	1500
17234715	12	150	0	-100	0	230	101300000	1000	0	0	-1	1500
17247275	14	156	0	-100	0	230	101300000	1000	0	0	-1	1500
17259835	9	154	0	-100	0	230	101300000	1000	0	0	-1	1500
17272395	16	152	0	-100	0	230	101300000	1000	0	0	-1	1500
17284955	14	150	0	-100	0	230	101300000	1000	0	0	-1	1500
17297515	12	156	0	-100	0	230	101300000	1000	0	0	-1	1500
17310075	9	155	0	-100	0	230	101300000	1000	0	0	-1	1500
17322635	19	152	0	-100	0	230	101300000	1000	0	0	-1	1500
17335195	19	153	0	-100	0	230	101300000	1000	0	0	-1	1500
17347755	16	151	0	-100	0	230	101300000	1000	0	0	-1	1500
17360315	12	153	0	-100	0	230	101300000	1000	0	0	-1	1500
17372875	12	156	0	-100	0	230	101300000	1000	0	0	-1	1500
17385435	9	152	0	-100	0	230	101300000	1000	0	0	-1	1500
17397995	14	154	0	-100	0	230	101300000	1000	0	0	-1	1500
17410555	19	152	0	-100	0	230	101300000	1000	0	0	-1	1500
17423115	16	149	0	-100	0	230	101300000	1000	0	0	-1	1500
17435675	16	154	0	-100	0	230	101300000	1000	0	0	-1	1500
17448235	14	152	0	-100	0	230	101300000	1000	0	0	-1	1500
17460795	12	155	0	-100	0	230	101300000	1000	0	0	-1	1500
17473355	9	155	0	-100	0	230	101300000	1000	0	0	-1	1500
17485915	16	155	0	-100	0	230	101300000	1000	0	0	-1	1500
17498475	19	152	0	-100	0	230	101300000	1000	0	0	-1	1500
17511035	16	150	0	-100	0	230	101300000	1000	0	0	-1	1500
17523595	14	153	0	-100	0	230	101300000	1000	0	0	-1	1500
17536155	14	155	0	-100	0	230	101300000	1000	0	0	-1	1500
17548715	12	159	0	-100	0	230	101300000	1000	0	0	-1	1500
17561275	14	156	0	-100	0	230	101300000	1000	0	0	-1	1500
17573835	19	152	0	-100	0	230	101300000	1000	0	0	-1	1500
17586395	19	154	0	-100	0	230	101300000	1000	0	0	-1	1500
17598955	16	151	0	-100	0	230	101300000	1000	0	0	-1	1500
17611515	14	154	0	-100	0	230	101300000	1000	0	0	-1	1500
17624075	12	154	0	-100	0	230	101300000	1000	0	0	-1	1500
17636635	14	156	0	-100	0	230	101300000	1000	0	0	-1	1500
17649195	12	155	0	-100	0	230	101300000	1000	0	0	-1	1500
17661755	9	154	0	-100	0	230	101300000	1000	0	0	-1	1500
17674315	9	152	0	-100	0	230	101300000	1000	0	0	-1	1500
17686875	12	154	0	-100	0	230	101300000	1000	0	0	-1	1500
17699435	19	151	0	-100	0	230	101300000	1000	0	0	-1	1500
17711995	19	155	0	-100	0	230	101300000	1000	0	0	-1	1500
17724555	16	150	0	-100	0	230	101300000	1000	0	0	-1	1500
17737115	12	150	0	-100	0	230	101300000	1000	0	0	-1	1500
17749675	12	153	0	-100	0	230	101300000	1000	0	0	-1	1500
17762235	12	157	0	-100	0	230	101300000	1000	0	0	-1	1500
17774795	12	159	0	-100	0	230	101300000	1000	0	0	-1	1500
17787355	12	154	0	-100	0	230	101300000	1000	0	0	-1	1500
17799915	19	152	0	-100	0	230	101300000	1000	0	0	-1	1500
17812475	16	154	0	-100	0	230	101300000	1000	0	0	-1	1500
17825035	14	149	0	-100	0	230	101300000	1000	0	0	-1	1500
17837595	12	156	0	-100	0	230	101300000	1000	0	0	-1	1500
17850155	12	154	0	-100	0	230	101300000	1000	0	0	-1	1500
17862715	21	151	0	-100	0	230	101300000	1000	0	0	-1	1500
17875275	14	151	0	-100	0	230	101300000	1000	0	0	-1	1500
17887835	12	153	0	-100	0	230	101300000	1000	0	0	-1	1500
17900395	9	154	0	-100	0	230	101300000	1000	0	0	-1	1500
17912955	9	156	0	-100	0	230	101300000	1000	0	0	-1	1500
17925515	14	152	0	-100	0	230	101300000	1000	0	0	-1	1500
17938075	16	155	0	-100	0	230	101300000	1000	0	0	-1	1500
17950635	16	151	0	-100	0	230	101300000	1000	0	0	-1	1500
17963195	19	152	0	-100	0	230	101300000	1000	0	0	-1	1500
17975755	14	153	0	-100	0	230	101300000	1000	0	0	-1	1500
17988315	12	156	0	-100	0	230	101300000	1000	0	0	-1	1500
18000875	12	152	0	-100	0	230	101300000	1000	0	0	-1	1500
18013435	19	154	0	-100	0	230	101300000	1000	0	0	-1	1500
18025995	14	154	0	-100	0	230	101300000	1000	0	0	-1	1500
18038555	14	157	0	-100	0	230	101300000	1000	0	0	-1	1500
18051115	16	152	0	-100	0	230	101300000	1000	0	0	-1	1500
18063675	14	153	0	-100	0	230	101300000	1000	0	0	-1	1500
18076235	12	155	0	-100	0	230	101300000	1000	0	0	-1	1500
18088795	14	154	0	-100	0	230	101300000	1000	0	0	-1	1500
18101355	19	151	0	-100	0	230	101300000	1000	0	0	-1	1500
18113915	14	151	0	-100	0	230	101300000	1000	0	0	-1	1500
18126475	9	156	0	-100	0	230	101300000	1000	0	0	-1	1500
18139035	9	154	0	-100	0	230	101300000	1000	0	0	-1	1500
18151595	12	155	0	-100	0	230	101300000	1000	0	0	-1	1500
18164155	19	155	0	-100	0	230	101300000	1000	0	0	-1	1500
18176715	19	151	0	-100	0	230	101300000	1000	0	0	-1	1500
18189275	16	151	0	-100	0	230	101300000	1000	0	0	-1	1500
18201835	12	151	0	-100	0	230	101300000	1000	0	0	-1	1500
18214395	12	155	0	-100	0	230	101300000	1000	0	0	-1	1500
18226955	14	158	0	-100	0	230	101300000	1000	0	0	-1	1500
18239515	12	155	0	-100	0	230	101300000	1000	0	0	-1	1500
18252075	9	152	0	-100	0	230	101300000	1000	0	0	-1	1500
18264635	16	150	0	-100	0	230	101300000	1000	0	0	-1	1500
18277195	14	151	0	-100	0	230	101300000	1000	0	0	-1	1500
18289755	9	157	0	-100	0	230	101300000	1000	0	0	-1	1500
18302315	12	156	0	-100	0	230	101300000	1000	0	0	-1	1500
18314875	12	156	0	-100	0	230	101300000	1000	0	0	-1	1500
18327435	12	151	0	-100	0	230	101300000	1000	0	0	-1	1500
18339995	12	156	0	-100	0	230	101300000	1000	0	0	-1	1500
18352555	12	156	0	-100	0	230	101300000	1000	0	0	-1	1500
18365115	12	151	0	-100	0	230	101300000	1000	0	0	-1	1500
18377675	19	151	0	-100	0	230	101300000	1000	0	0	-1	1500
18390235	14	152	0	-100	0	230	101300000	1000	0	0	-1	1500
18402795	14	154	0	-100	0	230	101300000	1000	0	0	-1	1500
18415355	12	157	0	-100	0	230	101300000	1000	0	0	-1	1500
18427915	12	152	0	-100	0	230	101300000	1000	0	0	-1	1500
18440475	14	155	0	-100	0	230	101300000	1000	0	0	-1	1500
18453035	19	150	0	-100	0	230	101300000	1000	0	0	-1	1500
18465595	14	151	0	-100	0	230	101300000	1000	0	0	-1	1500
18478155	14	155	0	-100	0	230	101300000	1000	0	0	-1	1500
18490715	16	154	0	-100	0	230	101300000	1000	0	0	-1	1500
18503275	16	150	0	-100	0	230	101300000	1000	0	0	-1	1500
18515835	12	157	0	-100	0	230	101300000	1000	0	0	-1	1500
18528395	9	151	0	-100	0	230	101300000	1000	0	0	-1	1500
18540955	16	151	0	-100	0	230	101300000	1000	0	0	-1	1500
18553515	14	156	0	-100	0	230	101300000	1000	0	0	-1	1500
18566075	14	155	0	-100	0	230	101300000	1000	0	0	-1	1500
18578635	16	153	0	-100	0	230	101300000	1000	0	0	-1	1500
18591195	16	156	0	-100	0	230	101300000	1000	0	0	-1	1500
18603755	16	152	0	-100	0	230	101300000	1000	0	0	-1	1500
18616315	14	152	0	-100	0	230	101300000	1000	0	0	-1	1500
18628875	12	157	0	-100	0	230	101300000	1000	0	0	-1	1500
18641435	19	153	0	-100	0	230	101300000	1000	0	0	-1	1500
18653995	16	151	0	-100	0	230	101300000	1000	0	0	-1	1500
18666555	12	153	0	-100	0	230	101300000	1000	0	0	-1	1500
18679115	12	157	0	-100	0	230	101300000	1000	0	0	-1	1500
18691675	12	155	0	-100	0	230	101300000	1000	0	0	-1	1500
18704235	16	153	0	-100	0	230	101300000	1000	0	0	-1	1500
18716795	19	151	0	-100	0	230	101300000	1000	0	0	-1	1500
18729355	16	151	0	-100	0	230	101300000	1000	0	0	-1	1500
18741915	12	153	0	-100	0	230	101300000	1000	0	0	-1	1500
18754475	14	155	0	-100	0	230	101300000	1000	0	0	-1	1500
18767035	12	157	0	-100	0	230	101300000	1000	0	0	-1	1500
18779595	14	156	0	-100	0	230	101300000	1000	0	0	-1	1500
18792155	19	151	0	-100	0	230	101300000	1000	0	0	-1	1500
18804715	19	155	0	-100	0	230	101300000	1000	0	0	-1	1500
18817275	16	151	0	-100	0	230	101300000	1000	0	0	-1	1500
18829835	14	154	0	-100	0	230	101300000	1000	0	0	-1	1500
18842395	14	153	0	-100	0	230	101300000	1000	0	0	-1	1500
18854955	14	152	0	-100	0	230	101300000	1000	0	0	-1	1500
18867515	14	153	0	-100	0	230	101300000	1000	0	0	-1	1500
18880075	14	154	0	-100	0	230	101300000	1000	0	0	-1	1500
18892635	12	151	0	-100	0	230	101300000	1000	0	0	-1	1500
18905195	14	151	0	-100	0	230	101300000	1000	0	0	-1	1500
18917755	12	152	0	-100	0	230	101300000	1000	0	0	-1	1500
18930315	9	157	0	-100	0	230	101300000	1000	0	0	-1	1500
18942875	14	153	0	-100	0	230	101300000	1000	0	0	-1	1500
18955435	9	155	0	-100	0	230	101300000	1000	0	0	-1	1500
18967995	12	156	0	-100	0	230	101300000	1000	0	0	-1	1500
18980555	12	155	0	-100	0	230	101300000	1000	0	0	-1	1500
18993115	12	153	0	-100	0	230	101300000	1000	0	0	-1	1500
19005675	14	154	0	-100	0	230	101300000	1000	0	0	-1	1500
19018235	12	156	0	-100	0	230	101300000	1000	0	0	-1	1500
19030795	9	152	0	-100	0	230	101300000	1000	0	0	-1	1500
19043355	12	155	0	-100	0	230	101300000	1000	0	0	-1	1500
19055915	14	154	0	-100	0	230	101300000	1000	0	0	-1	1500
19068475	9	156	0	-100	0	230	101300000	1000	0	0	-1	1500
19081035	14	151	0	-100	0	230	101300000	1000	0	0	-1	1500
19093595	12	151	0	-100	0	230	101300000	1000	0	0	-1	1500
19106155	14	156	0	-100	0	230	101300000	1000	0	0	-1	1500
19118715	16	154	0	-100	0	230	101300000	1000	0	0	-1	1500
19131275	16	154	0	-100	0	230	101300000	1000	0	0	-1	1500
19143835	16	154	0	-100	0	230	101300000	1000	0	0	-1	1500
19156395	19	154	0	-100	0	230	101300000	1000	0	0	-1	1500
19168955	14	154	0	-100	0	230	101300000	1000	0	0	-1	1500
19181515	9	155	0	-100	0	230	101300000	1000	0	0	-1	1500
19194075	14	157	0	-100	0	230	101300000	1000	0	0	-1	1500
19206635	16	152	0	-100	0	230	101300000	1000	0	0	-1	1500
19219195	16	151	0	-100	0	230	101300000	1000	0	0	-1	1500
19231755	19	152	0	-100	0	230	101300000	1000	0	0	-1	1500
19244315	14	154	0	-100	0	230	101300000	1000	0	0	-1	1500
19256875	12	154	0	-100	0	230	101300000	1000	0	0	-1	1500
19269435	12	153	0	-100	0	230	101300000	1000	0	0	-1	1500
19281995	12	151	0	-100	0	230	101300000	1000	0	0	-1	1500
19294555	12	155	0	-100	0	230	101300000	1000	0	0	-1	1500
19307115	12	151	0	-100	0	230	101300000	1000	0	0	-1	1500
19319675	12	154	0	-100	0	230	101300000	1000	0	0	-1	1500
19332235	16	154	0	-100	0	230	101300000	1000	0	0	-1	1500
19344795	19	152	0	-100	0	230	101300000	1000	0	0	-1	1500
19357355	7	156	0	-100	0	230	101300000	1000	0	0	-1	1500
19369915	14	156	0	-100	0	230	101300000	1000	0	0	-1	1500
19382475	12	153	0	-100	0	230	101300000	1000	0	0	-1	1500
19395035	19	151	0	-100	0	230	101300000	1000	0	0	-1	1500
19407595	19	150	0	-100	0	230	101300000	1000	0	0	-1	1500
19420155	9	156	0	-100	0	230	101300000	1000	0	0	-1	1500
19432715	14	157	0	-100	0	230	101300000	1000	0	0	-1	1500
19445275	16	152	0	-100	0	230	101300000	1000	0	0	-1	1500
19457835	16	150	0	-100	0	230	101300000	1000	0	0	-1	1500
19470395	14	153	0	-100	0	230	101300000	1000	0	0	-1	1500
19482955	9	154	0	-100	0	230	101300000	1000	0	0	-1	1500
19495515	14	152	0	-100	0	230	101300000	1000	0	0	-1	1500
19508075	12	155	0	-100	0	230	101300000	1000	0	0	-1	1500
19520635	16	151	0	-100	0	230	101300000	1000	0	0	-1	1500
19533195	16	152	0	-100	0	230	101300000	1000	0	0	-1	1500
19545755	16	150	0	-100	0	230	101300000	1000	0	0	-1	1500
19558315	19	152	0	-100	0	230	101300000	1000	0	0	-1	1500
19570875	12	153	0	-100	0	230	101300000	1000	0	0	-1	1500
19583435	12	157	0	-100	0	230	101300000	1000	0	0	-1	1500
19595995	9	156	0	-100	0	230	101300000	1000	0	0	-1	1500
19608555	12	155	0	-100	0	230	101300000	1000	0	0	-1	1500
19621115	14	152	0	-100	0	230	101300000	1000	0	0	-1	1500
19633675	19	154	0	-100	0	230	101300000	1000	0	0	-1	1500
19646235	19	152	0	-100	0	230	101300000	1000	0	0	-1	1500
19658795	12	154	0	-100	0	230	101300000	1000	0	0	-1	1500
19671355	14	156	0	-100	0	230	101300000	1000	0	0	-1	1500
19683915	14	155	0	-100	0	230	101300000	1000	0	0	-1	1500
19696475	16	151	0	-100	0	230	101300000	1000	0	0	-1	1500
19709035	19	153	0	-100	0	230	101300000	1000	0	0	-1	1500
19721595	12	152	0	-100	0	230	101300000	1000	0	0	-1	1500
19734155	9	155	0	-100	0	230	101300000	1000	0	0	-1	1500
19746715	14	152	0	-100	0	230	101300000	1000	0	0	-1	1500
19759275	19	153	0	-100	0	230	101300000	1000	0	0	-1	1500
19771835	14	154	0	-100	0	230	101300000	1000	0	0	-1	1500
19784395	12	158	0	-100	0	230	101300000	1000	0	0	-1	1500
19796955	9	155	0	-100	0	230	101300000	1000	0	0	-1	1500
19809515	14	151	0	-100	0	230	101300000	1000	0	0	-1	1500
19822075	19	152	0	-100	0	230	101300000	1000	0	0	-1	1500
19834635	14	155	0	-100	0	230	101300000	1000	0	0	-1	1500
19847195	12	156	0	-100	0	230	101300000	1000	0	0	-1	1500
19859755	12	151	0	-100	0	230	101300000	1000	0	0	-1	1500
19872315	12	151	0	-100	0	230	101300000	1000	0	0	-1	1500
19884875	16	151	0	-100	0	230	101300000	1000	0	0	-1	1500
19897435	14	153	0	-100	0	230	101300000	1000	0	0	-1	1500
19909995	12	152	0	-100	0	230	101300000	1000	0	0	-1	1500
19922555	12	155	0	-100	0	230	101300000	1000	0	0	-1	1500
19935115	16	151	0	-100	0	230	101300000	1000	0	0	-1	1500
19947675	19	151	0	-100	0	230	101300000	1000	0	0	-1	1500
19960235	12	153	0	-100	0	230	101300000	1000	0	0	-1	1500
19972795	12	158	0	-100	0	230	101300000	1000	0	0	-1	1500
19985355	12	157	0	-100	0	230	101300000	1000	0	0	-1	1500
19997915	16	152	0	-100	0	230	101300000	1000	0	0	-1	1500
20010475	16	156	0	-100	0	230	101300000	1000	0	0	-1	1500
20023035	12	155	0	-100	0	230	101300000	1000	0	0	-1	1500
20035595	12	156	0	-100	0	230	101300000	1000	0	0	-1	1500
20048155	12	154	0	-100	0	230	101300000	1000	0	0	-1	1500
20060715	14	151	0	-100	0	230	101300000	1000	0	0	-1	1500
20073275	19	152	0	-100	0	230	101300000	1000	0	0	-1	1500
20085835	19	153	0	-100	0	230	101300000	1000	0	0	-1	1500
20098395	19	153	0	-100	0	230	101300000	1000	0	0	-1	1500
20110955	12	153	0	-100	0	230	101300000	1000	0	0	-1	1500
20123515	12	155	0	-100	0	230	101300000	1000	0	0	-1	1500
20136075	14	156	0	-100	0	230	101300000	1000	0	0	-1	1500
20148635	12	155	0	-100	0	230	101300000	1000	0	0	-1	1500
20161195	12	151	0	-100	0	230	101300000	1000	0	0	-1	1500
20173755	9	158	0	-100	0	230	101300000	1000	0	0	-1	1500
20186315	12	152	0	-100	0	230	101300000	1000	0	0	-1	1500
20198875	14	152	0	-100	0	230	101300000	1000	0	0	-1	1500
20211435	16	151	0	-100	0	230	101300000	1000	0	0	-1	1500
20223995	16	151	0	-100	0	230	101300000	1000	0	0	-1	1500
20236555	14	151	0	-100	0	230	101300000	1000	0	0	-1	1500
20249115	14	150	0	-100	0	230	101300000	1000	0	0	-1	1500
20261675	12	152	0	-100	0	230	101300000	1000	0	0	-1	1500
20274235	16	151	0	-100	0	230	101300000	1000	0	0	-1	1500
20286795	16	151	0	-100	0	230	101300000	1000	0	0	-1	1500
20299355	16	152	0	-100	0	230	101300000	1000	0	0	-1	1500
20311915	19	150	0	-100	0	230	101300000	1000	0	0	-1	1500
20324475	19	152	0	-100	0	230	101300000	1000	0	0	-1	1500
20337035	16	152	0	-100	0	230	101300000	1000	0	0	-1	1500
20349595	14	153	0	-100	0	230	101300000	1000	0	0	-1	1500
20362155	14	150	0	-100	0	230	101300000	1000	0	0	-1	1500
20374715	14	150	0	-100	0	230	101300000	1000	0	0	-1	1500
20387275	14	151	0	-100	0	230	101300000	1000	0	0	-1	1500
20399835	12	155	0	-100	0	230	101300000	1000	0	0	-1	1500
20412395	12	154	0	-100	0	230	101300000	1000	0	0	-1	1500
20424955	12	151	0	-100	0	230	101300000	1000	0	0	-1	1500
20437515	12	152	0	-100	0	230	101300000	1000	0	0	-1	1500
20450075	12	155	0	-100	0	230	101300000	1000	0	0	-1	1500
20462635	9	155	0	-100	0	230	101300000	1000	0	0	-1	1500
20475195	14	152	0	-100	0	230	101300000	1000	0	0	-1	1500
20487755	19	155	0	-100	0	230	101300000	1000	0	0	-1	1500
20500315	16	152	0	-100	0	230	101300000	1000	0	0	-1	1500
20512875	21	151	0	-100	0	230	101300000	1000	0	0	-1	1500
20525435	19	151	0	-100	0	230	101300000	1000	0	0	-1	1500
20537995	14	156	0	-100	0	230	101300000	1000	0	0	-1	1500
20550555	12	155	0	-100	0	230	101300000	1000	0	0	-1	1500
20563115	9	153	0	-100	0	230	101300000	1000	0	0	-1	1500
20575675	14	152	0	-100	0	230	101300000	1000	0	0	-1	1500
20588235	12	155	0	-100	0	230	101300000	1000	0	0	-1	1500
20600795	14	151	0	-100	0	230	101300000	1000	0	0	-1	1500
20613355	14	153	0	-100	0	230	101300000	1000	0	0	-1	1500
20625915	19	155	0	-100	0	230	101300000	1000	0	0	-1	1500
20638475	19	151	0	-100	0	230	101300000	1000	0	0	-1	1500
20651035	21	154	0	-100	0	230	101300000	1000	0	0	-1	1500
20663595	19	155	0	-100	0	230	101300000	1000	0	0	-1	1500
20676155	12	152	0	-100	0	230	101300000	1000	0	0	-1	1500
20688715	14	154	0	-100	0	230	101300000	1000	0	0	-1	1500
20701275	9	156	0	-100	0	230	101300000	1000	0	0	-1	1500
20713835	9	152	0	-100	0	230	101300000	1000	0	0	-1	1500
20726395	12	156	0	-100	0	230	101300000	1000	0	0	-1	1500
20738955	14	156	0	-100	0	230	101300000	1000	0	0	-1	1500
20751515	12	155	0	-100	0	230	101300000	1000	0	0	-1	1500
20764075	12	151	0	-100	0	230	101300000	1000	0	0	-1	1500
20776635	16	154	0	-100	0	230	101300000	1000	0	0	-1	1500
20789195	16	153	0	-100	0	230	101300000	1000	0	0	-1	1500
20801755	19	151	0	-100	0	230	101300000	1000	0	0	-1	1500
20814315	19	154	0	-100	0	230	101300000	1000	0	0	-1	1500
20826875	19	151	0	-100	0	230	101300000	1000	0	0	-1	1500
20839435	16	152	0	-100	0	230	101300000	1000	0	0	-1	1500
20851995	14	151	0	-100	0	230	101300000	1000	0	0	-1	1500
20864555	9	155	0	-100	0	230	101300000	1000	0	0	-1	1500
20877115	12	158	0	-100	0	230	101300000	1000	0	0	-1	1500
20889675	9	153	0	-100	0	230	101300000	1000	0	0	-1	1500
20902235	12	155	0	-100	0	230	101300000	1000	0	0	-1	1500
20914795	12	155	0	-100	0	230	101300000	1000	0	0	-1	1500
20927355	14	155	0	-100	0	230	101300000	1000	0	0	-1	1500
20939915	9	156	0	-100	0	230	101300000	1000	0	0	-1	1500
20952475	9	154	0	-100	0	230	101300000	1000	0	0	-1	1500
20965035	9	154	0	-100	0	230	101300000	1000	0	0	-1	1500
20977595	14	155	0	-100	0	230	101300000	1000	0	0	-1	1500
20990155	9	157	0	-100	0	230	101300000	1000	0	0	-1	1500
21002715	14	156	0	-100	0	230	101300000	1000	0	0	-1	1500
21015275	14	155	0	-100	0	230	101300000	1000	0	0	-1	1500
21027835	12	155	0	-100	0	230	101300000	1000	0	0	-1	1500
21040395	12	157	0	-100	0	230	101300000	1000	0	0	-1	1500
21052955	12	155	0	-100	0	230	101300000	1000	0	0	-1	1500
21065515	14	153	0	-100	0	230	101300000	1000	0	0	-1	1500
21078075	14	157	0	-100	0	230	101300000	1000	0	0	-1	1500
21090635	12	157	0	-100	0	230	101300000	1000	0	0	-1	1500
21103195	12	156	0	-100	0	230	101300000	1000	0	0	-1	1500
21115755	12	156	0	-100	0	230	101300000	1000	0	0	-1	1500
21128315	9	155	0	-100	0	230	101300000	1000	0	0	-1	1500
21140875	12	156	0	-100	0	230	101300000	1000	0	0	-1	1500
21153435	9	150	0	-100	0	230	101300000	1000	0	0	-1	1500
21165995	9	158	0	-100	0	230	101300000	1000	0	0	-1	1500
21178555	14	155	0	-100	0	230	101300000	1000	0	0	-1	1500
21191115	9	148	0	-100	0	230	101300000	1000	0	0	-1	1500
21203675	19	152	0	-100	0	230	101300000	1000	0	0	-1	1500
21216235	16	151	0	-100	0	230	101300000	1000	0	0	-1	1500
21228795	12	152	0	-100	0	230	101300000	1000	0	0	-1	1500
21241355	14	156	0	-100	0	230	101300000	1000	0	0	-1	1500
21253915	12	152	0	-100	0	230	101300000	1000	0	0	-1	1500
21266475	21	150	0	-100	0	230	101300000	1000	0	0	-1	1500
21279035	14	152	0	-100	0	230	101300000	1000	0	0	-1	1500
21291595	12	155	0	-100	0	230	101300000	1000	0	0	-1	1500
21304155	12	157	0	-100	0	230	101300000	1000	0	0	-1	1500
21316715	12	155	0	-100	0	230	101300000	1000	0	0	-1	1500
21329275	19	151	0	-100	0	230	101300000	1000	0	0	-1	1500
21341835	9	155	0	-100	0	230	101300000	1000	0	0	-1	1500
21354395	12	157	0	-100	0	230	101300000	1000	0	0	-1	1500
21366955	14	153	0	-100	0	230	101300000	1000	0	0	-1	1500
21379515	16	151	0	-100	0	230	101300000	1000	0	0	-1	1500
21392075	16	151	0	-100	0	230	101300000	1000	0	0	-1	1500
21404635	14	152	0	-100	0	230	101300000	1000	0	0	-1	1500
21417195	9	156	0	-100	0	230	101300000	1000	0	0	-1	1500
21429755	12	155	0	-100	0	230	101300000	1000	0	0	-1	1500
21442315	12	157	0	-100	0	230	101300000	1000	0	0	-1	1500
21454875	9	153	0	-100	0	230	101300000	1000	0	0	-1	1500
21467435	12	155	0	-100	0	230	101300000	1000	0	0	-1	1500
21479995	9	155	0	-100	0	230	101300000	1000	0	0	-1	1500
21492555	12	154	0	-100	0	230	101300000	1000	0	0	-1	1500
21505115	12	152	0	-100	0	230	101300000	1000	0	0	-1	1500
21517675	19	152	0	-100	0	230	101300000	1000	0	0	-1	1500
21530235	16	151	0	-100	0	230	101300000	1000	0	0	-1	1500
21542795	14	151	0	-100	0	230	101300000	1000	0	0	-1	1500
21555355	16	152	0	-100	0	230	101300000	1000	0	0	-1	1500
21567915	12	153	0	-100	0	230	101300000	1000	0	0	-1	1500
21580475	14	150	0	-100	0	230	101300000	1000	0	0	-1	1500
21593035	14	151	0	-100	0	230	101300000	1000	0	0	-1	1500
21605595	14	152	0	-100	0	230	101300000	1000	0	0	-1	1500
21618155	14	152	0	-100	0	230	101300000	1000	0	0	-1	1500
21630715	9	155	0	-100	0	230	101300000	1000	0	0	-1	1500
21643275	14	155	0	-100	0	230	101300000	1000	0	0	-1	1500
21655835	12	156	0	-100	0	230	101300000	1000	0	0	-1	1500
21668395	14	151	0	-100	0	230	101300000	1000	0	0	-1	1500
21680955	19	151	0	-100	0	230	101300000	1000	0	0	-1	1500
21693515	14	151	0	-100	0	230	101300000	1000	0	0	-1	1500
21706075	14	152	0	-100	0	230	101300000	1000	0	0	-1	1500
21718635	9	155	0	-100	0	230	101300000	1000	0	0	-1	1500
21731195	9	158	0	-100	0	230	101300000	1000	0	0	-1	1500
21743755	12	154	0	-100	0	230	101300000	1000	0	0	-1	1500
21756315	12	152	0	-100	0	230	101300000	1000	0	0	-1	1500
21768875	12	156	0	-100	0	230	101300000	1000	0	0	-1	1500
21781435	9	153	0	-100	0	230	101300000	1000	0	0	-1	1500
21793995	12	155	0	-100	0	230	101300000	1000	0	0	-1	1500
21806555	14	154	0	-100	0	230	101300000	1000	0	0	-1	1500
21819115	14	152	0	-100	0	230	101300000	1000	0	0	-1	1500
21831675	19	152	0	-100	0	230	101300000	1000	0	0	-1	1500
21844235	16	154	0	-100	0	230	101300000	1000	0	0	-1	1500
21856795	16	154	0	-100	0	230	101300000	1000	0	0	-1	1500
21869355	14	154	0	-100	0	230	101300000	1000	0	0	-1	1500
21881915	12	152	0	-100	0	230	101300000	1000	0	0	-1	1500
21894475	9	150	0	-100	0	230	101300000	1000	0	0	-1	1500
21907035	14	152	0	-100	0	230	101300000	1000	0	0	-1	1500
21919595	16	153	0	-100	0	230	101300000	1000	0	0	-1	1500
21932155	19	155	0	-100	0	230	101300000	1000	0	0	-1	1500
21944715	19	150	0	-100	0	230	101300000	1000	0	0	-1	1500
21957275	19	151	0	-100	0	230	101300000	1000	0	0	-1	1500
21969835	16	152	0	-100	0	230	101300000	1000	0	0	-1	1500
21982395	19	151	0	-100	0	230	101300000	1000	0	0	-1	1500
21994955	16	152	0	-100	0	230	101300000	1000	0	0	-1	1500
22007515	16	152	0	-100	0	230	101300000	1000	0	0	-1	1500
22020075	9	154	0	-100	0	230	101300000	1000	0	0	-1	1500
22032635	12	155	0	-100	0	230	101300000	1000	0	0	-1	1500
22045195	12	154	0	-100	0	230	101300000	1000	0	0	-1	1500
22057755	14	152	0	-100	0	230	101300000	1000	0	0	-1	1500
22070315	12	153	0	-100	0	230	101300000	1000	0	0	-1	1500
22082875	16	154	0	-100	0	230	101300000	1000	0	0	-1	1500
22095435	12	152	0	-100	0	230	101300000	1000	0	0	-1	1500
22107995	19	152	0	-100	0	230	101300000	1000	0	0	-1	1500
22120555	12	154	0	-100	0	230	101300000	1000	0	0	-1	1500
22133115	7	154	0	-100	0	230	101300000	1000	0	0	-1	1500
22145675	12	156	0	-100	0	230	101300000	1000	0	0	-1	1500
22158235	14	152	0	-100	0	230	101300000	1000	0	0	-1	1500
22170795	19	152	0	-100	0	230	101300000	1000	0	0	-1	1500
22183355	14	154	0	-100	0	230	101300000	1000	0	0	-1	1500
22195915	12	156	0	-100	0	230	101300000	1000	0	0	-1	1500
22208475	12	155	0	-100	0	230	101300000	1000	0	0	-1	1500
22221035	12	152	0	-100	0	230	101300000	1000	0	0	-1	1500
22233595	19	152	0	-100	0	230	101300000	1000	0	0	-1	1500
22246155	14	152	0	-100	0	230	101300000	1000	0	0	-1	1500
22258715	9	155	0	-100	0	230	101300000	1000	0	0	-1	1500
22271275	12	158	0	-100	0	230	101300000	1000	0	0	-1	1500
22283835	14	152	0	-100	0	230	101300000	1000	0	0	-1	1500
22296395	14	151	0	-100	0	230	101300000	1000	0	0	-1	1500
22308955	14	151	0	-100	0	230	101300000	1000	0	0	-1	1500
22321515	19	151	0	-100	0	230	101300000	1000	0	0	-1	1500
22334075	12	156	0	-100	0	230	101300000	1000	0	0	-1	1500
22346635	12	154	0	-100	0	230	101300000	1000	0	0	-1	1500
22359195	12	157	0	-100	0	230	101300000	1000	0	0	-1	1500
22371755	19	152	0	-100	0	230	101300000	1000	0	0	-1	1500
22384315	12	152	0	-100	0	230	101300000	1000	0	0	-1	1500
22396875	12	155	0	-100	0	230	101300000	1000	0	0	-1	1500
22409435	19	155	0	-100	0	230	101300000	1000	0	0	-1	1500
22421995	19	153	0	-100	0	230	101300000	1000	0	0	-1	1500
22434555	12	156	0	-100	0	230	101300000	1000	0	0	-1	1500
22447115	12	151	0	-100	0	230	101300000	1000	0	0	-1	1500
22459675	21	151	0	-100	0	230	101300000	1000	0	0	-1	1500
22472235	12	158	0	-100	0	230	101300000	1000	0	0	-1	1500
22484795	12	156	0	-100	0	230	101300000	1000	0	0	-1	1500
22497355	19	149	0	-100	0	230	101300000	1000	0	0	-1	1500
22509915	14	155	0	-100	0	230	101300000	1000	0	0	-1	1500
22522475	14	156	0	-100	0	230	101300000	1000	0	0	-1	1500
22535035	16	153	0	-100	0	230	101300000	1000	0	0	-1	1500
22547595	19	151	0	-100	0	230	101300000	1000	0	0	-1	1500
22560155	9	156	0	-100	0	230	101300000	1000	0	0	-1	1500
22572715	14	155	0	-100	0	230	101300000	1000	0	0	-1	1500
22585275	12	155	0	-100	0	230	101300000	1000	0	0	-1	1500
22597835	16	154	0	-100	0	230	101300000	1000	0	0	-1	1500
22610395	16	155	0	-100	0	230	101300000	1000	0	0	-1	1500
22622955	9	154	0	-100	0	230	101300000	1000	0	0	-1	1500
22635515	12	153	0	-100	0	230	101300000	1000	0	0	-1	1500
22648075	19	154	0	-100	0	230	101300000	1000	0	0	-1	1500
22660635	12	155	0	-100	0	230	101300000	1000	0	0	-1	1500
22673195	16	156	0	-100	0	230	101300000	1000	0	0	-1	1500
22685755	16	151	0	-100	0	230	101300000	1000	0	0	-1	1500
22698315	19	151	0	-100	0	230	101300000	1000	0	0	-1	1500
22710875	12	157	0	-100	0	230	101300000	1000	0	0	-1	1500
22723435	12	153	0	-100	0	230	101300000	1000	0	0	-1	1500
22735995	21	155	0	-100	0	230	101300000	1000	0	0	-1	1500
22748555	12	157	0	-100	0	230	101300000	1000	0	0	-1	1500
22761115	9	155	0	-100	0	230	101300000	1000	0	0	-1	1500
22773675	14	151	0	-100	0	230	101300000	1000	0	0	-1	1500
22786235	14	154	0	-100	0	230	101300000	1000	0	0	-1	1500
22798795	12	152	0	-100	0	230	101300000	1000	0	0	-1	1500
22811355	19	153	0	-100	0	230	101300000	1000	0	0	-1	1500
22823915	9	152	0	-100	0	230	101300000	1000	0	0	-1	1500
22836475	12	157	0	-100	0	230	101300000	1000	0	0	-1	1500
22849035	19	151	0	-100	0	230	101300000	1000	0	0	-1	1500
22861595	12	154	0	-100	0	230	101300000	1000	0	0	-1	1500
22874155	14	157	0	-100	0	230	101300000	1000	0	0	-1	1500
22886715	16	150	0	-100	0	230	101300000	1000	0	0	-1	1500
22899275	16	153	0	-100	0	230	101300000	1000	0	0	-1	1500
22911835	9	153	0	-100	0	230	101300000	1000	0	0	-1	1500
22924395	12	158	0	-100	0	230	101300000	1000	0	0	-1	1500
22936955	16	155	0	-100	0	230	101300000	1000	0	0	-1	1500
22949515	16	155	0	-100	0	230	101300000	1000	0	0	-1	1500
22962075	9	155	0	-100	0	230	101300000	1000	0	0	-1	1500
22974635	12	156	0	-100	0	230	101300000	1000	0	0	-1	1500
22987195	14	152	0	-100	0	230	101300000	1000	0	0	-1	1500
22999755	16	151	0	-100	0	230	101300000	1000	0	0	-1	1500
23012315	14	153	0	-100	0	230	101300000	1000	0	0	-1	1500
23024875	12	157	0	-100	0	230	101300000	1000	0	0	-1	1500
23037435	9	158	0	-100	0	230	101300000	1000	0	0	-1	1500
23049995	19	151	0	-100	0	230	101300000	1000	0	0	-1	1500
23062555	9	155	0	-100	0	230	101300000	1000	0	0	-1	1500
23075115	9	157	0	-100	0	230	101300000	1000	0	0	-1	1500
23087675	16	151	0	-100	0	230	101300000	1000	0	0	-1	1500
23100235	21	149	0	-100	0	230	101300000	1000	0	0	-1	1500
23112795	12	152	0	-100	0	230	101300000	1000	0	0	-1	1500
23125355	9	155	0	-100	0	230	101300000	1000	0	0	-1	1500
23137915	12	153	0	-100	0	230	101300000	1000	0	0	-1	1500
23150475	19	152	0	-100	0	230	101300000	1000	0	0	-1	1500
23163035	19	151	0	-100	0	230	101300000	1000	0	0	-1	1500
23175595	9	155	0	-100	0	230	101300000	1000	0	0	-1	1500
23188155	9	154	0	-100	0	230	101300000	1000	0	0	-1	1500
23200715	9	156	0	-100	0	230	101300000	1000	0	0	-1	1500
23213275	14	151	0	-100	0	230	101300000	1000	0	0	-1	1500
23225835	16	154	0	-100	0	230	101300000	1000	0	0	-1	1500
23238395	14	155	0	-100	0	230	101300000	1000	0	0	-1	1500
23250955	12	156	0	-100	0	230	101300000	1000	0	0	-1	1500
23263515	12	152	0	-100	0	230	101300000	1000	0	0	-1	1500
23276075	16	152	0	-100	0	230	101300000	1000	0	0	-1	1500
23288635	16	152	0	-100	0	230	101300000	1000	0	0	-1	1500
23301195	21	155	0	-100	0	230	101300000	1000	0	0	-1	1500
23313755	12	155	0	-100	0	230	101300000	1000	0	0	-1	1500
23326315	9	155	0	-100	0	230	101300000	1000	0	0	-1	1500
23338875	19	151	0	-100	0	230	101300000	1000	0	0	-1	1500
23351435	9	157	0	-100	0	230	101300000	1000	0	0	-1	1500
23363995	12	151	0	-100	0	230	101300000	1000	0	0	-1	1500
23376555	19	155	0	-100	0	230	101300000	1000	0	0	-1	1500
23389115	14	153	0	-100	0	230	101300000	1000	0	0	-1	1500
23401675	12	157	0	-100	0	230	101300000	1000	0	0	-1	1500
23414235	9	156	0	-100	0	230	101300000	1000	0	0	-1	1500
23426795	16	153	0	-100	0	230	101300000	1000	0	0	-1	1500
23439355	12	154	0	-100	0	230	101300000	1000	0	0	-1	1500
23451915	9	152	0	-100	0	230	101300000	1000	0	0	-1	1500
23464475	12	156	0	-100	0	230	101300000	1000	0	0	-1	1500
23477035	19	155	0	-100	0	230	101300000	1000	0	0	-1	1500
23489595	19	152	0	-100	0	230	101300000	1000	0	0	-1	1500
23502155	12	154	0	-100	0	230	101300000	1000	0	0	-1	1500
23514715	12	156	0	-100	0	230	101300000	1000	0	0	-1	1500
23527275	14	151	0	-100	0	230	101300000	1000	0	0	-1	1500
23539835	12	153	0	-100	0	230	101300000	1000	0	0	-1	1500
23552395	16	152	0	-100	0	230	101300000	1000	0	0	-1	1500
23564955	16	155	0	-100	0	230	101300000	1000	0	0	-1	1500
23577515	16	149	0	-100	0	230	101300000	1000	0	0	-1	1500
23590075	12	152	0	-100	0	230	101300000	1000	0	0	-1	1500
23602635	14	151	0	-100	0	230	101300000	1000	0	0	-1	1500
23615195	19	153	0	-100	0	230	101300000	1000	0	0	-1	1500
23627755	16	155	0	-100	0	230	101300000	1000	0	0	-1	1500
23640315	14	150	0	-100	0	230	101300000	1000	0	0	-1	1500
23652875	14	150	0	-100	0	230	101300000	1000	0	0	-1	1500
23665435	14	153	0	-100	0	230	101300000	1000	0	0	-1	1500
23677995	12	155	0	-100	0	230	101300000	1000	0	0	-1	1500
23690555	14	151	0	-100	0	230	101300000	1000	0	0	-1	1500
23703115	16	151	0	-100	0	230	101300000	1000	0	0	-1	1500
23715675	16	150	0	-100	0	230	101300000	1000	0	0	-1	1500
23728235	16	153	0	-100	0	230	101300000	1000	0	0	-1	1500
23740795	19	152	0	-100	0	230	101300000	1000	0	0	-1	1500
23753355	19	151	0	-100	0	230	101300000	1000	0	0	-1	1500
23765915	19	153	0	-100	0	230	101300000	1000	0	0	-1	1500
23778475	14	152	0	-100	0	230	101300000	1000	0	0	-1	1500
23791035	12	155	0	-100	0	230	101300000	1000	0	0	-1	1500
23803595	12	156	0	-100	0	230	101300000	1000	0	0	-1	1500
23816155	12	156	0	-100	0	230	101300000	1000	0	0	-1	1500
23828715	16	150	0	-100	0	230	101300000	1000	0	0	-1	1500
23841275	16	156	0	-100	0	230	101300000	1000	0	0	-1	1500
23853835	19	151	0	-100	0	230	101300000	1000	0	0	-1	1500
23866395	16	156	0	-100	0	230	101300000	1000	0	0	-1	1500
23878955	12	156	0	-100	0	230	101300000	1000	0	0	-1	1500
23891515	14	156	0	-100	0	230	101300000	1000	0	0	-1	1500
23904075	9	155	0	-100	0	230	101300000	1000	0	0	-1	1500
23916635	16	151	0	-100	0	230	101300000	1000	0	0	-1	1500
23929195	19	151	0	-100	0	230	101300000	1000	0	0	-1	1500
23941755	12	154	0	-100	0	230	101300000	1000	0	0	-1	1500
23954315	9	154	0	-100	0	230	101300000	1000	0	0	-1	1500
23966875	12	153	0	-100	0	230	101300000	1000	0	0	-1	1500
23979435	12	153	0	-100	0	230	101300000	1000	0	0	-1	1500
23991995	14	152	0	-100	0	230	101300000	1000	0	0	-1	1500
24004555	16	151	0	-100	0	230	101300000	1000	0	0	-1	1500
24017115	16	151	0	-100	0	230	101300000	1000	0	0	-1	1500
24029675	14	151	0	-100	0	230	101300000	1000	0	0	-1	1500
24042235	16	151	0	-100	0	230	101300000	1000	0	0	-1	1500
24054795	19	153	0	-100	0	230	101300000	1000	0	0	-1	1500
24067355	14	154	0	-100	0	230	101300000	1000	0	0	-1	1500
24079915	9	153	0	-100	0	230	101300000	1000	0	0	-1	1500
24092475	12	151	0	-100	0	230	101300000	1000	0	0	-1	1500
24105035	19	152	0	-100	0	230	101300000	1000	0	0	-1	1500
24117595	14	152	0	-100	0	230	101300000	1000	0	0	-1	1500
24130155	12	156	0	-100	0	230	101300000	1000	0	0	-1	1500
24142715	12	155	0	-100	0	230	101300000	1000	0	0	-1	1500
24155275	19	154	0	-100	0	230	101300000	1000	0	0	-1	1500
24167835	19	152	0	-100	0	230	101300000	1000	0	0	-1	1500
24180395	14	156	0	-100	0	230	101300000	1000	0	0	-1	1500
24192955	12	156	0	-100	0	230	101300000	1000	0	0	-1	1500
24205515	14	152	0	-100	0	230	101300000	1000	0	0	-1	1500
24218075	14	151	0	-100	0	230	101300000	1000	0	0	-1	1500
24230635	19	151	0	-100	0	230	101300000	1000	0	0	-1	1500
24243195	16	153	0	-100	0	230	101300000	1000	0	0	-1	1500
24255755	9	153	0	-100	0	230	101300000	1000	0	0	-1	1500
24268315	9	156	0	-100	0	230	101300000	1000	0	0	-1	1500
24280875	19	154	0	-100	0	230	101300000	1000	0	0	-1	1500
24293435	12	151	0	-100	0	230	101300000	1000	0	0	-1	1500
24305995	12	152	0	-100	0	230	101300000	1000	0	0	-1	1500
24318555	12	159	0	-100	0	230	101300000	1000	0	0	-1	1500
24331115	16	152	0	-100	0	230	101300000	1000	0	0	-1	1500
24343675	14	151	0	-100	0	230	101300000	1000	0	0	-1	1500
24356235	9	153	0	-100	0	230	101300000	1000	0	0	-1	1500
24368795	12	155	0	-100	0	230	101300000	1000	0	0	-1	1500
24381355	16	152	0	-100	0	230	101300000	1000	0	0	-1	1500
24393915	12	152	0	-100	0	230	101300000	1000	0	0	-1	1500
24406475	12	156	0	-100	0	230	101300000	1000	0	0	-1	1500
24419035	14	150	0	-100	0	230	101300000	1000	0	0	-1	1500
24431595	21	156	0	-100	0	230	101300000	1000	0	0	-1	1500
24444155	9	152	0	-100	0	230	101300000	1000	0	0	-1	1500
24456715	12	156	0	-100	0	230	101300000	1000	0	0	-1	1500
24469275	16	151	0	-100	0	230	101300000	1000	0	0	-1	1500
24481835	19	155	0	-100	0	230	101300000	1000	0	0	-1	1500
24494395	12	153	0	-100	0	230	101300000	1000	0	0	-1	1500
24506955	12	158	0	-100	0	230	101300000	1000	0	0	-1	1500
24519515	14	155	0	-100	0	230	101300000	1000	0	0	-1	1500
24532075	14	153	0	-100	0	230	101300000	1000	0	0	-1	1500
24544635	21	153	0	-100	0	230	101300000	1000	0	0	-1	1500
24557195	12	152	0	-100	0	230	101300000	1000	0	0	-1	1500
24569755	12	156	0	-100	0	230	101300000	1000	0	0	-1	1500
24582315	16	150	0	-100	0	230	101300000	1000	0	0	-1	1500
24594875	14	153	0	-100	0	230	101300000	1000	0	0	-1	1500
24607435	12	158	0	-100	0	230	101300000	1000	0	0	-1	1500
24619995	9	151	0	-100	0	230	101300000	1000	0	0	-1	1500
24632555	16	151	0	-100	0	230	101300000	1000	0	0	-1	1500
24645115	16	151	0	-100	0	230	101300000	1000	0	0	-1	1500
24657675	9	152	0	-100	0	230	101300000	1000	0	0	-1	1500
24670235	12	157	0	-100	0	230	101300000	1000	0	0	-1	1500
24682795	12	151	0	-100	0	230	101300000	1000	0	0	-1	1500
24695355	19	151	0	-100	0	230	101300000	1000	0	0	-1	1500
24707915	19	152	0	-100	0	230	101300000	1000	0	0	-1	1500
24720475	12	156	0	-100	0	230	101300000	1000	0	0	-1	1500
24733035	14	155	0	-100	0	230	101300000	1000	0	0	-1	1500
24745595	16	153	0	-100	0	230	101300000	1000	0	0	-1	1500
24758155	19	151	0	-100	0	230	101300000	1000	0	0	-1	1500
24770715	12	156	0	-100	0	230	101300000	1000	0	0	-1	1500
24783275	12	155	0	-100	0	230	101300000	1000	0	0	-1	1500
24795835	12	154	0	-100	0	230	101300000	1000	0	0	-1	1500
24808395	19	151	0	-100	0	230	101300000	1000	0	0	-1	1500
24820955	9	154	0	-100	0	230	101300000	1000	0	0	-1	1500
24833515	14	153	0	-100	0	230	101300000	1000	0	0	-1	1500
24846075	14	153	0	-100	0	230	101300000	1000	0	0	-1	1500
24858635	19	153	0	-100	0	230	101300000	1000	0	0	-1	1500
24871195	19	153	0	-100	0	230	101300000	1000	0	0	-1	1500
24883755	12	152	0	-100	0	230	101300000	1000	0	0	-1	1500
24896315	9	152	0	-100	0	230	101300000	1000	0	0	-1	1500
24908875	14	154	0	-100	0	230	101300000	1000	0	0	-1	1500
24921435	12	155	0	-100	0	230	101300000	1000	0	0	-1	1500
24933995	16	153	0	-100	0	230	101300000	1000	0	0	-1	1500
24946555	16	151	0	-100	0	230	101300000	1000	0	0	-1	1500
24959115	12	154	0	-100	0	230	101300000	1000	0	0	-1	1500
24971675	12	156	0	-100	0	230	101300000	1000	0	0	-1	1500
24984235	12	153	0	-100	0	230	101300000	1000	0	0	-1	1500
24996795	12	152	0	-100	0	230	101300000	1000	0	0	-1	1500
25009355	14	152	0	-100	0	230	101300000	1000	0	0	-1	1500
25021915	16	153	0	-100	0	230	101300000	1000	0	0	-1	1500
25034475	16	150	0	-100	0	230	101300000	1000	0	0	-1	1500
25047035	12	152	0	-100	0	230	101300000	1000	0	0	-1	1500
25059595	9	155	0	-100	0	230	101300000	1000	0	0	-1	1500
25072155	12	157	0	-100	0	230	101300000	1000	0	0	-1	1500
25084715	12	156	0	-100	0	230	101300000	1000	0	0	-1	1500
25097275	14	155	0	-100	0	230	101300000	1000	0	0	-1	1500
25109835	14	154	0	-100	0	230	101300000	1000	0	0	-1	1500
25122395	16	151	0	-100	0	230	101300000	1000	0	0	-1	1500
25134955	19	154	0	-100	0	230	101300000	1000	0	0	-1	1500
25147515	19	151	0	-100	0	230	101300000	1000	0	0	-1	1500
25160075	9	155	0	-100	0	230	101300000	1000	0	0	-1	1500
25172635	9	153	0	-100	0	230	101300000	1000	0	0	-1	1500
25185195	12	156	0	-100	0	230	101300000	1000	0	0	-1	1500
25197755	12	155	0	-100	0	230	101300000	1000	0	0	-1	1500
25210315	9	156	0	-100	0	230	101300000	1000	0	0	-1	1500
25222875	12	156	0	-100	0	230	101300000	1000	0	0	-1	1500
25235435	12	157	0	-100	0	230	101300000	1000	0	0	-1	1500
25247995	12	152	0	-100	0	230	101300000	1000	0	0	-1	1500
25260555	14	156	0	-100	0	230	101300000	1000	0	0	-1	1500
25273115	12	153	0	-100	0	230	101300000	1000	0	0	-1	1500
25285675	14	156	0	-100	0	230	101300000	1000	0	0	-1	1500
25298235	12	153	0	-100	0	230	101300000	1000	0	0	-1	1500
25310795	12	155	0	-100	0	230	101300000	1000	0	0	-1	1500
25323355	12	154	0	-100	0	230	101300000	1000	0	0	-1	1500
25335915	14	158	0	-100	0	230	101300000	1000	0	0	-1	1500
25348475	12	155	0	-100	0	230	101300000	1000	0	0	-1	1500
25361035	12	156	0	-100	0	230	101300000	1000	0	0	-1	1500
25373595	12	154	0	-100	0	230	101300000	1000	0	0	-1	1500
25386155	16	151	0	-100	0	230	101300000	1000	0	0	-1	1500
25398715	19	154	0	-100	0	230	101300000	1000	0	0	-1	1500
25411275	9	155	0	-100	0	230	101300000	1000	0	0	-1	1500
25423835	9	154	0	-100	0	230	101300000	1000	0	0	-1	1500
25436395	12	158	0	-100	0	230	101300000	1000	0	0	-1	1500
25448955	14	155	0	-100	0	230	101300000	1000	0	0	-1	1500
25461515	12	151	0	-100	0	230	101300000	1000	0	0	-1	1500
25474075	19	155	0	-100	0	230	101300000	1000	0	0	-1	1500
25486635	16	152	0	-100	0	230	101300000	1000	0	0	-1	1500
25499195	21	152	0	-100	0	230	101300000	1000	0	0	-1	1500
25511755	16	155	0	-100	0	230	101300000	1000	0	0	-1	1500
25524315	12	156	0	-100	0	230	101300000	1000	0	0	-1	1500
25536875	12	153	0	-100	0	230	101300000	1000	0	0	-1	1500
25549435	14	154	0	-100	0	230	101300000	1000	0	0	-1	1500
25561995	19	156	0	-100	0	230	101300000	1000	0	0	-1	1500
25574555	14	152	0	-100	0	230	101300000	1000	0	0	-1	1500
25587115	9	150	0	-100	0	230	101300000	1000	0	0	-1	1500
25599675	9	156	0	-100	0	230	101300000	1000	0	0	-1	1500
25612235	14	156	0	-100	0	230	101300000	1000	0	0	-1	1500
25624795	12	156	0	-100	0	230	101300000	1000	0	0	-1	1500
25637355	12	152	0	-100	0	230	101300000	1000	0	0	-1	1500
25649915	12	151	0	-100	0	230	101300000	1000	0	0	-1	1500
25662475	16	152	0	-100	0	230	101300000	1000	0	0	-1	1500
25675035	19	150	0	-100	0	230	101300000	1000	0	0	-1	1500
25687595	21	154	0	-100	0	230	101300000	1000	0	0	-1	1500
25700155	16	153	0	-100	0	230	101300000	1000	0	0	-1	1500
25712715	12	154	0	-100	0	230	101300000	1000	0	0	-1	1500
25725275	9	154	0	-100	0	230	101300000	1000	0	0	-1	1500
25737835	9	157	0	-100	0	230	101300000	1000	0	0	-1	1500
25750395	14	152	0	-100	0	230	101300000	1000	0	0	-1	1500
25762955	19	152	0	-100	0	230	101300000	1000	0	0	-1	1500
25775515	12	159	0	-100	0	230	101300000	1000	0	0	-1	1500
25788075	12	155	0	-100	0	230	101300000	1000	0	0	-1	1500
25800635	16	154	0	-100	0	230	101300000	1000	0	0	-1	1500
25813195	14	151	0	-100	0	230	101300000	1000	0	0	-1	1500
25825755	12	156	0	-100	0	230	101300000	1000	0	0	-1	1500
25838315	12	151	0	-100	0	230	101300000	1000	0	0	-1	1500
25850875	21	155	0	-100	0	230	101300000	1000	0	0	-1	1500
25863435	12	156	0	-100	0	230	101300000	1000	0	0	-1	1500
25875995	14	152	0	-100	0	230	101300000	1000	0	0	-1	1500
25888555	19	152	0	-100	0	230	101300000	1000	0	0	-1	1500
25901115	12	157	0	-100	0	230	101300000	1000	0	0	-1	1500
25913675	16	151	0	-100	0	230	101300000	1000	0	0	-1	1500
25926235	12	152	0	-100	0	230	101300000	1000	0	0	-1	1500
25938795	14	153	0	-100	0	230	101300000	1000	0	0	-1	1500
25951355	21	155	0	-100	0	230	101300000	1000	0	0	-1	1500
25963915	9	151	0	-100	0	230	101300000	1000	0	0	-1	1500
25976475	12	152	0	-100	0	230	101300000	1000	0	0	-1	1500
25989035	16	153	0	-100	0	230	101300000	1000	0	0	-1	1500
26001595	14	156	0	-100	0	230	101300000	1000	0	0	-1	1500
26014155	16	154	0	-100	0	230	101300000	1000	0	0	-1	1500
26026715	14	152	0	-100	0	230	101300000	1000	0	0	-1	1500
26039275	12	157	0	-100	0	230	101300000	1000	0	0	-1	1500
26051835	12	155	0	-100	0	230	101300000	1000	0	0	-1	1500
26064395	19	151	0	-100	0	230	101300000	1000	0	0	-1	1500
26076955	9	156	0	-100	0	230	101300000	1000	0	0	-1	1500
26089515	14	156	0	-100	0	230	101300000	1000	0	0	-1	1500
26102075	19	156	0	-100	0	230	101300000	1000	0	0	-1	1500
26114635	12	153	0	-100	0	230	101300000	1000	0	0	-1	1500
26127195	12	154	0	-100	0	230	101300000	1000	0	0	-1	1500
26139755	16	151	0	-100	0	230	101300000	1000	0	0	-1	1500
26152315	9	154	0	-100	0	230	101300000	1000	0	0	-1	1500
26164875	14	156	0	-100	0	230	101300000	1000	0	0	-1	1500
26177435	14	152	0	-100	0	230	101300000	1000	0	0	-1	1500
26189995	19	154	0	-100	0	230	101300000	1000	0	0	-1	1500
26202555	9	155	0	-100	0	230	101300000	1000	0	0	-1	1500
26215115	12	153	0	-100	0	230	101300000	1000	0	0	-1	1500
26227675	16	152	0	-100	0	230	101300000	1000	0	0	-1	1500
26240235	19	151	0	-100	0	230	101300000	1000	0	0	-1	1500
26252795	14	153	0	-100	0	230	101300000	1000	0	0	-1	1500
26265355	12	156	0	-100	0	230	101300000	1000	0	0	-1	1500
26277915	14	151	0	-100	0	230	101300000	1000	0	0	-1	1500
26290475	19	151	0	-100	0	230	101300000	1000	0	0	-1	1500
26303035	12	155	0	-100	0	230	101300000	1000	0	0	-1	1500
26315595	14	155	0	-100	0	230	101300000	1000	0	0	-1	1500
26328155	16	152	0	-100	0	230	101300000	1000	0	0	-1	1500
26340715	12	156	0	-100	0	230	101300000	1000	0	0	-1	1500
26353275	16	152	0	-100	0	230	101300000	1000	0	0	-1	1500
26365835	16	152	0	-100	0	230	101300000	1000	0	0	-1	1500
26378395	19	151	0	-100	0	230	101300000	1000	0	0	-1	1500
26390955	9	156	0	-100	0	230	101300000	1000	0	0	-1	1500
26403515	12	156	0	-100	0	230	101300000	1000	0	0	-1	1500
26416075	16	154	0	-100	0	230	101300000	1000	0	0	-1	1500
26428635	12	152	0	-100	0	230	101300000	1000	0	0	-1	1500
26441195	16	154	0	-100	0	230	101300000	1000	0	0	-1	1500
26453755	16	152	0	-100	0	230	101300000	1000	0	0	-1	1500
26466315	16	155	0	-100	0	230	101300000	1000	0	0	-1	1500
26478875	19	152	0	-100	0	230	101300000	1000	0	0	-1	1500
26491435	12	152	0	-100	0	230	101300000	1000	0	0	-1	1500
26503995	12	151	0	-100	0	230	101300000	1000	0	0	-1	1500
26516555	9	160	0	-100	0	230	101300000	1000	0	0	-1	1500
26529115	16	152	0	-100	0	230	101300000	1000	0	0	-1	1500
26541675	19	152	0	-100	0	230	101300000	1000	0	0	-1	1500
26554235	12	155	0	-100	0	230	101300000	1000	0	0	-1	1500
26566795	12	156	0	-100	0	230	101300000	1000	0	0	-1	1500
26579355	14	153	0	-100	0	230	101300000	1000	0	0	-1	1500
26591915	16	151	0	-100	0	230	101300000	1000	0	0	-1	1500
26604475	12	155	0	-100	0	230	101300000	1000	0	0	-1	1500
26617035	9	159	0	-100	0	230	101300000	1000	0	0	-1	1500
26629595	19	152	0	-100	0	230	101300000	1000	0	0	-1	1500
26642155	12	151	0	-100	0	230	101300000	1000	0	0	-1	1500
26654715	12	153	0	-100	0	230	101300000	1000	0	0	-1	1500
26667275	19	152	0	-100	0	230	101300000	1000	0	0	-1	1500
26679835	12	152	0	-100	0	230	101300000	1000	0	0	-1	1500
26692395	12	151	0	-100	0	230	101300000	1000	0	0	-1	1500
26704955	16	155	0	-100	0	230	101300000	1000	0	0	-1	1500
26717515	12	151	0	-100	0	230	101300000	1000	0	0	-1	1500
26730075	14	154	0	-100	0	230	101300000	1000	0	0	-1	1500
26742635	14	151	0	-100	0	230	101300000	1000	0	0	-1	1500
26755195	19	151	0	-100	0	230	101300000	1000	0	0	-1	1500
26767755	12	156	0	-100	0	230	101300000	1000	0	0	-1	1500
26780315	12	155	0	-100	0	230	101300000	1000	0	0	-1	1500
26792875	19	155	0	-100	0	230	101300000	1000	0	0	-1	1500
26805435	16	155	0	-100	0	230	101300000	1000	0	0	-1	1500
26817995	12	153	0	-100	0	230	101300000	1000	0	0	-1	1500
26830555	12	151	0	-100	0	230	101300000	1000	0	0	-1	1500
26843115	16	152	0	-100	0	230	101300000	1000	0	0	-1	1500
26855675	9	156	0	-100	0	230	101300000	1000	0	0	-1	1500
26868235	9	158	0	-100	0	230	101300000	1000	0	0	-1	1500
26880795	19	152	0	-100	0	230	101300000	1000	0	0	-1	1500
26893355	9	153	0	-100	0	230	101300000	1000	0	0	-1	1500
26905915	14	155	0	-100	0	230	101300000	1000	0	0	-1	1500
26918475	16	150	0	-100	0	230	101300000	1000	0	0	-1	1500
26931035	12	155	0	-100	0	230	101300000	1000	0	0	-1	1500
26943595	14	156	0	-100	0	230	101300000	1000	0	0	-1	1500
26956155	19	154	0	-100	0	230	101300000	1000	0	0	-1	1500
26968715	19	151	0	-100	0	230	101300000	1000	0	0	-1	1500
26981275	12	152	0	-100	0	230	101300000	1000	0	0	-1	1500
26993835	9	154	0	-100	0	230	101300000	1000	0	0	-1	1500
27006395	12	151	0	-100	0	230	101300000	1000	0	0	-1	1500
27018955	16	151	0	-100	0	230	101300000	1000	0	0	-1	1500
27031515	16	151	0	-100	0	230	101300000	1000	0	0	-1	1500
27044075	9	153	0	-100	0	230	101300000	1000	0	0	-1	1500
