timestamp	voltage	current	windSpeed	pitchAngle	rpm	temperature	ambientPressure	humidity	accelerationX	accelerationY	accelerationZ	currentSink
7038070	4019	0	0	-100	0	230	101300000	1000	0	0	-1	0
7045523	4007	0	0	-100	0	230	101300000	1000	0	0	-1	0
7058083	4012	0	0	-100	0	230	101300000	1000	0	0	-1	0
7070643	4021	0	0	-100	0	230	101300000	1000	0	0	-1	0
7083203	4017	0	0	-100	0	230	101300000	1000	0	0	-1	0
7095763	4011	0	0	-100	0	230	101300000	1000	0	0	-1	0
7108323	4009	4	0	-100	0	230	101300000	1000	0	0	-1	0
7120883	4009	1	0	-100	0	230	101300000	1000	0	0	-1	0
7133443	4019	0	0	-100	0	230	101300000	1000	0	0	-1	0
7146004	4009	1	0	-100	0	230	101300000	1000	0	0	-1	0
7158563	4012	0	0	-100	0	230	101300000	1000	0	0	-1	0
7171123	4008	4	0	-100	0	230	101300000	1000	0	0	-1	0
7183683	4019	0	0	-100	0	230	101300000	1000	0	0	-1	0
7196243	4015	0	0	-100	0	230	101300000	1000	0	0	-1	0
7208803	4007	0	0	-100	0	230	101300000	1000	0	0	-1	0
7221363	4011	4	0	-100	0	230	101300000	1000	0	0	-1	0
7233923	4013	0	0	-100	0	230	101300000	1000	0	0	-1	0
7246483	4018	0	0	-100	0	230	101300000	1000	0	0	-1	0
7259043	4016	0	0	-100	0	230	101300000	1000	0	0	-1	0
7271603	4010	0	0	-100	0	230	101300000	1000	0	0	-1	0
7284163	4011	4	0	-100	0	230	101300000	1000	0	0	-1	0
7296723	4012	0	0	-100	0	230	101300000	1000	0	0	-1	0
7309283	4015	0	0	-100	0	230	101300000	1000	0	0	-1	0
7321843	4012	0	0	-100	0	230	101300000	1000	0	0	-1	0
7334403	4012	4	0	-100	0	230	101300000	1000	0	0	-1	0
7346963	4011	2	0	-100	0	230	101300000	1000	0	0	-1	0
7677555	16	206	0	-100	0	230	101300000	1000	0	0	-1	1500
7690115	19	200	0	-100	0	230	101300000	1000	0	0	-1	1500
7702675	26	204	0	-100	0	230	101300000	1000	0	0	-1	1500
7715235	26	202	0	-100	0	230	101300000	1000	0	0	-1	1500
7727795	26	205	0	-100	0	230	101300000	1000	0	0	-1	1500
7740355	21	206	0	-100	0	230	101300000	1000	0	0	-1	1500
7752915	19	205	0	-100	0	230	101300000	1000	0	0	-1	1500
7765475	19	206	0	-100	0	230	101300000	1000	0	0	-1	1500
7778035	16	204	0	-100	0	230	101300000	1000	0	0	-1	1500
7790595	19	205	0	-100	0	230	101300000	1000	0	0	-1	1500
7803155	16	206	0	-100	0	230	101300000	1000	0	0	-1	1500
7815715	21	207	0	-100	0	230	101300000	1000	0	0	-1	1500
7828275	29	204	0	-100	0	230	101300000	1000	0	0	-1	1500
7840835	19	205	0	-100	0	230	101300000	1000	0	0	-1	1500
7853395	21	207	0	-100	0	230	101300000	1000	0	0	-1	1500
7865955	19	204	0	-100	0	230	101300000	1000	0	0	-1	1500
7878515	26	199	0	-100	0	230	101300000	1000	0	0	-1	1500
7891075	21	208	0	-100	0	230	101300000	1000	0	0	-1	1500
7903635	26	202	0	-100	0	230	101300000	1000	0	0	-1	1500
7916195	19	204	0	-100	0	230	101300000	1000	0	0	-1	1500
7928755	24	205	0	-100	0	230	101300000	1000	0	0	-1	1500
7941315	19	206	0	-100	0	230	101300000	1000	0	0	-1	1500
7953875	26	206	0	-100	0	230	101300000	1000	0	0	-1	1500
7966435	19	209	0	-100	0	230	101300000	1000	0	0	-1	1500
7978995	24	211	0	-100	0	230	101300000	1000	0	0	-1	1500
7991555	19	203	0	-100	0	230	101300000	1000	0	0	-1	1500
8004115	16	205	0	-100	0	230	101300000	1000	0	0	-1	1500
8016675	21	202	0	-100	0	230	101300000	1000	0	0	-1	1500
8029235	24	203	0	-100	0	230	101300000	1000	0	0	-1	1500
8041795	21	208	0	-100	0	230	101300000	1000	0	0	-1	1500
8054355	19	207	0	-100	0	230	101300000	1000	0	0	-1	1500
8066915	24	203	0	-100	0	230	101300000	1000	0	0	-1	1500
8079475	21	202	0	-100	0	230	101300000	1000	0	0	-1	1500
8092035	21	208	0	-100	0	230	101300000	1000	0	0	-1	1500
8104595	16	206	0	-100	0	230	101300000	1000	0	0	-1	1500
8117155	26	207	0	-100	0	230	101300000	1000	0	0	-1	1500
8129715	19	205	0	-100	0	230	101300000	1000	0	0	-1	1500
8142275	16	204	0	-100	0	230	101300000	1000	0	0	-1	1500
8154835	26	204	0	-100	0	230	101300000	1000	0	0	-1	1500
8167395	19	210	0	-100	0	230	101300000	1000	0	0	-1	1500
8179955	19	205	0	-100	0	230	101300000	1000	0	0	-1	1500
8192515	26	206	0	-100	0	230	101300000	1000	0	0	-1	1500
8205075	19	208	0	-100	0	230	101300000	1000	0	0	-1	1500
8217635	19	204	0	-100	0	230	101300000	1000	0	0	-1	1500
8230195	26	203	0	-100	0	230	101300000	1000	0	0	-1	1500
8242755	19	207	0	-100	0	230	101300000	1000	0	0	-1	1500
8255315	21	207	0	-100	0	230	101300000	1000	0	0	-1	1500
8267875	29	204	0	-100	0	230	101300000	1000	0	0	-1	1500
8280435	21	203	0	-100	0	230	101300000	1000	0	0	-1	1500
8292995	21	203	0	-100	0	230	101300000	1000	0	0	-1	1500
8305555	19	202	0	-100	0	230	101300000	1000	0	0	-1	1500
8318115	24	206	0	-100	0	230	101300000	1000	0	0	-1	1500
8330675	19	208	0	-100	0	230	101300000	1000	0	0	-1	1500
8343235	21	206	0	-100	0	230	101300000	1000	0	0	-1	1500
8355795	19	207	0	-100	0	230	101300000	1000	0	0	-1	1500
8368355	19	201	0	-100	0	230	101300000	1000	0	0	-1	1500
8380915	21	206	0	-100	0	230	101300000	1000	0	0	-1	1500
8393475	19	202	0	-100	0	230	101300000	1000	0	0	-1	1500
8406035	21	203	0	-100	0	230	101300000	1000	0	0	-1	1500
8418595	19	206	0	-100	0	230	101300000	1000	0	0	-1	1500
8431155	24	206	0	-100	0	230	101300000	1000	0	0	-1	1500
8443715	24	205	0	-100	0	230	101300000	1000	0	0	-1	1500
8456275	19	207	0	-100	0	230	101300000	1000	0	0	-1	1500
8468835	26	204	0	-100	0	230	101300000	1000	0	0	-1	1500
8481395	21	206	0	-100	0	230	101300000	1000	0	0	-1	1500
8493955	19	209	0	-100	0	230	101300000	1000	0	0	-1	1500
8506515	19	202	0	-100	0	230	101300000	1000	0	0	-1	1500
8519075	24	206	0	-100	0	230	101300000	1000	0	0	-1	1500
8531635	24	203	0	-100	0	230	101300000	1000	0	0	-1	1500
8544195	19	206	0	-100	0	230	101300000	1000	0	0	-1	1500
8556755	21	205	0	-100	0	230	101300000	1000	0	0	-1	1500
8569315	26	206	0	-100	0	230	101300000	1000	0	0	-1	1500
8581875	21	207	0	-100	0	230	101300000	1000	0	0	-1	1500
8594435	19	203	0	-100	0	230	101300000	1000	0	0	-1	1500
8606995	24	202	0	-100	0	230	101300000	1000	0	0	-1	1500
8619555	16	206	0	-100	0	230	101300000	1000	0	0	-1	1500
8632115	26	207	0	-100	0	230	101300000	1000	0	0	-1	1500
8644675	19	206	0	-100	0	230	101300000	1000	0	0	-1	1500
8657235	16	205	0	-100	0	230	101300000	1000	0	0	-1	1500
8669795	24	205	0	-100	0	230	101300000	1000	0	0	-1	1500
8682355	19	206	0	-100	0	230	101300000	1000	0	0	-1	1500
8694915	16	207	0	-100	0	230	101300000	1000	0	0	-1	1500
8707475	26	207	0	-100	0	230	101300000	1000	0	0	-1	1500
8720035	21	206	0	-100	0	230	101300000	1000	0	0	-1	1500
8732595	16	206	0	-100	0	230	101300000	1000	0	0	-1	1500
8745155	26	203	0	-100	0	230	101300000	1000	0	0	-1	1500
8757715	24	205	0	-100	0	230	101300000	1000	0	0	-1	1500
8770275	19	207	0	-100	0	230	101300000	1000	0	0	-1	1500
8782835	19	205	0	-100	0	230	101300000	1000	0	0	-1	1500
8795395	19	203	0	-100	0	230	101300000	1000	0	0	-1	1500
8807955	26	204	0	-100	0	230	101300000	1000	0	0	-1	1500
8820515	24	208	0	-100	0	230	101300000	1000	0	0	-1	1500
8833075	19	204	0	-100	0	230	101300000	1000	0	0	-1	1500
8845635	24	204	0	-100	0	230	101300000	1000	0	0	-1	1500
8858195	19	208	0	-100	0	230	101300000	1000	0	0	-1	1500
8870755	19	204	0	-100	0	230	101300000	1000	0	0	-1	1500
8883315	21	203	0	-100	0	230	101300000	1000	0	0	-1	1500
8895875	24	203	0	-100	0	230	101300000	1000	0	0	-1	1500
8908435	21	206	0	-100	0	230	101300000	1000	0	0	-1	1500
8920995	16	207	0	-100	0	230	101300000	1000	0	0	-1	1500
8933555	24	205	0	-100	0	230	101300000	1000	0	0	-1	1500
8946115	19	209	0	-100	0	230	101300000	1000	0	0	-1	1500
8958675	29	206	0	-100	0	230	101300000	1000	0	0	-1	1500
8971235	19	209	0	-100	0	230	101300000	1000	0	0	-1	1500
8983795	16	207	0	-100	0	230	101300000	1000	0	0	-1	1500
8996355	24	204	0	-100	0	230	101300000	1000	0	0	-1	1500
9008915	24	203	0	-100	0	230	101300000	1000	0	0	-1	1500
9021475	21	205	0	-100	0	230	101300000	1000	0	0	-1	1500
9034035	19	206	0	-100	0	230	101300000	1000	0	0	-1	1500
9046595	26	206	0	-100	0	230	101300000	1000	0	0	-1	1500
9059155	19	210	0	-100	0	230	101300000	1000	0	0	-1	1500
9071715	19	208	0	-100	0	230	101300000	1000	0	0	-1	1500
9084275	19	207	0	-100	0	230	101300000	1000	0	0	-1	1500
9096835	29	206	0	-100	0	230	101300000	1000	0	0	-1	1500
9109395	21	204	0	-100	0	230	101300000	1000	0	0	-1	1500
9121955	21	209	0	-100	0	230	101300000	1000	0	0	-1	1500
9134515	21	204	0	-100	0	230	101300000	1000	0	0	-1	1500
9147075	24	206	0	-100	0	230	101300000	1000	0	0	-1	1500
9159635	19	206	0	-100	0	230	101300000	1000	0	0	-1	1500
9172195	19	201	0	-100	0	230	101300000	1000	0	0	-1	1500
9184755	26	206	0	-100	0	230	101300000	1000	0	0	-1	1500
9197315	19	209	0	-100	0	230	101300000	1000	0	0	-1	1500
9209875	16	207	0	-100	0	230	101300000	1000	0	0	-1	1500
9222435	29	207	0	-100	0	230	101300000	1000	0	0	-1	1500
9234995	19	205	0	-100	0	230	101300000	1000	0	0	-1	1500
9247555	19	206	0	-100	0	230	101300000	1000	0	0	-1	1500
9260115	26	203	0	-100	0	230	101300000	1000	0	0	-1	1500
9272675	21	202	0	-100	0	230	101300000	1000	0	0	-1	1500
9285235	21	208	0	-100	0	230	101300000	1000	0	0	-1	1500
9297795	19	201	0	-100	0	230	101300000	1000	0	0	-1	1500
9310355	26	205	0	-100	0	230	101300000	1000	0	0	-1	1500
9322915	19	207	0	-100	0	230	101300000	1000	0	0	-1	1500
9335475	21	201	0	-100	0	230	101300000	1000	0	0	-1	1500
9348035	29	206	0	-100	0	230	101300000	1000	0	0	-1	1500
9360595	19	206	0	-100	0	230	101300000	1000	0	0	-1	1500
9373155	24	206	0	-100	0	230	101300000	1000	0	0	-1	1500
9385715	16	209	0	-100	0	230	101300000	1000	0	0	-1	1500
9398275	21	201	0	-100	0	230	101300000	1000	0	0	-1	1500
9410835	29	202	0	-100	0	230	101300000	1000	0	0	-1	1500
9423395	21	203	0	-100	0	230	101300000	1000	0	0	-1	1500
9435955	21	205	0	-100	0	230	101300000	1000	0	0	-1	1500
9448515	19	203	0	-100	0	230	101300000	1000	0	0	-1	1500
9461075	24	206	0	-100	0	230	101300000	1000	0	0	-1	1500
9473635	26	202	0	-100	0	230	101300000	1000	0	0	-1	1500
9486195	21	205	0	-100	0	230	101300000	1000	0	0	-1	1500
9498755	19	203	0	-100	0	230	101300000	1000	0	0	-1	1500
9511315	21	204	0	-100	0	230	101300000	1000	0	0	-1	1500
9523875	26	205	0	-100	0	230	101300000	1000	0	0	-1	1500
9536435	19	206	0	-100	0	230	101300000	1000	0	0	-1	1500
9548995	16	202	0	-100	0	230	101300000	1000	0	0	-1	1500
9561555	21	206	0	-100	0	230	101300000	1000	0	0	-1	1500
9574115	26	203	0	-100	0	230	101300000	1000	0	0	-1	1500
9586675	19	203	0	-100	0	230	101300000	1000	0	0	-1	1500
9599235	19	206	0	-100	0	230	101300000	1000	0	0	-1	1500
9611795	21	207	0	-100	0	230	101300000	1000	0	0	-1	1500
9624355	26	206	0	-100	0	230	101300000	1000	0	0	-1	1500
9636915	19	209	0	-100	0	230	101300000	1000	0	0	-1	1500
9649475	21	203	0	-100	0	230	101300000	1000	0	0	-1	1500
9662035	19	205	0	-100	0	230	101300000	1000	0	0	-1	1500
9674595	16	207	0	-100	0	230	101300000	1000	0	0	-1	1500
9687155	26	202	0	-100	0	230	101300000	1000	0	0	-1	1500
9699715	21	208	0	-100	0	230	101300000	1000	0	0	-1	1500
9712275	16	209	0	-100	0	230	101300000	1000	0	0	-1	1500
9724835	26	203	0	-100	0	230	101300000	1000	0	0	-1	1500
9737395	24	202	0	-100	0	230	101300000	1000	0	0	-1	1500
9749955	19	208	0	-100	0	230	101300000	1000	0	0	-1	1500
9762515	19	207	0	-100	0	230	101300000	1000	0	0	-1	1500
9775075	16	208	0	-100	0	230	101300000	1000	0	0	-1	1500
9787635	16	207	0	-100	0	230	101300000	1000	0	0	-1	1500
9800195	16	207	0	-100	0	230	101300000	1000	0	0	-1	1500
9812755	19	206	0	-100	0	230	101300000	1000	0	0	-1	1500
9825315	19	207	0	-100	0	230	101300000	1000	0	0	-1	1500
9837875	19	207	0	-100	0	230	101300000	1000	0	0	-1	1500
9850435	19	206	0	-100	0	230	101300000	1000	0	0	-1	1500
9862995	16	207	0	-100	0	230	101300000	1000	0	0	-1	1500
9875555	19	205	0	-100	0	230	101300000	1000	0	0	-1	1500
9888115	19	205	0	-100	0	230	101300000	1000	0	0	-1	1500
9900675	26	205	0	-100	0	230	101300000	1000	0	0	-1	1500
9913235	26	206	0	-100	0	230	101300000	1000	0	0	-1	1500
9925795	24	204	0	-100	0	230	101300000	1000	0	0	-1	1500
9938355	19	206	0	-100	0	230	101300000	1000	0	0	-1	1500
9950915	21	206	0	-100	0	230	101300000	1000	0	0	-1	1500
9963475	16	207	0	-100	0	230	101300000	1000	0	0	-1	1500
9976035	16	204	0	-100	0	230	101300000	1000	0	0	-1	1500
9988595	19	202	0	-100	0	230	101300000	1000	0	0	-1	1500
10001155	26	204	0	-100	0	230	101300000	1000	0	0	-1	1500
10013715	26	203	0	-100	0	230	101300000	1000	0	0	-1	1500
10026275	16	209	0	-100	0	230	101300000	1000	0	0	-1	1500
10038835	19	207	0	-100	0	230	101300000	1000	0	0	-1	1500
10051395	16	207	0	-100	0	230	101300000	1000	0	0	-1	1500
10063955	26	207	0	-100	0	230	101300000	1000	0	0	-1	1500
10076515	24	203	0	-100	0	230	101300000	1000	0	0	-1	1500
10089075	21	203	0	-100	0	230	101300000	1000	0	0	-1	1500
10101635	19	208	0	-100	0	230	101300000	1000	0	0	-1	1500
10114195	16	205	0	-100	0	230	101300000	1000	0	0	-1	1500
10126755	19	207	0	-100	0	230	101300000	1000	0	0	-1	1500
10139315	21	203	0	-100	0	230	101300000	1000	0	0	-1	1500
10151875	24	205	0	-100	0	230	101300000	1000	0	0	-1	1500
10164435	29	203	0	-100	0	230	101300000	1000	0	0	-1	1500
10176995	26	206	0	-100	0	230	101300000	1000	0	0	-1	1500
10189555	24	203	0	-100	0	230	101300000	1000	0	0	-1	1500
10202115	21	207	0	-100	0	230	101300000	1000	0	0	-1	1500
10214675	26	207	0	-100	0	230	101300000	1000	0	0	-1	1500
10227235	24	206	0	-100	0	230	101300000	1000	0	0	-1	1500
10239795	19	202	0	-100	0	230	101300000	1000	0	0	-1	1500
10252355	19	203	0	-100	0	230	101300000	1000	0	0	-1	1500
10264915	16	207	0	-100	0	230	101300000	1000	0	0	-1	1500
10277475	16	209	0	-100	0	230	101300000	1000	0	0	-1	1500
10290035	24	204	0	-100	0	230	101300000	1000	0	0	-1	1500
10302595	26	206	0	-100	0	230	101300000	1000	0	0	-1	1500
10315155	29	206	0	-100	0	230	101300000	1000	0	0	-1	1500
10327715	21	206	0	-100	0	230	101300000	1000	0	0	-1	1500
10340275	19	203	0	-100	0	230	101300000	1000	0	0	-1	1500
10352835	19	201	0	-100	0	230	101300000	1000	0	0	-1	1500
10365395	19	206	0	-100	0	230	101300000	1000	0	0	-1	1500
10377955	16	209	0	-100	0	230	101300000	1000	0	0	-1	1500
10390515	19	207	0	-100	0	230	101300000	1000	0	0	-1	1500
10403075	16	206	0	-100	0	230	101300000	1000	0	0	-1	1500
10415635	21	203	0	-100	0	230	101300000	1000	0	0	-1	1500
10428195	24	205	0	-100	0	230	101300000	1000	0	0	-1	1500
10440755	29	202	0	-100	0	230	101300000	1000	0	0	-1	1500
10453315	26	206	0	-100	0	230	101300000	1000	0	0	-1	1500
10465875	21	202	0	-100	0	230	101300000	1000	0	0	-1	1500
10478435	16	208	0	-100	0	230	101300000	1000	0	0	-1	1500
10490995	16	206	0	-100	0	230	101300000	1000	0	0	-1	1500
10503555	19	205	0	-100	0	230	101300000	1000	0	0	-1	1500
10516115	16	209	0	-100	0	230	101300000	1000	0	0	-1	1500
10528675	24	203	0	-100	0	230	101300000	1000	0	0	-1	1500
10541235	24	203	0	-100	0	230	101300000	1000	0	0	-1	1500
10553795	26	207	0	-100	0	230	101300000	1000	0	0	-1	1500
10566355	29	202	0	-100	0	230	101300000	1000	0	0	-1	1500
10578915	19	203	0	-100	0	230	101300000	1000	0	0	-1	1500
10591475	19	206	0	-100	0	230	101300000	1000	0	0	-1	1500
10604035	16	206	0	-100	0	230	101300000	1000	0	0	-1	1500
10616595	21	202	0	-100	0	230	101300000	1000	0	0	-1	1500
10629155	26	206	0	-100	0	230	101300000	1000	0	0	-1	1500
10641715	26	207	0	-100	0	230	101300000	1000	0	0	-1	1500
10654275	16	207	0	-100	0	230	101300000	1000	0	0	-1	1500
10666835	19	207	0	-100	0	230	101300000	1000	0	0	-1	1500
10679395	24	206	0	-100	0	230	101300000	1000	0	0	-1	1500
10691955	26	203	0	-100	0	230	101300000	1000	0	0	-1	1500
10704515	19	198	0	-100	0	230	101300000	1000	0	0	-1	1500
10717075	16	208	0	-100	0	230	101300000	1000	0	0	-1	1500
10729635	19	207	0	-100	0	230	101300000	1000	0	0	-1	1500
10742195	19	204	0	-100	0	230	101300000	1000	0	0	-1	1500
10754755	24	204	0	-100	0	230	101300000	1000	0	0	-1	1500
10767315	24	202	0	-100	0	230	101300000	1000	0	0	-1	1500
10779875	24	206	0	-100	0	230	101300000	1000	0	0	-1	1500
10792435	16	206	0	-100	0	230	101300000	1000	0	0	-1	1500
10804995	21	205	0	-100	0	230	101300000	1000	0	0	-1	1500
10817555	19	208	0	-100	0	230	101300000	1000	0	0	-1	1500
10830115	21	206	0	-100	0	230	101300000	1000	0	0	-1	1500
10842675	24	203	0	-100	0	230	101300000	1000	0	0	-1	1500
10855235	26	204	0	-100	0	230	101300000	1000	0	0	-1	1500
10867795	21	204	0	-100	0	230	101300000	1000	0	0	-1	1500
10880355	16	207	0	-100	0	230	101300000	1000	0	0	-1	1500
10892915	21	206	0	-100	0	230	101300000	1000	0	0	-1	1500
10905475	19	209	0	-100	0	230	101300000	1000	0	0	-1	1500
10918035	21	202	0	-100	0	230	101300000	1000	0	0	-1	1500
10930595	26	206	0	-100	0	230	101300000	1000	0	0	-1	1500
10943155	26	201	0	-100	0	230	101300000	1000	0	0	-1	1500
10955715	24	206	0	-100	0	230	101300000	1000	0	0	-1	1500
10968275	16	206	0	-100	0	230	101300000	1000	0	0	-1	1500
10980835	16	210	0	-100	0	230	101300000	1000	0	0	-1	1500
10993395	16	208	0	-100	0	230	101300000	1000	0	0	-1	1500
11005955	19	206	0	-100	0	230	101300000	1000	0	0	-1	1500
11018515	19	207	0	-100	0	230	101300000	1000	0	0	-1	1500
11031075	21	204	0	-100	0	230	101300000	1000	0	0	-1	1500
11043635	19	206	0	-100	0	230	101300000	1000	0	0	-1	1500
11056195	24	205	0	-100	0	230	101300000	1000	0	0	-1	1500
11068755	26	205	0	-100	0	230	101300000	1000	0	0	-1	1500
11081315	19	201	0	-100	0	230	101300000	1000	0	0	-1	1500
11093875	16	206	0	-100	0	230	101300000	1000	0	0	-1	1500
11106435	19	206	0	-100	0	230	101300000	1000	0	0	-1	1500
11118995	16	203	0	-100	0	230	101300000	1000	0	0	-1	1500
11131555	16	207	0	-100	0	230	101300000	1000	0	0	-1	1500
11144115	16	208	0	-100	0	230	101300000	1000	0	0	-1	1500
11156675	19	205	0	-100	0	230	101300000	1000	0	0	-1	1500
11169235	21	206	0	-100	0	230	101300000	1000	0	0	-1	1500
11181795	19	210	0	-100	0	230	101300000	1000	0	0	-1	1500
11194355	24	206	0	-100	0	230	101300000	1000	0	0	-1	1500
11206915	29	206	0	-100	0	230	101300000	1000	0	0	-1	1500
11219475	16	206	0	-100	0	230	101300000	1000	0	0	-1	1500
11232035	19	203	0	-100	0	230	101300000	1000	0	0	-1	1500
11244595	19	209	0	-100	0	230	101300000	1000	0	0	-1	1500
11257155	19	207	0	-100	0	230	101300000	1000	0	0	-1	1500
11269715	24	203	0	-100	0	230	101300000	1000	0	0	-1	1500
11282275	26	202	0	-100	0	230	101300000	1000	0	0	-1	1500
11294835	21	206	0	-100	0	230	101300000	1000	0	0	-1	1500
11307395	19	203	0	-100	0	230	101300000	1000	0	0	-1	1500
11319955	21	206	0	-100	0	230	101300000	1000	0	0	-1	1500
11332515	21	205	0	-100	0	230	101300000	1000	0	0	-1	1500
11345075	24	205	0	-100	0	230	101300000	1000	0	0	-1	1500
11357635	26	204	0	-100	0	230	101300000	1000	0	0	-1	1500
11370195	21	207	0	-100	0	230	101300000	1000	0	0	-1	1500
11382755	19	206	0	-100	0	230	101300000	1000	0	0	-1	1500
11395315	19	206	0	-100	0	230	101300000	1000	0	0	-1	1500
11407875	26	204	0	-100	0	230	101300000	1000	0	0	-1	1500
11420435	19	200	0	-100	0	230	101300000	1000	0	0	-1	1500
11432995	19	206	0	-100	0	230	101300000	1000	0	0	-1	1500
11445555	21	209	0	-100	0	230	101300000	1000	0	0	-1	1500
11458115	19	206	0	-100	0	230	101300000	1000	0	0	-1	1500
11470675	21	205	0	-100	0	230	101300000	1000	0	0	-1	1500
11483235	26	203	0	-100	0	230	101300000	1000	0	0	-1	1500
11495795	26	201	0	-100	0	230	101300000	1000	0	0	-1	1500
11508355	21	203	0	-100	0	230	101300000	1000	0	0	-1	1500
11520915	16	205	0	-100	0	230	101300000	1000	0	0	-1	1500
11533475	21	211	0	-100	0	230	101300000	1000	0	0	-1	1500
11546035	21	206	0	-100	0	230	101300000	1000	0	0	-1	1500
11558595	16	206	0	-100	0	230	101300000	1000	0	0	-1	1500
11571155	19	209	0	-100	0	230	101300000	1000	0	0	-1	1500
11583715	16	207	0	-100	0	230	101300000	1000	0	0	-1	1500
11596275	19	209	0	-100	0	230	101300000	1000	0	0	-1	1500
11608835	16	205	0	-100	0	230	101300000	1000	0	0	-1	1500
11621395	19	208	0	-100	0	230	101300000	1000	0	0	-1	1500
11633955	21	202	0	-100	0	230	101300000	1000	0	0	-1	1500
11646515	26	206	0	-100	0	230	101300000	1000	0	0	-1	1500
11659075	26	202	0	-100	0	230	101300000	1000	0	0	-1	1500
11671635	26	202	0	-100	0	230	101300000	1000	0	0	-1	1500
11684195	24	202	0	-100	0	230	101300000	1000	0	0	-1	1500
11696755	26	203	0	-100	0	230	101300000	1000	0	0	-1	1500
11709315	24	203	0	-100	0	230	101300000	1000	0	0	-1	1500
11721875	31	206	0	-100	0	230	101300000	1000	0	0	-1	1500
11734435	26	205	0	-100	0	230	101300000	1000	0	0	-1	1500
11746995	26	210	0	-100	0	230	101300000	1000	0	0	-1	1500
11759555	26	206	0	-100	0	230	101300000	1000	0	0	-1	1500
11772115	26	204	0	-100	0	230	101300000	1000	0	0	-1	1500
11784675	24	202	0	-100	0	230	101300000	1000	0	0	-1	1500
11797235	26	205	0	-100	0	230	101300000	1000	0	0	-1	1500
11809795	26	203	0	-100	0	230	101300000	1000	0	0	-1	1500
11822355	26	202	0	-100	0	230	101300000	1000	0	0	-1	1500
11834915	24	203	0	-100	0	230	101300000	1000	0	0	-1	1500
11847475	21	203	0	-100	0	230	101300000	1000	0	0	-1	1500
11860035	19	200	0	-100	0	230	101300000	1000	0	0	-1	1500
11872595	19	203	0	-100	0	230	101300000	1000	0	0	-1	1500
11885155	16	205	0	-100	0	230	101300000	1000	0	0	-1	1500
11897715	19	206	0	-100	0	230	101300000	1000	0	0	-1	1500
11910275	16	205	0	-100	0	230	101300000	1000	0	0	-1	1500
11922835	16	208	0	-100	0	230	101300000	1000	0	0	-1	1500
11935395	21	204	0	-100	0	230	101300000	1000	0	0	-1	1500
11947955	21	203	0	-100	0	230	101300000	1000	0	0	-1	1500
11960515	24	203	0	-100	0	230	101300000	1000	0	0	-1	1500
11973075	21	203	0	-100	0	230	101300000	1000	0	0	-1	1500
11985635	21	203	0	-100	0	230	101300000	1000	0	0	-1	1500
11998195	21	203	0	-100	0	230	101300000	1000	0	0	-1	1500
12010755	24	205	0	-100	0	230	101300000	1000	0	0	-1	1500
12023315	26	206	0	-100	0	230	101300000	1000	0	0	-1	1500
12035875	24	204	0	-100	0	230	101300000	1000	0	0	-1	1500
12048435	29	203	0	-100	0	230	101300000	1000	0	0	-1	1500
12060995	26	207	0	-100	0	230	101300000	1000	0	0	-1	1500
12073555	26	202	0	-100	0	230	101300000	1000	0	0	-1	1500
12086115	21	207	0	-100	0	230	101300000	1000	0	0	-1	1500
12098675	21	205	0	-100	0	230	101300000	1000	0	0	-1	1500
12111235	19	204	0	-100	0	230	101300000	1000	0	0	-1	1500
12123795	19	202	0	-100	0	230	101300000	1000	0	0	-1	1500
12136355	16	207	0	-100	0	230	101300000	1000	0	0	-1	1500
12148915	21	205	0	-100	0	230	101300000	1000	0	0	-1	1500
12161475	19	202	0	-100	0	230	101300000	1000	0	0	-1	1500
12174035	21	204	0	-100	0	230	101300000	1000	0	0	-1	1500
12186595	21	203	0	-100	0	230	101300000	1000	0	0	-1	1500
12199155	21	205	0	-100	0	230	101300000	1000	0	0	-1	1500
12211715	26	204	0	-100	0	230	101300000	1000	0	0	-1	1500
12224275	29	207	0	-100	0	230	101300000	1000	0	0	-1	1500
12236835	26	205	0	-100	0	230	101300000	1000	0	0	-1	1500
12249395	21	204	0	-100	0	230	101300000	1000	0	0	-1	1500
12261955	21	205	0	-100	0	230	101300000	1000	0	0	-1	1500
12274515	21	206	0	-100	0	230	101300000	1000	0	0	-1	1500
12287075	19	207	0	-100	0	230	101300000	1000	0	0	-1	1500
12299635	19	206	0	-100	0	230	101300000	1000	0	0	-1	1500
12312195	19	204	0	-100	0	230	101300000	1000	0	0	-1	1500
12324755	19	203	0	-100	0	230	101300000	1000	0	0	-1	1500
12337315	26	205	0	-100	0	230	101300000	1000	0	0	-1	1500
12349875	24	205	0	-100	0	230	101300000	1000	0	0	-1	1500
12362435	21	202	0	-100	0	230	101300000	1000	0	0	-1	1500
12374995	21	207	0	-100	0	230	101300000	1000	0	0	-1	1500
12387555	19	206	0	-100	0	230	101300000	1000	0	0	-1	1500
12400115	16	203	0	-100	0	230	101300000	1000	0	0	-1	1500
12412675	24	204	0	-100	0	230	101300000	1000	0	0	-1	1500
12425235	26	205	0	-100	0	230	101300000	1000	0	0	-1	1500
12437795	26	202	0	-100	0	230	101300000	1000	0	0	-1	1500
12450355	24	202	0	-100	0	230	101300000	1000	0	0	-1	1500
12462915	26	206	0	-100	0	230	101300000	1000	0	0	-1	1500
12475475	24	203	0	-100	0	230	101300000	1000	0	0	-1	1500
12488035	24	203	0	-100	0	230	101300000	1000	0	0	-1	1500
12500595	19	205	0	-100	0	230	101300000	1000	0	0	-1	1500
12513155	21	207	0	-100	0	230	101300000	1000	0	0	-1	1500
12525715	19	208	0	-100	0	230	101300000	1000	0	0	-1	1500
12538275	19	206	0	-100	0	230	101300000	1000	0	0	-1	1500
12550835	19	204	0	-100	0	230	101300000	1000	0	0	-1	1500
12563395	16	208	0	-100	0	230	101300000	1000	0	0	-1	1500
12575955	19	205	0	-100	0	230	101300000	1000	0	0	-1	1500
12588515	16	207	0	-100	0	230	101300000	1000	0	0	-1	1500
12601075	19	203	0	-100	0	230	101300000	1000	0	0	-1	1500
12613635	16	206	0	-100	0	230	101300000	1000	0	0	-1	1500
12626195	24	204	0	-100	0	230	101300000	1000	0	0	-1	1500
12638755	26	202	0	-100	0	230	101300000	1000	0	0	-1	1500
12651315	24	206	0	-100	0	230	101300000	1000	0	0	-1	1500
12663875	24	202	0	-100	0	230	101300000	1000	0	0	-1	1500
12676435	21	208	0	-100	0	230	101300000	1000	0	0	-1	1500
12688995	16	202	0	-100	0	230	101300000	1000	0	0	-1	1500
12701555	19	202	0	-100	0	230	101300000	1000	0	0	-1	1500
12714115	26	204	0	-100	0	230	101300000	1000	0	0	-1	1500
12726675	26	203	0	-100	0	230	101300000	1000	0	0	-1	1500
12739235	16	206	0	-100	0	230	101300000	1000	0	0	-1	1500
12751795	21	206	0	-100	0	230	101300000	1000	0	0	-1	1500
12764355	16	209	0	-100	0	230	101300000	1000	0	0	-1	1500
12776915	19	203	0	-100	0	230	101300000	1000	0	0	-1	1500
12789475	26	205	0	-100	0	230	101300000	1000	0	0	-1	1500
12802035	19	207	0	-100	0	230	101300000	1000	0	0	-1	1500
12814595	16	207	0	-100	0	230	101300000	1000	0	0	-1	1500
12827155	21	204	0	-100	0	230	101300000	1000	0	0	-1	1500
12839715	26	206	0	-100	0	230	101300000	1000	0	0	-1	1500
12852275	19	205	0	-100	0	230	101300000	1000	0	0	-1	1500
12864835	19	209	0	-100	0	230	101300000	1000	0	0	-1	1500
12877395	19	202	0	-100	0	230	101300000	1000	0	0	-1	1500
12889955	21	204	0	-100	0	230	101300000	1000	0	0	-1	1500
12902515	26	202	0	-100	0	230	101300000	1000	0	0	-1	1500
12915075	21	206	0	-100	0	230	101300000	1000	0	0	-1	1500
12927635	19	207	0	-100	0	230	101300000	1000	0	0	-1	1500
12940195	19	202	0	-100	0	230	101300000	1000	0	0	-1	1500
12952755	24	202	0	-100	0	230	101300000	1000	0	0	-1	1500
12965315	16	203	0	-100	0	230	101300000	1000	0	0	-1	1500
12977875	16	208	0	-100	0	230	101300000	1000	0	0	-1	1500
12990435	26	207	0	-100	0	230	101300000	1000	0	0	-1	1500
13002995	24	206	0	-100	0	230	101300000	1000	0	0	-1	1500
13015555	24	206	0	-100	0	230	101300000	1000	0	0	-1	1500
13028115	19	209	0	-100	0	230	101300000	1000	0	0	-1	1500
13040675	19	206	0	-100	0	230	101300000	1000	0	0	-1	1500
13053235	16	206	0	-100	0	230	101300000	1000	0	0	-1	1500
13065795	26	206	0	-100	0	230	101300000	1000	0	0	-1	1500
13078355	24	202	0	-100	0	230	101300000	1000	0	0	-1	1500
13090915	16	207	0	-100	0	230	101300000	1000	0	0	-1	1500
13103475	19	205	0	-100	0	230	101300000	1000	0	0	-1	1500
13116035	19	206	0	-100	0	230	101300000	1000	0	0	-1	1500
13128595	24	207	0	-100	0	230	101300000	1000	0	0	-1	1500
13141155	24	206	0	-100	0	230	101300000	1000	0	0	-1	1500
13153715	24	203	0	-100	0	230	101300000	1000	0	0	-1	1500
13166275	19	206	0	-100	0	230	101300000	1000	0	0	-1	1500
13178835	19	205	0	-100	0	230	101300000	1000	0	0	-1	1500
13191395	19	201	0	-100	0	230	101300000	1000	0	0	-1	1500
13203955	29	203	0	-100	0	230	101300000	1000	0	0	-1	1500
13216515	24	206	0	-100	0	230	101300000	1000	0	0	-1	1500
13229075	21	203	0	-100	0	230	101300000	1000	0	0	-1	1500
13241635	19	207	0	-100	0	230	101300000	1000	0	0	-1	1500
13254195	16	207	0	-100	0	230	101300000	1000	0	0	-1	1500
13266755	21	206	0	-100	0	230	101300000	1000	0	0	-1	1500
13279315	24	201	0	-100	0	230	101300000	1000	0	0	-1	1500
13291875	24	204	0	-100	0	230	101300000	1000	0	0	-1	1500
13304435	24	204	0	-100	0	230	101300000	1000	0	0	-1	1500
13316995	19	202	0	-100	0	230	101300000	1000	0	0	-1	1500
13329555	19	205	0	-100	0	230	101300000	1000	0	0	-1	1500
13342115	16	207	0	-100	0	230	101300000	1000	0	0	-1	1500
13354675	19	202	0	-100	0	230	101300000	1000	0	0	-1	1500
13367235	26	206	0	-100	0	230	101300000	1000	0	0	-1	1500
13379795	26	204	0	-100	0	230	101300000	1000	0	0	-1	1500
13392355	24	204	0	-100	0	230	101300000	1000	0	0	-1	1500
13404915	26	205	0	-100	0	230	101300000	1000	0	0	-1	1500
13417475	26	202	0	-100	0	230	101300000	1000	0	0	-1	1500
13430035	26	207	0	-100	0	230	101300000	1000	0	0	-1	1500
13442595	26	208	0	-100	0	230	101300000	1000	0	0	-1	1500
13455155	26	204	0	-100	0	230	101300000	1000	0	0	-1	1500
13467715	29	206	0	-100	0	230	101300000	1000	0	0	-1	1500
13480275	24	204	0	-100	0	230	101300000	1000	0	0	-1	1500
13492835	26	204	0	-100	0	230	101300000	1000	0	0	-1	1500
13505395	19	202	0	-100	0	230	101300000	1000	0	0	-1	1500
13517955	19	205	0	-100	0	230	101300000	1000	0	0	-1	1500
13530515	16	207	0	-100	0	230	101300000	1000	0	0	-1	1500
13543075	19	206	0	-100	0	230	101300000	1000	0	0	-1	1500
13555635	19	207	0	-100	0	230	101300000	1000	0	0	-1	1500
13568195	16	209	0	-100	0	230	101300000	1000	0	0	-1	1500
13580755	21	204	0	-100	0	230	101300000	1000	0	0	-1	1500
13593315	24	204	0	-100	0	230	101300000	1000	0	0	-1	1500
13605875	26	201	0	-100	0	230	101300000	1000	0	0	-1	1500
13618435	26	205	0	-100	0	230	101300000	1000	0	0	-1	1500
13630995	29	207	0	-100	0	230	101300000	1000	0	0	-1	1500
13643555	26	202	0	-100	0	230	101300000	1000	0	0	-1	1500
13656115	24	207	0	-100	0	230	101300000	1000	0	0	-1	1500
13668675	21	204	0	-100	0	230	101300000	1000	0	0	-1	1500
13681235	19	207	0	-100	0	230	101300000	1000	0	0	-1	1500
13693795	19	203	0	-100	0	230	101300000	1000	0	0	-1	1500
13706355	16	207	0	-100	0	230	101300000	1000	0	0	-1	1500
13718915	19	206	0	-100	0	230	101300000	1000	0	0	-1	1500
13731475	19	208	0	-100	0	230	101300000	1000	0	0	-1	1500
13744035	16	205	0	-100	0	230	101300000	1000	0	0	-1	1500
13756595	24	206	0	-100	0	230	101300000	1000	0	0	-1	1500
13769155	26	207	0	-100	0	230	101300000	1000	0	0	-1	1500
13781715	26	204	0	-100	0	230	101300000	1000	0	0	-1	1500
13794275	24	206	0	-100	0	230	101300000	1000	0	0	-1	1500
13806835	21	203	0	-100	0	230	101300000	1000	0	0	-1	1500
13819395	21	207	0	-100	0	230	101300000	1000	0	0	-1	1500
13831955	21	204	0	-100	0	230	101300000	1000	0	0	-1	1500
13844515	24	207	0	-100	0	230	101300000	1000	0	0	-1	1500
13857075	26	203	0	-100	0	230	101300000	1000	0	0	-1	1500
13869635	26	202	0	-100	0	230	101300000	1000	0	0	-1	1500
13882195	24	210	0	-100	0	230	101300000	1000	0	0	-1	1500
13894755	21	205	0	-100	0	230	101300000	1000	0	0	-1	1500
13907315	21	204	0	-100	0	230	101300000	1000	0	0	-1	1500
13919875	26	210	0	-100	0	230	101300000	1000	0	0	-1	1500
13932435	24	202	0	-100	0	230	101300000	1000	0	0	-1	1500
13944995	24	208	0	-100	0	230	101300000	1000	0	0	-1	1500
13957555	24	206	0	-100	0	230	101300000	1000	0	0	-1	1500
13970115	26	202	0	-100	0	230	101300000	1000	0	0	-1	1500
13982675	26	203	0	-100	0	230	101300000	1000	0	0	-1	1500
13995235	26	207	0	-100	0	230	101300000	1000	0	0	-1	1500
14007795	19	203	0	-100	0	230	101300000	1000	0	0	-1	1500
14020355	16	207	0	-100	0	230	101300000	1000	0	0	-1	1500
14032915	19	205	0	-100	0	230	101300000	1000	0	0	-1	1500
14045475	16	205	0	-100	0	230	101300000	1000	0	0	-1	1500
14058035	19	203	0	-100	0	230	101300000	1000	0	0	-1	1500
14070595	16	206	0	-100	0	230	101300000	1000	0	0	-1	1500
14083155	21	204	0	-100	0	230	101300000	1000	0	0	-1	1500
14095715	21	205	0	-100	0	230	101300000	1000	0	0	-1	1500
14108275	19	205	0	-100	0	230	101300000	1000	0	0	-1	1500
14120835	16	208	0	-100	0	230	101300000	1000	0	0	-1	1500
14133395	16	206	0	-100	0	230	101300000	1000	0	0	-1	1500
14145955	21	206	0	-100	0	230	101300000	1000	0	0	-1	1500
14158515	16	209	0	-100	0	230	101300000	1000	0	0	-1	1500
14171075	19	204	0	-100	0	230	101300000	1000	0	0	-1	1500
14183635	16	207	0	-100	0	230	101300000	1000	0	0	-1	1500
14196195	16	209	0	-100	0	230	101300000	1000	0	0	-1	1500
14208755	21	209	0	-100	0	230	101300000	1000	0	0	-1	1500
14221315	19	207	0	-100	0	230	101300000	1000	0	0	-1	1500
14233875	19	207	0	-100	0	230	101300000	1000	0	0	-1	1500
14246435	19	208	0	-100	0	230	101300000	1000	0	0	-1	1500
14258995	19	201	0	-100	0	230	101300000	1000	0	0	-1	1500
14271555	19	207	0	-100	0	230	101300000	1000	0	0	-1	1500
14284115	19	205	0	-100	0	230	101300000	1000	0	0	-1	1500
14296675	19	208	0	-100	0	230	101300000	1000	0	0	-1	1500
14309235	19	208	0	-100	0	230	101300000	1000	0	0	-1	1500
14321795	16	208	0	-100	0	230	101300000	1000	0	0	-1	1500
14334355	16	208	0	-100	0	230	101300000	1000	0	0	-1	1500
14346915	21	202	0	-100	0	230	101300000	1000	0	0	-1	1500
14359475	19	207	0	-100	0	230	101300000	1000	0	0	-1	1500
14372035	16	207	0	-100	0	230	101300000	1000	0	0	-1	1500
14384595	16	208	0	-100	0	230	101300000	1000	0	0	-1	1500
14397155	16	208	0	-100	0	230	101300000	1000	0	0	-1	1500
14409715	19	207	0	-100	0	230	101300000	1000	0	0	-1	1500
14422275	19	204	0	-100	0	230	101300000	1000	0	0	-1	1500
14434835	16	206	0	-100	0	230	101300000	1000	0	0	-1	1500
14447395	21	204	0	-100	0	230	101300000	1000	0	0	-1	1500
14459955	19	206	0	-100	0	230	101300000	1000	0	0	-1	1500
14472515	19	206	0	-100	0	230	101300000	1000	0	0	-1	1500
14485075	19	208	0	-100	0	230	101300000	1000	0	0	-1	1500
14497635	19	210	0	-100	0	230	101300000	1000	0	0	-1	1500
14510195	19	207	0	-100	0	230	101300000	1000	0	0	-1	1500
14522755	21	205	0	-100	0	230	101300000	1000	0	0	-1	1500
14535315	26	203	0	-100	0	230	101300000	1000	0	0	-1	1500
14547875	24	201	0	-100	0	230	101300000	1000	0	0	-1	1500
14560435	24	203	0	-100	0	230	101300000	1000	0	0	-1	1500
14572995	21	208	0	-100	0	230	101300000	1000	0	0	-1	1500
14585555	24	206	0	-100	0	230	101300000	1000	0	0	-1	1500
14598115	26	208	0	-100	0	230	101300000	1000	0	0	-1	1500
14610675	26	204	0	-100	0	230	101300000	1000	0	0	-1	1500
14623235	24	202	0	-100	0	230	101300000	1000	0	0	-1	1500
14635795	24	204	0	-100	0	230	101300000	1000	0	0	-1	1500
14648355	24	203	0	-100	0	230	101300000	1000	0	0	-1	1500
14660915	19	202	0	-100	0	230	101300000	1000	0	0	-1	1500
14673475	19	206	0	-100	0	230	101300000	1000	0	0	-1	1500
14686035	19	202	0	-100	0	230	101300000	1000	0	0	-1	1500
14698595	19	204	0	-100	0	230	101300000	1000	0	0	-1	1500
14711155	16	204	0	-100	0	230	101300000	1000	0	0	-1	1500
14723715	19	202	0	-100	0	230	101300000	1000	0	0	-1	1500
14736275	19	207	0	-100	0	230	101300000	1000	0	0	-1	1500
14748835	21	204	0	-100	0	230	101300000	1000	0	0	-1	1500
14761395	26	201	0	-100	0	230	101300000	1000	0	0	-1	1500
14773955	26	202	0	-100	0	230	101300000	1000	0	0	-1	1500
14786515	24	205	0	-100	0	230	101300000	1000	0	0	-1	1500
14799075	24	202	0	-100	0	230	101300000	1000	0	0	-1	1500
14811635	24	201	0	-100	0	230	101300000	1000	0	0	-1	1500
14824195	24	202	0	-100	0	230	101300000	1000	0	0	-1	1500
14836755	24	204	0	-100	0	230	101300000	1000	0	0	-1	1500
14849315	19	209	0	-100	0	230	101300000	1000	0	0	-1	1500
14861875	19	208	0	-100	0	230	101300000	1000	0	0	-1	1500
14874435	19	206	0	-100	0	230	101300000	1000	0	0	-1	1500
14886995	19	205	0	-100	0	230	101300000	1000	0	0	-1	1500
14899555	21	208	0	-100	0	230	101300000	1000	0	0	-1	1500
14912115	16	203	0	-100	0	230	101300000	1000	0	0	-1	1500
14924675	19	210	0	-100	0	230	101300000	1000	0	0	-1	1500
14937235	24	202	0	-100	0	230	101300000	1000	0	0	-1	1500
14949795	24	207	0	-100	0	230	101300000	1000	0	0	-1	1500
14962355	24	201	0	-100	0	230	101300000	1000	0	0	-1	1500
14974915	29	206	0	-100	0	230	101300000	1000	0	0	-1	1500
14987475	19	201	0	-100	0	230	101300000	1000	0	0	-1	1500
15000035	19	205	0	-100	0	230	101300000	1000	0	0	-1	1500
15012595	21	206	0	-100	0	230	101300000	1000	0	0	-1	1500
15025155	19	210	0	-100	0	230	101300000	1000	0	0	-1	1500
15037715	21	205	0	-100	0	230	101300000	1000	0	0	-1	1500
15050275	29	202	0	-100	0	230	101300000	1000	0	0	-1	1500
15062835	21	206	0	-100	0	230	101300000	1000	0	0	-1	1500
15075395	19	200	0	-100	0	230	101300000	1000	0	0	-1	1500
15087955	16	207	0	-100	0	230	101300000	1000	0	0	-1	1500
15100515	19	203	0	-100	0	230	101300000	1000	0	0	-1	1500
15113075	19	206	0	-100	0	230	101300000	1000	0	0	-1	1500
15125635	19	206	0	-100	0	230	101300000	1000	0	0	-1	1500
15138195	19	207	0	-100	0	230	101300000	1000	0	0	-1	1500
15150755	16	208	0	-100	0	230	101300000	1000	0	0	-1	1500
15163315	19	204	0	-100	0	230	101300000	1000	0	0	-1	1500
15175875	19	208	0	-100	0	230	101300000	1000	0	0	-1	1500
15188435	21	206	0	-100	0	230	101300000	1000	0	0	-1	1500
15200995	21	208	0	-100	0	230	101300000	1000	0	0	-1	1500
15213555	19	206	0	-100	0	230	101300000	1000	0	0	-1	1500
15226115	14	207	0	-100	0	230	101300000	1000	0	0	-1	1500
15238675	21	205	0	-100	0	230	101300000	1000	0	0	-1	1500
15251235	24	204	0	-100	0	230	101300000	1000	0	0	-1	1500
15263795	24	202	0	-100	0	230	101300000	1000	0	0	-1	1500
15276355	21	206	0	-100	0	230	101300000	1000	0	0	-1	1500
15288915	19	206	0	-100	0	230	101300000	1000	0	0	-1	1500
15301475	19	207	0	-100	0	230	101300000	1000	0	0	-1	1500
15314035	26	203	0	-100	0	230	101300000	1000	0	0	-1	1500
15326595	19	206	0	-100	0	230	101300000	1000	0	0	-1	1500
15339155	19	202	0	-100	0	230	101300000	1000	0	0	-1	1500
15351715	24	202	0	-100	0	230	101300000	1000	0	0	-1	1500
15364275	21	205	0	-100	0	230	101300000	1000	0	0	-1	1500
15376835	19	202	0	-100	0	230	101300000	1000	0	0	-1	1500
15389395	24	203	0	-100	0	230	101300000	1000	0	0	-1	1500
15401955	19	210	0	-100	0	230	101300000	1000	0	0	-1	1500
15414515	19	201	0	-100	0	230	101300000	1000	0	0	-1	1500
15427075	26	202	0	-100	0	230	101300000	1000	0	0	-1	1500
15439635	21	202	0	-100	0	230	101300000	1000	0	0	-1	1500
15452195	16	206	0	-100	0	230	101300000	1000	0	0	-1	1500
15464755	19	210	0	-100	0	230	101300000	1000	0	0	-1	1500
15477315	16	207	0	-100	0	230	101300000	1000	0	0	-1	1500
15489875	19	206	0	-100	0	230	101300000	1000	0	0	-1	1500
15502435	19	205	0	-100	0	230	101300000	1000	0	0	-1	1500
15514995	19	208	0	-100	0	230	101300000	1000	0	0	-1	1500
15527555	21	207	0	-100	0	230	101300000	1000	0	0	-1	1500
15540115	21	204	0	-100	0	230	101300000	1000	0	0	-1	1500
15552675	14	207	0	-100	0	230	101300000	1000	0	0	-1	1500
15565235	19	206	0	-100	0	230	101300000	1000	0	0	-1	1500
15577795	16	206	0	-100	0	230	101300000	1000	0	0	-1	1500
15590355	19	209	0	-100	0	230	101300000	1000	0	0	-1	1500
15602915	19	207	0	-100	0	230	101300000	1000	0	0	-1	1500
15615475	26	201	0	-100	0	230	101300000	1000	0	0	-1	1500
15628035	26	205	0	-100	0	230	101300000	1000	0	0	-1	1500
15640595	24	206	0	-100	0	230	101300000	1000	0	0	-1	1500
15653155	16	205	0	-100	0	230	101300000	1000	0	0	-1	1500
15665715	19	203	0	-100	0	230	101300000	1000	0	0	-1	1500
15678275	19	204	0	-100	0	230	101300000	1000	0	0	-1	1500
15690835	19	210	0	-100	0	230	101300000	1000	0	0	-1	1500
15703395	19	207	0	-100	0	230	101300000	1000	0	0	-1	1500
15715955	24	202	0	-100	0	230	101300000	1000	0	0	-1	1500
15728515	24	205	0	-100	0	230	101300000	1000	0	0	-1	1500
15741075	29	204	0	-100	0	230	101300000	1000	0	0	-1	1500
15753635	24	202	0	-100	0	230	101300000	1000	0	0	-1	1500
15766195	24	207	0	-100	0	230	101300000	1000	0	0	-1	1500
15778755	16	206	0	-100	0	230	101300000	1000	0	0	-1	1500
15791315	16	206	0	-100	0	230	101300000	1000	0	0	-1	1500
15803875	19	207	0	-100	0	230	101300000	1000	0	0	-1	1500
15816435	19	207	0	-100	0	230	101300000	1000	0	0	-1	1500
15828995	19	204	0	-100	0	230	101300000	1000	0	0	-1	1500
15841555	24	204	0	-100	0	230	101300000	1000	0	0	-1	1500
15854115	24	205	0	-100	0	230	101300000	1000	0	0	-1	1500
15866675	24	202	0	-100	0	230	101300000	1000	0	0	-1	1500
15879235	24	203	0	-100	0	230	101300000	1000	0	0	-1	1500
15891795	19	203	0	-100	0	230	101300000	1000	0	0	-1	1500
15904355	16	207	0	-100	0	230	101300000	1000	0	0	-1	1500
15916915	19	206	0	-100	0	230	101300000	1000	0	0	-1	1500
15929475	19	206	0	-100	0	230	101300000	1000	0	0	-1	1500
15942035	21	206	0	-100	0	230	101300000	1000	0	0	-1	1500
15954595	16	206	0	-100	0	230	101300000	1000	0	0	-1	1500
15967155	21	202	0	-100	0	230	101300000	1000	0	0	-1	1500
15979715	24	207	0	-100	0	230	101300000	1000	0	0	-1	1500
15992275	26	206	0	-100	0	230	101300000	1000	0	0	-1	1500
16004835	24	203	0	-100	0	230	101300000	1000	0	0	-1	1500
16017395	24	199	0	-100	0	230	101300000	1000	0	0	-1	1500
16029955	26	201	0	-100	0	230	101300000	1000	0	0	-1	1500
16042515	24	206	0	-100	0	230	101300000	1000	0	0	-1	1500
16055075	19	202	0	-100	0	230	101300000	1000	0	0	-1	1500
16067635	21	206	0	-100	0	230	101300000	1000	0	0	-1	1500
16080195	19	202	0	-100	0	230	101300000	1000	0	0	-1	1500
16092755	24	205	0	-100	0	230	101300000	1000	0	0	-1	1500
16105315	21	205	0	-100	0	230	101300000	1000	0	0	-1	1500
16117875	26	206	0	-100	0	230	101300000	1000	0	0	-1	1500
16130435	21	205	0	-100	0	230	101300000	1000	0	0	-1	1500
16142995	19	207	0	-100	0	230	101300000	1000	0	0	-1	1500
16155555	19	202	0	-100	0	230	101300000	1000	0	0	-1	1500
16168115	16	207	0	-100	0	230	101300000	1000	0	0	-1	1500
16180675	19	202	0	-100	0	230	101300000	1000	0	0	-1	1500
16193235	16	207	0	-100	0	230	101300000	1000	0	0	-1	1500
16205795	19	207	0	-100	0	230	101300000	1000	0	0	-1	1500
16218355	19	205	0	-100	0	230	101300000	1000	0	0	-1	1500
16230915	16	210	0	-100	0	230	101300000	1000	0	0	-1	1500
16243475	19	206	0	-100	0	230	101300000	1000	0	0	-1	1500
16256035	19	206	0	-100	0	230	101300000	1000	0	0	-1	1500
16268595	19	208	0	-100	0	230	101300000	1000	0	0	-1	1500
16281155	16	205	0	-100	0	230	101300000	1000	0	0	-1	1500
16293715	16	205	0	-100	0	230	101300000	1000	0	0	-1	1500
16306275	19	208	0	-100	0	230	101300000	1000	0	0	-1	1500
16318835	24	203	0	-100	0	230	101300000	1000	0	0	-1	1500
16331395	26	201	0	-100	0	230	101300000	1000	0	0	-1	1500
16343955	24	207	0	-100	0	230	101300000	1000	0	0	-1	1500
16356515	21	206	0	-100	0	230	101300000	1000	0	0	-1	1500
16369075	16	205	0	-100	0	230	101300000	1000	0	0	-1	1500
16381635	19	207	0	-100	0	230	101300000	1000	0	0	-1	1500
16394195	16	206	0	-100	0	230	101300000	1000	0	0	-1	1500
16406755	24	202	0	-100	0	230	101300000	1000	0	0	-1	1500
16419315	26	202	0	-100	0	230	101300000	1000	0	0	-1	1500
16431875	21	204	0	-100	0	230	101300000	1000	0	0	-1	1500
16444435	16	205	0	-100	0	230	101300000	1000	0	0	-1	1500
16456995	16	208	0	-100	0	230	101300000	1000	0	0	-1	1500
16469555	16	206	0	-100	0	230	101300000	1000	0	0	-1	1500
16482115	14	206	0	-100	0	230	101300000	1000	0	0	-1	1500
16494675	19	206	0	-100	0	230	101300000	1000	0	0	-1	1500
16507235	19	206	0	-100	0	230	101300000	1000	0	0	-1	1500
16519795	21	206	0	-100	0	230	101300000	1000	0	0	-1	1500
16532355	19	202	0	-100	0	230	101300000	1000	0	0	-1	1500
16544915	19	202	0	-100	0	230	101300000	1000	0	0	-1	1500
16557475	26	208	0	-100	0	230	101300000	1000	0	0	-1	1500
16570035	26	202	0	-100	0	230	101300000	1000	0	0	-1	1500
16582595	24	204	0	-100	0	230	101300000	1000	0	0	-1	1500
16595155	21	204	0	-100	0	230	101300000	1000	0	0	-1	1500
16607715	19	206	0	-100	0	230	101300000	1000	0	0	-1	1500
16620275	19	207	0	-100	0	230	101300000	1000	0	0	-1	1500
16632835	19	206	0	-100	0	230	101300000	1000	0	0	-1	1500
16645395	16	206	0	-100	0	230	101300000	1000	0	0	-1	1500
16657955	19	206	0	-100	0	230	101300000	1000	0	0	-1	1500
16670515	19	202	0	-100	0	230	101300000	1000	0	0	-1	1500
16683075	19	207	0	-100	0	230	101300000	1000	0	0	-1	1500
16695635	16	208	0	-100	0	230	101300000	1000	0	0	-1	1500
16708195	16	205	0	-100	0	230	101300000	1000	0	0	-1	1500
16720755	16	207	0	-100	0	230	101300000	1000	0	0	-1	1500
16733315	21	207	0	-100	0	230	101300000	1000	0	0	-1	1500
16745875	26	204	0	-100	0	230	101300000	1000	0	0	-1	1500
16758435	24	207	0	-100	0	230	101300000	1000	0	0	-1	1500
16770995	21	205	0	-100	0	230	101300000	1000	0	0	-1	1500
16783555	19	208	0	-100	0	230	101300000	1000	0	0	-1	1500
16796115	19	207	0	-100	0	230	101300000	1000	0	0	-1	1500
16808675	21	206	0	-100	0	230	101300000	1000	0	0	-1	1500
16821235	19	205	0	-100	0	230	101300000	1000	0	0	-1	1500
16833795	16	208	0	-100	0	230	101300000	1000	0	0	-1	1500
16846355	16	208	0	-100	0	230	101300000	1000	0	0	-1	1500
16858915	19	204	0	-100	0	230	101300000	1000	0	0	-1	1500
16871475	19	205	0	-100	0	230	101300000	1000	0	0	-1	1500
16884035	19	203	0	-100	0	230	101300000	1000	0	0	-1	1500
16896595	19	206	0	-100	0	230	101300000	1000	0	0	-1	1500
16909155	19	202	0	-100	0	230	101300000	1000	0	0	-1	1500
16921715	21	203	0	-100	0	230	101300000	1000	0	0	-1	1500
16934275	21	205	0	-100	0	230	101300000	1000	0	0	-1	1500
16946835	21	205	0	-100	0	230	101300000	1000	0	0	-1	1500
16959395	19	202	0	-100	0	230	101300000	1000	0	0	-1	1500
16971955	19	201	0	-100	0	230	101300000	1000	0	0	-1	1500
16984515	19	200	0	-100	0	230	101300000	1000	0	0	-1	1500
16997075	19	203	0	-100	0	230	101300000	1000	0	0	-1	1500
17009635	21	206	0	-100	0	230	101300000	1000	0	0	-1	1500
17022195	21	206	0	-100	0	230	101300000	1000	0	0	-1	1500
17034755	19	202	0	-100	0	230	101300000	1000	0	0	-1	1500
17047315	19	200	0	-100	0	230	101300000	1000	0	0	-1	1500
17059875	29	207	0	-100	0	230	101300000	1000	0	0	-1	1500
17072435	26	205	0	-100	0	230	101300000	1000	0	0	-1	1500
17084995	24	208	0	-100	0	230	101300000	1000	0	0	-1	1500
17097555	26	206	0	-100	0	230	101300000	1000	0	0	-1	1500
17110115	26	205	0	-100	0	230	101300000	1000	0	0	-1	1500
17122675	24	207	0	-100	0	230	101300000	1000	0	0	-1	1500
17135235	24	206	0	-100	0	230	101300000	1000	0	0	-1	1500
17147795	19	203	0	-100	0	230	101300000	1000	0	0	-1	1500
17160355	16	207	0	-100	0	230	101300000	1000	0	0	-1	1500
17172915	19	209	0	-100	0	230	101300000	1000	0	0	-1	1500
17185475	16	203	0	-100	0	230	101300000	1000	0	0	-1	1500
17198035	19	209	0	-100	0	230	101300000	1000	0	0	-1	1500
17210595	24	202	0	-100	0	230	101300000	1000	0	0	-1	1500
17223155	24	205	0	-100	0	230	101300000	1000	0	0	-1	1500
17235715	26	206	0	-100	0	230	101300000	1000	0	0	-1	1500
17248275	24	201	0	-100	0	230	101300000	1000	0	0	-1	1500
17260835	26	208	0	-100	0	230	101300000	1000	0	0	-1	1500
17273395	24	206	0	-100	0	230	101300000	1000	0	0	-1	1500
17285955	19	201	0	-100	0	230	101300000	1000	0	0	-1	1500
17298515	16	206	0	-100	0	230	101300000	1000	0	0	-1	1500
17311075	19	207	0	-100	0	230	101300000	1000	0	0	-1	1500
17323635	21	203	0	-100	0	230	101300000	1000	0	0	-1	1500
17336195	24	207	0	-100	0	230	101300000	1000	0	0	-1	1500
17348755	26	203	0	-100	0	230	101300000	1000	0	0	-1	1500
17361315	24	204	0	-100	0	230	101300000	1000	0	0	-1	1500
17373875	24	204	0	-100	0	230	101300000	1000	0	0	-1	1500
17386435	24	206	0	-100	0	230	101300000	1000	0	0	-1	1500
17398995	19	208	0	-100	0	230	101300000	1000	0	0	-1	1500
17411555	19	205	0	-100	0	230	101300000	1000	0	0	-1	1500
17424115	16	206	0	-100	0	230	101300000	1000	0	0	-1	1500
17436675	16	208	0	-100	0	230	101300000	1000	0	0	-1	1500
17449235	19	206	0	-100	0	230	101300000	1000	0	0	-1	1500
17461795	19	206	0	-100	0	230	101300000	1000	0	0	-1	1500
17474355	19	209	0	-100	0	230	101300000	1000	0	0	-1	1500
17486915	16	206	0	-100	0	230	101300000	1000	0	0	-1	1500
17499475	16	206	0	-100	0	230	101300000	1000	0	0	-1	1500
17512035	19	207	0	-100	0	230	101300000	1000	0	0	-1	1500
17524595	19	207	0	-100	0	230	101300000	1000	0	0	-1	1500
17537155	19	204	0	-100	0	230	101300000	1000	0	0	-1	1500
17549715	24	202	0	-100	0	230	101300000	1000	0	0	-1	1500
17562275	24	204	0	-100	0	230	101300000	1000	0	0	-1	1500
17574835	24	204	0	-100	0	230	101300000	1000	0	0	-1	1500
17587395	24	204	0	-100	0	230	101300000	1000	0	0	-1	1500
17599955	26	202	0	-100	0	230	101300000	1000	0	0	-1	1500
17612515	24	201	0	-100	0	230	101300000	1000	0	0	-1	1500
17625075	26	200	0	-100	0	230	101300000	1000	0	0	-1	1500
17637635	26	200	0	-100	0	230	101300000	1000	0	0	-1	1500
17650195	29	204	0	-100	0	230	101300000	1000	0	0	-1	1500
17662755	24	204	0	-100	0	230	101300000	1000	0	0	-1	1500
17675315	24	203	0	-100	0	230	101300000	1000	0	0	-1	1500
17687875	19	206	0	-100	0	230	101300000	1000	0	0	-1	1500
17700435	19	208	0	-100	0	230	101300000	1000	0	0	-1	1500
17712995	19	202	0	-100	0	230	101300000	1000	0	0	-1	1500
17725555	16	207	0	-100	0	230	101300000	1000	0	0	-1	1500
17738115	16	206	0	-100	0	230	101300000	1000	0	0	-1	1500
17750675	16	206	0	-100	0	230	101300000	1000	0	0	-1	1500
17763235	24	207	0	-100	0	230	101300000	1000	0	0	-1	1500
17775795	19	206	0	-100	0	230	101300000	1000	0	0	-1	1500
17788355	19	208	0	-100	0	230	101300000	1000	0	0	-1	1500
17800915	19	208	0	-100	0	230	101300000	1000	0	0	-1	1500
17813475	19	207	0	-100	0	230	101300000	1000	0	0	-1	1500
17826035	19	208	0	-100	0	230	101300000	1000	0	0	-1	1500
17838595	19	208	0	-100	0	230	101300000	1000	0	0	-1	1500
17851155	19	206	0	-100	0	230	101300000	1000	0	0	-1	1500
17863715	21	205	0	-100	0	230	101300000	1000	0	0	-1	1500
17876275	19	204	0	-100	0	230	101300000	1000	0	0	-1	1500
17888835	16	207	0	-100	0	230	101300000	1000	0	0	-1	1500
17901395	26	206	0	-100	0	230	101300000	1000	0	0	-1	1500
17913955	26	206	0	-100	0	230	101300000	1000	0	0	-1	1500
17926515	24	203	0	-100	0	230	101300000	1000	0	0	-1	1500
17939075	24	202	0	-100	0	230	101300000	1000	0	0	-1	1500
17951635	24	201	0	-100	0	230	101300000	1000	0	0	-1	1500
17964195	24	203	0	-100	0	230	101300000	1000	0	0	-1	1500
17976755	24	203	0	-100	0	230	101300000	1000	0	0	-1	1500
17989315	21	203	0	-100	0	230	101300000	1000	0	0	-1	1500
18001875	24	203	0	-100	0	230	101300000	1000	0	0	-1	1500
18014435	21	204	0	-100	0	230	101300000	1000	0	0	-1	1500
18026995	19	204	0	-100	0	230	101300000	1000	0	0	-1	1500
18039555	21	204	0	-100	0	230	101300000	1000	0	0	-1	1500
18052115	21	203	0	-100	0	230	101300000	1000	0	0	-1	1500
18064675	21	204	0	-100	0	230	101300000	1000	0	0	-1	1500
18077235	21	203	0	-100	0	230	101300000	1000	0	0	-1	1500
18089795	24	201	0	-100	0	230	101300000	1000	0	0	-1	1500
18102355	24	204	0	-100	0	230	101300000	1000	0	0	-1	1500
18114915	24	201	0	-100	0	230	101300000	1000	0	0	-1	1500
18127475	26	204	0	-100	0	230	101300000	1000	0	0	-1	1500
18140035	24	203	0	-100	0	230	101300000	1000	0	0	-1	1500
18152595	24	204	0	-100	0	230	101300000	1000	0	0	-1	1500
18165155	24	204	0	-100	0	230	101300000	1000	0	0	-1	1500
18177715	21	203	0	-100	0	230	101300000	1000	0	0	-1	1500
18190275	21	203	0	-100	0	230	101300000	1000	0	0	-1	1500
18202835	21	202	0	-100	0	230	101300000	1000	0	0	-1	1500
18215395	21	205	0	-100	0	230	101300000	1000	0	0	-1	1500
18227955	19	208	0	-100	0	230	101300000	1000	0	0	-1	1500
18240515	19	206	0	-100	0	230	101300000	1000	0	0	-1	1500
18253075	19	208	0	-100	0	230	101300000	1000	0	0	-1	1500
18265635	19	204	0	-100	0	230	101300000	1000	0	0	-1	1500
18278195	19	202	0	-100	0	230	101300000	1000	0	0	-1	1500
18290755	21	206	0	-100	0	230	101300000	1000	0	0	-1	1500
18303315	24	207	0	-100	0	230	101300000	1000	0	0	-1	1500
18315875	26	204	0	-100	0	230	101300000	1000	0	0	-1	1500
18328435	26	205	0	-100	0	230	101300000	1000	0	0	-1	1500
18340995	24	205	0	-100	0	230	101300000	1000	0	0	-1	1500
18353555	21	205	0	-100	0	230	101300000	1000	0	0	-1	1500
18366115	16	206	0	-100	0	230	101300000	1000	0	0	-1	1500
18378675	19	207	0	-100	0	230	101300000	1000	0	0	-1	1500
18391235	19	204	0	-100	0	230	101300000	1000	0	0	-1	1500
18403795	21	206	0	-100	0	230	101300000	1000	0	0	-1	1500
18416355	26	203	0	-100	0	230	101300000	1000	0	0	-1	1500
18428915	26	205	0	-100	0	230	101300000	1000	0	0	-1	1500
18441475	21	205	0	-100	0	230	101300000	1000	0	0	-1	1500
18454035	21	202	0	-100	0	230	101300000	1000	0	0	-1	1500
18466595	19	208	0	-100	0	230	101300000	1000	0	0	-1	1500
18479155	16	206	0	-100	0	230	101300000	1000	0	0	-1	1500
18491715	19	207	0	-100	0	230	101300000	1000	0	0	-1	1500
18504275	16	207	0	-100	0	230	101300000	1000	0	0	-1	1500
18516835	16	205	0	-100	0	230	101300000	1000	0	0	-1	1500
18529395	19	201	0	-100	0	230	101300000	1000	0	0	-1	1500
18541955	24	202	0	-100	0	230	101300000	1000	0	0	-1	1500
18554515	26	202	0	-100	0	230	101300000	1000	0	0	-1	1500
18567075	24	206	0	-100	0	230	101300000	1000	0	0	-1	1500
18579635	19	205	0	-100	0	230	101300000	1000	0	0	-1	1500
18592195	24	207	0	-100	0	230	101300000	1000	0	0	-1	1500
18604755	19	206	0	-100	0	230	101300000	1000	0	0	-1	1500
18617315	26	208	0	-100	0	230	101300000	1000	0	0	-1	1500
18629875	24	202	0	-100	0	230	101300000	1000	0	0	-1	1500
18642435	26	203	0	-100	0	230	101300000	1000	0	0	-1	1500
18654995	21	204	0	-100	0	230	101300000	1000	0	0	-1	1500
18667555	19	209	0	-100	0	230	101300000	1000	0	0	-1	1500
18680115	16	206	0	-100	0	230	101300000	1000	0	0	-1	1500
18692675	21	203	0	-100	0	230	101300000	1000	0	0	-1	1500
18705235	26	204	0	-100	0	230	101300000	1000	0	0	-1	1500
18717795	26	205	0	-100	0	230	101300000	1000	0	0	-1	1500
18730355	24	203	0	-100	0	230	101300000	1000	0	0	-1	1500
18742915	24	203	0	-100	0	230	101300000	1000	0	0	-1	1500
18755475	24	206	0	-100	0	230	101300000	1000	0	0	-1	1500
18768035	19	207	0	-100	0	230	101300000	1000	0	0	-1	1500
18780595	19	207	0	-100	0	230	101300000	1000	0	0	-1	1500
18793155	19	202	0	-100	0	230	101300000	1000	0	0	-1	1500
18805715	19	206	0	-100	0	230	101300000	1000	0	0	-1	1500
18818275	26	202	0	-100	0	230	101300000	1000	0	0	-1	1500
18830835	21	204	0	-100	0	230	101300000	1000	0	0	-1	1500
18843395	21	209	0	-100	0	230	101300000	1000	0	0	-1	1500
18855955	21	209	0	-100	0	230	101300000	1000	0	0	-1	1500
18868515	19	204	0	-100	0	230	101300000	1000	0	0	-1	1500
18881075	21	206	0	-100	0	230	101300000	1000	0	0	-1	1500
18893635	29	204	0	-100	0	230	101300000	1000	0	0	-1	1500
18906195	24	205	0	-100	0	230	101300000	1000	0	0	-1	1500
18918755	16	205	0	-100	0	230	101300000	1000	0	0	-1	1500
18931315	16	209	0	-100	0	230	101300000	1000	0	0	-1	1500
18943875	19	201	0	-100	0	230	101300000	1000	0	0	-1	1500
18956435	19	206	0	-100	0	230	101300000	1000	0	0	-1	1500
18968995	26	206	0	-100	0	230	101300000	1000	0	0	-1	1500
18981555	26	201	0	-100	0	230	101300000	1000	0	0	-1	1500
18994115	24	205	0	-100	0	230	101300000	1000	0	0	-1	1500
19006675	24	202	0	-100	0	230	101300000	1000	0	0	-1	1500
19019235	24	202	0	-100	0	230	101300000	1000	0	0	-1	1500
19031795	24	202	0	-100	0	230	101300000	1000	0	0	-1	1500
19044355	24	202	0	-100	0	230	101300000	1000	0	0	-1	1500
19056915	26	204	0	-100	0	230	101300000	1000	0	0	-1	1500
19069475	24	201	0	-100	0	230	101300000	1000	0	0	-1	1500
19082035	26	202	0	-100	0	230	101300000	1000	0	0	-1	1500
19094595	26	206	0	-100	0	230	101300000	1000	0	0	-1	1500
19107155	19	204	0	-100	0	230	101300000	1000	0	0	-1	1500
19119715	19	205	0	-100	0	230	101300000	1000	0	0	-1	1500
19132275	16	205	0	-100	0	230	101300000	1000	0	0	-1	1500
19144835	16	206	0	-100	0	230	101300000	1000	0	0	-1	1500
19157395	19	204	0	-100	0	230	101300000	1000	0	0	-1	1500
19169955	16	209	0	-100	0	230	101300000	1000	0	0	-1	1500
19182515	16	207	0	-100	0	230	101300000	1000	0	0	-1	1500
19195075	21	210	0	-100	0	230	101300000	1000	0	0	-1	1500
19207635	24	208	0	-100	0	230	101300000	1000	0	0	-1	1500
19220195	16	206	0	-100	0	230	101300000	1000	0	0	-1	1500
19232755	21	208	0	-100	0	230	101300000	1000	0	0	-1	1500
19245315	26	204	0	-100	0	230	101300000	1000	0	0	-1	1500
19257875	26	202	0	-100	0	230	101300000	1000	0	0	-1	1500
19270435	24	206	0	-100	0	230	101300000	1000	0	0	-1	1500
19282995	19	209	0	-100	0	230	101300000	1000	0	0	-1	1500
19295555	16	206	0	-100	0	230	101300000	1000	0	0	-1	1500
19308115	16	204	0	-100	0	230	101300000	1000	0	0	-1	1500
19320675	16	206	0	-100	0	230	101300000	1000	0	0	-1	1500
19333235	19	207	0	-100	0	230	101300000	1000	0	0	-1	1500
19345795	16	207	0	-100	0	230	101300000	1000	0	0	-1	1500
19358355	16	209	0	-100	0	230	101300000	1000	0	0	-1	1500
19370915	16	208	0	-100	0	230	101300000	1000	0	0	-1	1500
19383475	16	206	0	-100	0	230	101300000	1000	0	0	-1	1500
19396035	19	208	0	-100	0	230	101300000	1000	0	0	-1	1500
19408595	26	204	0	-100	0	230	101300000	1000	0	0	-1	1500
19421155	26	206	0	-100	0	230	101300000	1000	0	0	-1	1500
19433715	19	201	0	-100	0	230	101300000	1000	0	0	-1	1500
19446275	16	206	0	-100	0	230	101300000	1000	0	0	-1	1500
19458835	19	207	0	-100	0	230	101300000	1000	0	0	-1	1500
19471395	19	210	0	-100	0	230	101300000	1000	0	0	-1	1500
19483955	19	207	0	-100	0	230	101300000	1000	0	0	-1	1500
19496515	24	205	0	-100	0	230	101300000	1000	0	0	-1	1500
19509075	29	203	0	-100	0	230	101300000	1000	0	0	-1	1500
19521635	24	206	0	-100	0	230	101300000	1000	0	0	-1	1500
19534195	26	204	0	-100	0	230	101300000	1000	0	0	-1	1500
19546755	19	201	0	-100	0	230	101300000	1000	0	0	-1	1500
19559315	16	207	0	-100	0	230	101300000	1000	0	0	-1	1500
19571875	19	205	0	-100	0	230	101300000	1000	0	0	-1	1500
19584435	21	208	0	-100	0	230	101300000	1000	0	0	-1	1500
19596995	19	203	0	-100	0	230	101300000	1000	0	0	-1	1500
19609555	24	205	0	-100	0	230	101300000	1000	0	0	-1	1500
19622115	24	200	0	-100	0	230	101300000	1000	0	0	-1	1500
19634675	21	204	0	-100	0	230	101300000	1000	0	0	-1	1500
19647235	16	206	0	-100	0	230	101300000	1000	0	0	-1	1500
19659795	19	206	0	-100	0	230	101300000	1000	0	0	-1	1500
19672355	19	207	0	-100	0	230	101300000	1000	0	0	-1	1500
19684915	21	204	0	-100	0	230	101300000	1000	0	0	-1	1500
19697475	24	205	0	-100	0	230	101300000	1000	0	0	-1	1500
19710035	26	203	0	-100	0	230	101300000	1000	0	0	-1	1500
19722595	21	203	0	-100	0	230	101300000	1000	0	0	-1	1500
19735155	16	209	0	-100	0	230	101300000	1000	0	0	-1	1500
19747715	19	207	0	-100	0	230	101300000	1000	0	0	-1	1500
19760275	21	206	0	-100	0	230	101300000	1000	0	0	-1	1500
19772835	26	207	0	-100	0	230	101300000	1000	0	0	-1	1500
19785395	26	202	0	-100	0	230	101300000	1000	0	0	-1	1500
19797955	26	204	0	-100	0	230	101300000	1000	0	0	-1	1500
19810515	21	205	0	-100	0	230	101300000	1000	0	0	-1	1500
19823075	16	207	0	-100	0	230	101300000	1000	0	0	-1	1500
19835635	16	212	0	-100	0	230	101300000	1000	0	0	-1	1500
19848195	19	208	0	-100	0	230	101300000	1000	0	0	-1	1500
19860755	24	202	0	-100	0	230	101300000	1000	0	0	-1	1500
19873315	21	205	0	-100	0	230	101300000	1000	0	0	-1	1500
19885875	19	205	0	-100	0	230	101300000	1000	0	0	-1	1500
19898435	16	206	0	-100	0	230	101300000	1000	0	0	-1	1500
19910995	24	206	0	-100	0	230	101300000	1000	0	0	-1	1500
19923555	24	207	0	-100	0	230	101300000	1000	0	0	-1	1500
19936115	16	208	0	-100	0	230	101300000	1000	0	0	-1	1500
19948675	21	205	0	-100	0	230	101300000	1000	0	0	-1	1500
19961235	26	206	0	-100	0	230	101300000	1000	0	0	-1	1500
19973795	16	209	0	-100	0	230	101300000	1000	0	0	-1	1500
19986355	16	205	0	-100	0	230	101300000	1000	0	0	-1	1500
19998915	24	206	0	-100	0	230	101300000	1000	0	0	-1	1500
20011475	24	202	0	-100	0	230	101300000	1000	0	0	-1	1500
20024035	19	203	0	-100	0	230	101300000	1000	0	0	-1	1500
20036595	16	206	0	-100	0	230	101300000	1000	0	0	-1	1500
20049155	19	208	0	-100	0	230	101300000	1000	0	0	-1	1500
20061715	19	209	0	-100	0	230	101300000	1000	0	0	-1	1500
20074275	26	203	0	-100	0	230	101300000	1000	0	0	-1	1500
20086835	26	205	0	-100	0	230	101300000	1000	0	0	-1	1500
20099395	26	207	0	-100	0	230	101300000	1000	0	0	-1	1500
20111955	16	208	0	-100	0	230	101300000	1000	0	0	-1	1500
20124515	21	207	0	-100	0	230	101300000	1000	0	0	-1	1500
20137075	21	205	0	-100	0	230	101300000	1000	0	0	-1	1500
20149635	24	207	0	-100	0	230	101300000	1000	0	0	-1	1500
20162195	19	201	0	-100	0	230	101300000	1000	0	0	-1	1500
20174755	19	206	0	-100	0	230	101300000	1000	0	0	-1	1500
20187315	19	207	0	-100	0	230	101300000	1000	0	0	-1	1500
20199875	21	202	0	-100	0	230	101300000	1000	0	0	-1	1500
20212435	24	204	0	-100	0	230	101300000	1000	0	0	-1	1500
20224995	24	207	0	-100	0	230	101300000	1000	0	0	-1	1500
20237555	19	205	0	-100	0	230	101300000	1000	0	0	-1	1500
20250115	19	207	0	-100	0	230	101300000	1000	0	0	-1	1500
20262675	19	207	0	-100	0	230	101300000	1000	0	0	-1	1500
20275235	24	203	0	-100	0	230	101300000	1000	0	0	-1	1500
20287795	26	202	0	-100	0	230	101300000	1000	0	0	-1	1500
20300355	21	206	0	-100	0	230	101300000	1000	0	0	-1	1500
20312915	19	207	0	-100	0	230	101300000	1000	0	0	-1	1500
20325475	16	208	0	-100	0	230	101300000	1000	0	0	-1	1500
20338035	19	209	0	-100	0	230	101300000	1000	0	0	-1	1500
20350595	16	208	0	-100	0	230	101300000	1000	0	0	-1	1500
20363155	24	202	0	-100	0	230	101300000	1000	0	0	-1	1500
20375715	24	205	0	-100	0	230	101300000	1000	0	0	-1	1500
20388275	26	205	0	-100	0	230	101300000	1000	0	0	-1	1500
20400835	16	206	0	-100	0	230	101300000	1000	0	0	-1	1500
20413395	19	207	0	-100	0	230	101300000	1000	0	0	-1	1500
20425955	19	207	0	-100	0	230	101300000	1000	0	0	-1	1500
20438515	19	204	0	-100	0	230	101300000	1000	0	0	-1	1500
20451075	24	203	0	-100	0	230	101300000	1000	0	0	-1	1500
20463635	26	206	0	-100	0	230	101300000	1000	0	0	-1	1500
20476195	26	204	0	-100	0	230	101300000	1000	0	0	-1	1500
20488755	26	203	0	-100	0	230	101300000	1000	0	0	-1	1500
20501315	16	205	0	-100	0	230	101300000	1000	0	0	-1	1500
20513875	16	206	0	-100	0	230	101300000	1000	0	0	-1	1500
20526435	16	208	0	-100	0	230	101300000	1000	0	0	-1	1500
20538995	16	203	0	-100	0	230	101300000	1000	0	0	-1	1500
20551555	19	206	0	-100	0	230	101300000	1000	0	0	-1	1500
20564115	14	207	0	-100	0	230	101300000	1000	0	0	-1	1500
20576675	21	206	0	-100	0	230	101300000	1000	0	0	-1	1500
20589235	24	204	0	-100	0	230	101300000	1000	0	0	-1	1500
20601795	26	201	0	-100	0	230	101300000	1000	0	0	-1	1500
20614355	21	205	0	-100	0	230	101300000	1000	0	0	-1	1500
20626915	19	202	0	-100	0	230	101300000	1000	0	0	-1	1500
20639475	19	200	0	-100	0	230	101300000	1000	0	0	-1	1500
20652035	19	202	0	-100	0	230	101300000	1000	0	0	-1	1500
20664595	19	201	0	-100	0	230	101300000	1000	0	0	-1	1500
20677155	21	205	0	-100	0	230	101300000	1000	0	0	-1	1500
20689715	21	206	0	-100	0	230	101300000	1000	0	0	-1	1500
20702275	21	205	0	-100	0	230	101300000	1000	0	0	-1	1500
20714835	24	206	0	-100	0	230	101300000	1000	0	0	-1	1500
20727395	24	203	0	-100	0	230	101300000	1000	0	0	-1	1500
20739955	16	205	0	-100	0	230	101300000	1000	0	0	-1	1500
20752515	19	203	0	-100	0	230	101300000	1000	0	0	-1	1500
20765075	19	205	0	-100	0	230	101300000	1000	0	0	-1	1500
20777635	19	205	0	-100	0	230	101300000	1000	0	0	-1	1500
20790195	19	206	0	-100	0	230	101300000	1000	0	0	-1	1500
20802755	21	206	0	-100	0	230	101300000	1000	0	0	-1	1500
20815315	19	204	0	-100	0	230	101300000	1000	0	0	-1	1500
20827875	26	207	0	-100	0	230	101300000	1000	0	0	-1	1500
20840435	26	201	0	-100	0	230	101300000	1000	0	0	-1	1500
20852995	24	210	0	-100	0	230	101300000	1000	0	0	-1	1500
20865555	24	206	0	-100	0	230	101300000	1000	0	0	-1	1500
20878115	16	207	0	-100	0	230	101300000	1000	0	0	-1	1500
20890675	19	205	0	-100	0	230	101300000	1000	0	0	-1	1500
20903235	19	203	0	-100	0	230	101300000	1000	0	0	-1	1500
20915795	16	207	0	-100	0	230	101300000	1000	0	0	-1	1500
20928355	16	208	0	-100	0	230	101300000	1000	0	0	-1	1500
20940915	16	207	0	-100	0	230	101300000	1000	0	0	-1	1500
20953475	16	207	0	-100	0	230	101300000	1000	0	0	-1	1500
20966035	16	210	0	-100	0	230	101300000	1000	0	0	-1	1500
20978595	19	205	0	-100	0	230	101300000	1000	0	0	-1	1500
20991155	16	206	0	-100	0	230	101300000	1000	0	0	-1	1500
21003715	16	205	0	-100	0	230	101300000	1000	0	0	-1	1500
21016275	16	205	0	-100	0	230	101300000	1000	0	0	-1	1500
21028835	19	204	0	-100	0	230	101300000	1000	0	0	-1	1500
21041395	16	205	0	-100	0	230	101300000	1000	0	0	-1	1500
21053955	19	206	0	-100	0	230	101300000	1000	0	0	-1	1500
21066515	19	204	0	-100	0	230	101300000	1000	0	0	-1	1500
21079075	19	203	0	-100	0	230	101300000	1000	0	0	-1	1500
21091635	16	207	0	-100	0	230	101300000	1000	0	0	-1	1500
21104195	16	207	0	-100	0	230	101300000	1000	0	0	-1	1500
21116755	19	205	0	-100	0	230	101300000	1000	0	0	-1	1500
21129315	19	204	0	-100	0	230	101300000	1000	0	0	-1	1500
21141875	19	206	0	-100	0	230	101300000	1000	0	0	-1	1500
21154435	19	207	0	-100	0	230	101300000	1000	0	0	-1	1500
21166995	19	207	0	-100	0	230	101300000	1000	0	0	-1	1500
21179555	19	205	0	-100	0	230	101300000	1000	0	0	-1	1500
21192115	14	206	0	-100	0	230	101300000	1000	0	0	-1	1500
21204675	19	206	0	-100	0	230	101300000	1000	0	0	-1	1500
21217235	21	208	0	-100	0	230	101300000	1000	0	0	-1	1500
21229795	21	208	0	-100	0	230	101300000	1000	0	0	-1	1500
21242355	21	206	0	-100	0	230	101300000	1000	0	0	-1	1500
21254915	21	206	0	-100	0	230	101300000	1000	0	0	-1	1500
21267475	19	206	0	-100	0	230	101300000	1000	0	0	-1	1500
21280035	16	205	0	-100	0	230	101300000	1000	0	0	-1	1500
21292595	19	209	0	-100	0	230	101300000	1000	0	0	-1	1500
21305155	19	211	0	-100	0	230	101300000	1000	0	0	-1	1500
21317715	19	203	0	-100	0	230	101300000	1000	0	0	-1	1500
21330275	21	202	0	-100	0	230	101300000	1000	0	0	-1	1500
21342835	24	207	0	-100	0	230	101300000	1000	0	0	-1	1500
21355395	26	206	0	-100	0	230	101300000	1000	0	0	-1	1500
21367955	16	207	0	-100	0	230	101300000	1000	0	0	-1	1500
21380515	21	209	0	-100	0	230	101300000	1000	0	0	-1	1500
21393075	19	206	0	-100	0	230	101300000	1000	0	0	-1	1500
21405635	21	204	0	-100	0	230	101300000	1000	0	0	-1	1500
21418195	19	206	0	-100	0	230	101300000	1000	0	0	-1	1500
21430755	26	204	0	-100	0	230	101300000	1000	0	0	-1	1500
21443315	24	205	0	-100	0	230	101300000	1000	0	0	-1	1500
21455875	24	201	0	-100	0	230	101300000	1000	0	0	-1	1500
21468435	24	205	0	-100	0	230	101300000	1000	0	0	-1	1500
21480995	19	207	0	-100	0	230	101300000	1000	0	0	-1	1500
21493555	16	207	0	-100	0	230	101300000	1000	0	0	-1	1500
21506115	21	208	0	-100	0	230	101300000	1000	0	0	-1	1500
21518675	21	203	0	-100	0	230	101300000	1000	0	0	-1	1500
21531235	26	202	0	-100	0	230	101300000	1000	0	0	-1	1500
21543795	21	204	0	-100	0	230	101300000	1000	0	0	-1	1500
21556355	16	207	0	-100	0	230	101300000	1000	0	0	-1	1500
21568915	19	203	0	-100	0	230	101300000	1000	0	0	-1	1500
21581475	21	207	0	-100	0	230	101300000	1000	0	0	-1	1500
21594035	19	206	0	-100	0	230	101300000	1000	0	0	-1	1500
21606595	21	202	0	-100	0	230	101300000	1000	0	0	-1	1500
21619155	24	204	0	-100	0	230	101300000	1000	0	0	-1	1500
21631715	26	206	0	-100	0	230	101300000	1000	0	0	-1	1500
21644275	19	206	0	-100	0	230	101300000	1000	0	0	-1	1500
21656835	16	205	0	-100	0	230	101300000	1000	0	0	-1	1500
21669395	16	208	0	-100	0	230	101300000	1000	0	0	-1	1500
21681955	19	208	0	-100	0	230	101300000	1000	0	0	-1	1500
21694515	19	206	0	-100	0	230	101300000	1000	0	0	-1	1500
21707075	21	204	0	-100	0	230	101300000	1000	0	0	-1	1500
21719635	21	202	0	-100	0	230	101300000	1000	0	0	-1	1500
21732195	29	208	0	-100	0	230	101300000	1000	0	0	-1	1500
21744755	24	205	0	-100	0	230	101300000	1000	0	0	-1	1500
21757315	16	205	0	-100	0	230	101300000	1000	0	0	-1	1500
21769875	21	206	0	-100	0	230	101300000	1000	0	0	-1	1500
21782435	16	206	0	-100	0	230	101300000	1000	0	0	-1	1500
21794995	21	207	0	-100	0	230	101300000	1000	0	0	-1	1500
21807555	26	202	0	-100	0	230	101300000	1000	0	0	-1	1500
21820115	24	204	0	-100	0	230	101300000	1000	0	0	-1	1500
21832675	21	202	0	-100	0	230	101300000	1000	0	0	-1	1500
21845235	19	204	0	-100	0	230	101300000	1000	0	0	-1	1500
21857795	16	210	0	-100	0	230	101300000	1000	0	0	-1	1500
21870355	19	208	0	-100	0	230	101300000	1000	0	0	-1	1500
21882915	21	208	0	-100	0	230	101300000	1000	0	0	-1	1500
21895475	19	206	0	-100	0	230	101300000	1000	0	0	-1	1500
21908035	19	209	0	-100	0	230	101300000	1000	0	0	-1	1500
21920595	21	202	0	-100	0	230	101300000	1000	0	0	-1	1500
21933155	21	203	0	-100	0	230	101300000	1000	0	0	-1	1500
21945715	21	202	0	-100	0	230	101300000	1000	0	0	-1	1500
21958275	24	204	0	-100	0	230	101300000	1000	0	0	-1	1500
21970835	24	203	0	-100	0	230	101300000	1000	0	0	-1	1500
21983395	21	205	0	-100	0	230	101300000	1000	0	0	-1	1500
21995955	21	205	0	-100	0	230	101300000	1000	0	0	-1	1500
22008515	19	206	0	-100	0	230	101300000	1000	0	0	-1	1500
22021075	21	204	0	-100	0	230	101300000	1000	0	0	-1	1500
22033635	21	203	0	-100	0	230	101300000	1000	0	0	-1	1500
22046195	24	203	0	-100	0	230	101300000	1000	0	0	-1	1500
22058755	21	202	0	-100	0	230	101300000	1000	0	0	-1	1500
22071315	21	205	0	-100	0	230	101300000	1000	0	0	-1	1500
22083875	24	202	0	-100	0	230	101300000	1000	0	0	-1	1500
22096435	29	209	0	-100	0	230	101300000	1000	0	0	-1	1500
22108995	24	210	0	-100	0	230	101300000	1000	0	0	-1	1500
22121555	24	206	0	-100	0	230	101300000	1000	0	0	-1	1500
22134115	21	204	0	-100	0	230	101300000	1000	0	0	-1	1500
22146675	21	207	0	-100	0	230	101300000	1000	0	0	-1	1500
22159235	16	204	0	-100	0	230	101300000	1000	0	0	-1	1500
22171795	16	208	0	-100	0	230	101300000	1000	0	0	-1	1500
22184355	16	210	0	-100	0	230	101300000	1000	0	0	-1	1500
22196915	16	207	0	-100	0	230	101300000	1000	0	0	-1	1500
22209475	16	205	0	-100	0	230	101300000	1000	0	0	-1	1500
22222035	16	205	0	-100	0	230	101300000	1000	0	0	-1	1500
22234595	21	205	0	-100	0	230	101300000	1000	0	0	-1	1500
22247155	21	206	0	-100	0	230	101300000	1000	0	0	-1	1500
22259715	21	203	0	-100	0	230	101300000	1000	0	0	-1	1500
22272275	26	202	0	-100	0	230	101300000	1000	0	0	-1	1500
22284835	24	204	0	-100	0	230	101300000	1000	0	0	-1	1500
22297395	26	204	0	-100	0	230	101300000	1000	0	0	-1	1500
22309955	19	202	0	-100	0	230	101300000	1000	0	0	-1	1500
22322515	21	208	0	-100	0	230	101300000	1000	0	0	-1	1500
22335075	21	206	0	-100	0	230	101300000	1000	0	0	-1	1500
22347635	16	207	0	-100	0	230	101300000	1000	0	0	-1	1500
22360195	21	202	0	-100	0	230	101300000	1000	0	0	-1	1500
22372755	24	205	0	-100	0	230	101300000	1000	0	0	-1	1500
22385315	24	198	0	-100	0	230	101300000	1000	0	0	-1	1500
22397875	21	205	0	-100	0	230	101300000	1000	0	0	-1	1500
22410435	19	205	0	-100	0	230	101300000	1000	0	0	-1	1500
22422995	19	205	0	-100	0	230	101300000	1000	0	0	-1	1500
22435555	19	206	0	-100	0	230	101300000	1000	0	0	-1	1500
22448115	19	209	0	-100	0	230	101300000	1000	0	0	-1	1500
22460675	16	206	0	-100	0	230	101300000	1000	0	0	-1	1500
22473235	24	203	0	-100	0	230	101300000	1000	0	0	-1	1500
22485795	26	199	0	-100	0	230	101300000	1000	0	0	-1	1500
22498355	24	206	0	-100	0	230	101300000	1000	0	0	-1	1500
22510915	16	207	0	-100	0	230	101300000	1000	0	0	-1	1500
22523475	19	205	0	-100	0	230	101300000	1000	0	0	-1	1500
22536035	19	208	0	-100	0	230	101300000	1000	0	0	-1	1500
22548595	24	205	0	-100	0	230	101300000	1000	0	0	-1	1500
22561155	24	205	0	-100	0	230	101300000	1000	0	0	-1	1500
22573715	26	206	0	-100	0	230	101300000	1000	0	0	-1	1500
22586275	19	206	0	-100	0	230	101300000	1000	0	0	-1	1500
22598835	16	210	0	-100	0	230	101300000	1000	0	0	-1	1500
22611395	21	208	0	-100	0	230	101300000	1000	0	0	-1	1500
22623955	26	205	0	-100	0	230	101300000	1000	0	0	-1	1500
22636515	19	204	0	-100	0	230	101300000	1000	0	0	-1	1500
22649075	19	207	0	-100	0	230	101300000	1000	0	0	-1	1500
22661635	19	204	0	-100	0	230	101300000	1000	0	0	-1	1500
22674195	21	206	0	-100	0	230	101300000	1000	0	0	-1	1500
22686755	19	208	0	-100	0	230	101300000	1000	0	0	-1	1500
22699315	16	209	0	-100	0	230	101300000	1000	0	0	-1	1500
22711875	19	201	0	-100	0	230	101300000	1000	0	0	-1	1500
22724435	26	201	0	-100	0	230	101300000	1000	0	0	-1	1500
22736995	24	206	0	-100	0	230	101300000	1000	0	0	-1	1500
22749555	21	202	0	-100	0	230	101300000	1000	0	0	-1	1500
22762115	19	208	0	-100	0	230	101300000	1000	0	0	-1	1500
22774675	19	203	0	-100	0	230	101300000	1000	0	0	-1	1500
22787235	19	203	0	-100	0	230	101300000	1000	0	0	-1	1500
22799795	24	206	0	-100	0	230	101300000	1000	0	0	-1	1500
22812355	26	203	0	-100	0	230	101300000	1000	0	0	-1	1500
22824915	26	200	0	-100	0	230	101300000	1000	0	0	-1	1500
22837475	24	203	0	-100	0	230	101300000	1000	0	0	-1	1500
22850035	19	210	0	-100	0	230	101300000	1000	0	0	-1	1500
22862595	19	209	0	-100	0	230	101300000	1000	0	0	-1	1500
22875155	21	205	0	-100	0	230	101300000	1000	0	0	-1	1500
22887715	21	207	0	-100	0	230	101300000	1000	0	0	-1	1500
22900275	19	207	0	-100	0	230	101300000	1000	0	0	-1	1500
22912835	21	208	0	-100	0	230	101300000	1000	0	0	-1	1500
22925395	19	204	0	-100	0	230	101300000	1000	0	0	-1	1500
22937955	19	206	0	-100	0	230	101300000	1000	0	0	-1	1500
22950515	21	204	0	-100	0	230	101300000	1000	0	0	-1	1500
22963075	26	207	0	-100	0	230	101300000	1000	0	0	-1	1500
22975635	26	205	0	-100	0	230	101300000	1000	0	0	-1	1500
22988195	24	202	0	-100	0	230	101300000	1000	0	0	-1	1500
23000755	21	204	0	-100	0	230	101300000	1000	0	0	-1	1500
23013315	21	207	0	-100	0	230	101300000	1000	0	0	-1	1500
23025875	19	206	0	-100	0	230	101300000	1000	0	0	-1	1500
23038435	19	205	0	-100	0	230	101300000	1000	0	0	-1	1500
23050995	21	202	0	-100	0	230	101300000	1000	0	0	-1	1500
23063555	24	202	0	-100	0	230	101300000	1000	0	0	-1	1500
23076115	24	203	0	-100	0	230	101300000	1000	0	0	-1	1500
23088675	21	203	0	-100	0	230	101300000	1000	0	0	-1	1500
23101235	19	209	0	-100	0	230	101300000	1000	0	0	-1	1500
23113795	19	203	0	-100	0	230	101300000	1000	0	0	-1	1500
23126355	19	205	0	-100	0	230	101300000	1000	0	0	-1	1500
23138915	26	206	0	-100	0	230	101300000	1000	0	0	-1	1500
23151475	24	201	0	-100	0	230	101300000	1000	0	0	-1	1500
23164035	21	207	0	-100	0	230	101300000	1000	0	0	-1	1500
23176595	16	207	0	-100	0	230	101300000	1000	0	0	-1	1500
23189155	16	203	0	-100	0	230	101300000	1000	0	0	-1	1500
23201715	24	202	0	-100	0	230	101300000	1000	0	0	-1	1500
23214275	21	206	0	-100	0	230	101300000	1000	0	0	-1	1500
23226835	19	207	0	-100	0	230	101300000	1000	0	0	-1	1500
23239395	16	206	0	-100	0	230	101300000	1000	0	0	-1	1500
23251955	19	202	0	-100	0	230	101300000	1000	0	0	-1	1500
23264515	26	206	0	-100	0	230	101300000	1000	0	0	-1	1500
23277075	26	205	0	-100	0	230	101300000	1000	0	0	-1	1500
23289635	24	202	0	-100	0	230	101300000	1000	0	0	-1	1500
23302195	26	206	0	-100	0	230	101300000	1000	0	0	-1	1500
23314755	26	206	0	-100	0	230	101300000	1000	0	0	-1	1500
23327315	19	203	0	-100	0	230	101300000	1000	0	0	-1	1500
23339875	24	205	0	-100	0	230	101300000	1000	0	0	-1	1500
23352435	26	201	0	-100	0	230	101300000	1000	0	0	-1	1500
23364995	24	204	0	-100	0	230	101300000	1000	0	0	-1	1500
23377555	21	205	0	-100	0	230	101300000	1000	0	0	-1	1500
23390115	16	209	0	-100	0	230	101300000	1000	0	0	-1	1500
23402675	21	202	0	-100	0	230	101300000	1000	0	0	-1	1500
23415235	24	203	0	-100	0	230	101300000	1000	0	0	-1	1500
23427795	24	204	0	-100	0	230	101300000	1000	0	0	-1	1500
23440355	21	208	0	-100	0	230	101300000	1000	0	0	-1	1500
23452915	21	205	0	-100	0	230	101300000	1000	0	0	-1	1500
23465475	19	205	0	-100	0	230	101300000	1000	0	0	-1	1500
23478035	16	204	0	-100	0	230	101300000	1000	0	0	-1	1500
23490595	26	204	0	-100	0	230	101300000	1000	0	0	-1	1500
23503155	24	203	0	-100	0	230	101300000	1000	0	0	-1	1500
23515715	19	207	0	-100	0	230	101300000	1000	0	0	-1	1500
23528275	21	206	0	-100	0	230	101300000	1000	0	0	-1	1500
23540835	19	202	0	-100	0	230	101300000	1000	0	0	-1	1500
23553395	29	206	0	-100	0	230	101300000	1000	0	0	-1	1500
23565955	19	206	0	-100	0	230	101300000	1000	0	0	-1	1500
23578515	21	208	0	-100	0	230	101300000	1000	0	0	-1	1500
23591075	19	205	0	-100	0	230	101300000	1000	0	0	-1	1500
23603635	26	204	0	-100	0	230	101300000	1000	0	0	-1	1500
23616195	21	201	0	-100	0	230	101300000	1000	0	0	-1	1500
23628755	21	206	0	-100	0	230	101300000	1000	0	0	-1	1500
23641315	14	207	0	-100	0	230	101300000	1000	0	0	-1	1500
23653875	29	204	0	-100	0	230	101300000	1000	0	0	-1	1500
23666435	24	202	0	-100	0	230	101300000	1000	0	0	-1	1500
23678995	16	202	0	-100	0	230	101300000	1000	0	0	-1	1500
23691555	16	208	0	-100	0	230	101300000	1000	0	0	-1	1500
23704115	16	204	0	-100	0	230	101300000	1000	0	0	-1	1500
23716675	21	205	0	-100	0	230	101300000	1000	0	0	-1	1500
23729235	24	204	0	-100	0	230	101300000	1000	0	0	-1	1500
23741795	26	206	0	-100	0	230	101300000	1000	0	0	-1	1500
23754355	19	206	0	-100	0	230	101300000	1000	0	0	-1	1500
23766915	19	207	0	-100	0	230	101300000	1000	0	0	-1	1500
23779475	16	207	0	-100	0	230	101300000	1000	0	0	-1	1500
23792035	19	202	0	-100	0	230	101300000	1000	0	0	-1	1500
23804595	26	206	0	-100	0	230	101300000	1000	0	0	-1	1500
23817155	24	206	0	-100	0	230	101300000	1000	0	0	-1	1500
23829715	24	206	0	-100	0	230	101300000	1000	0	0	-1	1500
23842275	19	205	0	-100	0	230	101300000	1000	0	0	-1	1500
23854835	16	207	0	-100	0	230	101300000	1000	0	0	-1	1500
23867395	19	207	0	-100	0	230	101300000	1000	0	0	-1	1500
23879955	16	207	0	-100	0	230	101300000	1000	0	0	-1	1500
23892515	29	204	0	-100	0	230	101300000	1000	0	0	-1	1500
23905075	29	208	0	-100	0	230	101300000	1000	0	0	-1	1500
23917635	21	205	0	-100	0	230	101300000	1000	0	0	-1	1500
23930195	19	207	0	-100	0	230	101300000	1000	0	0	-1	1500
23942755	19	206	0	-100	0	230	101300000	1000	0	0	-1	1500
23955315	24	203	0	-100	0	230	101300000	1000	0	0	-1	1500
23967875	19	206	0	-100	0	230	101300000	1000	0	0	-1	1500
23980435	19	206	0	-100	0	230	101300000	1000	0	0	-1	1500
23992995	21	207	0	-100	0	230	101300000	1000	0	0	-1	1500
24005555	24	204	0	-100	0	230	101300000	1000	0	0	-1	1500
24018115	16	205	0	-100	0	230	101300000	1000	0	0	-1	1500
24030675	16	207	0	-100	0	230	101300000	1000	0	0	-1	1500
24043235	21	206	0	-100	0	230	101300000	1000	0	0	-1	1500
24055795	26	207	0	-100	0	230	101300000	1000	0	0	-1	1500
24068355	24	202	0	-100	0	230	101300000	1000	0	0	-1	1500
24080915	29	204	0	-100	0	230	101300000	1000	0	0	-1	1500
24093475	24	204	0	-100	0	230	101300000	1000	0	0	-1	1500
24106035	24	205	0	-100	0	230	101300000	1000	0	0	-1	1500
24118595	24	206	0	-100	0	230	101300000	1000	0	0	-1	1500
24131155	24	202	0	-100	0	230	101300000	1000	0	0	-1	1500
24143715	24	203	0	-100	0	230	101300000	1000	0	0	-1	1500
24156275	24	207	0	-100	0	230	101300000	1000	0	0	-1	1500
24168835	24	206	0	-100	0	230	101300000	1000	0	0	-1	1500
24181395	24	207	0	-100	0	230	101300000	1000	0	0	-1	1500
24193955	26	204	0	-100	0	230	101300000	1000	0	0	-1	1500
24206515	24	202	0	-100	0	230	101300000	1000	0	0	-1	1500
24219075	21	204	0	-100	0	230	101300000	1000	0	0	-1	1500
24231635	19	205	0	-100	0	230	101300000	1000	0	0	-1	1500
24244195	19	208	0	-100	0	230	101300000	1000	0	0	-1	1500
24256755	19	206	0	-100	0	230	101300000	1000	0	0	-1	1500
24269315	16	205	0	-100	0	230	101300000	1000	0	0	-1	1500
24281875	16	208	0	-100	0	230	101300000	1000	0	0	-1	1500
24294435	21	206	0	-100	0	230	101300000	1000	0	0	-1	1500
24306995	19	202	0	-100	0	230	101300000	1000	0	0	-1	1500
24319555	19	207	0	-100	0	230	101300000	1000	0	0	-1	1500
24332115	16	207	0	-100	0	230	101300000	1000	0	0	-1	1500
24344675	19	207	0	-100	0	230	101300000	1000	0	0	-1	1500
24357235	21	207	0	-100	0	230	101300000	1000	0	0	-1	1500
24369795	16	209	0	-100	0	230	101300000	1000	0	0	-1	1500
24382355	16	208	0	-100	0	230	101300000	1000	0	0	-1	1500
24394915	19	204	0	-100	0	230	101300000	1000	0	0	-1	1500
24407475	16	207	0	-100	0	230	101300000	1000	0	0	-1	1500
24420035	21	208	0	-100	0	230	101300000	1000	0	0	-1	1500
24432595	19	207	0	-100	0	230	101300000	1000	0	0	-1	1500
24445155	19	204	0	-100	0	230	101300000	1000	0	0	-1	1500
24457715	19	206	0	-100	0	230	101300000	1000	0	0	-1	1500
24470275	19	207	0	-100	0	230	101300000	1000	0	0	-1	1500
24482835	19	205	0	-100	0	230	101300000	1000	0	0	-1	1500
24495395	16	207	0	-100	0	230	101300000	1000	0	0	-1	1500
24507955	16	210	0	-100	0	230	101300000	1000	0	0	-1	1500
24520515	19	203	0	-100	0	230	101300000	1000	0	0	-1	1500
24533075	16	206	0	-100	0	230	101300000	1000	0	0	-1	1500
24545635	19	206	0	-100	0	230	101300000	1000	0	0	-1	1500
24558195	24	205	0	-100	0	230	101300000	1000	0	0	-1	1500
24570755	24	203	0	-100	0	230	101300000	1000	0	0	-1	1500
24583315	24	199	0	-100	0	230	101300000	1000	0	0	-1	1500
24595875	19	202	0	-100	0	230	101300000	1000	0	0	-1	1500
24608435	19	206	0	-100	0	230	101300000	1000	0	0	-1	1500
24620995	19	203	0	-100	0	230	101300000	1000	0	0	-1	1500
24633555	16	206	0	-100	0	230	101300000	1000	0	0	-1	1500
24646115	19	208	0	-100	0	230	101300000	1000	0	0	-1	1500
24658675	24	205	0	-100	0	230	101300000	1000	0	0	-1	1500
24671235	26	206	0	-100	0	230	101300000	1000	0	0	-1	1500
24683795	26	203	0	-100	0	230	101300000	1000	0	0	-1	1500
24696355	21	203	0	-100	0	230	101300000	1000	0	0	-1	1500
24708915	19	207	0	-100	0	230	101300000	1000	0	0	-1	1500
24721475	19	207	0	-100	0	230	101300000	1000	0	0	-1	1500
24734035	19	208	0	-100	0	230	101300000	1000	0	0	-1	1500
24746595	16	206	0	-100	0	230	101300000	1000	0	0	-1	1500
24759155	24	204	0	-100	0	230	101300000	1000	0	0	-1	1500
24771715	24	203	0	-100	0	230	101300000	1000	0	0	-1	1500
24784275	24	205	0	-100	0	230	101300000	1000	0	0	-1	1500
24796835	26	205	0	-100	0	230	101300000	1000	0	0	-1	1500
24809395	26	201	0	-100	0	230	101300000	1000	0	0	-1	1500
24821955	26	201	0	-100	0	230	101300000	1000	0	0	-1	1500
24834515	26	201	0	-100	0	230	101300000	1000	0	0	-1	1500
24847075	26	203	0	-100	0	230	101300000	1000	0	0	-1	1500
24859635	24	204	0	-100	0	230	101300000	1000	0	0	-1	1500
24872195	24	206	0	-100	0	230	101300000	1000	0	0	-1	1500
24884755	21	206	0	-100	0	230	101300000	1000	0	0	-1	1500
24897315	16	208	0	-100	0	230	101300000	1000	0	0	-1	1500
24909875	16	209	0	-100	0	230	101300000	1000	0	0	-1	1500
24922435	19	207	0	-100	0	230	101300000	1000	0	0	-1	1500
24934995	19	206	0	-100	0	230	101300000	1000	0	0	-1	1500
24947555	19	207	0	-100	0	230	101300000	1000	0	0	-1	1500
24960115	19	207	0	-100	0	230	101300000	1000	0	0	-1	1500
24972675	19	206	0	-100	0	230	101300000	1000	0	0	-1	1500
24985235	21	209	0	-100	0	230	101300000	1000	0	0	-1	1500
24997795	16	207	0	-100	0	230	101300000	1000	0	0	-1	1500
25010355	26	204	0	-100	0	230	101300000	1000	0	0	-1	1500
25022915	26	204	0	-100	0	230	101300000	1000	0	0	-1	1500
25035475	19	209	0	-100	0	230	101300000	1000	0	0	-1	1500
25048035	21	204	0	-100	0	230	101300000	1000	0	0	-1	1500
25060595	21	208	0	-100	0	230	101300000	1000	0	0	-1	1500
25073155	16	209	0	-100	0	230	101300000	1000	0	0	-1	1500
25085715	19	206	0	-100	0	230	101300000	1000	0	0	-1	1500
25098275	19	206	0	-100	0	230	101300000	1000	0	0	-1	1500
25110835	21	206	0	-100	0	230	101300000	1000	0	0	-1	1500
25123395	21	203	0	-100	0	230	101300000	1000	0	0	-1	1500
25135955	21	204	0	-100	0	230	101300000	1000	0	0	-1	1500
25148515	19	204	0	-100	0	230	101300000	1000	0	0	-1	1500
25161075	21	209	0	-100	0	230	101300000	1000	0	0	-1	1500
25173635	21	203	0	-100	0	230	101300000	1000	0	0	-1	1500
25186195	21	202	0	-100	0	230	101300000	1000	0	0	-1	1500
25198755	24	206	0	-100	0	230	101300000	1000	0	0	-1	1500
25211315	24	204	0	-100	0	230	101300000	1000	0	0	-1	1500
25223875	24	203	0	-100	0	230	101300000	1000	0	0	-1	1500
25236435	21	204	0	-100	0	230	101300000	1000	0	0	-1	1500
25248995	19	205	0	-100	0	230	101300000	1000	0	0	-1	1500
25261555	21	206	0	-100	0	230	101300000	1000	0	0	-1	1500
25274115	16	206	0	-100	0	230	101300000	1000	0	0	-1	1500
25286675	19	206	0	-100	0	230	101300000	1000	0	0	-1	1500
25299235	16	206	0	-100	0	230	101300000	1000	0	0	-1	1500
25311795	19	208	0	-100	0	230	101300000	1000	0	0	-1	1500
25324355	16	206	0	-100	0	230	101300000	1000	0	0	-1	1500
25336915	19	207	0	-100	0	230	101300000	1000	0	0	-1	1500
25349475	19	206	0	-100	0	230	101300000	1000	0	0	-1	1500
25362035	21	210	0	-100	0	230	101300000	1000	0	0	-1	1500
25374595	19	210	0	-100	0	230	101300000	1000	0	0	-1	1500
25387155	19	206	0	-100	0	230	101300000	1000	0	0	-1	1500
25399715	21	210	0	-100	0	230	101300000	1000	0	0	-1	1500
25412275	16	207	0	-100	0	230	101300000	1000	0	0	-1	1500
25424835	16	207	0	-100	0	230	101300000	1000	0	0	-1	1500
25437395	19	207	0	-100	0	230	101300000	1000	0	0	-1	1500
25449955	21	205	0	-100	0	230	101300000	1000	0	0	-1	1500
25462515	21	208	0	-100	0	230	101300000	1000	0	0	-1	1500
25475075	19	205	0	-100	0	230	101300000	1000	0	0	-1	1500
25487635	16	207	0	-100	0	230	101300000	1000	0	0	-1	1500
25500195	19	206	0	-100	0	230	101300000	1000	0	0	-1	1500
25512755	19	203	0	-100	0	230	101300000	1000	0	0	-1	1500
25525315	16	210	0	-100	0	230	101300000	1000	0	0	-1	1500
25537875	19	206	0	-100	0	230	101300000	1000	0	0	-1	1500
25550435	19	206	0	-100	0	230	101300000	1000	0	0	-1	1500
25562995	24	206	0	-100	0	230	101300000	1000	0	0	-1	1500
25575555	24	204	0	-100	0	230	101300000	1000	0	0	-1	1500
25588115	24	203	0	-100	0	230	101300000	1000	0	0	-1	1500
25600675	26	202	0	-100	0	230	101300000	1000	0	0	-1	1500
25613235	26	204	0	-100	0	230	101300000	1000	0	0	-1	1500
25625795	29	206	0	-100	0	230	101300000	1000	0	0	-1	1500
25638355	26	202	0	-100	0	230	101300000	1000	0	0	-1	1500
25650915	26	203	0	-100	0	230	101300000	1000	0	0	-1	1500
25663475	26	204	0	-100	0	230	101300000	1000	0	0	-1	1500
25676035	29	208	0	-100	0	230	101300000	1000	0	0	-1	1500
25688595	26	209	0	-100	0	230	101300000	1000	0	0	-1	1500
25701155	24	203	0	-100	0	230	101300000	1000	0	0	-1	1500
25713715	19	207	0	-100	0	230	101300000	1000	0	0	-1	1500
25726275	21	204	0	-100	0	230	101300000	1000	0	0	-1	1500
25738835	21	202	0	-100	0	230	101300000	1000	0	0	-1	1500
25751395	26	207	0	-100	0	230	101300000	1000	0	0	-1	1500
25763955	26	205	0	-100	0	230	101300000	1000	0	0	-1	1500
25776515	24	206	0	-100	0	230	101300000	1000	0	0	-1	1500
25789075	24	205	0	-100	0	230	101300000	1000	0	0	-1	1500
25801635	24	206	0	-100	0	230	101300000	1000	0	0	-1	1500
25814195	24	206	0	-100	0	230	101300000	1000	0	0	-1	1500
25826755	16	205	0	-100	0	230	101300000	1000	0	0	-1	1500
25839315	16	207	0	-100	0	230	101300000	1000	0	0	-1	1500
25851875	16	209	0	-100	0	230	101300000	1000	0	0	-1	1500
25864435	16	207	0	-100	0	230	101300000	1000	0	0	-1	1500
25876995	19	202	0	-100	0	230	101300000	1000	0	0	-1	1500
25889555	21	209	0	-100	0	230	101300000	1000	0	0	-1	1500
25902115	16	202	0	-100	0	230	101300000	1000	0	0	-1	1500
25914675	21	201	0	-100	0	230	101300000	1000	0	0	-1	1500
25927235	24	206	0	-100	0	230	101300000	1000	0	0	-1	1500
25939795	24	206	0	-100	0	230	101300000	1000	0	0	-1	1500
25952355	14	207	0	-100	0	230	101300000	1000	0	0	-1	1500
25964915	19	209	0	-100	0	230	101300000	1000	0	0	-1	1500
25977475	24	204	0	-100	0	230	101300000	1000	0	0	-1	1500
25990035	26	205	0	-100	0	230	101300000	1000	0	0	-1	1500
26002595	16	207	0	-100	0	230	101300000	1000	0	0	-1	1500
26015155	21	210	0	-100	0	230	101300000	1000	0	0	-1	1500
26027715	19	205	0	-100	0	230	101300000	1000	0	0	-1	1500
26040275	24	202	0	-100	0	230	101300000	1000	0	0	-1	1500
26052835	26	198	0	-100	0	230	101300000	1000	0	0	-1	1500
26065395	19	204	0	-100	0	230	101300000	1000	0	0	-1	1500
26077955	16	209	0	-100	0	230	101300000	1000	0	0	-1	1500
26090515	19	207	0	-100	0	230	101300000	1000	0	0	-1	1500
26103075	24	205	0	-100	0	230	101300000	1000	0	0	-1	1500
26115635	26	206	0	-100	0	230	101300000	1000	0	0	-1	1500
26128195	19	207	0	-100	0	230	101300000	1000	0	0	-1	1500
26140755	21	211	0	-100	0	230	101300000	1000	0	0	-1	1500
26153315	16	203	0	-100	0	230	101300000	1000	0	0	-1	1500
26165875	21	202	0	-100	0	230	101300000	1000	0	0	-1	1500
26178435	26	204	0	-100	0	230	101300000	1000	0	0	-1	1500
26190995	26	209	0	-100	0	230	101300000	1000	0	0	-1	1500
26203555	21	203	0	-100	0	230	101300000	1000	0	0	-1	1500
26216115	16	209	0	-100	0	230	101300000	1000	0	0	-1	1500
26228675	19	206	0	-100	0	230	101300000	1000	0	0	-1	1500
26241235	16	206	0	-100	0	230	101300000	1000	0	0	-1	1500
26253795	24	205	0	-100	0	230	101300000	1000	0	0	-1	1500
26266355	26	205	0	-100	0	230	101300000	1000	0	0	-1	1500
26278915	19	202	0	-100	0	230	101300000	1000	0	0	-1	1500
26291475	16	206	0	-100	0	230	101300000	1000	0	0	-1	1500
26304035	21	201	0	-100	0	230	101300000	1000	0	0	-1	1500
26316595	26	200	0	-100	0	230	101300000	1000	0	0	-1	1500
26329155	24	202	0	-100	0	230	101300000	1000	0	0	-1	1500
26341715	16	208	0	-100	0	230	101300000	1000	0	0	-1	1500
26354275	19	207	0	-100	0	230	101300000	1000	0	0	-1	1500
26366835	24	203	0	-100	0	230	101300000	1000	0	0	-1	1500
26379395	24	204	0	-100	0	230	101300000	1000	0	0	-1	1500
26391955	19	206	0	-100	0	230	101300000	1000	0	0	-1	1500
26404515	19	210	0	-100	0	230	101300000	1000	0	0	-1	1500
26417075	24	201	0	-100	0	230	101300000	1000	0	0	-1	1500
26429635	16	205	0	-100	0	230	101300000	1000	0	0	-1	1500
26442195	19	205	0	-100	0	230	101300000	1000	0	0	-1	1500
26454755	19	209	0	-100	0	230	101300000	1000	0	0	-1	1500
26467315	24	204	0	-100	0	230	101300000	1000	0	0	-1	1500
26479875	24	207	0	-100	0	230	101300000	1000	0	0	-1	1500
26492435	19	203	0	-100	0	230	101300000	1000	0	0	-1	1500
26504995	16	202	0	-100	0	230	101300000	1000	0	0	-1	1500
26517555	24	203	0	-100	0	230	101300000	1000	0	0	-1	1500
26530115	26	201	0	-100	0	230	101300000	1000	0	0	-1	1500
26542675	16	205	0	-100	0	230	101300000	1000	0	0	-1	1500
26555235	21	207	0	-100	0	230	101300000	1000	0	0	-1	1500
26567795	21	205	0	-100	0	230	101300000	1000	0	0	-1	1500
26580355	19	206	0	-100	0	230	101300000	1000	0	0	-1	1500
26592915	24	206	0	-100	0	230	101300000	1000	0	0	-1	1500
26605475	21	205	0	-100	0	230	101300000	1000	0	0	-1	1500
26618035	26	205	0	-100	0	230	101300000	1000	0	0	-1	1500
26630595	19	207	0	-100	0	230	101300000	1000	0	0	-1	1500
26643155	26	200	0	-100	0	230	101300000	1000	0	0	-1	1500
26655715	16	209	0	-100	0	230	101300000	1000	0	0	-1	1500
26668275	24	206	0	-100	0	230	101300000	1000	0	0	-1	1500
26680835	16	208	0	-100	0	230	101300000	1000	0	0	-1	1500
26693395	21	206	0	-100	0	230	101300000	1000	0	0	-1	1500
26705955	16	205	0	-100	0	230	101300000	1000	0	0	-1	1500
26718515	19	203	0	-100	0	230	101300000	1000	0	0	-1	1500
26731075	19	200	0	-100	0	230	101300000	1000	0	0	-1	1500
26743635	16	212	0	-100	0	230	101300000	1000	0	0	-1	1500
26756195	24	207	0	-100	0	230	101300000	1000	0	0	-1	1500
26768755	19	208	0	-100	0	230	101300000	1000	0	0	-1	1500
26781315	24	200	0	-100	0	230	101300000	1000	0	0	-1	1500
26793875	21	205	0	-100	0	230	101300000	1000	0	0	-1	1500
26806435	24	201	0	-100	0	230	101300000	1000	0	0	-1	1500
26818995	19	207	0	-100	0	230	101300000	1000	0	0	-1	1500
26831555	24	205	0	-100	0	230	101300000	1000	0	0	-1	1500
26844115	16	209	0	-100	0	230	101300000	1000	0	0	-1	1500
26856675	21	202	0	-100	0	230	101300000	1000	0	0	-1	1500
26869235	19	202	0	-100	0	230	101300000	1000	0	0	-1	1500
26881795	16	207	0	-100	0	230	101300000	1000	0	0	-1	1500
26894355	19	201	0	-100	0	230	101300000	1000	0	0	-1	1500
26906915	19	210	0	-100	0	230	101300000	1000	0	0	-1	1500
26919475	19	202	0	-100	0	230	101300000	1000	0	0	-1	1500
26932035	19	206	0	-100	0	230	101300000	1000	0	0	-1	1500
26944595	21	204	0	-100	0	230	101300000	1000	0	0	-1	1500
26957155	19	206	0	-100	0	230	101300000	1000	0	0	-1	1500
26969715	26	208	0	-100	0	230	101300000	1000	0	0	-1	1500
26982275	16	205	0	-100	0	230	101300000	1000	0	0	-1	1500
26994835	21	202	0	-100	0	230	101300000	1000	0	0	-1	1500
27007395	19	202	0	-100	0	230	101300000	1000	0	0	-1	1500
27019955	16	209	0	-100	0	230	101300000	1000	0	0	-1	1500
27032515	26	203	0	-100	0	230	101300000	1000	0	0	-1	1500
27045075	21	210	0	-100	0	230	101300000	1000	0	0	-1	1500
