timestamp	voltage	current	windSpeed	pitchAngle	rpm	temperature	ambientPressure	humidity	accelerationX	accelerationY	accelerationZ	currentSink
7036070	4010	0	0	-100	0	230	101300000	1000	0	0	-1	0
7043523	4011	0	0	-100	0	230	101300000	1000	0	0	-1	0
7056083	4013	0	0	-100	0	230	101300000	1000	0	0	-1	0
7068643	4006	0	0	-100	0	230	101300000	1000	0	0	-1	0
7081203	4006	3	0	-100	0	230	101300000	1000	0	0	-1	0
7093763	4007	4	0	-100	0	230	101300000	1000	0	0	-1	0
7106323	4007	0	0	-100	0	230	101300000	1000	0	0	-1	0
7118883	4009	0	0	-100	0	230	101300000	1000	0	0	-1	0
7131443	4009	0	0	-100	0	230	101300000	1000	0	0	-1	0
7144004	4005	3	0	-100	0	230	101300000	1000	0	0	-1	0
7156563	4012	0	0	-100	0	230	101300000	1000	0	0	-1	0
7169123	4007	0	0	-100	0	230	101300000	1000	0	0	-1	0
7181683	4004	1	0	-100	0	230	101300000	1000	0	0	-1	0
7194243	4002	3	0	-100	0	230	101300000	1000	0	0	-1	0
7206803	4005	4	0	-100	0	230	101300000	1000	0	0	-1	0
7219363	4005	0	0	-100	0	230	101300000	1000	0	0	-1	0
7231923	4006	0	0	-100	0	230	101300000	1000	0	0	-1	0
7244483	4008	0	0	-100	0	230	101300000	1000	0	0	-1	0
7257043	4011	0	0	-100	0	230	101300000	1000	0	0	-1	0
7269603	4011	0	0	-100	0	230	101300000	1000	0	0	-1	0
7282163	4011	3	0	-100	0	230	101300000	1000	0	0	-1	0
7294723	4006	4	0	-100	0	230	101300000	1000	0	0	-1	0
7307283	4007	2	0	-100	0	230	101300000	1000	0	0	-1	0
7319843	4006	0	0	-100	0	230	101300000	1000	0	0	-1	0
7332403	4007	0	0	-100	0	230	101300000	1000	0	0	-1	0
7344963	4010	0	0	-100	0	230	101300000	1000	0	0	-1	0
7688115	31	313	0	-100	0	230	101300000	1000	0	0	-1	1500
7700675	31	308	0	-100	0	230	101300000	1000	0	0	-1	1500
7713235	33	305	0	-100	0	230	101300000	1000	0	0	-1	1500
7725795	31	308	0	-100	0	230	101300000	1000	0	0	-1	1500
7738355	26	311	0	-100	0	230	101300000	1000	0	0	-1	1500
7750915	31	307	0	-100	0	230	101300000	1000	0	0	-1	1500
7763475	36	303	0	-100	0	230	101300000	1000	0	0	-1	1500
7776035	26	310	0	-100	0	230	101300000	1000	0	0	-1	1500
7788595	29	310	0	-100	0	230	101300000	1000	0	0	-1	1500
7801155	38	312	0	-100	0	230	101300000	1000	0	0	-1	1500
7813715	36	307	0	-100	0	230	101300000	1000	0	0	-1	1500
7826275	29	310	0	-100	0	230	101300000	1000	0	0	-1	1500
7838835	31	310	0	-100	0	230	101300000	1000	0	0	-1	1500
7851395	36	310	0	-100	0	230	101300000	1000	0	0	-1	1500
7863955	26	308	0	-100	0	230	101300000	1000	0	0	-1	1500
7876515	26	307	0	-100	0	230	101300000	1000	0	0	-1	1500
7889075	36	305	0	-100	0	230	101300000	1000	0	0	-1	1500
7901635	26	312	0	-100	0	230	101300000	1000	0	0	-1	1500
7914195	29	307	0	-100	0	230	101300000	1000	0	0	-1	1500
7926755	36	305	0	-100	0	230	101300000	1000	0	0	-1	1500
7939315	26	308	0	-100	0	230	101300000	1000	0	0	-1	1500
7951875	31	308	0	-100	0	230	101300000	1000	0	0	-1	1500
7964435	36	302	0	-100	0	230	101300000	1000	0	0	-1	1500
7976995	29	310	0	-100	0	230	101300000	1000	0	0	-1	1500
7989555	29	307	0	-100	0	230	101300000	1000	0	0	-1	1500
8002115	33	307	0	-100	0	230	101300000	1000	0	0	-1	1500
8014675	33	306	0	-100	0	230	101300000	1000	0	0	-1	1500
8027235	29	309	0	-100	0	230	101300000	1000	0	0	-1	1500
8039795	33	308	0	-100	0	230	101300000	1000	0	0	-1	1500
8052355	33	308	0	-100	0	230	101300000	1000	0	0	-1	1500
8064915	26	308	0	-100	0	230	101300000	1000	0	0	-1	1500
8077475	31	305	0	-100	0	230	101300000	1000	0	0	-1	1500
8090035	33	305	0	-100	0	230	101300000	1000	0	0	-1	1500
8102595	31	306	0	-100	0	230	101300000	1000	0	0	-1	1500
8115155	33	312	0	-100	0	230	101300000	1000	0	0	-1	1500
8127715	26	311	0	-100	0	230	101300000	1000	0	0	-1	1500
8140275	33	307	0	-100	0	230	101300000	1000	0	0	-1	1500
8152835	31	308	0	-100	0	230	101300000	1000	0	0	-1	1500
8165395	26	308	0	-100	0	230	101300000	1000	0	0	-1	1500
8177955	29	309	0	-100	0	230	101300000	1000	0	0	-1	1500
8190515	36	306	0	-100	0	230	101300000	1000	0	0	-1	1500
8203075	29	307	0	-100	0	230	101300000	1000	0	0	-1	1500
8215635	31	310	0	-100	0	230	101300000	1000	0	0	-1	1500
8228195	29	308	0	-100	0	230	101300000	1000	0	0	-1	1500
8240755	33	303	0	-100	0	230	101300000	1000	0	0	-1	1500
8253315	29	308	0	-100	0	230	101300000	1000	0	0	-1	1500
8265875	29	308	0	-100	0	230	101300000	1000	0	0	-1	1500
8278435	29	309	0	-100	0	230	101300000	1000	0	0	-1	1500
8290995	36	311	0	-100	0	230	101300000	1000	0	0	-1	1500
8303555	29	308	0	-100	0	230	101300000	1000	0	0	-1	1500
8316115	31	308	0	-100	0	230	101300000	1000	0	0	-1	1500
8328675	29	307	0	-100	0	230	101300000	1000	0	0	-1	1500
8341235	36	308	0	-100	0	230	101300000	1000	0	0	-1	1500
8353795	38	308	0	-100	0	230	101300000	1000	0	0	-1	1500
8366355	26	309	0	-100	0	230	101300000	1000	0	0	-1	1500
8378915	29	310	0	-100	0	230	101300000	1000	0	0	-1	1500
8391475	26	311	0	-100	0	230	101300000	1000	0	0	-1	1500
8404035	29	309	0	-100	0	230	101300000	1000	0	0	-1	1500
8416595	29	308	0	-100	0	230	101300000	1000	0	0	-1	1500
8429155	38	308	0	-100	0	230	101300000	1000	0	0	-1	1500
8441715	36	306	0	-100	0	230	101300000	1000	0	0	-1	1500
8454275	36	303	0	-100	0	230	101300000	1000	0	0	-1	1500
8466835	36	309	0	-100	0	230	101300000	1000	0	0	-1	1500
8479395	36	309	0	-100	0	230	101300000	1000	0	0	-1	1500
8491955	29	306	0	-100	0	230	101300000	1000	0	0	-1	1500
8504515	26	308	0	-100	0	230	101300000	1000	0	0	-1	1500
8517075	26	310	0	-100	0	230	101300000	1000	0	0	-1	1500
8529635	31	311	0	-100	0	230	101300000	1000	0	0	-1	1500
8542195	33	308	0	-100	0	230	101300000	1000	0	0	-1	1500
8554755	29	311	0	-100	0	230	101300000	1000	0	0	-1	1500
8567315	33	307	0	-100	0	230	101300000	1000	0	0	-1	1500
8579875	36	303	0	-100	0	230	101300000	1000	0	0	-1	1500
8592435	36	311	0	-100	0	230	101300000	1000	0	0	-1	1500
8604995	26	313	0	-100	0	230	101300000	1000	0	0	-1	1500
8617555	29	311	0	-100	0	230	101300000	1000	0	0	-1	1500
8630115	29	307	0	-100	0	230	101300000	1000	0	0	-1	1500
8642675	29	304	0	-100	0	230	101300000	1000	0	0	-1	1500
8655235	33	305	0	-100	0	230	101300000	1000	0	0	-1	1500
8667795	33	304	0	-100	0	230	101300000	1000	0	0	-1	1500
8680355	29	308	0	-100	0	230	101300000	1000	0	0	-1	1500
8692915	26	309	0	-100	0	230	101300000	1000	0	0	-1	1500
8705475	29	312	0	-100	0	230	101300000	1000	0	0	-1	1500
8718035	29	309	0	-100	0	230	101300000	1000	0	0	-1	1500
8730595	33	304	0	-100	0	230	101300000	1000	0	0	-1	1500
8743155	41	306	0	-100	0	230	101300000	1000	0	0	-1	1500
8755715	29	308	0	-100	0	230	101300000	1000	0	0	-1	1500
8768275	26	310	0	-100	0	230	101300000	1000	0	0	-1	1500
8780835	31	307	0	-100	0	230	101300000	1000	0	0	-1	1500
8793395	33	305	0	-100	0	230	101300000	1000	0	0	-1	1500
8805955	33	308	0	-100	0	230	101300000	1000	0	0	-1	1500
8818515	29	311	0	-100	0	230	101300000	1000	0	0	-1	1500
8831075	31	307	0	-100	0	230	101300000	1000	0	0	-1	1500
8843635	31	304	0	-100	0	230	101300000	1000	0	0	-1	1500
8856195	31	309	0	-100	0	230	101300000	1000	0	0	-1	1500
8868755	31	307	0	-100	0	230	101300000	1000	0	0	-1	1500
8881315	33	307	0	-100	0	230	101300000	1000	0	0	-1	1500
8893875	33	302	0	-100	0	230	101300000	1000	0	0	-1	1500
8906435	36	308	0	-100	0	230	101300000	1000	0	0	-1	1500
8918995	29	306	0	-100	0	230	101300000	1000	0	0	-1	1500
8931555	26	308	0	-100	0	230	101300000	1000	0	0	-1	1500
8944115	29	312	0	-100	0	230	101300000	1000	0	0	-1	1500
8956675	33	308	0	-100	0	230	101300000	1000	0	0	-1	1500
8969235	36	307	0	-100	0	230	101300000	1000	0	0	-1	1500
8981795	26	308	0	-100	0	230	101300000	1000	0	0	-1	1500
8994355	26	308	0	-100	0	230	101300000	1000	0	0	-1	1500
9006915	29	311	0	-100	0	230	101300000	1000	0	0	-1	1500
9019475	33	308	0	-100	0	230	101300000	1000	0	0	-1	1500
9032035	29	309	0	-100	0	230	101300000	1000	0	0	-1	1500
9044595	29	311	0	-100	0	230	101300000	1000	0	0	-1	1500
9057155	31	312	0	-100	0	230	101300000	1000	0	0	-1	1500
9069715	33	307	0	-100	0	230	101300000	1000	0	0	-1	1500
9082275	33	307	0	-100	0	230	101300000	1000	0	0	-1	1500
9094835	33	306	0	-100	0	230	101300000	1000	0	0	-1	1500
9107395	33	308	0	-100	0	230	101300000	1000	0	0	-1	1500
9119955	29	309	0	-100	0	230	101300000	1000	0	0	-1	1500
9132515	31	309	0	-100	0	230	101300000	1000	0	0	-1	1500
9145075	29	307	0	-100	0	230	101300000	1000	0	0	-1	1500
9157635	31	307	0	-100	0	230	101300000	1000	0	0	-1	1500
9170195	38	307	0	-100	0	230	101300000	1000	0	0	-1	1500
9182755	36	304	0	-100	0	230	101300000	1000	0	0	-1	1500
9195315	38	307	0	-100	0	230	101300000	1000	0	0	-1	1500
9207875	36	309	0	-100	0	230	101300000	1000	0	0	-1	1500
9220435	31	304	0	-100	0	230	101300000	1000	0	0	-1	1500
9232995	29	304	0	-100	0	230	101300000	1000	0	0	-1	1500
9245555	26	307	0	-100	0	230	101300000	1000	0	0	-1	1500
9258115	26	309	0	-100	0	230	101300000	1000	0	0	-1	1500
9270675	29	308	0	-100	0	230	101300000	1000	0	0	-1	1500
9283235	31	309	0	-100	0	230	101300000	1000	0	0	-1	1500
9295795	26	308	0	-100	0	230	101300000	1000	0	0	-1	1500
9308355	33	305	0	-100	0	230	101300000	1000	0	0	-1	1500
9320915	36	305	0	-100	0	230	101300000	1000	0	0	-1	1500
9333475	29	308	0	-100	0	230	101300000	1000	0	0	-1	1500
9346035	29	309	0	-100	0	230	101300000	1000	0	0	-1	1500
9358595	29	310	0	-100	0	230	101300000	1000	0	0	-1	1500
9371155	36	309	0	-100	0	230	101300000	1000	0	0	-1	1500
9383715	26	307	0	-100	0	230	101300000	1000	0	0	-1	1500
9396275	31	307	0	-100	0	230	101300000	1000	0	0	-1	1500
9408835	29	308	0	-100	0	230	101300000	1000	0	0	-1	1500
9421395	26	310	0	-100	0	230	101300000	1000	0	0	-1	1500
9433955	29	309	0	-100	0	230	101300000	1000	0	0	-1	1500
9446515	33	306	0	-100	0	230	101300000	1000	0	0	-1	1500
9459075	31	304	0	-100	0	230	101300000	1000	0	0	-1	1500
9471635	36	305	0	-100	0	230	101300000	1000	0	0	-1	1500
9484195	33	310	0	-100	0	230	101300000	1000	0	0	-1	1500
9496755	31	306	0	-100	0	230	101300000	1000	0	0	-1	1500
9509315	26	307	0	-100	0	230	101300000	1000	0	0	-1	1500
9521875	26	310	0	-100	0	230	101300000	1000	0	0	-1	1500
9534435	26	310	0	-100	0	230	101300000	1000	0	0	-1	1500
9546995	29	304	0	-100	0	230	101300000	1000	0	0	-1	1500
9559555	29	311	0	-100	0	230	101300000	1000	0	0	-1	1500
9572115	26	311	0	-100	0	230	101300000	1000	0	0	-1	1500
9584675	31	309	0	-100	0	230	101300000	1000	0	0	-1	1500
9597235	31	308	0	-100	0	230	101300000	1000	0	0	-1	1500
9609795	26	308	0	-100	0	230	101300000	1000	0	0	-1	1500
9622355	29	304	0	-100	0	230	101300000	1000	0	0	-1	1500
9634915	31	303	0	-100	0	230	101300000	1000	0	0	-1	1500
9647475	36	303	0	-100	0	230	101300000	1000	0	0	-1	1500
9660035	33	308	0	-100	0	230	101300000	1000	0	0	-1	1500
9672595	36	302	0	-100	0	230	101300000	1000	0	0	-1	1500
9685155	38	308	0	-100	0	230	101300000	1000	0	0	-1	1500
9697715	26	309	0	-100	0	230	101300000	1000	0	0	-1	1500
9710275	29	309	0	-100	0	230	101300000	1000	0	0	-1	1500
9722835	26	310	0	-100	0	230	101300000	1000	0	0	-1	1500
9735395	26	306	0	-100	0	230	101300000	1000	0	0	-1	1500
9747955	29	308	0	-100	0	230	101300000	1000	0	0	-1	1500
9760515	31	307	0	-100	0	230	101300000	1000	0	0	-1	1500
9773075	33	305	0	-100	0	230	101300000	1000	0	0	-1	1500
9785635	33	304	0	-100	0	230	101300000	1000	0	0	-1	1500
9798195	31	305	0	-100	0	230	101300000	1000	0	0	-1	1500
9810755	33	305	0	-100	0	230	101300000	1000	0	0	-1	1500
9823315	33	309	0	-100	0	230	101300000	1000	0	0	-1	1500
9835875	29	309	0	-100	0	230	101300000	1000	0	0	-1	1500
9848435	26	311	0	-100	0	230	101300000	1000	0	0	-1	1500
9860995	26	304	0	-100	0	230	101300000	1000	0	0	-1	1500
9873555	33	306	0	-100	0	230	101300000	1000	0	0	-1	1500
9886115	36	307	0	-100	0	230	101300000	1000	0	0	-1	1500
9898675	24	309	0	-100	0	230	101300000	1000	0	0	-1	1500
9911235	29	311	0	-100	0	230	101300000	1000	0	0	-1	1500
9923795	29	310	0	-100	0	230	101300000	1000	0	0	-1	1500
9936355	33	305	0	-100	0	230	101300000	1000	0	0	-1	1500
9948915	36	307	0	-100	0	230	101300000	1000	0	0	-1	1500
9961475	36	309	0	-100	0	230	101300000	1000	0	0	-1	1500
9974035	26	311	0	-100	0	230	101300000	1000	0	0	-1	1500
9986595	31	310	0	-100	0	230	101300000	1000	0	0	-1	1500
9999155	31	309	0	-100	0	230	101300000	1000	0	0	-1	1500
10011715	33	307	0	-100	0	230	101300000	1000	0	0	-1	1500
10024275	33	307	0	-100	0	230	101300000	1000	0	0	-1	1500
10036835	24	309	0	-100	0	230	101300000	1000	0	0	-1	1500
10049395	26	307	0	-100	0	230	101300000	1000	0	0	-1	1500
10061955	29	309	0	-100	0	230	101300000	1000	0	0	-1	1500
10074515	26	310	0	-100	0	230	101300000	1000	0	0	-1	1500
10087075	26	311	0	-100	0	230	101300000	1000	0	0	-1	1500
10099635	31	307	0	-100	0	230	101300000	1000	0	0	-1	1500
10112195	26	309	0	-100	0	230	101300000	1000	0	0	-1	1500
10124755	29	308	0	-100	0	230	101300000	1000	0	0	-1	1500
10137315	31	307	0	-100	0	230	101300000	1000	0	0	-1	1500
10149875	29	307	0	-100	0	230	101300000	1000	0	0	-1	1500
10162435	29	304	0	-100	0	230	101300000	1000	0	0	-1	1500
10174995	31	307	0	-100	0	230	101300000	1000	0	0	-1	1500
10187555	36	309	0	-100	0	230	101300000	1000	0	0	-1	1500
10200115	29	304	0	-100	0	230	101300000	1000	0	0	-1	1500
10212675	26	310	0	-100	0	230	101300000	1000	0	0	-1	1500
10225235	29	310	0	-100	0	230	101300000	1000	0	0	-1	1500
10237795	33	305	0	-100	0	230	101300000	1000	0	0	-1	1500
10250355	36	307	0	-100	0	230	101300000	1000	0	0	-1	1500
10262915	26	311	0	-100	0	230	101300000	1000	0	0	-1	1500
10275475	26	310	0	-100	0	230	101300000	1000	0	0	-1	1500
10288035	29	308	0	-100	0	230	101300000	1000	0	0	-1	1500
10300595	36	310	0	-100	0	230	101300000	1000	0	0	-1	1500
10313155	41	309	0	-100	0	230	101300000	1000	0	0	-1	1500
10325715	31	307	0	-100	0	230	101300000	1000	0	0	-1	1500
10338275	29	310	0	-100	0	230	101300000	1000	0	0	-1	1500
10350835	29	308	0	-100	0	230	101300000	1000	0	0	-1	1500
10363395	29	308	0	-100	0	230	101300000	1000	0	0	-1	1500
10375955	31	306	0	-100	0	230	101300000	1000	0	0	-1	1500
10388515	36	305	0	-100	0	230	101300000	1000	0	0	-1	1500
10401075	29	308	0	-100	0	230	101300000	1000	0	0	-1	1500
10413635	26	313	0	-100	0	230	101300000	1000	0	0	-1	1500
10426195	29	308	0	-100	0	230	101300000	1000	0	0	-1	1500
10438755	33	307	0	-100	0	230	101300000	1000	0	0	-1	1500
10451315	29	308	0	-100	0	230	101300000	1000	0	0	-1	1500
10463875	31	308	0	-100	0	230	101300000	1000	0	0	-1	1500
10476435	36	307	0	-100	0	230	101300000	1000	0	0	-1	1500
10488995	29	308	0	-100	0	230	101300000	1000	0	0	-1	1500
10501555	29	312	0	-100	0	230	101300000	1000	0	0	-1	1500
10514115	29	310	0	-100	0	230	101300000	1000	0	0	-1	1500
10526675	33	305	0	-100	0	230	101300000	1000	0	0	-1	1500
10539235	36	304	0	-100	0	230	101300000	1000	0	0	-1	1500
10551795	29	309	0	-100	0	230	101300000	1000	0	0	-1	1500
10564355	29	310	0	-100	0	230	101300000	1000	0	0	-1	1500
10576915	29	313	0	-100	0	230	101300000	1000	0	0	-1	1500
10589475	31	305	0	-100	0	230	101300000	1000	0	0	-1	1500
10602035	31	305	0	-100	0	230	101300000	1000	0	0	-1	1500
10614595	36	306	0	-100	0	230	101300000	1000	0	0	-1	1500
10627155	38	307	0	-100	0	230	101300000	1000	0	0	-1	1500
10639715	33	308	0	-100	0	230	101300000	1000	0	0	-1	1500
10652275	31	309	0	-100	0	230	101300000	1000	0	0	-1	1500
10664835	29	307	0	-100	0	230	101300000	1000	0	0	-1	1500
10677395	29	311	0	-100	0	230	101300000	1000	0	0	-1	1500
10689955	29	311	0	-100	0	230	101300000	1000	0	0	-1	1500
10702515	29	308	0	-100	0	230	101300000	1000	0	0	-1	1500
10715075	29	310	0	-100	0	230	101300000	1000	0	0	-1	1500
10727635	26	308	0	-100	0	230	101300000	1000	0	0	-1	1500
10740195	26	308	0	-100	0	230	101300000	1000	0	0	-1	1500
10752755	29	309	0	-100	0	230	101300000	1000	0	0	-1	1500
10765315	26	306	0	-100	0	230	101300000	1000	0	0	-1	1500
10777875	26	308	0	-100	0	230	101300000	1000	0	0	-1	1500
10790435	29	310	0	-100	0	230	101300000	1000	0	0	-1	1500
10802995	29	308	0	-100	0	230	101300000	1000	0	0	-1	1500
10815555	26	308	0	-100	0	230	101300000	1000	0	0	-1	1500
10828115	29	309	0	-100	0	230	101300000	1000	0	0	-1	1500
10840675	29	312	0	-100	0	230	101300000	1000	0	0	-1	1500
10853235	26	308	0	-100	0	230	101300000	1000	0	0	-1	1500
10865795	29	307	0	-100	0	230	101300000	1000	0	0	-1	1500
10878355	31	310	0	-100	0	230	101300000	1000	0	0	-1	1500
10890915	26	306	0	-100	0	230	101300000	1000	0	0	-1	1500
10903475	26	307	0	-100	0	230	101300000	1000	0	0	-1	1500
10916035	29	307	0	-100	0	230	101300000	1000	0	0	-1	1500
10928595	31	304	0	-100	0	230	101300000	1000	0	0	-1	1500
10941155	38	306	0	-100	0	230	101300000	1000	0	0	-1	1500
10953715	31	308	0	-100	0	230	101300000	1000	0	0	-1	1500
10966275	31	304	0	-100	0	230	101300000	1000	0	0	-1	1500
10978835	29	306	0	-100	0	230	101300000	1000	0	0	-1	1500
10991395	29	306	0	-100	0	230	101300000	1000	0	0	-1	1500
11003955	29	309	0	-100	0	230	101300000	1000	0	0	-1	1500
11016515	31	306	0	-100	0	230	101300000	1000	0	0	-1	1500
11029075	26	310	0	-100	0	230	101300000	1000	0	0	-1	1500
11041635	29	310	0	-100	0	230	101300000	1000	0	0	-1	1500
11054195	29	309	0	-100	0	230	101300000	1000	0	0	-1	1500
11066755	31	312	0	-100	0	230	101300000	1000	0	0	-1	1500
11079315	29	307	0	-100	0	230	101300000	1000	0	0	-1	1500
11091875	31	306	0	-100	0	230	101300000	1000	0	0	-1	1500
11104435	29	311	0	-100	0	230	101300000	1000	0	0	-1	1500
11116995	26	305	0	-100	0	230	101300000	1000	0	0	-1	1500
11129555	29	310	0	-100	0	230	101300000	1000	0	0	-1	1500
11142115	29	308	0	-100	0	230	101300000	1000	0	0	-1	1500
11154675	29	308	0	-100	0	230	101300000	1000	0	0	-1	1500
11167235	29	311	0	-100	0	230	101300000	1000	0	0	-1	1500
11179795	29	307	0	-100	0	230	101300000	1000	0	0	-1	1500
11192355	26	308	0	-100	0	230	101300000	1000	0	0	-1	1500
11204915	26	311	0	-100	0	230	101300000	1000	0	0	-1	1500
11217475	26	309	0	-100	0	230	101300000	1000	0	0	-1	1500
11230035	26	311	0	-100	0	230	101300000	1000	0	0	-1	1500
11242595	26	309	0	-100	0	230	101300000	1000	0	0	-1	1500
11255155	33	313	0	-100	0	230	101300000	1000	0	0	-1	1500
11267715	26	310	0	-100	0	230	101300000	1000	0	0	-1	1500
11280275	26	313	0	-100	0	230	101300000	1000	0	0	-1	1500
11292835	29	311	0	-100	0	230	101300000	1000	0	0	-1	1500
11305395	26	307	0	-100	0	230	101300000	1000	0	0	-1	1500
11317955	29	310	0	-100	0	230	101300000	1000	0	0	-1	1500
11330515	26	310	0	-100	0	230	101300000	1000	0	0	-1	1500
11343075	29	307	0	-100	0	230	101300000	1000	0	0	-1	1500
11355635	29	309	0	-100	0	230	101300000	1000	0	0	-1	1500
11368195	31	307	0	-100	0	230	101300000	1000	0	0	-1	1500
11380755	29	309	0	-100	0	230	101300000	1000	0	0	-1	1500
11393315	29	310	0	-100	0	230	101300000	1000	0	0	-1	1500
11405875	29	310	0	-100	0	230	101300000	1000	0	0	-1	1500
11418435	29	309	0	-100	0	230	101300000	1000	0	0	-1	1500
11430995	29	306	0	-100	0	230	101300000	1000	0	0	-1	1500
11443555	26	309	0	-100	0	230	101300000	1000	0	0	-1	1500
11456115	33	312	0	-100	0	230	101300000	1000	0	0	-1	1500
11468675	31	307	0	-100	0	230	101300000	1000	0	0	-1	1500
11481235	31	309	0	-100	0	230	101300000	1000	0	0	-1	1500
11493795	29	310	0	-100	0	230	101300000	1000	0	0	-1	1500
11506355	26	309	0	-100	0	230	101300000	1000	0	0	-1	1500
11518915	26	310	0	-100	0	230	101300000	1000	0	0	-1	1500
11531475	26	309	0	-100	0	230	101300000	1000	0	0	-1	1500
11544035	26	310	0	-100	0	230	101300000	1000	0	0	-1	1500
11556595	26	310	0	-100	0	230	101300000	1000	0	0	-1	1500
11569155	36	313	0	-100	0	230	101300000	1000	0	0	-1	1500
11581715	26	308	0	-100	0	230	101300000	1000	0	0	-1	1500
11594275	29	310	0	-100	0	230	101300000	1000	0	0	-1	1500
11606835	29	308	0	-100	0	230	101300000	1000	0	0	-1	1500
11619395	29	306	0	-100	0	230	101300000	1000	0	0	-1	1500
11631955	29	305	0	-100	0	230	101300000	1000	0	0	-1	1500
11644515	29	306	0	-100	0	230	101300000	1000	0	0	-1	1500
11657075	31	304	0	-100	0	230	101300000	1000	0	0	-1	1500
11669635	31	304	0	-100	0	230	101300000	1000	0	0	-1	1500
11682195	31	303	0	-100	0	230	101300000	1000	0	0	-1	1500
11694755	29	308	0	-100	0	230	101300000	1000	0	0	-1	1500
11707315	26	307	0	-100	0	230	101300000	1000	0	0	-1	1500
11719875	31	309	0	-100	0	230	101300000	1000	0	0	-1	1500
11732435	29	308	0	-100	0	230	101300000	1000	0	0	-1	1500
11744995	31	312	0	-100	0	230	101300000	1000	0	0	-1	1500
11757555	36	309	0	-100	0	230	101300000	1000	0	0	-1	1500
11770115	38	307	0	-100	0	230	101300000	1000	0	0	-1	1500
11782675	33	305	0	-100	0	230	101300000	1000	0	0	-1	1500
11795235	36	302	0	-100	0	230	101300000	1000	0	0	-1	1500
11807795	33	305	0	-100	0	230	101300000	1000	0	0	-1	1500
11820355	33	305	0	-100	0	230	101300000	1000	0	0	-1	1500
11832915	36	307	0	-100	0	230	101300000	1000	0	0	-1	1500
11845475	36	308	0	-100	0	230	101300000	1000	0	0	-1	1500
11858035	33	308	0	-100	0	230	101300000	1000	0	0	-1	1500
11870595	33	307	0	-100	0	230	101300000	1000	0	0	-1	1500
11883155	38	310	0	-100	0	230	101300000	1000	0	0	-1	1500
11895715	36	307	0	-100	0	230	101300000	1000	0	0	-1	1500
11908275	36	306	0	-100	0	230	101300000	1000	0	0	-1	1500
11920835	38	307	0	-100	0	230	101300000	1000	0	0	-1	1500
11933395	29	307	0	-100	0	230	101300000	1000	0	0	-1	1500
11945955	29	309	0	-100	0	230	101300000	1000	0	0	-1	1500
11958515	31	310	0	-100	0	230	101300000	1000	0	0	-1	1500
11971075	29	308	0	-100	0	230	101300000	1000	0	0	-1	1500
11983635	29	308	0	-100	0	230	101300000	1000	0	0	-1	1500
11996195	31	308	0	-100	0	230	101300000	1000	0	0	-1	1500
12008755	29	312	0	-100	0	230	101300000	1000	0	0	-1	1500
12021315	29	304	0	-100	0	230	101300000	1000	0	0	-1	1500
12033875	33	307	0	-100	0	230	101300000	1000	0	0	-1	1500
12046435	33	304	0	-100	0	230	101300000	1000	0	0	-1	1500
12058995	33	306	0	-100	0	230	101300000	1000	0	0	-1	1500
12071555	33	306	0	-100	0	230	101300000	1000	0	0	-1	1500
12084115	31	305	0	-100	0	230	101300000	1000	0	0	-1	1500
12096675	29	307	0	-100	0	230	101300000	1000	0	0	-1	1500
12109235	29	303	0	-100	0	230	101300000	1000	0	0	-1	1500
12121795	31	308	0	-100	0	230	101300000	1000	0	0	-1	1500
12134355	33	307	0	-100	0	230	101300000	1000	0	0	-1	1500
12146915	36	307	0	-100	0	230	101300000	1000	0	0	-1	1500
12159475	33	303	0	-100	0	230	101300000	1000	0	0	-1	1500
12172035	36	310	0	-100	0	230	101300000	1000	0	0	-1	1500
12184595	31	307	0	-100	0	230	101300000	1000	0	0	-1	1500
12197155	36	309	0	-100	0	230	101300000	1000	0	0	-1	1500
12209715	26	308	0	-100	0	230	101300000	1000	0	0	-1	1500
12222275	26	306	0	-100	0	230	101300000	1000	0	0	-1	1500
12234835	26	310	0	-100	0	230	101300000	1000	0	0	-1	1500
12247395	26	313	0	-100	0	230	101300000	1000	0	0	-1	1500
12259955	26	310	0	-100	0	230	101300000	1000	0	0	-1	1500
12272515	33	305	0	-100	0	230	101300000	1000	0	0	-1	1500
12285075	36	306	0	-100	0	230	101300000	1000	0	0	-1	1500
12297635	36	306	0	-100	0	230	101300000	1000	0	0	-1	1500
12310195	36	307	0	-100	0	230	101300000	1000	0	0	-1	1500
12322755	36	302	0	-100	0	230	101300000	1000	0	0	-1	1500
12335315	29	308	0	-100	0	230	101300000	1000	0	0	-1	1500
12347875	24	306	0	-100	0	230	101300000	1000	0	0	-1	1500
12360435	26	310	0	-100	0	230	101300000	1000	0	0	-1	1500
12372995	29	309	0	-100	0	230	101300000	1000	0	0	-1	1500
12385555	29	309	0	-100	0	230	101300000	1000	0	0	-1	1500
12398115	26	311	0	-100	0	230	101300000	1000	0	0	-1	1500
12410675	29	306	0	-100	0	230	101300000	1000	0	0	-1	1500
12423235	29	309	0	-100	0	230	101300000	1000	0	0	-1	1500
12435795	31	305	0	-100	0	230	101300000	1000	0	0	-1	1500
12448355	33	307	0	-100	0	230	101300000	1000	0	0	-1	1500
12460915	36	309	0	-100	0	230	101300000	1000	0	0	-1	1500
12473475	36	307	0	-100	0	230	101300000	1000	0	0	-1	1500
12486035	36	308	0	-100	0	230	101300000	1000	0	0	-1	1500
12498595	33	309	0	-100	0	230	101300000	1000	0	0	-1	1500
12511155	33	307	0	-100	0	230	101300000	1000	0	0	-1	1500
12523715	26	309	0	-100	0	230	101300000	1000	0	0	-1	1500
12536275	26	308	0	-100	0	230	101300000	1000	0	0	-1	1500
12548835	29	312	0	-100	0	230	101300000	1000	0	0	-1	1500
12561395	29	310	0	-100	0	230	101300000	1000	0	0	-1	1500
12573955	26	310	0	-100	0	230	101300000	1000	0	0	-1	1500
12586515	29	307	0	-100	0	230	101300000	1000	0	0	-1	1500
12599075	33	309	0	-100	0	230	101300000	1000	0	0	-1	1500
12611635	33	302	0	-100	0	230	101300000	1000	0	0	-1	1500
12624195	36	308	0	-100	0	230	101300000	1000	0	0	-1	1500
12636755	29	310	0	-100	0	230	101300000	1000	0	0	-1	1500
12649315	24	311	0	-100	0	230	101300000	1000	0	0	-1	1500
12661875	29	312	0	-100	0	230	101300000	1000	0	0	-1	1500
12674435	29	311	0	-100	0	230	101300000	1000	0	0	-1	1500
12686995	26	308	0	-100	0	230	101300000	1000	0	0	-1	1500
12699555	29	309	0	-100	0	230	101300000	1000	0	0	-1	1500
12712115	29	308	0	-100	0	230	101300000	1000	0	0	-1	1500
12724675	31	307	0	-100	0	230	101300000	1000	0	0	-1	1500
12737235	36	305	0	-100	0	230	101300000	1000	0	0	-1	1500
12749795	33	308	0	-100	0	230	101300000	1000	0	0	-1	1500
12762355	33	306	0	-100	0	230	101300000	1000	0	0	-1	1500
12774915	29	308	0	-100	0	230	101300000	1000	0	0	-1	1500
12787475	26	309	0	-100	0	230	101300000	1000	0	0	-1	1500
12800035	29	305	0	-100	0	230	101300000	1000	0	0	-1	1500
12812595	29	308	0	-100	0	230	101300000	1000	0	0	-1	1500
12825155	33	310	0	-100	0	230	101300000	1000	0	0	-1	1500
12837715	29	305	0	-100	0	230	101300000	1000	0	0	-1	1500
12850275	36	302	0	-100	0	230	101300000	1000	0	0	-1	1500
12862835	33	307	0	-100	0	230	101300000	1000	0	0	-1	1500
12875395	36	308	0	-100	0	230	101300000	1000	0	0	-1	1500
12887955	31	305	0	-100	0	230	101300000	1000	0	0	-1	1500
12900515	33	307	0	-100	0	230	101300000	1000	0	0	-1	1500
12913075	26	309	0	-100	0	230	101300000	1000	0	0	-1	1500
12925635	31	313	0	-100	0	230	101300000	1000	0	0	-1	1500
12938195	29	312	0	-100	0	230	101300000	1000	0	0	-1	1500
12950755	26	311	0	-100	0	230	101300000	1000	0	0	-1	1500
12963315	29	312	0	-100	0	230	101300000	1000	0	0	-1	1500
12975875	26	310	0	-100	0	230	101300000	1000	0	0	-1	1500
12988435	26	310	0	-100	0	230	101300000	1000	0	0	-1	1500
13000995	29	307	0	-100	0	230	101300000	1000	0	0	-1	1500
13013555	26	312	0	-100	0	230	101300000	1000	0	0	-1	1500
13026115	26	307	0	-100	0	230	101300000	1000	0	0	-1	1500
13038675	26	309	0	-100	0	230	101300000	1000	0	0	-1	1500
13051235	26	308	0	-100	0	230	101300000	1000	0	0	-1	1500
13063795	26	309	0	-100	0	230	101300000	1000	0	0	-1	1500
13076355	26	308	0	-100	0	230	101300000	1000	0	0	-1	1500
13088915	24	312	0	-100	0	230	101300000	1000	0	0	-1	1500
13101475	29	311	0	-100	0	230	101300000	1000	0	0	-1	1500
13114035	29	307	0	-100	0	230	101300000	1000	0	0	-1	1500
13126595	29	312	0	-100	0	230	101300000	1000	0	0	-1	1500
13139155	31	310	0	-100	0	230	101300000	1000	0	0	-1	1500
13151715	29	306	0	-100	0	230	101300000	1000	0	0	-1	1500
13164275	29	312	0	-100	0	230	101300000	1000	0	0	-1	1500
13176835	29	310	0	-100	0	230	101300000	1000	0	0	-1	1500
13189395	29	307	0	-100	0	230	101300000	1000	0	0	-1	1500
13201955	29	306	0	-100	0	230	101300000	1000	0	0	-1	1500
13214515	33	309	0	-100	0	230	101300000	1000	0	0	-1	1500
13227075	33	308	0	-100	0	230	101300000	1000	0	0	-1	1500
13239635	36	309	0	-100	0	230	101300000	1000	0	0	-1	1500
13252195	33	307	0	-100	0	230	101300000	1000	0	0	-1	1500
13264755	33	306	0	-100	0	230	101300000	1000	0	0	-1	1500
13277315	33	304	0	-100	0	230	101300000	1000	0	0	-1	1500
13289875	38	307	0	-100	0	230	101300000	1000	0	0	-1	1500
13302435	33	306	0	-100	0	230	101300000	1000	0	0	-1	1500
13314995	29	309	0	-100	0	230	101300000	1000	0	0	-1	1500
13327555	26	308	0	-100	0	230	101300000	1000	0	0	-1	1500
13340115	29	311	0	-100	0	230	101300000	1000	0	0	-1	1500
13352675	26	308	0	-100	0	230	101300000	1000	0	0	-1	1500
13365235	29	311	0	-100	0	230	101300000	1000	0	0	-1	1500
13377795	31	309	0	-100	0	230	101300000	1000	0	0	-1	1500
13390355	31	307	0	-100	0	230	101300000	1000	0	0	-1	1500
13402915	26	315	0	-100	0	230	101300000	1000	0	0	-1	1500
13415475	29	307	0	-100	0	230	101300000	1000	0	0	-1	1500
13428035	31	303	0	-100	0	230	101300000	1000	0	0	-1	1500
13440595	36	306	0	-100	0	230	101300000	1000	0	0	-1	1500
13453155	38	309	0	-100	0	230	101300000	1000	0	0	-1	1500
13465715	29	307	0	-100	0	230	101300000	1000	0	0	-1	1500
13478275	26	310	0	-100	0	230	101300000	1000	0	0	-1	1500
13490835	29	307	0	-100	0	230	101300000	1000	0	0	-1	1500
13503395	29	307	0	-100	0	230	101300000	1000	0	0	-1	1500
13515955	29	305	0	-100	0	230	101300000	1000	0	0	-1	1500
13528515	33	308	0	-100	0	230	101300000	1000	0	0	-1	1500
13541075	33	304	0	-100	0	230	101300000	1000	0	0	-1	1500
13553635	33	306	0	-100	0	230	101300000	1000	0	0	-1	1500
13566195	31	306	0	-100	0	230	101300000	1000	0	0	-1	1500
13578755	29	308	0	-100	0	230	101300000	1000	0	0	-1	1500
13591315	29	308	0	-100	0	230	101300000	1000	0	0	-1	1500
13603875	31	309	0	-100	0	230	101300000	1000	0	0	-1	1500
13616435	29	309	0	-100	0	230	101300000	1000	0	0	-1	1500
13628995	36	306	0	-100	0	230	101300000	1000	0	0	-1	1500
13641555	33	307	0	-100	0	230	101300000	1000	0	0	-1	1500
13654115	33	305	0	-100	0	230	101300000	1000	0	0	-1	1500
13666675	36	308	0	-100	0	230	101300000	1000	0	0	-1	1500
13679235	33	306	0	-100	0	230	101300000	1000	0	0	-1	1500
13691795	31	304	0	-100	0	230	101300000	1000	0	0	-1	1500
13704355	29	307	0	-100	0	230	101300000	1000	0	0	-1	1500
13716915	26	307	0	-100	0	230	101300000	1000	0	0	-1	1500
13729475	26	310	0	-100	0	230	101300000	1000	0	0	-1	1500
13742035	29	310	0	-100	0	230	101300000	1000	0	0	-1	1500
13754595	29	308	0	-100	0	230	101300000	1000	0	0	-1	1500
13767155	31	310	0	-100	0	230	101300000	1000	0	0	-1	1500
13779715	31	308	0	-100	0	230	101300000	1000	0	0	-1	1500
13792275	29	305	0	-100	0	230	101300000	1000	0	0	-1	1500
13804835	29	308	0	-100	0	230	101300000	1000	0	0	-1	1500
13817395	33	306	0	-100	0	230	101300000	1000	0	0	-1	1500
13829955	33	307	0	-100	0	230	101300000	1000	0	0	-1	1500
13842515	36	308	0	-100	0	230	101300000	1000	0	0	-1	1500
13855075	38	306	0	-100	0	230	101300000	1000	0	0	-1	1500
13867635	33	307	0	-100	0	230	101300000	1000	0	0	-1	1500
13880195	26	308	0	-100	0	230	101300000	1000	0	0	-1	1500
13892755	29	308	0	-100	0	230	101300000	1000	0	0	-1	1500
13905315	26	311	0	-100	0	230	101300000	1000	0	0	-1	1500
13917875	26	309	0	-100	0	230	101300000	1000	0	0	-1	1500
13930435	29	310	0	-100	0	230	101300000	1000	0	0	-1	1500
13942995	29	305	0	-100	0	230	101300000	1000	0	0	-1	1500
13955555	29	314	0	-100	0	230	101300000	1000	0	0	-1	1500
13968115	31	312	0	-100	0	230	101300000	1000	0	0	-1	1500
13980675	29	311	0	-100	0	230	101300000	1000	0	0	-1	1500
13993235	26	312	0	-100	0	230	101300000	1000	0	0	-1	1500
14005795	29	309	0	-100	0	230	101300000	1000	0	0	-1	1500
14018355	29	308	0	-100	0	230	101300000	1000	0	0	-1	1500
14030915	33	303	0	-100	0	230	101300000	1000	0	0	-1	1500
14043475	33	308	0	-100	0	230	101300000	1000	0	0	-1	1500
14056035	29	306	0	-100	0	230	101300000	1000	0	0	-1	1500
14068595	29	309	0	-100	0	230	101300000	1000	0	0	-1	1500
14081155	33	307	0	-100	0	230	101300000	1000	0	0	-1	1500
14093715	29	308	0	-100	0	230	101300000	1000	0	0	-1	1500
14106275	31	308	0	-100	0	230	101300000	1000	0	0	-1	1500
14118835	29	311	0	-100	0	230	101300000	1000	0	0	-1	1500
14131395	29	309	0	-100	0	230	101300000	1000	0	0	-1	1500
14143955	26	310	0	-100	0	230	101300000	1000	0	0	-1	1500
14156515	26	313	0	-100	0	230	101300000	1000	0	0	-1	1500
14169075	26	311	0	-100	0	230	101300000	1000	0	0	-1	1500
14181635	29	311	0	-100	0	230	101300000	1000	0	0	-1	1500
14194195	26	308	0	-100	0	230	101300000	1000	0	0	-1	1500
14206755	26	307	0	-100	0	230	101300000	1000	0	0	-1	1500
14219315	29	308	0	-100	0	230	101300000	1000	0	0	-1	1500
14231875	36	310	0	-100	0	230	101300000	1000	0	0	-1	1500
14244435	33	309	0	-100	0	230	101300000	1000	0	0	-1	1500
14256995	31	307	0	-100	0	230	101300000	1000	0	0	-1	1500
14269555	29	307	0	-100	0	230	101300000	1000	0	0	-1	1500
14282115	33	310	0	-100	0	230	101300000	1000	0	0	-1	1500
14294675	31	312	0	-100	0	230	101300000	1000	0	0	-1	1500
14307235	29	307	0	-100	0	230	101300000	1000	0	0	-1	1500
14319795	33	306	0	-100	0	230	101300000	1000	0	0	-1	1500
14332355	41	306	0	-100	0	230	101300000	1000	0	0	-1	1500
14344915	38	305	0	-100	0	230	101300000	1000	0	0	-1	1500
14357475	41	307	0	-100	0	230	101300000	1000	0	0	-1	1500
14370035	38	307	0	-100	0	230	101300000	1000	0	0	-1	1500
14382595	36	308	0	-100	0	230	101300000	1000	0	0	-1	1500
14395155	33	306	0	-100	0	230	101300000	1000	0	0	-1	1500
14407715	33	307	0	-100	0	230	101300000	1000	0	0	-1	1500
14420275	36	309	0	-100	0	230	101300000	1000	0	0	-1	1500
14432835	33	310	0	-100	0	230	101300000	1000	0	0	-1	1500
14445395	33	308	0	-100	0	230	101300000	1000	0	0	-1	1500
14457955	33	310	0	-100	0	230	101300000	1000	0	0	-1	1500
14470515	33	312	0	-100	0	230	101300000	1000	0	0	-1	1500
14483075	36	308	0	-100	0	230	101300000	1000	0	0	-1	1500
14495635	38	305	0	-100	0	230	101300000	1000	0	0	-1	1500
14508195	31	313	0	-100	0	230	101300000	1000	0	0	-1	1500
14520755	33	311	0	-100	0	230	101300000	1000	0	0	-1	1500
14533315	31	309	0	-100	0	230	101300000	1000	0	0	-1	1500
14545875	36	308	0	-100	0	230	101300000	1000	0	0	-1	1500
14558435	38	308	0	-100	0	230	101300000	1000	0	0	-1	1500
14570995	38	311	0	-100	0	230	101300000	1000	0	0	-1	1500
14583555	38	308	0	-100	0	230	101300000	1000	0	0	-1	1500
14596115	33	309	0	-100	0	230	101300000	1000	0	0	-1	1500
14608675	31	308	0	-100	0	230	101300000	1000	0	0	-1	1500
14621235	33	309	0	-100	0	230	101300000	1000	0	0	-1	1500
14633795	31	313	0	-100	0	230	101300000	1000	0	0	-1	1500
14646355	31	307	0	-100	0	230	101300000	1000	0	0	-1	1500
14658915	33	307	0	-100	0	230	101300000	1000	0	0	-1	1500
14671475	29	307	0	-100	0	230	101300000	1000	0	0	-1	1500
14684035	33	312	0	-100	0	230	101300000	1000	0	0	-1	1500
14696595	33	311	0	-100	0	230	101300000	1000	0	0	-1	1500
14709155	29	309	0	-100	0	230	101300000	1000	0	0	-1	1500
14721715	36	305	0	-100	0	230	101300000	1000	0	0	-1	1500
14734275	36	308	0	-100	0	230	101300000	1000	0	0	-1	1500
14746835	36	307	0	-100	0	230	101300000	1000	0	0	-1	1500
14759395	38	309	0	-100	0	230	101300000	1000	0	0	-1	1500
14771955	36	304	0	-100	0	230	101300000	1000	0	0	-1	1500
14784515	31	306	0	-100	0	230	101300000	1000	0	0	-1	1500
14797075	33	307	0	-100	0	230	101300000	1000	0	0	-1	1500
14809635	33	308	0	-100	0	230	101300000	1000	0	0	-1	1500
14822195	33	308	0	-100	0	230	101300000	1000	0	0	-1	1500
14834755	31	308	0	-100	0	230	101300000	1000	0	0	-1	1500
14847315	33	307	0	-100	0	230	101300000	1000	0	0	-1	1500
14859875	38	308	0	-100	0	230	101300000	1000	0	0	-1	1500
14872435	36	309	0	-100	0	230	101300000	1000	0	0	-1	1500
14884995	38	307	0	-100	0	230	101300000	1000	0	0	-1	1500
14897555	38	311	0	-100	0	230	101300000	1000	0	0	-1	1500
14910115	33	309	0	-100	0	230	101300000	1000	0	0	-1	1500
14922675	33	307	0	-100	0	230	101300000	1000	0	0	-1	1500
14935235	31	307	0	-100	0	230	101300000	1000	0	0	-1	1500
14947795	29	309	0	-100	0	230	101300000	1000	0	0	-1	1500
14960355	33	308	0	-100	0	230	101300000	1000	0	0	-1	1500
14972915	36	309	0	-100	0	230	101300000	1000	0	0	-1	1500
14985475	33	304	0	-100	0	230	101300000	1000	0	0	-1	1500
14998035	36	309	0	-100	0	230	101300000	1000	0	0	-1	1500
15010595	36	308	0	-100	0	230	101300000	1000	0	0	-1	1500
15023155	29	308	0	-100	0	230	101300000	1000	0	0	-1	1500
15035715	31	309	0	-100	0	230	101300000	1000	0	0	-1	1500
15048275	31	312	0	-100	0	230	101300000	1000	0	0	-1	1500
15060835	33	306	0	-100	0	230	101300000	1000	0	0	-1	1500
15073395	33	309	0	-100	0	230	101300000	1000	0	0	-1	1500
15085955	33	307	0	-100	0	230	101300000	1000	0	0	-1	1500
15098515	38	309	0	-100	0	230	101300000	1000	0	0	-1	1500
15111075	38	308	0	-100	0	230	101300000	1000	0	0	-1	1500
15123635	41	307	0	-100	0	230	101300000	1000	0	0	-1	1500
15136195	38	308	0	-100	0	230	101300000	1000	0	0	-1	1500
15148755	38	308	0	-100	0	230	101300000	1000	0	0	-1	1500
15161315	41	307	0	-100	0	230	101300000	1000	0	0	-1	1500
15173875	38	306	0	-100	0	230	101300000	1000	0	0	-1	1500
15186435	41	306	0	-100	0	230	101300000	1000	0	0	-1	1500
15198995	38	308	0	-100	0	230	101300000	1000	0	0	-1	1500
15211555	41	308	0	-100	0	230	101300000	1000	0	0	-1	1500
15224115	31	305	0	-100	0	230	101300000	1000	0	0	-1	1500
15236675	36	306	0	-100	0	230	101300000	1000	0	0	-1	1500
15249235	36	306	0	-100	0	230	101300000	1000	0	0	-1	1500
15261795	33	307	0	-100	0	230	101300000	1000	0	0	-1	1500
15274355	33	307	0	-100	0	230	101300000	1000	0	0	-1	1500
15286915	31	308	0	-100	0	230	101300000	1000	0	0	-1	1500
15299475	33	311	0	-100	0	230	101300000	1000	0	0	-1	1500
15312035	38	307	0	-100	0	230	101300000	1000	0	0	-1	1500
15324595	38	309	0	-100	0	230	101300000	1000	0	0	-1	1500
15337155	36	302	0	-100	0	230	101300000	1000	0	0	-1	1500
15349715	38	309	0	-100	0	230	101300000	1000	0	0	-1	1500
15362275	33	311	0	-100	0	230	101300000	1000	0	0	-1	1500
15374835	31	310	0	-100	0	230	101300000	1000	0	0	-1	1500
15387395	31	314	0	-100	0	230	101300000	1000	0	0	-1	1500
15399955	36	310	0	-100	0	230	101300000	1000	0	0	-1	1500
15412515	38	308	0	-100	0	230	101300000	1000	0	0	-1	1500
15425075	33	306	0	-100	0	230	101300000	1000	0	0	-1	1500
15437635	33	312	0	-100	0	230	101300000	1000	0	0	-1	1500
15450195	33	311	0	-100	0	230	101300000	1000	0	0	-1	1500
15462755	41	309	0	-100	0	230	101300000	1000	0	0	-1	1500
15475315	38	307	0	-100	0	230	101300000	1000	0	0	-1	1500
15487875	33	306	0	-100	0	230	101300000	1000	0	0	-1	1500
15500435	33	310	0	-100	0	230	101300000	1000	0	0	-1	1500
15512995	33	310	0	-100	0	230	101300000	1000	0	0	-1	1500
15525555	31	309	0	-100	0	230	101300000	1000	0	0	-1	1500
15538115	31	306	0	-100	0	230	101300000	1000	0	0	-1	1500
15550675	38	311	0	-100	0	230	101300000	1000	0	0	-1	1500
15563235	36	309	0	-100	0	230	101300000	1000	0	0	-1	1500
15575795	41	306	0	-100	0	230	101300000	1000	0	0	-1	1500
15588355	38	306	0	-100	0	230	101300000	1000	0	0	-1	1500
15600915	33	307	0	-100	0	230	101300000	1000	0	0	-1	1500
15613475	31	308	0	-100	0	230	101300000	1000	0	0	-1	1500
15626035	33	312	0	-100	0	230	101300000	1000	0	0	-1	1500
15638595	33	309	0	-100	0	230	101300000	1000	0	0	-1	1500
15651155	31	305	0	-100	0	230	101300000	1000	0	0	-1	1500
15663715	31	313	0	-100	0	230	101300000	1000	0	0	-1	1500
15676275	36	306	0	-100	0	230	101300000	1000	0	0	-1	1500
15688835	36	306	0	-100	0	230	101300000	1000	0	0	-1	1500
15701395	38	308	0	-100	0	230	101300000	1000	0	0	-1	1500
15713955	31	308	0	-100	0	230	101300000	1000	0	0	-1	1500
15726515	33	306	0	-100	0	230	101300000	1000	0	0	-1	1500
15739075	29	310	0	-100	0	230	101300000	1000	0	0	-1	1500
15751635	33	310	0	-100	0	230	101300000	1000	0	0	-1	1500
15764195	31	312	0	-100	0	230	101300000	1000	0	0	-1	1500
15776755	31	309	0	-100	0	230	101300000	1000	0	0	-1	1500
15789315	33	311	0	-100	0	230	101300000	1000	0	0	-1	1500
15801875	31	309	0	-100	0	230	101300000	1000	0	0	-1	1500
15814435	31	312	0	-100	0	230	101300000	1000	0	0	-1	1500
15826995	33	309	0	-100	0	230	101300000	1000	0	0	-1	1500
15839555	33	311	0	-100	0	230	101300000	1000	0	0	-1	1500
15852115	33	314	0	-100	0	230	101300000	1000	0	0	-1	1500
15864675	33	307	0	-100	0	230	101300000	1000	0	0	-1	1500
15877235	31	307	0	-100	0	230	101300000	1000	0	0	-1	1500
15889795	33	309	0	-100	0	230	101300000	1000	0	0	-1	1500
15902355	31	311	0	-100	0	230	101300000	1000	0	0	-1	1500
15914915	31	310	0	-100	0	230	101300000	1000	0	0	-1	1500
15927475	31	311	0	-100	0	230	101300000	1000	0	0	-1	1500
15940035	31	307	0	-100	0	230	101300000	1000	0	0	-1	1500
15952595	33	308	0	-100	0	230	101300000	1000	0	0	-1	1500
15965155	36	303	0	-100	0	230	101300000	1000	0	0	-1	1500
15977715	38	310	0	-100	0	230	101300000	1000	0	0	-1	1500
15990275	33	311	0	-100	0	230	101300000	1000	0	0	-1	1500
16002835	33	312	0	-100	0	230	101300000	1000	0	0	-1	1500
16015395	33	307	0	-100	0	230	101300000	1000	0	0	-1	1500
16027955	38	306	0	-100	0	230	101300000	1000	0	0	-1	1500
16040515	31	309	0	-100	0	230	101300000	1000	0	0	-1	1500
16053075	31	311	0	-100	0	230	101300000	1000	0	0	-1	1500
16065635	33	308	0	-100	0	230	101300000	1000	0	0	-1	1500
16078195	33	311	0	-100	0	230	101300000	1000	0	0	-1	1500
16090755	31	308	0	-100	0	230	101300000	1000	0	0	-1	1500
16103315	31	311	0	-100	0	230	101300000	1000	0	0	-1	1500
16115875	33	308	0	-100	0	230	101300000	1000	0	0	-1	1500
16128435	36	308	0	-100	0	230	101300000	1000	0	0	-1	1500
16140995	38	307	0	-100	0	230	101300000	1000	0	0	-1	1500
16153555	38	305	0	-100	0	230	101300000	1000	0	0	-1	1500
16166115	38	308	0	-100	0	230	101300000	1000	0	0	-1	1500
16178675	38	309	0	-100	0	230	101300000	1000	0	0	-1	1500
16191235	41	306	0	-100	0	230	101300000	1000	0	0	-1	1500
16203795	38	308	0	-100	0	230	101300000	1000	0	0	-1	1500
16216355	38	305	0	-100	0	230	101300000	1000	0	0	-1	1500
16228915	38	308	0	-100	0	230	101300000	1000	0	0	-1	1500
16241475	41	307	0	-100	0	230	101300000	1000	0	0	-1	1500
16254035	38	308	0	-100	0	230	101300000	1000	0	0	-1	1500
16266595	38	310	0	-100	0	230	101300000	1000	0	0	-1	1500
16279155	29	305	0	-100	0	230	101300000	1000	0	0	-1	1500
16291715	31	310	0	-100	0	230	101300000	1000	0	0	-1	1500
16304275	31	311	0	-100	0	230	101300000	1000	0	0	-1	1500
16316835	36	308	0	-100	0	230	101300000	1000	0	0	-1	1500
16329395	31	312	0	-100	0	230	101300000	1000	0	0	-1	1500
16341955	31	309	0	-100	0	230	101300000	1000	0	0	-1	1500
16354515	33	312	0	-100	0	230	101300000	1000	0	0	-1	1500
16367075	31	311	0	-100	0	230	101300000	1000	0	0	-1	1500
16379635	31	309	0	-100	0	230	101300000	1000	0	0	-1	1500
16392195	31	313	0	-100	0	230	101300000	1000	0	0	-1	1500
16404755	31	311	0	-100	0	230	101300000	1000	0	0	-1	1500
16417315	31	310	0	-100	0	230	101300000	1000	0	0	-1	1500
16429875	33	312	0	-100	0	230	101300000	1000	0	0	-1	1500
16442435	31	310	0	-100	0	230	101300000	1000	0	0	-1	1500
16454995	31	307	0	-100	0	230	101300000	1000	0	0	-1	1500
16467555	31	312	0	-100	0	230	101300000	1000	0	0	-1	1500
16480115	31	310	0	-100	0	230	101300000	1000	0	0	-1	1500
16492675	31	308	0	-100	0	230	101300000	1000	0	0	-1	1500
16505235	33	308	0	-100	0	230	101300000	1000	0	0	-1	1500
16517795	41	307	0	-100	0	230	101300000	1000	0	0	-1	1500
16530355	38	307	0	-100	0	230	101300000	1000	0	0	-1	1500
16542915	36	309	0	-100	0	230	101300000	1000	0	0	-1	1500
16555475	38	310	0	-100	0	230	101300000	1000	0	0	-1	1500
16568035	36	305	0	-100	0	230	101300000	1000	0	0	-1	1500
16580595	33	308	0	-100	0	230	101300000	1000	0	0	-1	1500
16593155	31	308	0	-100	0	230	101300000	1000	0	0	-1	1500
16605715	31	309	0	-100	0	230	101300000	1000	0	0	-1	1500
16618275	33	307	0	-100	0	230	101300000	1000	0	0	-1	1500
16630835	38	304	0	-100	0	230	101300000	1000	0	0	-1	1500
16643395	33	305	0	-100	0	230	101300000	1000	0	0	-1	1500
16655955	31	310	0	-100	0	230	101300000	1000	0	0	-1	1500
16668515	33	311	0	-100	0	230	101300000	1000	0	0	-1	1500
16681075	38	307	0	-100	0	230	101300000	1000	0	0	-1	1500
16693635	31	308	0	-100	0	230	101300000	1000	0	0	-1	1500
16706195	31	310	0	-100	0	230	101300000	1000	0	0	-1	1500
16718755	33	308	0	-100	0	230	101300000	1000	0	0	-1	1500
16731315	36	307	0	-100	0	230	101300000	1000	0	0	-1	1500
16743875	33	307	0	-100	0	230	101300000	1000	0	0	-1	1500
16756435	29	309	0	-100	0	230	101300000	1000	0	0	-1	1500
16768995	41	309	0	-100	0	230	101300000	1000	0	0	-1	1500
16781555	33	307	0	-100	0	230	101300000	1000	0	0	-1	1500
16794115	33	311	0	-100	0	230	101300000	1000	0	0	-1	1500
16806675	38	306	0	-100	0	230	101300000	1000	0	0	-1	1500
16819235	33	310	0	-100	0	230	101300000	1000	0	0	-1	1500
16831795	33	309	0	-100	0	230	101300000	1000	0	0	-1	1500
16844355	36	306	0	-100	0	230	101300000	1000	0	0	-1	1500
16856915	33	310	0	-100	0	230	101300000	1000	0	0	-1	1500
16869475	31	308	0	-100	0	230	101300000	1000	0	0	-1	1500
16882035	31	311	0	-100	0	230	101300000	1000	0	0	-1	1500
16894595	36	302	0	-100	0	230	101300000	1000	0	0	-1	1500
16907155	31	305	0	-100	0	230	101300000	1000	0	0	-1	1500
16919715	33	313	0	-100	0	230	101300000	1000	0	0	-1	1500
16932275	36	308	0	-100	0	230	101300000	1000	0	0	-1	1500
16944835	38	306	0	-100	0	230	101300000	1000	0	0	-1	1500
16957395	31	312	0	-100	0	230	101300000	1000	0	0	-1	1500
16969955	31	311	0	-100	0	230	101300000	1000	0	0	-1	1500
16982515	41	305	0	-100	0	230	101300000	1000	0	0	-1	1500
16995075	36	308	0	-100	0	230	101300000	1000	0	0	-1	1500
17007635	36	308	0	-100	0	230	101300000	1000	0	0	-1	1500
17020195	31	310	0	-100	0	230	101300000	1000	0	0	-1	1500
17032755	33	309	0	-100	0	230	101300000	1000	0	0	-1	1500
17045315	31	310	0	-100	0	230	101300000	1000	0	0	-1	1500
17057875	33	308	0	-100	0	230	101300000	1000	0	0	-1	1500
17070435	38	304	0	-100	0	230	101300000	1000	0	0	-1	1500
17082995	41	312	0	-100	0	230	101300000	1000	0	0	-1	1500
17095555	38	313	0	-100	0	230	101300000	1000	0	0	-1	1500
17108115	38	312	0	-100	0	230	101300000	1000	0	0	-1	1500
17120675	33	306	0	-100	0	230	101300000	1000	0	0	-1	1500
17133235	31	311	0	-100	0	230	101300000	1000	0	0	-1	1500
17145795	33	312	0	-100	0	230	101300000	1000	0	0	-1	1500
17158355	29	310	0	-100	0	230	101300000	1000	0	0	-1	1500
17170915	31	308	0	-100	0	230	101300000	1000	0	0	-1	1500
17183475	41	306	0	-100	0	230	101300000	1000	0	0	-1	1500
17196035	36	305	0	-100	0	230	101300000	1000	0	0	-1	1500
17208595	36	306	0	-100	0	230	101300000	1000	0	0	-1	1500
17221155	31	307	0	-100	0	230	101300000	1000	0	0	-1	1500
17233715	33	310	0	-100	0	230	101300000	1000	0	0	-1	1500
17246275	31	309	0	-100	0	230	101300000	1000	0	0	-1	1500
17258835	41	307	0	-100	0	230	101300000	1000	0	0	-1	1500
17271395	36	304	0	-100	0	230	101300000	1000	0	0	-1	1500
17283955	31	310	0	-100	0	230	101300000	1000	0	0	-1	1500
17296515	33	309	0	-100	0	230	101300000	1000	0	0	-1	1500
17309075	31	309	0	-100	0	230	101300000	1000	0	0	-1	1500
17321635	31	311	0	-100	0	230	101300000	1000	0	0	-1	1500
17334195	33	308	0	-100	0	230	101300000	1000	0	0	-1	1500
17346755	36	310	0	-100	0	230	101300000	1000	0	0	-1	1500
17359315	38	310	0	-100	0	230	101300000	1000	0	0	-1	1500
17371875	41	308	0	-100	0	230	101300000	1000	0	0	-1	1500
17384435	36	308	0	-100	0	230	101300000	1000	0	0	-1	1500
17396995	33	308	0	-100	0	230	101300000	1000	0	0	-1	1500
17409555	31	316	0	-100	0	230	101300000	1000	0	0	-1	1500
17422115	31	310	0	-100	0	230	101300000	1000	0	0	-1	1500
17434675	31	307	0	-100	0	230	101300000	1000	0	0	-1	1500
17447235	43	307	0	-100	0	230	101300000	1000	0	0	-1	1500
17459795	38	306	0	-100	0	230	101300000	1000	0	0	-1	1500
17472355	36	304	0	-100	0	230	101300000	1000	0	0	-1	1500
17484915	31	308	0	-100	0	230	101300000	1000	0	0	-1	1500
17497475	31	309	0	-100	0	230	101300000	1000	0	0	-1	1500
17510035	41	310	0	-100	0	230	101300000	1000	0	0	-1	1500
17522595	38	308	0	-100	0	230	101300000	1000	0	0	-1	1500
17535155	33	306	0	-100	0	230	101300000	1000	0	0	-1	1500
17547715	33	308	0	-100	0	230	101300000	1000	0	0	-1	1500
17560275	31	311	0	-100	0	230	101300000	1000	0	0	-1	1500
17572835	31	309	0	-100	0	230	101300000	1000	0	0	-1	1500
17585395	41	308	0	-100	0	230	101300000	1000	0	0	-1	1500
17597955	36	305	0	-100	0	230	101300000	1000	0	0	-1	1500
17610515	36	314	0	-100	0	230	101300000	1000	0	0	-1	1500
17623075	33	308	0	-100	0	230	101300000	1000	0	0	-1	1500
17635635	38	308	0	-100	0	230	101300000	1000	0	0	-1	1500
17648195	33	307	0	-100	0	230	101300000	1000	0	0	-1	1500
17660755	31	308	0	-100	0	230	101300000	1000	0	0	-1	1500
17673315	36	307	0	-100	0	230	101300000	1000	0	0	-1	1500
17685875	31	312	0	-100	0	230	101300000	1000	0	0	-1	1500
17698435	31	310	0	-100	0	230	101300000	1000	0	0	-1	1500
17710995	38	312	0	-100	0	230	101300000	1000	0	0	-1	1500
17723555	31	308	0	-100	0	230	101300000	1000	0	0	-1	1500
17736115	33	309	0	-100	0	230	101300000	1000	0	0	-1	1500
17748675	36	308	0	-100	0	230	101300000	1000	0	0	-1	1500
17761235	38	312	0	-100	0	230	101300000	1000	0	0	-1	1500
17773795	36	309	0	-100	0	230	101300000	1000	0	0	-1	1500
17786355	33	306	0	-100	0	230	101300000	1000	0	0	-1	1500
17798915	36	307	0	-100	0	230	101300000	1000	0	0	-1	1500
17811475	36	313	0	-100	0	230	101300000	1000	0	0	-1	1500
17824035	33	308	0	-100	0	230	101300000	1000	0	0	-1	1500
17836595	38	307	0	-100	0	230	101300000	1000	0	0	-1	1500
17849155	31	308	0	-100	0	230	101300000	1000	0	0	-1	1500
17861715	38	309	0	-100	0	230	101300000	1000	0	0	-1	1500
17874275	33	308	0	-100	0	230	101300000	1000	0	0	-1	1500
17886835	31	313	0	-100	0	230	101300000	1000	0	0	-1	1500
17899395	38	308	0	-100	0	230	101300000	1000	0	0	-1	1500
17911955	31	308	0	-100	0	230	101300000	1000	0	0	-1	1500
17924515	31	312	0	-100	0	230	101300000	1000	0	0	-1	1500
17937075	38	307	0	-100	0	230	101300000	1000	0	0	-1	1500
17949635	31	310	0	-100	0	230	101300000	1000	0	0	-1	1500
17962195	31	308	0	-100	0	230	101300000	1000	0	0	-1	1500
17974755	38	307	0	-100	0	230	101300000	1000	0	0	-1	1500
17987315	33	312	0	-100	0	230	101300000	1000	0	0	-1	1500
17999875	31	312	0	-100	0	230	101300000	1000	0	0	-1	1500
18012435	38	306	0	-100	0	230	101300000	1000	0	0	-1	1500
18024995	38	307	0	-100	0	230	101300000	1000	0	0	-1	1500
18037555	36	307	0	-100	0	230	101300000	1000	0	0	-1	1500
18050115	31	310	0	-100	0	230	101300000	1000	0	0	-1	1500
18062675	33	308	0	-100	0	230	101300000	1000	0	0	-1	1500
18075235	38	308	0	-100	0	230	101300000	1000	0	0	-1	1500
18087795	36	307	0	-100	0	230	101300000	1000	0	0	-1	1500
18100355	33	311	0	-100	0	230	101300000	1000	0	0	-1	1500
18112915	31	310	0	-100	0	230	101300000	1000	0	0	-1	1500
18125475	38	309	0	-100	0	230	101300000	1000	0	0	-1	1500
18138035	36	308	0	-100	0	230	101300000	1000	0	0	-1	1500
18150595	33	305	0	-100	0	230	101300000	1000	0	0	-1	1500
18163155	29	307	0	-100	0	230	101300000	1000	0	0	-1	1500
18175715	31	313	0	-100	0	230	101300000	1000	0	0	-1	1500
18188275	29	313	0	-100	0	230	101300000	1000	0	0	-1	1500
18200835	33	308	0	-100	0	230	101300000	1000	0	0	-1	1500
18213395	36	308	0	-100	0	230	101300000	1000	0	0	-1	1500
18225955	31	311	0	-100	0	230	101300000	1000	0	0	-1	1500
18238515	31	311	0	-100	0	230	101300000	1000	0	0	-1	1500
18251075	31	307	0	-100	0	230	101300000	1000	0	0	-1	1500
18263635	36	308	0	-100	0	230	101300000	1000	0	0	-1	1500
18276195	33	311	0	-100	0	230	101300000	1000	0	0	-1	1500
18288755	33	309	0	-100	0	230	101300000	1000	0	0	-1	1500
18301315	33	308	0	-100	0	230	101300000	1000	0	0	-1	1500
18313875	33	311	0	-100	0	230	101300000	1000	0	0	-1	1500
18326435	31	311	0	-100	0	230	101300000	1000	0	0	-1	1500
18338995	31	311	0	-100	0	230	101300000	1000	0	0	-1	1500
18351555	36	308	0	-100	0	230	101300000	1000	0	0	-1	1500
18364115	38	309	0	-100	0	230	101300000	1000	0	0	-1	1500
18376675	41	302	0	-100	0	230	101300000	1000	0	0	-1	1500
18389235	38	307	0	-100	0	230	101300000	1000	0	0	-1	1500
18401795	36	304	0	-100	0	230	101300000	1000	0	0	-1	1500
18414355	36	305	0	-100	0	230	101300000	1000	0	0	-1	1500
18426915	31	311	0	-100	0	230	101300000	1000	0	0	-1	1500
18439475	33	308	0	-100	0	230	101300000	1000	0	0	-1	1500
18452035	33	309	0	-100	0	230	101300000	1000	0	0	-1	1500
18464595	29	310	0	-100	0	230	101300000	1000	0	0	-1	1500
18477155	33	311	0	-100	0	230	101300000	1000	0	0	-1	1500
18489715	31	309	0	-100	0	230	101300000	1000	0	0	-1	1500
18502275	29	309	0	-100	0	230	101300000	1000	0	0	-1	1500
18514835	31	308	0	-100	0	230	101300000	1000	0	0	-1	1500
18527395	31	308	0	-100	0	230	101300000	1000	0	0	-1	1500
18539955	31	309	0	-100	0	230	101300000	1000	0	0	-1	1500
18552515	31	308	0	-100	0	230	101300000	1000	0	0	-1	1500
18565075	31	310	0	-100	0	230	101300000	1000	0	0	-1	1500
18577635	33	309	0	-100	0	230	101300000	1000	0	0	-1	1500
18590195	36	308	0	-100	0	230	101300000	1000	0	0	-1	1500
18602755	41	306	0	-100	0	230	101300000	1000	0	0	-1	1500
18615315	41	313	0	-100	0	230	101300000	1000	0	0	-1	1500
18627875	38	310	0	-100	0	230	101300000	1000	0	0	-1	1500
18640435	36	307	0	-100	0	230	101300000	1000	0	0	-1	1500
18652995	38	305	0	-100	0	230	101300000	1000	0	0	-1	1500
18665555	38	311	0	-100	0	230	101300000	1000	0	0	-1	1500
18678115	36	304	0	-100	0	230	101300000	1000	0	0	-1	1500
18690675	33	307	0	-100	0	230	101300000	1000	0	0	-1	1500
18703235	33	310	0	-100	0	230	101300000	1000	0	0	-1	1500
18715795	31	312	0	-100	0	230	101300000	1000	0	0	-1	1500
18728355	31	311	0	-100	0	230	101300000	1000	0	0	-1	1500
18740915	31	309	0	-100	0	230	101300000	1000	0	0	-1	1500
18753475	33	307	0	-100	0	230	101300000	1000	0	0	-1	1500
18766035	38	309	0	-100	0	230	101300000	1000	0	0	-1	1500
18778595	38	308	0	-100	0	230	101300000	1000	0	0	-1	1500
18791155	36	306	0	-100	0	230	101300000	1000	0	0	-1	1500
18803715	36	306	0	-100	0	230	101300000	1000	0	0	-1	1500
18816275	38	310	0	-100	0	230	101300000	1000	0	0	-1	1500
18828835	33	309	0	-100	0	230	101300000	1000	0	0	-1	1500
18841395	33	307	0	-100	0	230	101300000	1000	0	0	-1	1500
18853955	31	310	0	-100	0	230	101300000	1000	0	0	-1	1500
18866515	31	311	0	-100	0	230	101300000	1000	0	0	-1	1500
18879075	33	307	0	-100	0	230	101300000	1000	0	0	-1	1500
18891635	31	306	0	-100	0	230	101300000	1000	0	0	-1	1500
18904195	31	307	0	-100	0	230	101300000	1000	0	0	-1	1500
18916755	36	306	0	-100	0	230	101300000	1000	0	0	-1	1500
18929315	36	306	0	-100	0	230	101300000	1000	0	0	-1	1500
18941875	33	308	0	-100	0	230	101300000	1000	0	0	-1	1500
18954435	36	305	0	-100	0	230	101300000	1000	0	0	-1	1500
18966995	31	309	0	-100	0	230	101300000	1000	0	0	-1	1500
18979555	33	307	0	-100	0	230	101300000	1000	0	0	-1	1500
18992115	36	307	0	-100	0	230	101300000	1000	0	0	-1	1500
19004675	38	312	0	-100	0	230	101300000	1000	0	0	-1	1500
19017235	41	308	0	-100	0	230	101300000	1000	0	0	-1	1500
19029795	41	309	0	-100	0	230	101300000	1000	0	0	-1	1500
19042355	38	307	0	-100	0	230	101300000	1000	0	0	-1	1500
19054915	38	307	0	-100	0	230	101300000	1000	0	0	-1	1500
19067475	36	308	0	-100	0	230	101300000	1000	0	0	-1	1500
19080035	33	304	0	-100	0	230	101300000	1000	0	0	-1	1500
19092595	33	309	0	-100	0	230	101300000	1000	0	0	-1	1500
19105155	29	310	0	-100	0	230	101300000	1000	0	0	-1	1500
19117715	33	310	0	-100	0	230	101300000	1000	0	0	-1	1500
19130275	36	312	0	-100	0	230	101300000	1000	0	0	-1	1500
19142835	31	309	0	-100	0	230	101300000	1000	0	0	-1	1500
19155395	36	307	0	-100	0	230	101300000	1000	0	0	-1	1500
19167955	41	306	0	-100	0	230	101300000	1000	0	0	-1	1500
19180515	41	309	0	-100	0	230	101300000	1000	0	0	-1	1500
19193075	38	309	0	-100	0	230	101300000	1000	0	0	-1	1500
19205635	36	308	0	-100	0	230	101300000	1000	0	0	-1	1500
19218195	33	308	0	-100	0	230	101300000	1000	0	0	-1	1500
19230755	31	310	0	-100	0	230	101300000	1000	0	0	-1	1500
19243315	31	310	0	-100	0	230	101300000	1000	0	0	-1	1500
19255875	33	308	0	-100	0	230	101300000	1000	0	0	-1	1500
19268435	31	311	0	-100	0	230	101300000	1000	0	0	-1	1500
19280995	33	305	0	-100	0	230	101300000	1000	0	0	-1	1500
19293555	31	305	0	-100	0	230	101300000	1000	0	0	-1	1500
19306115	33	309	0	-100	0	230	101300000	1000	0	0	-1	1500
19318675	36	306	0	-100	0	230	101300000	1000	0	0	-1	1500
19331235	38	312	0	-100	0	230	101300000	1000	0	0	-1	1500
19343795	36	307	0	-100	0	230	101300000	1000	0	0	-1	1500
19356355	29	311	0	-100	0	230	101300000	1000	0	0	-1	1500
19368915	31	309	0	-100	0	230	101300000	1000	0	0	-1	1500
19381475	33	307	0	-100	0	230	101300000	1000	0	0	-1	1500
19394035	31	310	0	-100	0	230	101300000	1000	0	0	-1	1500
19406595	33	306	0	-100	0	230	101300000	1000	0	0	-1	1500
19419155	36	307	0	-100	0	230	101300000	1000	0	0	-1	1500
19431715	38	308	0	-100	0	230	101300000	1000	0	0	-1	1500
19444275	29	311	0	-100	0	230	101300000	1000	0	0	-1	1500
19456835	33	311	0	-100	0	230	101300000	1000	0	0	-1	1500
19469395	38	307	0	-100	0	230	101300000	1000	0	0	-1	1500
19481955	31	306	0	-100	0	230	101300000	1000	0	0	-1	1500
19494515	31	310	0	-100	0	230	101300000	1000	0	0	-1	1500
19507075	31	309	0	-100	0	230	101300000	1000	0	0	-1	1500
19519635	36	304	0	-100	0	230	101300000	1000	0	0	-1	1500
19532195	38	308	0	-100	0	230	101300000	1000	0	0	-1	1500
19544755	38	308	0	-100	0	230	101300000	1000	0	0	-1	1500
19557315	33	308	0	-100	0	230	101300000	1000	0	0	-1	1500
19569875	31	310	0	-100	0	230	101300000	1000	0	0	-1	1500
19582435	36	310	0	-100	0	230	101300000	1000	0	0	-1	1500
19594995	33	311	0	-100	0	230	101300000	1000	0	0	-1	1500
19607555	33	308	0	-100	0	230	101300000	1000	0	0	-1	1500
19620115	33	307	0	-100	0	230	101300000	1000	0	0	-1	1500
19632675	36	305	0	-100	0	230	101300000	1000	0	0	-1	1500
19645235	38	312	0	-100	0	230	101300000	1000	0	0	-1	1500
19657795	38	307	0	-100	0	230	101300000	1000	0	0	-1	1500
19670355	41	308	0	-100	0	230	101300000	1000	0	0	-1	1500
19682915	38	310	0	-100	0	230	101300000	1000	0	0	-1	1500
19695475	38	307	0	-100	0	230	101300000	1000	0	0	-1	1500
19708035	38	309	0	-100	0	230	101300000	1000	0	0	-1	1500
19720595	33	309	0	-100	0	230	101300000	1000	0	0	-1	1500
19733155	29	307	0	-100	0	230	101300000	1000	0	0	-1	1500
19745715	33	310	0	-100	0	230	101300000	1000	0	0	-1	1500
19758275	36	312	0	-100	0	230	101300000	1000	0	0	-1	1500
19770835	33	306	0	-100	0	230	101300000	1000	0	0	-1	1500
19783395	31	307	0	-100	0	230	101300000	1000	0	0	-1	1500
19795955	36	309	0	-100	0	230	101300000	1000	0	0	-1	1500
19808515	36	304	0	-100	0	230	101300000	1000	0	0	-1	1500
19821075	38	308	0	-100	0	230	101300000	1000	0	0	-1	1500
19833635	41	307	0	-100	0	230	101300000	1000	0	0	-1	1500
19846195	38	308	0	-100	0	230	101300000	1000	0	0	-1	1500
19858755	31	310	0	-100	0	230	101300000	1000	0	0	-1	1500
19871315	31	306	0	-100	0	230	101300000	1000	0	0	-1	1500
19883875	36	307	0	-100	0	230	101300000	1000	0	0	-1	1500
19896435	38	306	0	-100	0	230	101300000	1000	0	0	-1	1500
19908995	38	311	0	-100	0	230	101300000	1000	0	0	-1	1500
19921555	31	309	0	-100	0	230	101300000	1000	0	0	-1	1500
19934115	36	311	0	-100	0	230	101300000	1000	0	0	-1	1500
19946675	33	308	0	-100	0	230	101300000	1000	0	0	-1	1500
19959235	38	308	0	-100	0	230	101300000	1000	0	0	-1	1500
19971795	29	307	0	-100	0	230	101300000	1000	0	0	-1	1500
19984355	31	307	0	-100	0	230	101300000	1000	0	0	-1	1500
19996915	33	305	0	-100	0	230	101300000	1000	0	0	-1	1500
20009475	38	308	0	-100	0	230	101300000	1000	0	0	-1	1500
20022035	41	310	0	-100	0	230	101300000	1000	0	0	-1	1500
20034595	31	309	0	-100	0	230	101300000	1000	0	0	-1	1500
20047155	29	310	0	-100	0	230	101300000	1000	0	0	-1	1500
20059715	31	308	0	-100	0	230	101300000	1000	0	0	-1	1500
20072275	36	308	0	-100	0	230	101300000	1000	0	0	-1	1500
20084835	38	308	0	-100	0	230	101300000	1000	0	0	-1	1500
20097395	31	310	0	-100	0	230	101300000	1000	0	0	-1	1500
20109955	33	307	0	-100	0	230	101300000	1000	0	0	-1	1500
20122515	36	305	0	-100	0	230	101300000	1000	0	0	-1	1500
20135075	36	307	0	-100	0	230	101300000	1000	0	0	-1	1500
20147635	41	308	0	-100	0	230	101300000	1000	0	0	-1	1500
20160195	33	307	0	-100	0	230	101300000	1000	0	0	-1	1500
20172755	31	312	0	-100	0	230	101300000	1000	0	0	-1	1500
20185315	33	308	0	-100	0	230	101300000	1000	0	0	-1	1500
20197875	33	315	0	-100	0	230	101300000	1000	0	0	-1	1500
20210435	38	307	0	-100	0	230	101300000	1000	0	0	-1	1500
20222995	38	308	0	-100	0	230	101300000	1000	0	0	-1	1500
20235555	36	304	0	-100	0	230	101300000	1000	0	0	-1	1500
20248115	31	309	0	-100	0	230	101300000	1000	0	0	-1	1500
20260675	31	311	0	-100	0	230	101300000	1000	0	0	-1	1500
20273235	31	309	0	-100	0	230	101300000	1000	0	0	-1	1500
20285795	33	315	0	-100	0	230	101300000	1000	0	0	-1	1500
20298355	31	312	0	-100	0	230	101300000	1000	0	0	-1	1500
20310915	31	309	0	-100	0	230	101300000	1000	0	0	-1	1500
20323475	33	308	0	-100	0	230	101300000	1000	0	0	-1	1500
20336035	41	308	0	-100	0	230	101300000	1000	0	0	-1	1500
20348595	41	308	0	-100	0	230	101300000	1000	0	0	-1	1500
20361155	36	302	0	-100	0	230	101300000	1000	0	0	-1	1500
20373715	38	311	0	-100	0	230	101300000	1000	0	0	-1	1500
20386275	33	310	0	-100	0	230	101300000	1000	0	0	-1	1500
20398835	33	307	0	-100	0	230	101300000	1000	0	0	-1	1500
20411395	31	312	0	-100	0	230	101300000	1000	0	0	-1	1500
20423955	31	310	0	-100	0	230	101300000	1000	0	0	-1	1500
20436515	31	307	0	-100	0	230	101300000	1000	0	0	-1	1500
20449075	31	308	0	-100	0	230	101300000	1000	0	0	-1	1500
20461635	31	311	0	-100	0	230	101300000	1000	0	0	-1	1500
20474195	33	310	0	-100	0	230	101300000	1000	0	0	-1	1500
20486755	33	311	0	-100	0	230	101300000	1000	0	0	-1	1500
20499315	31	311	0	-100	0	230	101300000	1000	0	0	-1	1500
20511875	33	305	0	-100	0	230	101300000	1000	0	0	-1	1500
20524435	38	307	0	-100	0	230	101300000	1000	0	0	-1	1500
20536995	38	310	0	-100	0	230	101300000	1000	0	0	-1	1500
20549555	33	306	0	-100	0	230	101300000	1000	0	0	-1	1500
20562115	36	308	0	-100	0	230	101300000	1000	0	0	-1	1500
20574675	33	308	0	-100	0	230	101300000	1000	0	0	-1	1500
20587235	36	306	0	-100	0	230	101300000	1000	0	0	-1	1500
20599795	36	307	0	-100	0	230	101300000	1000	0	0	-1	1500
20612355	36	307	0	-100	0	230	101300000	1000	0	0	-1	1500
20624915	36	308	0	-100	0	230	101300000	1000	0	0	-1	1500
20637475	36	308	0	-100	0	230	101300000	1000	0	0	-1	1500
20650035	33	307	0	-100	0	230	101300000	1000	0	0	-1	1500
20662595	33	305	0	-100	0	230	101300000	1000	0	0	-1	1500
20675155	33	307	0	-100	0	230	101300000	1000	0	0	-1	1500
20687715	36	307	0	-100	0	230	101300000	1000	0	0	-1	1500
20700275	33	308	0	-100	0	230	101300000	1000	0	0	-1	1500
20712835	36	308	0	-100	0	230	101300000	1000	0	0	-1	1500
20725395	41	308	0	-100	0	230	101300000	1000	0	0	-1	1500
20737955	36	309	0	-100	0	230	101300000	1000	0	0	-1	1500
20750515	33	308	0	-100	0	230	101300000	1000	0	0	-1	1500
20763075	36	308	0	-100	0	230	101300000	1000	0	0	-1	1500
20775635	41	310	0	-100	0	230	101300000	1000	0	0	-1	1500
20788195	38	305	0	-100	0	230	101300000	1000	0	0	-1	1500
20800755	43	303	0	-100	0	230	101300000	1000	0	0	-1	1500
20813315	41	306	0	-100	0	230	101300000	1000	0	0	-1	1500
20825875	41	310	0	-100	0	230	101300000	1000	0	0	-1	1500
20838435	38	308	0	-100	0	230	101300000	1000	0	0	-1	1500
20850995	41	311	0	-100	0	230	101300000	1000	0	0	-1	1500
20863555	41	304	0	-100	0	230	101300000	1000	0	0	-1	1500
20876115	38	308	0	-100	0	230	101300000	1000	0	0	-1	1500
20888675	41	305	0	-100	0	230	101300000	1000	0	0	-1	1500
20901235	36	304	0	-100	0	230	101300000	1000	0	0	-1	1500
20913795	38	308	0	-100	0	230	101300000	1000	0	0	-1	1500
20926355	36	307	0	-100	0	230	101300000	1000	0	0	-1	1500
20938915	33	307	0	-100	0	230	101300000	1000	0	0	-1	1500
20951475	36	308	0	-100	0	230	101300000	1000	0	0	-1	1500
20964035	36	303	0	-100	0	230	101300000	1000	0	0	-1	1500
20976595	31	308	0	-100	0	230	101300000	1000	0	0	-1	1500
20989155	29	307	0	-100	0	230	101300000	1000	0	0	-1	1500
21001715	33	307	0	-100	0	230	101300000	1000	0	0	-1	1500
21014275	31	311	0	-100	0	230	101300000	1000	0	0	-1	1500
21026835	33	311	0	-100	0	230	101300000	1000	0	0	-1	1500
21039395	31	308	0	-100	0	230	101300000	1000	0	0	-1	1500
21051955	31	309	0	-100	0	230	101300000	1000	0	0	-1	1500
21064515	36	308	0	-100	0	230	101300000	1000	0	0	-1	1500
21077075	38	308	0	-100	0	230	101300000	1000	0	0	-1	1500
21089635	41	309	0	-100	0	230	101300000	1000	0	0	-1	1500
21102195	36	310	0	-100	0	230	101300000	1000	0	0	-1	1500
21114755	41	308	0	-100	0	230	101300000	1000	0	0	-1	1500
21127315	41	309	0	-100	0	230	101300000	1000	0	0	-1	1500
21139875	41	309	0	-100	0	230	101300000	1000	0	0	-1	1500
21152435	38	307	0	-100	0	230	101300000	1000	0	0	-1	1500
21177555	38	307	0	-100	0	230	101300000	1000	0	0	-1	1500
21190115	38	306	0	-100	0	230	101300000	1000	0	0	-1	1500
21202675	33	307	0	-100	0	230	101300000	1000	0	0	-1	1500
21215235	31	311	0	-100	0	230	101300000	1000	0	0	-1	1500
21227795	29	311	0	-100	0	230	101300000	1000	0	0	-1	1500
21240355	31	312	0	-100	0	230	101300000	1000	0	0	-1	1500
21252915	33	317	0	-100	0	230	101300000	1000	0	0	-1	1500
21265475	31	308	0	-100	0	230	101300000	1000	0	0	-1	1500
21278035	33	307	0	-100	0	230	101300000	1000	0	0	-1	1500
21290595	31	306	0	-100	0	230	101300000	1000	0	0	-1	1500
21303155	33	306	0	-100	0	230	101300000	1000	0	0	-1	1500
21315715	33	305	0	-100	0	230	101300000	1000	0	0	-1	1500
21391075	31	311	0	-100	0	230	101300000	1000	0	0	-1	1500
21403635	33	309	0	-100	0	230	101300000	1000	0	0	-1	1500
21416195	31	311	0	-100	0	230	101300000	1000	0	0	-1	1500
21428755	31	309	0	-100	0	230	101300000	1000	0	0	-1	1500
21441315	33	308	0	-100	0	230	101300000	1000	0	0	-1	1500
21453875	31	306	0	-100	0	230	101300000	1000	0	0	-1	1500
21466435	31	311	0	-100	0	230	101300000	1000	0	0	-1	1500
21478995	31	308	0	-100	0	230	101300000	1000	0	0	-1	1500
21491555	36	308	0	-100	0	230	101300000	1000	0	0	-1	1500
21504115	38	308	0	-100	0	230	101300000	1000	0	0	-1	1500
21516675	33	307	0	-100	0	230	101300000	1000	0	0	-1	1500
21554355	31	308	0	-100	0	230	101300000	1000	0	0	-1	1500
21566915	33	313	0	-100	0	230	101300000	1000	0	0	-1	1500
21579475	36	311	0	-100	0	230	101300000	1000	0	0	-1	1500
21592035	33	308	0	-100	0	230	101300000	1000	0	0	-1	1500
21604595	31	306	0	-100	0	230	101300000	1000	0	0	-1	1500
21617155	29	307	0	-100	0	230	101300000	1000	0	0	-1	1500
21629715	36	308	0	-100	0	230	101300000	1000	0	0	-1	1500
21642275	33	309	0	-100	0	230	101300000	1000	0	0	-1	1500
21654835	31	309	0	-100	0	230	101300000	1000	0	0	-1	1500
21667395	31	309	0	-100	0	230	101300000	1000	0	0	-1	1500
21679955	31	312	0	-100	0	230	101300000	1000	0	0	-1	1500
21692515	29	312	0	-100	0	230	101300000	1000	0	0	-1	1500
21705075	31	311	0	-100	0	230	101300000	1000	0	0	-1	1500
21717635	31	311	0	-100	0	230	101300000	1000	0	0	-1	1500
21730195	31	311	0	-100	0	230	101300000	1000	0	0	-1	1500
21742755	31	309	0	-100	0	230	101300000	1000	0	0	-1	1500
21755315	31	308	0	-100	0	230	101300000	1000	0	0	-1	1500
21767875	31	309	0	-100	0	230	101300000	1000	0	0	-1	1500
21780435	31	311	0	-100	0	230	101300000	1000	0	0	-1	1500
21792995	31	311	0	-100	0	230	101300000	1000	0	0	-1	1500
21805555	33	309	0	-100	0	230	101300000	1000	0	0	-1	1500
21818115	33	308	0	-100	0	230	101300000	1000	0	0	-1	1500
21830675	31	310	0	-100	0	230	101300000	1000	0	0	-1	1500
21843235	31	310	0	-100	0	230	101300000	1000	0	0	-1	1500
21855795	31	309	0	-100	0	230	101300000	1000	0	0	-1	1500
21868355	31	308	0	-100	0	230	101300000	1000	0	0	-1	1500
21880915	31	313	0	-100	0	230	101300000	1000	0	0	-1	1500
21893475	33	309	0	-100	0	230	101300000	1000	0	0	-1	1500
21906035	31	306	0	-100	0	230	101300000	1000	0	0	-1	1500
21918595	31	309	0	-100	0	230	101300000	1000	0	0	-1	1500
21931155	29	309	0	-100	0	230	101300000	1000	0	0	-1	1500
21943715	33	310	0	-100	0	230	101300000	1000	0	0	-1	1500
21956275	29	312	0	-100	0	230	101300000	1000	0	0	-1	1500
21968835	31	310	0	-100	0	230	101300000	1000	0	0	-1	1500
21981395	31	312	0	-100	0	230	101300000	1000	0	0	-1	1500
21993955	31	310	0	-100	0	230	101300000	1000	0	0	-1	1500
22006515	33	312	0	-100	0	230	101300000	1000	0	0	-1	1500
22019075	31	308	0	-100	0	230	101300000	1000	0	0	-1	1500
22031635	36	311	0	-100	0	230	101300000	1000	0	0	-1	1500
22044195	31	310	0	-100	0	230	101300000	1000	0	0	-1	1500
22056755	33	309	0	-100	0	230	101300000	1000	0	0	-1	1500
22069315	33	308	0	-100	0	230	101300000	1000	0	0	-1	1500
22081875	31	307	0	-100	0	230	101300000	1000	0	0	-1	1500
22094435	33	310	0	-100	0	230	101300000	1000	0	0	-1	1500
22106995	31	305	0	-100	0	230	101300000	1000	0	0	-1	1500
22119555	31	313	0	-100	0	230	101300000	1000	0	0	-1	1500
22132115	31	306	0	-100	0	230	101300000	1000	0	0	-1	1500
22144675	31	307	0	-100	0	230	101300000	1000	0	0	-1	1500
22157235	33	307	0	-100	0	230	101300000	1000	0	0	-1	1500
22169795	29	312	0	-100	0	230	101300000	1000	0	0	-1	1500
22182355	33	308	0	-100	0	230	101300000	1000	0	0	-1	1500
22194915	33	312	0	-100	0	230	101300000	1000	0	0	-1	1500
22207475	31	309	0	-100	0	230	101300000	1000	0	0	-1	1500
22220035	29	310	0	-100	0	230	101300000	1000	0	0	-1	1500
22232595	31	310	0	-100	0	230	101300000	1000	0	0	-1	1500
22245155	26	309	0	-100	0	230	101300000	1000	0	0	-1	1500
22257715	31	308	0	-100	0	230	101300000	1000	0	0	-1	1500
22270275	31	311	0	-100	0	230	101300000	1000	0	0	-1	1500
22282835	31	310	0	-100	0	230	101300000	1000	0	0	-1	1500
22295395	33	308	0	-100	0	230	101300000	1000	0	0	-1	1500
22307955	36	311	0	-100	0	230	101300000	1000	0	0	-1	1500
22320515	33	313	0	-100	0	230	101300000	1000	0	0	-1	1500
22333075	31	309	0	-100	0	230	101300000	1000	0	0	-1	1500
22345635	31	309	0	-100	0	230	101300000	1000	0	0	-1	1500
22358195	31	308	0	-100	0	230	101300000	1000	0	0	-1	1500
22370755	33	308	0	-100	0	230	101300000	1000	0	0	-1	1500
22383315	31	308	0	-100	0	230	101300000	1000	0	0	-1	1500
22395875	33	309	0	-100	0	230	101300000	1000	0	0	-1	1500
22408435	31	310	0	-100	0	230	101300000	1000	0	0	-1	1500
22420995	31	310	0	-100	0	230	101300000	1000	0	0	-1	1500
22433555	29	312	0	-100	0	230	101300000	1000	0	0	-1	1500
22446115	33	308	0	-100	0	230	101300000	1000	0	0	-1	1500
22458675	31	310	0	-100	0	230	101300000	1000	0	0	-1	1500
22471235	31	311	0	-100	0	230	101300000	1000	0	0	-1	1500
22483795	29	311	0	-100	0	230	101300000	1000	0	0	-1	1500
22496355	33	312	0	-100	0	230	101300000	1000	0	0	-1	1500
22508915	31	309	0	-100	0	230	101300000	1000	0	0	-1	1500
22521475	31	312	0	-100	0	230	101300000	1000	0	0	-1	1500
22534035	31	307	0	-100	0	230	101300000	1000	0	0	-1	1500
22546595	38	308	0	-100	0	230	101300000	1000	0	0	-1	1500
22559155	33	303	0	-100	0	230	101300000	1000	0	0	-1	1500
22571715	33	306	0	-100	0	230	101300000	1000	0	0	-1	1500
22584275	33	308	0	-100	0	230	101300000	1000	0	0	-1	1500
22596835	31	309	0	-100	0	230	101300000	1000	0	0	-1	1500
22609395	31	308	0	-100	0	230	101300000	1000	0	0	-1	1500
22621955	31	313	0	-100	0	230	101300000	1000	0	0	-1	1500
22634515	31	308	0	-100	0	230	101300000	1000	0	0	-1	1500
22647075	31	309	0	-100	0	230	101300000	1000	0	0	-1	1500
22659635	31	307	0	-100	0	230	101300000	1000	0	0	-1	1500
22672195	31	312	0	-100	0	230	101300000	1000	0	0	-1	1500
22684755	33	307	0	-100	0	230	101300000	1000	0	0	-1	1500
22697315	29	309	0	-100	0	230	101300000	1000	0	0	-1	1500
22709875	31	307	0	-100	0	230	101300000	1000	0	0	-1	1500
22722435	31	309	0	-100	0	230	101300000	1000	0	0	-1	1500
22734995	31	312	0	-100	0	230	101300000	1000	0	0	-1	1500
22747555	38	309	0	-100	0	230	101300000	1000	0	0	-1	1500
22760115	38	306	0	-100	0	230	101300000	1000	0	0	-1	1500
22772675	36	306	0	-100	0	230	101300000	1000	0	0	-1	1500
22785235	31	309	0	-100	0	230	101300000	1000	0	0	-1	1500
22797795	31	311	0	-100	0	230	101300000	1000	0	0	-1	1500
22810355	31	306	0	-100	0	230	101300000	1000	0	0	-1	1500
22822915	33	309	0	-100	0	230	101300000	1000	0	0	-1	1500
22835475	29	308	0	-100	0	230	101300000	1000	0	0	-1	1500
22848035	38	314	0	-100	0	230	101300000	1000	0	0	-1	1500
22860595	36	305	0	-100	0	230	101300000	1000	0	0	-1	1500
22873155	36	304	0	-100	0	230	101300000	1000	0	0	-1	1500
22885715	33	309	0	-100	0	230	101300000	1000	0	0	-1	1500
22898275	33	308	0	-100	0	230	101300000	1000	0	0	-1	1500
22910835	36	309	0	-100	0	230	101300000	1000	0	0	-1	1500
22923395	33	312	0	-100	0	230	101300000	1000	0	0	-1	1500
22935955	36	306	0	-100	0	230	101300000	1000	0	0	-1	1500
22948515	38	308	0	-100	0	230	101300000	1000	0	0	-1	1500
22961075	38	306	0	-100	0	230	101300000	1000	0	0	-1	1500
22973635	33	307	0	-100	0	230	101300000	1000	0	0	-1	1500
22986195	31	312	0	-100	0	230	101300000	1000	0	0	-1	1500
22998755	33	311	0	-100	0	230	101300000	1000	0	0	-1	1500
23011315	33	311	0	-100	0	230	101300000	1000	0	0	-1	1500
23023875	31	310	0	-100	0	230	101300000	1000	0	0	-1	1500
23036435	31	312	0	-100	0	230	101300000	1000	0	0	-1	1500
23048995	33	304	0	-100	0	230	101300000	1000	0	0	-1	1500
23061555	31	309	0	-100	0	230	101300000	1000	0	0	-1	1500
23074115	31	308	0	-100	0	230	101300000	1000	0	0	-1	1500
23086675	33	308	0	-100	0	230	101300000	1000	0	0	-1	1500
23099235	38	310	0	-100	0	230	101300000	1000	0	0	-1	1500
23111795	41	308	0	-100	0	230	101300000	1000	0	0	-1	1500
23124355	38	309	0	-100	0	230	101300000	1000	0	0	-1	1500
23136915	36	307	0	-100	0	230	101300000	1000	0	0	-1	1500
23149475	33	308	0	-100	0	230	101300000	1000	0	0	-1	1500
23162035	33	307	0	-100	0	230	101300000	1000	0	0	-1	1500
23174595	33	308	0	-100	0	230	101300000	1000	0	0	-1	1500
23187155	29	308	0	-100	0	230	101300000	1000	0	0	-1	1500
23199715	31	312	0	-100	0	230	101300000	1000	0	0	-1	1500
23212275	31	310	0	-100	0	230	101300000	1000	0	0	-1	1500
23224835	33	311	0	-100	0	230	101300000	1000	0	0	-1	1500
23237395	33	308	0	-100	0	230	101300000	1000	0	0	-1	1500
23249955	38	308	0	-100	0	230	101300000	1000	0	0	-1	1500
23262515	38	303	0	-100	0	230	101300000	1000	0	0	-1	1500
23275075	38	308	0	-100	0	230	101300000	1000	0	0	-1	1500
23287635	38	308	0	-100	0	230	101300000	1000	0	0	-1	1500
23300195	36	307	0	-100	0	230	101300000	1000	0	0	-1	1500
23312755	33	305	0	-100	0	230	101300000	1000	0	0	-1	1500
23325315	29	312	0	-100	0	230	101300000	1000	0	0	-1	1500
23337875	33	311	0	-100	0	230	101300000	1000	0	0	-1	1500
23350435	31	310	0	-100	0	230	101300000	1000	0	0	-1	1500
23362995	29	310	0	-100	0	230	101300000	1000	0	0	-1	1500
23375555	38	308	0	-100	0	230	101300000	1000	0	0	-1	1500
23388115	38	304	0	-100	0	230	101300000	1000	0	0	-1	1500
23400675	38	304	0	-100	0	230	101300000	1000	0	0	-1	1500
23413235	36	307	0	-100	0	230	101300000	1000	0	0	-1	1500
23425795	36	307	0	-100	0	230	101300000	1000	0	0	-1	1500
23438355	31	308	0	-100	0	230	101300000	1000	0	0	-1	1500
23450915	31	308	0	-100	0	230	101300000	1000	0	0	-1	1500
23463475	31	310	0	-100	0	230	101300000	1000	0	0	-1	1500
23476035	33	310	0	-100	0	230	101300000	1000	0	0	-1	1500
23488595	33	309	0	-100	0	230	101300000	1000	0	0	-1	1500
23501155	36	309	0	-100	0	230	101300000	1000	0	0	-1	1500
23513715	38	309	0	-100	0	230	101300000	1000	0	0	-1	1500
23526275	38	309	0	-100	0	230	101300000	1000	0	0	-1	1500
23538835	41	311	0	-100	0	230	101300000	1000	0	0	-1	1500
23551395	38	304	0	-100	0	230	101300000	1000	0	0	-1	1500
23563955	36	305	0	-100	0	230	101300000	1000	0	0	-1	1500
23576515	33	304	0	-100	0	230	101300000	1000	0	0	-1	1500
23589075	31	311	0	-100	0	230	101300000	1000	0	0	-1	1500
23601635	33	308	0	-100	0	230	101300000	1000	0	0	-1	1500
23614195	33	307	0	-100	0	230	101300000	1000	0	0	-1	1500
23626755	31	311	0	-100	0	230	101300000	1000	0	0	-1	1500
23639315	29	309	0	-100	0	230	101300000	1000	0	0	-1	1500
23651875	33	304	0	-100	0	230	101300000	1000	0	0	-1	1500
23664435	36	309	0	-100	0	230	101300000	1000	0	0	-1	1500
23676995	38	308	0	-100	0	230	101300000	1000	0	0	-1	1500
23689555	38	310	0	-100	0	230	101300000	1000	0	0	-1	1500
23702115	36	308	0	-100	0	230	101300000	1000	0	0	-1	1500
23714675	33	307	0	-100	0	230	101300000	1000	0	0	-1	1500
23727235	31	307	0	-100	0	230	101300000	1000	0	0	-1	1500
23739795	33	308	0	-100	0	230	101300000	1000	0	0	-1	1500
23752355	31	310	0	-100	0	230	101300000	1000	0	0	-1	1500
23764915	31	310	0	-100	0	230	101300000	1000	0	0	-1	1500
23777475	36	307	0	-100	0	230	101300000	1000	0	0	-1	1500
23790035	33	308	0	-100	0	230	101300000	1000	0	0	-1	1500
23802595	36	307	0	-100	0	230	101300000	1000	0	0	-1	1500
23815155	38	308	0	-100	0	230	101300000	1000	0	0	-1	1500
23827715	38	305	0	-100	0	230	101300000	1000	0	0	-1	1500
23840275	38	306	0	-100	0	230	101300000	1000	0	0	-1	1500
23852835	33	307	0	-100	0	230	101300000	1000	0	0	-1	1500
23865395	33	306	0	-100	0	230	101300000	1000	0	0	-1	1500
23877955	31	312	0	-100	0	230	101300000	1000	0	0	-1	1500
23890515	31	310	0	-100	0	230	101300000	1000	0	0	-1	1500
23903075	33	305	0	-100	0	230	101300000	1000	0	0	-1	1500
23915635	31	312	0	-100	0	230	101300000	1000	0	0	-1	1500
23928195	33	309	0	-100	0	230	101300000	1000	0	0	-1	1500
23940755	36	308	0	-100	0	230	101300000	1000	0	0	-1	1500
23953315	41	306	0	-100	0	230	101300000	1000	0	0	-1	1500
23965875	31	305	0	-100	0	230	101300000	1000	0	0	-1	1500
23978435	33	311	0	-100	0	230	101300000	1000	0	0	-1	1500
23990995	31	312	0	-100	0	230	101300000	1000	0	0	-1	1500
24003555	36	306	0	-100	0	230	101300000	1000	0	0	-1	1500
24016115	31	309	0	-100	0	230	101300000	1000	0	0	-1	1500
24028675	38	308	0	-100	0	230	101300000	1000	0	0	-1	1500
24041235	33	307	0	-100	0	230	101300000	1000	0	0	-1	1500
24053795	33	308	0	-100	0	230	101300000	1000	0	0	-1	1500
24066355	33	307	0	-100	0	230	101300000	1000	0	0	-1	1500
24078915	31	312	0	-100	0	230	101300000	1000	0	0	-1	1500
24091475	33	306	0	-100	0	230	101300000	1000	0	0	-1	1500
24104035	38	308	0	-100	0	230	101300000	1000	0	0	-1	1500
24116595	33	307	0	-100	0	230	101300000	1000	0	0	-1	1500
24129155	26	311	0	-100	0	230	101300000	1000	0	0	-1	1500
24141715	41	309	0	-100	0	230	101300000	1000	0	0	-1	1500
24154275	36	304	0	-100	0	230	101300000	1000	0	0	-1	1500
24166835	36	310	0	-100	0	230	101300000	1000	0	0	-1	1500
24179395	41	311	0	-100	0	230	101300000	1000	0	0	-1	1500
24191955	31	311	0	-100	0	230	101300000	1000	0	0	-1	1500
24204515	38	308	0	-100	0	230	101300000	1000	0	0	-1	1500
24217075	33	311	0	-100	0	230	101300000	1000	0	0	-1	1500
24229635	38	305	0	-100	0	230	101300000	1000	0	0	-1	1500
24242195	31	309	0	-100	0	230	101300000	1000	0	0	-1	1500
24254755	38	309	0	-100	0	230	101300000	1000	0	0	-1	1500
24267315	31	308	0	-100	0	230	101300000	1000	0	0	-1	1500
24279875	36	306	0	-100	0	230	101300000	1000	0	0	-1	1500
24292435	31	308	0	-100	0	230	101300000	1000	0	0	-1	1500
24304995	31	315	0	-100	0	230	101300000	1000	0	0	-1	1500
24317555	33	304	0	-100	0	230	101300000	1000	0	0	-1	1500
24330115	31	308	0	-100	0	230	101300000	1000	0	0	-1	1500
24342675	41	304	0	-100	0	230	101300000	1000	0	0	-1	1500
24355235	31	310	0	-100	0	230	101300000	1000	0	0	-1	1500
24367795	41	306	0	-100	0	230	101300000	1000	0	0	-1	1500
24380355	33	312	0	-100	0	230	101300000	1000	0	0	-1	1500
24392915	38	305	0	-100	0	230	101300000	1000	0	0	-1	1500
24455715	31	308	0	-100	0	230	101300000	1000	0	0	-1	1500
24468275	41	307	0	-100	0	230	101300000	1000	0	0	-1	1500
24480835	33	310	0	-100	0	230	101300000	1000	0	0	-1	1500
24493395	38	307	0	-100	0	230	101300000	1000	0	0	-1	1500
24505955	31	311	0	-100	0	230	101300000	1000	0	0	-1	1500
24518515	33	306	0	-100	0	230	101300000	1000	0	0	-1	1500
24531075	38	309	0	-100	0	230	101300000	1000	0	0	-1	1500
24543635	33	308	0	-100	0	230	101300000	1000	0	0	-1	1500
24556195	33	308	0	-100	0	230	101300000	1000	0	0	-1	1500
24568755	38	312	0	-100	0	230	101300000	1000	0	0	-1	1500
24581315	33	305	0	-100	0	230	101300000	1000	0	0	-1	1500
24593875	31	309	0	-100	0	230	101300000	1000	0	0	-1	1500
24606435	38	309	0	-100	0	230	101300000	1000	0	0	-1	1500
24618995	33	308	0	-100	0	230	101300000	1000	0	0	-1	1500
24631555	31	307	0	-100	0	230	101300000	1000	0	0	-1	1500
24644115	36	305	0	-100	0	230	101300000	1000	0	0	-1	1500
24656675	38	306	0	-100	0	230	101300000	1000	0	0	-1	1500
24669235	36	308	0	-100	0	230	101300000	1000	0	0	-1	1500
24681795	36	305	0	-100	0	230	101300000	1000	0	0	-1	1500
24694355	31	311	0	-100	0	230	101300000	1000	0	0	-1	1500
24706915	33	311	0	-100	0	230	101300000	1000	0	0	-1	1500
24719475	33	313	0	-100	0	230	101300000	1000	0	0	-1	1500
24732035	31	311	0	-100	0	230	101300000	1000	0	0	-1	1500
24744595	31	311	0	-100	0	230	101300000	1000	0	0	-1	1500
24757155	29	311	0	-100	0	230	101300000	1000	0	0	-1	1500
24769715	29	308	0	-100	0	230	101300000	1000	0	0	-1	1500
24782275	33	307	0	-100	0	230	101300000	1000	0	0	-1	1500
24794835	38	304	0	-100	0	230	101300000	1000	0	0	-1	1500
24807395	31	311	0	-100	0	230	101300000	1000	0	0	-1	1500
24819955	31	310	0	-100	0	230	101300000	1000	0	0	-1	1500
24832515	29	309	0	-100	0	230	101300000	1000	0	0	-1	1500
24845075	41	307	0	-100	0	230	101300000	1000	0	0	-1	1500
24857635	29	311	0	-100	0	230	101300000	1000	0	0	-1	1500
24870195	31	308	0	-100	0	230	101300000	1000	0	0	-1	1500
24882755	31	308	0	-100	0	230	101300000	1000	0	0	-1	1500
24895315	38	308	0	-100	0	230	101300000	1000	0	0	-1	1500
24907875	38	305	0	-100	0	230	101300000	1000	0	0	-1	1500
24920435	36	307	0	-100	0	230	101300000	1000	0	0	-1	1500
24932995	29	304	0	-100	0	230	101300000	1000	0	0	-1	1500
24945555	31	311	0	-100	0	230	101300000	1000	0	0	-1	1500
24958115	31	309	0	-100	0	230	101300000	1000	0	0	-1	1500
24970675	33	308	0	-100	0	230	101300000	1000	0	0	-1	1500
24983235	41	308	0	-100	0	230	101300000	1000	0	0	-1	1500
24995795	41	307	0	-100	0	230	101300000	1000	0	0	-1	1500
25008355	41	306	0	-100	0	230	101300000	1000	0	0	-1	1500
25020915	38	307	0	-100	0	230	101300000	1000	0	0	-1	1500
25033475	38	307	0	-100	0	230	101300000	1000	0	0	-1	1500
25046035	41	305	0	-100	0	230	101300000	1000	0	0	-1	1500
25058595	38	307	0	-100	0	230	101300000	1000	0	0	-1	1500
25071155	36	303	0	-100	0	230	101300000	1000	0	0	-1	1500
25083715	38	308	0	-100	0	230	101300000	1000	0	0	-1	1500
25096275	38	305	0	-100	0	230	101300000	1000	0	0	-1	1500
25108835	38	309	0	-100	0	230	101300000	1000	0	0	-1	1500
25121395	38	312	0	-100	0	230	101300000	1000	0	0	-1	1500
25133955	33	308	0	-100	0	230	101300000	1000	0	0	-1	1500
25146515	33	310	0	-100	0	230	101300000	1000	0	0	-1	1500
25159075	33	308	0	-100	0	230	101300000	1000	0	0	-1	1500
25171635	33	306	0	-100	0	230	101300000	1000	0	0	-1	1500
25184195	38	308	0	-100	0	230	101300000	1000	0	0	-1	1500
25196755	36	309	0	-100	0	230	101300000	1000	0	0	-1	1500
25209315	36	309	0	-100	0	230	101300000	1000	0	0	-1	1500
25221875	38	310	0	-100	0	230	101300000	1000	0	0	-1	1500
25234435	38	309	0	-100	0	230	101300000	1000	0	0	-1	1500
25246995	41	309	0	-100	0	230	101300000	1000	0	0	-1	1500
25259555	41	306	0	-100	0	230	101300000	1000	0	0	-1	1500
25272115	41	305	0	-100	0	230	101300000	1000	0	0	-1	1500
25284675	41	314	0	-100	0	230	101300000	1000	0	0	-1	1500
25297235	38	311	0	-100	0	230	101300000	1000	0	0	-1	1500
25309795	33	306	0	-100	0	230	101300000	1000	0	0	-1	1500
25322355	33	309	0	-100	0	230	101300000	1000	0	0	-1	1500
25334915	31	308	0	-100	0	230	101300000	1000	0	0	-1	1500
25347475	29	308	0	-100	0	230	101300000	1000	0	0	-1	1500
25360035	29	309	0	-100	0	230	101300000	1000	0	0	-1	1500
25372595	31	308	0	-100	0	230	101300000	1000	0	0	-1	1500
25385155	29	308	0	-100	0	230	101300000	1000	0	0	-1	1500
25397715	31	308	0	-100	0	230	101300000	1000	0	0	-1	1500
25410275	33	308	0	-100	0	230	101300000	1000	0	0	-1	1500
25422835	31	308	0	-100	0	230	101300000	1000	0	0	-1	1500
25435395	31	312	0	-100	0	230	101300000	1000	0	0	-1	1500
25447955	36	310	0	-100	0	230	101300000	1000	0	0	-1	1500
25460515	33	310	0	-100	0	230	101300000	1000	0	0	-1	1500
25473075	33	310	0	-100	0	230	101300000	1000	0	0	-1	1500
25485635	31	308	0	-100	0	230	101300000	1000	0	0	-1	1500
25498195	33	306	0	-100	0	230	101300000	1000	0	0	-1	1500
25510755	33	307	0	-100	0	230	101300000	1000	0	0	-1	1500
25523315	38	305	0	-100	0	230	101300000	1000	0	0	-1	1500
25535875	41	303	0	-100	0	230	101300000	1000	0	0	-1	1500
25548435	43	309	0	-100	0	230	101300000	1000	0	0	-1	1500
25560995	38	311	0	-100	0	230	101300000	1000	0	0	-1	1500
25573555	31	306	0	-100	0	230	101300000	1000	0	0	-1	1500
25586115	31	310	0	-100	0	230	101300000	1000	0	0	-1	1500
25598675	31	316	0	-100	0	230	101300000	1000	0	0	-1	1500
25611235	29	308	0	-100	0	230	101300000	1000	0	0	-1	1500
25623795	33	305	0	-100	0	230	101300000	1000	0	0	-1	1500
25636355	38	308	0	-100	0	230	101300000	1000	0	0	-1	1500
25648915	38	308	0	-100	0	230	101300000	1000	0	0	-1	1500
25661475	31	309	0	-100	0	230	101300000	1000	0	0	-1	1500
25674035	29	310	0	-100	0	230	101300000	1000	0	0	-1	1500
25686595	33	312	0	-100	0	230	101300000	1000	0	0	-1	1500
25699155	29	306	0	-100	0	230	101300000	1000	0	0	-1	1500
25711715	31	311	0	-100	0	230	101300000	1000	0	0	-1	1500
25724275	31	311	0	-100	0	230	101300000	1000	0	0	-1	1500
25736835	31	308	0	-100	0	230	101300000	1000	0	0	-1	1500
25749395	33	306	0	-100	0	230	101300000	1000	0	0	-1	1500
25761955	33	306	0	-100	0	230	101300000	1000	0	0	-1	1500
25774515	36	304	0	-100	0	230	101300000	1000	0	0	-1	1500
25787075	36	308	0	-100	0	230	101300000	1000	0	0	-1	1500
25799635	38	304	0	-100	0	230	101300000	1000	0	0	-1	1500
25812195	41	303	0	-100	0	230	101300000	1000	0	0	-1	1500
25824755	38	308	0	-100	0	230	101300000	1000	0	0	-1	1500
25837315	29	310	0	-100	0	230	101300000	1000	0	0	-1	1500
25849875	31	312	0	-100	0	230	101300000	1000	0	0	-1	1500
25862435	33	313	0	-100	0	230	101300000	1000	0	0	-1	1500
25874995	31	308	0	-100	0	230	101300000	1000	0	0	-1	1500
25887555	36	308	0	-100	0	230	101300000	1000	0	0	-1	1500
25900115	31	306	0	-100	0	230	101300000	1000	0	0	-1	1500
25912675	31	311	0	-100	0	230	101300000	1000	0	0	-1	1500
25925235	29	308	0	-100	0	230	101300000	1000	0	0	-1	1500
25937795	41	308	0	-100	0	230	101300000	1000	0	0	-1	1500
25950355	36	306	0	-100	0	230	101300000	1000	0	0	-1	1500
25962915	33	308	0	-100	0	230	101300000	1000	0	0	-1	1500
25975475	31	308	0	-100	0	230	101300000	1000	0	0	-1	1500
25988035	38	308	0	-100	0	230	101300000	1000	0	0	-1	1500
26000595	36	307	0	-100	0	230	101300000	1000	0	0	-1	1500
26013155	31	304	0	-100	0	230	101300000	1000	0	0	-1	1500
26025715	33	313	0	-100	0	230	101300000	1000	0	0	-1	1500
26038275	38	305	0	-100	0	230	101300000	1000	0	0	-1	1500
26050835	31	309	0	-100	0	230	101300000	1000	0	0	-1	1500
26063395	31	309	0	-100	0	230	101300000	1000	0	0	-1	1500
26075955	38	307	0	-100	0	230	101300000	1000	0	0	-1	1500
26088515	36	306	0	-100	0	230	101300000	1000	0	0	-1	1500
26101075	33	310	0	-100	0	230	101300000	1000	0	0	-1	1500
26113635	31	310	0	-100	0	230	101300000	1000	0	0	-1	1500
26126195	41	311	0	-100	0	230	101300000	1000	0	0	-1	1500
26138755	38	308	0	-100	0	230	101300000	1000	0	0	-1	1500
26151315	33	307	0	-100	0	230	101300000	1000	0	0	-1	1500
26163875	33	308	0	-100	0	230	101300000	1000	0	0	-1	1500
26176435	31	311	0	-100	0	230	101300000	1000	0	0	-1	1500
26188995	33	311	0	-100	0	230	101300000	1000	0	0	-1	1500
26201555	38	309	0	-100	0	230	101300000	1000	0	0	-1	1500
26214115	38	311	0	-100	0	230	101300000	1000	0	0	-1	1500
26226675	31	311	0	-100	0	230	101300000	1000	0	0	-1	1500
26239235	33	311	0	-100	0	230	101300000	1000	0	0	-1	1500
26251795	33	316	0	-100	0	230	101300000	1000	0	0	-1	1500
26264355	33	312	0	-100	0	230	101300000	1000	0	0	-1	1500
26276915	29	308	0	-100	0	230	101300000	1000	0	0	-1	1500
26289475	36	309	0	-100	0	230	101300000	1000	0	0	-1	1500
26302035	38	308	0	-100	0	230	101300000	1000	0	0	-1	1500
26314595	33	316	0	-100	0	230	101300000	1000	0	0	-1	1500
26327155	26	307	0	-100	0	230	101300000	1000	0	0	-1	1500
26339715	33	307	0	-100	0	230	101300000	1000	0	0	-1	1500
26352275	29	306	0	-100	0	230	101300000	1000	0	0	-1	1500
26364835	38	307	0	-100	0	230	101300000	1000	0	0	-1	1500
26377395	33	305	0	-100	0	230	101300000	1000	0	0	-1	1500
26389955	29	309	0	-100	0	230	101300000	1000	0	0	-1	1500
26402515	31	308	0	-100	0	230	101300000	1000	0	0	-1	1500
26415075	38	307	0	-100	0	230	101300000	1000	0	0	-1	1500
26427635	38	307	0	-100	0	230	101300000	1000	0	0	-1	1500
26440195	31	309	0	-100	0	230	101300000	1000	0	0	-1	1500
26452755	31	309	0	-100	0	230	101300000	1000	0	0	-1	1500
26465315	31	308	0	-100	0	230	101300000	1000	0	0	-1	1500
26477875	36	303	0	-100	0	230	101300000	1000	0	0	-1	1500
26490435	36	307	0	-100	0	230	101300000	1000	0	0	-1	1500
26502995	31	306	0	-100	0	230	101300000	1000	0	0	-1	1500
26515555	31	310	0	-100	0	230	101300000	1000	0	0	-1	1500
26528115	31	305	0	-100	0	230	101300000	1000	0	0	-1	1500
26540675	41	307	0	-100	0	230	101300000	1000	0	0	-1	1500
26553235	38	309	0	-100	0	230	101300000	1000	0	0	-1	1500
26565795	31	311	0	-100	0	230	101300000	1000	0	0	-1	1500
26578355	33	311	0	-100	0	230	101300000	1000	0	0	-1	1500
26590915	31	308	0	-100	0	230	101300000	1000	0	0	-1	1500
26603475	31	308	0	-100	0	230	101300000	1000	0	0	-1	1500
26616035	31	308	0	-100	0	230	101300000	1000	0	0	-1	1500
26628595	38	306	0	-100	0	230	101300000	1000	0	0	-1	1500
26641155	38	307	0	-100	0	230	101300000	1000	0	0	-1	1500
26653715	38	308	0	-100	0	230	101300000	1000	0	0	-1	1500
26666275	38	308	0	-100	0	230	101300000	1000	0	0	-1	1500
26678835	38	307	0	-100	0	230	101300000	1000	0	0	-1	1500
26691395	36	307	0	-100	0	230	101300000	1000	0	0	-1	1500
26703955	36	305	0	-100	0	230	101300000	1000	0	0	-1	1500
26716515	33	307	0	-100	0	230	101300000	1000	0	0	-1	1500
26729075	29	311	0	-100	0	230	101300000	1000	0	0	-1	1500
26741635	29	309	0	-100	0	230	101300000	1000	0	0	-1	1500
26754195	36	307	0	-100	0	230	101300000	1000	0	0	-1	1500
26766755	38	306	0	-100	0	230	101300000	1000	0	0	-1	1500
26779315	33	307	0	-100	0	230	101300000	1000	0	0	-1	1500
26791875	33	308	0	-100	0	230	101300000	1000	0	0	-1	1500
26804435	29	309	0	-100	0	230	101300000	1000	0	0	-1	1500
26816995	33	309	0	-100	0	230	101300000	1000	0	0	-1	1500
26829555	41	304	0	-100	0	230	101300000	1000	0	0	-1	1500
26842115	36	310	0	-100	0	230	101300000	1000	0	0	-1	1500
26854675	29	310	0	-100	0	230	101300000	1000	0	0	-1	1500
26867235	38	308	0	-100	0	230	101300000	1000	0	0	-1	1500
26879795	33	312	0	-100	0	230	101300000	1000	0	0	-1	1500
26892355	29	310	0	-100	0	230	101300000	1000	0	0	-1	1500
26904915	38	307	0	-100	0	230	101300000	1000	0	0	-1	1500
26917475	31	308	0	-100	0	230	101300000	1000	0	0	-1	1500
26930035	33	312	0	-100	0	230	101300000	1000	0	0	-1	1500
26942595	31	308	0	-100	0	230	101300000	1000	0	0	-1	1500
26955155	36	308	0	-100	0	230	101300000	1000	0	0	-1	1500
26967715	31	309	0	-100	0	230	101300000	1000	0	0	-1	1500
26980275	31	311	0	-100	0	230	101300000	1000	0	0	-1	1500
26992835	33	306	0	-100	0	230	101300000	1000	0	0	-1	1500
27005395	38	307	0	-100	0	230	101300000	1000	0	0	-1	1500
27017955	33	308	0	-100	0	230	101300000	1000	0	0	-1	1500
27030515	31	308	0	-100	0	230	101300000	1000	0	0	-1	1500
27043075	41	306	0	-100	0	230	101300000	1000	0	0	-1	1500
