timestamp	voltage	current	windSpeed	pitchAngle	rpm	temperature	ambientPressure	humidity	accelerationX	accelerationY	accelerationZ	currentSink
7035070	4011	3	0	-100	0	230	101300000	1000	0	0	-1	0
7042523	4012	2	0	-100	0	230	101300000	1000	0	0	-1	0
7055083	4019	0	0	-100	0	230	101300000	1000	0	0	-1	0
7067643	4014	0	0	-100	0	230	101300000	1000	0	0	-1	0
7080203	4009	3	0	-100	0	230	101300000	1000	0	0	-1	0
7092763	4018	0	0	-100	0	230	101300000	1000	0	0	-1	0
7105323	4011	0	0	-100	0	230	101300000	1000	0	0	-1	0
7117883	4011	3	0	-100	0	230	101300000	1000	0	0	-1	0
7130443	4017	0	0	-100	0	230	101300000	1000	0	0	-1	0
7143004	4015	0	0	-100	0	230	101300000	1000	0	0	-1	0
7155563	4011	1	0	-100	0	230	101300000	1000	0	0	-1	0
7168123	4015	0	0	-100	0	230	101300000	1000	0	0	-1	0
7180683	4010	0	0	-100	0	230	101300000	1000	0	0	-1	0
7193243	4010	1	0	-100	0	230	101300000	1000	0	0	-1	0
7205803	4019	0	0	-100	0	230	101300000	1000	0	0	-1	0
7218363	4012	0	0	-100	0	230	101300000	1000	0	0	-1	0
7230923	4011	5	0	-100	0	230	101300000	1000	0	0	-1	0
7243483	4014	0	0	-100	0	230	101300000	1000	0	0	-1	0
7256043	4015	0	0	-100	0	230	101300000	1000	0	0	-1	0
7268603	4010	0	0	-100	0	230	101300000	1000	0	0	-1	0
7281163	4009	0	0	-100	0	230	101300000	1000	0	0	-1	0
7293723	4019	0	0	-100	0	230	101300000	1000	0	0	-1	0
7306283	4013	0	0	-100	0	230	101300000	1000	0	0	-1	0
7318843	4012	2	0	-100	0	230	101300000	1000	0	0	-1	0
7331403	4013	0	0	-100	0	230	101300000	1000	0	0	-1	0
7343963	4015	0	0	-100	0	230	101300000	1000	0	0	-1	0
7699675	53	407	0	-100	0	230	101300000	1000	0	0	-1	1500
7712235	48	411	0	-100	0	230	101300000	1000	0	0	-1	1500
7724795	48	412	0	-100	0	230	101300000	1000	0	0	-1	1500
7737355	46	413	0	-100	0	230	101300000	1000	0	0	-1	1500
7749915	58	411	0	-100	0	230	101300000	1000	0	0	-1	1500
7762475	55	408	0	-100	0	230	101300000	1000	0	0	-1	1500
7775035	53	413	0	-100	0	230	101300000	1000	0	0	-1	1500
7787595	55	412	0	-100	0	230	101300000	1000	0	0	-1	1500
7800155	53	407	0	-100	0	230	101300000	1000	0	0	-1	1500
7812715	53	411	0	-100	0	230	101300000	1000	0	0	-1	1500
7825275	53	410	0	-100	0	230	101300000	1000	0	0	-1	1500
7837835	55	406	0	-100	0	230	101300000	1000	0	0	-1	1500
7850395	55	408	0	-100	0	230	101300000	1000	0	0	-1	1500
7862955	58	414	0	-100	0	230	101300000	1000	0	0	-1	1500
7875515	55	412	0	-100	0	230	101300000	1000	0	0	-1	1500
7888075	55	407	0	-100	0	230	101300000	1000	0	0	-1	1500
7900635	55	411	0	-100	0	230	101300000	1000	0	0	-1	1500
7913195	53	412	0	-100	0	230	101300000	1000	0	0	-1	1500
7925755	48	413	0	-100	0	230	101300000	1000	0	0	-1	1500
7938315	50	413	0	-100	0	230	101300000	1000	0	0	-1	1500
7950875	46	410	0	-100	0	230	101300000	1000	0	0	-1	1500
7963435	50	413	0	-100	0	230	101300000	1000	0	0	-1	1500
7975995	50	412	0	-100	0	230	101300000	1000	0	0	-1	1500
7988555	55	410	0	-100	0	230	101300000	1000	0	0	-1	1500
8001115	53	406	0	-100	0	230	101300000	1000	0	0	-1	1500
8013675	53	410	0	-100	0	230	101300000	1000	0	0	-1	1500
8026235	48	408	0	-100	0	230	101300000	1000	0	0	-1	1500
8038795	53	412	0	-100	0	230	101300000	1000	0	0	-1	1500
8051355	46	414	0	-100	0	230	101300000	1000	0	0	-1	1500
8063915	46	409	0	-100	0	230	101300000	1000	0	0	-1	1500
8076475	50	413	0	-100	0	230	101300000	1000	0	0	-1	1500
8089035	53	409	0	-100	0	230	101300000	1000	0	0	-1	1500
8101595	55	410	0	-100	0	230	101300000	1000	0	0	-1	1500
8114155	48	414	0	-100	0	230	101300000	1000	0	0	-1	1500
8126715	46	412	0	-100	0	230	101300000	1000	0	0	-1	1500
8139275	48	415	0	-100	0	230	101300000	1000	0	0	-1	1500
8151835	48	409	0	-100	0	230	101300000	1000	0	0	-1	1500
8164395	55	409	0	-100	0	230	101300000	1000	0	0	-1	1500
8176955	53	410	0	-100	0	230	101300000	1000	0	0	-1	1500
8189515	50	412	0	-100	0	230	101300000	1000	0	0	-1	1500
8202075	50	413	0	-100	0	230	101300000	1000	0	0	-1	1500
8214635	50	412	0	-100	0	230	101300000	1000	0	0	-1	1500
8227195	46	416	0	-100	0	230	101300000	1000	0	0	-1	1500
8239755	46	414	0	-100	0	230	101300000	1000	0	0	-1	1500
8252315	43	410	0	-100	0	230	101300000	1000	0	0	-1	1500
8264875	48	411	0	-100	0	230	101300000	1000	0	0	-1	1500
8277435	55	412	0	-100	0	230	101300000	1000	0	0	-1	1500
8289995	53	414	0	-100	0	230	101300000	1000	0	0	-1	1500
8302555	53	409	0	-100	0	230	101300000	1000	0	0	-1	1500
8315115	53	411	0	-100	0	230	101300000	1000	0	0	-1	1500
8327675	55	408	0	-100	0	230	101300000	1000	0	0	-1	1500
8340235	50	409	0	-100	0	230	101300000	1000	0	0	-1	1500
8352795	46	411	0	-100	0	230	101300000	1000	0	0	-1	1500
8365355	48	413	0	-100	0	230	101300000	1000	0	0	-1	1500
8377915	48	411	0	-100	0	230	101300000	1000	0	0	-1	1500
8390475	48	408	0	-100	0	230	101300000	1000	0	0	-1	1500
8403035	48	412	0	-100	0	230	101300000	1000	0	0	-1	1500
8415595	48	408	0	-100	0	230	101300000	1000	0	0	-1	1500
8428155	48	413	0	-100	0	230	101300000	1000	0	0	-1	1500
8440715	46	413	0	-100	0	230	101300000	1000	0	0	-1	1500
8453275	48	413	0	-100	0	230	101300000	1000	0	0	-1	1500
8465835	48	413	0	-100	0	230	101300000	1000	0	0	-1	1500
8478395	46	413	0	-100	0	230	101300000	1000	0	0	-1	1500
8490955	48	410	0	-100	0	230	101300000	1000	0	0	-1	1500
8503515	48	410	0	-100	0	230	101300000	1000	0	0	-1	1500
8516075	48	411	0	-100	0	230	101300000	1000	0	0	-1	1500
8528635	55	414	0	-100	0	230	101300000	1000	0	0	-1	1500
8541195	55	412	0	-100	0	230	101300000	1000	0	0	-1	1500
8553755	55	408	0	-100	0	230	101300000	1000	0	0	-1	1500
8566315	53	412	0	-100	0	230	101300000	1000	0	0	-1	1500
8578875	48	411	0	-100	0	230	101300000	1000	0	0	-1	1500
8591435	48	412	0	-100	0	230	101300000	1000	0	0	-1	1500
8603995	48	410	0	-100	0	230	101300000	1000	0	0	-1	1500
8616555	46	414	0	-100	0	230	101300000	1000	0	0	-1	1500
8629115	55	419	0	-100	0	230	101300000	1000	0	0	-1	1500
8641675	53	411	0	-100	0	230	101300000	1000	0	0	-1	1500
8654235	50	412	0	-100	0	230	101300000	1000	0	0	-1	1500
8666795	46	412	0	-100	0	230	101300000	1000	0	0	-1	1500
8679355	46	412	0	-100	0	230	101300000	1000	0	0	-1	1500
8691915	58	409	0	-100	0	230	101300000	1000	0	0	-1	1500
8704475	48	410	0	-100	0	230	101300000	1000	0	0	-1	1500
8717035	48	414	0	-100	0	230	101300000	1000	0	0	-1	1500
8729595	43	414	0	-100	0	230	101300000	1000	0	0	-1	1500
8742155	50	408	0	-100	0	230	101300000	1000	0	0	-1	1500
8754715	55	410	0	-100	0	230	101300000	1000	0	0	-1	1500
8767275	55	413	0	-100	0	230	101300000	1000	0	0	-1	1500
8779835	50	409	0	-100	0	230	101300000	1000	0	0	-1	1500
8792395	48	412	0	-100	0	230	101300000	1000	0	0	-1	1500
8804955	50	412	0	-100	0	230	101300000	1000	0	0	-1	1500
8817515	50	416	0	-100	0	230	101300000	1000	0	0	-1	1500
8830075	46	411	0	-100	0	230	101300000	1000	0	0	-1	1500
8842635	55	410	0	-100	0	230	101300000	1000	0	0	-1	1500
8855195	53	410	0	-100	0	230	101300000	1000	0	0	-1	1500
8867755	48	412	0	-100	0	230	101300000	1000	0	0	-1	1500
8880315	46	411	0	-100	0	230	101300000	1000	0	0	-1	1500
8892875	48	416	0	-100	0	230	101300000	1000	0	0	-1	1500
8905435	48	412	0	-100	0	230	101300000	1000	0	0	-1	1500
8917995	58	414	0	-100	0	230	101300000	1000	0	0	-1	1500
8930555	50	409	0	-100	0	230	101300000	1000	0	0	-1	1500
8943115	48	412	0	-100	0	230	101300000	1000	0	0	-1	1500
8955675	50	412	0	-100	0	230	101300000	1000	0	0	-1	1500
8968235	46	413	0	-100	0	230	101300000	1000	0	0	-1	1500
8980795	48	411	0	-100	0	230	101300000	1000	0	0	-1	1500
8993355	55	407	0	-100	0	230	101300000	1000	0	0	-1	1500
9005915	53	409	0	-100	0	230	101300000	1000	0	0	-1	1500
9018475	48	413	0	-100	0	230	101300000	1000	0	0	-1	1500
9031035	46	413	0	-100	0	230	101300000	1000	0	0	-1	1500
9043595	50	410	0	-100	0	230	101300000	1000	0	0	-1	1500
9056155	53	409	0	-100	0	230	101300000	1000	0	0	-1	1500
9068715	46	411	0	-100	0	230	101300000	1000	0	0	-1	1500
9081275	48	413	0	-100	0	230	101300000	1000	0	0	-1	1500
9093835	48	411	0	-100	0	230	101300000	1000	0	0	-1	1500
9106395	53	412	0	-100	0	230	101300000	1000	0	0	-1	1500
9169195	48	413	0	-100	0	230	101300000	1000	0	0	-1	1500
9181755	48	414	0	-100	0	230	101300000	1000	0	0	-1	1500
9194315	48	412	0	-100	0	230	101300000	1000	0	0	-1	1500
9206875	46	412	0	-100	0	230	101300000	1000	0	0	-1	1500
9219435	50	409	0	-100	0	230	101300000	1000	0	0	-1	1500
9231995	53	411	0	-100	0	230	101300000	1000	0	0	-1	1500
9244555	53	408	0	-100	0	230	101300000	1000	0	0	-1	1500
9257115	55	413	0	-100	0	230	101300000	1000	0	0	-1	1500
9269675	50	409	0	-100	0	230	101300000	1000	0	0	-1	1500
9282235	48	415	0	-100	0	230	101300000	1000	0	0	-1	1500
9294795	48	415	0	-100	0	230	101300000	1000	0	0	-1	1500
9332475	53	411	0	-100	0	230	101300000	1000	0	0	-1	1500
9345035	58	407	0	-100	0	230	101300000	1000	0	0	-1	1500
9357595	53	413	0	-100	0	230	101300000	1000	0	0	-1	1500
9370155	50	410	0	-100	0	230	101300000	1000	0	0	-1	1500
9382715	46	413	0	-100	0	230	101300000	1000	0	0	-1	1500
9395275	48	413	0	-100	0	230	101300000	1000	0	0	-1	1500
9407835	46	411	0	-100	0	230	101300000	1000	0	0	-1	1500
9420395	50	411	0	-100	0	230	101300000	1000	0	0	-1	1500
9432955	55	410	0	-100	0	230	101300000	1000	0	0	-1	1500
9445515	53	410	0	-100	0	230	101300000	1000	0	0	-1	1500
9458075	46	410	0	-100	0	230	101300000	1000	0	0	-1	1500
9470635	46	411	0	-100	0	230	101300000	1000	0	0	-1	1500
9483195	55	409	0	-100	0	230	101300000	1000	0	0	-1	1500
9495755	48	412	0	-100	0	230	101300000	1000	0	0	-1	1500
9508315	50	411	0	-100	0	230	101300000	1000	0	0	-1	1500
9520875	50	412	0	-100	0	230	101300000	1000	0	0	-1	1500
9533435	55	412	0	-100	0	230	101300000	1000	0	0	-1	1500
9545995	46	406	0	-100	0	230	101300000	1000	0	0	-1	1500
9558555	50	413	0	-100	0	230	101300000	1000	0	0	-1	1500
9571115	50	410	0	-100	0	230	101300000	1000	0	0	-1	1500
9583675	53	409	0	-100	0	230	101300000	1000	0	0	-1	1500
9596235	48	412	0	-100	0	230	101300000	1000	0	0	-1	1500
9608795	46	412	0	-100	0	230	101300000	1000	0	0	-1	1500
9621355	55	412	0	-100	0	230	101300000	1000	0	0	-1	1500
9633915	55	412	0	-100	0	230	101300000	1000	0	0	-1	1500
9646475	50	408	0	-100	0	230	101300000	1000	0	0	-1	1500
9659035	50	412	0	-100	0	230	101300000	1000	0	0	-1	1500
9671595	43	414	0	-100	0	230	101300000	1000	0	0	-1	1500
9684155	48	408	0	-100	0	230	101300000	1000	0	0	-1	1500
9696715	55	410	0	-100	0	230	101300000	1000	0	0	-1	1500
9709275	50	413	0	-100	0	230	101300000	1000	0	0	-1	1500
9721835	48	414	0	-100	0	230	101300000	1000	0	0	-1	1500
9734395	50	415	0	-100	0	230	101300000	1000	0	0	-1	1500
9746955	48	411	0	-100	0	230	101300000	1000	0	0	-1	1500
9759515	55	411	0	-100	0	230	101300000	1000	0	0	-1	1500
9772075	48	410	0	-100	0	230	101300000	1000	0	0	-1	1500
9784635	46	411	0	-100	0	230	101300000	1000	0	0	-1	1500
9797195	58	408	0	-100	0	230	101300000	1000	0	0	-1	1500
9809755	50	412	0	-100	0	230	101300000	1000	0	0	-1	1500
9822315	46	411	0	-100	0	230	101300000	1000	0	0	-1	1500
9834875	55	407	0	-100	0	230	101300000	1000	0	0	-1	1500
9847435	48	414	0	-100	0	230	101300000	1000	0	0	-1	1500
9859995	46	414	0	-100	0	230	101300000	1000	0	0	-1	1500
9872555	55	410	0	-100	0	230	101300000	1000	0	0	-1	1500
9885115	48	412	0	-100	0	230	101300000	1000	0	0	-1	1500
9897675	46	412	0	-100	0	230	101300000	1000	0	0	-1	1500
9910235	53	409	0	-100	0	230	101300000	1000	0	0	-1	1500
9922795	48	412	0	-100	0	230	101300000	1000	0	0	-1	1500
9935355	48	409	0	-100	0	230	101300000	1000	0	0	-1	1500
9947915	53	413	0	-100	0	230	101300000	1000	0	0	-1	1500
9960475	50	414	0	-100	0	230	101300000	1000	0	0	-1	1500
9973035	48	411	0	-100	0	230	101300000	1000	0	0	-1	1500
9985595	55	411	0	-100	0	230	101300000	1000	0	0	-1	1500
9998155	50	410	0	-100	0	230	101300000	1000	0	0	-1	1500
10010715	48	415	0	-100	0	230	101300000	1000	0	0	-1	1500
10023275	48	409	0	-100	0	230	101300000	1000	0	0	-1	1500
10035835	53	410	0	-100	0	230	101300000	1000	0	0	-1	1500
10048395	48	413	0	-100	0	230	101300000	1000	0	0	-1	1500
10060955	46	411	0	-100	0	230	101300000	1000	0	0	-1	1500
10073515	55	411	0	-100	0	230	101300000	1000	0	0	-1	1500
10086075	50	408	0	-100	0	230	101300000	1000	0	0	-1	1500
10098635	53	412	0	-100	0	230	101300000	1000	0	0	-1	1500
10111195	53	410	0	-100	0	230	101300000	1000	0	0	-1	1500
10123755	50	414	0	-100	0	230	101300000	1000	0	0	-1	1500
10136315	46	409	0	-100	0	230	101300000	1000	0	0	-1	1500
10148875	55	411	0	-100	0	230	101300000	1000	0	0	-1	1500
10161435	48	411	0	-100	0	230	101300000	1000	0	0	-1	1500
10173995	46	411	0	-100	0	230	101300000	1000	0	0	-1	1500
10186555	55	409	0	-100	0	230	101300000	1000	0	0	-1	1500
10199115	50	411	0	-100	0	230	101300000	1000	0	0	-1	1500
10211675	48	414	0	-100	0	230	101300000	1000	0	0	-1	1500
10224235	48	413	0	-100	0	230	101300000	1000	0	0	-1	1500
10236795	50	412	0	-100	0	230	101300000	1000	0	0	-1	1500
10249355	53	408	0	-100	0	230	101300000	1000	0	0	-1	1500
10261915	50	411	0	-100	0	230	101300000	1000	0	0	-1	1500
10274475	50	412	0	-100	0	230	101300000	1000	0	0	-1	1500
10287035	43	414	0	-100	0	230	101300000	1000	0	0	-1	1500
10299595	48	408	0	-100	0	230	101300000	1000	0	0	-1	1500
10312155	55	406	0	-100	0	230	101300000	1000	0	0	-1	1500
10324715	53	412	0	-100	0	230	101300000	1000	0	0	-1	1500
10337275	48	412	0	-100	0	230	101300000	1000	0	0	-1	1500
10349835	48	415	0	-100	0	230	101300000	1000	0	0	-1	1500
10362395	50	412	0	-100	0	230	101300000	1000	0	0	-1	1500
10374955	46	414	0	-100	0	230	101300000	1000	0	0	-1	1500
10387515	48	414	0	-100	0	230	101300000	1000	0	0	-1	1500
10400075	48	412	0	-100	0	230	101300000	1000	0	0	-1	1500
10412635	48	409	0	-100	0	230	101300000	1000	0	0	-1	1500
10425195	53	414	0	-100	0	230	101300000	1000	0	0	-1	1500
10437755	58	408	0	-100	0	230	101300000	1000	0	0	-1	1500
10450315	50	411	0	-100	0	230	101300000	1000	0	0	-1	1500
10462875	50	414	0	-100	0	230	101300000	1000	0	0	-1	1500
10475435	50	412	0	-100	0	230	101300000	1000	0	0	-1	1500
10487995	50	410	0	-100	0	230	101300000	1000	0	0	-1	1500
10500555	48	413	0	-100	0	230	101300000	1000	0	0	-1	1500
10513115	46	415	0	-100	0	230	101300000	1000	0	0	-1	1500
10525675	46	411	0	-100	0	230	101300000	1000	0	0	-1	1500
10538235	48	413	0	-100	0	230	101300000	1000	0	0	-1	1500
10550795	53	413	0	-100	0	230	101300000	1000	0	0	-1	1500
10563355	55	405	0	-100	0	230	101300000	1000	0	0	-1	1500
10575915	55	409	0	-100	0	230	101300000	1000	0	0	-1	1500
10588475	53	411	0	-100	0	230	101300000	1000	0	0	-1	1500
10601035	48	411	0	-100	0	230	101300000	1000	0	0	-1	1500
10613595	50	411	0	-100	0	230	101300000	1000	0	0	-1	1500
10626155	46	414	0	-100	0	230	101300000	1000	0	0	-1	1500
10638715	46	413	0	-100	0	230	101300000	1000	0	0	-1	1500
10651275	53	411	0	-100	0	230	101300000	1000	0	0	-1	1500
10663835	55	408	0	-100	0	230	101300000	1000	0	0	-1	1500
10676395	53	412	0	-100	0	230	101300000	1000	0	0	-1	1500
10688955	48	412	0	-100	0	230	101300000	1000	0	0	-1	1500
10701515	48	408	0	-100	0	230	101300000	1000	0	0	-1	1500
10714075	48	410	0	-100	0	230	101300000	1000	0	0	-1	1500
10726635	46	414	0	-100	0	230	101300000	1000	0	0	-1	1500
10739195	53	412	0	-100	0	230	101300000	1000	0	0	-1	1500
10751755	55	410	0	-100	0	230	101300000	1000	0	0	-1	1500
10764315	53	412	0	-100	0	230	101300000	1000	0	0	-1	1500
10776875	53	409	0	-100	0	230	101300000	1000	0	0	-1	1500
10789435	53	410	0	-100	0	230	101300000	1000	0	0	-1	1500
10801995	48	411	0	-100	0	230	101300000	1000	0	0	-1	1500
10814555	48	414	0	-100	0	230	101300000	1000	0	0	-1	1500
10827115	46	412	0	-100	0	230	101300000	1000	0	0	-1	1500
10839675	53	415	0	-100	0	230	101300000	1000	0	0	-1	1500
10852235	55	408	0	-100	0	230	101300000	1000	0	0	-1	1500
10864795	53	412	0	-100	0	230	101300000	1000	0	0	-1	1500
10877355	48	409	0	-100	0	230	101300000	1000	0	0	-1	1500
10889915	48	411	0	-100	0	230	101300000	1000	0	0	-1	1500
10902475	48	414	0	-100	0	230	101300000	1000	0	0	-1	1500
10915035	48	412	0	-100	0	230	101300000	1000	0	0	-1	1500
10927595	53	409	0	-100	0	230	101300000	1000	0	0	-1	1500
10940155	53	412	0	-100	0	230	101300000	1000	0	0	-1	1500
10952715	50	410	0	-100	0	230	101300000	1000	0	0	-1	1500
10965275	48	411	0	-100	0	230	101300000	1000	0	0	-1	1500
10977835	48	412	0	-100	0	230	101300000	1000	0	0	-1	1500
10990395	46	416	0	-100	0	230	101300000	1000	0	0	-1	1500
11002955	50	416	0	-100	0	230	101300000	1000	0	0	-1	1500
11015515	48	414	0	-100	0	230	101300000	1000	0	0	-1	1500
11028075	46	414	0	-100	0	230	101300000	1000	0	0	-1	1500
11040635	48	413	0	-100	0	230	101300000	1000	0	0	-1	1500
11053195	46	413	0	-100	0	230	101300000	1000	0	0	-1	1500
11065755	48	410	0	-100	0	230	101300000	1000	0	0	-1	1500
11078315	46	412	0	-100	0	230	101300000	1000	0	0	-1	1500
11090875	46	410	0	-100	0	230	101300000	1000	0	0	-1	1500
11103435	50	413	0	-100	0	230	101300000	1000	0	0	-1	1500
11115995	48	407	0	-100	0	230	101300000	1000	0	0	-1	1500
11128555	46	416	0	-100	0	230	101300000	1000	0	0	-1	1500
11141115	48	411	0	-100	0	230	101300000	1000	0	0	-1	1500
11153675	48	412	0	-100	0	230	101300000	1000	0	0	-1	1500
11166235	53	417	0	-100	0	230	101300000	1000	0	0	-1	1500
11178795	53	408	0	-100	0	230	101300000	1000	0	0	-1	1500
11191355	55	409	0	-100	0	230	101300000	1000	0	0	-1	1500
11203915	53	410	0	-100	0	230	101300000	1000	0	0	-1	1500
11216475	53	408	0	-100	0	230	101300000	1000	0	0	-1	1500
11229035	53	412	0	-100	0	230	101300000	1000	0	0	-1	1500
11241595	50	409	0	-100	0	230	101300000	1000	0	0	-1	1500
11254155	48	409	0	-100	0	230	101300000	1000	0	0	-1	1500
11266715	48	412	0	-100	0	230	101300000	1000	0	0	-1	1500
11279275	48	413	0	-100	0	230	101300000	1000	0	0	-1	1500
11291835	48	415	0	-100	0	230	101300000	1000	0	0	-1	1500
11304395	50	409	0	-100	0	230	101300000	1000	0	0	-1	1500
11316955	55	408	0	-100	0	230	101300000	1000	0	0	-1	1500
11329515	50	410	0	-100	0	230	101300000	1000	0	0	-1	1500
11342075	48	415	0	-100	0	230	101300000	1000	0	0	-1	1500
11354635	48	410	0	-100	0	230	101300000	1000	0	0	-1	1500
11367195	46	415	0	-100	0	230	101300000	1000	0	0	-1	1500
11379755	46	412	0	-100	0	230	101300000	1000	0	0	-1	1500
11392315	46	410	0	-100	0	230	101300000	1000	0	0	-1	1500
11404875	58	412	0	-100	0	230	101300000	1000	0	0	-1	1500
11417435	53	411	0	-100	0	230	101300000	1000	0	0	-1	1500
11429995	50	415	0	-100	0	230	101300000	1000	0	0	-1	1500
11442555	50	417	0	-100	0	230	101300000	1000	0	0	-1	1500
11455115	46	413	0	-100	0	230	101300000	1000	0	0	-1	1500
11467675	48	413	0	-100	0	230	101300000	1000	0	0	-1	1500
11480235	48	413	0	-100	0	230	101300000	1000	0	0	-1	1500
11492795	46	413	0	-100	0	230	101300000	1000	0	0	-1	1500
11505355	48	414	0	-100	0	230	101300000	1000	0	0	-1	1500
11517915	50	412	0	-100	0	230	101300000	1000	0	0	-1	1500
11530475	55	404	0	-100	0	230	101300000	1000	0	0	-1	1500
11543035	55	410	0	-100	0	230	101300000	1000	0	0	-1	1500
11555595	46	413	0	-100	0	230	101300000	1000	0	0	-1	1500
11568155	46	413	0	-100	0	230	101300000	1000	0	0	-1	1500
11580715	50	412	0	-100	0	230	101300000	1000	0	0	-1	1500
11593275	53	413	0	-100	0	230	101300000	1000	0	0	-1	1500
11605835	50	412	0	-100	0	230	101300000	1000	0	0	-1	1500
11618395	50	413	0	-100	0	230	101300000	1000	0	0	-1	1500
11630955	48	408	0	-100	0	230	101300000	1000	0	0	-1	1500
11643515	50	409	0	-100	0	230	101300000	1000	0	0	-1	1500
11656075	46	410	0	-100	0	230	101300000	1000	0	0	-1	1500
11668635	50	412	0	-100	0	230	101300000	1000	0	0	-1	1500
11681195	53	413	0	-100	0	230	101300000	1000	0	0	-1	1500
11693755	55	411	0	-100	0	230	101300000	1000	0	0	-1	1500
11706315	48	411	0	-100	0	230	101300000	1000	0	0	-1	1500
11718875	50	409	0	-100	0	230	101300000	1000	0	0	-1	1500
11731435	53	409	0	-100	0	230	101300000	1000	0	0	-1	1500
11743995	48	410	0	-100	0	230	101300000	1000	0	0	-1	1500
11756555	46	413	0	-100	0	230	101300000	1000	0	0	-1	1500
11769115	55	412	0	-100	0	230	101300000	1000	0	0	-1	1500
11781675	50	410	0	-100	0	230	101300000	1000	0	0	-1	1500
11794235	50	413	0	-100	0	230	101300000	1000	0	0	-1	1500
11806795	48	413	0	-100	0	230	101300000	1000	0	0	-1	1500
11819355	50	413	0	-100	0	230	101300000	1000	0	0	-1	1500
11831915	53	411	0	-100	0	230	101300000	1000	0	0	-1	1500
11844475	48	416	0	-100	0	230	101300000	1000	0	0	-1	1500
11857035	46	410	0	-100	0	230	101300000	1000	0	0	-1	1500
11869595	55	408	0	-100	0	230	101300000	1000	0	0	-1	1500
11882155	48	410	0	-100	0	230	101300000	1000	0	0	-1	1500
11894715	46	413	0	-100	0	230	101300000	1000	0	0	-1	1500
11907275	53	413	0	-100	0	230	101300000	1000	0	0	-1	1500
11919835	53	409	0	-100	0	230	101300000	1000	0	0	-1	1500
11932395	50	412	0	-100	0	230	101300000	1000	0	0	-1	1500
11944955	50	412	0	-100	0	230	101300000	1000	0	0	-1	1500
11957515	53	410	0	-100	0	230	101300000	1000	0	0	-1	1500
11970075	50	409	0	-100	0	230	101300000	1000	0	0	-1	1500
11982635	48	413	0	-100	0	230	101300000	1000	0	0	-1	1500
11995195	53	409	0	-100	0	230	101300000	1000	0	0	-1	1500
12007755	48	409	0	-100	0	230	101300000	1000	0	0	-1	1500
12070555	50	410	0	-100	0	230	101300000	1000	0	0	-1	1500
12083115	48	413	0	-100	0	230	101300000	1000	0	0	-1	1500
12095675	50	412	0	-100	0	230	101300000	1000	0	0	-1	1500
12108235	53	411	0	-100	0	230	101300000	1000	0	0	-1	1500
12120795	48	413	0	-100	0	230	101300000	1000	0	0	-1	1500
12133355	48	413	0	-100	0	230	101300000	1000	0	0	-1	1500
12145915	53	409	0	-100	0	230	101300000	1000	0	0	-1	1500
12158475	46	416	0	-100	0	230	101300000	1000	0	0	-1	1500
12171035	46	414	0	-100	0	230	101300000	1000	0	0	-1	1500
12183595	50	410	0	-100	0	230	101300000	1000	0	0	-1	1500
12196155	46	409	0	-100	0	230	101300000	1000	0	0	-1	1500
12258955	55	412	0	-100	0	230	101300000	1000	0	0	-1	1500
12271515	53	411	0	-100	0	230	101300000	1000	0	0	-1	1500
12284075	48	410	0	-100	0	230	101300000	1000	0	0	-1	1500
12296635	48	408	0	-100	0	230	101300000	1000	0	0	-1	1500
12309195	48	413	0	-100	0	230	101300000	1000	0	0	-1	1500
12321755	48	415	0	-100	0	230	101300000	1000	0	0	-1	1500
12334315	48	412	0	-100	0	230	101300000	1000	0	0	-1	1500
12346875	55	413	0	-100	0	230	101300000	1000	0	0	-1	1500
12359435	55	407	0	-100	0	230	101300000	1000	0	0	-1	1500
12371995	53	413	0	-100	0	230	101300000	1000	0	0	-1	1500
12384555	48	412	0	-100	0	230	101300000	1000	0	0	-1	1500
12397115	43	412	0	-100	0	230	101300000	1000	0	0	-1	1500
12409675	46	413	0	-100	0	230	101300000	1000	0	0	-1	1500
12422235	46	414	0	-100	0	230	101300000	1000	0	0	-1	1500
12434795	50	410	0	-100	0	230	101300000	1000	0	0	-1	1500
12447355	55	410	0	-100	0	230	101300000	1000	0	0	-1	1500
12459915	55	407	0	-100	0	230	101300000	1000	0	0	-1	1500
12472475	55	409	0	-100	0	230	101300000	1000	0	0	-1	1500
12485035	53	413	0	-100	0	230	101300000	1000	0	0	-1	1500
12497595	50	409	0	-100	0	230	101300000	1000	0	0	-1	1500
12510155	48	412	0	-100	0	230	101300000	1000	0	0	-1	1500
12522715	48	411	0	-100	0	230	101300000	1000	0	0	-1	1500
12535275	48	416	0	-100	0	230	101300000	1000	0	0	-1	1500
12547835	48	414	0	-100	0	230	101300000	1000	0	0	-1	1500
12560395	48	414	0	-100	0	230	101300000	1000	0	0	-1	1500
12572955	46	411	0	-100	0	230	101300000	1000	0	0	-1	1500
12585515	46	414	0	-100	0	230	101300000	1000	0	0	-1	1500
12598075	46	413	0	-100	0	230	101300000	1000	0	0	-1	1500
12610635	46	416	0	-100	0	230	101300000	1000	0	0	-1	1500
12623195	53	410	0	-100	0	230	101300000	1000	0	0	-1	1500
12635755	55	412	0	-100	0	230	101300000	1000	0	0	-1	1500
12648315	46	409	0	-100	0	230	101300000	1000	0	0	-1	1500
12660875	46	412	0	-100	0	230	101300000	1000	0	0	-1	1500
12673435	48	409	0	-100	0	230	101300000	1000	0	0	-1	1500
12685995	55	410	0	-100	0	230	101300000	1000	0	0	-1	1500
12698555	50	412	0	-100	0	230	101300000	1000	0	0	-1	1500
12711115	46	414	0	-100	0	230	101300000	1000	0	0	-1	1500
12723675	48	409	0	-100	0	230	101300000	1000	0	0	-1	1500
12736235	55	413	0	-100	0	230	101300000	1000	0	0	-1	1500
12748795	50	413	0	-100	0	230	101300000	1000	0	0	-1	1500
12761355	48	413	0	-100	0	230	101300000	1000	0	0	-1	1500
12773915	53	408	0	-100	0	230	101300000	1000	0	0	-1	1500
12786475	46	413	0	-100	0	230	101300000	1000	0	0	-1	1500
12799035	46	415	0	-100	0	230	101300000	1000	0	0	-1	1500
12811595	48	410	0	-100	0	230	101300000	1000	0	0	-1	1500
12824155	53	409	0	-100	0	230	101300000	1000	0	0	-1	1500
12836715	46	414	0	-100	0	230	101300000	1000	0	0	-1	1500
12849275	48	414	0	-100	0	230	101300000	1000	0	0	-1	1500
12861835	50	412	0	-100	0	230	101300000	1000	0	0	-1	1500
12874395	55	410	0	-100	0	230	101300000	1000	0	0	-1	1500
12886955	48	417	0	-100	0	230	101300000	1000	0	0	-1	1500
12899515	48	415	0	-100	0	230	101300000	1000	0	0	-1	1500
12912075	53	412	0	-100	0	230	101300000	1000	0	0	-1	1500
12924635	50	411	0	-100	0	230	101300000	1000	0	0	-1	1500
12937195	48	411	0	-100	0	230	101300000	1000	0	0	-1	1500
12949755	50	411	0	-100	0	230	101300000	1000	0	0	-1	1500
12962315	53	410	0	-100	0	230	101300000	1000	0	0	-1	1500
12974875	48	409	0	-100	0	230	101300000	1000	0	0	-1	1500
12987435	48	413	0	-100	0	230	101300000	1000	0	0	-1	1500
12999995	46	412	0	-100	0	230	101300000	1000	0	0	-1	1500
13012555	55	404	0	-100	0	230	101300000	1000	0	0	-1	1500
13025115	53	409	0	-100	0	230	101300000	1000	0	0	-1	1500
13037675	48	411	0	-100	0	230	101300000	1000	0	0	-1	1500
13050235	46	414	0	-100	0	230	101300000	1000	0	0	-1	1500
13062795	46	413	0	-100	0	230	101300000	1000	0	0	-1	1500
13075355	50	410	0	-100	0	230	101300000	1000	0	0	-1	1500
13087915	55	408	0	-100	0	230	101300000	1000	0	0	-1	1500
13100475	53	411	0	-100	0	230	101300000	1000	0	0	-1	1500
13113035	48	416	0	-100	0	230	101300000	1000	0	0	-1	1500
13125595	46	416	0	-100	0	230	101300000	1000	0	0	-1	1500
13138155	48	412	0	-100	0	230	101300000	1000	0	0	-1	1500
13150715	55	409	0	-100	0	230	101300000	1000	0	0	-1	1500
13163275	53	412	0	-100	0	230	101300000	1000	0	0	-1	1500
13175835	50	410	0	-100	0	230	101300000	1000	0	0	-1	1500
13188395	48	410	0	-100	0	230	101300000	1000	0	0	-1	1500
13200955	48	414	0	-100	0	230	101300000	1000	0	0	-1	1500
13213515	50	411	0	-100	0	230	101300000	1000	0	0	-1	1500
13226075	53	413	0	-100	0	230	101300000	1000	0	0	-1	1500
13238635	53	409	0	-100	0	230	101300000	1000	0	0	-1	1500
13251195	55	409	0	-100	0	230	101300000	1000	0	0	-1	1500
13263755	55	412	0	-100	0	230	101300000	1000	0	0	-1	1500
13276315	50	412	0	-100	0	230	101300000	1000	0	0	-1	1500
13288875	53	408	0	-100	0	230	101300000	1000	0	0	-1	1500
13301435	50	409	0	-100	0	230	101300000	1000	0	0	-1	1500
13313995	53	406	0	-100	0	230	101300000	1000	0	0	-1	1500
13326555	46	413	0	-100	0	230	101300000	1000	0	0	-1	1500
13339115	48	412	0	-100	0	230	101300000	1000	0	0	-1	1500
13351675	48	414	0	-100	0	230	101300000	1000	0	0	-1	1500
13364235	43	414	0	-100	0	230	101300000	1000	0	0	-1	1500
13376795	43	414	0	-100	0	230	101300000	1000	0	0	-1	1500
13389355	48	412	0	-100	0	230	101300000	1000	0	0	-1	1500
13401915	53	409	0	-100	0	230	101300000	1000	0	0	-1	1500
13414475	53	409	0	-100	0	230	101300000	1000	0	0	-1	1500
13427035	53	409	0	-100	0	230	101300000	1000	0	0	-1	1500
13439595	48	415	0	-100	0	230	101300000	1000	0	0	-1	1500
13452155	48	409	0	-100	0	230	101300000	1000	0	0	-1	1500
13464715	46	413	0	-100	0	230	101300000	1000	0	0	-1	1500
13477275	46	413	0	-100	0	230	101300000	1000	0	0	-1	1500
13489835	46	411	0	-100	0	230	101300000	1000	0	0	-1	1500
13502395	48	407	0	-100	0	230	101300000	1000	0	0	-1	1500
13514955	55	411	0	-100	0	230	101300000	1000	0	0	-1	1500
13527515	53	409	0	-100	0	230	101300000	1000	0	0	-1	1500
13540075	55	412	0	-100	0	230	101300000	1000	0	0	-1	1500
13552635	55	409	0	-100	0	230	101300000	1000	0	0	-1	1500
13565195	53	413	0	-100	0	230	101300000	1000	0	0	-1	1500
13577755	53	412	0	-100	0	230	101300000	1000	0	0	-1	1500
13590315	50	411	0	-100	0	230	101300000	1000	0	0	-1	1500
13602875	50	408	0	-100	0	230	101300000	1000	0	0	-1	1500
13615435	50	411	0	-100	0	230	101300000	1000	0	0	-1	1500
13627995	48	413	0	-100	0	230	101300000	1000	0	0	-1	1500
13640555	50	409	0	-100	0	230	101300000	1000	0	0	-1	1500
13653115	46	411	0	-100	0	230	101300000	1000	0	0	-1	1500
13665675	48	409	0	-100	0	230	101300000	1000	0	0	-1	1500
13678235	48	412	0	-100	0	230	101300000	1000	0	0	-1	1500
13690795	46	416	0	-100	0	230	101300000	1000	0	0	-1	1500
13703355	46	418	0	-100	0	230	101300000	1000	0	0	-1	1500
13715915	48	414	0	-100	0	230	101300000	1000	0	0	-1	1500
13728475	46	414	0	-100	0	230	101300000	1000	0	0	-1	1500
13741035	46	416	0	-100	0	230	101300000	1000	0	0	-1	1500
13753595	46	415	0	-100	0	230	101300000	1000	0	0	-1	1500
13766155	46	410	0	-100	0	230	101300000	1000	0	0	-1	1500
13778715	46	416	0	-100	0	230	101300000	1000	0	0	-1	1500
13791275	46	412	0	-100	0	230	101300000	1000	0	0	-1	1500
13803835	50	409	0	-100	0	230	101300000	1000	0	0	-1	1500
13816395	53	411	0	-100	0	230	101300000	1000	0	0	-1	1500
13828955	55	409	0	-100	0	230	101300000	1000	0	0	-1	1500
13841515	50	411	0	-100	0	230	101300000	1000	0	0	-1	1500
13854075	48	410	0	-100	0	230	101300000	1000	0	0	-1	1500
13866635	46	412	0	-100	0	230	101300000	1000	0	0	-1	1500
13879195	46	410	0	-100	0	230	101300000	1000	0	0	-1	1500
13891755	46	411	0	-100	0	230	101300000	1000	0	0	-1	1500
13904315	46	414	0	-100	0	230	101300000	1000	0	0	-1	1500
13916875	48	412	0	-100	0	230	101300000	1000	0	0	-1	1500
13929435	48	411	0	-100	0	230	101300000	1000	0	0	-1	1500
13941995	48	408	0	-100	0	230	101300000	1000	0	0	-1	1500
13954555	48	416	0	-100	0	230	101300000	1000	0	0	-1	1500
13967115	48	411	0	-100	0	230	101300000	1000	0	0	-1	1500
13979675	48	411	0	-100	0	230	101300000	1000	0	0	-1	1500
13992235	46	414	0	-100	0	230	101300000	1000	0	0	-1	1500
14004795	48	410	0	-100	0	230	101300000	1000	0	0	-1	1500
14017355	48	413	0	-100	0	230	101300000	1000	0	0	-1	1500
14029915	48	413	0	-100	0	230	101300000	1000	0	0	-1	1500
14042475	53	411	0	-100	0	230	101300000	1000	0	0	-1	1500
14055035	53	409	0	-100	0	230	101300000	1000	0	0	-1	1500
14067595	55	413	0	-100	0	230	101300000	1000	0	0	-1	1500
14080155	55	412	0	-100	0	230	101300000	1000	0	0	-1	1500
14092715	58	410	0	-100	0	230	101300000	1000	0	0	-1	1500
14105275	55	409	0	-100	0	230	101300000	1000	0	0	-1	1500
14117835	53	411	0	-100	0	230	101300000	1000	0	0	-1	1500
14130395	50	410	0	-100	0	230	101300000	1000	0	0	-1	1500
14142955	50	409	0	-100	0	230	101300000	1000	0	0	-1	1500
14155515	55	413	0	-100	0	230	101300000	1000	0	0	-1	1500
14168075	55	408	0	-100	0	230	101300000	1000	0	0	-1	1500
14180635	53	407	0	-100	0	230	101300000	1000	0	0	-1	1500
14193195	50	410	0	-100	0	230	101300000	1000	0	0	-1	1500
14205755	46	412	0	-100	0	230	101300000	1000	0	0	-1	1500
14218315	48	411	0	-100	0	230	101300000	1000	0	0	-1	1500
14230875	50	409	0	-100	0	230	101300000	1000	0	0	-1	1500
14243435	55	414	0	-100	0	230	101300000	1000	0	0	-1	1500
14255995	55	412	0	-100	0	230	101300000	1000	0	0	-1	1500
14268555	50	409	0	-100	0	230	101300000	1000	0	0	-1	1500
14281115	46	409	0	-100	0	230	101300000	1000	0	0	-1	1500
14293675	46	413	0	-100	0	230	101300000	1000	0	0	-1	1500
14306235	48	414	0	-100	0	230	101300000	1000	0	0	-1	1500
14318795	48	410	0	-100	0	230	101300000	1000	0	0	-1	1500
14331355	48	409	0	-100	0	230	101300000	1000	0	0	-1	1500
14343915	48	410	0	-100	0	230	101300000	1000	0	0	-1	1500
14356475	48	410	0	-100	0	230	101300000	1000	0	0	-1	1500
14369035	46	411	0	-100	0	230	101300000	1000	0	0	-1	1500
14381595	46	411	0	-100	0	230	101300000	1000	0	0	-1	1500
14394155	46	412	0	-100	0	230	101300000	1000	0	0	-1	1500
14406715	46	417	0	-100	0	230	101300000	1000	0	0	-1	1500
14419275	46	414	0	-100	0	230	101300000	1000	0	0	-1	1500
14431835	50	415	0	-100	0	230	101300000	1000	0	0	-1	1500
14444395	46	415	0	-100	0	230	101300000	1000	0	0	-1	1500
14456955	50	409	0	-100	0	230	101300000	1000	0	0	-1	1500
14469515	50	409	0	-100	0	230	101300000	1000	0	0	-1	1500
14482075	50	409	0	-100	0	230	101300000	1000	0	0	-1	1500
14494635	55	412	0	-100	0	230	101300000	1000	0	0	-1	1500
14507195	53	409	0	-100	0	230	101300000	1000	0	0	-1	1500
14519755	55	413	0	-100	0	230	101300000	1000	0	0	-1	1500
14532315	53	409	0	-100	0	230	101300000	1000	0	0	-1	1500
14544875	55	413	0	-100	0	230	101300000	1000	0	0	-1	1500
14557435	55	409	0	-100	0	230	101300000	1000	0	0	-1	1500
14569995	55	413	0	-100	0	230	101300000	1000	0	0	-1	1500
14582555	55	411	0	-100	0	230	101300000	1000	0	0	-1	1500
14595115	50	409	0	-100	0	230	101300000	1000	0	0	-1	1500
14607675	50	411	0	-100	0	230	101300000	1000	0	0	-1	1500
14620235	48	413	0	-100	0	230	101300000	1000	0	0	-1	1500
14632795	48	413	0	-100	0	230	101300000	1000	0	0	-1	1500
14645355	46	413	0	-100	0	230	101300000	1000	0	0	-1	1500
14657915	50	412	0	-100	0	230	101300000	1000	0	0	-1	1500
14670475	46	411	0	-100	0	230	101300000	1000	0	0	-1	1500
14683035	50	410	0	-100	0	230	101300000	1000	0	0	-1	1500
14695595	53	410	0	-100	0	230	101300000	1000	0	0	-1	1500
14708155	55	408	0	-100	0	230	101300000	1000	0	0	-1	1500
14720715	55	411	0	-100	0	230	101300000	1000	0	0	-1	1500
14733275	55	409	0	-100	0	230	101300000	1000	0	0	-1	1500
14745835	55	410	0	-100	0	230	101300000	1000	0	0	-1	1500
14758395	53	409	0	-100	0	230	101300000	1000	0	0	-1	1500
14770955	50	410	0	-100	0	230	101300000	1000	0	0	-1	1500
14783515	48	412	0	-100	0	230	101300000	1000	0	0	-1	1500
14796075	46	416	0	-100	0	230	101300000	1000	0	0	-1	1500
14808635	50	417	0	-100	0	230	101300000	1000	0	0	-1	1500
14821195	48	413	0	-100	0	230	101300000	1000	0	0	-1	1500
14833755	53	410	0	-100	0	230	101300000	1000	0	0	-1	1500
14846315	53	407	0	-100	0	230	101300000	1000	0	0	-1	1500
14858875	55	410	0	-100	0	230	101300000	1000	0	0	-1	1500
14871435	48	410	0	-100	0	230	101300000	1000	0	0	-1	1500
14883995	48	409	0	-100	0	230	101300000	1000	0	0	-1	1500
14896555	46	409	0	-100	0	230	101300000	1000	0	0	-1	1500
14909115	50	410	0	-100	0	230	101300000	1000	0	0	-1	1500
14921675	53	409	0	-100	0	230	101300000	1000	0	0	-1	1500
14934235	53	412	0	-100	0	230	101300000	1000	0	0	-1	1500
14971915	46	413	0	-100	0	230	101300000	1000	0	0	-1	1500
14984475	48	413	0	-100	0	230	101300000	1000	0	0	-1	1500
14997035	48	414	0	-100	0	230	101300000	1000	0	0	-1	1500
15009595	53	408	0	-100	0	230	101300000	1000	0	0	-1	1500
15022155	55	406	0	-100	0	230	101300000	1000	0	0	-1	1500
15034715	50	412	0	-100	0	230	101300000	1000	0	0	-1	1500
15047275	48	414	0	-100	0	230	101300000	1000	0	0	-1	1500
15059835	46	412	0	-100	0	230	101300000	1000	0	0	-1	1500
15072395	46	414	0	-100	0	230	101300000	1000	0	0	-1	1500
15084955	46	412	0	-100	0	230	101300000	1000	0	0	-1	1500
15097515	46	413	0	-100	0	230	101300000	1000	0	0	-1	1500
15172875	53	411	0	-100	0	230	101300000	1000	0	0	-1	1500
15185435	53	413	0	-100	0	230	101300000	1000	0	0	-1	1500
15197995	48	413	0	-100	0	230	101300000	1000	0	0	-1	1500
15210555	46	409	0	-100	0	230	101300000	1000	0	0	-1	1500
15223115	46	413	0	-100	0	230	101300000	1000	0	0	-1	1500
15235675	48	413	0	-100	0	230	101300000	1000	0	0	-1	1500
15248235	48	414	0	-100	0	230	101300000	1000	0	0	-1	1500
15260795	50	410	0	-100	0	230	101300000	1000	0	0	-1	1500
15273355	50	410	0	-100	0	230	101300000	1000	0	0	-1	1500
15285915	55	408	0	-100	0	230	101300000	1000	0	0	-1	1500
15298475	55	412	0	-100	0	230	101300000	1000	0	0	-1	1500
15336155	46	413	0	-100	0	230	101300000	1000	0	0	-1	1500
15348715	46	414	0	-100	0	230	101300000	1000	0	0	-1	1500
15361275	48	413	0	-100	0	230	101300000	1000	0	0	-1	1500
15373835	48	413	0	-100	0	230	101300000	1000	0	0	-1	1500
15386395	46	412	0	-100	0	230	101300000	1000	0	0	-1	1500
15398955	48	412	0	-100	0	230	101300000	1000	0	0	-1	1500
15411515	46	410	0	-100	0	230	101300000	1000	0	0	-1	1500
15424075	48	410	0	-100	0	230	101300000	1000	0	0	-1	1500
15436635	46	416	0	-100	0	230	101300000	1000	0	0	-1	1500
15449195	48	410	0	-100	0	230	101300000	1000	0	0	-1	1500
15461755	50	412	0	-100	0	230	101300000	1000	0	0	-1	1500
15474315	50	409	0	-100	0	230	101300000	1000	0	0	-1	1500
15486875	50	411	0	-100	0	230	101300000	1000	0	0	-1	1500
15499435	53	411	0	-100	0	230	101300000	1000	0	0	-1	1500
15511995	53	414	0	-100	0	230	101300000	1000	0	0	-1	1500
15524555	55	408	0	-100	0	230	101300000	1000	0	0	-1	1500
15537115	53	412	0	-100	0	230	101300000	1000	0	0	-1	1500
15549675	53	414	0	-100	0	230	101300000	1000	0	0	-1	1500
15562235	53	412	0	-100	0	230	101300000	1000	0	0	-1	1500
15574795	55	411	0	-100	0	230	101300000	1000	0	0	-1	1500
15587355	55	411	0	-100	0	230	101300000	1000	0	0	-1	1500
15599915	55	408	0	-100	0	230	101300000	1000	0	0	-1	1500
15612475	55	409	0	-100	0	230	101300000	1000	0	0	-1	1500
15625035	53	410	0	-100	0	230	101300000	1000	0	0	-1	1500
15637595	46	411	0	-100	0	230	101300000	1000	0	0	-1	1500
15650155	46	411	0	-100	0	230	101300000	1000	0	0	-1	1500
15662715	48	414	0	-100	0	230	101300000	1000	0	0	-1	1500
15675275	50	408	0	-100	0	230	101300000	1000	0	0	-1	1500
15687835	46	414	0	-100	0	230	101300000	1000	0	0	-1	1500
15700395	48	409	0	-100	0	230	101300000	1000	0	0	-1	1500
15712955	50	409	0	-100	0	230	101300000	1000	0	0	-1	1500
15725515	48	409	0	-100	0	230	101300000	1000	0	0	-1	1500
15738075	53	409	0	-100	0	230	101300000	1000	0	0	-1	1500
15750635	55	405	0	-100	0	230	101300000	1000	0	0	-1	1500
15763195	55	413	0	-100	0	230	101300000	1000	0	0	-1	1500
15775755	50	412	0	-100	0	230	101300000	1000	0	0	-1	1500
15788315	46	414	0	-100	0	230	101300000	1000	0	0	-1	1500
15800875	46	414	0	-100	0	230	101300000	1000	0	0	-1	1500
15813435	46	413	0	-100	0	230	101300000	1000	0	0	-1	1500
15825995	48	409	0	-100	0	230	101300000	1000	0	0	-1	1500
15838555	50	412	0	-100	0	230	101300000	1000	0	0	-1	1500
15851115	46	415	0	-100	0	230	101300000	1000	0	0	-1	1500
15863675	50	410	0	-100	0	230	101300000	1000	0	0	-1	1500
15876235	55	409	0	-100	0	230	101300000	1000	0	0	-1	1500
15888795	53	409	0	-100	0	230	101300000	1000	0	0	-1	1500
15901355	55	411	0	-100	0	230	101300000	1000	0	0	-1	1500
15913915	48	409	0	-100	0	230	101300000	1000	0	0	-1	1500
15926475	46	413	0	-100	0	230	101300000	1000	0	0	-1	1500
15939035	50	411	0	-100	0	230	101300000	1000	0	0	-1	1500
15951595	46	413	0	-100	0	230	101300000	1000	0	0	-1	1500
15964155	53	415	0	-100	0	230	101300000	1000	0	0	-1	1500
15976715	55	413	0	-100	0	230	101300000	1000	0	0	-1	1500
15989275	55	411	0	-100	0	230	101300000	1000	0	0	-1	1500
16001835	55	413	0	-100	0	230	101300000	1000	0	0	-1	1500
16014395	46	413	0	-100	0	230	101300000	1000	0	0	-1	1500
16026955	46	414	0	-100	0	230	101300000	1000	0	0	-1	1500
16039515	48	413	0	-100	0	230	101300000	1000	0	0	-1	1500
16052075	46	411	0	-100	0	230	101300000	1000	0	0	-1	1500
16064635	48	409	0	-100	0	230	101300000	1000	0	0	-1	1500
16077195	53	411	0	-100	0	230	101300000	1000	0	0	-1	1500
16089755	53	410	0	-100	0	230	101300000	1000	0	0	-1	1500
16102315	53	411	0	-100	0	230	101300000	1000	0	0	-1	1500
16114875	53	411	0	-100	0	230	101300000	1000	0	0	-1	1500
16127435	53	410	0	-100	0	230	101300000	1000	0	0	-1	1500
16139995	55	412	0	-100	0	230	101300000	1000	0	0	-1	1500
16152555	53	409	0	-100	0	230	101300000	1000	0	0	-1	1500
16165115	48	410	0	-100	0	230	101300000	1000	0	0	-1	1500
16177675	46	410	0	-100	0	230	101300000	1000	0	0	-1	1500
16190235	48	412	0	-100	0	230	101300000	1000	0	0	-1	1500
16202795	46	415	0	-100	0	230	101300000	1000	0	0	-1	1500
16215355	46	416	0	-100	0	230	101300000	1000	0	0	-1	1500
16227915	46	413	0	-100	0	230	101300000	1000	0	0	-1	1500
16240475	48	413	0	-100	0	230	101300000	1000	0	0	-1	1500
16253035	50	415	0	-100	0	230	101300000	1000	0	0	-1	1500
16265595	48	415	0	-100	0	230	101300000	1000	0	0	-1	1500
16278155	46	415	0	-100	0	230	101300000	1000	0	0	-1	1500
16290715	48	411	0	-100	0	230	101300000	1000	0	0	-1	1500
16303275	48	411	0	-100	0	230	101300000	1000	0	0	-1	1500
16315835	48	413	0	-100	0	230	101300000	1000	0	0	-1	1500
16328395	48	411	0	-100	0	230	101300000	1000	0	0	-1	1500
16340955	48	414	0	-100	0	230	101300000	1000	0	0	-1	1500
16353515	48	412	0	-100	0	230	101300000	1000	0	0	-1	1500
16366075	48	409	0	-100	0	230	101300000	1000	0	0	-1	1500
16378635	46	411	0	-100	0	230	101300000	1000	0	0	-1	1500
16391195	46	414	0	-100	0	230	101300000	1000	0	0	-1	1500
16403755	48	411	0	-100	0	230	101300000	1000	0	0	-1	1500
16416315	50	411	0	-100	0	230	101300000	1000	0	0	-1	1500
16428875	55	410	0	-100	0	230	101300000	1000	0	0	-1	1500
16441435	50	410	0	-100	0	230	101300000	1000	0	0	-1	1500
16453995	46	412	0	-100	0	230	101300000	1000	0	0	-1	1500
16466555	46	412	0	-100	0	230	101300000	1000	0	0	-1	1500
16479115	46	414	0	-100	0	230	101300000	1000	0	0	-1	1500
16491675	50	413	0	-100	0	230	101300000	1000	0	0	-1	1500
16504235	48	408	0	-100	0	230	101300000	1000	0	0	-1	1500
16516795	46	413	0	-100	0	230	101300000	1000	0	0	-1	1500
16529355	46	413	0	-100	0	230	101300000	1000	0	0	-1	1500
16541915	46	413	0	-100	0	230	101300000	1000	0	0	-1	1500
16554475	48	415	0	-100	0	230	101300000	1000	0	0	-1	1500
16567035	50	412	0	-100	0	230	101300000	1000	0	0	-1	1500
16579595	50	413	0	-100	0	230	101300000	1000	0	0	-1	1500
16592155	50	416	0	-100	0	230	101300000	1000	0	0	-1	1500
16604715	48	421	0	-100	0	230	101300000	1000	0	0	-1	1500
16617275	48	411	0	-100	0	230	101300000	1000	0	0	-1	1500
16629835	48	413	0	-100	0	230	101300000	1000	0	0	-1	1500
16642395	48	414	0	-100	0	230	101300000	1000	0	0	-1	1500
16654955	46	419	0	-100	0	230	101300000	1000	0	0	-1	1500
16667515	48	411	0	-100	0	230	101300000	1000	0	0	-1	1500
16680075	50	412	0	-100	0	230	101300000	1000	0	0	-1	1500
16692635	48	413	0	-100	0	230	101300000	1000	0	0	-1	1500
16705195	48	412	0	-100	0	230	101300000	1000	0	0	-1	1500
16717755	48	411	0	-100	0	230	101300000	1000	0	0	-1	1500
16730315	46	413	0	-100	0	230	101300000	1000	0	0	-1	1500
16742875	46	414	0	-100	0	230	101300000	1000	0	0	-1	1500
16755435	48	411	0	-100	0	230	101300000	1000	0	0	-1	1500
16767995	48	411	0	-100	0	230	101300000	1000	0	0	-1	1500
16780555	53	412	0	-100	0	230	101300000	1000	0	0	-1	1500
16793115	53	409	0	-100	0	230	101300000	1000	0	0	-1	1500
16805675	53	420	0	-100	0	230	101300000	1000	0	0	-1	1500
16818235	50	408	0	-100	0	230	101300000	1000	0	0	-1	1500
16830795	53	413	0	-100	0	230	101300000	1000	0	0	-1	1500
16843355	53	409	0	-100	0	230	101300000	1000	0	0	-1	1500
16855915	55	410	0	-100	0	230	101300000	1000	0	0	-1	1500
16868475	55	408	0	-100	0	230	101300000	1000	0	0	-1	1500
16881035	55	408	0	-100	0	230	101300000	1000	0	0	-1	1500
16893595	53	412	0	-100	0	230	101300000	1000	0	0	-1	1500
16906155	48	409	0	-100	0	230	101300000	1000	0	0	-1	1500
16918715	46	409	0	-100	0	230	101300000	1000	0	0	-1	1500
16931275	46	409	0	-100	0	230	101300000	1000	0	0	-1	1500
16943835	48	412	0	-100	0	230	101300000	1000	0	0	-1	1500
16956395	48	412	0	-100	0	230	101300000	1000	0	0	-1	1500
16968955	48	414	0	-100	0	230	101300000	1000	0	0	-1	1500
16981515	48	410	0	-100	0	230	101300000	1000	0	0	-1	1500
16994075	53	407	0	-100	0	230	101300000	1000	0	0	-1	1500
17006635	53	410	0	-100	0	230	101300000	1000	0	0	-1	1500
17019195	46	412	0	-100	0	230	101300000	1000	0	0	-1	1500
17031755	48	415	0	-100	0	230	101300000	1000	0	0	-1	1500
17044315	48	410	0	-100	0	230	101300000	1000	0	0	-1	1500
17056875	48	416	0	-100	0	230	101300000	1000	0	0	-1	1500
17069435	48	411	0	-100	0	230	101300000	1000	0	0	-1	1500
17081995	53	408	0	-100	0	230	101300000	1000	0	0	-1	1500
17094555	55	412	0	-100	0	230	101300000	1000	0	0	-1	1500
17107115	55	412	0	-100	0	230	101300000	1000	0	0	-1	1500
17119675	53	404	0	-100	0	230	101300000	1000	0	0	-1	1500
17132235	55	408	0	-100	0	230	101300000	1000	0	0	-1	1500
17144795	53	411	0	-100	0	230	101300000	1000	0	0	-1	1500
17157355	50	409	0	-100	0	230	101300000	1000	0	0	-1	1500
17169915	50	411	0	-100	0	230	101300000	1000	0	0	-1	1500
17182475	53	414	0	-100	0	230	101300000	1000	0	0	-1	1500
17195035	53	414	0	-100	0	230	101300000	1000	0	0	-1	1500
17207595	50	409	0	-100	0	230	101300000	1000	0	0	-1	1500
17220155	48	410	0	-100	0	230	101300000	1000	0	0	-1	1500
17232715	48	411	0	-100	0	230	101300000	1000	0	0	-1	1500
17245275	46	410	0	-100	0	230	101300000	1000	0	0	-1	1500
17257835	46	414	0	-100	0	230	101300000	1000	0	0	-1	1500
17270395	46	414	0	-100	0	230	101300000	1000	0	0	-1	1500
17282955	46	414	0	-100	0	230	101300000	1000	0	0	-1	1500
17295515	48	414	0	-100	0	230	101300000	1000	0	0	-1	1500
17308075	46	415	0	-100	0	230	101300000	1000	0	0	-1	1500
17320635	46	414	0	-100	0	230	101300000	1000	0	0	-1	1500
17333195	48	414	0	-100	0	230	101300000	1000	0	0	-1	1500
17345755	48	414	0	-100	0	230	101300000	1000	0	0	-1	1500
17358315	46	409	0	-100	0	230	101300000	1000	0	0	-1	1500
17370875	48	414	0	-100	0	230	101300000	1000	0	0	-1	1500
17383435	48	410	0	-100	0	230	101300000	1000	0	0	-1	1500
17395995	53	409	0	-100	0	230	101300000	1000	0	0	-1	1500
17408555	55	410	0	-100	0	230	101300000	1000	0	0	-1	1500
17421115	53	408	0	-100	0	230	101300000	1000	0	0	-1	1500
17433675	50	409	0	-100	0	230	101300000	1000	0	0	-1	1500
17446235	48	410	0	-100	0	230	101300000	1000	0	0	-1	1500
17458795	48	414	0	-100	0	230	101300000	1000	0	0	-1	1500
17471355	48	413	0	-100	0	230	101300000	1000	0	0	-1	1500
17483915	48	415	0	-100	0	230	101300000	1000	0	0	-1	1500
17496475	46	411	0	-100	0	230	101300000	1000	0	0	-1	1500
17509035	46	411	0	-100	0	230	101300000	1000	0	0	-1	1500
17521595	48	413	0	-100	0	230	101300000	1000	0	0	-1	1500
17534155	48	410	0	-100	0	230	101300000	1000	0	0	-1	1500
17546715	53	409	0	-100	0	230	101300000	1000	0	0	-1	1500
17559275	55	410	0	-100	0	230	101300000	1000	0	0	-1	1500
17571835	53	408	0	-100	0	230	101300000	1000	0	0	-1	1500
17584395	48	410	0	-100	0	230	101300000	1000	0	0	-1	1500
17596955	48	409	0	-100	0	230	101300000	1000	0	0	-1	1500
17609515	48	414	0	-100	0	230	101300000	1000	0	0	-1	1500
17622075	46	413	0	-100	0	230	101300000	1000	0	0	-1	1500
17634635	46	412	0	-100	0	230	101300000	1000	0	0	-1	1500
17647195	48	411	0	-100	0	230	101300000	1000	0	0	-1	1500
17659755	55	410	0	-100	0	230	101300000	1000	0	0	-1	1500
17672315	53	411	0	-100	0	230	101300000	1000	0	0	-1	1500
17684875	53	410	0	-100	0	230	101300000	1000	0	0	-1	1500
17697435	55	411	0	-100	0	230	101300000	1000	0	0	-1	1500
17709995	50	412	0	-100	0	230	101300000	1000	0	0	-1	1500
17722555	48	408	0	-100	0	230	101300000	1000	0	0	-1	1500
17735115	46	410	0	-100	0	230	101300000	1000	0	0	-1	1500
17747675	50	410	0	-100	0	230	101300000	1000	0	0	-1	1500
17760235	46	412	0	-100	0	230	101300000	1000	0	0	-1	1500
17772795	46	416	0	-100	0	230	101300000	1000	0	0	-1	1500
17785355	46	414	0	-100	0	230	101300000	1000	0	0	-1	1500
17797915	46	414	0	-100	0	230	101300000	1000	0	0	-1	1500
17810475	46	414	0	-100	0	230	101300000	1000	0	0	-1	1500
17823035	48	418	0	-100	0	230	101300000	1000	0	0	-1	1500
17835595	48	413	0	-100	0	230	101300000	1000	0	0	-1	1500
17848155	48	411	0	-100	0	230	101300000	1000	0	0	-1	1500
17860715	50	417	0	-100	0	230	101300000	1000	0	0	-1	1500
17873275	46	412	0	-100	0	230	101300000	1000	0	0	-1	1500
17885835	46	414	0	-100	0	230	101300000	1000	0	0	-1	1500
17898395	46	414	0	-100	0	230	101300000	1000	0	0	-1	1500
17910955	48	412	0	-100	0	230	101300000	1000	0	0	-1	1500
17923515	46	415	0	-100	0	230	101300000	1000	0	0	-1	1500
17936075	48	417	0	-100	0	230	101300000	1000	0	0	-1	1500
17948635	50	415	0	-100	0	230	101300000	1000	0	0	-1	1500
17961195	48	415	0	-100	0	230	101300000	1000	0	0	-1	1500
17973755	48	413	0	-100	0	230	101300000	1000	0	0	-1	1500
17986315	46	411	0	-100	0	230	101300000	1000	0	0	-1	1500
17998875	55	413	0	-100	0	230	101300000	1000	0	0	-1	1500
18011435	53	410	0	-100	0	230	101300000	1000	0	0	-1	1500
18074235	46	415	0	-100	0	230	101300000	1000	0	0	-1	1500
18086795	46	415	0	-100	0	230	101300000	1000	0	0	-1	1500
18099355	46	409	0	-100	0	230	101300000	1000	0	0	-1	1500
18111915	46	411	0	-100	0	230	101300000	1000	0	0	-1	1500
18124475	46	413	0	-100	0	230	101300000	1000	0	0	-1	1500
18137035	48	410	0	-100	0	230	101300000	1000	0	0	-1	1500
18149595	53	408	0	-100	0	230	101300000	1000	0	0	-1	1500
18162155	53	408	0	-100	0	230	101300000	1000	0	0	-1	1500
18174715	55	409	0	-100	0	230	101300000	1000	0	0	-1	1500
18187275	53	408	0	-100	0	230	101300000	1000	0	0	-1	1500
18199835	55	407	0	-100	0	230	101300000	1000	0	0	-1	1500
18262635	58	408	0	-100	0	230	101300000	1000	0	0	-1	1500
18275195	55	408	0	-100	0	230	101300000	1000	0	0	-1	1500
18287755	55	408	0	-100	0	230	101300000	1000	0	0	-1	1500
18300315	53	405	0	-100	0	230	101300000	1000	0	0	-1	1500
18312875	55	411	0	-100	0	230	101300000	1000	0	0	-1	1500
18325435	53	412	0	-100	0	230	101300000	1000	0	0	-1	1500
18337995	48	411	0	-100	0	230	101300000	1000	0	0	-1	1500
18350555	46	412	0	-100	0	230	101300000	1000	0	0	-1	1500
18363115	46	413	0	-100	0	230	101300000	1000	0	0	-1	1500
18375675	48	414	0	-100	0	230	101300000	1000	0	0	-1	1500
18388235	48	412	0	-100	0	230	101300000	1000	0	0	-1	1500
18400795	46	414	0	-100	0	230	101300000	1000	0	0	-1	1500
18413355	46	414	0	-100	0	230	101300000	1000	0	0	-1	1500
18425915	46	415	0	-100	0	230	101300000	1000	0	0	-1	1500
18438475	48	411	0	-100	0	230	101300000	1000	0	0	-1	1500
18451035	46	412	0	-100	0	230	101300000	1000	0	0	-1	1500
18463595	50	409	0	-100	0	230	101300000	1000	0	0	-1	1500
18476155	53	409	0	-100	0	230	101300000	1000	0	0	-1	1500
18488715	55	411	0	-100	0	230	101300000	1000	0	0	-1	1500
18501275	53	407	0	-100	0	230	101300000	1000	0	0	-1	1500
18513835	53	408	0	-100	0	230	101300000	1000	0	0	-1	1500
18526395	53	406	0	-100	0	230	101300000	1000	0	0	-1	1500
18538955	53	412	0	-100	0	230	101300000	1000	0	0	-1	1500
18551515	50	412	0	-100	0	230	101300000	1000	0	0	-1	1500
18564075	46	412	0	-100	0	230	101300000	1000	0	0	-1	1500
18576635	48	414	0	-100	0	230	101300000	1000	0	0	-1	1500
18589195	48	414	0	-100	0	230	101300000	1000	0	0	-1	1500
18601755	48	416	0	-100	0	230	101300000	1000	0	0	-1	1500
18614315	43	411	0	-100	0	230	101300000	1000	0	0	-1	1500
18626875	43	412	0	-100	0	230	101300000	1000	0	0	-1	1500
18639435	48	413	0	-100	0	230	101300000	1000	0	0	-1	1500
18651995	48	414	0	-100	0	230	101300000	1000	0	0	-1	1500
18664555	55	411	0	-100	0	230	101300000	1000	0	0	-1	1500
18677115	53	409	0	-100	0	230	101300000	1000	0	0	-1	1500
18689675	53	411	0	-100	0	230	101300000	1000	0	0	-1	1500
18702235	50	409	0	-100	0	230	101300000	1000	0	0	-1	1500
18714795	46	409	0	-100	0	230	101300000	1000	0	0	-1	1500
18727355	50	416	0	-100	0	230	101300000	1000	0	0	-1	1500
18739915	48	408	0	-100	0	230	101300000	1000	0	0	-1	1500
18752475	46	411	0	-100	0	230	101300000	1000	0	0	-1	1500
18765035	48	412	0	-100	0	230	101300000	1000	0	0	-1	1500
18777595	53	414	0	-100	0	230	101300000	1000	0	0	-1	1500
18790155	53	409	0	-100	0	230	101300000	1000	0	0	-1	1500
18802715	46	415	0	-100	0	230	101300000	1000	0	0	-1	1500
18815275	48	414	0	-100	0	230	101300000	1000	0	0	-1	1500
18827835	48	413	0	-100	0	230	101300000	1000	0	0	-1	1500
18840395	55	414	0	-100	0	230	101300000	1000	0	0	-1	1500
18852955	53	411	0	-100	0	230	101300000	1000	0	0	-1	1500
18865515	46	413	0	-100	0	230	101300000	1000	0	0	-1	1500
18878075	46	417	0	-100	0	230	101300000	1000	0	0	-1	1500
18890635	48	410	0	-100	0	230	101300000	1000	0	0	-1	1500
18903195	53	412	0	-100	0	230	101300000	1000	0	0	-1	1500
18915755	53	411	0	-100	0	230	101300000	1000	0	0	-1	1500
18928315	46	412	0	-100	0	230	101300000	1000	0	0	-1	1500
18940875	48	413	0	-100	0	230	101300000	1000	0	0	-1	1500
18953435	50	411	0	-100	0	230	101300000	1000	0	0	-1	1500
18965995	55	412	0	-100	0	230	101300000	1000	0	0	-1	1500
18978555	55	411	0	-100	0	230	101300000	1000	0	0	-1	1500
18991115	50	409	0	-100	0	230	101300000	1000	0	0	-1	1500
19003675	50	409	0	-100	0	230	101300000	1000	0	0	-1	1500
19016235	46	412	0	-100	0	230	101300000	1000	0	0	-1	1500
19028795	46	414	0	-100	0	230	101300000	1000	0	0	-1	1500
19041355	48	413	0	-100	0	230	101300000	1000	0	0	-1	1500
19053915	48	414	0	-100	0	230	101300000	1000	0	0	-1	1500
19066475	48	410	0	-100	0	230	101300000	1000	0	0	-1	1500
19079035	55	412	0	-100	0	230	101300000	1000	0	0	-1	1500
19091595	53	408	0	-100	0	230	101300000	1000	0	0	-1	1500
19104155	53	411	0	-100	0	230	101300000	1000	0	0	-1	1500
19116715	48	411	0	-100	0	230	101300000	1000	0	0	-1	1500
19129275	46	409	0	-100	0	230	101300000	1000	0	0	-1	1500
19141835	53	412	0	-100	0	230	101300000	1000	0	0	-1	1500
19154395	48	414	0	-100	0	230	101300000	1000	0	0	-1	1500
19166955	46	412	0	-100	0	230	101300000	1000	0	0	-1	1500
19179515	48	412	0	-100	0	230	101300000	1000	0	0	-1	1500
19192075	50	412	0	-100	0	230	101300000	1000	0	0	-1	1500
19204635	58	410	0	-100	0	230	101300000	1000	0	0	-1	1500
19217195	53	412	0	-100	0	230	101300000	1000	0	0	-1	1500
19229755	50	411	0	-100	0	230	101300000	1000	0	0	-1	1500
19242315	50	409	0	-100	0	230	101300000	1000	0	0	-1	1500
19254875	46	412	0	-100	0	230	101300000	1000	0	0	-1	1500
19267435	46	413	0	-100	0	230	101300000	1000	0	0	-1	1500
19279995	46	408	0	-100	0	230	101300000	1000	0	0	-1	1500
19292555	50	409	0	-100	0	230	101300000	1000	0	0	-1	1500
19305115	50	416	0	-100	0	230	101300000	1000	0	0	-1	1500
19317675	48	413	0	-100	0	230	101300000	1000	0	0	-1	1500
19330235	46	410	0	-100	0	230	101300000	1000	0	0	-1	1500
19342795	48	408	0	-100	0	230	101300000	1000	0	0	-1	1500
19355355	46	413	0	-100	0	230	101300000	1000	0	0	-1	1500
19367915	48	410	0	-100	0	230	101300000	1000	0	0	-1	1500
19380475	55	412	0	-100	0	230	101300000	1000	0	0	-1	1500
19393035	53	412	0	-100	0	230	101300000	1000	0	0	-1	1500
19405595	53	410	0	-100	0	230	101300000	1000	0	0	-1	1500
19418155	58	415	0	-100	0	230	101300000	1000	0	0	-1	1500
19430715	55	410	0	-100	0	230	101300000	1000	0	0	-1	1500
19443275	53	407	0	-100	0	230	101300000	1000	0	0	-1	1500
19455835	53	408	0	-100	0	230	101300000	1000	0	0	-1	1500
19468395	55	409	0	-100	0	230	101300000	1000	0	0	-1	1500
19480955	48	409	0	-100	0	230	101300000	1000	0	0	-1	1500
19493515	48	410	0	-100	0	230	101300000	1000	0	0	-1	1500
19506075	48	413	0	-100	0	230	101300000	1000	0	0	-1	1500
19518635	48	415	0	-100	0	230	101300000	1000	0	0	-1	1500
19531195	46	408	0	-100	0	230	101300000	1000	0	0	-1	1500
19543755	50	413	0	-100	0	230	101300000	1000	0	0	-1	1500
19556315	46	414	0	-100	0	230	101300000	1000	0	0	-1	1500
19568875	46	411	0	-100	0	230	101300000	1000	0	0	-1	1500
19581435	50	411	0	-100	0	230	101300000	1000	0	0	-1	1500
19593995	55	419	0	-100	0	230	101300000	1000	0	0	-1	1500
19606555	53	405	0	-100	0	230	101300000	1000	0	0	-1	1500
19619115	55	413	0	-100	0	230	101300000	1000	0	0	-1	1500
19631675	50	411	0	-100	0	230	101300000	1000	0	0	-1	1500
19644235	50	411	0	-100	0	230	101300000	1000	0	0	-1	1500
19656795	46	412	0	-100	0	230	101300000	1000	0	0	-1	1500
19669355	48	412	0	-100	0	230	101300000	1000	0	0	-1	1500
19681915	48	412	0	-100	0	230	101300000	1000	0	0	-1	1500
19694475	46	416	0	-100	0	230	101300000	1000	0	0	-1	1500
19707035	48	413	0	-100	0	230	101300000	1000	0	0	-1	1500
19719595	55	412	0	-100	0	230	101300000	1000	0	0	-1	1500
19732155	53	411	0	-100	0	230	101300000	1000	0	0	-1	1500
19744715	46	413	0	-100	0	230	101300000	1000	0	0	-1	1500
19757275	48	414	0	-100	0	230	101300000	1000	0	0	-1	1500
19769835	48	411	0	-100	0	230	101300000	1000	0	0	-1	1500
19782395	53	409	0	-100	0	230	101300000	1000	0	0	-1	1500
19794955	46	413	0	-100	0	230	101300000	1000	0	0	-1	1500
19807515	53	409	0	-100	0	230	101300000	1000	0	0	-1	1500
19820075	48	415	0	-100	0	230	101300000	1000	0	0	-1	1500
19832635	48	411	0	-100	0	230	101300000	1000	0	0	-1	1500
19845195	55	409	0	-100	0	230	101300000	1000	0	0	-1	1500
19857755	48	414	0	-100	0	230	101300000	1000	0	0	-1	1500
19870315	53	410	0	-100	0	230	101300000	1000	0	0	-1	1500
19882875	50	411	0	-100	0	230	101300000	1000	0	0	-1	1500
19895435	48	413	0	-100	0	230	101300000	1000	0	0	-1	1500
19907995	48	413	0	-100	0	230	101300000	1000	0	0	-1	1500
19920555	53	412	0	-100	0	230	101300000	1000	0	0	-1	1500
19933115	50	411	0	-100	0	230	101300000	1000	0	0	-1	1500
19945675	43	413	0	-100	0	230	101300000	1000	0	0	-1	1500
19958235	53	409	0	-100	0	230	101300000	1000	0	0	-1	1500
19970795	55	412	0	-100	0	230	101300000	1000	0	0	-1	1500
19983355	53	408	0	-100	0	230	101300000	1000	0	0	-1	1500
19995915	50	411	0	-100	0	230	101300000	1000	0	0	-1	1500
20008475	48	412	0	-100	0	230	101300000	1000	0	0	-1	1500
20021035	48	408	0	-100	0	230	101300000	1000	0	0	-1	1500
20033595	48	411	0	-100	0	230	101300000	1000	0	0	-1	1500
20046155	48	414	0	-100	0	230	101300000	1000	0	0	-1	1500
20058715	46	414	0	-100	0	230	101300000	1000	0	0	-1	1500
20071275	46	413	0	-100	0	230	101300000	1000	0	0	-1	1500
20083835	48	411	0	-100	0	230	101300000	1000	0	0	-1	1500
20096395	50	409	0	-100	0	230	101300000	1000	0	0	-1	1500
20108955	53	409	0	-100	0	230	101300000	1000	0	0	-1	1500
20121515	53	408	0	-100	0	230	101300000	1000	0	0	-1	1500
20134075	55	409	0	-100	0	230	101300000	1000	0	0	-1	1500
20146635	55	413	0	-100	0	230	101300000	1000	0	0	-1	1500
20159195	53	410	0	-100	0	230	101300000	1000	0	0	-1	1500
20171755	53	411	0	-100	0	230	101300000	1000	0	0	-1	1500
20184315	46	412	0	-100	0	230	101300000	1000	0	0	-1	1500
20196875	48	410	0	-100	0	230	101300000	1000	0	0	-1	1500
20209435	48	414	0	-100	0	230	101300000	1000	0	0	-1	1500
20221995	46	409	0	-100	0	230	101300000	1000	0	0	-1	1500
20234555	46	413	0	-100	0	230	101300000	1000	0	0	-1	1500
20247115	46	410	0	-100	0	230	101300000	1000	0	0	-1	1500
20259675	53	415	0	-100	0	230	101300000	1000	0	0	-1	1500
20272235	55	412	0	-100	0	230	101300000	1000	0	0	-1	1500
20284795	50	408	0	-100	0	230	101300000	1000	0	0	-1	1500
20297355	48	409	0	-100	0	230	101300000	1000	0	0	-1	1500
20309915	46	413	0	-100	0	230	101300000	1000	0	0	-1	1500
20322475	46	413	0	-100	0	230	101300000	1000	0	0	-1	1500
20335035	48	409	0	-100	0	230	101300000	1000	0	0	-1	1500
20347595	46	412	0	-100	0	230	101300000	1000	0	0	-1	1500
20360155	46	412	0	-100	0	230	101300000	1000	0	0	-1	1500
20372715	58	413	0	-100	0	230	101300000	1000	0	0	-1	1500
20385275	53	409	0	-100	0	230	101300000	1000	0	0	-1	1500
20397835	48	411	0	-100	0	230	101300000	1000	0	0	-1	1500
20410395	48	408	0	-100	0	230	101300000	1000	0	0	-1	1500
20422955	48	413	0	-100	0	230	101300000	1000	0	0	-1	1500
20435515	46	411	0	-100	0	230	101300000	1000	0	0	-1	1500
20448075	48	412	0	-100	0	230	101300000	1000	0	0	-1	1500
20460635	53	408	0	-100	0	230	101300000	1000	0	0	-1	1500
20473195	53	411	0	-100	0	230	101300000	1000	0	0	-1	1500
20485755	53	409	0	-100	0	230	101300000	1000	0	0	-1	1500
20498315	50	411	0	-100	0	230	101300000	1000	0	0	-1	1500
20510875	50	409	0	-100	0	230	101300000	1000	0	0	-1	1500
20523435	48	415	0	-100	0	230	101300000	1000	0	0	-1	1500
20535995	48	412	0	-100	0	230	101300000	1000	0	0	-1	1500
20548555	46	414	0	-100	0	230	101300000	1000	0	0	-1	1500
20561115	46	411	0	-100	0	230	101300000	1000	0	0	-1	1500
20573675	48	410	0	-100	0	230	101300000	1000	0	0	-1	1500
20586235	55	414	0	-100	0	230	101300000	1000	0	0	-1	1500
20598795	55	408	0	-100	0	230	101300000	1000	0	0	-1	1500
20611355	53	409	0	-100	0	230	101300000	1000	0	0	-1	1500
20623915	55	412	0	-100	0	230	101300000	1000	0	0	-1	1500
20636475	55	413	0	-100	0	230	101300000	1000	0	0	-1	1500
20649035	55	406	0	-100	0	230	101300000	1000	0	0	-1	1500
20661595	53	412	0	-100	0	230	101300000	1000	0	0	-1	1500
20674155	53	409	0	-100	0	230	101300000	1000	0	0	-1	1500
20686715	46	415	0	-100	0	230	101300000	1000	0	0	-1	1500
20699275	48	413	0	-100	0	230	101300000	1000	0	0	-1	1500
20711835	48	414	0	-100	0	230	101300000	1000	0	0	-1	1500
20724395	46	409	0	-100	0	230	101300000	1000	0	0	-1	1500
20736955	48	411	0	-100	0	230	101300000	1000	0	0	-1	1500
20749515	48	412	0	-100	0	230	101300000	1000	0	0	-1	1500
20762075	50	410	0	-100	0	230	101300000	1000	0	0	-1	1500
20774635	55	409	0	-100	0	230	101300000	1000	0	0	-1	1500
20787195	53	409	0	-100	0	230	101300000	1000	0	0	-1	1500
20799755	53	411	0	-100	0	230	101300000	1000	0	0	-1	1500
20812315	50	412	0	-100	0	230	101300000	1000	0	0	-1	1500
20824875	53	417	0	-100	0	230	101300000	1000	0	0	-1	1500
20837435	50	409	0	-100	0	230	101300000	1000	0	0	-1	1500
20849995	50	411	0	-100	0	230	101300000	1000	0	0	-1	1500
20862555	48	411	0	-100	0	230	101300000	1000	0	0	-1	1500
20875115	48	408	0	-100	0	230	101300000	1000	0	0	-1	1500
20887675	48	416	0	-100	0	230	101300000	1000	0	0	-1	1500
20900235	50	414	0	-100	0	230	101300000	1000	0	0	-1	1500
20912795	46	413	0	-100	0	230	101300000	1000	0	0	-1	1500
20925355	50	408	0	-100	0	230	101300000	1000	0	0	-1	1500
20937915	55	403	0	-100	0	230	101300000	1000	0	0	-1	1500
20950475	53	410	0	-100	0	230	101300000	1000	0	0	-1	1500
20963035	55	409	0	-100	0	230	101300000	1000	0	0	-1	1500
20975595	50	409	0	-100	0	230	101300000	1000	0	0	-1	1500
20988155	53	408	0	-100	0	230	101300000	1000	0	0	-1	1500
21000715	48	409	0	-100	0	230	101300000	1000	0	0	-1	1500
21013275	48	409	0	-100	0	230	101300000	1000	0	0	-1	1500
21025835	48	409	0	-100	0	230	101300000	1000	0	0	-1	1500
21038395	46	417	0	-100	0	230	101300000	1000	0	0	-1	1500
21050955	46	412	0	-100	0	230	101300000	1000	0	0	-1	1500
21063515	48	415	0	-100	0	230	101300000	1000	0	0	-1	1500
21076075	46	414	0	-100	0	230	101300000	1000	0	0	-1	1500
21088635	46	410	0	-100	0	230	101300000	1000	0	0	-1	1500
21101195	46	414	0	-100	0	230	101300000	1000	0	0	-1	1500
21163995	48	413	0	-100	0	230	101300000	1000	0	0	-1	1500
21176555	48	409	0	-100	0	230	101300000	1000	0	0	-1	1500
21189115	43	412	0	-100	0	230	101300000	1000	0	0	-1	1500
21201675	48	412	0	-100	0	230	101300000	1000	0	0	-1	1500
21214235	48	409	0	-100	0	230	101300000	1000	0	0	-1	1500
21226795	55	405	0	-100	0	230	101300000	1000	0	0	-1	1500
21239355	53	407	0	-100	0	230	101300000	1000	0	0	-1	1500
21251915	48	409	0	-100	0	230	101300000	1000	0	0	-1	1500
21264475	46	413	0	-100	0	230	101300000	1000	0	0	-1	1500
21277035	46	412	0	-100	0	230	101300000	1000	0	0	-1	1500
21289595	48	414	0	-100	0	230	101300000	1000	0	0	-1	1500
21302155	50	410	0	-100	0	230	101300000	1000	0	0	-1	1500
21327275	46	408	0	-100	0	230	101300000	1000	0	0	-1	1500
21339835	55	407	0	-100	0	230	101300000	1000	0	0	-1	1500
21352395	53	409	0	-100	0	230	101300000	1000	0	0	-1	1500
21364955	46	412	0	-100	0	230	101300000	1000	0	0	-1	1500
21377515	53	410	0	-100	0	230	101300000	1000	0	0	-1	1500
21390075	46	418	0	-100	0	230	101300000	1000	0	0	-1	1500
21402635	48	411	0	-100	0	230	101300000	1000	0	0	-1	1500
21415195	53	409	0	-100	0	230	101300000	1000	0	0	-1	1500
21427755	50	408	0	-100	0	230	101300000	1000	0	0	-1	1500
21440315	48	413	0	-100	0	230	101300000	1000	0	0	-1	1500
21452875	48	411	0	-100	0	230	101300000	1000	0	0	-1	1500
21465435	46	418	0	-100	0	230	101300000	1000	0	0	-1	1500
21477995	48	408	0	-100	0	230	101300000	1000	0	0	-1	1500
21490555	55	413	0	-100	0	230	101300000	1000	0	0	-1	1500
21503115	50	412	0	-100	0	230	101300000	1000	0	0	-1	1500
21515675	53	410	0	-100	0	230	101300000	1000	0	0	-1	1500
21528235	53	412	0	-100	0	230	101300000	1000	0	0	-1	1500
21540795	53	412	0	-100	0	230	101300000	1000	0	0	-1	1500
21553355	50	409	0	-100	0	230	101300000	1000	0	0	-1	1500
21565915	53	409	0	-100	0	230	101300000	1000	0	0	-1	1500
21578475	55	412	0	-100	0	230	101300000	1000	0	0	-1	1500
21591035	55	411	0	-100	0	230	101300000	1000	0	0	-1	1500
21603595	53	410	0	-100	0	230	101300000	1000	0	0	-1	1500
21616155	50	410	0	-100	0	230	101300000	1000	0	0	-1	1500
21628715	48	410	0	-100	0	230	101300000	1000	0	0	-1	1500
21641275	48	413	0	-100	0	230	101300000	1000	0	0	-1	1500
21653835	48	413	0	-100	0	230	101300000	1000	0	0	-1	1500
21666395	48	413	0	-100	0	230	101300000	1000	0	0	-1	1500
21678955	48	413	0	-100	0	230	101300000	1000	0	0	-1	1500
21691515	46	412	0	-100	0	230	101300000	1000	0	0	-1	1500
21704075	46	413	0	-100	0	230	101300000	1000	0	0	-1	1500
21716635	48	411	0	-100	0	230	101300000	1000	0	0	-1	1500
21729195	48	412	0	-100	0	230	101300000	1000	0	0	-1	1500
21741755	48	412	0	-100	0	230	101300000	1000	0	0	-1	1500
21754315	46	413	0	-100	0	230	101300000	1000	0	0	-1	1500
21766875	50	413	0	-100	0	230	101300000	1000	0	0	-1	1500
21779435	48	409	0	-100	0	230	101300000	1000	0	0	-1	1500
21791995	50	411	0	-100	0	230	101300000	1000	0	0	-1	1500
21804555	48	413	0	-100	0	230	101300000	1000	0	0	-1	1500
21817115	43	410	0	-100	0	230	101300000	1000	0	0	-1	1500
21829675	48	414	0	-100	0	230	101300000	1000	0	0	-1	1500
21842235	46	411	0	-100	0	230	101300000	1000	0	0	-1	1500
21854795	46	410	0	-100	0	230	101300000	1000	0	0	-1	1500
21867355	46	411	0	-100	0	230	101300000	1000	0	0	-1	1500
21879915	46	414	0	-100	0	230	101300000	1000	0	0	-1	1500
21892475	46	413	0	-100	0	230	101300000	1000	0	0	-1	1500
21905035	48	415	0	-100	0	230	101300000	1000	0	0	-1	1500
21917595	50	410	0	-100	0	230	101300000	1000	0	0	-1	1500
21930155	48	412	0	-100	0	230	101300000	1000	0	0	-1	1500
21942715	46	413	0	-100	0	230	101300000	1000	0	0	-1	1500
21955275	48	421	0	-100	0	230	101300000	1000	0	0	-1	1500
21967835	48	414	0	-100	0	230	101300000	1000	0	0	-1	1500
21980395	48	409	0	-100	0	230	101300000	1000	0	0	-1	1500
21992955	50	410	0	-100	0	230	101300000	1000	0	0	-1	1500
22005515	48	410	0	-100	0	230	101300000	1000	0	0	-1	1500
22018075	50	407	0	-100	0	230	101300000	1000	0	0	-1	1500
22030635	50	410	0	-100	0	230	101300000	1000	0	0	-1	1500
22043195	53	410	0	-100	0	230	101300000	1000	0	0	-1	1500
22055755	50	412	0	-100	0	230	101300000	1000	0	0	-1	1500
22068315	50	412	0	-100	0	230	101300000	1000	0	0	-1	1500
22080875	53	410	0	-100	0	230	101300000	1000	0	0	-1	1500
22093435	53	411	0	-100	0	230	101300000	1000	0	0	-1	1500
22105995	50	414	0	-100	0	230	101300000	1000	0	0	-1	1500
22118555	55	409	0	-100	0	230	101300000	1000	0	0	-1	1500
22131115	53	407	0	-100	0	230	101300000	1000	0	0	-1	1500
22143675	53	408	0	-100	0	230	101300000	1000	0	0	-1	1500
22156235	53	407	0	-100	0	230	101300000	1000	0	0	-1	1500
22168795	55	411	0	-100	0	230	101300000	1000	0	0	-1	1500
22181355	50	410	0	-100	0	230	101300000	1000	0	0	-1	1500
22193915	50	412	0	-100	0	230	101300000	1000	0	0	-1	1500
22206475	50	409	0	-100	0	230	101300000	1000	0	0	-1	1500
22219035	48	410	0	-100	0	230	101300000	1000	0	0	-1	1500
22231595	48	411	0	-100	0	230	101300000	1000	0	0	-1	1500
22244155	48	409	0	-100	0	230	101300000	1000	0	0	-1	1500
22256715	53	413	0	-100	0	230	101300000	1000	0	0	-1	1500
22269275	53	413	0	-100	0	230	101300000	1000	0	0	-1	1500
22281835	48	410	0	-100	0	230	101300000	1000	0	0	-1	1500
22294395	50	412	0	-100	0	230	101300000	1000	0	0	-1	1500
22306955	48	411	0	-100	0	230	101300000	1000	0	0	-1	1500
22319515	48	413	0	-100	0	230	101300000	1000	0	0	-1	1500
22332075	48	414	0	-100	0	230	101300000	1000	0	0	-1	1500
22344635	46	413	0	-100	0	230	101300000	1000	0	0	-1	1500
22357195	46	409	0	-100	0	230	101300000	1000	0	0	-1	1500
22369755	43	412	0	-100	0	230	101300000	1000	0	0	-1	1500
22382315	43	414	0	-100	0	230	101300000	1000	0	0	-1	1500
22394875	48	414	0	-100	0	230	101300000	1000	0	0	-1	1500
22407435	50	414	0	-100	0	230	101300000	1000	0	0	-1	1500
22419995	48	411	0	-100	0	230	101300000	1000	0	0	-1	1500
22432555	48	411	0	-100	0	230	101300000	1000	0	0	-1	1500
22445115	43	414	0	-100	0	230	101300000	1000	0	0	-1	1500
22457675	48	409	0	-100	0	230	101300000	1000	0	0	-1	1500
22470235	48	409	0	-100	0	230	101300000	1000	0	0	-1	1500
22482795	53	412	0	-100	0	230	101300000	1000	0	0	-1	1500
22495355	53	409	0	-100	0	230	101300000	1000	0	0	-1	1500
22507915	53	411	0	-100	0	230	101300000	1000	0	0	-1	1500
22520475	53	408	0	-100	0	230	101300000	1000	0	0	-1	1500
22533035	53	410	0	-100	0	230	101300000	1000	0	0	-1	1500
22545595	50	413	0	-100	0	230	101300000	1000	0	0	-1	1500
22558155	46	415	0	-100	0	230	101300000	1000	0	0	-1	1500
22570715	46	412	0	-100	0	230	101300000	1000	0	0	-1	1500
22583275	48	415	0	-100	0	230	101300000	1000	0	0	-1	1500
22595835	46	414	0	-100	0	230	101300000	1000	0	0	-1	1500
22608395	48	409	0	-100	0	230	101300000	1000	0	0	-1	1500
22620955	50	409	0	-100	0	230	101300000	1000	0	0	-1	1500
22633515	53	412	0	-100	0	230	101300000	1000	0	0	-1	1500
22646075	55	408	0	-100	0	230	101300000	1000	0	0	-1	1500
22658635	53	412	0	-100	0	230	101300000	1000	0	0	-1	1500
22671195	50	409	0	-100	0	230	101300000	1000	0	0	-1	1500
22683755	46	412	0	-100	0	230	101300000	1000	0	0	-1	1500
22696315	46	412	0	-100	0	230	101300000	1000	0	0	-1	1500
22708875	46	412	0	-100	0	230	101300000	1000	0	0	-1	1500
22721435	48	412	0	-100	0	230	101300000	1000	0	0	-1	1500
22733995	46	408	0	-100	0	230	101300000	1000	0	0	-1	1500
22746555	48	415	0	-100	0	230	101300000	1000	0	0	-1	1500
22759115	48	412	0	-100	0	230	101300000	1000	0	0	-1	1500
22771675	48	413	0	-100	0	230	101300000	1000	0	0	-1	1500
22784235	48	412	0	-100	0	230	101300000	1000	0	0	-1	1500
22796795	46	412	0	-100	0	230	101300000	1000	0	0	-1	1500
22809355	46	413	0	-100	0	230	101300000	1000	0	0	-1	1500
22821915	48	413	0	-100	0	230	101300000	1000	0	0	-1	1500
22834475	48	415	0	-100	0	230	101300000	1000	0	0	-1	1500
22847035	48	411	0	-100	0	230	101300000	1000	0	0	-1	1500
22859595	48	409	0	-100	0	230	101300000	1000	0	0	-1	1500
22872155	48	410	0	-100	0	230	101300000	1000	0	0	-1	1500
22884715	48	409	0	-100	0	230	101300000	1000	0	0	-1	1500
22897275	46	414	0	-100	0	230	101300000	1000	0	0	-1	1500
22909835	50	408	0	-100	0	230	101300000	1000	0	0	-1	1500
22922395	48	413	0	-100	0	230	101300000	1000	0	0	-1	1500
22934955	48	415	0	-100	0	230	101300000	1000	0	0	-1	1500
22947515	46	412	0	-100	0	230	101300000	1000	0	0	-1	1500
22960075	46	410	0	-100	0	230	101300000	1000	0	0	-1	1500
22972635	48	412	0	-100	0	230	101300000	1000	0	0	-1	1500
22985195	48	412	0	-100	0	230	101300000	1000	0	0	-1	1500
22997755	46	413	0	-100	0	230	101300000	1000	0	0	-1	1500
23010315	48	415	0	-100	0	230	101300000	1000	0	0	-1	1500
23022875	43	413	0	-100	0	230	101300000	1000	0	0	-1	1500
23035435	50	407	0	-100	0	230	101300000	1000	0	0	-1	1500
23047995	55	420	0	-100	0	230	101300000	1000	0	0	-1	1500
23060555	53	409	0	-100	0	230	101300000	1000	0	0	-1	1500
23073115	50	412	0	-100	0	230	101300000	1000	0	0	-1	1500
23085675	53	407	0	-100	0	230	101300000	1000	0	0	-1	1500
23098235	48	408	0	-100	0	230	101300000	1000	0	0	-1	1500
23110795	48	410	0	-100	0	230	101300000	1000	0	0	-1	1500
23123355	46	413	0	-100	0	230	101300000	1000	0	0	-1	1500
23135915	46	413	0	-100	0	230	101300000	1000	0	0	-1	1500
23148475	46	414	0	-100	0	230	101300000	1000	0	0	-1	1500
23161035	48	412	0	-100	0	230	101300000	1000	0	0	-1	1500
23173595	48	413	0	-100	0	230	101300000	1000	0	0	-1	1500
23186155	48	410	0	-100	0	230	101300000	1000	0	0	-1	1500
23198715	48	414	0	-100	0	230	101300000	1000	0	0	-1	1500
23211275	48	409	0	-100	0	230	101300000	1000	0	0	-1	1500
23223835	48	413	0	-100	0	230	101300000	1000	0	0	-1	1500
23236395	46	409	0	-100	0	230	101300000	1000	0	0	-1	1500
23248955	48	412	0	-100	0	230	101300000	1000	0	0	-1	1500
23261515	53	408	0	-100	0	230	101300000	1000	0	0	-1	1500
23274075	55	412	0	-100	0	230	101300000	1000	0	0	-1	1500
23286635	53	409	0	-100	0	230	101300000	1000	0	0	-1	1500
23299195	53	412	0	-100	0	230	101300000	1000	0	0	-1	1500
23311755	53	408	0	-100	0	230	101300000	1000	0	0	-1	1500
23324315	53	408	0	-100	0	230	101300000	1000	0	0	-1	1500
23336875	53	414	0	-100	0	230	101300000	1000	0	0	-1	1500
23349435	48	412	0	-100	0	230	101300000	1000	0	0	-1	1500
23361995	48	408	0	-100	0	230	101300000	1000	0	0	-1	1500
23374555	46	413	0	-100	0	230	101300000	1000	0	0	-1	1500
23387115	50	410	0	-100	0	230	101300000	1000	0	0	-1	1500
23399675	48	414	0	-100	0	230	101300000	1000	0	0	-1	1500
23412235	46	415	0	-100	0	230	101300000	1000	0	0	-1	1500
23424795	48	415	0	-100	0	230	101300000	1000	0	0	-1	1500
23437355	43	416	0	-100	0	230	101300000	1000	0	0	-1	1500
23449915	48	412	0	-100	0	230	101300000	1000	0	0	-1	1500
23462475	48	409	0	-100	0	230	101300000	1000	0	0	-1	1500
23475035	48	414	0	-100	0	230	101300000	1000	0	0	-1	1500
23487595	50	409	0	-100	0	230	101300000	1000	0	0	-1	1500
23500155	53	408	0	-100	0	230	101300000	1000	0	0	-1	1500
23512715	55	408	0	-100	0	230	101300000	1000	0	0	-1	1500
23525275	53	410	0	-100	0	230	101300000	1000	0	0	-1	1500
23537835	48	410	0	-100	0	230	101300000	1000	0	0	-1	1500
23550395	46	413	0	-100	0	230	101300000	1000	0	0	-1	1500
23562955	46	414	0	-100	0	230	101300000	1000	0	0	-1	1500
23575515	46	413	0	-100	0	230	101300000	1000	0	0	-1	1500
23588075	48	408	0	-100	0	230	101300000	1000	0	0	-1	1500
23600635	46	412	0	-100	0	230	101300000	1000	0	0	-1	1500
23613195	48	410	0	-100	0	230	101300000	1000	0	0	-1	1500
23625755	48	410	0	-100	0	230	101300000	1000	0	0	-1	1500
23638315	46	413	0	-100	0	230	101300000	1000	0	0	-1	1500
23650875	48	413	0	-100	0	230	101300000	1000	0	0	-1	1500
23663435	46	413	0	-100	0	230	101300000	1000	0	0	-1	1500
23675995	43	413	0	-100	0	230	101300000	1000	0	0	-1	1500
23688555	48	412	0	-100	0	230	101300000	1000	0	0	-1	1500
23701115	43	411	0	-100	0	230	101300000	1000	0	0	-1	1500
23713675	46	413	0	-100	0	230	101300000	1000	0	0	-1	1500
23726235	46	411	0	-100	0	230	101300000	1000	0	0	-1	1500
23738795	48	409	0	-100	0	230	101300000	1000	0	0	-1	1500
23751355	48	412	0	-100	0	230	101300000	1000	0	0	-1	1500
23763915	48	413	0	-100	0	230	101300000	1000	0	0	-1	1500
23776475	46	409	0	-100	0	230	101300000	1000	0	0	-1	1500
23789035	48	409	0	-100	0	230	101300000	1000	0	0	-1	1500
23801595	50	409	0	-100	0	230	101300000	1000	0	0	-1	1500
23814155	53	408	0	-100	0	230	101300000	1000	0	0	-1	1500
23826715	48	410	0	-100	0	230	101300000	1000	0	0	-1	1500
23839275	50	411	0	-100	0	230	101300000	1000	0	0	-1	1500
23851835	53	412	0	-100	0	230	101300000	1000	0	0	-1	1500
23864395	50	411	0	-100	0	230	101300000	1000	0	0	-1	1500
23876955	53	411	0	-100	0	230	101300000	1000	0	0	-1	1500
23889515	55	410	0	-100	0	230	101300000	1000	0	0	-1	1500
23902075	48	410	0	-100	0	230	101300000	1000	0	0	-1	1500
23914635	46	415	0	-100	0	230	101300000	1000	0	0	-1	1500
23927195	46	414	0	-100	0	230	101300000	1000	0	0	-1	1500
23939755	48	409	0	-100	0	230	101300000	1000	0	0	-1	1500
23952315	43	409	0	-100	0	230	101300000	1000	0	0	-1	1500
23964875	48	415	0	-100	0	230	101300000	1000	0	0	-1	1500
23977435	46	414	0	-100	0	230	101300000	1000	0	0	-1	1500
23989995	46	410	0	-100	0	230	101300000	1000	0	0	-1	1500
24002555	48	410	0	-100	0	230	101300000	1000	0	0	-1	1500
24015115	53	409	0	-100	0	230	101300000	1000	0	0	-1	1500
24027675	53	412	0	-100	0	230	101300000	1000	0	0	-1	1500
24040235	50	410	0	-100	0	230	101300000	1000	0	0	-1	1500
24052795	46	412	0	-100	0	230	101300000	1000	0	0	-1	1500
24065355	50	410	0	-100	0	230	101300000	1000	0	0	-1	1500
24077915	46	413	0	-100	0	230	101300000	1000	0	0	-1	1500
24090475	50	413	0	-100	0	230	101300000	1000	0	0	-1	1500
24103035	48	414	0	-100	0	230	101300000	1000	0	0	-1	1500
24115595	48	414	0	-100	0	230	101300000	1000	0	0	-1	1500
24128155	48	409	0	-100	0	230	101300000	1000	0	0	-1	1500
24140715	46	417	0	-100	0	230	101300000	1000	0	0	-1	1500
24153275	48	412	0	-100	0	230	101300000	1000	0	0	-1	1500
24165835	48	411	0	-100	0	230	101300000	1000	0	0	-1	1500
24178395	53	411	0	-100	0	230	101300000	1000	0	0	-1	1500
24190955	53	408	0	-100	0	230	101300000	1000	0	0	-1	1500
24203515	55	409	0	-100	0	230	101300000	1000	0	0	-1	1500
24216075	55	412	0	-100	0	230	101300000	1000	0	0	-1	1500
24228635	50	411	0	-100	0	230	101300000	1000	0	0	-1	1500
24241195	48	412	0	-100	0	230	101300000	1000	0	0	-1	1500
24253755	46	414	0	-100	0	230	101300000	1000	0	0	-1	1500
24266315	48	414	0	-100	0	230	101300000	1000	0	0	-1	1500
24278875	48	412	0	-100	0	230	101300000	1000	0	0	-1	1500
24291435	48	412	0	-100	0	230	101300000	1000	0	0	-1	1500
24303995	48	409	0	-100	0	230	101300000	1000	0	0	-1	1500
24316555	48	411	0	-100	0	230	101300000	1000	0	0	-1	1500
24329115	46	412	0	-100	0	230	101300000	1000	0	0	-1	1500
24341675	48	410	0	-100	0	230	101300000	1000	0	0	-1	1500
24354235	48	412	0	-100	0	230	101300000	1000	0	0	-1	1500
24366795	46	417	0	-100	0	230	101300000	1000	0	0	-1	1500
24379355	46	412	0	-100	0	230	101300000	1000	0	0	-1	1500
24391915	50	411	0	-100	0	230	101300000	1000	0	0	-1	1500
24404475	48	412	0	-100	0	230	101300000	1000	0	0	-1	1500
24417035	53	413	0	-100	0	230	101300000	1000	0	0	-1	1500
24429595	53	410	0	-100	0	230	101300000	1000	0	0	-1	1500
24442155	53	409	0	-100	0	230	101300000	1000	0	0	-1	1500
24454715	50	412	0	-100	0	230	101300000	1000	0	0	-1	1500
24467275	48	410	0	-100	0	230	101300000	1000	0	0	-1	1500
24479835	50	413	0	-100	0	230	101300000	1000	0	0	-1	1500
24492395	46	414	0	-100	0	230	101300000	1000	0	0	-1	1500
24504955	50	410	0	-100	0	230	101300000	1000	0	0	-1	1500
24517515	48	416	0	-100	0	230	101300000	1000	0	0	-1	1500
24530075	48	416	0	-100	0	230	101300000	1000	0	0	-1	1500
24542635	46	414	0	-100	0	230	101300000	1000	0	0	-1	1500
24555195	46	412	0	-100	0	230	101300000	1000	0	0	-1	1500
24567755	43	413	0	-100	0	230	101300000	1000	0	0	-1	1500
24580315	43	409	0	-100	0	230	101300000	1000	0	0	-1	1500
24592875	50	411	0	-100	0	230	101300000	1000	0	0	-1	1500
24605435	55	408	0	-100	0	230	101300000	1000	0	0	-1	1500
24617995	53	410	0	-100	0	230	101300000	1000	0	0	-1	1500
24630555	50	412	0	-100	0	230	101300000	1000	0	0	-1	1500
24643115	46	412	0	-100	0	230	101300000	1000	0	0	-1	1500
24655675	48	412	0	-100	0	230	101300000	1000	0	0	-1	1500
24668235	46	410	0	-100	0	230	101300000	1000	0	0	-1	1500
24680795	55	407	0	-100	0	230	101300000	1000	0	0	-1	1500
24693355	50	408	0	-100	0	230	101300000	1000	0	0	-1	1500
24705915	48	410	0	-100	0	230	101300000	1000	0	0	-1	1500
24718475	50	408	0	-100	0	230	101300000	1000	0	0	-1	1500
24731035	48	416	0	-100	0	230	101300000	1000	0	0	-1	1500
24743595	46	412	0	-100	0	230	101300000	1000	0	0	-1	1500
24756155	55	410	0	-100	0	230	101300000	1000	0	0	-1	1500
24768715	53	410	0	-100	0	230	101300000	1000	0	0	-1	1500
24781275	46	412	0	-100	0	230	101300000	1000	0	0	-1	1500
24793835	48	414	0	-100	0	230	101300000	1000	0	0	-1	1500
24806395	48	413	0	-100	0	230	101300000	1000	0	0	-1	1500
24818955	53	412	0	-100	0	230	101300000	1000	0	0	-1	1500
24831515	55	413	0	-100	0	230	101300000	1000	0	0	-1	1500
24844075	53	409	0	-100	0	230	101300000	1000	0	0	-1	1500
24856635	48	413	0	-100	0	230	101300000	1000	0	0	-1	1500
24869195	50	413	0	-100	0	230	101300000	1000	0	0	-1	1500
24881755	46	414	0	-100	0	230	101300000	1000	0	0	-1	1500
24894315	46	416	0	-100	0	230	101300000	1000	0	0	-1	1500
24906875	46	412	0	-100	0	230	101300000	1000	0	0	-1	1500
24919435	48	413	0	-100	0	230	101300000	1000	0	0	-1	1500
24931995	46	409	0	-100	0	230	101300000	1000	0	0	-1	1500
24944555	50	409	0	-100	0	230	101300000	1000	0	0	-1	1500
24957115	48	409	0	-100	0	230	101300000	1000	0	0	-1	1500
24969675	48	408	0	-100	0	230	101300000	1000	0	0	-1	1500
24982235	46	410	0	-100	0	230	101300000	1000	0	0	-1	1500
24994795	46	416	0	-100	0	230	101300000	1000	0	0	-1	1500
25007355	48	412	0	-100	0	230	101300000	1000	0	0	-1	1500
25019915	48	415	0	-100	0	230	101300000	1000	0	0	-1	1500
25032475	48	417	0	-100	0	230	101300000	1000	0	0	-1	1500
25045035	46	414	0	-100	0	230	101300000	1000	0	0	-1	1500
25057595	50	412	0	-100	0	230	101300000	1000	0	0	-1	1500
25070155	50	413	0	-100	0	230	101300000	1000	0	0	-1	1500
25082715	48	413	0	-100	0	230	101300000	1000	0	0	-1	1500
25095275	48	414	0	-100	0	230	101300000	1000	0	0	-1	1500
25107835	46	414	0	-100	0	230	101300000	1000	0	0	-1	1500
25120395	48	412	0	-100	0	230	101300000	1000	0	0	-1	1500
25132955	48	417	0	-100	0	230	101300000	1000	0	0	-1	1500
25145515	46	412	0	-100	0	230	101300000	1000	0	0	-1	1500
25158075	50	414	0	-100	0	230	101300000	1000	0	0	-1	1500
25170635	48	413	0	-100	0	230	101300000	1000	0	0	-1	1500
25183195	48	415	0	-100	0	230	101300000	1000	0	0	-1	1500
25195755	46	412	0	-100	0	230	101300000	1000	0	0	-1	1500
25208315	46	414	0	-100	0	230	101300000	1000	0	0	-1	1500
25220875	46	413	0	-100	0	230	101300000	1000	0	0	-1	1500
25233435	48	413	0	-100	0	230	101300000	1000	0	0	-1	1500
25245995	48	411	0	-100	0	230	101300000	1000	0	0	-1	1500
25258555	46	413	0	-100	0	230	101300000	1000	0	0	-1	1500
25271115	48	414	0	-100	0	230	101300000	1000	0	0	-1	1500
25283675	46	413	0	-100	0	230	101300000	1000	0	0	-1	1500
25296235	48	413	0	-100	0	230	101300000	1000	0	0	-1	1500
25308795	43	409	0	-100	0	230	101300000	1000	0	0	-1	1500
25321355	43	413	0	-100	0	230	101300000	1000	0	0	-1	1500
25333915	46	415	0	-100	0	230	101300000	1000	0	0	-1	1500
25346475	46	414	0	-100	0	230	101300000	1000	0	0	-1	1500
25359035	46	415	0	-100	0	230	101300000	1000	0	0	-1	1500
25371595	48	411	0	-100	0	230	101300000	1000	0	0	-1	1500
25384155	50	409	0	-100	0	230	101300000	1000	0	0	-1	1500
25396715	46	412	0	-100	0	230	101300000	1000	0	0	-1	1500
25409275	46	413	0	-100	0	230	101300000	1000	0	0	-1	1500
25421835	48	408	0	-100	0	230	101300000	1000	0	0	-1	1500
25434395	50	414	0	-100	0	230	101300000	1000	0	0	-1	1500
25446955	48	410	0	-100	0	230	101300000	1000	0	0	-1	1500
25459515	46	411	0	-100	0	230	101300000	1000	0	0	-1	1500
25472075	48	413	0	-100	0	230	101300000	1000	0	0	-1	1500
25484635	48	413	0	-100	0	230	101300000	1000	0	0	-1	1500
25497195	46	414	0	-100	0	230	101300000	1000	0	0	-1	1500
25509755	46	411	0	-100	0	230	101300000	1000	0	0	-1	1500
25522315	46	416	0	-100	0	230	101300000	1000	0	0	-1	1500
25534875	48	409	0	-100	0	230	101300000	1000	0	0	-1	1500
25547435	50	417	0	-100	0	230	101300000	1000	0	0	-1	1500
25559995	46	412	0	-100	0	230	101300000	1000	0	0	-1	1500
25572555	43	418	0	-100	0	230	101300000	1000	0	0	-1	1500
25585115	48	409	0	-100	0	230	101300000	1000	0	0	-1	1500
25597675	55	409	0	-100	0	230	101300000	1000	0	0	-1	1500
25610235	53	409	0	-100	0	230	101300000	1000	0	0	-1	1500
25622795	50	410	0	-100	0	230	101300000	1000	0	0	-1	1500
25635355	46	421	0	-100	0	230	101300000	1000	0	0	-1	1500
25647915	46	412	0	-100	0	230	101300000	1000	0	0	-1	1500
25660475	46	415	0	-100	0	230	101300000	1000	0	0	-1	1500
25673035	46	410	0	-100	0	230	101300000	1000	0	0	-1	1500
25685595	53	409	0	-100	0	230	101300000	1000	0	0	-1	1500
25698155	46	414	0	-100	0	230	101300000	1000	0	0	-1	1500
25710715	48	411	0	-100	0	230	101300000	1000	0	0	-1	1500
25723275	43	414	0	-100	0	230	101300000	1000	0	0	-1	1500
25735835	46	409	0	-100	0	230	101300000	1000	0	0	-1	1500
25748395	48	408	0	-100	0	230	101300000	1000	0	0	-1	1500
25760955	53	406	0	-100	0	230	101300000	1000	0	0	-1	1500
25773515	53	411	0	-100	0	230	101300000	1000	0	0	-1	1500
25786075	53	410	0	-100	0	230	101300000	1000	0	0	-1	1500
25798635	48	415	0	-100	0	230	101300000	1000	0	0	-1	1500
25811195	50	416	0	-100	0	230	101300000	1000	0	0	-1	1500
25823755	46	414	0	-100	0	230	101300000	1000	0	0	-1	1500
25836315	46	410	0	-100	0	230	101300000	1000	0	0	-1	1500
25848875	55	409	0	-100	0	230	101300000	1000	0	0	-1	1500
25861435	53	411	0	-100	0	230	101300000	1000	0	0	-1	1500
25873995	53	413	0	-100	0	230	101300000	1000	0	0	-1	1500
25886555	48	409	0	-100	0	230	101300000	1000	0	0	-1	1500
25899115	46	415	0	-100	0	230	101300000	1000	0	0	-1	1500
25911675	48	411	0	-100	0	230	101300000	1000	0	0	-1	1500
25924235	46	414	0	-100	0	230	101300000	1000	0	0	-1	1500
25936795	46	413	0	-100	0	230	101300000	1000	0	0	-1	1500
25949355	48	409	0	-100	0	230	101300000	1000	0	0	-1	1500
25961915	53	413	0	-100	0	230	101300000	1000	0	0	-1	1500
25974475	55	406	0	-100	0	230	101300000	1000	0	0	-1	1500
25987035	53	413	0	-100	0	230	101300000	1000	0	0	-1	1500
25999595	50	408	0	-100	0	230	101300000	1000	0	0	-1	1500
26012155	48	408	0	-100	0	230	101300000	1000	0	0	-1	1500
26024715	48	414	0	-100	0	230	101300000	1000	0	0	-1	1500
26037275	46	411	0	-100	0	230	101300000	1000	0	0	-1	1500
26049835	48	410	0	-100	0	230	101300000	1000	0	0	-1	1500
26062395	48	412	0	-100	0	230	101300000	1000	0	0	-1	1500
26074955	46	413	0	-100	0	230	101300000	1000	0	0	-1	1500
26087515	48	414	0	-100	0	230	101300000	1000	0	0	-1	1500
26100075	48	408	0	-100	0	230	101300000	1000	0	0	-1	1500
26112635	48	412	0	-100	0	230	101300000	1000	0	0	-1	1500
26125195	48	413	0	-100	0	230	101300000	1000	0	0	-1	1500
26137755	48	412	0	-100	0	230	101300000	1000	0	0	-1	1500
26150315	46	413	0	-100	0	230	101300000	1000	0	0	-1	1500
26162875	43	412	0	-100	0	230	101300000	1000	0	0	-1	1500
26175435	46	413	0	-100	0	230	101300000	1000	0	0	-1	1500
26187995	46	411	0	-100	0	230	101300000	1000	0	0	-1	1500
26200555	50	413	0	-100	0	230	101300000	1000	0	0	-1	1500
26213115	46	413	0	-100	0	230	101300000	1000	0	0	-1	1500
26225675	48	411	0	-100	0	230	101300000	1000	0	0	-1	1500
26238235	48	410	0	-100	0	230	101300000	1000	0	0	-1	1500
26250795	48	413	0	-100	0	230	101300000	1000	0	0	-1	1500
26263355	48	412	0	-100	0	230	101300000	1000	0	0	-1	1500
26275915	46	412	0	-100	0	230	101300000	1000	0	0	-1	1500
26288475	46	414	0	-100	0	230	101300000	1000	0	0	-1	1500
26301035	46	411	0	-100	0	230	101300000	1000	0	0	-1	1500
26313595	46	414	0	-100	0	230	101300000	1000	0	0	-1	1500
26326155	46	411	0	-100	0	230	101300000	1000	0	0	-1	1500
26338715	48	414	0	-100	0	230	101300000	1000	0	0	-1	1500
26351275	48	408	0	-100	0	230	101300000	1000	0	0	-1	1500
26363835	46	409	0	-100	0	230	101300000	1000	0	0	-1	1500
26376395	46	412	0	-100	0	230	101300000	1000	0	0	-1	1500
26388955	50	410	0	-100	0	230	101300000	1000	0	0	-1	1500
26401515	55	413	0	-100	0	230	101300000	1000	0	0	-1	1500
26414075	50	410	0	-100	0	230	101300000	1000	0	0	-1	1500
26426635	46	411	0	-100	0	230	101300000	1000	0	0	-1	1500
26439195	48	409	0	-100	0	230	101300000	1000	0	0	-1	1500
26451755	48	409	0	-100	0	230	101300000	1000	0	0	-1	1500
26464315	46	412	0	-100	0	230	101300000	1000	0	0	-1	1500
26476875	46	412	0	-100	0	230	101300000	1000	0	0	-1	1500
26489435	50	412	0	-100	0	230	101300000	1000	0	0	-1	1500
26501995	48	409	0	-100	0	230	101300000	1000	0	0	-1	1500
26514555	53	412	0	-100	0	230	101300000	1000	0	0	-1	1500
26527115	53	413	0	-100	0	230	101300000	1000	0	0	-1	1500
26539675	55	409	0	-100	0	230	101300000	1000	0	0	-1	1500
26552235	53	409	0	-100	0	230	101300000	1000	0	0	-1	1500
26564795	55	408	0	-100	0	230	101300000	1000	0	0	-1	1500
26577355	55	407	0	-100	0	230	101300000	1000	0	0	-1	1500
26589915	53	406	0	-100	0	230	101300000	1000	0	0	-1	1500
26602475	58	410	0	-100	0	230	101300000	1000	0	0	-1	1500
26615035	55	411	0	-100	0	230	101300000	1000	0	0	-1	1500
26627595	48	410	0	-100	0	230	101300000	1000	0	0	-1	1500
26640155	46	414	0	-100	0	230	101300000	1000	0	0	-1	1500
26652715	48	414	0	-100	0	230	101300000	1000	0	0	-1	1500
26665275	46	413	0	-100	0	230	101300000	1000	0	0	-1	1500
26677835	53	412	0	-100	0	230	101300000	1000	0	0	-1	1500
26690395	55	413	0	-100	0	230	101300000	1000	0	0	-1	1500
26702955	50	409	0	-100	0	230	101300000	1000	0	0	-1	1500
26715515	48	412	0	-100	0	230	101300000	1000	0	0	-1	1500
26728075	46	412	0	-100	0	230	101300000	1000	0	0	-1	1500
26740635	46	414	0	-100	0	230	101300000	1000	0	0	-1	1500
26753195	48	416	0	-100	0	230	101300000	1000	0	0	-1	1500
26765755	50	410	0	-100	0	230	101300000	1000	0	0	-1	1500
26778315	46	410	0	-100	0	230	101300000	1000	0	0	-1	1500
26790875	53	408	0	-100	0	230	101300000	1000	0	0	-1	1500
26803435	53	410	0	-100	0	230	101300000	1000	0	0	-1	1500
26815995	55	410	0	-100	0	230	101300000	1000	0	0	-1	1500
26828555	46	410	0	-100	0	230	101300000	1000	0	0	-1	1500
26841115	48	411	0	-100	0	230	101300000	1000	0	0	-1	1500
26853675	48	412	0	-100	0	230	101300000	1000	0	0	-1	1500
26866235	43	412	0	-100	0	230	101300000	1000	0	0	-1	1500
26878795	46	414	0	-100	0	230	101300000	1000	0	0	-1	1500
26891355	48	415	0	-100	0	230	101300000	1000	0	0	-1	1500
26903915	50	412	0	-100	0	230	101300000	1000	0	0	-1	1500
26916475	53	409	0	-100	0	230	101300000	1000	0	0	-1	1500
26929035	53	410	0	-100	0	230	101300000	1000	0	0	-1	1500
26941595	53	411	0	-100	0	230	101300000	1000	0	0	-1	1500
26954155	48	412	0	-100	0	230	101300000	1000	0	0	-1	1500
26966715	43	414	0	-100	0	230	101300000	1000	0	0	-1	1500
26979275	48	413	0	-100	0	230	101300000	1000	0	0	-1	1500
26991835	46	413	0	-100	0	230	101300000	1000	0	0	-1	1500
27004395	48	413	0	-100	0	230	101300000	1000	0	0	-1	1500
27016955	50	411	0	-100	0	230	101300000	1000	0	0	-1	1500
27029515	55	411	0	-100	0	230	101300000	1000	0	0	-1	1500
27042075	50	407	0	-100	0	230	101300000	1000	0	0	-1	1500
