timestamp	voltage	current	windSpeed	pitchAngle	rpm	temperature	ambientPressure	humidity	accelerationX	accelerationY	accelerationZ	currentSink
7039070	4015	0	0	-100	0	230	101300000	1000	0	0	-1	0
7046523	4014	0	0	-100	0	230	101300000	1000	0	0	-1	0
7059083	4009	0	0	-100	0	230	101300000	1000	0	0	-1	0
7071643	4005	0	0	-100	0	230	101300000	1000	0	0	-1	0
7084203	4005	0	0	-100	0	230	101300000	1000	0	0	-1	0
7096763	4004	4	0	-100	0	230	101300000	1000	0	0	-1	0
7109323	4004	3	0	-100	0	230	101300000	1000	0	0	-1	0
7121883	4014	0	0	-100	0	230	101300000	1000	0	0	-1	0
7134443	4011	0	0	-100	0	230	101300000	1000	0	0	-1	0
7147004	4003	1	0	-100	0	230	101300000	1000	0	0	-1	0
7159563	4012	0	0	-100	0	230	101300000	1000	0	0	-1	0
7172123	4009	0	0	-100	0	230	101300000	1000	0	0	-1	0
7184683	4010	0	0	-100	0	230	101300000	1000	0	0	-1	0
7197243	4006	0	0	-100	0	230	101300000	1000	0	0	-1	0
7209803	4004	0	0	-100	0	230	101300000	1000	0	0	-1	0
7222363	4005	6	0	-100	0	230	101300000	1000	0	0	-1	0
7234923	4003	4	0	-100	0	230	101300000	1000	0	0	-1	0
7247483	4004	2	0	-100	0	230	101300000	1000	0	0	-1	0
7260043	4009	0	0	-100	0	230	101300000	1000	0	0	-1	0
7272603	4008	0	0	-100	0	230	101300000	1000	0	0	-1	0
7285163	4009	0	0	-100	0	230	101300000	1000	0	0	-1	0
7297723	4007	0	0	-100	0	230	101300000	1000	0	0	-1	0
7310283	4006	0	0	-100	0	230	101300000	1000	0	0	-1	0
7322843	4006	4	0	-100	0	230	101300000	1000	0	0	-1	0
7335403	4006	4	0	-100	0	230	101300000	1000	0	0	-1	0
7347963	4004	1	0	-100	0	230	101300000	1000	0	0	-1	0
7716235	58	513	0	-100	0	230	101300000	1000	0	0	-1	1500
7728795	58	514	0	-100	0	230	101300000	1000	0	0	-1	1500
7741355	58	515	0	-100	0	230	101300000	1000	0	0	-1	1500
7753915	58	514	0	-100	0	230	101300000	1000	0	0	-1	1500
7766475	60	512	0	-100	0	230	101300000	1000	0	0	-1	1500
7779035	65	514	0	-100	0	230	101300000	1000	0	0	-1	1500
7791595	65	511	0	-100	0	230	101300000	1000	0	0	-1	1500
7804155	63	512	0	-100	0	230	101300000	1000	0	0	-1	1500
7816715	58	514	0	-100	0	230	101300000	1000	0	0	-1	1500
7829275	58	512	0	-100	0	230	101300000	1000	0	0	-1	1500
7841835	58	515	0	-100	0	230	101300000	1000	0	0	-1	1500
7854395	58	513	0	-100	0	230	101300000	1000	0	0	-1	1500
7866955	65	513	0	-100	0	230	101300000	1000	0	0	-1	1500
7879515	60	511	0	-100	0	230	101300000	1000	0	0	-1	1500
7892075	60	514	0	-100	0	230	101300000	1000	0	0	-1	1500
7904635	58	514	0	-100	0	230	101300000	1000	0	0	-1	1500
7917195	60	514	0	-100	0	230	101300000	1000	0	0	-1	1500
7929755	63	514	0	-100	0	230	101300000	1000	0	0	-1	1500
7942315	60	511	0	-100	0	230	101300000	1000	0	0	-1	1500
7954875	60	513	0	-100	0	230	101300000	1000	0	0	-1	1500
7967435	60	512	0	-100	0	230	101300000	1000	0	0	-1	1500
7979995	67	514	0	-100	0	230	101300000	1000	0	0	-1	1500
7992555	65	514	0	-100	0	230	101300000	1000	0	0	-1	1500
8005115	63	515	0	-100	0	230	101300000	1000	0	0	-1	1500
8017675	58	512	0	-100	0	230	101300000	1000	0	0	-1	1500
8030235	58	513	0	-100	0	230	101300000	1000	0	0	-1	1500
8042795	65	516	0	-100	0	230	101300000	1000	0	0	-1	1500
8055355	63	520	0	-100	0	230	101300000	1000	0	0	-1	1500
8067915	60	514	0	-100	0	230	101300000	1000	0	0	-1	1500
8080475	63	512	0	-100	0	230	101300000	1000	0	0	-1	1500
8093035	63	513	0	-100	0	230	101300000	1000	0	0	-1	1500
8105595	58	511	0	-100	0	230	101300000	1000	0	0	-1	1500
8118155	60	514	0	-100	0	230	101300000	1000	0	0	-1	1500
8130715	60	515	0	-100	0	230	101300000	1000	0	0	-1	1500
8143275	58	516	0	-100	0	230	101300000	1000	0	0	-1	1500
8155835	63	510	0	-100	0	230	101300000	1000	0	0	-1	1500
8168395	60	517	0	-100	0	230	101300000	1000	0	0	-1	1500
8180955	60	515	0	-100	0	230	101300000	1000	0	0	-1	1500
8193515	58	513	0	-100	0	230	101300000	1000	0	0	-1	1500
8206075	58	515	0	-100	0	230	101300000	1000	0	0	-1	1500
8218635	58	512	0	-100	0	230	101300000	1000	0	0	-1	1500
8231195	58	514	0	-100	0	230	101300000	1000	0	0	-1	1500
8243755	60	518	0	-100	0	230	101300000	1000	0	0	-1	1500
8256315	58	513	0	-100	0	230	101300000	1000	0	0	-1	1500
8268875	58	513	0	-100	0	230	101300000	1000	0	0	-1	1500
8281435	58	515	0	-100	0	230	101300000	1000	0	0	-1	1500
8293995	58	513	0	-100	0	230	101300000	1000	0	0	-1	1500
8306555	55	514	0	-100	0	230	101300000	1000	0	0	-1	1500
8319115	58	518	0	-100	0	230	101300000	1000	0	0	-1	1500
8331675	58	513	0	-100	0	230	101300000	1000	0	0	-1	1500
8344235	60	511	0	-100	0	230	101300000	1000	0	0	-1	1500
8356795	60	512	0	-100	0	230	101300000	1000	0	0	-1	1500
8369355	55	513	0	-100	0	230	101300000	1000	0	0	-1	1500
8381915	55	513	0	-100	0	230	101300000	1000	0	0	-1	1500
8394475	58	510	0	-100	0	230	101300000	1000	0	0	-1	1500
8407035	60	512	0	-100	0	230	101300000	1000	0	0	-1	1500
8419595	60	513	0	-100	0	230	101300000	1000	0	0	-1	1500
8432155	55	517	0	-100	0	230	101300000	1000	0	0	-1	1500
8444715	58	516	0	-100	0	230	101300000	1000	0	0	-1	1500
8457275	58	513	0	-100	0	230	101300000	1000	0	0	-1	1500
8469835	58	513	0	-100	0	230	101300000	1000	0	0	-1	1500
8482395	58	512	0	-100	0	230	101300000	1000	0	0	-1	1500
8494955	63	511	0	-100	0	230	101300000	1000	0	0	-1	1500
8507515	65	511	0	-100	0	230	101300000	1000	0	0	-1	1500
8520075	63	511	0	-100	0	230	101300000	1000	0	0	-1	1500
8532635	58	512	0	-100	0	230	101300000	1000	0	0	-1	1500
8545195	58	513	0	-100	0	230	101300000	1000	0	0	-1	1500
8557755	58	514	0	-100	0	230	101300000	1000	0	0	-1	1500
8570315	58	515	0	-100	0	230	101300000	1000	0	0	-1	1500
8582875	58	515	0	-100	0	230	101300000	1000	0	0	-1	1500
8595435	60	510	0	-100	0	230	101300000	1000	0	0	-1	1500
8607995	65	517	0	-100	0	230	101300000	1000	0	0	-1	1500
8620555	63	512	0	-100	0	230	101300000	1000	0	0	-1	1500
8633115	67	517	0	-100	0	230	101300000	1000	0	0	-1	1500
8645675	65	511	0	-100	0	230	101300000	1000	0	0	-1	1500
8658235	65	510	0	-100	0	230	101300000	1000	0	0	-1	1500
8670795	67	515	0	-100	0	230	101300000	1000	0	0	-1	1500
8683355	67	515	0	-100	0	230	101300000	1000	0	0	-1	1500
8695915	67	523	0	-100	0	230	101300000	1000	0	0	-1	1500
8708475	67	514	0	-100	0	230	101300000	1000	0	0	-1	1500
8721035	65	512	0	-100	0	230	101300000	1000	0	0	-1	1500
8733595	63	515	0	-100	0	230	101300000	1000	0	0	-1	1500
8746155	65	515	0	-100	0	230	101300000	1000	0	0	-1	1500
8758715	65	508	0	-100	0	230	101300000	1000	0	0	-1	1500
8771275	65	513	0	-100	0	230	101300000	1000	0	0	-1	1500
8783835	63	510	0	-100	0	230	101300000	1000	0	0	-1	1500
8796395	63	510	0	-100	0	230	101300000	1000	0	0	-1	1500
8808955	60	512	0	-100	0	230	101300000	1000	0	0	-1	1500
8821515	60	514	0	-100	0	230	101300000	1000	0	0	-1	1500
8834075	58	516	0	-100	0	230	101300000	1000	0	0	-1	1500
8846635	60	511	0	-100	0	230	101300000	1000	0	0	-1	1500
8859195	60	512	0	-100	0	230	101300000	1000	0	0	-1	1500
8871755	58	512	0	-100	0	230	101300000	1000	0	0	-1	1500
8884315	58	511	0	-100	0	230	101300000	1000	0	0	-1	1500
8896875	58	514	0	-100	0	230	101300000	1000	0	0	-1	1500
8909435	58	516	0	-100	0	230	101300000	1000	0	0	-1	1500
8921995	55	516	0	-100	0	230	101300000	1000	0	0	-1	1500
8934555	58	515	0	-100	0	230	101300000	1000	0	0	-1	1500
8947115	58	513	0	-100	0	230	101300000	1000	0	0	-1	1500
8959675	67	512	0	-100	0	230	101300000	1000	0	0	-1	1500
8972235	65	509	0	-100	0	230	101300000	1000	0	0	-1	1500
8984795	65	510	0	-100	0	230	101300000	1000	0	0	-1	1500
8997355	65	510	0	-100	0	230	101300000	1000	0	0	-1	1500
9009915	63	510	0	-100	0	230	101300000	1000	0	0	-1	1500
9022475	60	512	0	-100	0	230	101300000	1000	0	0	-1	1500
9035035	60	512	0	-100	0	230	101300000	1000	0	0	-1	1500
9047595	58	516	0	-100	0	230	101300000	1000	0	0	-1	1500
9060155	55	512	0	-100	0	230	101300000	1000	0	0	-1	1500
9072715	60	511	0	-100	0	230	101300000	1000	0	0	-1	1500
9085275	60	512	0	-100	0	230	101300000	1000	0	0	-1	1500
9097835	63	512	0	-100	0	230	101300000	1000	0	0	-1	1500
9110395	63	513	0	-100	0	230	101300000	1000	0	0	-1	1500
9122955	60	512	0	-100	0	230	101300000	1000	0	0	-1	1500
9135515	58	513	0	-100	0	230	101300000	1000	0	0	-1	1500
9148075	58	510	0	-100	0	230	101300000	1000	0	0	-1	1500
9160635	58	513	0	-100	0	230	101300000	1000	0	0	-1	1500
9173195	60	513	0	-100	0	230	101300000	1000	0	0	-1	1500
9185755	63	513	0	-100	0	230	101300000	1000	0	0	-1	1500
9198315	65	514	0	-100	0	230	101300000	1000	0	0	-1	1500
9210875	63	516	0	-100	0	230	101300000	1000	0	0	-1	1500
9223435	63	513	0	-100	0	230	101300000	1000	0	0	-1	1500
9235995	63	512	0	-100	0	230	101300000	1000	0	0	-1	1500
9248555	63	509	0	-100	0	230	101300000	1000	0	0	-1	1500
9261115	65	513	0	-100	0	230	101300000	1000	0	0	-1	1500
9273675	63	512	0	-100	0	230	101300000	1000	0	0	-1	1500
9286235	65	515	0	-100	0	230	101300000	1000	0	0	-1	1500
9298795	58	514	0	-100	0	230	101300000	1000	0	0	-1	1500
9311355	58	515	0	-100	0	230	101300000	1000	0	0	-1	1500
9323915	58	513	0	-100	0	230	101300000	1000	0	0	-1	1500
9336475	65	512	0	-100	0	230	101300000	1000	0	0	-1	1500
9349035	58	513	0	-100	0	230	101300000	1000	0	0	-1	1500
9361595	58	514	0	-100	0	230	101300000	1000	0	0	-1	1500
9374155	60	512	0	-100	0	230	101300000	1000	0	0	-1	1500
9386715	63	515	0	-100	0	230	101300000	1000	0	0	-1	1500
9399275	60	510	0	-100	0	230	101300000	1000	0	0	-1	1500
9411835	55	513	0	-100	0	230	101300000	1000	0	0	-1	1500
9424395	58	511	0	-100	0	230	101300000	1000	0	0	-1	1500
9436955	58	514	0	-100	0	230	101300000	1000	0	0	-1	1500
9449515	63	512	0	-100	0	230	101300000	1000	0	0	-1	1500
9462075	63	514	0	-100	0	230	101300000	1000	0	0	-1	1500
9474635	65	509	0	-100	0	230	101300000	1000	0	0	-1	1500
9487195	60	513	0	-100	0	230	101300000	1000	0	0	-1	1500
9499755	55	514	0	-100	0	230	101300000	1000	0	0	-1	1500
9512315	60	514	0	-100	0	230	101300000	1000	0	0	-1	1500
9524875	60	510	0	-100	0	230	101300000	1000	0	0	-1	1500
9537435	67	509	0	-100	0	230	101300000	1000	0	0	-1	1500
9549995	58	515	0	-100	0	230	101300000	1000	0	0	-1	1500
9562555	60	513	0	-100	0	230	101300000	1000	0	0	-1	1500
9575115	63	513	0	-100	0	230	101300000	1000	0	0	-1	1500
9587675	60	513	0	-100	0	230	101300000	1000	0	0	-1	1500
9600235	60	514	0	-100	0	230	101300000	1000	0	0	-1	1500
9612795	60	510	0	-100	0	230	101300000	1000	0	0	-1	1500
9625355	62	509	0	-100	0	230	101300000	1000	0	0	-1	1500
9637915	55	516	0	-100	0	230	101300000	1000	0	0	-1	1500
9650475	58	516	0	-100	0	230	101300000	1000	0	0	-1	1500
9663035	65	512	0	-100	0	230	101300000	1000	0	0	-1	1500
9675595	63	514	0	-100	0	230	101300000	1000	0	0	-1	1500
9688155	55	515	0	-100	0	230	101300000	1000	0	0	-1	1500
9700715	60	513	0	-100	0	230	101300000	1000	0	0	-1	1500
9713275	63	511	0	-100	0	230	101300000	1000	0	0	-1	1500
9725835	65	511	0	-100	0	230	101300000	1000	0	0	-1	1500
9738395	58	514	0	-100	0	230	101300000	1000	0	0	-1	1500
9750955	55	514	0	-100	0	230	101300000	1000	0	0	-1	1500
9763515	55	519	0	-100	0	230	101300000	1000	0	0	-1	1500
9776075	65	510	0	-100	0	230	101300000	1000	0	0	-1	1500
9788635	58	514	0	-100	0	230	101300000	1000	0	0	-1	1500
9801195	58	513	0	-100	0	230	101300000	1000	0	0	-1	1500
9813755	58	516	0	-100	0	230	101300000	1000	0	0	-1	1500
9826315	58	513	0	-100	0	230	101300000	1000	0	0	-1	1500
9838875	58	512	0	-100	0	230	101300000	1000	0	0	-1	1500
9851435	63	511	0	-100	0	230	101300000	1000	0	0	-1	1500
9863995	65	513	0	-100	0	230	101300000	1000	0	0	-1	1500
9876555	65	511	0	-100	0	230	101300000	1000	0	0	-1	1500
9889115	60	514	0	-100	0	230	101300000	1000	0	0	-1	1500
9901675	60	510	0	-100	0	230	101300000	1000	0	0	-1	1500
9914235	55	514	0	-100	0	230	101300000	1000	0	0	-1	1500
9926795	55	513	0	-100	0	230	101300000	1000	0	0	-1	1500
9939355	55	518	0	-100	0	230	101300000	1000	0	0	-1	1500
9951915	58	517	0	-100	0	230	101300000	1000	0	0	-1	1500
9964475	58	515	0	-100	0	230	101300000	1000	0	0	-1	1500
9977035	58	513	0	-100	0	230	101300000	1000	0	0	-1	1500
9989595	63	510	0	-100	0	230	101300000	1000	0	0	-1	1500
10002155	65	516	0	-100	0	230	101300000	1000	0	0	-1	1500
10014715	60	515	0	-100	0	230	101300000	1000	0	0	-1	1500
10027275	55	515	0	-100	0	230	101300000	1000	0	0	-1	1500
10039835	58	515	0	-100	0	230	101300000	1000	0	0	-1	1500
10052395	58	514	0	-100	0	230	101300000	1000	0	0	-1	1500
10064955	58	516	0	-100	0	230	101300000	1000	0	0	-1	1500
10077515	58	511	0	-100	0	230	101300000	1000	0	0	-1	1500
10090075	60	513	0	-100	0	230	101300000	1000	0	0	-1	1500
10102635	58	513	0	-100	0	230	101300000	1000	0	0	-1	1500
10115195	63	511	0	-100	0	230	101300000	1000	0	0	-1	1500
10127755	60	510	0	-100	0	230	101300000	1000	0	0	-1	1500
10140315	63	509	0	-100	0	230	101300000	1000	0	0	-1	1500
10152875	65	514	0	-100	0	230	101300000	1000	0	0	-1	1500
10165435	65	511	0	-100	0	230	101300000	1000	0	0	-1	1500
10177995	67	523	0	-100	0	230	101300000	1000	0	0	-1	1500
10190555	63	513	0	-100	0	230	101300000	1000	0	0	-1	1500
10203115	60	511	0	-100	0	230	101300000	1000	0	0	-1	1500
10215675	58	513	0	-100	0	230	101300000	1000	0	0	-1	1500
10228235	55	515	0	-100	0	230	101300000	1000	0	0	-1	1500
10240795	55	514	0	-100	0	230	101300000	1000	0	0	-1	1500
10253355	60	513	0	-100	0	230	101300000	1000	0	0	-1	1500
10265915	60	519	0	-100	0	230	101300000	1000	0	0	-1	1500
10278475	58	514	0	-100	0	230	101300000	1000	0	0	-1	1500
10291035	55	514	0	-100	0	230	101300000	1000	0	0	-1	1500
10303595	55	514	0	-100	0	230	101300000	1000	0	0	-1	1500
10316155	58	515	0	-100	0	230	101300000	1000	0	0	-1	1500
10328715	58	516	0	-100	0	230	101300000	1000	0	0	-1	1500
10341275	58	512	0	-100	0	230	101300000	1000	0	0	-1	1500
10353835	58	516	0	-100	0	230	101300000	1000	0	0	-1	1500
10366395	60	510	0	-100	0	230	101300000	1000	0	0	-1	1500
10378955	63	510	0	-100	0	230	101300000	1000	0	0	-1	1500
10391515	63	517	0	-100	0	230	101300000	1000	0	0	-1	1500
10404075	65	514	0	-100	0	230	101300000	1000	0	0	-1	1500
10416635	63	514	0	-100	0	230	101300000	1000	0	0	-1	1500
10429195	60	511	0	-100	0	230	101300000	1000	0	0	-1	1500
10441755	58	512	0	-100	0	230	101300000	1000	0	0	-1	1500
10454315	58	516	0	-100	0	230	101300000	1000	0	0	-1	1500
10466875	60	514	0	-100	0	230	101300000	1000	0	0	-1	1500
10479435	60	511	0	-100	0	230	101300000	1000	0	0	-1	1500
10491995	60	511	0	-100	0	230	101300000	1000	0	0	-1	1500
10504555	58	514	0	-100	0	230	101300000	1000	0	0	-1	1500
10517115	58	515	0	-100	0	230	101300000	1000	0	0	-1	1500
10529675	55	514	0	-100	0	230	101300000	1000	0	0	-1	1500
10542235	55	515	0	-100	0	230	101300000	1000	0	0	-1	1500
10554795	58	514	0	-100	0	230	101300000	1000	0	0	-1	1500
10567355	58	518	0	-100	0	230	101300000	1000	0	0	-1	1500
10579915	55	515	0	-100	0	230	101300000	1000	0	0	-1	1500
10592475	58	514	0	-100	0	230	101300000	1000	0	0	-1	1500
10605035	55	516	0	-100	0	230	101300000	1000	0	0	-1	1500
10617595	58	514	0	-100	0	230	101300000	1000	0	0	-1	1500
10630155	55	517	0	-100	0	230	101300000	1000	0	0	-1	1500
10642715	60	516	0	-100	0	230	101300000	1000	0	0	-1	1500
10655275	60	512	0	-100	0	230	101300000	1000	0	0	-1	1500
10667835	63	511	0	-100	0	230	101300000	1000	0	0	-1	1500
10680395	65	513	0	-100	0	230	101300000	1000	0	0	-1	1500
10692955	58	512	0	-100	0	230	101300000	1000	0	0	-1	1500
10705515	55	514	0	-100	0	230	101300000	1000	0	0	-1	1500
10718075	58	514	0	-100	0	230	101300000	1000	0	0	-1	1500
10730635	60	517	0	-100	0	230	101300000	1000	0	0	-1	1500
10743195	55	514	0	-100	0	230	101300000	1000	0	0	-1	1500
10755755	58	514	0	-100	0	230	101300000	1000	0	0	-1	1500
10768315	58	515	0	-100	0	230	101300000	1000	0	0	-1	1500
10780875	58	513	0	-100	0	230	101300000	1000	0	0	-1	1500
10793435	58	514	0	-100	0	230	101300000	1000	0	0	-1	1500
10805995	60	511	0	-100	0	230	101300000	1000	0	0	-1	1500
10818555	55	514	0	-100	0	230	101300000	1000	0	0	-1	1500
10831115	63	512	0	-100	0	230	101300000	1000	0	0	-1	1500
10843675	65	513	0	-100	0	230	101300000	1000	0	0	-1	1500
10856235	65	511	0	-100	0	230	101300000	1000	0	0	-1	1500
10868795	65	517	0	-100	0	230	101300000	1000	0	0	-1	1500
10881355	58	511	0	-100	0	230	101300000	1000	0	0	-1	1500
10893915	58	515	0	-100	0	230	101300000	1000	0	0	-1	1500
10906475	58	513	0	-100	0	230	101300000	1000	0	0	-1	1500
10919035	63	514	0	-100	0	230	101300000	1000	0	0	-1	1500
10931595	65	514	0	-100	0	230	101300000	1000	0	0	-1	1500
10944155	55	513	0	-100	0	230	101300000	1000	0	0	-1	1500
10956715	58	516	0	-100	0	230	101300000	1000	0	0	-1	1500
10969275	58	514	0	-100	0	230	101300000	1000	0	0	-1	1500
10981835	65	515	0	-100	0	230	101300000	1000	0	0	-1	1500
10994395	67	516	0	-100	0	230	101300000	1000	0	0	-1	1500
11006955	55	514	0	-100	0	230	101300000	1000	0	0	-1	1500
11019515	58	516	0	-100	0	230	101300000	1000	0	0	-1	1500
11032075	58	510	0	-100	0	230	101300000	1000	0	0	-1	1500
11044635	63	515	0	-100	0	230	101300000	1000	0	0	-1	1500
11057195	63	513	0	-100	0	230	101300000	1000	0	0	-1	1500
11069755	55	513	0	-100	0	230	101300000	1000	0	0	-1	1500
11082315	55	515	0	-100	0	230	101300000	1000	0	0	-1	1500
11094875	55	516	0	-100	0	230	101300000	1000	0	0	-1	1500
11107435	63	510	0	-100	0	230	101300000	1000	0	0	-1	1500
11119995	65	514	0	-100	0	230	101300000	1000	0	0	-1	1500
11132555	60	514	0	-100	0	230	101300000	1000	0	0	-1	1500
11145115	55	516	0	-100	0	230	101300000	1000	0	0	-1	1500
11157675	60	515	0	-100	0	230	101300000	1000	0	0	-1	1500
11170235	58	511	0	-100	0	230	101300000	1000	0	0	-1	1500
11182795	65	511	0	-100	0	230	101300000	1000	0	0	-1	1500
11195355	65	508	0	-100	0	230	101300000	1000	0	0	-1	1500
11207915	60	511	0	-100	0	230	101300000	1000	0	0	-1	1500
11220475	58	518	0	-100	0	230	101300000	1000	0	0	-1	1500
11233035	58	513	0	-100	0	230	101300000	1000	0	0	-1	1500
11245595	65	511	0	-100	0	230	101300000	1000	0	0	-1	1500
11258155	55	512	0	-100	0	230	101300000	1000	0	0	-1	1500
11270715	55	514	0	-100	0	230	101300000	1000	0	0	-1	1500
11283275	58	514	0	-100	0	230	101300000	1000	0	0	-1	1500
11295835	55	514	0	-100	0	230	101300000	1000	0	0	-1	1500
11308395	63	510	0	-100	0	230	101300000	1000	0	0	-1	1500
11320955	63	515	0	-100	0	230	101300000	1000	0	0	-1	1500
11333515	58	513	0	-100	0	230	101300000	1000	0	0	-1	1500
11346075	58	514	0	-100	0	230	101300000	1000	0	0	-1	1500
11358635	65	511	0	-100	0	230	101300000	1000	0	0	-1	1500
11371195	63	515	0	-100	0	230	101300000	1000	0	0	-1	1500
11383755	58	512	0	-100	0	230	101300000	1000	0	0	-1	1500
11396315	58	516	0	-100	0	230	101300000	1000	0	0	-1	1500
11408875	58	513	0	-100	0	230	101300000	1000	0	0	-1	1500
11421435	60	515	0	-100	0	230	101300000	1000	0	0	-1	1500
11433995	60	514	0	-100	0	230	101300000	1000	0	0	-1	1500
11446555	63	513	0	-100	0	230	101300000	1000	0	0	-1	1500
11459115	62	510	0	-100	0	230	101300000	1000	0	0	-1	1500
11471675	60	517	0	-100	0	230	101300000	1000	0	0	-1	1500
11484235	55	514	0	-100	0	230	101300000	1000	0	0	-1	1500
11496795	60	517	0	-100	0	230	101300000	1000	0	0	-1	1500
11509355	60	509	0	-100	0	230	101300000	1000	0	0	-1	1500
11521915	65	509	0	-100	0	230	101300000	1000	0	0	-1	1500
11534475	58	512	0	-100	0	230	101300000	1000	0	0	-1	1500
11547035	58	517	0	-100	0	230	101300000	1000	0	0	-1	1500
11559595	55	516	0	-100	0	230	101300000	1000	0	0	-1	1500
11572155	63	511	0	-100	0	230	101300000	1000	0	0	-1	1500
11584715	65	511	0	-100	0	230	101300000	1000	0	0	-1	1500
11597275	58	517	0	-100	0	230	101300000	1000	0	0	-1	1500
11609835	58	514	0	-100	0	230	101300000	1000	0	0	-1	1500
11622395	63	511	0	-100	0	230	101300000	1000	0	0	-1	1500
11634955	63	510	0	-100	0	230	101300000	1000	0	0	-1	1500
11647515	58	512	0	-100	0	230	101300000	1000	0	0	-1	1500
11660075	58	513	0	-100	0	230	101300000	1000	0	0	-1	1500
11672635	60	514	0	-100	0	230	101300000	1000	0	0	-1	1500
11685195	58	516	0	-100	0	230	101300000	1000	0	0	-1	1500
11697755	58	513	0	-100	0	230	101300000	1000	0	0	-1	1500
11710315	58	510	0	-100	0	230	101300000	1000	0	0	-1	1500
11722875	62	511	0	-100	0	230	101300000	1000	0	0	-1	1500
11735435	65	516	0	-100	0	230	101300000	1000	0	0	-1	1500
11747995	67	512	0	-100	0	230	101300000	1000	0	0	-1	1500
11760555	60	513	0	-100	0	230	101300000	1000	0	0	-1	1500
11773115	55	513	0	-100	0	230	101300000	1000	0	0	-1	1500
11785675	58	509	0	-100	0	230	101300000	1000	0	0	-1	1500
11798235	60	512	0	-100	0	230	101300000	1000	0	0	-1	1500
11810795	65	514	0	-100	0	230	101300000	1000	0	0	-1	1500
11823355	60	511	0	-100	0	230	101300000	1000	0	0	-1	1500
11835915	55	514	0	-100	0	230	101300000	1000	0	0	-1	1500
11848475	58	518	0	-100	0	230	101300000	1000	0	0	-1	1500
11861035	63	510	0	-100	0	230	101300000	1000	0	0	-1	1500
11873595	65	511	0	-100	0	230	101300000	1000	0	0	-1	1500
11886155	55	513	0	-100	0	230	101300000	1000	0	0	-1	1500
11898715	58	514	0	-100	0	230	101300000	1000	0	0	-1	1500
11911275	58	511	0	-100	0	230	101300000	1000	0	0	-1	1500
11923835	58	510	0	-100	0	230	101300000	1000	0	0	-1	1500
11936395	63	510	0	-100	0	230	101300000	1000	0	0	-1	1500
11948955	65	512	0	-100	0	230	101300000	1000	0	0	-1	1500
11961515	63	513	0	-100	0	230	101300000	1000	0	0	-1	1500
11974075	55	514	0	-100	0	230	101300000	1000	0	0	-1	1500
11986635	58	511	0	-100	0	230	101300000	1000	0	0	-1	1500
11999195	63	514	0	-100	0	230	101300000	1000	0	0	-1	1500
12011755	67	513	0	-100	0	230	101300000	1000	0	0	-1	1500
12024315	55	516	0	-100	0	230	101300000	1000	0	0	-1	1500
12036875	58	513	0	-100	0	230	101300000	1000	0	0	-1	1500
12049435	63	512	0	-100	0	230	101300000	1000	0	0	-1	1500
12061995	63	515	0	-100	0	230	101300000	1000	0	0	-1	1500
12074555	55	510	0	-100	0	230	101300000	1000	0	0	-1	1500
12087115	58	514	0	-100	0	230	101300000	1000	0	0	-1	1500
12099675	60	512	0	-100	0	230	101300000	1000	0	0	-1	1500
12112235	60	513	0	-100	0	230	101300000	1000	0	0	-1	1500
12124795	63	512	0	-100	0	230	101300000	1000	0	0	-1	1500
12137355	65	511	0	-100	0	230	101300000	1000	0	0	-1	1500
12149915	58	513	0	-100	0	230	101300000	1000	0	0	-1	1500
12162475	55	515	0	-100	0	230	101300000	1000	0	0	-1	1500
12175035	60	515	0	-100	0	230	101300000	1000	0	0	-1	1500
12187595	60	512	0	-100	0	230	101300000	1000	0	0	-1	1500
12200155	63	513	0	-100	0	230	101300000	1000	0	0	-1	1500
12212715	63	511	0	-100	0	230	101300000	1000	0	0	-1	1500
12225275	63	512	0	-100	0	230	101300000	1000	0	0	-1	1500
12237835	55	514	0	-100	0	230	101300000	1000	0	0	-1	1500
12250395	60	513	0	-100	0	230	101300000	1000	0	0	-1	1500
12262955	60	513	0	-100	0	230	101300000	1000	0	0	-1	1500
12275515	58	517	0	-100	0	230	101300000	1000	0	0	-1	1500
12288075	58	512	0	-100	0	230	101300000	1000	0	0	-1	1500
12300635	60	511	0	-100	0	230	101300000	1000	0	0	-1	1500
12313195	63	514	0	-100	0	230	101300000	1000	0	0	-1	1500
12325755	65	512	0	-100	0	230	101300000	1000	0	0	-1	1500
12338315	67	514	0	-100	0	230	101300000	1000	0	0	-1	1500
12350875	67	516	0	-100	0	230	101300000	1000	0	0	-1	1500
12363435	70	514	0	-100	0	230	101300000	1000	0	0	-1	1500
12375995	67	518	0	-100	0	230	101300000	1000	0	0	-1	1500
12388555	60	515	0	-100	0	230	101300000	1000	0	0	-1	1500
12401115	60	515	0	-100	0	230	101300000	1000	0	0	-1	1500
12413675	60	515	0	-100	0	230	101300000	1000	0	0	-1	1500
12426235	65	513	0	-100	0	230	101300000	1000	0	0	-1	1500
12438795	67	514	0	-100	0	230	101300000	1000	0	0	-1	1500
12451355	67	509	0	-100	0	230	101300000	1000	0	0	-1	1500
12463915	70	515	0	-100	0	230	101300000	1000	0	0	-1	1500
12476475	63	513	0	-100	0	230	101300000	1000	0	0	-1	1500
12489035	63	516	0	-100	0	230	101300000	1000	0	0	-1	1500
12501595	60	514	0	-100	0	230	101300000	1000	0	0	-1	1500
12514155	65	514	0	-100	0	230	101300000	1000	0	0	-1	1500
12526715	63	518	0	-100	0	230	101300000	1000	0	0	-1	1500
12539275	60	514	0	-100	0	230	101300000	1000	0	0	-1	1500
12551835	63	517	0	-100	0	230	101300000	1000	0	0	-1	1500
12564395	60	517	0	-100	0	230	101300000	1000	0	0	-1	1500
12576955	63	516	0	-100	0	230	101300000	1000	0	0	-1	1500
12589515	63	515	0	-100	0	230	101300000	1000	0	0	-1	1500
12602075	60	518	0	-100	0	230	101300000	1000	0	0	-1	1500
12614635	58	517	0	-100	0	230	101300000	1000	0	0	-1	1500
12627195	60	517	0	-100	0	230	101300000	1000	0	0	-1	1500
12639755	60	517	0	-100	0	230	101300000	1000	0	0	-1	1500
12652315	60	519	0	-100	0	230	101300000	1000	0	0	-1	1500
12664875	58	518	0	-100	0	230	101300000	1000	0	0	-1	1500
12677435	60	519	0	-100	0	230	101300000	1000	0	0	-1	1500
12689995	60	515	0	-100	0	230	101300000	1000	0	0	-1	1500
12702555	63	513	0	-100	0	230	101300000	1000	0	0	-1	1500
12715115	67	511	0	-100	0	230	101300000	1000	0	0	-1	1500
12727675	67	513	0	-100	0	230	101300000	1000	0	0	-1	1500
12740235	65	514	0	-100	0	230	101300000	1000	0	0	-1	1500
12752795	67	513	0	-100	0	230	101300000	1000	0	0	-1	1500
12765355	63	515	0	-100	0	230	101300000	1000	0	0	-1	1500
12777915	63	512	0	-100	0	230	101300000	1000	0	0	-1	1500
12790475	60	518	0	-100	0	230	101300000	1000	0	0	-1	1500
12803035	65	514	0	-100	0	230	101300000	1000	0	0	-1	1500
12815595	67	514	0	-100	0	230	101300000	1000	0	0	-1	1500
12828155	70	512	0	-100	0	230	101300000	1000	0	0	-1	1500
12840715	67	514	0	-100	0	230	101300000	1000	0	0	-1	1500
12853275	65	512	0	-100	0	230	101300000	1000	0	0	-1	1500
12865835	65	510	0	-100	0	230	101300000	1000	0	0	-1	1500
12878395	65	512	0	-100	0	230	101300000	1000	0	0	-1	1500
12890955	63	511	0	-100	0	230	101300000	1000	0	0	-1	1500
12903515	65	512	0	-100	0	230	101300000	1000	0	0	-1	1500
12916075	63	511	0	-100	0	230	101300000	1000	0	0	-1	1500
12928635	60	515	0	-100	0	230	101300000	1000	0	0	-1	1500
12941195	63	518	0	-100	0	230	101300000	1000	0	0	-1	1500
12953755	60	517	0	-100	0	230	101300000	1000	0	0	-1	1500
12966315	60	516	0	-100	0	230	101300000	1000	0	0	-1	1500
12978875	60	514	0	-100	0	230	101300000	1000	0	0	-1	1500
12991435	65	516	0	-100	0	230	101300000	1000	0	0	-1	1500
13003995	67	513	0	-100	0	230	101300000	1000	0	0	-1	1500
13016555	67	514	0	-100	0	230	101300000	1000	0	0	-1	1500
13029115	67	513	0	-100	0	230	101300000	1000	0	0	-1	1500
13041675	65	513	0	-100	0	230	101300000	1000	0	0	-1	1500
13054235	60	515	0	-100	0	230	101300000	1000	0	0	-1	1500
13066795	63	516	0	-100	0	230	101300000	1000	0	0	-1	1500
13079355	63	516	0	-100	0	230	101300000	1000	0	0	-1	1500
13091915	63	514	0	-100	0	230	101300000	1000	0	0	-1	1500
13104475	60	517	0	-100	0	230	101300000	1000	0	0	-1	1500
13117035	63	515	0	-100	0	230	101300000	1000	0	0	-1	1500
13129595	63	515	0	-100	0	230	101300000	1000	0	0	-1	1500
13142155	63	516	0	-100	0	230	101300000	1000	0	0	-1	1500
13154715	63	515	0	-100	0	230	101300000	1000	0	0	-1	1500
13167275	60	515	0	-100	0	230	101300000	1000	0	0	-1	1500
13179835	65	513	0	-100	0	230	101300000	1000	0	0	-1	1500
13192395	65	514	0	-100	0	230	101300000	1000	0	0	-1	1500
13204955	65	513	0	-100	0	230	101300000	1000	0	0	-1	1500
13217515	67	515	0	-100	0	230	101300000	1000	0	0	-1	1500
13230075	65	514	0	-100	0	230	101300000	1000	0	0	-1	1500
13242635	70	515	0	-100	0	230	101300000	1000	0	0	-1	1500
13255195	70	513	0	-100	0	230	101300000	1000	0	0	-1	1500
13267755	67	512	0	-100	0	230	101300000	1000	0	0	-1	1500
13280315	65	513	0	-100	0	230	101300000	1000	0	0	-1	1500
13292875	63	510	0	-100	0	230	101300000	1000	0	0	-1	1500
13305435	63	512	0	-100	0	230	101300000	1000	0	0	-1	1500
13317995	63	515	0	-100	0	230	101300000	1000	0	0	-1	1500
13330555	65	511	0	-100	0	230	101300000	1000	0	0	-1	1500
13343115	63	512	0	-100	0	230	101300000	1000	0	0	-1	1500
13355675	67	515	0	-100	0	230	101300000	1000	0	0	-1	1500
13368235	67	514	0	-100	0	230	101300000	1000	0	0	-1	1500
13380795	67	514	0	-100	0	230	101300000	1000	0	0	-1	1500
13393355	60	517	0	-100	0	230	101300000	1000	0	0	-1	1500
13405915	63	513	0	-100	0	230	101300000	1000	0	0	-1	1500
13418475	63	516	0	-100	0	230	101300000	1000	0	0	-1	1500
13431035	60	517	0	-100	0	230	101300000	1000	0	0	-1	1500
13443595	60	520	0	-100	0	230	101300000	1000	0	0	-1	1500
13456155	58	516	0	-100	0	230	101300000	1000	0	0	-1	1500
13468715	58	515	0	-100	0	230	101300000	1000	0	0	-1	1500
13481275	65	513	0	-100	0	230	101300000	1000	0	0	-1	1500
13493835	70	507	0	-100	0	230	101300000	1000	0	0	-1	1500
13506395	67	514	0	-100	0	230	101300000	1000	0	0	-1	1500
13518955	63	514	0	-100	0	230	101300000	1000	0	0	-1	1500
13531515	65	518	0	-100	0	230	101300000	1000	0	0	-1	1500
13544075	63	517	0	-100	0	230	101300000	1000	0	0	-1	1500
13556635	60	515	0	-100	0	230	101300000	1000	0	0	-1	1500
13569195	65	513	0	-100	0	230	101300000	1000	0	0	-1	1500
13581755	67	515	0	-100	0	230	101300000	1000	0	0	-1	1500
13594315	70	514	0	-100	0	230	101300000	1000	0	0	-1	1500
13606875	67	512	0	-100	0	230	101300000	1000	0	0	-1	1500
13619435	63	513	0	-100	0	230	101300000	1000	0	0	-1	1500
13631995	60	512	0	-100	0	230	101300000	1000	0	0	-1	1500
13644555	63	515	0	-100	0	230	101300000	1000	0	0	-1	1500
13657115	58	516	0	-100	0	230	101300000	1000	0	0	-1	1500
13669675	60	515	0	-100	0	230	101300000	1000	0	0	-1	1500
13682235	63	511	0	-100	0	230	101300000	1000	0	0	-1	1500
13694795	65	514	0	-100	0	230	101300000	1000	0	0	-1	1500
13707355	70	516	0	-100	0	230	101300000	1000	0	0	-1	1500
13719915	67	514	0	-100	0	230	101300000	1000	0	0	-1	1500
13732475	65	514	0	-100	0	230	101300000	1000	0	0	-1	1500
13745035	67	510	0	-100	0	230	101300000	1000	0	0	-1	1500
13757595	67	512	0	-100	0	230	101300000	1000	0	0	-1	1500
13770155	65	514	0	-100	0	230	101300000	1000	0	0	-1	1500
13782715	63	514	0	-100	0	230	101300000	1000	0	0	-1	1500
13795275	60	517	0	-100	0	230	101300000	1000	0	0	-1	1500
13807835	63	513	0	-100	0	230	101300000	1000	0	0	-1	1500
13820395	63	517	0	-100	0	230	101300000	1000	0	0	-1	1500
13832955	60	518	0	-100	0	230	101300000	1000	0	0	-1	1500
13845515	60	514	0	-100	0	230	101300000	1000	0	0	-1	1500
13858075	60	512	0	-100	0	230	101300000	1000	0	0	-1	1500
13870635	60	516	0	-100	0	230	101300000	1000	0	0	-1	1500
13883195	60	516	0	-100	0	230	101300000	1000	0	0	-1	1500
13895755	60	516	0	-100	0	230	101300000	1000	0	0	-1	1500
13908315	60	514	0	-100	0	230	101300000	1000	0	0	-1	1500
13920875	63	513	0	-100	0	230	101300000	1000	0	0	-1	1500
13933435	67	517	0	-100	0	230	101300000	1000	0	0	-1	1500
13945995	70	517	0	-100	0	230	101300000	1000	0	0	-1	1500
13958555	67	508	0	-100	0	230	101300000	1000	0	0	-1	1500
13971115	70	512	0	-100	0	230	101300000	1000	0	0	-1	1500
13983675	70	516	0	-100	0	230	101300000	1000	0	0	-1	1500
13996235	67	514	0	-100	0	230	101300000	1000	0	0	-1	1500
14008795	67	510	0	-100	0	230	101300000	1000	0	0	-1	1500
14021355	67	514	0	-100	0	230	101300000	1000	0	0	-1	1500
14033915	67	514	0	-100	0	230	101300000	1000	0	0	-1	1500
14046475	67	516	0	-100	0	230	101300000	1000	0	0	-1	1500
14059035	67	513	0	-100	0	230	101300000	1000	0	0	-1	1500
14071595	67	513	0	-100	0	230	101300000	1000	0	0	-1	1500
14084155	65	515	0	-100	0	230	101300000	1000	0	0	-1	1500
14096715	65	514	0	-100	0	230	101300000	1000	0	0	-1	1500
14109275	63	516	0	-100	0	230	101300000	1000	0	0	-1	1500
14121835	63	513	0	-100	0	230	101300000	1000	0	0	-1	1500
14134395	65	514	0	-100	0	230	101300000	1000	0	0	-1	1500
14146955	65	514	0	-100	0	230	101300000	1000	0	0	-1	1500
14159515	67	513	0	-100	0	230	101300000	1000	0	0	-1	1500
14172075	70	512	0	-100	0	230	101300000	1000	0	0	-1	1500
14184635	70	513	0	-100	0	230	101300000	1000	0	0	-1	1500
14197195	70	510	0	-100	0	230	101300000	1000	0	0	-1	1500
14209755	67	511	0	-100	0	230	101300000	1000	0	0	-1	1500
14222315	63	514	0	-100	0	230	101300000	1000	0	0	-1	1500
14234875	63	514	0	-100	0	230	101300000	1000	0	0	-1	1500
14247435	60	514	0	-100	0	230	101300000	1000	0	0	-1	1500
14259995	60	512	0	-100	0	230	101300000	1000	0	0	-1	1500
14272555	60	515	0	-100	0	230	101300000	1000	0	0	-1	1500
14285115	63	517	0	-100	0	230	101300000	1000	0	0	-1	1500
14297675	63	518	0	-100	0	230	101300000	1000	0	0	-1	1500
14310235	63	517	0	-100	0	230	101300000	1000	0	0	-1	1500
14322795	60	516	0	-100	0	230	101300000	1000	0	0	-1	1500
14335355	60	517	0	-100	0	230	101300000	1000	0	0	-1	1500
14347915	60	515	0	-100	0	230	101300000	1000	0	0	-1	1500
14360475	60	519	0	-100	0	230	101300000	1000	0	0	-1	1500
14373035	60	519	0	-100	0	230	101300000	1000	0	0	-1	1500
14385595	60	516	0	-100	0	230	101300000	1000	0	0	-1	1500
14398155	65	517	0	-100	0	230	101300000	1000	0	0	-1	1500
14410715	63	513	0	-100	0	230	101300000	1000	0	0	-1	1500
14423275	60	516	0	-100	0	230	101300000	1000	0	0	-1	1500
14435835	60	519	0	-100	0	230	101300000	1000	0	0	-1	1500
14448395	63	515	0	-100	0	230	101300000	1000	0	0	-1	1500
14460955	67	512	0	-100	0	230	101300000	1000	0	0	-1	1500
14473515	65	511	0	-100	0	230	101300000	1000	0	0	-1	1500
14486075	67	514	0	-100	0	230	101300000	1000	0	0	-1	1500
14498635	67	515	0	-100	0	230	101300000	1000	0	0	-1	1500
14511195	67	513	0	-100	0	230	101300000	1000	0	0	-1	1500
14523755	67	512	0	-100	0	230	101300000	1000	0	0	-1	1500
14536315	67	508	0	-100	0	230	101300000	1000	0	0	-1	1500
14548875	67	513	0	-100	0	230	101300000	1000	0	0	-1	1500
14561435	70	514	0	-100	0	230	101300000	1000	0	0	-1	1500
14573995	70	516	0	-100	0	230	101300000	1000	0	0	-1	1500
14586555	63	515	0	-100	0	230	101300000	1000	0	0	-1	1500
14599115	58	514	0	-100	0	230	101300000	1000	0	0	-1	1500
14611675	63	515	0	-100	0	230	101300000	1000	0	0	-1	1500
14624235	58	514	0	-100	0	230	101300000	1000	0	0	-1	1500
14636795	63	515	0	-100	0	230	101300000	1000	0	0	-1	1500
14649355	60	515	0	-100	0	230	101300000	1000	0	0	-1	1500
14661915	63	511	0	-100	0	230	101300000	1000	0	0	-1	1500
14674475	70	512	0	-100	0	230	101300000	1000	0	0	-1	1500
14687035	65	509	0	-100	0	230	101300000	1000	0	0	-1	1500
14699595	70	511	0	-100	0	230	101300000	1000	0	0	-1	1500
14712155	67	511	0	-100	0	230	101300000	1000	0	0	-1	1500
14724715	67	510	0	-100	0	230	101300000	1000	0	0	-1	1500
14737275	67	513	0	-100	0	230	101300000	1000	0	0	-1	1500
14749835	70	516	0	-100	0	230	101300000	1000	0	0	-1	1500
14762395	70	514	0	-100	0	230	101300000	1000	0	0	-1	1500
14774955	67	514	0	-100	0	230	101300000	1000	0	0	-1	1500
14787515	67	514	0	-100	0	230	101300000	1000	0	0	-1	1500
14800075	65	514	0	-100	0	230	101300000	1000	0	0	-1	1500
14812635	63	511	0	-100	0	230	101300000	1000	0	0	-1	1500
14825195	65	514	0	-100	0	230	101300000	1000	0	0	-1	1500
14837755	63	514	0	-100	0	230	101300000	1000	0	0	-1	1500
14850315	65	514	0	-100	0	230	101300000	1000	0	0	-1	1500
14862875	63	512	0	-100	0	230	101300000	1000	0	0	-1	1500
14875435	60	518	0	-100	0	230	101300000	1000	0	0	-1	1500
14887995	60	509	0	-100	0	230	101300000	1000	0	0	-1	1500
14900555	60	514	0	-100	0	230	101300000	1000	0	0	-1	1500
14913115	60	516	0	-100	0	230	101300000	1000	0	0	-1	1500
14925675	63	514	0	-100	0	230	101300000	1000	0	0	-1	1500
14938235	63	517	0	-100	0	230	101300000	1000	0	0	-1	1500
14950795	60	516	0	-100	0	230	101300000	1000	0	0	-1	1500
14963355	60	516	0	-100	0	230	101300000	1000	0	0	-1	1500
14975915	58	516	0	-100	0	230	101300000	1000	0	0	-1	1500
14988475	63	515	0	-100	0	230	101300000	1000	0	0	-1	1500
15001035	60	516	0	-100	0	230	101300000	1000	0	0	-1	1500
15013595	60	514	0	-100	0	230	101300000	1000	0	0	-1	1500
15026155	60	519	0	-100	0	230	101300000	1000	0	0	-1	1500
15038715	60	514	0	-100	0	230	101300000	1000	0	0	-1	1500
15051275	60	516	0	-100	0	230	101300000	1000	0	0	-1	1500
15063835	60	517	0	-100	0	230	101300000	1000	0	0	-1	1500
15076395	60	515	0	-100	0	230	101300000	1000	0	0	-1	1500
15088955	60	516	0	-100	0	230	101300000	1000	0	0	-1	1500
15101515	60	518	0	-100	0	230	101300000	1000	0	0	-1	1500
15114075	60	516	0	-100	0	230	101300000	1000	0	0	-1	1500
15126635	60	516	0	-100	0	230	101300000	1000	0	0	-1	1500
15139195	58	516	0	-100	0	230	101300000	1000	0	0	-1	1500
15151755	63	514	0	-100	0	230	101300000	1000	0	0	-1	1500
15164315	63	519	0	-100	0	230	101300000	1000	0	0	-1	1500
15176875	63	518	0	-100	0	230	101300000	1000	0	0	-1	1500
15189435	63	511	0	-100	0	230	101300000	1000	0	0	-1	1500
15201995	63	510	0	-100	0	230	101300000	1000	0	0	-1	1500
15214555	60	515	0	-100	0	230	101300000	1000	0	0	-1	1500
15227115	63	514	0	-100	0	230	101300000	1000	0	0	-1	1500
15239675	63	515	0	-100	0	230	101300000	1000	0	0	-1	1500
15252235	65	514	0	-100	0	230	101300000	1000	0	0	-1	1500
15264795	67	514	0	-100	0	230	101300000	1000	0	0	-1	1500
15277355	65	512	0	-100	0	230	101300000	1000	0	0	-1	1500
15289915	65	512	0	-100	0	230	101300000	1000	0	0	-1	1500
15302475	67	514	0	-100	0	230	101300000	1000	0	0	-1	1500
15315035	67	514	0	-100	0	230	101300000	1000	0	0	-1	1500
15327595	67	512	0	-100	0	230	101300000	1000	0	0	-1	1500
15340155	65	514	0	-100	0	230	101300000	1000	0	0	-1	1500
15352715	67	511	0	-100	0	230	101300000	1000	0	0	-1	1500
15365275	65	512	0	-100	0	230	101300000	1000	0	0	-1	1500
15377835	67	513	0	-100	0	230	101300000	1000	0	0	-1	1500
15390395	65	515	0	-100	0	230	101300000	1000	0	0	-1	1500
15402955	63	513	0	-100	0	230	101300000	1000	0	0	-1	1500
15415515	67	513	0	-100	0	230	101300000	1000	0	0	-1	1500
15428075	67	512	0	-100	0	230	101300000	1000	0	0	-1	1500
15440635	65	509	0	-100	0	230	101300000	1000	0	0	-1	1500
15453195	67	514	0	-100	0	230	101300000	1000	0	0	-1	1500
15465755	67	510	0	-100	0	230	101300000	1000	0	0	-1	1500
15478315	67	509	0	-100	0	230	101300000	1000	0	0	-1	1500
15490875	70	518	0	-100	0	230	101300000	1000	0	0	-1	1500
15503435	67	515	0	-100	0	230	101300000	1000	0	0	-1	1500
15515995	65	516	0	-100	0	230	101300000	1000	0	0	-1	1500
15528555	65	514	0	-100	0	230	101300000	1000	0	0	-1	1500
15541115	60	515	0	-100	0	230	101300000	1000	0	0	-1	1500
15553675	60	513	0	-100	0	230	101300000	1000	0	0	-1	1500
15566235	63	512	0	-100	0	230	101300000	1000	0	0	-1	1500
15578795	70	517	0	-100	0	230	101300000	1000	0	0	-1	1500
15591355	63	513	0	-100	0	230	101300000	1000	0	0	-1	1500
15603915	63	514	0	-100	0	230	101300000	1000	0	0	-1	1500
15616475	60	514	0	-100	0	230	101300000	1000	0	0	-1	1500
15629035	60	513	0	-100	0	230	101300000	1000	0	0	-1	1500
15641595	63	513	0	-100	0	230	101300000	1000	0	0	-1	1500
15654155	63	512	0	-100	0	230	101300000	1000	0	0	-1	1500
15666715	67	515	0	-100	0	230	101300000	1000	0	0	-1	1500
15679275	65	512	0	-100	0	230	101300000	1000	0	0	-1	1500
15691835	60	518	0	-100	0	230	101300000	1000	0	0	-1	1500
15704395	63	514	0	-100	0	230	101300000	1000	0	0	-1	1500
15716955	72	515	0	-100	0	230	101300000	1000	0	0	-1	1500
15729515	63	515	0	-100	0	230	101300000	1000	0	0	-1	1500
15742075	63	518	0	-100	0	230	101300000	1000	0	0	-1	1500
15754635	60	517	0	-100	0	230	101300000	1000	0	0	-1	1500
15767195	65	511	0	-100	0	230	101300000	1000	0	0	-1	1500
15779755	70	512	0	-100	0	230	101300000	1000	0	0	-1	1500
15792315	65	516	0	-100	0	230	101300000	1000	0	0	-1	1500
15804875	60	515	0	-100	0	230	101300000	1000	0	0	-1	1500
15817435	63	514	0	-100	0	230	101300000	1000	0	0	-1	1500
15829995	63	511	0	-100	0	230	101300000	1000	0	0	-1	1500
15842555	67	514	0	-100	0	230	101300000	1000	0	0	-1	1500
15855115	63	512	0	-100	0	230	101300000	1000	0	0	-1	1500
15867675	60	517	0	-100	0	230	101300000	1000	0	0	-1	1500
15880235	63	514	0	-100	0	230	101300000	1000	0	0	-1	1500
15892795	63	510	0	-100	0	230	101300000	1000	0	0	-1	1500
15905355	67	511	0	-100	0	230	101300000	1000	0	0	-1	1500
15917915	65	515	0	-100	0	230	101300000	1000	0	0	-1	1500
15930475	58	515	0	-100	0	230	101300000	1000	0	0	-1	1500
15943035	60	519	0	-100	0	230	101300000	1000	0	0	-1	1500
15955595	67	514	0	-100	0	230	101300000	1000	0	0	-1	1500
15968155	65	514	0	-100	0	230	101300000	1000	0	0	-1	1500
15980715	60	514	0	-100	0	230	101300000	1000	0	0	-1	1500
15993275	63	517	0	-100	0	230	101300000	1000	0	0	-1	1500
16005835	63	510	0	-100	0	230	101300000	1000	0	0	-1	1500
16018395	67	512	0	-100	0	230	101300000	1000	0	0	-1	1500
16030955	65	512	0	-100	0	230	101300000	1000	0	0	-1	1500
16043515	60	514	0	-100	0	230	101300000	1000	0	0	-1	1500
16056075	65	517	0	-100	0	230	101300000	1000	0	0	-1	1500
16068635	70	510	0	-100	0	230	101300000	1000	0	0	-1	1500
16081195	60	516	0	-100	0	230	101300000	1000	0	0	-1	1500
16093755	63	511	0	-100	0	230	101300000	1000	0	0	-1	1500
16106315	67	511	0	-100	0	230	101300000	1000	0	0	-1	1500
16118875	60	516	0	-100	0	230	101300000	1000	0	0	-1	1500
16131435	60	518	0	-100	0	230	101300000	1000	0	0	-1	1500
16143995	67	514	0	-100	0	230	101300000	1000	0	0	-1	1500
16156555	63	511	0	-100	0	230	101300000	1000	0	0	-1	1500
16169115	60	516	0	-100	0	230	101300000	1000	0	0	-1	1500
16181675	60	516	0	-100	0	230	101300000	1000	0	0	-1	1500
16194235	67	513	0	-100	0	230	101300000	1000	0	0	-1	1500
16206795	67	515	0	-100	0	230	101300000	1000	0	0	-1	1500
16219355	60	518	0	-100	0	230	101300000	1000	0	0	-1	1500
16231915	63	519	0	-100	0	230	101300000	1000	0	0	-1	1500
16244475	67	514	0	-100	0	230	101300000	1000	0	0	-1	1500
16257035	60	515	0	-100	0	230	101300000	1000	0	0	-1	1500
16269595	65	514	0	-100	0	230	101300000	1000	0	0	-1	1500
16282155	65	514	0	-100	0	230	101300000	1000	0	0	-1	1500
16294715	65	515	0	-100	0	230	101300000	1000	0	0	-1	1500
16307275	60	517	0	-100	0	230	101300000	1000	0	0	-1	1500
16319835	63	517	0	-100	0	230	101300000	1000	0	0	-1	1500
16332395	65	514	0	-100	0	230	101300000	1000	0	0	-1	1500
16344955	65	512	0	-100	0	230	101300000	1000	0	0	-1	1500
16357515	60	516	0	-100	0	230	101300000	1000	0	0	-1	1500
16370075	63	515	0	-100	0	230	101300000	1000	0	0	-1	1500
16382635	67	512	0	-100	0	230	101300000	1000	0	0	-1	1500
16395195	65	514	0	-100	0	230	101300000	1000	0	0	-1	1500
16407755	60	515	0	-100	0	230	101300000	1000	0	0	-1	1500
16420315	65	513	0	-100	0	230	101300000	1000	0	0	-1	1500
16432875	67	515	0	-100	0	230	101300000	1000	0	0	-1	1500
16445435	60	516	0	-100	0	230	101300000	1000	0	0	-1	1500
16457995	60	512	0	-100	0	230	101300000	1000	0	0	-1	1500
16470555	65	513	0	-100	0	230	101300000	1000	0	0	-1	1500
16483115	65	514	0	-100	0	230	101300000	1000	0	0	-1	1500
16495675	60	514	0	-100	0	230	101300000	1000	0	0	-1	1500
16508235	63	517	0	-100	0	230	101300000	1000	0	0	-1	1500
16520795	60	517	0	-100	0	230	101300000	1000	0	0	-1	1500
16533355	67	514	0	-100	0	230	101300000	1000	0	0	-1	1500
16545915	70	514	0	-100	0	230	101300000	1000	0	0	-1	1500
16558475	63	514	0	-100	0	230	101300000	1000	0	0	-1	1500
16571035	60	516	0	-100	0	230	101300000	1000	0	0	-1	1500
16583595	63	513	0	-100	0	230	101300000	1000	0	0	-1	1500
16596155	60	515	0	-100	0	230	101300000	1000	0	0	-1	1500
16608715	72	514	0	-100	0	230	101300000	1000	0	0	-1	1500
16621275	63	514	0	-100	0	230	101300000	1000	0	0	-1	1500
16633835	60	517	0	-100	0	230	101300000	1000	0	0	-1	1500
16646395	63	514	0	-100	0	230	101300000	1000	0	0	-1	1500
16658955	67	511	0	-100	0	230	101300000	1000	0	0	-1	1500
16671515	60	515	0	-100	0	230	101300000	1000	0	0	-1	1500
16684075	63	516	0	-100	0	230	101300000	1000	0	0	-1	1500
16696635	70	515	0	-100	0	230	101300000	1000	0	0	-1	1500
16709195	65	514	0	-100	0	230	101300000	1000	0	0	-1	1500
16721755	60	516	0	-100	0	230	101300000	1000	0	0	-1	1500
16734315	60	518	0	-100	0	230	101300000	1000	0	0	-1	1500
16746875	67	515	0	-100	0	230	101300000	1000	0	0	-1	1500
16759435	63	512	0	-100	0	230	101300000	1000	0	0	-1	1500
16771995	60	514	0	-100	0	230	101300000	1000	0	0	-1	1500
16784555	65	513	0	-100	0	230	101300000	1000	0	0	-1	1500
16797115	65	516	0	-100	0	230	101300000	1000	0	0	-1	1500
16809675	63	516	0	-100	0	230	101300000	1000	0	0	-1	1500
16822235	65	514	0	-100	0	230	101300000	1000	0	0	-1	1500
16834795	67	517	0	-100	0	230	101300000	1000	0	0	-1	1500
16847355	60	516	0	-100	0	230	101300000	1000	0	0	-1	1500
16859915	65	513	0	-100	0	230	101300000	1000	0	0	-1	1500
16872475	60	515	0	-100	0	230	101300000	1000	0	0	-1	1500
16885035	63	520	0	-100	0	230	101300000	1000	0	0	-1	1500
16897595	70	510	0	-100	0	230	101300000	1000	0	0	-1	1500
16910155	60	517	0	-100	0	230	101300000	1000	0	0	-1	1500
16922715	60	515	0	-100	0	230	101300000	1000	0	0	-1	1500
16935275	65	514	0	-100	0	230	101300000	1000	0	0	-1	1500
16947835	65	514	0	-100	0	230	101300000	1000	0	0	-1	1500
16960395	60	516	0	-100	0	230	101300000	1000	0	0	-1	1500
16972955	65	514	0	-100	0	230	101300000	1000	0	0	-1	1500
16985515	70	511	0	-100	0	230	101300000	1000	0	0	-1	1500
16998075	63	515	0	-100	0	230	101300000	1000	0	0	-1	1500
17010635	63	515	0	-100	0	230	101300000	1000	0	0	-1	1500
17023195	67	510	0	-100	0	230	101300000	1000	0	0	-1	1500
17035755	60	515	0	-100	0	230	101300000	1000	0	0	-1	1500
17048315	60	514	0	-100	0	230	101300000	1000	0	0	-1	1500
17060875	67	516	0	-100	0	230	101300000	1000	0	0	-1	1500
17073435	63	519	0	-100	0	230	101300000	1000	0	0	-1	1500
17085995	65	514	0	-100	0	230	101300000	1000	0	0	-1	1500
17098555	65	513	0	-100	0	230	101300000	1000	0	0	-1	1500
17111115	63	514	0	-100	0	230	101300000	1000	0	0	-1	1500
17123675	67	515	0	-100	0	230	101300000	1000	0	0	-1	1500
17136235	63	514	0	-100	0	230	101300000	1000	0	0	-1	1500
17148795	60	517	0	-100	0	230	101300000	1000	0	0	-1	1500
17161355	67	517	0	-100	0	230	101300000	1000	0	0	-1	1500
17173915	63	517	0	-100	0	230	101300000	1000	0	0	-1	1500
17186475	70	522	0	-100	0	230	101300000	1000	0	0	-1	1500
17199035	63	516	0	-100	0	230	101300000	1000	0	0	-1	1500
17211595	67	515	0	-100	0	230	101300000	1000	0	0	-1	1500
17224155	60	514	0	-100	0	230	101300000	1000	0	0	-1	1500
17236715	63	514	0	-100	0	230	101300000	1000	0	0	-1	1500
17249275	67	511	0	-100	0	230	101300000	1000	0	0	-1	1500
17261835	60	518	0	-100	0	230	101300000	1000	0	0	-1	1500
17274395	60	519	0	-100	0	230	101300000	1000	0	0	-1	1500
17286955	67	522	0	-100	0	230	101300000	1000	0	0	-1	1500
17299515	63	516	0	-100	0	230	101300000	1000	0	0	-1	1500
17312075	60	516	0	-100	0	230	101300000	1000	0	0	-1	1500
17324635	60	511	0	-100	0	230	101300000	1000	0	0	-1	1500
17337195	65	514	0	-100	0	230	101300000	1000	0	0	-1	1500
17349755	67	514	0	-100	0	230	101300000	1000	0	0	-1	1500
17362315	67	515	0	-100	0	230	101300000	1000	0	0	-1	1500
17374875	60	515	0	-100	0	230	101300000	1000	0	0	-1	1500
17387435	60	515	0	-100	0	230	101300000	1000	0	0	-1	1500
17399995	70	512	0	-100	0	230	101300000	1000	0	0	-1	1500
17412555	60	513	0	-100	0	230	101300000	1000	0	0	-1	1500
17425115	60	517	0	-100	0	230	101300000	1000	0	0	-1	1500
17437675	67	514	0	-100	0	230	101300000	1000	0	0	-1	1500
17450235	65	515	0	-100	0	230	101300000	1000	0	0	-1	1500
17462795	58	516	0	-100	0	230	101300000	1000	0	0	-1	1500
17475355	63	514	0	-100	0	230	101300000	1000	0	0	-1	1500
17487915	63	511	0	-100	0	230	101300000	1000	0	0	-1	1500
17500475	67	514	0	-100	0	230	101300000	1000	0	0	-1	1500
17513035	65	512	0	-100	0	230	101300000	1000	0	0	-1	1500
17525595	60	518	0	-100	0	230	101300000	1000	0	0	-1	1500
17538155	60	515	0	-100	0	230	101300000	1000	0	0	-1	1500
17550715	65	513	0	-100	0	230	101300000	1000	0	0	-1	1500
17563275	70	509	0	-100	0	230	101300000	1000	0	0	-1	1500
17575835	60	514	0	-100	0	230	101300000	1000	0	0	-1	1500
17588395	63	519	0	-100	0	230	101300000	1000	0	0	-1	1500
17600955	63	514	0	-100	0	230	101300000	1000	0	0	-1	1500
17613515	67	514	0	-100	0	230	101300000	1000	0	0	-1	1500
17626075	67	509	0	-100	0	230	101300000	1000	0	0	-1	1500
17638635	65	514	0	-100	0	230	101300000	1000	0	0	-1	1500
17651195	60	516	0	-100	0	230	101300000	1000	0	0	-1	1500
17663755	63	513	0	-100	0	230	101300000	1000	0	0	-1	1500
17676315	67	509	0	-100	0	230	101300000	1000	0	0	-1	1500
17688875	63	515	0	-100	0	230	101300000	1000	0	0	-1	1500
17701435	60	518	0	-100	0	230	101300000	1000	0	0	-1	1500
17713995	65	513	0	-100	0	230	101300000	1000	0	0	-1	1500
17726555	65	512	0	-100	0	230	101300000	1000	0	0	-1	1500
17739115	67	511	0	-100	0	230	101300000	1000	0	0	-1	1500
17751675	65	514	0	-100	0	230	101300000	1000	0	0	-1	1500
17764235	63	515	0	-100	0	230	101300000	1000	0	0	-1	1500
17776795	60	514	0	-100	0	230	101300000	1000	0	0	-1	1500
17789355	63	517	0	-100	0	230	101300000	1000	0	0	-1	1500
17801915	63	515	0	-100	0	230	101300000	1000	0	0	-1	1500
17814475	63	516	0	-100	0	230	101300000	1000	0	0	-1	1500
17827035	65	512	0	-100	0	230	101300000	1000	0	0	-1	1500
17839595	65	512	0	-100	0	230	101300000	1000	0	0	-1	1500
17852155	60	519	0	-100	0	230	101300000	1000	0	0	-1	1500
17864715	60	515	0	-100	0	230	101300000	1000	0	0	-1	1500
17877275	60	515	0	-100	0	230	101300000	1000	0	0	-1	1500
17889835	63	516	0	-100	0	230	101300000	1000	0	0	-1	1500
17902395	60	516	0	-100	0	230	101300000	1000	0	0	-1	1500
17914955	60	517	0	-100	0	230	101300000	1000	0	0	-1	1500
17927515	60	517	0	-100	0	230	101300000	1000	0	0	-1	1500
17940075	58	517	0	-100	0	230	101300000	1000	0	0	-1	1500
17952635	58	517	0	-100	0	230	101300000	1000	0	0	-1	1500
17965195	58	516	0	-100	0	230	101300000	1000	0	0	-1	1500
17977755	63	516	0	-100	0	230	101300000	1000	0	0	-1	1500
17990315	65	516	0	-100	0	230	101300000	1000	0	0	-1	1500
18002875	70	511	0	-100	0	230	101300000	1000	0	0	-1	1500
18015435	67	511	0	-100	0	230	101300000	1000	0	0	-1	1500
18027995	67	515	0	-100	0	230	101300000	1000	0	0	-1	1500
18040555	65	512	0	-100	0	230	101300000	1000	0	0	-1	1500
18053115	67	509	0	-100	0	230	101300000	1000	0	0	-1	1500
18065675	67	509	0	-100	0	230	101300000	1000	0	0	-1	1500
18078235	65	508	0	-100	0	230	101300000	1000	0	0	-1	1500
18090795	67	511	0	-100	0	230	101300000	1000	0	0	-1	1500
18103355	70	512	0	-100	0	230	101300000	1000	0	0	-1	1500
18115915	67	514	0	-100	0	230	101300000	1000	0	0	-1	1500
18128475	67	510	0	-100	0	230	101300000	1000	0	0	-1	1500
18141035	67	513	0	-100	0	230	101300000	1000	0	0	-1	1500
18153595	67	511	0	-100	0	230	101300000	1000	0	0	-1	1500
18166155	67	509	0	-100	0	230	101300000	1000	0	0	-1	1500
18178715	70	511	0	-100	0	230	101300000	1000	0	0	-1	1500
18191275	67	511	0	-100	0	230	101300000	1000	0	0	-1	1500
18203835	70	511	0	-100	0	230	101300000	1000	0	0	-1	1500
18216395	65	515	0	-100	0	230	101300000	1000	0	0	-1	1500
18228955	65	511	0	-100	0	230	101300000	1000	0	0	-1	1500
18241515	63	514	0	-100	0	230	101300000	1000	0	0	-1	1500
18254075	65	512	0	-100	0	230	101300000	1000	0	0	-1	1500
18266635	67	515	0	-100	0	230	101300000	1000	0	0	-1	1500
18279195	67	511	0	-100	0	230	101300000	1000	0	0	-1	1500
18291755	70	520	0	-100	0	230	101300000	1000	0	0	-1	1500
18304315	63	511	0	-100	0	230	101300000	1000	0	0	-1	1500
18316875	63	515	0	-100	0	230	101300000	1000	0	0	-1	1500
18329435	58	516	0	-100	0	230	101300000	1000	0	0	-1	1500
18341995	60	512	0	-100	0	230	101300000	1000	0	0	-1	1500
18354555	63	518	0	-100	0	230	101300000	1000	0	0	-1	1500
18367115	60	511	0	-100	0	230	101300000	1000	0	0	-1	1500
18379675	60	515	0	-100	0	230	101300000	1000	0	0	-1	1500
18392235	63	513	0	-100	0	230	101300000	1000	0	0	-1	1500
18404795	63	515	0	-100	0	230	101300000	1000	0	0	-1	1500
18417355	63	512	0	-100	0	230	101300000	1000	0	0	-1	1500
18429915	63	513	0	-100	0	230	101300000	1000	0	0	-1	1500
18442475	67	513	0	-100	0	230	101300000	1000	0	0	-1	1500
18455035	67	514	0	-100	0	230	101300000	1000	0	0	-1	1500
18467595	67	514	0	-100	0	230	101300000	1000	0	0	-1	1500
18480155	67	511	0	-100	0	230	101300000	1000	0	0	-1	1500
18492715	70	516	0	-100	0	230	101300000	1000	0	0	-1	1500
18505275	67	511	0	-100	0	230	101300000	1000	0	0	-1	1500
18517835	70	513	0	-100	0	230	101300000	1000	0	0	-1	1500
18530395	67	510	0	-100	0	230	101300000	1000	0	0	-1	1500
18542955	67	513	0	-100	0	230	101300000	1000	0	0	-1	1500
18555515	65	514	0	-100	0	230	101300000	1000	0	0	-1	1500
18568075	67	513	0	-100	0	230	101300000	1000	0	0	-1	1500
18580635	63	511	0	-100	0	230	101300000	1000	0	0	-1	1500
18593195	60	516	0	-100	0	230	101300000	1000	0	0	-1	1500
18605755	63	511	0	-100	0	230	101300000	1000	0	0	-1	1500
18618315	63	515	0	-100	0	230	101300000	1000	0	0	-1	1500
18630875	63	518	0	-100	0	230	101300000	1000	0	0	-1	1500
18643435	63	518	0	-100	0	230	101300000	1000	0	0	-1	1500
18655995	63	515	0	-100	0	230	101300000	1000	0	0	-1	1500
18668555	63	511	0	-100	0	230	101300000	1000	0	0	-1	1500
18681115	58	515	0	-100	0	230	101300000	1000	0	0	-1	1500
18693675	60	513	0	-100	0	230	101300000	1000	0	0	-1	1500
18706235	67	513	0	-100	0	230	101300000	1000	0	0	-1	1500
18718795	67	513	0	-100	0	230	101300000	1000	0	0	-1	1500
18731355	70	517	0	-100	0	230	101300000	1000	0	0	-1	1500
18743915	63	513	0	-100	0	230	101300000	1000	0	0	-1	1500
18756475	60	515	0	-100	0	230	101300000	1000	0	0	-1	1500
18769035	60	516	0	-100	0	230	101300000	1000	0	0	-1	1500
18781595	60	514	0	-100	0	230	101300000	1000	0	0	-1	1500
18794155	60	515	0	-100	0	230	101300000	1000	0	0	-1	1500
18806715	60	516	0	-100	0	230	101300000	1000	0	0	-1	1500
18819275	63	518	0	-100	0	230	101300000	1000	0	0	-1	1500
18831835	63	513	0	-100	0	230	101300000	1000	0	0	-1	1500
18844395	63	518	0	-100	0	230	101300000	1000	0	0	-1	1500
18856955	60	518	0	-100	0	230	101300000	1000	0	0	-1	1500
18869515	63	515	0	-100	0	230	101300000	1000	0	0	-1	1500
18882075	65	510	0	-100	0	230	101300000	1000	0	0	-1	1500
18894635	65	513	0	-100	0	230	101300000	1000	0	0	-1	1500
18907195	65	513	0	-100	0	230	101300000	1000	0	0	-1	1500
18919755	70	513	0	-100	0	230	101300000	1000	0	0	-1	1500
18932315	70	513	0	-100	0	230	101300000	1000	0	0	-1	1500
18944875	65	512	0	-100	0	230	101300000	1000	0	0	-1	1500
18957435	65	517	0	-100	0	230	101300000	1000	0	0	-1	1500
18969995	63	517	0	-100	0	230	101300000	1000	0	0	-1	1500
18982555	63	514	0	-100	0	230	101300000	1000	0	0	-1	1500
18995115	60	517	0	-100	0	230	101300000	1000	0	0	-1	1500
19007675	63	514	0	-100	0	230	101300000	1000	0	0	-1	1500
19020235	63	516	0	-100	0	230	101300000	1000	0	0	-1	1500
19032795	63	516	0	-100	0	230	101300000	1000	0	0	-1	1500
19045355	65	514	0	-100	0	230	101300000	1000	0	0	-1	1500
19057915	65	512	0	-100	0	230	101300000	1000	0	0	-1	1500
19070475	67	510	0	-100	0	230	101300000	1000	0	0	-1	1500
19083035	63	514	0	-100	0	230	101300000	1000	0	0	-1	1500
19095595	60	514	0	-100	0	230	101300000	1000	0	0	-1	1500
19108155	58	515	0	-100	0	230	101300000	1000	0	0	-1	1500
19120715	65	516	0	-100	0	230	101300000	1000	0	0	-1	1500
19133275	58	515	0	-100	0	230	101300000	1000	0	0	-1	1500
19145835	65	515	0	-100	0	230	101300000	1000	0	0	-1	1500
19158395	65	514	0	-100	0	230	101300000	1000	0	0	-1	1500
19170955	67	514	0	-100	0	230	101300000	1000	0	0	-1	1500
19183515	67	514	0	-100	0	230	101300000	1000	0	0	-1	1500
19196075	67	512	0	-100	0	230	101300000	1000	0	0	-1	1500
19208635	65	514	0	-100	0	230	101300000	1000	0	0	-1	1500
19221195	67	510	0	-100	0	230	101300000	1000	0	0	-1	1500
19233755	67	514	0	-100	0	230	101300000	1000	0	0	-1	1500
19246315	63	512	0	-100	0	230	101300000	1000	0	0	-1	1500
19258875	60	514	0	-100	0	230	101300000	1000	0	0	-1	1500
19271435	60	519	0	-100	0	230	101300000	1000	0	0	-1	1500
19283995	60	511	0	-100	0	230	101300000	1000	0	0	-1	1500
19296555	65	512	0	-100	0	230	101300000	1000	0	0	-1	1500
19309115	67	513	0	-100	0	230	101300000	1000	0	0	-1	1500
19321675	67	514	0	-100	0	230	101300000	1000	0	0	-1	1500
19334235	63	512	0	-100	0	230	101300000	1000	0	0	-1	1500
19346795	65	512	0	-100	0	230	101300000	1000	0	0	-1	1500
19359355	60	518	0	-100	0	230	101300000	1000	0	0	-1	1500
19371915	63	517	0	-100	0	230	101300000	1000	0	0	-1	1500
19384475	65	516	0	-100	0	230	101300000	1000	0	0	-1	1500
19397035	67	512	0	-100	0	230	101300000	1000	0	0	-1	1500
19409595	67	510	0	-100	0	230	101300000	1000	0	0	-1	1500
19422155	65	511	0	-100	0	230	101300000	1000	0	0	-1	1500
19434715	63	514	0	-100	0	230	101300000	1000	0	0	-1	1500
19447275	60	514	0	-100	0	230	101300000	1000	0	0	-1	1500
19459835	58	516	0	-100	0	230	101300000	1000	0	0	-1	1500
19472395	65	518	0	-100	0	230	101300000	1000	0	0	-1	1500
19484955	63	513	0	-100	0	230	101300000	1000	0	0	-1	1500
19497515	63	510	0	-100	0	230	101300000	1000	0	0	-1	1500
19510075	67	514	0	-100	0	230	101300000	1000	0	0	-1	1500
19522635	67	512	0	-100	0	230	101300000	1000	0	0	-1	1500
19535195	65	511	0	-100	0	230	101300000	1000	0	0	-1	1500
19547755	67	513	0	-100	0	230	101300000	1000	0	0	-1	1500
19560315	67	515	0	-100	0	230	101300000	1000	0	0	-1	1500
19572875	70	507	0	-100	0	230	101300000	1000	0	0	-1	1500
19585435	67	510	0	-100	0	230	101300000	1000	0	0	-1	1500
19597995	70	516	0	-100	0	230	101300000	1000	0	0	-1	1500
19610555	67	516	0	-100	0	230	101300000	1000	0	0	-1	1500
19623115	63	514	0	-100	0	230	101300000	1000	0	0	-1	1500
19635675	60	515	0	-100	0	230	101300000	1000	0	0	-1	1500
19648235	58	511	0	-100	0	230	101300000	1000	0	0	-1	1500
19660795	60	518	0	-100	0	230	101300000	1000	0	0	-1	1500
19673355	60	516	0	-100	0	230	101300000	1000	0	0	-1	1500
19685915	63	514	0	-100	0	230	101300000	1000	0	0	-1	1500
19698475	63	516	0	-100	0	230	101300000	1000	0	0	-1	1500
19711035	60	512	0	-100	0	230	101300000	1000	0	0	-1	1500
19723595	63	517	0	-100	0	230	101300000	1000	0	0	-1	1500
19736155	63	514	0	-100	0	230	101300000	1000	0	0	-1	1500
19748715	65	514	0	-100	0	230	101300000	1000	0	0	-1	1500
19761275	70	513	0	-100	0	230	101300000	1000	0	0	-1	1500
19773835	65	515	0	-100	0	230	101300000	1000	0	0	-1	1500
19786395	63	519	0	-100	0	230	101300000	1000	0	0	-1	1500
19798955	60	519	0	-100	0	230	101300000	1000	0	0	-1	1500
19811515	63	515	0	-100	0	230	101300000	1000	0	0	-1	1500
19824075	63	514	0	-100	0	230	101300000	1000	0	0	-1	1500
19836635	60	516	0	-100	0	230	101300000	1000	0	0	-1	1500
19849195	63	513	0	-100	0	230	101300000	1000	0	0	-1	1500
19861755	63	514	0	-100	0	230	101300000	1000	0	0	-1	1500
19874315	65	512	0	-100	0	230	101300000	1000	0	0	-1	1500
19886875	67	512	0	-100	0	230	101300000	1000	0	0	-1	1500
19899435	70	513	0	-100	0	230	101300000	1000	0	0	-1	1500
19911995	67	518	0	-100	0	230	101300000	1000	0	0	-1	1500
19924555	70	513	0	-100	0	230	101300000	1000	0	0	-1	1500
19937115	63	514	0	-100	0	230	101300000	1000	0	0	-1	1500
19949675	58	514	0	-100	0	230	101300000	1000	0	0	-1	1500
19962235	60	515	0	-100	0	230	101300000	1000	0	0	-1	1500
19974795	60	518	0	-100	0	230	101300000	1000	0	0	-1	1500
19987355	63	518	0	-100	0	230	101300000	1000	0	0	-1	1500
19999915	65	515	0	-100	0	230	101300000	1000	0	0	-1	1500
20012475	60	514	0	-100	0	230	101300000	1000	0	0	-1	1500
20025035	65	510	0	-100	0	230	101300000	1000	0	0	-1	1500
20037595	70	516	0	-100	0	230	101300000	1000	0	0	-1	1500
20050155	60	518	0	-100	0	230	101300000	1000	0	0	-1	1500
20062715	60	515	0	-100	0	230	101300000	1000	0	0	-1	1500
20075275	67	509	0	-100	0	230	101300000	1000	0	0	-1	1500
20087835	58	515	0	-100	0	230	101300000	1000	0	0	-1	1500
20100395	60	518	0	-100	0	230	101300000	1000	0	0	-1	1500
20112955	70	511	0	-100	0	230	101300000	1000	0	0	-1	1500
20125515	60	516	0	-100	0	230	101300000	1000	0	0	-1	1500
20138075	65	513	0	-100	0	230	101300000	1000	0	0	-1	1500
20150635	67	510	0	-100	0	230	101300000	1000	0	0	-1	1500
20163195	60	513	0	-100	0	230	101300000	1000	0	0	-1	1500
20175755	63	516	0	-100	0	230	101300000	1000	0	0	-1	1500
20188315	65	512	0	-100	0	230	101300000	1000	0	0	-1	1500
20200875	65	513	0	-100	0	230	101300000	1000	0	0	-1	1500
20213435	60	519	0	-100	0	230	101300000	1000	0	0	-1	1500
20225995	60	513	0	-100	0	230	101300000	1000	0	0	-1	1500
20238555	67	509	0	-100	0	230	101300000	1000	0	0	-1	1500
20251115	60	516	0	-100	0	230	101300000	1000	0	0	-1	1500
20263675	60	515	0	-100	0	230	101300000	1000	0	0	-1	1500
20276235	65	512	0	-100	0	230	101300000	1000	0	0	-1	1500
20288795	60	513	0	-100	0	230	101300000	1000	0	0	-1	1500
20301355	63	519	0	-100	0	230	101300000	1000	0	0	-1	1500
20313915	65	514	0	-100	0	230	101300000	1000	0	0	-1	1500
20326475	70	513	0	-100	0	230	101300000	1000	0	0	-1	1500
20339035	58	516	0	-100	0	230	101300000	1000	0	0	-1	1500
20351595	60	512	0	-100	0	230	101300000	1000	0	0	-1	1500
20364155	67	514	0	-100	0	230	101300000	1000	0	0	-1	1500
20376715	60	514	0	-100	0	230	101300000	1000	0	0	-1	1500
20389275	63	514	0	-100	0	230	101300000	1000	0	0	-1	1500
20401835	65	511	0	-100	0	230	101300000	1000	0	0	-1	1500
20414395	63	514	0	-100	0	230	101300000	1000	0	0	-1	1500
20426955	63	515	0	-100	0	230	101300000	1000	0	0	-1	1500
20439515	67	514	0	-100	0	230	101300000	1000	0	0	-1	1500
20452075	70	514	0	-100	0	230	101300000	1000	0	0	-1	1500
20464635	60	516	0	-100	0	230	101300000	1000	0	0	-1	1500
20477195	63	515	0	-100	0	230	101300000	1000	0	0	-1	1500
20489755	65	515	0	-100	0	230	101300000	1000	0	0	-1	1500
20502315	67	509	0	-100	0	230	101300000	1000	0	0	-1	1500
20514875	60	514	0	-100	0	230	101300000	1000	0	0	-1	1500
20527435	65	514	0	-100	0	230	101300000	1000	0	0	-1	1500
20539995	65	514	0	-100	0	230	101300000	1000	0	0	-1	1500
20552555	67	510	0	-100	0	230	101300000	1000	0	0	-1	1500
20565115	65	514	0	-100	0	230	101300000	1000	0	0	-1	1500
20577675	60	516	0	-100	0	230	101300000	1000	0	0	-1	1500
20590235	63	512	0	-100	0	230	101300000	1000	0	0	-1	1500
20602795	67	516	0	-100	0	230	101300000	1000	0	0	-1	1500
20615355	65	508	0	-100	0	230	101300000	1000	0	0	-1	1500
20627915	60	515	0	-100	0	230	101300000	1000	0	0	-1	1500
20640475	63	518	0	-100	0	230	101300000	1000	0	0	-1	1500
20653035	65	512	0	-100	0	230	101300000	1000	0	0	-1	1500
20665595	70	508	0	-100	0	230	101300000	1000	0	0	-1	1500
20678155	60	516	0	-100	0	230	101300000	1000	0	0	-1	1500
20690715	63	519	0	-100	0	230	101300000	1000	0	0	-1	1500
20703275	63	513	0	-100	0	230	101300000	1000	0	0	-1	1500
20715835	70	512	0	-100	0	230	101300000	1000	0	0	-1	1500
20728395	58	516	0	-100	0	230	101300000	1000	0	0	-1	1500
20740955	60	514	0	-100	0	230	101300000	1000	0	0	-1	1500
20753515	63	516	0	-100	0	230	101300000	1000	0	0	-1	1500
20766075	70	516	0	-100	0	230	101300000	1000	0	0	-1	1500
20778635	60	515	0	-100	0	230	101300000	1000	0	0	-1	1500
20791195	60	516	0	-100	0	230	101300000	1000	0	0	-1	1500
20803755	67	512	0	-100	0	230	101300000	1000	0	0	-1	1500
20816315	67	514	0	-100	0	230	101300000	1000	0	0	-1	1500
20828875	67	512	0	-100	0	230	101300000	1000	0	0	-1	1500
20841435	63	512	0	-100	0	230	101300000	1000	0	0	-1	1500
20853995	60	516	0	-100	0	230	101300000	1000	0	0	-1	1500
20866555	60	514	0	-100	0	230	101300000	1000	0	0	-1	1500
20879115	63	516	0	-100	0	230	101300000	1000	0	0	-1	1500
20891675	60	515	0	-100	0	230	101300000	1000	0	0	-1	1500
20904235	60	517	0	-100	0	230	101300000	1000	0	0	-1	1500
20916795	60	515	0	-100	0	230	101300000	1000	0	0	-1	1500
20929355	63	517	0	-100	0	230	101300000	1000	0	0	-1	1500
20941915	60	513	0	-100	0	230	101300000	1000	0	0	-1	1500
20954475	63	514	0	-100	0	230	101300000	1000	0	0	-1	1500
20967035	63	515	0	-100	0	230	101300000	1000	0	0	-1	1500
20979595	63	512	0	-100	0	230	101300000	1000	0	0	-1	1500
20992155	65	514	0	-100	0	230	101300000	1000	0	0	-1	1500
21004715	67	512	0	-100	0	230	101300000	1000	0	0	-1	1500
21017275	67	514	0	-100	0	230	101300000	1000	0	0	-1	1500
21029835	67	515	0	-100	0	230	101300000	1000	0	0	-1	1500
21042395	67	513	0	-100	0	230	101300000	1000	0	0	-1	1500
21054955	63	516	0	-100	0	230	101300000	1000	0	0	-1	1500
21067515	60	514	0	-100	0	230	101300000	1000	0	0	-1	1500
21080075	63	517	0	-100	0	230	101300000	1000	0	0	-1	1500
21092635	63	516	0	-100	0	230	101300000	1000	0	0	-1	1500
21105195	60	514	0	-100	0	230	101300000	1000	0	0	-1	1500
21117755	63	515	0	-100	0	230	101300000	1000	0	0	-1	1500
21130315	60	518	0	-100	0	230	101300000	1000	0	0	-1	1500
21142875	63	517	0	-100	0	230	101300000	1000	0	0	-1	1500
21155435	60	516	0	-100	0	230	101300000	1000	0	0	-1	1500
21167995	63	515	0	-100	0	230	101300000	1000	0	0	-1	1500
21180555	63	517	0	-100	0	230	101300000	1000	0	0	-1	1500
21193115	63	520	0	-100	0	230	101300000	1000	0	0	-1	1500
21205675	60	515	0	-100	0	230	101300000	1000	0	0	-1	1500
21218235	58	518	0	-100	0	230	101300000	1000	0	0	-1	1500
21230795	63	515	0	-100	0	230	101300000	1000	0	0	-1	1500
21243355	60	518	0	-100	0	230	101300000	1000	0	0	-1	1500
21255915	63	517	0	-100	0	230	101300000	1000	0	0	-1	1500
21268475	60	519	0	-100	0	230	101300000	1000	0	0	-1	1500
21281035	60	515	0	-100	0	230	101300000	1000	0	0	-1	1500
21293595	60	513	0	-100	0	230	101300000	1000	0	0	-1	1500
21306155	58	514	0	-100	0	230	101300000	1000	0	0	-1	1500
21318715	60	513	0	-100	0	230	101300000	1000	0	0	-1	1500
21331275	60	518	0	-100	0	230	101300000	1000	0	0	-1	1500
21343835	63	515	0	-100	0	230	101300000	1000	0	0	-1	1500
21356395	60	520	0	-100	0	230	101300000	1000	0	0	-1	1500
21368955	65	513	0	-100	0	230	101300000	1000	0	0	-1	1500
21381515	65	512	0	-100	0	230	101300000	1000	0	0	-1	1500
21394075	67	515	0	-100	0	230	101300000	1000	0	0	-1	1500
21406635	70	515	0	-100	0	230	101300000	1000	0	0	-1	1500
21419195	67	510	0	-100	0	230	101300000	1000	0	0	-1	1500
21431755	70	515	0	-100	0	230	101300000	1000	0	0	-1	1500
21444315	67	514	0	-100	0	230	101300000	1000	0	0	-1	1500
21456875	70	523	0	-100	0	230	101300000	1000	0	0	-1	1500
21469435	67	514	0	-100	0	230	101300000	1000	0	0	-1	1500
21481995	70	518	0	-100	0	230	101300000	1000	0	0	-1	1500
21494555	65	513	0	-100	0	230	101300000	1000	0	0	-1	1500
21507115	60	514	0	-100	0	230	101300000	1000	0	0	-1	1500
21519675	63	517	0	-100	0	230	101300000	1000	0	0	-1	1500
21532235	60	518	0	-100	0	230	101300000	1000	0	0	-1	1500
21544795	60	516	0	-100	0	230	101300000	1000	0	0	-1	1500
21557355	63	518	0	-100	0	230	101300000	1000	0	0	-1	1500
21569915	63	518	0	-100	0	230	101300000	1000	0	0	-1	1500
21582475	60	517	0	-100	0	230	101300000	1000	0	0	-1	1500
21595035	60	514	0	-100	0	230	101300000	1000	0	0	-1	1500
21607595	63	512	0	-100	0	230	101300000	1000	0	0	-1	1500
21620155	60	516	0	-100	0	230	101300000	1000	0	0	-1	1500
21632715	63	512	0	-100	0	230	101300000	1000	0	0	-1	1500
21645275	63	512	0	-100	0	230	101300000	1000	0	0	-1	1500
21657835	65	517	0	-100	0	230	101300000	1000	0	0	-1	1500
21670395	63	516	0	-100	0	230	101300000	1000	0	0	-1	1500
21682955	60	514	0	-100	0	230	101300000	1000	0	0	-1	1500
21695515	60	518	0	-100	0	230	101300000	1000	0	0	-1	1500
21708075	63	516	0	-100	0	230	101300000	1000	0	0	-1	1500
21720635	60	514	0	-100	0	230	101300000	1000	0	0	-1	1500
21733195	63	514	0	-100	0	230	101300000	1000	0	0	-1	1500
21745755	63	513	0	-100	0	230	101300000	1000	0	0	-1	1500
21758315	63	514	0	-100	0	230	101300000	1000	0	0	-1	1500
21770875	63	513	0	-100	0	230	101300000	1000	0	0	-1	1500
21783435	63	516	0	-100	0	230	101300000	1000	0	0	-1	1500
21795995	63	512	0	-100	0	230	101300000	1000	0	0	-1	1500
21808555	65	518	0	-100	0	230	101300000	1000	0	0	-1	1500
21821115	60	517	0	-100	0	230	101300000	1000	0	0	-1	1500
21833675	63	517	0	-100	0	230	101300000	1000	0	0	-1	1500
21846235	63	515	0	-100	0	230	101300000	1000	0	0	-1	1500
21858795	60	513	0	-100	0	230	101300000	1000	0	0	-1	1500
21871355	60	514	0	-100	0	230	101300000	1000	0	0	-1	1500
21883915	63	515	0	-100	0	230	101300000	1000	0	0	-1	1500
21896475	60	517	0	-100	0	230	101300000	1000	0	0	-1	1500
21909035	60	511	0	-100	0	230	101300000	1000	0	0	-1	1500
21921595	63	514	0	-100	0	230	101300000	1000	0	0	-1	1500
21934155	58	514	0	-100	0	230	101300000	1000	0	0	-1	1500
21946715	63	514	0	-100	0	230	101300000	1000	0	0	-1	1500
21959275	63	514	0	-100	0	230	101300000	1000	0	0	-1	1500
21971835	60	514	0	-100	0	230	101300000	1000	0	0	-1	1500
21984395	60	517	0	-100	0	230	101300000	1000	0	0	-1	1500
21996955	63	516	0	-100	0	230	101300000	1000	0	0	-1	1500
22009515	60	514	0	-100	0	230	101300000	1000	0	0	-1	1500
22022075	65	513	0	-100	0	230	101300000	1000	0	0	-1	1500
22034635	67	514	0	-100	0	230	101300000	1000	0	0	-1	1500
22047195	65	513	0	-100	0	230	101300000	1000	0	0	-1	1500
22059755	65	515	0	-100	0	230	101300000	1000	0	0	-1	1500
22072315	67	511	0	-100	0	230	101300000	1000	0	0	-1	1500
22084875	65	512	0	-100	0	230	101300000	1000	0	0	-1	1500
22097435	63	514	0	-100	0	230	101300000	1000	0	0	-1	1500
22109995	65	514	0	-100	0	230	101300000	1000	0	0	-1	1500
22122555	67	513	0	-100	0	230	101300000	1000	0	0	-1	1500
22135115	67	510	0	-100	0	230	101300000	1000	0	0	-1	1500
22147675	70	515	0	-100	0	230	101300000	1000	0	0	-1	1500
22160235	67	517	0	-100	0	230	101300000	1000	0	0	-1	1500
22172795	63	512	0	-100	0	230	101300000	1000	0	0	-1	1500
22185355	63	513	0	-100	0	230	101300000	1000	0	0	-1	1500
22197915	70	512	0	-100	0	230	101300000	1000	0	0	-1	1500
22210475	58	516	0	-100	0	230	101300000	1000	0	0	-1	1500
22223035	60	515	0	-100	0	230	101300000	1000	0	0	-1	1500
22235595	67	510	0	-100	0	230	101300000	1000	0	0	-1	1500
22248155	58	519	0	-100	0	230	101300000	1000	0	0	-1	1500
22260715	60	515	0	-100	0	230	101300000	1000	0	0	-1	1500
22273275	65	511	0	-100	0	230	101300000	1000	0	0	-1	1500
22285835	70	514	0	-100	0	230	101300000	1000	0	0	-1	1500
22298395	60	513	0	-100	0	230	101300000	1000	0	0	-1	1500
22310955	63	519	0	-100	0	230	101300000	1000	0	0	-1	1500
22323515	67	511	0	-100	0	230	101300000	1000	0	0	-1	1500
22336075	63	514	0	-100	0	230	101300000	1000	0	0	-1	1500
22348635	63	513	0	-100	0	230	101300000	1000	0	0	-1	1500
22361195	67	514	0	-100	0	230	101300000	1000	0	0	-1	1500
22373755	58	518	0	-100	0	230	101300000	1000	0	0	-1	1500
22386315	65	513	0	-100	0	230	101300000	1000	0	0	-1	1500
22398875	60	516	0	-100	0	230	101300000	1000	0	0	-1	1500
22411435	60	517	0	-100	0	230	101300000	1000	0	0	-1	1500
22423995	67	517	0	-100	0	230	101300000	1000	0	0	-1	1500
22436555	58	515	0	-100	0	230	101300000	1000	0	0	-1	1500
22449115	63	518	0	-100	0	230	101300000	1000	0	0	-1	1500
22461675	67	514	0	-100	0	230	101300000	1000	0	0	-1	1500
22474235	60	516	0	-100	0	230	101300000	1000	0	0	-1	1500
22486795	63	513	0	-100	0	230	101300000	1000	0	0	-1	1500
22499355	70	514	0	-100	0	230	101300000	1000	0	0	-1	1500
22511915	60	518	0	-100	0	230	101300000	1000	0	0	-1	1500
22524475	60	517	0	-100	0	230	101300000	1000	0	0	-1	1500
22537035	67	510	0	-100	0	230	101300000	1000	0	0	-1	1500
22549595	63	517	0	-100	0	230	101300000	1000	0	0	-1	1500
22562155	65	515	0	-100	0	230	101300000	1000	0	0	-1	1500
22574715	67	514	0	-100	0	230	101300000	1000	0	0	-1	1500
22587275	63	513	0	-100	0	230	101300000	1000	0	0	-1	1500
22599835	67	513	0	-100	0	230	101300000	1000	0	0	-1	1500
22612395	60	512	0	-100	0	230	101300000	1000	0	0	-1	1500
22624955	60	517	0	-100	0	230	101300000	1000	0	0	-1	1500
22637515	67	520	0	-100	0	230	101300000	1000	0	0	-1	1500
22650075	63	516	0	-100	0	230	101300000	1000	0	0	-1	1500
22662635	63	520	0	-100	0	230	101300000	1000	0	0	-1	1500
22675195	60	514	0	-100	0	230	101300000	1000	0	0	-1	1500
22687755	67	511	0	-100	0	230	101300000	1000	0	0	-1	1500
22700315	70	514	0	-100	0	230	101300000	1000	0	0	-1	1500
22712875	60	514	0	-100	0	230	101300000	1000	0	0	-1	1500
22725435	63	518	0	-100	0	230	101300000	1000	0	0	-1	1500
22737995	60	511	0	-100	0	230	101300000	1000	0	0	-1	1500
22750555	67	513	0	-100	0	230	101300000	1000	0	0	-1	1500
22763115	67	511	0	-100	0	230	101300000	1000	0	0	-1	1500
22775675	65	513	0	-100	0	230	101300000	1000	0	0	-1	1500
22788235	60	516	0	-100	0	230	101300000	1000	0	0	-1	1500
22800795	60	516	0	-100	0	230	101300000	1000	0	0	-1	1500
22813355	63	512	0	-100	0	230	101300000	1000	0	0	-1	1500
22825915	67	510	0	-100	0	230	101300000	1000	0	0	-1	1500
22838475	63	515	0	-100	0	230	101300000	1000	0	0	-1	1500
22851035	60	515	0	-100	0	230	101300000	1000	0	0	-1	1500
22863595	60	515	0	-100	0	230	101300000	1000	0	0	-1	1500
22876155	65	508	0	-100	0	230	101300000	1000	0	0	-1	1500
22888715	63	514	0	-100	0	230	101300000	1000	0	0	-1	1500
22901275	63	514	0	-100	0	230	101300000	1000	0	0	-1	1500
22913835	63	511	0	-100	0	230	101300000	1000	0	0	-1	1500
22926395	67	516	0	-100	0	230	101300000	1000	0	0	-1	1500
22938955	67	515	0	-100	0	230	101300000	1000	0	0	-1	1500
22951515	60	517	0	-100	0	230	101300000	1000	0	0	-1	1500
22964075	60	519	0	-100	0	230	101300000	1000	0	0	-1	1500
22976635	63	520	0	-100	0	230	101300000	1000	0	0	-1	1500
22989195	63	512	0	-100	0	230	101300000	1000	0	0	-1	1500
23001755	63	512	0	-100	0	230	101300000	1000	0	0	-1	1500
23014315	65	510	0	-100	0	230	101300000	1000	0	0	-1	1500
23026875	67	514	0	-100	0	230	101300000	1000	0	0	-1	1500
23039435	67	515	0	-100	0	230	101300000	1000	0	0	-1	1500
23051995	60	514	0	-100	0	230	101300000	1000	0	0	-1	1500
23064555	60	516	0	-100	0	230	101300000	1000	0	0	-1	1500
23077115	63	510	0	-100	0	230	101300000	1000	0	0	-1	1500
23089675	65	515	0	-100	0	230	101300000	1000	0	0	-1	1500
23102235	67	513	0	-100	0	230	101300000	1000	0	0	-1	1500
23114795	67	515	0	-100	0	230	101300000	1000	0	0	-1	1500
23127355	60	515	0	-100	0	230	101300000	1000	0	0	-1	1500
23139915	65	515	0	-100	0	230	101300000	1000	0	0	-1	1500
23152475	67	515	0	-100	0	230	101300000	1000	0	0	-1	1500
23165035	65	515	0	-100	0	230	101300000	1000	0	0	-1	1500
23177595	63	516	0	-100	0	230	101300000	1000	0	0	-1	1500
23190155	60	514	0	-100	0	230	101300000	1000	0	0	-1	1500
23202715	67	513	0	-100	0	230	101300000	1000	0	0	-1	1500
23215275	65	515	0	-100	0	230	101300000	1000	0	0	-1	1500
23227835	60	516	0	-100	0	230	101300000	1000	0	0	-1	1500
23240395	65	514	0	-100	0	230	101300000	1000	0	0	-1	1500
23252955	72	518	0	-100	0	230	101300000	1000	0	0	-1	1500
23265515	60	516	0	-100	0	230	101300000	1000	0	0	-1	1500
23278075	63	515	0	-100	0	230	101300000	1000	0	0	-1	1500
23290635	70	511	0	-100	0	230	101300000	1000	0	0	-1	1500
23303195	60	515	0	-100	0	230	101300000	1000	0	0	-1	1500
23315755	63	515	0	-100	0	230	101300000	1000	0	0	-1	1500
23328315	65	514	0	-100	0	230	101300000	1000	0	0	-1	1500
23340875	67	516	0	-100	0	230	101300000	1000	0	0	-1	1500
23353435	60	519	0	-100	0	230	101300000	1000	0	0	-1	1500
23365995	60	509	0	-100	0	230	101300000	1000	0	0	-1	1500
23378555	67	516	0	-100	0	230	101300000	1000	0	0	-1	1500
23391115	63	512	0	-100	0	230	101300000	1000	0	0	-1	1500
23403675	60	516	0	-100	0	230	101300000	1000	0	0	-1	1500
23416235	63	514	0	-100	0	230	101300000	1000	0	0	-1	1500
23428795	70	513	0	-100	0	230	101300000	1000	0	0	-1	1500
23441355	63	515	0	-100	0	230	101300000	1000	0	0	-1	1500
23453915	60	516	0	-100	0	230	101300000	1000	0	0	-1	1500
23466475	67	511	0	-100	0	230	101300000	1000	0	0	-1	1500
23479035	60	516	0	-100	0	230	101300000	1000	0	0	-1	1500
23491595	63	516	0	-100	0	230	101300000	1000	0	0	-1	1500
23504155	67	514	0	-100	0	230	101300000	1000	0	0	-1	1500
23516715	67	514	0	-100	0	230	101300000	1000	0	0	-1	1500
23529275	60	517	0	-100	0	230	101300000	1000	0	0	-1	1500
23541835	60	514	0	-100	0	230	101300000	1000	0	0	-1	1500
23554395	67	514	0	-100	0	230	101300000	1000	0	0	-1	1500
23566955	63	515	0	-100	0	230	101300000	1000	0	0	-1	1500
23579515	63	515	0	-100	0	230	101300000	1000	0	0	-1	1500
23592075	65	513	0	-100	0	230	101300000	1000	0	0	-1	1500
23604635	70	510	0	-100	0	230	101300000	1000	0	0	-1	1500
23617195	60	514	0	-100	0	230	101300000	1000	0	0	-1	1500
23629755	63	514	0	-100	0	230	101300000	1000	0	0	-1	1500
23642315	67	513	0	-100	0	230	101300000	1000	0	0	-1	1500
23654875	63	514	0	-100	0	230	101300000	1000	0	0	-1	1500
23667435	60	518	0	-100	0	230	101300000	1000	0	0	-1	1500
23679995	65	514	0	-100	0	230	101300000	1000	0	0	-1	1500
23692555	67	514	0	-100	0	230	101300000	1000	0	0	-1	1500
23705115	63	518	0	-100	0	230	101300000	1000	0	0	-1	1500
23717675	60	516	0	-100	0	230	101300000	1000	0	0	-1	1500
23730235	60	511	0	-100	0	230	101300000	1000	0	0	-1	1500
23742795	72	514	0	-100	0	230	101300000	1000	0	0	-1	1500
23755355	70	512	0	-100	0	230	101300000	1000	0	0	-1	1500
23767915	65	514	0	-100	0	230	101300000	1000	0	0	-1	1500
23780475	63	515	0	-100	0	230	101300000	1000	0	0	-1	1500
23793035	60	515	0	-100	0	230	101300000	1000	0	0	-1	1500
23805595	67	515	0	-100	0	230	101300000	1000	0	0	-1	1500
23818155	70	511	0	-100	0	230	101300000	1000	0	0	-1	1500
23830715	63	515	0	-100	0	230	101300000	1000	0	0	-1	1500
23843275	60	515	0	-100	0	230	101300000	1000	0	0	-1	1500
23855835	60	517	0	-100	0	230	101300000	1000	0	0	-1	1500
23868395	60	516	0	-100	0	230	101300000	1000	0	0	-1	1500
23880955	63	518	0	-100	0	230	101300000	1000	0	0	-1	1500
23893515	63	518	0	-100	0	230	101300000	1000	0	0	-1	1500
23906075	63	517	0	-100	0	230	101300000	1000	0	0	-1	1500
23918635	60	518	0	-100	0	230	101300000	1000	0	0	-1	1500
23931195	63	514	0	-100	0	230	101300000	1000	0	0	-1	1500
23943755	65	511	0	-100	0	230	101300000	1000	0	0	-1	1500
23956315	67	512	0	-100	0	230	101300000	1000	0	0	-1	1500
23968875	67	514	0	-100	0	230	101300000	1000	0	0	-1	1500
23981435	63	516	0	-100	0	230	101300000	1000	0	0	-1	1500
23993995	63	513	0	-100	0	230	101300000	1000	0	0	-1	1500
24006555	63	513	0	-100	0	230	101300000	1000	0	0	-1	1500
24019115	63	515	0	-100	0	230	101300000	1000	0	0	-1	1500
24031675	67	515	0	-100	0	230	101300000	1000	0	0	-1	1500
24044235	67	514	0	-100	0	230	101300000	1000	0	0	-1	1500
24056795	63	515	0	-100	0	230	101300000	1000	0	0	-1	1500
24069355	60	516	0	-100	0	230	101300000	1000	0	0	-1	1500
24081915	65	512	0	-100	0	230	101300000	1000	0	0	-1	1500
24094475	63	513	0	-100	0	230	101300000	1000	0	0	-1	1500
24107035	67	513	0	-100	0	230	101300000	1000	0	0	-1	1500
24119595	67	515	0	-100	0	230	101300000	1000	0	0	-1	1500
24132155	60	516	0	-100	0	230	101300000	1000	0	0	-1	1500
24144715	63	514	0	-100	0	230	101300000	1000	0	0	-1	1500
24157275	65	512	0	-100	0	230	101300000	1000	0	0	-1	1500
24169835	70	514	0	-100	0	230	101300000	1000	0	0	-1	1500
24182395	67	512	0	-100	0	230	101300000	1000	0	0	-1	1500
24194955	63	515	0	-100	0	230	101300000	1000	0	0	-1	1500
24207515	60	516	0	-100	0	230	101300000	1000	0	0	-1	1500
24220075	70	519	0	-100	0	230	101300000	1000	0	0	-1	1500
24232635	60	513	0	-100	0	230	101300000	1000	0	0	-1	1500
24245195	63	517	0	-100	0	230	101300000	1000	0	0	-1	1500
24257755	67	514	0	-100	0	230	101300000	1000	0	0	-1	1500
24270315	63	513	0	-100	0	230	101300000	1000	0	0	-1	1500
24282875	70	511	0	-100	0	230	101300000	1000	0	0	-1	1500
24295435	63	516	0	-100	0	230	101300000	1000	0	0	-1	1500
24307995	67	513	0	-100	0	230	101300000	1000	0	0	-1	1500
24320555	63	515	0	-100	0	230	101300000	1000	0	0	-1	1500
24333115	67	513	0	-100	0	230	101300000	1000	0	0	-1	1500
24345675	60	515	0	-100	0	230	101300000	1000	0	0	-1	1500
24358235	65	513	0	-100	0	230	101300000	1000	0	0	-1	1500
24370795	63	514	0	-100	0	230	101300000	1000	0	0	-1	1500
24383355	60	519	0	-100	0	230	101300000	1000	0	0	-1	1500
24395915	65	514	0	-100	0	230	101300000	1000	0	0	-1	1500
24408475	63	518	0	-100	0	230	101300000	1000	0	0	-1	1500
24421035	63	511	0	-100	0	230	101300000	1000	0	0	-1	1500
24433595	60	516	0	-100	0	230	101300000	1000	0	0	-1	1500
24446155	63	515	0	-100	0	230	101300000	1000	0	0	-1	1500
24458715	63	517	0	-100	0	230	101300000	1000	0	0	-1	1500
24471275	63	514	0	-100	0	230	101300000	1000	0	0	-1	1500
24483835	60	517	0	-100	0	230	101300000	1000	0	0	-1	1500
24496395	60	511	0	-100	0	230	101300000	1000	0	0	-1	1500
24508955	63	515	0	-100	0	230	101300000	1000	0	0	-1	1500
24521515	58	515	0	-100	0	230	101300000	1000	0	0	-1	1500
24534075	67	514	0	-100	0	230	101300000	1000	0	0	-1	1500
24546635	63	514	0	-100	0	230	101300000	1000	0	0	-1	1500
24559195	70	514	0	-100	0	230	101300000	1000	0	0	-1	1500
24571755	60	515	0	-100	0	230	101300000	1000	0	0	-1	1500
24584315	67	511	0	-100	0	230	101300000	1000	0	0	-1	1500
24596875	60	515	0	-100	0	230	101300000	1000	0	0	-1	1500
24609435	65	513	0	-100	0	230	101300000	1000	0	0	-1	1500
24621995	63	512	0	-100	0	230	101300000	1000	0	0	-1	1500
24634555	63	514	0	-100	0	230	101300000	1000	0	0	-1	1500
24647115	67	512	0	-100	0	230	101300000	1000	0	0	-1	1500
24659675	60	516	0	-100	0	230	101300000	1000	0	0	-1	1500
24672235	65	512	0	-100	0	230	101300000	1000	0	0	-1	1500
24684795	67	516	0	-100	0	230	101300000	1000	0	0	-1	1500
24697355	63	516	0	-100	0	230	101300000	1000	0	0	-1	1500
24709915	65	514	0	-100	0	230	101300000	1000	0	0	-1	1500
24722475	65	514	0	-100	0	230	101300000	1000	0	0	-1	1500
24735035	63	512	0	-100	0	230	101300000	1000	0	0	-1	1500
24747595	67	510	0	-100	0	230	101300000	1000	0	0	-1	1500
24760155	58	515	0	-100	0	230	101300000	1000	0	0	-1	1500
24772715	67	512	0	-100	0	230	101300000	1000	0	0	-1	1500
24785275	60	516	0	-100	0	230	101300000	1000	0	0	-1	1500
24797835	65	512	0	-100	0	230	101300000	1000	0	0	-1	1500
24810395	60	513	0	-100	0	230	101300000	1000	0	0	-1	1500
24822955	67	510	0	-100	0	230	101300000	1000	0	0	-1	1500
24835515	60	515	0	-100	0	230	101300000	1000	0	0	-1	1500
24848075	63	517	0	-100	0	230	101300000	1000	0	0	-1	1500
24860635	67	515	0	-100	0	230	101300000	1000	0	0	-1	1500
24873195	63	517	0	-100	0	230	101300000	1000	0	0	-1	1500
24885755	67	514	0	-100	0	230	101300000	1000	0	0	-1	1500
24898315	60	517	0	-100	0	230	101300000	1000	0	0	-1	1500
24910875	67	513	0	-100	0	230	101300000	1000	0	0	-1	1500
24923435	63	517	0	-100	0	230	101300000	1000	0	0	-1	1500
24935995	67	517	0	-100	0	230	101300000	1000	0	0	-1	1500
24948555	60	513	0	-100	0	230	101300000	1000	0	0	-1	1500
24961115	65	514	0	-100	0	230	101300000	1000	0	0	-1	1500
24973675	60	517	0	-100	0	230	101300000	1000	0	0	-1	1500
24986235	70	516	0	-100	0	230	101300000	1000	0	0	-1	1500
24998795	65	514	0	-100	0	230	101300000	1000	0	0	-1	1500
25011355	67	512	0	-100	0	230	101300000	1000	0	0	-1	1500
25023915	60	516	0	-100	0	230	101300000	1000	0	0	-1	1500
25036475	70	514	0	-100	0	230	101300000	1000	0	0	-1	1500
25049035	60	516	0	-100	0	230	101300000	1000	0	0	-1	1500
25061595	65	515	0	-100	0	230	101300000	1000	0	0	-1	1500
25074155	60	515	0	-100	0	230	101300000	1000	0	0	-1	1500
25086715	63	514	0	-100	0	230	101300000	1000	0	0	-1	1500
25099275	67	510	0	-100	0	230	101300000	1000	0	0	-1	1500
25111835	60	514	0	-100	0	230	101300000	1000	0	0	-1	1500
25124395	67	516	0	-100	0	230	101300000	1000	0	0	-1	1500
25136955	60	522	0	-100	0	230	101300000	1000	0	0	-1	1500
25149515	67	514	0	-100	0	230	101300000	1000	0	0	-1	1500
25162075	63	513	0	-100	0	230	101300000	1000	0	0	-1	1500
25174635	63	516	0	-100	0	230	101300000	1000	0	0	-1	1500
25187195	67	517	0	-100	0	230	101300000	1000	0	0	-1	1500
25199755	65	511	0	-100	0	230	101300000	1000	0	0	-1	1500
25212315	67	512	0	-100	0	230	101300000	1000	0	0	-1	1500
25224875	60	516	0	-100	0	230	101300000	1000	0	0	-1	1500
25237435	65	511	0	-100	0	230	101300000	1000	0	0	-1	1500
25249995	63	519	0	-100	0	230	101300000	1000	0	0	-1	1500
25262555	63	515	0	-100	0	230	101300000	1000	0	0	-1	1500
25275115	63	512	0	-100	0	230	101300000	1000	0	0	-1	1500
25287675	60	514	0	-100	0	230	101300000	1000	0	0	-1	1500
25300235	70	509	0	-100	0	230	101300000	1000	0	0	-1	1500
25312795	60	525	0	-100	0	230	101300000	1000	0	0	-1	1500
25325355	67	516	0	-100	0	230	101300000	1000	0	0	-1	1500
25337915	60	515	0	-100	0	230	101300000	1000	0	0	-1	1500
25350475	67	513	0	-100	0	230	101300000	1000	0	0	-1	1500
25363035	60	512	0	-100	0	230	101300000	1000	0	0	-1	1500
25375595	63	512	0	-100	0	230	101300000	1000	0	0	-1	1500
25388155	67	516	0	-100	0	230	101300000	1000	0	0	-1	1500
25400715	65	513	0	-100	0	230	101300000	1000	0	0	-1	1500
25413275	70	516	0	-100	0	230	101300000	1000	0	0	-1	1500
25425835	63	510	0	-100	0	230	101300000	1000	0	0	-1	1500
25438395	67	511	0	-100	0	230	101300000	1000	0	0	-1	1500
25450955	60	517	0	-100	0	230	101300000	1000	0	0	-1	1500
25463515	65	515	0	-100	0	230	101300000	1000	0	0	-1	1500
25476075	60	513	0	-100	0	230	101300000	1000	0	0	-1	1500
25488635	65	512	0	-100	0	230	101300000	1000	0	0	-1	1500
25501195	67	517	0	-100	0	230	101300000	1000	0	0	-1	1500
25513755	63	516	0	-100	0	230	101300000	1000	0	0	-1	1500
25526315	67	513	0	-100	0	230	101300000	1000	0	0	-1	1500
25538875	60	515	0	-100	0	230	101300000	1000	0	0	-1	1500
25551435	67	512	0	-100	0	230	101300000	1000	0	0	-1	1500
25563995	60	513	0	-100	0	230	101300000	1000	0	0	-1	1500
25576555	63	512	0	-100	0	230	101300000	1000	0	0	-1	1500
25589115	60	514	0	-100	0	230	101300000	1000	0	0	-1	1500
25601675	67	509	0	-100	0	230	101300000	1000	0	0	-1	1500
25614235	60	513	0	-100	0	230	101300000	1000	0	0	-1	1500
25626795	65	512	0	-100	0	230	101300000	1000	0	0	-1	1500
25639355	63	518	0	-100	0	230	101300000	1000	0	0	-1	1500
25651915	67	510	0	-100	0	230	101300000	1000	0	0	-1	1500
25664475	63	512	0	-100	0	230	101300000	1000	0	0	-1	1500
25677035	67	513	0	-100	0	230	101300000	1000	0	0	-1	1500
25689595	58	517	0	-100	0	230	101300000	1000	0	0	-1	1500
25702155	63	515	0	-100	0	230	101300000	1000	0	0	-1	1500
25714715	60	519	0	-100	0	230	101300000	1000	0	0	-1	1500
25727275	70	515	0	-100	0	230	101300000	1000	0	0	-1	1500
25739835	63	513	0	-100	0	230	101300000	1000	0	0	-1	1500
25752395	70	513	0	-100	0	230	101300000	1000	0	0	-1	1500
25764955	60	516	0	-100	0	230	101300000	1000	0	0	-1	1500
25777515	65	513	0	-100	0	230	101300000	1000	0	0	-1	1500
25790075	67	512	0	-100	0	230	101300000	1000	0	0	-1	1500
25802635	60	515	0	-100	0	230	101300000	1000	0	0	-1	1500
25815195	63	513	0	-100	0	230	101300000	1000	0	0	-1	1500
25827755	65	514	0	-100	0	230	101300000	1000	0	0	-1	1500
25840315	70	516	0	-100	0	230	101300000	1000	0	0	-1	1500
25852875	60	513	0	-100	0	230	101300000	1000	0	0	-1	1500
25865435	63	514	0	-100	0	230	101300000	1000	0	0	-1	1500
25877995	60	516	0	-100	0	230	101300000	1000	0	0	-1	1500
25890555	70	514	0	-100	0	230	101300000	1000	0	0	-1	1500
25903115	63	517	0	-100	0	230	101300000	1000	0	0	-1	1500
25915675	67	510	0	-100	0	230	101300000	1000	0	0	-1	1500
25928235	65	513	0	-100	0	230	101300000	1000	0	0	-1	1500
25940795	63	515	0	-100	0	230	101300000	1000	0	0	-1	1500
25953355	67	513	0	-100	0	230	101300000	1000	0	0	-1	1500
25965915	60	517	0	-100	0	230	101300000	1000	0	0	-1	1500
25978475	63	512	0	-100	0	230	101300000	1000	0	0	-1	1500
25991035	70	515	0	-100	0	230	101300000	1000	0	0	-1	1500
26003595	63	514	0	-100	0	230	101300000	1000	0	0	-1	1500
26016155	67	513	0	-100	0	230	101300000	1000	0	0	-1	1500
26028715	60	516	0	-100	0	230	101300000	1000	0	0	-1	1500
26041275	65	514	0	-100	0	230	101300000	1000	0	0	-1	1500
26053835	60	514	0	-100	0	230	101300000	1000	0	0	-1	1500
26066395	65	514	0	-100	0	230	101300000	1000	0	0	-1	1500
26078955	63	513	0	-100	0	230	101300000	1000	0	0	-1	1500
26091515	63	518	0	-100	0	230	101300000	1000	0	0	-1	1500
26104075	67	513	0	-100	0	230	101300000	1000	0	0	-1	1500
26116635	63	514	0	-100	0	230	101300000	1000	0	0	-1	1500
26129195	70	510	0	-100	0	230	101300000	1000	0	0	-1	1500
26141755	63	519	0	-100	0	230	101300000	1000	0	0	-1	1500
26154315	67	509	0	-100	0	230	101300000	1000	0	0	-1	1500
26166875	60	514	0	-100	0	230	101300000	1000	0	0	-1	1500
26179435	67	509	0	-100	0	230	101300000	1000	0	0	-1	1500
26191995	63	515	0	-100	0	230	101300000	1000	0	0	-1	1500
26204555	67	515	0	-100	0	230	101300000	1000	0	0	-1	1500
26217115	60	516	0	-100	0	230	101300000	1000	0	0	-1	1500
26229675	63	513	0	-100	0	230	101300000	1000	0	0	-1	1500
26242235	67	515	0	-100	0	230	101300000	1000	0	0	-1	1500
26254795	63	515	0	-100	0	230	101300000	1000	0	0	-1	1500
26267355	67	514	0	-100	0	230	101300000	1000	0	0	-1	1500
26279915	63	515	0	-100	0	230	101300000	1000	0	0	-1	1500
26292475	60	516	0	-100	0	230	101300000	1000	0	0	-1	1500
26305035	70	509	0	-100	0	230	101300000	1000	0	0	-1	1500
26317595	58	516	0	-100	0	230	101300000	1000	0	0	-1	1500
26330155	58	517	0	-100	0	230	101300000	1000	0	0	-1	1500
26342715	67	512	0	-100	0	230	101300000	1000	0	0	-1	1500
26355275	60	515	0	-100	0	230	101300000	1000	0	0	-1	1500
26367835	60	520	0	-100	0	230	101300000	1000	0	0	-1	1500
26380395	70	510	0	-100	0	230	101300000	1000	0	0	-1	1500
26392955	60	514	0	-100	0	230	101300000	1000	0	0	-1	1500
26405515	67	512	0	-100	0	230	101300000	1000	0	0	-1	1500
26418075	65	514	0	-100	0	230	101300000	1000	0	0	-1	1500
26430635	63	518	0	-100	0	230	101300000	1000	0	0	-1	1500
26443195	67	514	0	-100	0	230	101300000	1000	0	0	-1	1500
26455755	63	516	0	-100	0	230	101300000	1000	0	0	-1	1500
26468315	63	513	0	-100	0	230	101300000	1000	0	0	-1	1500
26480875	67	511	0	-100	0	230	101300000	1000	0	0	-1	1500
26493435	60	517	0	-100	0	230	101300000	1000	0	0	-1	1500
26505995	63	514	0	-100	0	230	101300000	1000	0	0	-1	1500
26518555	70	509	0	-100	0	230	101300000	1000	0	0	-1	1500
26531115	58	515	0	-100	0	230	101300000	1000	0	0	-1	1500
26543675	60	511	0	-100	0	230	101300000	1000	0	0	-1	1500
26556235	65	514	0	-100	0	230	101300000	1000	0	0	-1	1500
26568795	65	511	0	-100	0	230	101300000	1000	0	0	-1	1500
26581355	60	516	0	-100	0	230	101300000	1000	0	0	-1	1500
26593915	63	513	0	-100	0	230	101300000	1000	0	0	-1	1500
26606475	70	509	0	-100	0	230	101300000	1000	0	0	-1	1500
26619035	60	515	0	-100	0	230	101300000	1000	0	0	-1	1500
26631595	65	514	0	-100	0	230	101300000	1000	0	0	-1	1500
26644155	65	513	0	-100	0	230	101300000	1000	0	0	-1	1500
26656715	58	517	0	-100	0	230	101300000	1000	0	0	-1	1500
26669275	63	518	0	-100	0	230	101300000	1000	0	0	-1	1500
26681835	63	514	0	-100	0	230	101300000	1000	0	0	-1	1500
26694395	67	510	0	-100	0	230	101300000	1000	0	0	-1	1500
26706955	60	516	0	-100	0	230	101300000	1000	0	0	-1	1500
26719515	63	514	0	-100	0	230	101300000	1000	0	0	-1	1500
26732075	70	515	0	-100	0	230	101300000	1000	0	0	-1	1500
26744635	63	514	0	-100	0	230	101300000	1000	0	0	-1	1500
26757195	65	511	0	-100	0	230	101300000	1000	0	0	-1	1500
26769755	70	510	0	-100	0	230	101300000	1000	0	0	-1	1500
26782315	60	518	0	-100	0	230	101300000	1000	0	0	-1	1500
26794875	60	516	0	-100	0	230	101300000	1000	0	0	-1	1500
26807435	67	515	0	-100	0	230	101300000	1000	0	0	-1	1500
26819995	60	517	0	-100	0	230	101300000	1000	0	0	-1	1500
26832555	63	515	0	-100	0	230	101300000	1000	0	0	-1	1500
26845115	67	510	0	-100	0	230	101300000	1000	0	0	-1	1500
26857675	63	517	0	-100	0	230	101300000	1000	0	0	-1	1500
26870235	65	512	0	-100	0	230	101300000	1000	0	0	-1	1500
26882795	67	516	0	-100	0	230	101300000	1000	0	0	-1	1500
26895355	60	516	0	-100	0	230	101300000	1000	0	0	-1	1500
26907915	60	513	0	-100	0	230	101300000	1000	0	0	-1	1500
26920475	67	514	0	-100	0	230	101300000	1000	0	0	-1	1500
26933035	63	517	0	-100	0	230	101300000	1000	0	0	-1	1500
26945595	60	519	0	-100	0	230	101300000	1000	0	0	-1	1500
26958155	67	510	0	-100	0	230	101300000	1000	0	0	-1	1500
26970715	60	516	0	-100	0	230	101300000	1000	0	0	-1	1500
26983275	65	514	0	-100	0	230	101300000	1000	0	0	-1	1500
26995835	67	514	0	-100	0	230	101300000	1000	0	0	-1	1500
27008395	63	516	0	-100	0	230	101300000	1000	0	0	-1	1500
27020955	67	514	0	-100	0	230	101300000	1000	0	0	-1	1500
27033515	63	516	0	-100	0	230	101300000	1000	0	0	-1	1500
27046075	60	517	0	-100	0	230	101300000	1000	0	0	-1	1500
