timestamp	voltage	current	windSpeed	pitchAngle	rpm	temperature	ambientPressure	humidity	accelerationX	accelerationY	accelerationZ	currentSink
7035070	4010	0	0	-100	0	230	101300000	1000	0	0	-1	0
7042523	4007	4	0	-100	0	230	101300000	1000	0	0	-1	0
7055083	4003	1	0	-100	0	230	101300000	1000	0	0	-1	0
7067643	4007	5	0	-100	0	230	101300000	1000	0	0	-1	0
7080203	4005	1	0	-100	0	230	101300000	1000	0	0	-1	0
7092763	4006	0	0	-100	0	230	101300000	1000	0	0	-1	0
7105323	4000	0	0	-100	0	230	101300000	1000	0	0	-1	0
7117883	4007	0	0	-100	0	230	101300000	1000	0	0	-1	0
7130443	4006	0	0	-100	0	230	101300000	1000	0	0	-1	0
7143004	4009	0	0	-100	0	230	101300000	1000	0	0	-1	0
7155563	4006	0	0	-100	0	230	101300000	1000	0	0	-1	0
7168123	4010	0	0	-100	0	230	101300000	1000	0	0	-1	0
7180683	4010	0	0	-100	0	230	101300000	1000	0	0	-1	0
7193243	4011	0	0	-100	0	230	101300000	1000	0	0	-1	0
7205803	4008	0	0	-100	0	230	101300000	1000	0	0	-1	0
7218363	4010	0	0	-100	0	230	101300000	1000	0	0	-1	0
7230923	4008	0	0	-100	0	230	101300000	1000	0	0	-1	0
7243483	4010	0	0	-100	0	230	101300000	1000	0	0	-1	0
7256043	4009	0	0	-100	0	230	101300000	1000	0	0	-1	0
7268603	4008	0	0	-100	0	230	101300000	1000	0	0	-1	0
7281163	4017	0	0	-100	0	230	101300000	1000	0	0	-1	0
7293723	4008	0	0	-100	0	230	101300000	1000	0	0	-1	0
7306283	4009	0	0	-100	0	230	101300000	1000	0	0	-1	0
7318843	4012	0	0	-100	0	230	101300000	1000	0	0	-1	0
7331403	4012	0	0	-100	0	230	101300000	1000	0	0	-1	0
7343963	4006	0	0	-100	0	230	101300000	1000	0	0	-1	0
7699675	77	616	0	-100	0	230	101300000	1000	0	0	-1	1500
7712235	77	613	0	-100	0	230	101300000	1000	0	0	-1	1500
7724795	75	617	0	-100	0	230	101300000	1000	0	0	-1	1500
7737355	72	616	0	-100	0	230	101300000	1000	0	0	-1	1500
7749915	70	616	0	-100	0	230	101300000	1000	0	0	-1	1500
7762475	72	619	0	-100	0	230	101300000	1000	0	0	-1	1500
7775035	70	616	0	-100	0	230	101300000	1000	0	0	-1	1500
7787595	70	617	0	-100	0	230	101300000	1000	0	0	-1	1500
7800155	75	618	0	-100	0	230	101300000	1000	0	0	-1	1500
7812715	75	615	0	-100	0	230	101300000	1000	0	0	-1	1500
7825275	77	614	0	-100	0	230	101300000	1000	0	0	-1	1500
7837835	79	617	0	-100	0	230	101300000	1000	0	0	-1	1500
7850395	77	620	0	-100	0	230	101300000	1000	0	0	-1	1500
7862955	70	617	0	-100	0	230	101300000	1000	0	0	-1	1500
7875515	75	618	0	-100	0	230	101300000	1000	0	0	-1	1500
7888075	70	620	0	-100	0	230	101300000	1000	0	0	-1	1500
7900635	70	618	0	-100	0	230	101300000	1000	0	0	-1	1500
7913195	72	615	0	-100	0	230	101300000	1000	0	0	-1	1500
7925755	80	618	0	-100	0	230	101300000	1000	0	0	-1	1500
7938315	77	615	0	-100	0	230	101300000	1000	0	0	-1	1500
7950875	77	613	0	-100	0	230	101300000	1000	0	0	-1	1500
7963435	75	615	0	-100	0	230	101300000	1000	0	0	-1	1500
7975995	72	611	0	-100	0	230	101300000	1000	0	0	-1	1500
7988555	72	613	0	-100	0	230	101300000	1000	0	0	-1	1500
8001115	70	618	0	-100	0	230	101300000	1000	0	0	-1	1500
8013675	77	615	0	-100	0	230	101300000	1000	0	0	-1	1500
8026235	77	614	0	-100	0	230	101300000	1000	0	0	-1	1500
8038795	75	613	0	-100	0	230	101300000	1000	0	0	-1	1500
8051355	67	617	0	-100	0	230	101300000	1000	0	0	-1	1500
8063915	70	618	0	-100	0	230	101300000	1000	0	0	-1	1500
8076475	70	618	0	-100	0	230	101300000	1000	0	0	-1	1500
8089035	72	615	0	-100	0	230	101300000	1000	0	0	-1	1500
8101595	77	614	0	-100	0	230	101300000	1000	0	0	-1	1500
8114155	84	619	0	-100	0	230	101300000	1000	0	0	-1	1500
8126715	72	615	0	-100	0	230	101300000	1000	0	0	-1	1500
8139275	70	618	0	-100	0	230	101300000	1000	0	0	-1	1500
8151835	70	615	0	-100	0	230	101300000	1000	0	0	-1	1500
8164395	77	615	0	-100	0	230	101300000	1000	0	0	-1	1500
8176955	75	615	0	-100	0	230	101300000	1000	0	0	-1	1500
8189515	70	616	0	-100	0	230	101300000	1000	0	0	-1	1500
8202075	72	613	0	-100	0	230	101300000	1000	0	0	-1	1500
8214635	72	615	0	-100	0	230	101300000	1000	0	0	-1	1500
8227195	70	613	0	-100	0	230	101300000	1000	0	0	-1	1500
8239755	72	617	0	-100	0	230	101300000	1000	0	0	-1	1500
8252315	70	618	0	-100	0	230	101300000	1000	0	0	-1	1500
8264875	72	614	0	-100	0	230	101300000	1000	0	0	-1	1500
8277435	72	616	0	-100	0	230	101300000	1000	0	0	-1	1500
8289995	70	614	0	-100	0	230	101300000	1000	0	0	-1	1500
8302555	70	615	0	-100	0	230	101300000	1000	0	0	-1	1500
8315115	70	618	0	-100	0	230	101300000	1000	0	0	-1	1500
8327675	70	620	0	-100	0	230	101300000	1000	0	0	-1	1500
8340235	70	618	0	-100	0	230	101300000	1000	0	0	-1	1500
8352795	70	632	0	-100	0	230	101300000	1000	0	0	-1	1500
8365355	70	616	0	-100	0	230	101300000	1000	0	0	-1	1500
8377915	77	615	0	-100	0	230	101300000	1000	0	0	-1	1500
8390475	79	613	0	-100	0	230	101300000	1000	0	0	-1	1500
8403035	75	618	0	-100	0	230	101300000	1000	0	0	-1	1500
8415595	77	615	0	-100	0	230	101300000	1000	0	0	-1	1500
8428155	82	614	0	-100	0	230	101300000	1000	0	0	-1	1500
8440715	75	613	0	-100	0	230	101300000	1000	0	0	-1	1500
8453275	75	614	0	-100	0	230	101300000	1000	0	0	-1	1500
8465835	77	614	0	-100	0	230	101300000	1000	0	0	-1	1500
8478395	77	614	0	-100	0	230	101300000	1000	0	0	-1	1500
8490955	77	613	0	-100	0	230	101300000	1000	0	0	-1	1500
8503515	77	613	0	-100	0	230	101300000	1000	0	0	-1	1500
8516075	77	616	0	-100	0	230	101300000	1000	0	0	-1	1500
8528635	77	614	0	-100	0	230	101300000	1000	0	0	-1	1500
8541195	80	619	0	-100	0	230	101300000	1000	0	0	-1	1500
8553755	79	617	0	-100	0	230	101300000	1000	0	0	-1	1500
8566315	77	613	0	-100	0	230	101300000	1000	0	0	-1	1500
8578875	79	618	0	-100	0	230	101300000	1000	0	0	-1	1500
8591435	75	615	0	-100	0	230	101300000	1000	0	0	-1	1500
8603995	70	620	0	-100	0	230	101300000	1000	0	0	-1	1500
8616555	72	619	0	-100	0	230	101300000	1000	0	0	-1	1500
8629115	70	616	0	-100	0	230	101300000	1000	0	0	-1	1500
8691915	70	617	0	-100	0	230	101300000	1000	0	0	-1	1500
8704475	75	617	0	-100	0	230	101300000	1000	0	0	-1	1500
8717035	80	611	0	-100	0	230	101300000	1000	0	0	-1	1500
8729595	72	615	0	-100	0	230	101300000	1000	0	0	-1	1500
8742155	75	621	0	-100	0	230	101300000	1000	0	0	-1	1500
8754715	70	617	0	-100	0	230	101300000	1000	0	0	-1	1500
8767275	75	615	0	-100	0	230	101300000	1000	0	0	-1	1500
8779835	77	615	0	-100	0	230	101300000	1000	0	0	-1	1500
8792395	72	617	0	-100	0	230	101300000	1000	0	0	-1	1500
8804955	72	617	0	-100	0	230	101300000	1000	0	0	-1	1500
8817515	70	617	0	-100	0	230	101300000	1000	0	0	-1	1500
8830075	70	618	0	-100	0	230	101300000	1000	0	0	-1	1500
8855195	75	614	0	-100	0	230	101300000	1000	0	0	-1	1500
8867755	72	613	0	-100	0	230	101300000	1000	0	0	-1	1500
8880315	70	619	0	-100	0	230	101300000	1000	0	0	-1	1500
8892875	70	617	0	-100	0	230	101300000	1000	0	0	-1	1500
8905435	77	619	0	-100	0	230	101300000	1000	0	0	-1	1500
8917995	72	617	0	-100	0	230	101300000	1000	0	0	-1	1500
8930555	72	619	0	-100	0	230	101300000	1000	0	0	-1	1500
8943115	75	615	0	-100	0	230	101300000	1000	0	0	-1	1500
8955675	77	615	0	-100	0	230	101300000	1000	0	0	-1	1500
8968235	70	618	0	-100	0	230	101300000	1000	0	0	-1	1500
8980795	70	618	0	-100	0	230	101300000	1000	0	0	-1	1500
8993355	77	617	0	-100	0	230	101300000	1000	0	0	-1	1500
9005915	77	616	0	-100	0	230	101300000	1000	0	0	-1	1500
9018475	70	616	0	-100	0	230	101300000	1000	0	0	-1	1500
9031035	70	614	0	-100	0	230	101300000	1000	0	0	-1	1500
9043595	72	613	0	-100	0	230	101300000	1000	0	0	-1	1500
9056155	82	617	0	-100	0	230	101300000	1000	0	0	-1	1500
9068715	77	618	0	-100	0	230	101300000	1000	0	0	-1	1500
9081275	70	616	0	-100	0	230	101300000	1000	0	0	-1	1500
9093835	75	619	0	-100	0	230	101300000	1000	0	0	-1	1500
9106395	75	616	0	-100	0	230	101300000	1000	0	0	-1	1500
9118955	77	614	0	-100	0	230	101300000	1000	0	0	-1	1500
9131515	75	616	0	-100	0	230	101300000	1000	0	0	-1	1500
9144075	70	616	0	-100	0	230	101300000	1000	0	0	-1	1500
9156635	70	615	0	-100	0	230	101300000	1000	0	0	-1	1500
9169195	75	613	0	-100	0	230	101300000	1000	0	0	-1	1500
9181755	75	615	0	-100	0	230	101300000	1000	0	0	-1	1500
9194315	70	616	0	-100	0	230	101300000	1000	0	0	-1	1500
9206875	72	617	0	-100	0	230	101300000	1000	0	0	-1	1500
9219435	70	614	0	-100	0	230	101300000	1000	0	0	-1	1500
9231995	80	617	0	-100	0	230	101300000	1000	0	0	-1	1500
9244555	70	616	0	-100	0	230	101300000	1000	0	0	-1	1500
9257115	70	620	0	-100	0	230	101300000	1000	0	0	-1	1500
9269675	70	616	0	-100	0	230	101300000	1000	0	0	-1	1500
9282235	75	615	0	-100	0	230	101300000	1000	0	0	-1	1500
9294795	77	616	0	-100	0	230	101300000	1000	0	0	-1	1500
9307355	75	615	0	-100	0	230	101300000	1000	0	0	-1	1500
9319915	67	616	0	-100	0	230	101300000	1000	0	0	-1	1500
9332475	72	620	0	-100	0	230	101300000	1000	0	0	-1	1500
9345035	70	618	0	-100	0	230	101300000	1000	0	0	-1	1500
9357595	67	618	0	-100	0	230	101300000	1000	0	0	-1	1500
9370155	77	619	0	-100	0	230	101300000	1000	0	0	-1	1500
9382715	72	613	0	-100	0	230	101300000	1000	0	0	-1	1500
9395275	72	614	0	-100	0	230	101300000	1000	0	0	-1	1500
9407835	77	614	0	-100	0	230	101300000	1000	0	0	-1	1500
9420395	70	614	0	-100	0	230	101300000	1000	0	0	-1	1500
9432955	72	617	0	-100	0	230	101300000	1000	0	0	-1	1500
9445515	72	615	0	-100	0	230	101300000	1000	0	0	-1	1500
9458075	75	615	0	-100	0	230	101300000	1000	0	0	-1	1500
9470635	77	615	0	-100	0	230	101300000	1000	0	0	-1	1500
9483195	75	616	0	-100	0	230	101300000	1000	0	0	-1	1500
9495755	67	616	0	-100	0	230	101300000	1000	0	0	-1	1500
9508315	70	618	0	-100	0	230	101300000	1000	0	0	-1	1500
9520875	70	616	0	-100	0	230	101300000	1000	0	0	-1	1500
9533435	72	618	0	-100	0	230	101300000	1000	0	0	-1	1500
9545995	77	615	0	-100	0	230	101300000	1000	0	0	-1	1500
9558555	77	616	0	-100	0	230	101300000	1000	0	0	-1	1500
9571115	77	617	0	-100	0	230	101300000	1000	0	0	-1	1500
9583675	75	618	0	-100	0	230	101300000	1000	0	0	-1	1500
9596235	72	619	0	-100	0	230	101300000	1000	0	0	-1	1500
9608795	70	618	0	-100	0	230	101300000	1000	0	0	-1	1500
9621355	72	616	0	-100	0	230	101300000	1000	0	0	-1	1500
9633915	70	619	0	-100	0	230	101300000	1000	0	0	-1	1500
9646475	77	617	0	-100	0	230	101300000	1000	0	0	-1	1500
9659035	79	616	0	-100	0	230	101300000	1000	0	0	-1	1500
9671595	70	616	0	-100	0	230	101300000	1000	0	0	-1	1500
9684155	75	620	0	-100	0	230	101300000	1000	0	0	-1	1500
9696715	70	618	0	-100	0	230	101300000	1000	0	0	-1	1500
9709275	70	616	0	-100	0	230	101300000	1000	0	0	-1	1500
9721835	72	613	0	-100	0	230	101300000	1000	0	0	-1	1500
9734395	75	613	0	-100	0	230	101300000	1000	0	0	-1	1500
9746955	72	616	0	-100	0	230	101300000	1000	0	0	-1	1500
9759515	72	619	0	-100	0	230	101300000	1000	0	0	-1	1500
9772075	70	611	0	-100	0	230	101300000	1000	0	0	-1	1500
9784635	70	619	0	-100	0	230	101300000	1000	0	0	-1	1500
9797195	75	615	0	-100	0	230	101300000	1000	0	0	-1	1500
9809755	77	616	0	-100	0	230	101300000	1000	0	0	-1	1500
9822315	80	617	0	-100	0	230	101300000	1000	0	0	-1	1500
9834875	70	615	0	-100	0	230	101300000	1000	0	0	-1	1500
9847435	70	618	0	-100	0	230	101300000	1000	0	0	-1	1500
9859995	77	614	0	-100	0	230	101300000	1000	0	0	-1	1500
9872555	77	615	0	-100	0	230	101300000	1000	0	0	-1	1500
9885115	70	615	0	-100	0	230	101300000	1000	0	0	-1	1500
9897675	72	620	0	-100	0	230	101300000	1000	0	0	-1	1500
9910235	70	619	0	-100	0	230	101300000	1000	0	0	-1	1500
9922795	75	613	0	-100	0	230	101300000	1000	0	0	-1	1500
9935355	77	614	0	-100	0	230	101300000	1000	0	0	-1	1500
9947915	75	615	0	-100	0	230	101300000	1000	0	0	-1	1500
9960475	70	621	0	-100	0	230	101300000	1000	0	0	-1	1500
9973035	72	617	0	-100	0	230	101300000	1000	0	0	-1	1500
9985595	70	617	0	-100	0	230	101300000	1000	0	0	-1	1500
9998155	77	616	0	-100	0	230	101300000	1000	0	0	-1	1500
10010715	75	615	0	-100	0	230	101300000	1000	0	0	-1	1500
10023275	77	616	0	-100	0	230	101300000	1000	0	0	-1	1500
10035835	80	615	0	-100	0	230	101300000	1000	0	0	-1	1500
10048395	77	616	0	-100	0	230	101300000	1000	0	0	-1	1500
10060955	72	617	0	-100	0	230	101300000	1000	0	0	-1	1500
10073515	70	617	0	-100	0	230	101300000	1000	0	0	-1	1500
10086075	70	620	0	-100	0	230	101300000	1000	0	0	-1	1500
10098635	70	618	0	-100	0	230	101300000	1000	0	0	-1	1500
10111195	77	614	0	-100	0	230	101300000	1000	0	0	-1	1500
10123755	77	615	0	-100	0	230	101300000	1000	0	0	-1	1500
10136315	67	618	0	-100	0	230	101300000	1000	0	0	-1	1500
10148875	72	618	0	-100	0	230	101300000	1000	0	0	-1	1500
10161435	72	617	0	-100	0	230	101300000	1000	0	0	-1	1500
10173995	77	617	0	-100	0	230	101300000	1000	0	0	-1	1500
10186555	79	616	0	-100	0	230	101300000	1000	0	0	-1	1500
10199115	72	617	0	-100	0	230	101300000	1000	0	0	-1	1500
10211675	70	620	0	-100	0	230	101300000	1000	0	0	-1	1500
10224235	72	615	0	-100	0	230	101300000	1000	0	0	-1	1500
10236795	70	613	0	-100	0	230	101300000	1000	0	0	-1	1500
10249355	72	615	0	-100	0	230	101300000	1000	0	0	-1	1500
10261915	77	615	0	-100	0	230	101300000	1000	0	0	-1	1500
10274475	77	613	0	-100	0	230	101300000	1000	0	0	-1	1500
10287035	75	616	0	-100	0	230	101300000	1000	0	0	-1	1500
10299595	70	616	0	-100	0	230	101300000	1000	0	0	-1	1500
10312155	75	618	0	-100	0	230	101300000	1000	0	0	-1	1500
10324715	70	619	0	-100	0	230	101300000	1000	0	0	-1	1500
10337275	70	617	0	-100	0	230	101300000	1000	0	0	-1	1500
10349835	72	619	0	-100	0	230	101300000	1000	0	0	-1	1500
10362395	70	618	0	-100	0	230	101300000	1000	0	0	-1	1500
10374955	75	614	0	-100	0	230	101300000	1000	0	0	-1	1500
10387515	77	614	0	-100	0	230	101300000	1000	0	0	-1	1500
10400075	67	616	0	-100	0	230	101300000	1000	0	0	-1	1500
10412635	72	621	0	-100	0	230	101300000	1000	0	0	-1	1500
10425195	70	620	0	-100	0	230	101300000	1000	0	0	-1	1500
10437755	77	621	0	-100	0	230	101300000	1000	0	0	-1	1500
10450315	75	614	0	-100	0	230	101300000	1000	0	0	-1	1500
10462875	72	617	0	-100	0	230	101300000	1000	0	0	-1	1500
10475435	70	617	0	-100	0	230	101300000	1000	0	0	-1	1500
10487995	70	615	0	-100	0	230	101300000	1000	0	0	-1	1500
10500555	72	613	0	-100	0	230	101300000	1000	0	0	-1	1500
10513115	70	617	0	-100	0	230	101300000	1000	0	0	-1	1500
10525675	72	616	0	-100	0	230	101300000	1000	0	0	-1	1500
10538235	72	615	0	-100	0	230	101300000	1000	0	0	-1	1500
10550795	75	617	0	-100	0	230	101300000	1000	0	0	-1	1500
10563355	77	615	0	-100	0	230	101300000	1000	0	0	-1	1500
10575915	75	611	0	-100	0	230	101300000	1000	0	0	-1	1500
10588475	70	619	0	-100	0	230	101300000	1000	0	0	-1	1500
10601035	70	617	0	-100	0	230	101300000	1000	0	0	-1	1500
10613595	70	620	0	-100	0	230	101300000	1000	0	0	-1	1500
10626155	75	616	0	-100	0	230	101300000	1000	0	0	-1	1500
10638715	70	613	0	-100	0	230	101300000	1000	0	0	-1	1500
10651275	75	614	0	-100	0	230	101300000	1000	0	0	-1	1500
10663835	77	621	0	-100	0	230	101300000	1000	0	0	-1	1500
10676395	79	616	0	-100	0	230	101300000	1000	0	0	-1	1500
10688955	77	616	0	-100	0	230	101300000	1000	0	0	-1	1500
10701515	72	616	0	-100	0	230	101300000	1000	0	0	-1	1500
10714075	70	620	0	-100	0	230	101300000	1000	0	0	-1	1500
10726635	72	621	0	-100	0	230	101300000	1000	0	0	-1	1500
10739195	70	619	0	-100	0	230	101300000	1000	0	0	-1	1500
10751755	70	615	0	-100	0	230	101300000	1000	0	0	-1	1500
10764315	75	614	0	-100	0	230	101300000	1000	0	0	-1	1500
10776875	77	617	0	-100	0	230	101300000	1000	0	0	-1	1500
10789435	79	617	0	-100	0	230	101300000	1000	0	0	-1	1500
10801995	77	615	0	-100	0	230	101300000	1000	0	0	-1	1500
10814555	72	615	0	-100	0	230	101300000	1000	0	0	-1	1500
10827115	70	615	0	-100	0	230	101300000	1000	0	0	-1	1500
10839675	70	619	0	-100	0	230	101300000	1000	0	0	-1	1500
10852235	70	617	0	-100	0	230	101300000	1000	0	0	-1	1500
10864795	70	614	0	-100	0	230	101300000	1000	0	0	-1	1500
10877355	72	615	0	-100	0	230	101300000	1000	0	0	-1	1500
10889915	75	612	0	-100	0	230	101300000	1000	0	0	-1	1500
10902475	75	614	0	-100	0	230	101300000	1000	0	0	-1	1500
10915035	77	614	0	-100	0	230	101300000	1000	0	0	-1	1500
10927595	77	616	0	-100	0	230	101300000	1000	0	0	-1	1500
10940155	80	616	0	-100	0	230	101300000	1000	0	0	-1	1500
10952715	72	618	0	-100	0	230	101300000	1000	0	0	-1	1500
10965275	70	615	0	-100	0	230	101300000	1000	0	0	-1	1500
10977835	70	618	0	-100	0	230	101300000	1000	0	0	-1	1500
10990395	72	620	0	-100	0	230	101300000	1000	0	0	-1	1500
11002955	67	616	0	-100	0	230	101300000	1000	0	0	-1	1500
11015515	75	616	0	-100	0	230	101300000	1000	0	0	-1	1500
11028075	75	615	0	-100	0	230	101300000	1000	0	0	-1	1500
11040635	75	613	0	-100	0	230	101300000	1000	0	0	-1	1500
11053195	75	615	0	-100	0	230	101300000	1000	0	0	-1	1500
11065755	77	615	0	-100	0	230	101300000	1000	0	0	-1	1500
11078315	80	615	0	-100	0	230	101300000	1000	0	0	-1	1500
11090875	77	614	0	-100	0	230	101300000	1000	0	0	-1	1500
11103435	70	617	0	-100	0	230	101300000	1000	0	0	-1	1500
11115995	70	616	0	-100	0	230	101300000	1000	0	0	-1	1500
11128555	72	614	0	-100	0	230	101300000	1000	0	0	-1	1500
11141115	72	613	0	-100	0	230	101300000	1000	0	0	-1	1500
11153675	75	615	0	-100	0	230	101300000	1000	0	0	-1	1500
11166235	77	615	0	-100	0	230	101300000	1000	0	0	-1	1500
11178795	77	614	0	-100	0	230	101300000	1000	0	0	-1	1500
11191355	77	616	0	-100	0	230	101300000	1000	0	0	-1	1500
11203915	75	616	0	-100	0	230	101300000	1000	0	0	-1	1500
11216475	70	616	0	-100	0	230	101300000	1000	0	0	-1	1500
11229035	70	616	0	-100	0	230	101300000	1000	0	0	-1	1500
11241595	72	617	0	-100	0	230	101300000	1000	0	0	-1	1500
11254155	75	620	0	-100	0	230	101300000	1000	0	0	-1	1500
11266715	75	617	0	-100	0	230	101300000	1000	0	0	-1	1500
11279275	77	620	0	-100	0	230	101300000	1000	0	0	-1	1500
11291835	79	613	0	-100	0	230	101300000	1000	0	0	-1	1500
11304395	77	613	0	-100	0	230	101300000	1000	0	0	-1	1500
11316955	80	616	0	-100	0	230	101300000	1000	0	0	-1	1500
11329515	75	611	0	-100	0	230	101300000	1000	0	0	-1	1500
11342075	72	615	0	-100	0	230	101300000	1000	0	0	-1	1500
11354635	70	618	0	-100	0	230	101300000	1000	0	0	-1	1500
11367195	72	616	0	-100	0	230	101300000	1000	0	0	-1	1500
11379755	77	617	0	-100	0	230	101300000	1000	0	0	-1	1500
11392315	72	614	0	-100	0	230	101300000	1000	0	0	-1	1500
11404875	70	620	0	-100	0	230	101300000	1000	0	0	-1	1500
11417435	67	618	0	-100	0	230	101300000	1000	0	0	-1	1500
11429995	77	613	0	-100	0	230	101300000	1000	0	0	-1	1500
11442555	75	615	0	-100	0	230	101300000	1000	0	0	-1	1500
11455115	77	618	0	-100	0	230	101300000	1000	0	0	-1	1500
11467675	70	616	0	-100	0	230	101300000	1000	0	0	-1	1500
11480235	72	618	0	-100	0	230	101300000	1000	0	0	-1	1500
11492795	72	614	0	-100	0	230	101300000	1000	0	0	-1	1500
11505355	72	617	0	-100	0	230	101300000	1000	0	0	-1	1500
11517915	77	614	0	-100	0	230	101300000	1000	0	0	-1	1500
11530475	75	611	0	-100	0	230	101300000	1000	0	0	-1	1500
11543035	70	617	0	-100	0	230	101300000	1000	0	0	-1	1500
11555595	72	620	0	-100	0	230	101300000	1000	0	0	-1	1500
11568155	82	616	0	-100	0	230	101300000	1000	0	0	-1	1500
11580715	72	616	0	-100	0	230	101300000	1000	0	0	-1	1500
11593275	70	616	0	-100	0	230	101300000	1000	0	0	-1	1500
11605835	75	616	0	-100	0	230	101300000	1000	0	0	-1	1500
11618395	70	613	0	-100	0	230	101300000	1000	0	0	-1	1500
11630955	75	613	0	-100	0	230	101300000	1000	0	0	-1	1500
11643515	72	616	0	-100	0	230	101300000	1000	0	0	-1	1500
11656075	70	616	0	-100	0	230	101300000	1000	0	0	-1	1500
11668635	72	618	0	-100	0	230	101300000	1000	0	0	-1	1500
11681195	72	616	0	-100	0	230	101300000	1000	0	0	-1	1500
11693755	70	615	0	-100	0	230	101300000	1000	0	0	-1	1500
11706315	75	614	0	-100	0	230	101300000	1000	0	0	-1	1500
11718875	77	617	0	-100	0	230	101300000	1000	0	0	-1	1500
11731435	72	617	0	-100	0	230	101300000	1000	0	0	-1	1500
11743995	70	615	0	-100	0	230	101300000	1000	0	0	-1	1500
11756555	72	614	0	-100	0	230	101300000	1000	0	0	-1	1500
11769115	77	614	0	-100	0	230	101300000	1000	0	0	-1	1500
11781675	72	615	0	-100	0	230	101300000	1000	0	0	-1	1500
11794235	70	625	0	-100	0	230	101300000	1000	0	0	-1	1500
11806795	77	613	0	-100	0	230	101300000	1000	0	0	-1	1500
11819355	70	614	0	-100	0	230	101300000	1000	0	0	-1	1500
11831915	70	619	0	-100	0	230	101300000	1000	0	0	-1	1500
11844475	77	615	0	-100	0	230	101300000	1000	0	0	-1	1500
11857035	67	629	0	-100	0	230	101300000	1000	0	0	-1	1500
11869595	70	618	0	-100	0	230	101300000	1000	0	0	-1	1500
11882155	80	617	0	-100	0	230	101300000	1000	0	0	-1	1500
11894715	70	614	0	-100	0	230	101300000	1000	0	0	-1	1500
11907275	77	616	0	-100	0	230	101300000	1000	0	0	-1	1500
11919835	72	616	0	-100	0	230	101300000	1000	0	0	-1	1500
11932395	79	615	0	-100	0	230	101300000	1000	0	0	-1	1500
11944955	70	620	0	-100	0	230	101300000	1000	0	0	-1	1500
11957515	75	614	0	-100	0	230	101300000	1000	0	0	-1	1500
11970075	72	617	0	-100	0	230	101300000	1000	0	0	-1	1500
11982635	70	617	0	-100	0	230	101300000	1000	0	0	-1	1500
11995195	77	614	0	-100	0	230	101300000	1000	0	0	-1	1500
12007755	70	615	0	-100	0	230	101300000	1000	0	0	-1	1500
12020315	75	614	0	-100	0	230	101300000	1000	0	0	-1	1500
12032875	72	612	0	-100	0	230	101300000	1000	0	0	-1	1500
12045435	70	618	0	-100	0	230	101300000	1000	0	0	-1	1500
12057995	77	615	0	-100	0	230	101300000	1000	0	0	-1	1500
12070555	70	618	0	-100	0	230	101300000	1000	0	0	-1	1500
12083115	70	614	0	-100	0	230	101300000	1000	0	0	-1	1500
12095675	75	616	0	-100	0	230	101300000	1000	0	0	-1	1500
12108235	70	616	0	-100	0	230	101300000	1000	0	0	-1	1500
12120795	80	617	0	-100	0	230	101300000	1000	0	0	-1	1500
12133355	72	614	0	-100	0	230	101300000	1000	0	0	-1	1500
12145915	79	614	0	-100	0	230	101300000	1000	0	0	-1	1500
12158475	72	619	0	-100	0	230	101300000	1000	0	0	-1	1500
12171035	75	615	0	-100	0	230	101300000	1000	0	0	-1	1500
12183595	72	615	0	-100	0	230	101300000	1000	0	0	-1	1500
12196155	77	619	0	-100	0	230	101300000	1000	0	0	-1	1500
12208715	77	615	0	-100	0	230	101300000	1000	0	0	-1	1500
12221275	67	615	0	-100	0	230	101300000	1000	0	0	-1	1500
12233835	75	614	0	-100	0	230	101300000	1000	0	0	-1	1500
12246395	70	615	0	-100	0	230	101300000	1000	0	0	-1	1500
12258955	70	619	0	-100	0	230	101300000	1000	0	0	-1	1500
12271515	77	614	0	-100	0	230	101300000	1000	0	0	-1	1500
12284075	70	614	0	-100	0	230	101300000	1000	0	0	-1	1500
12296635	79	614	0	-100	0	230	101300000	1000	0	0	-1	1500
12309195	67	615	0	-100	0	230	101300000	1000	0	0	-1	1500
12321755	75	612	0	-100	0	230	101300000	1000	0	0	-1	1500
12334315	70	616	0	-100	0	230	101300000	1000	0	0	-1	1500
12346875	72	615	0	-100	0	230	101300000	1000	0	0	-1	1500
12359435	75	618	0	-100	0	230	101300000	1000	0	0	-1	1500
12371995	72	616	0	-100	0	230	101300000	1000	0	0	-1	1500
12384555	77	613	0	-100	0	230	101300000	1000	0	0	-1	1500
12397115	70	618	0	-100	0	230	101300000	1000	0	0	-1	1500
12409675	75	616	0	-100	0	230	101300000	1000	0	0	-1	1500
12422235	72	616	0	-100	0	230	101300000	1000	0	0	-1	1500
12434795	72	615	0	-100	0	230	101300000	1000	0	0	-1	1500
12447355	77	614	0	-100	0	230	101300000	1000	0	0	-1	1500
12459915	72	614	0	-100	0	230	101300000	1000	0	0	-1	1500
12472475	70	614	0	-100	0	230	101300000	1000	0	0	-1	1500
12485035	77	614	0	-100	0	230	101300000	1000	0	0	-1	1500
12497595	70	620	0	-100	0	230	101300000	1000	0	0	-1	1500
12510155	82	617	0	-100	0	230	101300000	1000	0	0	-1	1500
12522715	77	615	0	-100	0	230	101300000	1000	0	0	-1	1500
12535275	70	618	0	-100	0	230	101300000	1000	0	0	-1	1500
12547835	70	617	0	-100	0	230	101300000	1000	0	0	-1	1500
12560395	77	616	0	-100	0	230	101300000	1000	0	0	-1	1500
12572955	70	613	0	-100	0	230	101300000	1000	0	0	-1	1500
12585515	72	618	0	-100	0	230	101300000	1000	0	0	-1	1500
12598075	75	615	0	-100	0	230	101300000	1000	0	0	-1	1500
12610635	70	616	0	-100	0	230	101300000	1000	0	0	-1	1500
12623195	70	618	0	-100	0	230	101300000	1000	0	0	-1	1500
12635755	67	617	0	-100	0	230	101300000	1000	0	0	-1	1500
12648315	75	615	0	-100	0	230	101300000	1000	0	0	-1	1500
12660875	75	616	0	-100	0	230	101300000	1000	0	0	-1	1500
12673435	70	615	0	-100	0	230	101300000	1000	0	0	-1	1500
12685995	70	614	0	-100	0	230	101300000	1000	0	0	-1	1500
12698555	72	619	0	-100	0	230	101300000	1000	0	0	-1	1500
12711115	77	613	0	-100	0	230	101300000	1000	0	0	-1	1500
12723675	70	615	0	-100	0	230	101300000	1000	0	0	-1	1500
12736235	70	619	0	-100	0	230	101300000	1000	0	0	-1	1500
12748795	75	617	0	-100	0	230	101300000	1000	0	0	-1	1500
12761355	79	618	0	-100	0	230	101300000	1000	0	0	-1	1500
12773915	70	619	0	-100	0	230	101300000	1000	0	0	-1	1500
12786475	70	616	0	-100	0	230	101300000	1000	0	0	-1	1500
12799035	79	613	0	-100	0	230	101300000	1000	0	0	-1	1500
12811595	70	620	0	-100	0	230	101300000	1000	0	0	-1	1500
12824155	77	618	0	-100	0	230	101300000	1000	0	0	-1	1500
12836715	77	616	0	-100	0	230	101300000	1000	0	0	-1	1500
12849275	70	616	0	-100	0	230	101300000	1000	0	0	-1	1500
12861835	75	618	0	-100	0	230	101300000	1000	0	0	-1	1500
12874395	77	619	0	-100	0	230	101300000	1000	0	0	-1	1500
12886955	75	617	0	-100	0	230	101300000	1000	0	0	-1	1500
12899515	70	618	0	-100	0	230	101300000	1000	0	0	-1	1500
12912075	72	614	0	-100	0	230	101300000	1000	0	0	-1	1500
12924635	80	618	0	-100	0	230	101300000	1000	0	0	-1	1500
12937195	70	615	0	-100	0	230	101300000	1000	0	0	-1	1500
12949755	77	615	0	-100	0	230	101300000	1000	0	0	-1	1500
12962315	70	616	0	-100	0	230	101300000	1000	0	0	-1	1500
12974875	70	623	0	-100	0	230	101300000	1000	0	0	-1	1500
12987435	77	614	0	-100	0	230	101300000	1000	0	0	-1	1500
12999995	70	615	0	-100	0	230	101300000	1000	0	0	-1	1500
13012555	77	617	0	-100	0	230	101300000	1000	0	0	-1	1500
13025115	67	617	0	-100	0	230	101300000	1000	0	0	-1	1500
13037675	75	613	0	-100	0	230	101300000	1000	0	0	-1	1500
13050235	70	616	0	-100	0	230	101300000	1000	0	0	-1	1500
13062795	70	627	0	-100	0	230	101300000	1000	0	0	-1	1500
13075355	80	618	0	-100	0	230	101300000	1000	0	0	-1	1500
13087915	70	621	0	-100	0	230	101300000	1000	0	0	-1	1500
13100475	75	615	0	-100	0	230	101300000	1000	0	0	-1	1500
13113035	75	616	0	-100	0	230	101300000	1000	0	0	-1	1500
13125595	72	617	0	-100	0	230	101300000	1000	0	0	-1	1500
13138155	80	614	0	-100	0	230	101300000	1000	0	0	-1	1500
13150715	72	615	0	-100	0	230	101300000	1000	0	0	-1	1500
13163275	72	613	0	-100	0	230	101300000	1000	0	0	-1	1500
13175835	77	616	0	-100	0	230	101300000	1000	0	0	-1	1500
13188395	70	619	0	-100	0	230	101300000	1000	0	0	-1	1500
13200955	70	613	0	-100	0	230	101300000	1000	0	0	-1	1500
13213515	77	612	0	-100	0	230	101300000	1000	0	0	-1	1500
13226075	70	616	0	-100	0	230	101300000	1000	0	0	-1	1500
13238635	70	618	0	-100	0	230	101300000	1000	0	0	-1	1500
13251195	77	619	0	-100	0	230	101300000	1000	0	0	-1	1500
13263755	70	616	0	-100	0	230	101300000	1000	0	0	-1	1500
13276315	70	613	0	-100	0	230	101300000	1000	0	0	-1	1500
13288875	75	613	0	-100	0	230	101300000	1000	0	0	-1	1500
13301435	79	618	0	-100	0	230	101300000	1000	0	0	-1	1500
13313995	70	616	0	-100	0	230	101300000	1000	0	0	-1	1500
13326555	70	622	0	-100	0	230	101300000	1000	0	0	-1	1500
13339115	77	616	0	-100	0	230	101300000	1000	0	0	-1	1500
13351675	75	618	0	-100	0	230	101300000	1000	0	0	-1	1500
13364235	70	618	0	-100	0	230	101300000	1000	0	0	-1	1500
13376795	70	619	0	-100	0	230	101300000	1000	0	0	-1	1500
13389355	77	614	0	-100	0	230	101300000	1000	0	0	-1	1500
13401915	72	617	0	-100	0	230	101300000	1000	0	0	-1	1500
13414475	77	620	0	-100	0	230	101300000	1000	0	0	-1	1500
13427035	75	616	0	-100	0	230	101300000	1000	0	0	-1	1500
13439595	70	616	0	-100	0	230	101300000	1000	0	0	-1	1500
13452155	77	618	0	-100	0	230	101300000	1000	0	0	-1	1500
13464715	75	614	0	-100	0	230	101300000	1000	0	0	-1	1500
13477275	80	617	0	-100	0	230	101300000	1000	0	0	-1	1500
13489835	70	619	0	-100	0	230	101300000	1000	0	0	-1	1500
13502395	75	615	0	-100	0	230	101300000	1000	0	0	-1	1500
13514955	80	618	0	-100	0	230	101300000	1000	0	0	-1	1500
13527515	70	619	0	-100	0	230	101300000	1000	0	0	-1	1500
13540075	75	616	0	-100	0	230	101300000	1000	0	0	-1	1500
13552635	70	616	0	-100	0	230	101300000	1000	0	0	-1	1500
13565195	70	616	0	-100	0	230	101300000	1000	0	0	-1	1500
13577755	77	615	0	-100	0	230	101300000	1000	0	0	-1	1500
13590315	75	616	0	-100	0	230	101300000	1000	0	0	-1	1500
13602875	72	616	0	-100	0	230	101300000	1000	0	0	-1	1500
13615435	77	616	0	-100	0	230	101300000	1000	0	0	-1	1500
13627995	70	621	0	-100	0	230	101300000	1000	0	0	-1	1500
13640555	72	614	0	-100	0	230	101300000	1000	0	0	-1	1500
13653115	72	616	0	-100	0	230	101300000	1000	0	0	-1	1500
13665675	70	616	0	-100	0	230	101300000	1000	0	0	-1	1500
13678235	75	625	0	-100	0	230	101300000	1000	0	0	-1	1500
13690795	72	619	0	-100	0	230	101300000	1000	0	0	-1	1500
13703355	77	616	0	-100	0	230	101300000	1000	0	0	-1	1500
13715915	70	616	0	-100	0	230	101300000	1000	0	0	-1	1500
13728475	70	617	0	-100	0	230	101300000	1000	0	0	-1	1500
13741035	75	611	0	-100	0	230	101300000	1000	0	0	-1	1500
13753595	72	617	0	-100	0	230	101300000	1000	0	0	-1	1500
13766155	80	615	0	-100	0	230	101300000	1000	0	0	-1	1500
13778715	75	618	0	-100	0	230	101300000	1000	0	0	-1	1500
13791275	70	615	0	-100	0	230	101300000	1000	0	0	-1	1500
13803835	79	613	0	-100	0	230	101300000	1000	0	0	-1	1500
13816395	70	618	0	-100	0	230	101300000	1000	0	0	-1	1500
13828955	75	616	0	-100	0	230	101300000	1000	0	0	-1	1500
13841515	70	613	0	-100	0	230	101300000	1000	0	0	-1	1500
13854075	72	614	0	-100	0	230	101300000	1000	0	0	-1	1500
13866635	75	616	0	-100	0	230	101300000	1000	0	0	-1	1500
13879195	70	616	0	-100	0	230	101300000	1000	0	0	-1	1500
13891755	70	621	0	-100	0	230	101300000	1000	0	0	-1	1500
13904315	77	611	0	-100	0	230	101300000	1000	0	0	-1	1500
13916875	70	617	0	-100	0	230	101300000	1000	0	0	-1	1500
13929435	75	611	0	-100	0	230	101300000	1000	0	0	-1	1500
13941995	75	617	0	-100	0	230	101300000	1000	0	0	-1	1500
13954555	72	615	0	-100	0	230	101300000	1000	0	0	-1	1500
13967115	77	615	0	-100	0	230	101300000	1000	0	0	-1	1500
13979675	67	617	0	-100	0	230	101300000	1000	0	0	-1	1500
13992235	75	613	0	-100	0	230	101300000	1000	0	0	-1	1500
14004795	75	616	0	-100	0	230	101300000	1000	0	0	-1	1500
14017355	67	618	0	-100	0	230	101300000	1000	0	0	-1	1500
14029915	72	614	0	-100	0	230	101300000	1000	0	0	-1	1500
14042475	77	615	0	-100	0	230	101300000	1000	0	0	-1	1500
14055035	67	617	0	-100	0	230	101300000	1000	0	0	-1	1500
14067595	70	618	0	-100	0	230	101300000	1000	0	0	-1	1500
14080155	82	614	0	-100	0	230	101300000	1000	0	0	-1	1500
14092715	70	616	0	-100	0	230	101300000	1000	0	0	-1	1500
14105275	77	619	0	-100	0	230	101300000	1000	0	0	-1	1500
14117835	70	619	0	-100	0	230	101300000	1000	0	0	-1	1500
14130395	70	621	0	-100	0	230	101300000	1000	0	0	-1	1500
14142955	77	613	0	-100	0	230	101300000	1000	0	0	-1	1500
14155515	72	620	0	-100	0	230	101300000	1000	0	0	-1	1500
14168075	72	617	0	-100	0	230	101300000	1000	0	0	-1	1500
14180635	75	611	0	-100	0	230	101300000	1000	0	0	-1	1500
14193195	70	616	0	-100	0	230	101300000	1000	0	0	-1	1500
14205755	72	614	0	-100	0	230	101300000	1000	0	0	-1	1500
14218315	70	612	0	-100	0	230	101300000	1000	0	0	-1	1500
14230875	70	617	0	-100	0	230	101300000	1000	0	0	-1	1500
14243435	77	615	0	-100	0	230	101300000	1000	0	0	-1	1500
14255995	72	614	0	-100	0	230	101300000	1000	0	0	-1	1500
14268555	75	618	0	-100	0	230	101300000	1000	0	0	-1	1500
14281115	75	617	0	-100	0	230	101300000	1000	0	0	-1	1500
14293675	75	615	0	-100	0	230	101300000	1000	0	0	-1	1500
14306235	72	619	0	-100	0	230	101300000	1000	0	0	-1	1500
14318795	75	614	0	-100	0	230	101300000	1000	0	0	-1	1500
14331355	77	615	0	-100	0	230	101300000	1000	0	0	-1	1500
14343915	70	617	0	-100	0	230	101300000	1000	0	0	-1	1500
14356475	77	615	0	-100	0	230	101300000	1000	0	0	-1	1500
14369035	72	615	0	-100	0	230	101300000	1000	0	0	-1	1500
14381595	72	616	0	-100	0	230	101300000	1000	0	0	-1	1500
14394155	77	618	0	-100	0	230	101300000	1000	0	0	-1	1500
14406715	77	616	0	-100	0	230	101300000	1000	0	0	-1	1500
14419275	80	617	0	-100	0	230	101300000	1000	0	0	-1	1500
14431835	70	618	0	-100	0	230	101300000	1000	0	0	-1	1500
14444395	75	617	0	-100	0	230	101300000	1000	0	0	-1	1500
14456955	77	614	0	-100	0	230	101300000	1000	0	0	-1	1500
14469515	80	615	0	-100	0	230	101300000	1000	0	0	-1	1500
14482075	82	615	0	-100	0	230	101300000	1000	0	0	-1	1500
14494635	80	616	0	-100	0	230	101300000	1000	0	0	-1	1500
14507195	72	618	0	-100	0	230	101300000	1000	0	0	-1	1500
14519755	75	620	0	-100	0	230	101300000	1000	0	0	-1	1500
14532315	77	619	0	-100	0	230	101300000	1000	0	0	-1	1500
14544875	75	620	0	-100	0	230	101300000	1000	0	0	-1	1500
14557435	80	614	0	-100	0	230	101300000	1000	0	0	-1	1500
14569995	84	617	0	-100	0	230	101300000	1000	0	0	-1	1500
14582555	75	618	0	-100	0	230	101300000	1000	0	0	-1	1500
14595115	75	616	0	-100	0	230	101300000	1000	0	0	-1	1500
14607675	75	618	0	-100	0	230	101300000	1000	0	0	-1	1500
14620235	82	616	0	-100	0	230	101300000	1000	0	0	-1	1500
14632795	72	614	0	-100	0	230	101300000	1000	0	0	-1	1500
14645355	75	619	0	-100	0	230	101300000	1000	0	0	-1	1500
14657915	82	617	0	-100	0	230	101300000	1000	0	0	-1	1500
14670475	75	613	0	-100	0	230	101300000	1000	0	0	-1	1500
14683035	77	620	0	-100	0	230	101300000	1000	0	0	-1	1500
14695595	75	619	0	-100	0	230	101300000	1000	0	0	-1	1500
14708155	79	614	0	-100	0	230	101300000	1000	0	0	-1	1500
14720715	72	618	0	-100	0	230	101300000	1000	0	0	-1	1500
14733275	75	628	0	-100	0	230	101300000	1000	0	0	-1	1500
14745835	82	615	0	-100	0	230	101300000	1000	0	0	-1	1500
14758395	75	619	0	-100	0	230	101300000	1000	0	0	-1	1500
14770955	80	614	0	-100	0	230	101300000	1000	0	0	-1	1500
14783515	77	614	0	-100	0	230	101300000	1000	0	0	-1	1500
14796075	75	619	0	-100	0	230	101300000	1000	0	0	-1	1500
14808635	80	616	0	-100	0	230	101300000	1000	0	0	-1	1500
14821195	75	617	0	-100	0	230	101300000	1000	0	0	-1	1500
14833755	75	619	0	-100	0	230	101300000	1000	0	0	-1	1500
14846315	80	615	0	-100	0	230	101300000	1000	0	0	-1	1500
14858875	77	614	0	-100	0	230	101300000	1000	0	0	-1	1500
14871435	75	618	0	-100	0	230	101300000	1000	0	0	-1	1500
14883995	80	619	0	-100	0	230	101300000	1000	0	0	-1	1500
14896555	75	619	0	-100	0	230	101300000	1000	0	0	-1	1500
14909115	80	615	0	-100	0	230	101300000	1000	0	0	-1	1500
14921675	72	615	0	-100	0	230	101300000	1000	0	0	-1	1500
14934235	77	616	0	-100	0	230	101300000	1000	0	0	-1	1500
14946795	75	616	0	-100	0	230	101300000	1000	0	0	-1	1500
14959355	75	616	0	-100	0	230	101300000	1000	0	0	-1	1500
14971915	77	613	0	-100	0	230	101300000	1000	0	0	-1	1500
14984475	77	621	0	-100	0	230	101300000	1000	0	0	-1	1500
14997035	80	612	0	-100	0	230	101300000	1000	0	0	-1	1500
15009595	72	616	0	-100	0	230	101300000	1000	0	0	-1	1500
15022155	72	620	0	-100	0	230	101300000	1000	0	0	-1	1500
15034715	84	613	0	-100	0	230	101300000	1000	0	0	-1	1500
15047275	72	619	0	-100	0	230	101300000	1000	0	0	-1	1500
15059835	82	617	0	-100	0	230	101300000	1000	0	0	-1	1500
15072395	75	618	0	-100	0	230	101300000	1000	0	0	-1	1500
15084955	77	614	0	-100	0	230	101300000	1000	0	0	-1	1500
15097515	82	616	0	-100	0	230	101300000	1000	0	0	-1	1500
15110075	75	619	0	-100	0	230	101300000	1000	0	0	-1	1500
15122635	75	616	0	-100	0	230	101300000	1000	0	0	-1	1500
15135195	80	617	0	-100	0	230	101300000	1000	0	0	-1	1500
15147755	75	618	0	-100	0	230	101300000	1000	0	0	-1	1500
15160315	77	617	0	-100	0	230	101300000	1000	0	0	-1	1500
15172875	82	618	0	-100	0	230	101300000	1000	0	0	-1	1500
15185435	72	620	0	-100	0	230	101300000	1000	0	0	-1	1500
15197995	75	614	0	-100	0	230	101300000	1000	0	0	-1	1500
15210555	82	616	0	-100	0	230	101300000	1000	0	0	-1	1500
15223115	77	618	0	-100	0	230	101300000	1000	0	0	-1	1500
15235675	80	616	0	-100	0	230	101300000	1000	0	0	-1	1500
15248235	72	617	0	-100	0	230	101300000	1000	0	0	-1	1500
15260795	77	618	0	-100	0	230	101300000	1000	0	0	-1	1500
15273355	82	611	0	-100	0	230	101300000	1000	0	0	-1	1500
15285915	75	621	0	-100	0	230	101300000	1000	0	0	-1	1500
15298475	77	615	0	-100	0	230	101300000	1000	0	0	-1	1500
15311035	80	613	0	-100	0	230	101300000	1000	0	0	-1	1500
15323595	75	622	0	-100	0	230	101300000	1000	0	0	-1	1500
15336155	75	614	0	-100	0	230	101300000	1000	0	0	-1	1500
15348715	80	615	0	-100	0	230	101300000	1000	0	0	-1	1500
15361275	82	618	0	-100	0	230	101300000	1000	0	0	-1	1500
15373835	75	619	0	-100	0	230	101300000	1000	0	0	-1	1500
15386395	77	619	0	-100	0	230	101300000	1000	0	0	-1	1500
15398955	77	616	0	-100	0	230	101300000	1000	0	0	-1	1500
15411515	82	610	0	-100	0	230	101300000	1000	0	0	-1	1500
15424075	77	613	0	-100	0	230	101300000	1000	0	0	-1	1500
15436635	72	617	0	-100	0	230	101300000	1000	0	0	-1	1500
15449195	72	622	0	-100	0	230	101300000	1000	0	0	-1	1500
15461755	77	621	0	-100	0	230	101300000	1000	0	0	-1	1500
15474315	75	617	0	-100	0	230	101300000	1000	0	0	-1	1500
15486875	80	614	0	-100	0	230	101300000	1000	0	0	-1	1500
15499435	82	612	0	-100	0	230	101300000	1000	0	0	-1	1500
15511995	80	619	0	-100	0	230	101300000	1000	0	0	-1	1500
15524555	80	616	0	-100	0	230	101300000	1000	0	0	-1	1500
15537115	75	617	0	-100	0	230	101300000	1000	0	0	-1	1500
15549675	77	618	0	-100	0	230	101300000	1000	0	0	-1	1500
15562235	80	614	0	-100	0	230	101300000	1000	0	0	-1	1500
15574795	84	613	0	-100	0	230	101300000	1000	0	0	-1	1500
15587355	72	620	0	-100	0	230	101300000	1000	0	0	-1	1500
15599915	72	618	0	-100	0	230	101300000	1000	0	0	-1	1500
15612475	82	616	0	-100	0	230	101300000	1000	0	0	-1	1500
15625035	84	610	0	-100	0	230	101300000	1000	0	0	-1	1500
15637595	82	618	0	-100	0	230	101300000	1000	0	0	-1	1500
15650155	70	615	0	-100	0	230	101300000	1000	0	0	-1	1500
15662715	75	621	0	-100	0	230	101300000	1000	0	0	-1	1500
15675275	80	616	0	-100	0	230	101300000	1000	0	0	-1	1500
15687835	77	618	0	-100	0	230	101300000	1000	0	0	-1	1500
15700395	80	615	0	-100	0	230	101300000	1000	0	0	-1	1500
15712955	82	615	0	-100	0	230	101300000	1000	0	0	-1	1500
15725515	77	615	0	-100	0	230	101300000	1000	0	0	-1	1500
15738075	75	621	0	-100	0	230	101300000	1000	0	0	-1	1500
15750635	75	615	0	-100	0	230	101300000	1000	0	0	-1	1500
15763195	75	622	0	-100	0	230	101300000	1000	0	0	-1	1500
15775755	80	615	0	-100	0	230	101300000	1000	0	0	-1	1500
15788315	82	614	0	-100	0	230	101300000	1000	0	0	-1	1500
15800875	80	616	0	-100	0	230	101300000	1000	0	0	-1	1500
15813435	75	616	0	-100	0	230	101300000	1000	0	0	-1	1500
15825995	77	616	0	-100	0	230	101300000	1000	0	0	-1	1500
15838555	80	612	0	-100	0	230	101300000	1000	0	0	-1	1500
15851115	82	612	0	-100	0	230	101300000	1000	0	0	-1	1500
15863675	75	617	0	-100	0	230	101300000	1000	0	0	-1	1500
15876235	75	617	0	-100	0	230	101300000	1000	0	0	-1	1500
15888795	77	615	0	-100	0	230	101300000	1000	0	0	-1	1500
15901355	80	616	0	-100	0	230	101300000	1000	0	0	-1	1500
15913915	82	618	0	-100	0	230	101300000	1000	0	0	-1	1500
15926475	75	612	0	-100	0	230	101300000	1000	0	0	-1	1500
15939035	77	615	0	-100	0	230	101300000	1000	0	0	-1	1500
15951595	75	613	0	-100	0	230	101300000	1000	0	0	-1	1500
15964155	70	615	0	-100	0	230	101300000	1000	0	0	-1	1500
15976715	75	619	0	-100	0	230	101300000	1000	0	0	-1	1500
15989275	80	618	0	-100	0	230	101300000	1000	0	0	-1	1500
16001835	75	621	0	-100	0	230	101300000	1000	0	0	-1	1500
16014395	80	617	0	-100	0	230	101300000	1000	0	0	-1	1500
16026955	80	616	0	-100	0	230	101300000	1000	0	0	-1	1500
16039515	80	617	0	-100	0	230	101300000	1000	0	0	-1	1500
16052075	75	619	0	-100	0	230	101300000	1000	0	0	-1	1500
16064635	75	620	0	-100	0	230	101300000	1000	0	0	-1	1500
16077195	75	616	0	-100	0	230	101300000	1000	0	0	-1	1500
16089755	80	615	0	-100	0	230	101300000	1000	0	0	-1	1500
16102315	75	616	0	-100	0	230	101300000	1000	0	0	-1	1500
16114875	80	616	0	-100	0	230	101300000	1000	0	0	-1	1500
16127435	77	619	0	-100	0	230	101300000	1000	0	0	-1	1500
16139995	77	614	0	-100	0	230	101300000	1000	0	0	-1	1500
16152555	82	617	0	-100	0	230	101300000	1000	0	0	-1	1500
16165115	80	616	0	-100	0	230	101300000	1000	0	0	-1	1500
16177675	82	615	0	-100	0	230	101300000	1000	0	0	-1	1500
16190235	82	625	0	-100	0	230	101300000	1000	0	0	-1	1500
16202795	82	613	0	-100	0	230	101300000	1000	0	0	-1	1500
16215355	82	615	0	-100	0	230	101300000	1000	0	0	-1	1500
16227915	77	613	0	-100	0	230	101300000	1000	0	0	-1	1500
16240475	75	620	0	-100	0	230	101300000	1000	0	0	-1	1500
16253035	75	616	0	-100	0	230	101300000	1000	0	0	-1	1500
16265595	72	616	0	-100	0	230	101300000	1000	0	0	-1	1500
16278155	70	617	0	-100	0	230	101300000	1000	0	0	-1	1500
16290715	75	621	0	-100	0	230	101300000	1000	0	0	-1	1500
16303275	75	617	0	-100	0	230	101300000	1000	0	0	-1	1500
16315835	77	618	0	-100	0	230	101300000	1000	0	0	-1	1500
16328395	80	616	0	-100	0	230	101300000	1000	0	0	-1	1500
16340955	82	617	0	-100	0	230	101300000	1000	0	0	-1	1500
16353515	82	616	0	-100	0	230	101300000	1000	0	0	-1	1500
16366075	75	616	0	-100	0	230	101300000	1000	0	0	-1	1500
16378635	75	616	0	-100	0	230	101300000	1000	0	0	-1	1500
16391195	75	619	0	-100	0	230	101300000	1000	0	0	-1	1500
16403755	77	618	0	-100	0	230	101300000	1000	0	0	-1	1500
16416315	75	618	0	-100	0	230	101300000	1000	0	0	-1	1500
16428875	75	618	0	-100	0	230	101300000	1000	0	0	-1	1500
16441435	75	620	0	-100	0	230	101300000	1000	0	0	-1	1500
16453995	77	616	0	-100	0	230	101300000	1000	0	0	-1	1500
16466555	80	615	0	-100	0	230	101300000	1000	0	0	-1	1500
16479115	80	614	0	-100	0	230	101300000	1000	0	0	-1	1500
16491675	80	613	0	-100	0	230	101300000	1000	0	0	-1	1500
16504235	80	617	0	-100	0	230	101300000	1000	0	0	-1	1500
16516795	75	616	0	-100	0	230	101300000	1000	0	0	-1	1500
16529355	75	617	0	-100	0	230	101300000	1000	0	0	-1	1500
16541915	75	617	0	-100	0	230	101300000	1000	0	0	-1	1500
16554475	75	616	0	-100	0	230	101300000	1000	0	0	-1	1500
16567035	80	616	0	-100	0	230	101300000	1000	0	0	-1	1500
16579595	82	615	0	-100	0	230	101300000	1000	0	0	-1	1500
16592155	75	617	0	-100	0	230	101300000	1000	0	0	-1	1500
16604715	75	616	0	-100	0	230	101300000	1000	0	0	-1	1500
16617275	75	628	0	-100	0	230	101300000	1000	0	0	-1	1500
16629835	80	615	0	-100	0	230	101300000	1000	0	0	-1	1500
16642395	84	619	0	-100	0	230	101300000	1000	0	0	-1	1500
16654955	75	617	0	-100	0	230	101300000	1000	0	0	-1	1500
16667515	77	619	0	-100	0	230	101300000	1000	0	0	-1	1500
16680075	75	619	0	-100	0	230	101300000	1000	0	0	-1	1500
16692635	72	620	0	-100	0	230	101300000	1000	0	0	-1	1500
16705195	75	619	0	-100	0	230	101300000	1000	0	0	-1	1500
16717755	82	615	0	-100	0	230	101300000	1000	0	0	-1	1500
16730315	80	612	0	-100	0	230	101300000	1000	0	0	-1	1500
16742875	84	617	0	-100	0	230	101300000	1000	0	0	-1	1500
16755435	75	614	0	-100	0	230	101300000	1000	0	0	-1	1500
16767995	80	616	0	-100	0	230	101300000	1000	0	0	-1	1500
16780555	75	618	0	-100	0	230	101300000	1000	0	0	-1	1500
16793115	75	619	0	-100	0	230	101300000	1000	0	0	-1	1500
16805675	75	617	0	-100	0	230	101300000	1000	0	0	-1	1500
16818235	82	615	0	-100	0	230	101300000	1000	0	0	-1	1500
16830795	84	616	0	-100	0	230	101300000	1000	0	0	-1	1500
16843355	75	617	0	-100	0	230	101300000	1000	0	0	-1	1500
16855915	72	618	0	-100	0	230	101300000	1000	0	0	-1	1500
16868475	82	609	0	-100	0	230	101300000	1000	0	0	-1	1500
16881035	75	622	0	-100	0	230	101300000	1000	0	0	-1	1500
16893595	75	620	0	-100	0	230	101300000	1000	0	0	-1	1500
16906155	77	615	0	-100	0	230	101300000	1000	0	0	-1	1500
16918715	75	616	0	-100	0	230	101300000	1000	0	0	-1	1500
16931275	75	619	0	-100	0	230	101300000	1000	0	0	-1	1500
16943835	82	616	0	-100	0	230	101300000	1000	0	0	-1	1500
16956395	75	619	0	-100	0	230	101300000	1000	0	0	-1	1500
16968955	80	612	0	-100	0	230	101300000	1000	0	0	-1	1500
16981515	77	615	0	-100	0	230	101300000	1000	0	0	-1	1500
16994075	77	616	0	-100	0	230	101300000	1000	0	0	-1	1500
17006635	80	613	0	-100	0	230	101300000	1000	0	0	-1	1500
17019195	77	617	0	-100	0	230	101300000	1000	0	0	-1	1500
17031755	75	621	0	-100	0	230	101300000	1000	0	0	-1	1500
17044315	80	616	0	-100	0	230	101300000	1000	0	0	-1	1500
17056875	75	618	0	-100	0	230	101300000	1000	0	0	-1	1500
17069435	77	621	0	-100	0	230	101300000	1000	0	0	-1	1500
17081995	80	613	0	-100	0	230	101300000	1000	0	0	-1	1500
17094555	82	616	0	-100	0	230	101300000	1000	0	0	-1	1500
17107115	72	619	0	-100	0	230	101300000	1000	0	0	-1	1500
17119675	82	615	0	-100	0	230	101300000	1000	0	0	-1	1500
17132235	77	616	0	-100	0	230	101300000	1000	0	0	-1	1500
17144795	77	618	0	-100	0	230	101300000	1000	0	0	-1	1500
17157355	77	615	0	-100	0	230	101300000	1000	0	0	-1	1500
17169915	80	613	0	-100	0	230	101300000	1000	0	0	-1	1500
17182475	75	617	0	-100	0	230	101300000	1000	0	0	-1	1500
17195035	77	620	0	-100	0	230	101300000	1000	0	0	-1	1500
17207595	82	614	0	-100	0	230	101300000	1000	0	0	-1	1500
17220155	77	618	0	-100	0	230	101300000	1000	0	0	-1	1500
17232715	75	620	0	-100	0	230	101300000	1000	0	0	-1	1500
17245275	77	617	0	-100	0	230	101300000	1000	0	0	-1	1500
17257835	80	621	0	-100	0	230	101300000	1000	0	0	-1	1500
17270395	82	617	0	-100	0	230	101300000	1000	0	0	-1	1500
17282955	77	616	0	-100	0	230	101300000	1000	0	0	-1	1500
17295515	82	616	0	-100	0	230	101300000	1000	0	0	-1	1500
17308075	77	615	0	-100	0	230	101300000	1000	0	0	-1	1500
17320635	77	618	0	-100	0	230	101300000	1000	0	0	-1	1500
17333195	82	618	0	-100	0	230	101300000	1000	0	0	-1	1500
17345755	75	614	0	-100	0	230	101300000	1000	0	0	-1	1500
17358315	75	616	0	-100	0	230	101300000	1000	0	0	-1	1500
17370875	80	616	0	-100	0	230	101300000	1000	0	0	-1	1500
17383435	80	616	0	-100	0	230	101300000	1000	0	0	-1	1500
17395995	82	616	0	-100	0	230	101300000	1000	0	0	-1	1500
17408555	72	620	0	-100	0	230	101300000	1000	0	0	-1	1500
17421115	77	613	0	-100	0	230	101300000	1000	0	0	-1	1500
17433675	77	616	0	-100	0	230	101300000	1000	0	0	-1	1500
17446235	77	619	0	-100	0	230	101300000	1000	0	0	-1	1500
17458795	82	618	0	-100	0	230	101300000	1000	0	0	-1	1500
17471355	75	622	0	-100	0	230	101300000	1000	0	0	-1	1500
17483915	82	613	0	-100	0	230	101300000	1000	0	0	-1	1500
17496475	75	620	0	-100	0	230	101300000	1000	0	0	-1	1500
17509035	82	616	0	-100	0	230	101300000	1000	0	0	-1	1500
17521595	75	620	0	-100	0	230	101300000	1000	0	0	-1	1500
17534155	77	619	0	-100	0	230	101300000	1000	0	0	-1	1500
17546715	75	617	0	-100	0	230	101300000	1000	0	0	-1	1500
17559275	80	615	0	-100	0	230	101300000	1000	0	0	-1	1500
17571835	72	618	0	-100	0	230	101300000	1000	0	0	-1	1500
17584395	80	615	0	-100	0	230	101300000	1000	0	0	-1	1500
17596955	77	615	0	-100	0	230	101300000	1000	0	0	-1	1500
17609515	77	619	0	-100	0	230	101300000	1000	0	0	-1	1500
17622075	80	615	0	-100	0	230	101300000	1000	0	0	-1	1500
17634635	72	616	0	-100	0	230	101300000	1000	0	0	-1	1500
17647195	72	618	0	-100	0	230	101300000	1000	0	0	-1	1500
17659755	84	615	0	-100	0	230	101300000	1000	0	0	-1	1500
17672315	75	620	0	-100	0	230	101300000	1000	0	0	-1	1500
17684875	75	616	0	-100	0	230	101300000	1000	0	0	-1	1500
17697435	80	616	0	-100	0	230	101300000	1000	0	0	-1	1500
17709995	77	615	0	-100	0	230	101300000	1000	0	0	-1	1500
17722555	82	612	0	-100	0	230	101300000	1000	0	0	-1	1500
17735115	75	616	0	-100	0	230	101300000	1000	0	0	-1	1500
17747675	75	616	0	-100	0	230	101300000	1000	0	0	-1	1500
17760235	82	615	0	-100	0	230	101300000	1000	0	0	-1	1500
17772795	72	617	0	-100	0	230	101300000	1000	0	0	-1	1500
17785355	75	616	0	-100	0	230	101300000	1000	0	0	-1	1500
17797915	82	616	0	-100	0	230	101300000	1000	0	0	-1	1500
17810475	75	619	0	-100	0	230	101300000	1000	0	0	-1	1500
17823035	75	617	0	-100	0	230	101300000	1000	0	0	-1	1500
17835595	80	615	0	-100	0	230	101300000	1000	0	0	-1	1500
17848155	70	616	0	-100	0	230	101300000	1000	0	0	-1	1500
17860715	77	619	0	-100	0	230	101300000	1000	0	0	-1	1500
17873275	77	621	0	-100	0	230	101300000	1000	0	0	-1	1500
17885835	75	618	0	-100	0	230	101300000	1000	0	0	-1	1500
17898395	75	617	0	-100	0	230	101300000	1000	0	0	-1	1500
17910955	82	617	0	-100	0	230	101300000	1000	0	0	-1	1500
17923515	75	616	0	-100	0	230	101300000	1000	0	0	-1	1500
17936075	75	616	0	-100	0	230	101300000	1000	0	0	-1	1500
17948635	80	613	0	-100	0	230	101300000	1000	0	0	-1	1500
17961195	77	621	0	-100	0	230	101300000	1000	0	0	-1	1500
17973755	80	615	0	-100	0	230	101300000	1000	0	0	-1	1500
17986315	77	611	0	-100	0	230	101300000	1000	0	0	-1	1500
17998875	77	620	0	-100	0	230	101300000	1000	0	0	-1	1500
18011435	82	618	0	-100	0	230	101300000	1000	0	0	-1	1500
18023995	80	620	0	-100	0	230	101300000	1000	0	0	-1	1500
18036555	75	619	0	-100	0	230	101300000	1000	0	0	-1	1500
18049115	80	615	0	-100	0	230	101300000	1000	0	0	-1	1500
18061675	84	613	0	-100	0	230	101300000	1000	0	0	-1	1500
18074235	75	618	0	-100	0	230	101300000	1000	0	0	-1	1500
18086795	75	619	0	-100	0	230	101300000	1000	0	0	-1	1500
18099355	77	621	0	-100	0	230	101300000	1000	0	0	-1	1500
18111915	80	614	0	-100	0	230	101300000	1000	0	0	-1	1500
18124475	82	614	0	-100	0	230	101300000	1000	0	0	-1	1500
18137035	82	614	0	-100	0	230	101300000	1000	0	0	-1	1500
18149595	77	615	0	-100	0	230	101300000	1000	0	0	-1	1500
18162155	72	618	0	-100	0	230	101300000	1000	0	0	-1	1500
18174715	77	616	0	-100	0	230	101300000	1000	0	0	-1	1500
18187275	75	617	0	-100	0	230	101300000	1000	0	0	-1	1500
18199835	77	621	0	-100	0	230	101300000	1000	0	0	-1	1500
18212395	82	617	0	-100	0	230	101300000	1000	0	0	-1	1500
18224955	82	615	0	-100	0	230	101300000	1000	0	0	-1	1500
18237515	80	615	0	-100	0	230	101300000	1000	0	0	-1	1500
18250075	82	616	0	-100	0	230	101300000	1000	0	0	-1	1500
18262635	77	617	0	-100	0	230	101300000	1000	0	0	-1	1500
18275195	75	616	0	-100	0	230	101300000	1000	0	0	-1	1500
18287755	75	621	0	-100	0	230	101300000	1000	0	0	-1	1500
18300315	77	618	0	-100	0	230	101300000	1000	0	0	-1	1500
18312875	75	618	0	-100	0	230	101300000	1000	0	0	-1	1500
18325435	82	615	0	-100	0	230	101300000	1000	0	0	-1	1500
18337995	84	620	0	-100	0	230	101300000	1000	0	0	-1	1500
18350555	75	617	0	-100	0	230	101300000	1000	0	0	-1	1500
18363115	72	618	0	-100	0	230	101300000	1000	0	0	-1	1500
18375675	77	618	0	-100	0	230	101300000	1000	0	0	-1	1500
18388235	75	614	0	-100	0	230	101300000	1000	0	0	-1	1500
18400795	82	616	0	-100	0	230	101300000	1000	0	0	-1	1500
18413355	77	617	0	-100	0	230	101300000	1000	0	0	-1	1500
18425915	75	619	0	-100	0	230	101300000	1000	0	0	-1	1500
18438475	75	618	0	-100	0	230	101300000	1000	0	0	-1	1500
18451035	80	615	0	-100	0	230	101300000	1000	0	0	-1	1500
18463595	80	613	0	-100	0	230	101300000	1000	0	0	-1	1500
18476155	70	616	0	-100	0	230	101300000	1000	0	0	-1	1500
18488715	75	618	0	-100	0	230	101300000	1000	0	0	-1	1500
18501275	80	615	0	-100	0	230	101300000	1000	0	0	-1	1500
18513835	82	616	0	-100	0	230	101300000	1000	0	0	-1	1500
18526395	72	619	0	-100	0	230	101300000	1000	0	0	-1	1500
18538955	77	620	0	-100	0	230	101300000	1000	0	0	-1	1500
18551515	77	616	0	-100	0	230	101300000	1000	0	0	-1	1500
18564075	82	617	0	-100	0	230	101300000	1000	0	0	-1	1500
18576635	75	616	0	-100	0	230	101300000	1000	0	0	-1	1500
18589195	75	618	0	-100	0	230	101300000	1000	0	0	-1	1500
18601755	77	619	0	-100	0	230	101300000	1000	0	0	-1	1500
18614315	75	616	0	-100	0	230	101300000	1000	0	0	-1	1500
18626875	80	613	0	-100	0	230	101300000	1000	0	0	-1	1500
18639435	82	617	0	-100	0	230	101300000	1000	0	0	-1	1500
18651995	75	620	0	-100	0	230	101300000	1000	0	0	-1	1500
18664555	75	620	0	-100	0	230	101300000	1000	0	0	-1	1500
18677115	80	615	0	-100	0	230	101300000	1000	0	0	-1	1500
18689675	72	620	0	-100	0	230	101300000	1000	0	0	-1	1500
18702235	75	617	0	-100	0	230	101300000	1000	0	0	-1	1500
18714795	82	615	0	-100	0	230	101300000	1000	0	0	-1	1500
18727355	82	618	0	-100	0	230	101300000	1000	0	0	-1	1500
18739915	82	618	0	-100	0	230	101300000	1000	0	0	-1	1500
18752475	77	612	0	-100	0	230	101300000	1000	0	0	-1	1500
18765035	75	620	0	-100	0	230	101300000	1000	0	0	-1	1500
18777595	75	618	0	-100	0	230	101300000	1000	0	0	-1	1500
18790155	75	613	0	-100	0	230	101300000	1000	0	0	-1	1500
18802715	72	616	0	-100	0	230	101300000	1000	0	0	-1	1500
18815275	80	616	0	-100	0	230	101300000	1000	0	0	-1	1500
18827835	82	618	0	-100	0	230	101300000	1000	0	0	-1	1500
18840395	75	615	0	-100	0	230	101300000	1000	0	0	-1	1500
18852955	72	617	0	-100	0	230	101300000	1000	0	0	-1	1500
18865515	72	618	0	-100	0	230	101300000	1000	0	0	-1	1500
18878075	77	619	0	-100	0	230	101300000	1000	0	0	-1	1500
18890635	77	618	0	-100	0	230	101300000	1000	0	0	-1	1500
18903195	82	617	0	-100	0	230	101300000	1000	0	0	-1	1500
18915755	75	616	0	-100	0	230	101300000	1000	0	0	-1	1500
18928315	75	619	0	-100	0	230	101300000	1000	0	0	-1	1500
18940875	75	619	0	-100	0	230	101300000	1000	0	0	-1	1500
18953435	80	613	0	-100	0	230	101300000	1000	0	0	-1	1500
18965995	80	621	0	-100	0	230	101300000	1000	0	0	-1	1500
18978555	72	617	0	-100	0	230	101300000	1000	0	0	-1	1500
18991115	77	617	0	-100	0	230	101300000	1000	0	0	-1	1500
19003675	75	615	0	-100	0	230	101300000	1000	0	0	-1	1500
19016235	82	617	0	-100	0	230	101300000	1000	0	0	-1	1500
19028795	77	614	0	-100	0	230	101300000	1000	0	0	-1	1500
19041355	75	620	0	-100	0	230	101300000	1000	0	0	-1	1500
19053915	75	620	0	-100	0	230	101300000	1000	0	0	-1	1500
19066475	82	617	0	-100	0	230	101300000	1000	0	0	-1	1500
19079035	72	617	0	-100	0	230	101300000	1000	0	0	-1	1500
19091595	77	620	0	-100	0	230	101300000	1000	0	0	-1	1500
19104155	82	616	0	-100	0	230	101300000	1000	0	0	-1	1500
19116715	75	619	0	-100	0	230	101300000	1000	0	0	-1	1500
19129275	80	615	0	-100	0	230	101300000	1000	0	0	-1	1500
19141835	80	616	0	-100	0	230	101300000	1000	0	0	-1	1500
19154395	82	616	0	-100	0	230	101300000	1000	0	0	-1	1500
19166955	84	616	0	-100	0	230	101300000	1000	0	0	-1	1500
19179515	75	615	0	-100	0	230	101300000	1000	0	0	-1	1500
19192075	72	620	0	-100	0	230	101300000	1000	0	0	-1	1500
19204635	77	617	0	-100	0	230	101300000	1000	0	0	-1	1500
19217195	77	619	0	-100	0	230	101300000	1000	0	0	-1	1500
19229755	82	617	0	-100	0	230	101300000	1000	0	0	-1	1500
19242315	82	617	0	-100	0	230	101300000	1000	0	0	-1	1500
19254875	75	618	0	-100	0	230	101300000	1000	0	0	-1	1500
19267435	75	617	0	-100	0	230	101300000	1000	0	0	-1	1500
19279995	79	616	0	-100	0	230	101300000	1000	0	0	-1	1500
19292555	82	616	0	-100	0	230	101300000	1000	0	0	-1	1500
19305115	72	615	0	-100	0	230	101300000	1000	0	0	-1	1500
19317675	77	616	0	-100	0	230	101300000	1000	0	0	-1	1500
19330235	82	615	0	-100	0	230	101300000	1000	0	0	-1	1500
19342795	75	617	0	-100	0	230	101300000	1000	0	0	-1	1500
19355355	77	620	0	-100	0	230	101300000	1000	0	0	-1	1500
19367915	80	613	0	-100	0	230	101300000	1000	0	0	-1	1500
19380475	72	616	0	-100	0	230	101300000	1000	0	0	-1	1500
19393035	77	624	0	-100	0	230	101300000	1000	0	0	-1	1500
19405595	77	621	0	-100	0	230	101300000	1000	0	0	-1	1500
19418155	79	615	0	-100	0	230	101300000	1000	0	0	-1	1500
19430715	75	618	0	-100	0	230	101300000	1000	0	0	-1	1500
19443275	72	619	0	-100	0	230	101300000	1000	0	0	-1	1500
19455835	82	612	0	-100	0	230	101300000	1000	0	0	-1	1500
19468395	75	619	0	-100	0	230	101300000	1000	0	0	-1	1500
19480955	80	616	0	-100	0	230	101300000	1000	0	0	-1	1500
19493515	77	614	0	-100	0	230	101300000	1000	0	0	-1	1500
19506075	77	620	0	-100	0	230	101300000	1000	0	0	-1	1500
19518635	75	615	0	-100	0	230	101300000	1000	0	0	-1	1500
19531195	75	615	0	-100	0	230	101300000	1000	0	0	-1	1500
19543755	80	613	0	-100	0	230	101300000	1000	0	0	-1	1500
19556315	72	617	0	-100	0	230	101300000	1000	0	0	-1	1500
19568875	75	616	0	-100	0	230	101300000	1000	0	0	-1	1500
19581435	80	615	0	-100	0	230	101300000	1000	0	0	-1	1500
19593995	75	615	0	-100	0	230	101300000	1000	0	0	-1	1500
19606555	79	614	0	-100	0	230	101300000	1000	0	0	-1	1500
19619115	82	618	0	-100	0	230	101300000	1000	0	0	-1	1500
19631675	75	617	0	-100	0	230	101300000	1000	0	0	-1	1500
19644235	80	615	0	-100	0	230	101300000	1000	0	0	-1	1500
19656795	75	616	0	-100	0	230	101300000	1000	0	0	-1	1500
19669355	75	617	0	-100	0	230	101300000	1000	0	0	-1	1500
19681915	82	612	0	-100	0	230	101300000	1000	0	0	-1	1500
19694475	75	621	0	-100	0	230	101300000	1000	0	0	-1	1500
19707035	80	617	0	-100	0	230	101300000	1000	0	0	-1	1500
19719595	82	618	0	-100	0	230	101300000	1000	0	0	-1	1500
19732155	72	620	0	-100	0	230	101300000	1000	0	0	-1	1500
19744715	79	616	0	-100	0	230	101300000	1000	0	0	-1	1500
19757275	72	618	0	-100	0	230	101300000	1000	0	0	-1	1500
19769835	80	615	0	-100	0	230	101300000	1000	0	0	-1	1500
19782395	75	615	0	-100	0	230	101300000	1000	0	0	-1	1500
19794955	77	620	0	-100	0	230	101300000	1000	0	0	-1	1500
19807515	82	612	0	-100	0	230	101300000	1000	0	0	-1	1500
19820075	75	621	0	-100	0	230	101300000	1000	0	0	-1	1500
19832635	77	617	0	-100	0	230	101300000	1000	0	0	-1	1500
19845195	82	619	0	-100	0	230	101300000	1000	0	0	-1	1500
19857755	72	622	0	-100	0	230	101300000	1000	0	0	-1	1500
19870315	77	619	0	-100	0	230	101300000	1000	0	0	-1	1500
19882875	84	618	0	-100	0	230	101300000	1000	0	0	-1	1500
19895435	72	620	0	-100	0	230	101300000	1000	0	0	-1	1500
19907995	72	614	0	-100	0	230	101300000	1000	0	0	-1	1500
19920555	82	616	0	-100	0	230	101300000	1000	0	0	-1	1500
19933115	72	617	0	-100	0	230	101300000	1000	0	0	-1	1500
19945675	77	618	0	-100	0	230	101300000	1000	0	0	-1	1500
19958235	80	615	0	-100	0	230	101300000	1000	0	0	-1	1500
19970795	82	617	0	-100	0	230	101300000	1000	0	0	-1	1500
19983355	77	613	0	-100	0	230	101300000	1000	0	0	-1	1500
19995915	72	618	0	-100	0	230	101300000	1000	0	0	-1	1500
20008475	80	616	0	-100	0	230	101300000	1000	0	0	-1	1500
20021035	82	618	0	-100	0	230	101300000	1000	0	0	-1	1500
20033595	75	619	0	-100	0	230	101300000	1000	0	0	-1	1500
20046155	72	618	0	-100	0	230	101300000	1000	0	0	-1	1500
20058715	84	614	0	-100	0	230	101300000	1000	0	0	-1	1500
20071275	75	617	0	-100	0	230	101300000	1000	0	0	-1	1500
20083835	77	619	0	-100	0	230	101300000	1000	0	0	-1	1500
20096395	80	614	0	-100	0	230	101300000	1000	0	0	-1	1500
20108955	84	617	0	-100	0	230	101300000	1000	0	0	-1	1500
20121515	72	617	0	-100	0	230	101300000	1000	0	0	-1	1500
20134075	75	620	0	-100	0	230	101300000	1000	0	0	-1	1500
20146635	82	612	0	-100	0	230	101300000	1000	0	0	-1	1500
20159195	75	614	0	-100	0	230	101300000	1000	0	0	-1	1500
20171755	75	617	0	-100	0	230	101300000	1000	0	0	-1	1500
20184315	77	615	0	-100	0	230	101300000	1000	0	0	-1	1500
20196875	75	617	0	-100	0	230	101300000	1000	0	0	-1	1500
20209435	82	613	0	-100	0	230	101300000	1000	0	0	-1	1500
20221995	75	617	0	-100	0	230	101300000	1000	0	0	-1	1500
20234555	75	616	0	-100	0	230	101300000	1000	0	0	-1	1500
20247115	82	617	0	-100	0	230	101300000	1000	0	0	-1	1500
20259675	75	616	0	-100	0	230	101300000	1000	0	0	-1	1500
20272235	75	615	0	-100	0	230	101300000	1000	0	0	-1	1500
20284795	82	612	0	-100	0	230	101300000	1000	0	0	-1	1500
20297355	72	617	0	-100	0	230	101300000	1000	0	0	-1	1500
20309915	75	621	0	-100	0	230	101300000	1000	0	0	-1	1500
20322475	84	611	0	-100	0	230	101300000	1000	0	0	-1	1500
20335035	75	618	0	-100	0	230	101300000	1000	0	0	-1	1500
20347595	75	617	0	-100	0	230	101300000	1000	0	0	-1	1500
20360155	75	614	0	-100	0	230	101300000	1000	0	0	-1	1500
20372715	84	613	0	-100	0	230	101300000	1000	0	0	-1	1500
20385275	77	612	0	-100	0	230	101300000	1000	0	0	-1	1500
20397835	72	621	0	-100	0	230	101300000	1000	0	0	-1	1500
20410395	77	620	0	-100	0	230	101300000	1000	0	0	-1	1500
20422955	75	614	0	-100	0	230	101300000	1000	0	0	-1	1500
20435515	82	617	0	-100	0	230	101300000	1000	0	0	-1	1500
20448075	80	615	0	-100	0	230	101300000	1000	0	0	-1	1500
20460635	77	611	0	-100	0	230	101300000	1000	0	0	-1	1500
20473195	72	618	0	-100	0	230	101300000	1000	0	0	-1	1500
20485755	80	618	0	-100	0	230	101300000	1000	0	0	-1	1500
20498315	77	616	0	-100	0	230	101300000	1000	0	0	-1	1500
20510875	82	616	0	-100	0	230	101300000	1000	0	0	-1	1500
20523435	77	617	0	-100	0	230	101300000	1000	0	0	-1	1500
20535995	75	616	0	-100	0	230	101300000	1000	0	0	-1	1500
20548555	75	616	0	-100	0	230	101300000	1000	0	0	-1	1500
20561115	80	616	0	-100	0	230	101300000	1000	0	0	-1	1500
20573675	75	615	0	-100	0	230	101300000	1000	0	0	-1	1500
20586235	77	616	0	-100	0	230	101300000	1000	0	0	-1	1500
20598795	75	615	0	-100	0	230	101300000	1000	0	0	-1	1500
20611355	82	616	0	-100	0	230	101300000	1000	0	0	-1	1500
20623915	80	614	0	-100	0	230	101300000	1000	0	0	-1	1500
20636475	75	619	0	-100	0	230	101300000	1000	0	0	-1	1500
20649035	77	620	0	-100	0	230	101300000	1000	0	0	-1	1500
20661595	80	616	0	-100	0	230	101300000	1000	0	0	-1	1500
20674155	79	615	0	-100	0	230	101300000	1000	0	0	-1	1500
20686715	80	615	0	-100	0	230	101300000	1000	0	0	-1	1500
20699275	75	616	0	-100	0	230	101300000	1000	0	0	-1	1500
20711835	75	619	0	-100	0	230	101300000	1000	0	0	-1	1500
20724395	75	618	0	-100	0	230	101300000	1000	0	0	-1	1500
20736955	77	617	0	-100	0	230	101300000	1000	0	0	-1	1500
20749515	75	620	0	-100	0	230	101300000	1000	0	0	-1	1500
20762075	75	618	0	-100	0	230	101300000	1000	0	0	-1	1500
20774635	80	619	0	-100	0	230	101300000	1000	0	0	-1	1500
20787195	80	616	0	-100	0	230	101300000	1000	0	0	-1	1500
20799755	82	613	0	-100	0	230	101300000	1000	0	0	-1	1500
20812315	82	617	0	-100	0	230	101300000	1000	0	0	-1	1500
20824875	75	614	0	-100	0	230	101300000	1000	0	0	-1	1500
20837435	75	617	0	-100	0	230	101300000	1000	0	0	-1	1500
20849995	72	616	0	-100	0	230	101300000	1000	0	0	-1	1500
20862555	75	614	0	-100	0	230	101300000	1000	0	0	-1	1500
20875115	72	619	0	-100	0	230	101300000	1000	0	0	-1	1500
20887675	75	618	0	-100	0	230	101300000	1000	0	0	-1	1500
20900235	75	617	0	-100	0	230	101300000	1000	0	0	-1	1500
20912795	82	618	0	-100	0	230	101300000	1000	0	0	-1	1500
20925355	80	618	0	-100	0	230	101300000	1000	0	0	-1	1500
20937915	75	616	0	-100	0	230	101300000	1000	0	0	-1	1500
20950475	75	619	0	-100	0	230	101300000	1000	0	0	-1	1500
20963035	75	620	0	-100	0	230	101300000	1000	0	0	-1	1500
20975595	77	618	0	-100	0	230	101300000	1000	0	0	-1	1500
20988155	79	612	0	-100	0	230	101300000	1000	0	0	-1	1500
21000715	75	617	0	-100	0	230	101300000	1000	0	0	-1	1500
21013275	75	616	0	-100	0	230	101300000	1000	0	0	-1	1500
21025835	75	618	0	-100	0	230	101300000	1000	0	0	-1	1500
21038395	82	616	0	-100	0	230	101300000	1000	0	0	-1	1500
21050955	80	615	0	-100	0	230	101300000	1000	0	0	-1	1500
21063515	72	617	0	-100	0	230	101300000	1000	0	0	-1	1500
21076075	75	617	0	-100	0	230	101300000	1000	0	0	-1	1500
21088635	77	616	0	-100	0	230	101300000	1000	0	0	-1	1500
21101195	80	616	0	-100	0	230	101300000	1000	0	0	-1	1500
21113755	80	616	0	-100	0	230	101300000	1000	0	0	-1	1500
21126315	75	619	0	-100	0	230	101300000	1000	0	0	-1	1500
21138875	75	621	0	-100	0	230	101300000	1000	0	0	-1	1500
21151435	82	612	0	-100	0	230	101300000	1000	0	0	-1	1500
21163995	72	615	0	-100	0	230	101300000	1000	0	0	-1	1500
21176555	77	617	0	-100	0	230	101300000	1000	0	0	-1	1500
21189115	82	612	0	-100	0	230	101300000	1000	0	0	-1	1500
21201675	72	619	0	-100	0	230	101300000	1000	0	0	-1	1500
21214235	80	613	0	-100	0	230	101300000	1000	0	0	-1	1500
21226795	77	617	0	-100	0	230	101300000	1000	0	0	-1	1500
21239355	75	615	0	-100	0	230	101300000	1000	0	0	-1	1500
21251915	84	616	0	-100	0	230	101300000	1000	0	0	-1	1500
21264475	72	617	0	-100	0	230	101300000	1000	0	0	-1	1500
21277035	75	621	0	-100	0	230	101300000	1000	0	0	-1	1500
21289595	82	616	0	-100	0	230	101300000	1000	0	0	-1	1500
21302155	72	617	0	-100	0	230	101300000	1000	0	0	-1	1500
21314715	82	616	0	-100	0	230	101300000	1000	0	0	-1	1500
21327275	72	618	0	-100	0	230	101300000	1000	0	0	-1	1500
21339835	75	619	0	-100	0	230	101300000	1000	0	0	-1	1500
21352395	82	616	0	-100	0	230	101300000	1000	0	0	-1	1500
21364955	75	618	0	-100	0	230	101300000	1000	0	0	-1	1500
21377515	75	615	0	-100	0	230	101300000	1000	0	0	-1	1500
21390075	82	617	0	-100	0	230	101300000	1000	0	0	-1	1500
21402635	72	618	0	-100	0	230	101300000	1000	0	0	-1	1500
21415195	75	619	0	-100	0	230	101300000	1000	0	0	-1	1500
21427755	77	616	0	-100	0	230	101300000	1000	0	0	-1	1500
21440315	82	619	0	-100	0	230	101300000	1000	0	0	-1	1500
21452875	82	616	0	-100	0	230	101300000	1000	0	0	-1	1500
21465435	72	616	0	-100	0	230	101300000	1000	0	0	-1	1500
21477995	75	616	0	-100	0	230	101300000	1000	0	0	-1	1500
21490555	82	614	0	-100	0	230	101300000	1000	0	0	-1	1500
21503115	84	617	0	-100	0	230	101300000	1000	0	0	-1	1500
21515675	75	616	0	-100	0	230	101300000	1000	0	0	-1	1500
21528235	75	620	0	-100	0	230	101300000	1000	0	0	-1	1500
21540795	72	617	0	-100	0	230	101300000	1000	0	0	-1	1500
21553355	77	617	0	-100	0	230	101300000	1000	0	0	-1	1500
21565915	80	617	0	-100	0	230	101300000	1000	0	0	-1	1500
21578475	82	628	0	-100	0	230	101300000	1000	0	0	-1	1500
21591035	77	615	0	-100	0	230	101300000	1000	0	0	-1	1500
21603595	77	615	0	-100	0	230	101300000	1000	0	0	-1	1500
21616155	72	615	0	-100	0	230	101300000	1000	0	0	-1	1500
21628715	82	618	0	-100	0	230	101300000	1000	0	0	-1	1500
21641275	80	618	0	-100	0	230	101300000	1000	0	0	-1	1500
21653835	75	618	0	-100	0	230	101300000	1000	0	0	-1	1500
21666395	75	616	0	-100	0	230	101300000	1000	0	0	-1	1500
21678955	77	618	0	-100	0	230	101300000	1000	0	0	-1	1500
21691515	80	617	0	-100	0	230	101300000	1000	0	0	-1	1500
21704075	77	610	0	-100	0	230	101300000	1000	0	0	-1	1500
21716635	72	620	0	-100	0	230	101300000	1000	0	0	-1	1500
21729195	75	617	0	-100	0	230	101300000	1000	0	0	-1	1500
21741755	80	613	0	-100	0	230	101300000	1000	0	0	-1	1500
21754315	82	628	0	-100	0	230	101300000	1000	0	0	-1	1500
21766875	82	614	0	-100	0	230	101300000	1000	0	0	-1	1500
21779435	75	616	0	-100	0	230	101300000	1000	0	0	-1	1500
21791995	75	616	0	-100	0	230	101300000	1000	0	0	-1	1500
21804555	80	613	0	-100	0	230	101300000	1000	0	0	-1	1500
21817115	75	619	0	-100	0	230	101300000	1000	0	0	-1	1500
21829675	77	620	0	-100	0	230	101300000	1000	0	0	-1	1500
21842235	72	618	0	-100	0	230	101300000	1000	0	0	-1	1500
21854795	77	618	0	-100	0	230	101300000	1000	0	0	-1	1500
21867355	82	617	0	-100	0	230	101300000	1000	0	0	-1	1500
21879915	72	617	0	-100	0	230	101300000	1000	0	0	-1	1500
21892475	80	616	0	-100	0	230	101300000	1000	0	0	-1	1500
21905035	75	614	0	-100	0	230	101300000	1000	0	0	-1	1500
21917595	72	618	0	-100	0	230	101300000	1000	0	0	-1	1500
21930155	77	613	0	-100	0	230	101300000	1000	0	0	-1	1500
21942715	72	618	0	-100	0	230	101300000	1000	0	0	-1	1500
21955275	72	616	0	-100	0	230	101300000	1000	0	0	-1	1500
21967835	84	615	0	-100	0	230	101300000	1000	0	0	-1	1500
21980395	75	620	0	-100	0	230	101300000	1000	0	0	-1	1500
21992955	75	621	0	-100	0	230	101300000	1000	0	0	-1	1500
22005515	80	615	0	-100	0	230	101300000	1000	0	0	-1	1500
22018075	82	617	0	-100	0	230	101300000	1000	0	0	-1	1500
22030635	72	620	0	-100	0	230	101300000	1000	0	0	-1	1500
22043195	75	619	0	-100	0	230	101300000	1000	0	0	-1	1500
22055755	80	612	0	-100	0	230	101300000	1000	0	0	-1	1500
22068315	72	617	0	-100	0	230	101300000	1000	0	0	-1	1500
22080875	75	617	0	-100	0	230	101300000	1000	0	0	-1	1500
22093435	84	616	0	-100	0	230	101300000	1000	0	0	-1	1500
22105995	72	617	0	-100	0	230	101300000	1000	0	0	-1	1500
22118555	75	621	0	-100	0	230	101300000	1000	0	0	-1	1500
22131115	82	615	0	-100	0	230	101300000	1000	0	0	-1	1500
22143675	72	615	0	-100	0	230	101300000	1000	0	0	-1	1500
22156235	75	616	0	-100	0	230	101300000	1000	0	0	-1	1500
22168795	80	612	0	-100	0	230	101300000	1000	0	0	-1	1500
22181355	80	612	0	-100	0	230	101300000	1000	0	0	-1	1500
22193915	77	616	0	-100	0	230	101300000	1000	0	0	-1	1500
22206475	72	617	0	-100	0	230	101300000	1000	0	0	-1	1500
22219035	77	618	0	-100	0	230	101300000	1000	0	0	-1	1500
22231595	75	616	0	-100	0	230	101300000	1000	0	0	-1	1500
22244155	80	615	0	-100	0	230	101300000	1000	0	0	-1	1500
22256715	80	613	0	-100	0	230	101300000	1000	0	0	-1	1500
22269275	72	619	0	-100	0	230	101300000	1000	0	0	-1	1500
22281835	77	618	0	-100	0	230	101300000	1000	0	0	-1	1500
22294395	82	617	0	-100	0	230	101300000	1000	0	0	-1	1500
22306955	82	618	0	-100	0	230	101300000	1000	0	0	-1	1500
22319515	72	619	0	-100	0	230	101300000	1000	0	0	-1	1500
22332075	75	621	0	-100	0	230	101300000	1000	0	0	-1	1500
22344635	80	613	0	-100	0	230	101300000	1000	0	0	-1	1500
22357195	82	616	0	-100	0	230	101300000	1000	0	0	-1	1500
22369755	72	617	0	-100	0	230	101300000	1000	0	0	-1	1500
22382315	72	620	0	-100	0	230	101300000	1000	0	0	-1	1500
22394875	80	617	0	-100	0	230	101300000	1000	0	0	-1	1500
22407435	84	616	0	-100	0	230	101300000	1000	0	0	-1	1500
22419995	80	620	0	-100	0	230	101300000	1000	0	0	-1	1500
22432555	77	612	0	-100	0	230	101300000	1000	0	0	-1	1500
22445115	72	620	0	-100	0	230	101300000	1000	0	0	-1	1500
22457675	72	621	0	-100	0	230	101300000	1000	0	0	-1	1500
22470235	72	616	0	-100	0	230	101300000	1000	0	0	-1	1500
22482795	77	618	0	-100	0	230	101300000	1000	0	0	-1	1500
22495355	75	619	0	-100	0	230	101300000	1000	0	0	-1	1500
22507915	72	620	0	-100	0	230	101300000	1000	0	0	-1	1500
22520475	80	611	0	-100	0	230	101300000	1000	0	0	-1	1500
22533035	82	619	0	-100	0	230	101300000	1000	0	0	-1	1500
22545595	82	613	0	-100	0	230	101300000	1000	0	0	-1	1500
22558155	80	619	0	-100	0	230	101300000	1000	0	0	-1	1500
22570715	77	611	0	-100	0	230	101300000	1000	0	0	-1	1500
22583275	72	622	0	-100	0	230	101300000	1000	0	0	-1	1500
22595835	77	617	0	-100	0	230	101300000	1000	0	0	-1	1500
22608395	72	617	0	-100	0	230	101300000	1000	0	0	-1	1500
22620955	80	615	0	-100	0	230	101300000	1000	0	0	-1	1500
22633515	82	614	0	-100	0	230	101300000	1000	0	0	-1	1500
22646075	72	618	0	-100	0	230	101300000	1000	0	0	-1	1500
22658635	80	614	0	-100	0	230	101300000	1000	0	0	-1	1500
22671195	75	616	0	-100	0	230	101300000	1000	0	0	-1	1500
22683755	80	612	0	-100	0	230	101300000	1000	0	0	-1	1500
22696315	84	616	0	-100	0	230	101300000	1000	0	0	-1	1500
22708875	75	620	0	-100	0	230	101300000	1000	0	0	-1	1500
22721435	75	615	0	-100	0	230	101300000	1000	0	0	-1	1500
22733995	75	612	0	-100	0	230	101300000	1000	0	0	-1	1500
22746555	79	614	0	-100	0	230	101300000	1000	0	0	-1	1500
22759115	80	615	0	-100	0	230	101300000	1000	0	0	-1	1500
22771675	77	615	0	-100	0	230	101300000	1000	0	0	-1	1500
22784235	72	620	0	-100	0	230	101300000	1000	0	0	-1	1500
22796795	77	617	0	-100	0	230	101300000	1000	0	0	-1	1500
22809355	75	621	0	-100	0	230	101300000	1000	0	0	-1	1500
22821915	75	617	0	-100	0	230	101300000	1000	0	0	-1	1500
22834475	75	616	0	-100	0	230	101300000	1000	0	0	-1	1500
22847035	75	616	0	-100	0	230	101300000	1000	0	0	-1	1500
22859595	80	616	0	-100	0	230	101300000	1000	0	0	-1	1500
22872155	79	616	0	-100	0	230	101300000	1000	0	0	-1	1500
22884715	80	618	0	-100	0	230	101300000	1000	0	0	-1	1500
22897275	77	620	0	-100	0	230	101300000	1000	0	0	-1	1500
22909835	80	617	0	-100	0	230	101300000	1000	0	0	-1	1500
22922395	82	616	0	-100	0	230	101300000	1000	0	0	-1	1500
22934955	79	616	0	-100	0	230	101300000	1000	0	0	-1	1500
22947515	82	616	0	-100	0	230	101300000	1000	0	0	-1	1500
22960075	82	618	0	-100	0	230	101300000	1000	0	0	-1	1500
22972635	82	614	0	-100	0	230	101300000	1000	0	0	-1	1500
22985195	82	617	0	-100	0	230	101300000	1000	0	0	-1	1500
22997755	77	617	0	-100	0	230	101300000	1000	0	0	-1	1500
23010315	77	615	0	-100	0	230	101300000	1000	0	0	-1	1500
23022875	75	613	0	-100	0	230	101300000	1000	0	0	-1	1500
23035435	72	617	0	-100	0	230	101300000	1000	0	0	-1	1500
23047995	75	613	0	-100	0	230	101300000	1000	0	0	-1	1500
23060555	75	616	0	-100	0	230	101300000	1000	0	0	-1	1500
23073115	77	616	0	-100	0	230	101300000	1000	0	0	-1	1500
23085675	77	618	0	-100	0	230	101300000	1000	0	0	-1	1500
23098235	82	614	0	-100	0	230	101300000	1000	0	0	-1	1500
23110795	82	613	0	-100	0	230	101300000	1000	0	0	-1	1500
23123355	82	614	0	-100	0	230	101300000	1000	0	0	-1	1500
23135915	77	618	0	-100	0	230	101300000	1000	0	0	-1	1500
23148475	72	617	0	-100	0	230	101300000	1000	0	0	-1	1500
23161035	77	621	0	-100	0	230	101300000	1000	0	0	-1	1500
23173595	77	617	0	-100	0	230	101300000	1000	0	0	-1	1500
23186155	77	617	0	-100	0	230	101300000	1000	0	0	-1	1500
23198715	82	615	0	-100	0	230	101300000	1000	0	0	-1	1500
23211275	80	615	0	-100	0	230	101300000	1000	0	0	-1	1500
23223835	77	612	0	-100	0	230	101300000	1000	0	0	-1	1500
23236395	77	616	0	-100	0	230	101300000	1000	0	0	-1	1500
23248955	75	620	0	-100	0	230	101300000	1000	0	0	-1	1500
23261515	72	617	0	-100	0	230	101300000	1000	0	0	-1	1500
23274075	75	619	0	-100	0	230	101300000	1000	0	0	-1	1500
23286635	75	620	0	-100	0	230	101300000	1000	0	0	-1	1500
23299195	77	619	0	-100	0	230	101300000	1000	0	0	-1	1500
23311755	75	621	0	-100	0	230	101300000	1000	0	0	-1	1500
23324315	80	615	0	-100	0	230	101300000	1000	0	0	-1	1500
23336875	82	616	0	-100	0	230	101300000	1000	0	0	-1	1500
23349435	80	611	0	-100	0	230	101300000	1000	0	0	-1	1500
23361995	82	616	0	-100	0	230	101300000	1000	0	0	-1	1500
23374555	75	617	0	-100	0	230	101300000	1000	0	0	-1	1500
23387115	77	615	0	-100	0	230	101300000	1000	0	0	-1	1500
23399675	75	619	0	-100	0	230	101300000	1000	0	0	-1	1500
23412235	75	615	0	-100	0	230	101300000	1000	0	0	-1	1500
23424795	80	616	0	-100	0	230	101300000	1000	0	0	-1	1500
23437355	82	616	0	-100	0	230	101300000	1000	0	0	-1	1500
23449915	80	617	0	-100	0	230	101300000	1000	0	0	-1	1500
23462475	72	617	0	-100	0	230	101300000	1000	0	0	-1	1500
23475035	77	615	0	-100	0	230	101300000	1000	0	0	-1	1500
23487595	75	617	0	-100	0	230	101300000	1000	0	0	-1	1500
23500155	77	615	0	-100	0	230	101300000	1000	0	0	-1	1500
23512715	82	610	0	-100	0	230	101300000	1000	0	0	-1	1500
23525275	75	616	0	-100	0	230	101300000	1000	0	0	-1	1500
23537835	72	616	0	-100	0	230	101300000	1000	0	0	-1	1500
23550395	75	617	0	-100	0	230	101300000	1000	0	0	-1	1500
23562955	77	616	0	-100	0	230	101300000	1000	0	0	-1	1500
23575515	80	619	0	-100	0	230	101300000	1000	0	0	-1	1500
23588075	75	613	0	-100	0	230	101300000	1000	0	0	-1	1500
23600635	75	620	0	-100	0	230	101300000	1000	0	0	-1	1500
23613195	80	616	0	-100	0	230	101300000	1000	0	0	-1	1500
23625755	77	617	0	-100	0	230	101300000	1000	0	0	-1	1500
23638315	75	620	0	-100	0	230	101300000	1000	0	0	-1	1500
23650875	80	615	0	-100	0	230	101300000	1000	0	0	-1	1500
23663435	84	614	0	-100	0	230	101300000	1000	0	0	-1	1500
23675995	72	619	0	-100	0	230	101300000	1000	0	0	-1	1500
23688555	77	617	0	-100	0	230	101300000	1000	0	0	-1	1500
23701115	77	614	0	-100	0	230	101300000	1000	0	0	-1	1500
23713675	80	615	0	-100	0	230	101300000	1000	0	0	-1	1500
23726235	75	617	0	-100	0	230	101300000	1000	0	0	-1	1500
23738795	75	618	0	-100	0	230	101300000	1000	0	0	-1	1500
23751355	75	621	0	-100	0	230	101300000	1000	0	0	-1	1500
23763915	82	618	0	-100	0	230	101300000	1000	0	0	-1	1500
23776475	75	615	0	-100	0	230	101300000	1000	0	0	-1	1500
23789035	80	617	0	-100	0	230	101300000	1000	0	0	-1	1500
23801595	82	611	0	-100	0	230	101300000	1000	0	0	-1	1500
23814155	77	616	0	-100	0	230	101300000	1000	0	0	-1	1500
23826715	75	617	0	-100	0	230	101300000	1000	0	0	-1	1500
23839275	75	622	0	-100	0	230	101300000	1000	0	0	-1	1500
23851835	77	621	0	-100	0	230	101300000	1000	0	0	-1	1500
23864395	82	616	0	-100	0	230	101300000	1000	0	0	-1	1500
23876955	84	613	0	-100	0	230	101300000	1000	0	0	-1	1500
23889515	82	617	0	-100	0	230	101300000	1000	0	0	-1	1500
23902075	75	616	0	-100	0	230	101300000	1000	0	0	-1	1500
23914635	72	616	0	-100	0	230	101300000	1000	0	0	-1	1500
23927195	75	617	0	-100	0	230	101300000	1000	0	0	-1	1500
23939755	75	620	0	-100	0	230	101300000	1000	0	0	-1	1500
23952315	72	616	0	-100	0	230	101300000	1000	0	0	-1	1500
23964875	82	617	0	-100	0	230	101300000	1000	0	0	-1	1500
23977435	82	611	0	-100	0	230	101300000	1000	0	0	-1	1500
23989995	75	616	0	-100	0	230	101300000	1000	0	0	-1	1500
24002555	75	620	0	-100	0	230	101300000	1000	0	0	-1	1500
24015115	75	618	0	-100	0	230	101300000	1000	0	0	-1	1500
24027675	80	614	0	-100	0	230	101300000	1000	0	0	-1	1500
24040235	80	614	0	-100	0	230	101300000	1000	0	0	-1	1500
24052795	77	613	0	-100	0	230	101300000	1000	0	0	-1	1500
24065355	72	620	0	-100	0	230	101300000	1000	0	0	-1	1500
24077915	72	619	0	-100	0	230	101300000	1000	0	0	-1	1500
24090475	77	616	0	-100	0	230	101300000	1000	0	0	-1	1500
24103035	82	616	0	-100	0	230	101300000	1000	0	0	-1	1500
24115595	80	616	0	-100	0	230	101300000	1000	0	0	-1	1500
24128155	70	620	0	-100	0	230	101300000	1000	0	0	-1	1500
24140715	77	618	0	-100	0	230	101300000	1000	0	0	-1	1500
24153275	80	616	0	-100	0	230	101300000	1000	0	0	-1	1500
24165835	82	617	0	-100	0	230	101300000	1000	0	0	-1	1500
24178395	72	617	0	-100	0	230	101300000	1000	0	0	-1	1500
24190955	77	617	0	-100	0	230	101300000	1000	0	0	-1	1500
24203515	75	614	0	-100	0	230	101300000	1000	0	0	-1	1500
24216075	82	615	0	-100	0	230	101300000	1000	0	0	-1	1500
24228635	84	614	0	-100	0	230	101300000	1000	0	0	-1	1500
24241195	77	612	0	-100	0	230	101300000	1000	0	0	-1	1500
24253755	75	618	0	-100	0	230	101300000	1000	0	0	-1	1500
24266315	75	618	0	-100	0	230	101300000	1000	0	0	-1	1500
24278875	82	615	0	-100	0	230	101300000	1000	0	0	-1	1500
24291435	75	616	0	-100	0	230	101300000	1000	0	0	-1	1500
24303995	75	616	0	-100	0	230	101300000	1000	0	0	-1	1500
24316555	80	616	0	-100	0	230	101300000	1000	0	0	-1	1500
24329115	80	614	0	-100	0	230	101300000	1000	0	0	-1	1500
24341675	75	615	0	-100	0	230	101300000	1000	0	0	-1	1500
24354235	72	616	0	-100	0	230	101300000	1000	0	0	-1	1500
24366795	75	620	0	-100	0	230	101300000	1000	0	0	-1	1500
24379355	75	615	0	-100	0	230	101300000	1000	0	0	-1	1500
24391915	72	617	0	-100	0	230	101300000	1000	0	0	-1	1500
24404475	80	616	0	-100	0	230	101300000	1000	0	0	-1	1500
24417035	80	614	0	-100	0	230	101300000	1000	0	0	-1	1500
24429595	82	611	0	-100	0	230	101300000	1000	0	0	-1	1500
24442155	75	615	0	-100	0	230	101300000	1000	0	0	-1	1500
24454715	75	617	0	-100	0	230	101300000	1000	0	0	-1	1500
24467275	72	619	0	-100	0	230	101300000	1000	0	0	-1	1500
24479835	75	619	0	-100	0	230	101300000	1000	0	0	-1	1500
24492395	72	618	0	-100	0	230	101300000	1000	0	0	-1	1500
24504955	75	619	0	-100	0	230	101300000	1000	0	0	-1	1500
24517515	75	616	0	-100	0	230	101300000	1000	0	0	-1	1500
24530075	75	619	0	-100	0	230	101300000	1000	0	0	-1	1500
24542635	75	617	0	-100	0	230	101300000	1000	0	0	-1	1500
24555195	75	617	0	-100	0	230	101300000	1000	0	0	-1	1500
24567755	72	617	0	-100	0	230	101300000	1000	0	0	-1	1500
24580315	72	618	0	-100	0	230	101300000	1000	0	0	-1	1500
24592875	75	617	0	-100	0	230	101300000	1000	0	0	-1	1500
24605435	75	616	0	-100	0	230	101300000	1000	0	0	-1	1500
24617995	77	615	0	-100	0	230	101300000	1000	0	0	-1	1500
24630555	82	616	0	-100	0	230	101300000	1000	0	0	-1	1500
24643115	77	616	0	-100	0	230	101300000	1000	0	0	-1	1500
24655675	72	617	0	-100	0	230	101300000	1000	0	0	-1	1500
24668235	75	618	0	-100	0	230	101300000	1000	0	0	-1	1500
24680795	75	616	0	-100	0	230	101300000	1000	0	0	-1	1500
24693355	75	616	0	-100	0	230	101300000	1000	0	0	-1	1500
24705915	80	613	0	-100	0	230	101300000	1000	0	0	-1	1500
24718475	80	616	0	-100	0	230	101300000	1000	0	0	-1	1500
24731035	80	614	0	-100	0	230	101300000	1000	0	0	-1	1500
24743595	75	617	0	-100	0	230	101300000	1000	0	0	-1	1500
24756155	70	616	0	-100	0	230	101300000	1000	0	0	-1	1500
24768715	75	617	0	-100	0	230	101300000	1000	0	0	-1	1500
24781275	75	620	0	-100	0	230	101300000	1000	0	0	-1	1500
24793835	75	617	0	-100	0	230	101300000	1000	0	0	-1	1500
24806395	75	619	0	-100	0	230	101300000	1000	0	0	-1	1500
24818955	82	615	0	-100	0	230	101300000	1000	0	0	-1	1500
24831515	72	616	0	-100	0	230	101300000	1000	0	0	-1	1500
24844075	77	618	0	-100	0	230	101300000	1000	0	0	-1	1500
24856635	80	614	0	-100	0	230	101300000	1000	0	0	-1	1500
24869195	82	619	0	-100	0	230	101300000	1000	0	0	-1	1500
24881755	75	619	0	-100	0	230	101300000	1000	0	0	-1	1500
24894315	75	622	0	-100	0	230	101300000	1000	0	0	-1	1500
24906875	82	617	0	-100	0	230	101300000	1000	0	0	-1	1500
24919435	82	620	0	-100	0	230	101300000	1000	0	0	-1	1500
24931995	77	621	0	-100	0	230	101300000	1000	0	0	-1	1500
24944555	75	618	0	-100	0	230	101300000	1000	0	0	-1	1500
24957115	75	618	0	-100	0	230	101300000	1000	0	0	-1	1500
24969675	80	613	0	-100	0	230	101300000	1000	0	0	-1	1500
24982235	80	618	0	-100	0	230	101300000	1000	0	0	-1	1500
24994795	82	614	0	-100	0	230	101300000	1000	0	0	-1	1500
25007355	82	616	0	-100	0	230	101300000	1000	0	0	-1	1500
25019915	82	616	0	-100	0	230	101300000	1000	0	0	-1	1500
25032475	77	616	0	-100	0	230	101300000	1000	0	0	-1	1500
25045035	72	620	0	-100	0	230	101300000	1000	0	0	-1	1500
25057595	75	621	0	-100	0	230	101300000	1000	0	0	-1	1500
25070155	79	614	0	-100	0	230	101300000	1000	0	0	-1	1500
25082715	82	619	0	-100	0	230	101300000	1000	0	0	-1	1500
25095275	72	617	0	-100	0	230	101300000	1000	0	0	-1	1500
25107835	72	621	0	-100	0	230	101300000	1000	0	0	-1	1500
25120395	80	614	0	-100	0	230	101300000	1000	0	0	-1	1500
25132955	82	613	0	-100	0	230	101300000	1000	0	0	-1	1500
25145515	75	617	0	-100	0	230	101300000	1000	0	0	-1	1500
25158075	75	621	0	-100	0	230	101300000	1000	0	0	-1	1500
25170635	75	619	0	-100	0	230	101300000	1000	0	0	-1	1500
25183195	82	617	0	-100	0	230	101300000	1000	0	0	-1	1500
25195755	82	612	0	-100	0	230	101300000	1000	0	0	-1	1500
25208315	72	619	0	-100	0	230	101300000	1000	0	0	-1	1500
25220875	77	617	0	-100	0	230	101300000	1000	0	0	-1	1500
25233435	77	617	0	-100	0	230	101300000	1000	0	0	-1	1500
25245995	82	617	0	-100	0	230	101300000	1000	0	0	-1	1500
25258555	72	616	0	-100	0	230	101300000	1000	0	0	-1	1500
25271115	75	614	0	-100	0	230	101300000	1000	0	0	-1	1500
25283675	77	615	0	-100	0	230	101300000	1000	0	0	-1	1500
25296235	80	617	0	-100	0	230	101300000	1000	0	0	-1	1500
25308795	82	616	0	-100	0	230	101300000	1000	0	0	-1	1500
25321355	75	619	0	-100	0	230	101300000	1000	0	0	-1	1500
25333915	77	619	0	-100	0	230	101300000	1000	0	0	-1	1500
25346475	75	615	0	-100	0	230	101300000	1000	0	0	-1	1500
25359035	80	616	0	-100	0	230	101300000	1000	0	0	-1	1500
25371595	82	620	0	-100	0	230	101300000	1000	0	0	-1	1500
25384155	70	616	0	-100	0	230	101300000	1000	0	0	-1	1500
25396715	75	621	0	-100	0	230	101300000	1000	0	0	-1	1500
25409275	77	620	0	-100	0	230	101300000	1000	0	0	-1	1500
25421835	80	613	0	-100	0	230	101300000	1000	0	0	-1	1500
25434395	80	618	0	-100	0	230	101300000	1000	0	0	-1	1500
25446955	72	616	0	-100	0	230	101300000	1000	0	0	-1	1500
25459515	77	616	0	-100	0	230	101300000	1000	0	0	-1	1500
25472075	75	620	0	-100	0	230	101300000	1000	0	0	-1	1500
25484635	80	614	0	-100	0	230	101300000	1000	0	0	-1	1500
25497195	80	618	0	-100	0	230	101300000	1000	0	0	-1	1500
25509755	82	612	0	-100	0	230	101300000	1000	0	0	-1	1500
25522315	77	624	0	-100	0	230	101300000	1000	0	0	-1	1500
25534875	75	616	0	-100	0	230	101300000	1000	0	0	-1	1500
25547435	75	620	0	-100	0	230	101300000	1000	0	0	-1	1500
25559995	75	615	0	-100	0	230	101300000	1000	0	0	-1	1500
25572555	77	615	0	-100	0	230	101300000	1000	0	0	-1	1500
25585115	82	617	0	-100	0	230	101300000	1000	0	0	-1	1500
25597675	82	620	0	-100	0	230	101300000	1000	0	0	-1	1500
25610235	77	617	0	-100	0	230	101300000	1000	0	0	-1	1500
25622795	75	618	0	-100	0	230	101300000	1000	0	0	-1	1500
25635355	77	621	0	-100	0	230	101300000	1000	0	0	-1	1500
25647915	80	614	0	-100	0	230	101300000	1000	0	0	-1	1500
25660475	80	619	0	-100	0	230	101300000	1000	0	0	-1	1500
25673035	72	616	0	-100	0	230	101300000	1000	0	0	-1	1500
25685595	77	619	0	-100	0	230	101300000	1000	0	0	-1	1500
25698155	72	613	0	-100	0	230	101300000	1000	0	0	-1	1500
25710715	77	618	0	-100	0	230	101300000	1000	0	0	-1	1500
25723275	75	616	0	-100	0	230	101300000	1000	0	0	-1	1500
25735835	77	618	0	-100	0	230	101300000	1000	0	0	-1	1500
25748395	75	620	0	-100	0	230	101300000	1000	0	0	-1	1500
25760955	75	619	0	-100	0	230	101300000	1000	0	0	-1	1500
25773515	75	619	0	-100	0	230	101300000	1000	0	0	-1	1500
25786075	72	617	0	-100	0	230	101300000	1000	0	0	-1	1500
25798635	75	618	0	-100	0	230	101300000	1000	0	0	-1	1500
25811195	72	621	0	-100	0	230	101300000	1000	0	0	-1	1500
25823755	75	617	0	-100	0	230	101300000	1000	0	0	-1	1500
25836315	75	618	0	-100	0	230	101300000	1000	0	0	-1	1500
25848875	75	619	0	-100	0	230	101300000	1000	0	0	-1	1500
25861435	80	614	0	-100	0	230	101300000	1000	0	0	-1	1500
25873995	80	618	0	-100	0	230	101300000	1000	0	0	-1	1500
25886555	80	612	0	-100	0	230	101300000	1000	0	0	-1	1500
25899115	75	615	0	-100	0	230	101300000	1000	0	0	-1	1500
25911675	72	616	0	-100	0	230	101300000	1000	0	0	-1	1500
25924235	77	619	0	-100	0	230	101300000	1000	0	0	-1	1500
25936795	77	619	0	-100	0	230	101300000	1000	0	0	-1	1500
25949355	82	626	0	-100	0	230	101300000	1000	0	0	-1	1500
25961915	82	616	0	-100	0	230	101300000	1000	0	0	-1	1500
25974475	77	612	0	-100	0	230	101300000	1000	0	0	-1	1500
25987035	72	619	0	-100	0	230	101300000	1000	0	0	-1	1500
25999595	75	619	0	-100	0	230	101300000	1000	0	0	-1	1500
26012155	70	618	0	-100	0	230	101300000	1000	0	0	-1	1500
26024715	72	619	0	-100	0	230	101300000	1000	0	0	-1	1500
26037275	75	622	0	-100	0	230	101300000	1000	0	0	-1	1500
26049835	72	619	0	-100	0	230	101300000	1000	0	0	-1	1500
26062395	75	619	0	-100	0	230	101300000	1000	0	0	-1	1500
26074955	75	619	0	-100	0	230	101300000	1000	0	0	-1	1500
26087515	77	617	0	-100	0	230	101300000	1000	0	0	-1	1500
26100075	75	614	0	-100	0	230	101300000	1000	0	0	-1	1500
26112635	75	617	0	-100	0	230	101300000	1000	0	0	-1	1500
26125195	77	620	0	-100	0	230	101300000	1000	0	0	-1	1500
26137755	75	616	0	-100	0	230	101300000	1000	0	0	-1	1500
26150315	77	616	0	-100	0	230	101300000	1000	0	0	-1	1500
26162875	75	617	0	-100	0	230	101300000	1000	0	0	-1	1500
26175435	75	619	0	-100	0	230	101300000	1000	0	0	-1	1500
26187995	77	619	0	-100	0	230	101300000	1000	0	0	-1	1500
26200555	75	620	0	-100	0	230	101300000	1000	0	0	-1	1500
26213115	72	618	0	-100	0	230	101300000	1000	0	0	-1	1500
26225675	77	613	0	-100	0	230	101300000	1000	0	0	-1	1500
26238235	77	620	0	-100	0	230	101300000	1000	0	0	-1	1500
26250795	82	617	0	-100	0	230	101300000	1000	0	0	-1	1500
26263355	82	615	0	-100	0	230	101300000	1000	0	0	-1	1500
26275915	82	613	0	-100	0	230	101300000	1000	0	0	-1	1500
26288475	82	621	0	-100	0	230	101300000	1000	0	0	-1	1500
26301035	82	611	0	-100	0	230	101300000	1000	0	0	-1	1500
26313595	82	616	0	-100	0	230	101300000	1000	0	0	-1	1500
26326155	80	616	0	-100	0	230	101300000	1000	0	0	-1	1500
26338715	82	617	0	-100	0	230	101300000	1000	0	0	-1	1500
26351275	82	616	0	-100	0	230	101300000	1000	0	0	-1	1500
26363835	80	618	0	-100	0	230	101300000	1000	0	0	-1	1500
26376395	77	611	0	-100	0	230	101300000	1000	0	0	-1	1500
26388955	75	618	0	-100	0	230	101300000	1000	0	0	-1	1500
26401515	75	613	0	-100	0	230	101300000	1000	0	0	-1	1500
26414075	77	615	0	-100	0	230	101300000	1000	0	0	-1	1500
26426635	72	619	0	-100	0	230	101300000	1000	0	0	-1	1500
26439195	72	620	0	-100	0	230	101300000	1000	0	0	-1	1500
26451755	75	617	0	-100	0	230	101300000	1000	0	0	-1	1500
26527115	80	615	0	-100	0	230	101300000	1000	0	0	-1	1500
26539675	80	616	0	-100	0	230	101300000	1000	0	0	-1	1500
26552235	82	617	0	-100	0	230	101300000	1000	0	0	-1	1500
26564795	82	613	0	-100	0	230	101300000	1000	0	0	-1	1500
26577355	82	618	0	-100	0	230	101300000	1000	0	0	-1	1500
26589915	75	615	0	-100	0	230	101300000	1000	0	0	-1	1500
26602475	72	619	0	-100	0	230	101300000	1000	0	0	-1	1500
26615035	72	616	0	-100	0	230	101300000	1000	0	0	-1	1500
26627595	72	619	0	-100	0	230	101300000	1000	0	0	-1	1500
26640155	75	617	0	-100	0	230	101300000	1000	0	0	-1	1500
26652715	75	620	0	-100	0	230	101300000	1000	0	0	-1	1500
26728075	75	620	0	-100	0	230	101300000	1000	0	0	-1	1500
26740635	77	616	0	-100	0	230	101300000	1000	0	0	-1	1500
26753195	77	618	0	-100	0	230	101300000	1000	0	0	-1	1500
26765755	77	617	0	-100	0	230	101300000	1000	0	0	-1	1500
26778315	72	621	0	-100	0	230	101300000	1000	0	0	-1	1500
26790875	77	616	0	-100	0	230	101300000	1000	0	0	-1	1500
26803435	82	616	0	-100	0	230	101300000	1000	0	0	-1	1500
26815995	82	615	0	-100	0	230	101300000	1000	0	0	-1	1500
26828555	82	619	0	-100	0	230	101300000	1000	0	0	-1	1500
26841115	82	610	0	-100	0	230	101300000	1000	0	0	-1	1500
26853675	80	612	0	-100	0	230	101300000	1000	0	0	-1	1500
26866235	82	618	0	-100	0	230	101300000	1000	0	0	-1	1500
26878795	75	616	0	-100	0	230	101300000	1000	0	0	-1	1500
26891355	75	617	0	-100	0	230	101300000	1000	0	0	-1	1500
26903915	77	616	0	-100	0	230	101300000	1000	0	0	-1	1500
26916475	77	619	0	-100	0	230	101300000	1000	0	0	-1	1500
26929035	75	619	0	-100	0	230	101300000	1000	0	0	-1	1500
26941595	75	614	0	-100	0	230	101300000	1000	0	0	-1	1500
26954155	79	617	0	-100	0	230	101300000	1000	0	0	-1	1500
26966715	82	612	0	-100	0	230	101300000	1000	0	0	-1	1500
26979275	84	616	0	-100	0	230	101300000	1000	0	0	-1	1500
26991835	82	611	0	-100	0	230	101300000	1000	0	0	-1	1500
27004395	80	615	0	-100	0	230	101300000	1000	0	0	-1	1500
27016955	82	617	0	-100	0	230	101300000	1000	0	0	-1	1500
27029515	77	616	0	-100	0	230	101300000	1000	0	0	-1	1500
27042075	72	616	0	-100	0	230	101300000	1000	0	0	-1	1500
