timestamp	voltage	current	windSpeed	pitchAngle	rpm	temperature	ambientPressure	humidity	accelerationX	accelerationY	accelerationZ	currentSink
7035070	4015	0	0	-100	0	230	101300000	1000	0	0	-1	0
7042523	4005	3	0	-100	0	230	101300000	1000	0	0	-1	0
7055083	4005	5	0	-100	0	230	101300000	1000	0	0	-1	0
7067643	4004	0	0	-100	0	230	101300000	1000	0	0	-1	0
7080203	4010	0	0	-100	0	230	101300000	1000	0	0	-1	0
7092763	4010	0	0	-100	0	230	101300000	1000	0	0	-1	0
7105323	4005	0	0	-100	0	230	101300000	1000	0	0	-1	0
7117883	4004	2	0	-100	0	230	101300000	1000	0	0	-1	0
7130443	4004	4	0	-100	0	230	101300000	1000	0	0	-1	0
7143004	4009	0	0	-100	0	230	101300000	1000	0	0	-1	0
7155563	4004	0	0	-100	0	230	101300000	1000	0	0	-1	0
7168123	4009	0	0	-100	0	230	101300000	1000	0	0	-1	0
7180683	4011	0	0	-100	0	230	101300000	1000	0	0	-1	0
7193243	4004	2	0	-100	0	230	101300000	1000	0	0	-1	0
7205803	4006	4	0	-100	0	230	101300000	1000	0	0	-1	0
7218363	4006	0	0	-100	0	230	101300000	1000	0	0	-1	0
7230923	4009	0	0	-100	0	230	101300000	1000	0	0	-1	0
7243483	4014	0	0	-100	0	230	101300000	1000	0	0	-1	0
7256043	4010	0	0	-100	0	230	101300000	1000	0	0	-1	0
7268603	4007	0	0	-100	0	230	101300000	1000	0	0	-1	0
7281163	4005	2	0	-100	0	230	101300000	1000	0	0	-1	0
7293723	4005	6	0	-100	0	230	101300000	1000	0	0	-1	0
7306283	4005	0	0	-100	0	230	101300000	1000	0	0	-1	0
7318843	4006	0	0	-100	0	230	101300000	1000	0	0	-1	0
7331403	4010	0	0	-100	0	230	101300000	1000	0	0	-1	0
7343963	4008	0	0	-100	0	230	101300000	1000	0	0	-1	0
7699675	87	720	0	-100	0	230	101300000	1000	0	0	-1	1500
7712235	87	721	0	-100	0	230	101300000	1000	0	0	-1	1500
7724795	92	719	0	-100	0	230	101300000	1000	0	0	-1	1500
7737355	92	721	0	-100	0	230	101300000	1000	0	0	-1	1500
7749915	87	718	0	-100	0	230	101300000	1000	0	0	-1	1500
7762475	87	719	0	-100	0	230	101300000	1000	0	0	-1	1500
7775035	87	720	0	-100	0	230	101300000	1000	0	0	-1	1500
7787595	89	715	0	-100	0	230	101300000	1000	0	0	-1	1500
7800155	87	722	0	-100	0	230	101300000	1000	0	0	-1	1500
7812715	87	715	0	-100	0	230	101300000	1000	0	0	-1	1500
7825275	89	717	0	-100	0	230	101300000	1000	0	0	-1	1500
7837835	94	719	0	-100	0	230	101300000	1000	0	0	-1	1500
7850395	94	716	0	-100	0	230	101300000	1000	0	0	-1	1500
7862955	92	717	0	-100	0	230	101300000	1000	0	0	-1	1500
7875515	84	722	0	-100	0	230	101300000	1000	0	0	-1	1500
7888075	87	716	0	-100	0	230	101300000	1000	0	0	-1	1500
7900635	92	717	0	-100	0	230	101300000	1000	0	0	-1	1500
7913195	94	716	0	-100	0	230	101300000	1000	0	0	-1	1500
7925755	89	719	0	-100	0	230	101300000	1000	0	0	-1	1500
7938315	84	719	0	-100	0	230	101300000	1000	0	0	-1	1500
7950875	87	722	0	-100	0	230	101300000	1000	0	0	-1	1500
7963435	87	724	0	-100	0	230	101300000	1000	0	0	-1	1500
7975995	87	717	0	-100	0	230	101300000	1000	0	0	-1	1500
7988555	89	719	0	-100	0	230	101300000	1000	0	0	-1	1500
8001115	92	717	0	-100	0	230	101300000	1000	0	0	-1	1500
8013675	96	720	0	-100	0	230	101300000	1000	0	0	-1	1500
8026235	87	717	0	-100	0	230	101300000	1000	0	0	-1	1500
8038795	87	720	0	-100	0	230	101300000	1000	0	0	-1	1500
8051355	89	720	0	-100	0	230	101300000	1000	0	0	-1	1500
8063915	94	716	0	-100	0	230	101300000	1000	0	0	-1	1500
8076475	89	717	0	-100	0	230	101300000	1000	0	0	-1	1500
8089035	87	721	0	-100	0	230	101300000	1000	0	0	-1	1500
8101595	87	720	0	-100	0	230	101300000	1000	0	0	-1	1500
8114155	94	719	0	-100	0	230	101300000	1000	0	0	-1	1500
8126715	84	718	0	-100	0	230	101300000	1000	0	0	-1	1500
8139275	89	725	0	-100	0	230	101300000	1000	0	0	-1	1500
8151835	89	718	0	-100	0	230	101300000	1000	0	0	-1	1500
8164395	94	713	0	-100	0	230	101300000	1000	0	0	-1	1500
8176955	84	716	0	-100	0	230	101300000	1000	0	0	-1	1500
8189515	87	716	0	-100	0	230	101300000	1000	0	0	-1	1500
8202075	92	716	0	-100	0	230	101300000	1000	0	0	-1	1500
8214635	94	720	0	-100	0	230	101300000	1000	0	0	-1	1500
8227195	84	723	0	-100	0	230	101300000	1000	0	0	-1	1500
8239755	84	720	0	-100	0	230	101300000	1000	0	0	-1	1500
8252315	92	715	0	-100	0	230	101300000	1000	0	0	-1	1500
8264875	92	716	0	-100	0	230	101300000	1000	0	0	-1	1500
8277435	87	720	0	-100	0	230	101300000	1000	0	0	-1	1500
8289995	87	719	0	-100	0	230	101300000	1000	0	0	-1	1500
8302555	84	723	0	-100	0	230	101300000	1000	0	0	-1	1500
8315115	92	716	0	-100	0	230	101300000	1000	0	0	-1	1500
8327675	84	720	0	-100	0	230	101300000	1000	0	0	-1	1500
8340235	84	721	0	-100	0	230	101300000	1000	0	0	-1	1500
8352795	89	715	0	-100	0	230	101300000	1000	0	0	-1	1500
8365355	92	720	0	-100	0	230	101300000	1000	0	0	-1	1500
8377915	92	716	0	-100	0	230	101300000	1000	0	0	-1	1500
8390475	96	719	0	-100	0	230	101300000	1000	0	0	-1	1500
8403035	84	721	0	-100	0	230	101300000	1000	0	0	-1	1500
8415595	87	721	0	-100	0	230	101300000	1000	0	0	-1	1500
8428155	87	722	0	-100	0	230	101300000	1000	0	0	-1	1500
8440715	92	717	0	-100	0	230	101300000	1000	0	0	-1	1500
8453275	94	718	0	-100	0	230	101300000	1000	0	0	-1	1500
8465835	94	721	0	-100	0	230	101300000	1000	0	0	-1	1500
8478395	84	721	0	-100	0	230	101300000	1000	0	0	-1	1500
8490955	87	722	0	-100	0	230	101300000	1000	0	0	-1	1500
8503515	87	723	0	-100	0	230	101300000	1000	0	0	-1	1500
8516075	89	719	0	-100	0	230	101300000	1000	0	0	-1	1500
8528635	92	717	0	-100	0	230	101300000	1000	0	0	-1	1500
8541195	84	720	0	-100	0	230	101300000	1000	0	0	-1	1500
8553755	87	717	0	-100	0	230	101300000	1000	0	0	-1	1500
8566315	89	717	0	-100	0	230	101300000	1000	0	0	-1	1500
8578875	92	718	0	-100	0	230	101300000	1000	0	0	-1	1500
8591435	92	719	0	-100	0	230	101300000	1000	0	0	-1	1500
8603995	89	716	0	-100	0	230	101300000	1000	0	0	-1	1500
8616555	92	718	0	-100	0	230	101300000	1000	0	0	-1	1500
8629115	87	718	0	-100	0	230	101300000	1000	0	0	-1	1500
8641675	89	720	0	-100	0	230	101300000	1000	0	0	-1	1500
8654235	92	718	0	-100	0	230	101300000	1000	0	0	-1	1500
8666795	94	721	0	-100	0	230	101300000	1000	0	0	-1	1500
8679355	87	721	0	-100	0	230	101300000	1000	0	0	-1	1500
8691915	87	718	0	-100	0	230	101300000	1000	0	0	-1	1500
8704475	94	717	0	-100	0	230	101300000	1000	0	0	-1	1500
8717035	87	720	0	-100	0	230	101300000	1000	0	0	-1	1500
8729595	89	720	0	-100	0	230	101300000	1000	0	0	-1	1500
8742155	92	718	0	-100	0	230	101300000	1000	0	0	-1	1500
8754715	87	715	0	-100	0	230	101300000	1000	0	0	-1	1500
8767275	89	720	0	-100	0	230	101300000	1000	0	0	-1	1500
8779835	92	719	0	-100	0	230	101300000	1000	0	0	-1	1500
8792395	87	719	0	-100	0	230	101300000	1000	0	0	-1	1500
8804955	89	718	0	-100	0	230	101300000	1000	0	0	-1	1500
8817515	92	720	0	-100	0	230	101300000	1000	0	0	-1	1500
8830075	84	717	0	-100	0	230	101300000	1000	0	0	-1	1500
8842635	84	720	0	-100	0	230	101300000	1000	0	0	-1	1500
8855195	92	720	0	-100	0	230	101300000	1000	0	0	-1	1500
8867755	84	722	0	-100	0	230	101300000	1000	0	0	-1	1500
8880315	87	721	0	-100	0	230	101300000	1000	0	0	-1	1500
8892875	94	716	0	-100	0	230	101300000	1000	0	0	-1	1500
8905435	87	722	0	-100	0	230	101300000	1000	0	0	-1	1500
8917995	87	715	0	-100	0	230	101300000	1000	0	0	-1	1500
8930555	94	719	0	-100	0	230	101300000	1000	0	0	-1	1500
8943115	84	720	0	-100	0	230	101300000	1000	0	0	-1	1500
8955675	87	721	0	-100	0	230	101300000	1000	0	0	-1	1500
8968235	89	719	0	-100	0	230	101300000	1000	0	0	-1	1500
8980795	94	721	0	-100	0	230	101300000	1000	0	0	-1	1500
8993355	87	721	0	-100	0	230	101300000	1000	0	0	-1	1500
9005915	89	718	0	-100	0	230	101300000	1000	0	0	-1	1500
9018475	87	718	0	-100	0	230	101300000	1000	0	0	-1	1500
9031035	87	718	0	-100	0	230	101300000	1000	0	0	-1	1500
9043595	92	717	0	-100	0	230	101300000	1000	0	0	-1	1500
9056155	94	719	0	-100	0	230	101300000	1000	0	0	-1	1500
9068715	87	717	0	-100	0	230	101300000	1000	0	0	-1	1500
9081275	84	724	0	-100	0	230	101300000	1000	0	0	-1	1500
9093835	87	717	0	-100	0	230	101300000	1000	0	0	-1	1500
9106395	94	716	0	-100	0	230	101300000	1000	0	0	-1	1500
9118955	84	719	0	-100	0	230	101300000	1000	0	0	-1	1500
9131515	87	720	0	-100	0	230	101300000	1000	0	0	-1	1500
9144075	94	719	0	-100	0	230	101300000	1000	0	0	-1	1500
9156635	89	719	0	-100	0	230	101300000	1000	0	0	-1	1500
9169195	84	720	0	-100	0	230	101300000	1000	0	0	-1	1500
9181755	89	719	0	-100	0	230	101300000	1000	0	0	-1	1500
9194315	89	724	0	-100	0	230	101300000	1000	0	0	-1	1500
9206875	94	720	0	-100	0	230	101300000	1000	0	0	-1	1500
9219435	84	719	0	-100	0	230	101300000	1000	0	0	-1	1500
9231995	84	730	0	-100	0	230	101300000	1000	0	0	-1	1500
9244555	87	716	0	-100	0	230	101300000	1000	0	0	-1	1500
9257115	87	732	0	-100	0	230	101300000	1000	0	0	-1	1500
9269675	92	718	0	-100	0	230	101300000	1000	0	0	-1	1500
9282235	92	713	0	-100	0	230	101300000	1000	0	0	-1	1500
9294795	89	719	0	-100	0	230	101300000	1000	0	0	-1	1500
9307355	84	722	0	-100	0	230	101300000	1000	0	0	-1	1500
9319915	87	720	0	-100	0	230	101300000	1000	0	0	-1	1500
9332475	89	720	0	-100	0	230	101300000	1000	0	0	-1	1500
9345035	92	715	0	-100	0	230	101300000	1000	0	0	-1	1500
9357595	92	718	0	-100	0	230	101300000	1000	0	0	-1	1500
9370155	94	714	0	-100	0	230	101300000	1000	0	0	-1	1500
9382715	87	718	0	-100	0	230	101300000	1000	0	0	-1	1500
9395275	87	719	0	-100	0	230	101300000	1000	0	0	-1	1500
9407835	87	720	0	-100	0	230	101300000	1000	0	0	-1	1500
9420395	84	717	0	-100	0	230	101300000	1000	0	0	-1	1500
9432955	87	718	0	-100	0	230	101300000	1000	0	0	-1	1500
9445515	94	720	0	-100	0	230	101300000	1000	0	0	-1	1500
9458075	92	721	0	-100	0	230	101300000	1000	0	0	-1	1500
9470635	87	720	0	-100	0	230	101300000	1000	0	0	-1	1500
9483195	87	718	0	-100	0	230	101300000	1000	0	0	-1	1500
9495755	87	720	0	-100	0	230	101300000	1000	0	0	-1	1500
9508315	87	717	0	-100	0	230	101300000	1000	0	0	-1	1500
9520875	87	720	0	-100	0	230	101300000	1000	0	0	-1	1500
9533435	89	719	0	-100	0	230	101300000	1000	0	0	-1	1500
9545995	92	720	0	-100	0	230	101300000	1000	0	0	-1	1500
9558555	94	718	0	-100	0	230	101300000	1000	0	0	-1	1500
9571115	84	720	0	-100	0	230	101300000	1000	0	0	-1	1500
9583675	87	722	0	-100	0	230	101300000	1000	0	0	-1	1500
9596235	84	720	0	-100	0	230	101300000	1000	0	0	-1	1500
9608795	89	718	0	-100	0	230	101300000	1000	0	0	-1	1500
9621355	94	715	0	-100	0	230	101300000	1000	0	0	-1	1500
9633915	87	721	0	-100	0	230	101300000	1000	0	0	-1	1500
9646475	84	723	0	-100	0	230	101300000	1000	0	0	-1	1500
9659035	87	716	0	-100	0	230	101300000	1000	0	0	-1	1500
9671595	87	719	0	-100	0	230	101300000	1000	0	0	-1	1500
9684155	92	717	0	-100	0	230	101300000	1000	0	0	-1	1500
9696715	92	716	0	-100	0	230	101300000	1000	0	0	-1	1500
9709275	87	720	0	-100	0	230	101300000	1000	0	0	-1	1500
9721835	89	720	0	-100	0	230	101300000	1000	0	0	-1	1500
9734395	89	720	0	-100	0	230	101300000	1000	0	0	-1	1500
9746955	94	713	0	-100	0	230	101300000	1000	0	0	-1	1500
9759515	84	721	0	-100	0	230	101300000	1000	0	0	-1	1500
9772075	84	725	0	-100	0	230	101300000	1000	0	0	-1	1500
9784635	94	715	0	-100	0	230	101300000	1000	0	0	-1	1500
9797195	94	715	0	-100	0	230	101300000	1000	0	0	-1	1500
9809755	84	721	0	-100	0	230	101300000	1000	0	0	-1	1500
9822315	84	724	0	-100	0	230	101300000	1000	0	0	-1	1500
9834875	92	718	0	-100	0	230	101300000	1000	0	0	-1	1500
9847435	87	720	0	-100	0	230	101300000	1000	0	0	-1	1500
9859995	87	720	0	-100	0	230	101300000	1000	0	0	-1	1500
9872555	87	718	0	-100	0	230	101300000	1000	0	0	-1	1500
9885115	89	719	0	-100	0	230	101300000	1000	0	0	-1	1500
9897675	94	720	0	-100	0	230	101300000	1000	0	0	-1	1500
9910235	87	720	0	-100	0	230	101300000	1000	0	0	-1	1500
9922795	87	719	0	-100	0	230	101300000	1000	0	0	-1	1500
9935355	96	717	0	-100	0	230	101300000	1000	0	0	-1	1500
9947915	94	715	0	-100	0	230	101300000	1000	0	0	-1	1500
9960475	92	719	0	-100	0	230	101300000	1000	0	0	-1	1500
9973035	84	718	0	-100	0	230	101300000	1000	0	0	-1	1500
9985595	87	717	0	-100	0	230	101300000	1000	0	0	-1	1500
9998155	89	719	0	-100	0	230	101300000	1000	0	0	-1	1500
10010715	94	718	0	-100	0	230	101300000	1000	0	0	-1	1500
10023275	84	718	0	-100	0	230	101300000	1000	0	0	-1	1500
10035835	87	721	0	-100	0	230	101300000	1000	0	0	-1	1500
10048395	92	715	0	-100	0	230	101300000	1000	0	0	-1	1500
10060955	92	716	0	-100	0	230	101300000	1000	0	0	-1	1500
10073515	84	723	0	-100	0	230	101300000	1000	0	0	-1	1500
10086075	84	724	0	-100	0	230	101300000	1000	0	0	-1	1500
10098635	96	730	0	-100	0	230	101300000	1000	0	0	-1	1500
10111195	84	721	0	-100	0	230	101300000	1000	0	0	-1	1500
10123755	92	715	0	-100	0	230	101300000	1000	0	0	-1	1500
10136315	84	717	0	-100	0	230	101300000	1000	0	0	-1	1500
10148875	87	724	0	-100	0	230	101300000	1000	0	0	-1	1500
10161435	94	722	0	-100	0	230	101300000	1000	0	0	-1	1500
10173995	84	716	0	-100	0	230	101300000	1000	0	0	-1	1500
10186555	92	720	0	-100	0	230	101300000	1000	0	0	-1	1500
10199115	84	720	0	-100	0	230	101300000	1000	0	0	-1	1500
10211675	94	715	0	-100	0	230	101300000	1000	0	0	-1	1500
10224235	84	720	0	-100	0	230	101300000	1000	0	0	-1	1500
10236795	89	720	0	-100	0	230	101300000	1000	0	0	-1	1500
10249355	92	716	0	-100	0	230	101300000	1000	0	0	-1	1500
10261915	87	716	0	-100	0	230	101300000	1000	0	0	-1	1500
10274475	92	717	0	-100	0	230	101300000	1000	0	0	-1	1500
10287035	84	719	0	-100	0	230	101300000	1000	0	0	-1	1500
10299595	87	717	0	-100	0	230	101300000	1000	0	0	-1	1500
10312155	89	719	0	-100	0	230	101300000	1000	0	0	-1	1500
10324715	87	717	0	-100	0	230	101300000	1000	0	0	-1	1500
10337275	94	719	0	-100	0	230	101300000	1000	0	0	-1	1500
10349835	84	723	0	-100	0	230	101300000	1000	0	0	-1	1500
10362395	89	719	0	-100	0	230	101300000	1000	0	0	-1	1500
10374955	87	717	0	-100	0	230	101300000	1000	0	0	-1	1500
10387515	87	719	0	-100	0	230	101300000	1000	0	0	-1	1500
10400075	92	719	0	-100	0	230	101300000	1000	0	0	-1	1500
10412635	92	720	0	-100	0	230	101300000	1000	0	0	-1	1500
10425195	92	721	0	-100	0	230	101300000	1000	0	0	-1	1500
10437755	89	718	0	-100	0	230	101300000	1000	0	0	-1	1500
10450315	89	722	0	-100	0	230	101300000	1000	0	0	-1	1500
10462875	84	722	0	-100	0	230	101300000	1000	0	0	-1	1500
10475435	87	722	0	-100	0	230	101300000	1000	0	0	-1	1500
10487995	94	721	0	-100	0	230	101300000	1000	0	0	-1	1500
10500555	89	719	0	-100	0	230	101300000	1000	0	0	-1	1500
10513115	87	718	0	-100	0	230	101300000	1000	0	0	-1	1500
10525675	92	717	0	-100	0	230	101300000	1000	0	0	-1	1500
10538235	87	719	0	-100	0	230	101300000	1000	0	0	-1	1500
10550795	87	717	0	-100	0	230	101300000	1000	0	0	-1	1500
10563355	92	718	0	-100	0	230	101300000	1000	0	0	-1	1500
10575915	84	719	0	-100	0	230	101300000	1000	0	0	-1	1500
10588475	87	726	0	-100	0	230	101300000	1000	0	0	-1	1500
10601035	92	715	0	-100	0	230	101300000	1000	0	0	-1	1500
10613595	87	719	0	-100	0	230	101300000	1000	0	0	-1	1500
10626155	87	719	0	-100	0	230	101300000	1000	0	0	-1	1500
10638715	92	717	0	-100	0	230	101300000	1000	0	0	-1	1500
10651275	87	718	0	-100	0	230	101300000	1000	0	0	-1	1500
10663835	87	721	0	-100	0	230	101300000	1000	0	0	-1	1500
10676395	94	719	0	-100	0	230	101300000	1000	0	0	-1	1500
10688955	84	719	0	-100	0	230	101300000	1000	0	0	-1	1500
10701515	87	721	0	-100	0	230	101300000	1000	0	0	-1	1500
10714075	94	714	0	-100	0	230	101300000	1000	0	0	-1	1500
10726635	84	718	0	-100	0	230	101300000	1000	0	0	-1	1500
10739195	89	719	0	-100	0	230	101300000	1000	0	0	-1	1500
10751755	92	718	0	-100	0	230	101300000	1000	0	0	-1	1500
10764315	87	719	0	-100	0	230	101300000	1000	0	0	-1	1500
10776875	87	720	0	-100	0	230	101300000	1000	0	0	-1	1500
10789435	92	717	0	-100	0	230	101300000	1000	0	0	-1	1500
10801995	84	721	0	-100	0	230	101300000	1000	0	0	-1	1500
10814555	87	722	0	-100	0	230	101300000	1000	0	0	-1	1500
10827115	92	717	0	-100	0	230	101300000	1000	0	0	-1	1500
10839675	89	719	0	-100	0	230	101300000	1000	0	0	-1	1500
10852235	87	720	0	-100	0	230	101300000	1000	0	0	-1	1500
10864795	89	718	0	-100	0	230	101300000	1000	0	0	-1	1500
10877355	94	716	0	-100	0	230	101300000	1000	0	0	-1	1500
10889915	84	719	0	-100	0	230	101300000	1000	0	0	-1	1500
10902475	87	719	0	-100	0	230	101300000	1000	0	0	-1	1500
10915035	92	718	0	-100	0	230	101300000	1000	0	0	-1	1500
10927595	89	716	0	-100	0	230	101300000	1000	0	0	-1	1500
10940155	87	723	0	-100	0	230	101300000	1000	0	0	-1	1500
10952715	94	717	0	-100	0	230	101300000	1000	0	0	-1	1500
10965275	92	717	0	-100	0	230	101300000	1000	0	0	-1	1500
10977835	84	717	0	-100	0	230	101300000	1000	0	0	-1	1500
10990395	87	721	0	-100	0	230	101300000	1000	0	0	-1	1500
11002955	87	718	0	-100	0	230	101300000	1000	0	0	-1	1500
11015515	92	720	0	-100	0	230	101300000	1000	0	0	-1	1500
11028075	87	715	0	-100	0	230	101300000	1000	0	0	-1	1500
11040635	87	720	0	-100	0	230	101300000	1000	0	0	-1	1500
11053195	87	723	0	-100	0	230	101300000	1000	0	0	-1	1500
11065755	89	725	0	-100	0	230	101300000	1000	0	0	-1	1500
11078315	89	719	0	-100	0	230	101300000	1000	0	0	-1	1500
11090875	94	717	0	-100	0	230	101300000	1000	0	0	-1	1500
11103435	87	717	0	-100	0	230	101300000	1000	0	0	-1	1500
11115995	84	718	0	-100	0	230	101300000	1000	0	0	-1	1500
11128555	89	717	0	-100	0	230	101300000	1000	0	0	-1	1500
11141115	87	718	0	-100	0	230	101300000	1000	0	0	-1	1500
11153675	92	720	0	-100	0	230	101300000	1000	0	0	-1	1500
11166235	92	718	0	-100	0	230	101300000	1000	0	0	-1	1500
11178795	84	722	0	-100	0	230	101300000	1000	0	0	-1	1500
11191355	89	718	0	-100	0	230	101300000	1000	0	0	-1	1500
11203915	87	718	0	-100	0	230	101300000	1000	0	0	-1	1500
11216475	84	719	0	-100	0	230	101300000	1000	0	0	-1	1500
11229035	94	717	0	-100	0	230	101300000	1000	0	0	-1	1500
11241595	89	722	0	-100	0	230	101300000	1000	0	0	-1	1500
11254155	92	716	0	-100	0	230	101300000	1000	0	0	-1	1500
11266715	87	717	0	-100	0	230	101300000	1000	0	0	-1	1500
11279275	87	720	0	-100	0	230	101300000	1000	0	0	-1	1500
11291835	87	722	0	-100	0	230	101300000	1000	0	0	-1	1500
11304395	94	720	0	-100	0	230	101300000	1000	0	0	-1	1500
11316955	92	715	0	-100	0	230	101300000	1000	0	0	-1	1500
11329515	84	719	0	-100	0	230	101300000	1000	0	0	-1	1500
11342075	84	720	0	-100	0	230	101300000	1000	0	0	-1	1500
11354635	87	718	0	-100	0	230	101300000	1000	0	0	-1	1500
11367195	94	714	0	-100	0	230	101300000	1000	0	0	-1	1500
11379755	84	722	0	-100	0	230	101300000	1000	0	0	-1	1500
11392315	84	716	0	-100	0	230	101300000	1000	0	0	-1	1500
11404875	92	728	0	-100	0	230	101300000	1000	0	0	-1	1500
11417435	84	719	0	-100	0	230	101300000	1000	0	0	-1	1500
11429995	87	716	0	-100	0	230	101300000	1000	0	0	-1	1500
11442555	92	714	0	-100	0	230	101300000	1000	0	0	-1	1500
11455115	89	719	0	-100	0	230	101300000	1000	0	0	-1	1500
11467675	84	723	0	-100	0	230	101300000	1000	0	0	-1	1500
11480235	92	720	0	-100	0	230	101300000	1000	0	0	-1	1500
11492795	92	717	0	-100	0	230	101300000	1000	0	0	-1	1500
11505355	87	720	0	-100	0	230	101300000	1000	0	0	-1	1500
11517915	87	717	0	-100	0	230	101300000	1000	0	0	-1	1500
11530475	84	720	0	-100	0	230	101300000	1000	0	0	-1	1500
11543035	89	720	0	-100	0	230	101300000	1000	0	0	-1	1500
11555595	92	717	0	-100	0	230	101300000	1000	0	0	-1	1500
11568155	87	719	0	-100	0	230	101300000	1000	0	0	-1	1500
11580715	84	725	0	-100	0	230	101300000	1000	0	0	-1	1500
11593275	94	719	0	-100	0	230	101300000	1000	0	0	-1	1500
11605835	87	718	0	-100	0	230	101300000	1000	0	0	-1	1500
11618395	84	719	0	-100	0	230	101300000	1000	0	0	-1	1500
11630955	94	719	0	-100	0	230	101300000	1000	0	0	-1	1500
11643515	87	718	0	-100	0	230	101300000	1000	0	0	-1	1500
11656075	89	720	0	-100	0	230	101300000	1000	0	0	-1	1500
11668635	92	716	0	-100	0	230	101300000	1000	0	0	-1	1500
11681195	87	720	0	-100	0	230	101300000	1000	0	0	-1	1500
11693755	87	715	0	-100	0	230	101300000	1000	0	0	-1	1500
11706315	92	720	0	-100	0	230	101300000	1000	0	0	-1	1500
11718875	96	717	0	-100	0	230	101300000	1000	0	0	-1	1500
11731435	89	723	0	-100	0	230	101300000	1000	0	0	-1	1500
11743995	87	717	0	-100	0	230	101300000	1000	0	0	-1	1500
11756555	94	720	0	-100	0	230	101300000	1000	0	0	-1	1500
11769115	87	723	0	-100	0	230	101300000	1000	0	0	-1	1500
11781675	89	718	0	-100	0	230	101300000	1000	0	0	-1	1500
11794235	94	720	0	-100	0	230	101300000	1000	0	0	-1	1500
11806795	87	721	0	-100	0	230	101300000	1000	0	0	-1	1500
11819355	84	720	0	-100	0	230	101300000	1000	0	0	-1	1500
11831915	92	715	0	-100	0	230	101300000	1000	0	0	-1	1500
11844475	84	722	0	-100	0	230	101300000	1000	0	0	-1	1500
11857035	92	719	0	-100	0	230	101300000	1000	0	0	-1	1500
11869595	89	719	0	-100	0	230	101300000	1000	0	0	-1	1500
11882155	84	721	0	-100	0	230	101300000	1000	0	0	-1	1500
11894715	92	715	0	-100	0	230	101300000	1000	0	0	-1	1500
11907275	87	721	0	-100	0	230	101300000	1000	0	0	-1	1500
11919835	92	718	0	-100	0	230	101300000	1000	0	0	-1	1500
11932395	84	722	0	-100	0	230	101300000	1000	0	0	-1	1500
11944955	84	720	0	-100	0	230	101300000	1000	0	0	-1	1500
11957515	94	716	0	-100	0	230	101300000	1000	0	0	-1	1500
11970075	89	722	0	-100	0	230	101300000	1000	0	0	-1	1500
11982635	89	719	0	-100	0	230	101300000	1000	0	0	-1	1500
11995195	92	719	0	-100	0	230	101300000	1000	0	0	-1	1500
12007755	87	718	0	-100	0	230	101300000	1000	0	0	-1	1500
12020315	89	718	0	-100	0	230	101300000	1000	0	0	-1	1500
12032875	92	719	0	-100	0	230	101300000	1000	0	0	-1	1500
12045435	84	720	0	-100	0	230	101300000	1000	0	0	-1	1500
12057995	94	722	0	-100	0	230	101300000	1000	0	0	-1	1500
12070555	84	720	0	-100	0	230	101300000	1000	0	0	-1	1500
12083115	87	718	0	-100	0	230	101300000	1000	0	0	-1	1500
12095675	92	720	0	-100	0	230	101300000	1000	0	0	-1	1500
12108235	84	720	0	-100	0	230	101300000	1000	0	0	-1	1500
12120795	92	715	0	-100	0	230	101300000	1000	0	0	-1	1500
12133355	87	720	0	-100	0	230	101300000	1000	0	0	-1	1500
12145915	94	720	0	-100	0	230	101300000	1000	0	0	-1	1500
12158475	84	721	0	-100	0	230	101300000	1000	0	0	-1	1500
12171035	92	718	0	-100	0	230	101300000	1000	0	0	-1	1500
12183595	89	721	0	-100	0	230	101300000	1000	0	0	-1	1500
12196155	92	720	0	-100	0	230	101300000	1000	0	0	-1	1500
12208715	87	717	0	-100	0	230	101300000	1000	0	0	-1	1500
12221275	89	717	0	-100	0	230	101300000	1000	0	0	-1	1500
12233835	87	719	0	-100	0	230	101300000	1000	0	0	-1	1500
12246395	92	721	0	-100	0	230	101300000	1000	0	0	-1	1500
12258955	89	719	0	-100	0	230	101300000	1000	0	0	-1	1500
12271515	94	720	0	-100	0	230	101300000	1000	0	0	-1	1500
12284075	89	717	0	-100	0	230	101300000	1000	0	0	-1	1500
12296635	94	722	0	-100	0	230	101300000	1000	0	0	-1	1500
12309195	84	722	0	-100	0	230	101300000	1000	0	0	-1	1500
12321755	84	720	0	-100	0	230	101300000	1000	0	0	-1	1500
12334315	92	718	0	-100	0	230	101300000	1000	0	0	-1	1500
12346875	84	722	0	-100	0	230	101300000	1000	0	0	-1	1500
12359435	92	718	0	-100	0	230	101300000	1000	0	0	-1	1500
12371995	84	722	0	-100	0	230	101300000	1000	0	0	-1	1500
12384555	87	719	0	-100	0	230	101300000	1000	0	0	-1	1500
12397115	87	719	0	-100	0	230	101300000	1000	0	0	-1	1500
12409675	87	721	0	-100	0	230	101300000	1000	0	0	-1	1500
12422235	94	718	0	-100	0	230	101300000	1000	0	0	-1	1500
12434795	82	719	0	-100	0	230	101300000	1000	0	0	-1	1500
12447355	89	719	0	-100	0	230	101300000	1000	0	0	-1	1500
12459915	87	719	0	-100	0	230	101300000	1000	0	0	-1	1500
12472475	92	715	0	-100	0	230	101300000	1000	0	0	-1	1500
12485035	84	721	0	-100	0	230	101300000	1000	0	0	-1	1500
12497595	89	719	0	-100	0	230	101300000	1000	0	0	-1	1500
12510155	84	720	0	-100	0	230	101300000	1000	0	0	-1	1500
12522715	92	716	0	-100	0	230	101300000	1000	0	0	-1	1500
12535275	84	721	0	-100	0	230	101300000	1000	0	0	-1	1500
12547835	89	718	0	-100	0	230	101300000	1000	0	0	-1	1500
12560395	89	719	0	-100	0	230	101300000	1000	0	0	-1	1500
12572955	87	720	0	-100	0	230	101300000	1000	0	0	-1	1500
12585515	89	717	0	-100	0	230	101300000	1000	0	0	-1	1500
12598075	87	718	0	-100	0	230	101300000	1000	0	0	-1	1500
12610635	84	717	0	-100	0	230	101300000	1000	0	0	-1	1500
12623195	92	718	0	-100	0	230	101300000	1000	0	0	-1	1500
12635755	87	722	0	-100	0	230	101300000	1000	0	0	-1	1500
12648315	89	716	0	-100	0	230	101300000	1000	0	0	-1	1500
12660875	84	720	0	-100	0	230	101300000	1000	0	0	-1	1500
12673435	87	716	0	-100	0	230	101300000	1000	0	0	-1	1500
12685995	94	723	0	-100	0	230	101300000	1000	0	0	-1	1500
12698555	87	722	0	-100	0	230	101300000	1000	0	0	-1	1500
12711115	89	717	0	-100	0	230	101300000	1000	0	0	-1	1500
12723675	92	719	0	-100	0	230	101300000	1000	0	0	-1	1500
12736235	87	721	0	-100	0	230	101300000	1000	0	0	-1	1500
12748795	92	718	0	-100	0	230	101300000	1000	0	0	-1	1500
12761355	87	718	0	-100	0	230	101300000	1000	0	0	-1	1500
12773915	87	718	0	-100	0	230	101300000	1000	0	0	-1	1500
12786475	89	716	0	-100	0	230	101300000	1000	0	0	-1	1500
12799035	87	721	0	-100	0	230	101300000	1000	0	0	-1	1500
12811595	92	715	0	-100	0	230	101300000	1000	0	0	-1	1500
12824155	87	721	0	-100	0	230	101300000	1000	0	0	-1	1500
12836715	89	717	0	-100	0	230	101300000	1000	0	0	-1	1500
12849275	84	718	0	-100	0	230	101300000	1000	0	0	-1	1500
12861835	89	717	0	-100	0	230	101300000	1000	0	0	-1	1500
12874395	87	719	0	-100	0	230	101300000	1000	0	0	-1	1500
12886955	87	719	0	-100	0	230	101300000	1000	0	0	-1	1500
12899515	92	719	0	-100	0	230	101300000	1000	0	0	-1	1500
12912075	87	719	0	-100	0	230	101300000	1000	0	0	-1	1500
12924635	94	718	0	-100	0	230	101300000	1000	0	0	-1	1500
12937195	84	721	0	-100	0	230	101300000	1000	0	0	-1	1500
12949755	89	718	0	-100	0	230	101300000	1000	0	0	-1	1500
12962315	87	723	0	-100	0	230	101300000	1000	0	0	-1	1500
12974875	89	721	0	-100	0	230	101300000	1000	0	0	-1	1500
12987435	84	719	0	-100	0	230	101300000	1000	0	0	-1	1500
12999995	89	719	0	-100	0	230	101300000	1000	0	0	-1	1500
13012555	87	717	0	-100	0	230	101300000	1000	0	0	-1	1500
13025115	84	720	0	-100	0	230	101300000	1000	0	0	-1	1500
13037675	94	715	0	-100	0	230	101300000	1000	0	0	-1	1500
13050235	87	719	0	-100	0	230	101300000	1000	0	0	-1	1500
13062795	92	714	0	-100	0	230	101300000	1000	0	0	-1	1500
13075355	89	720	0	-100	0	230	101300000	1000	0	0	-1	1500
13087915	92	719	0	-100	0	230	101300000	1000	0	0	-1	1500
13100475	84	723	0	-100	0	230	101300000	1000	0	0	-1	1500
13113035	94	720	0	-100	0	230	101300000	1000	0	0	-1	1500
13125595	89	724	0	-100	0	230	101300000	1000	0	0	-1	1500
13138155	92	715	0	-100	0	230	101300000	1000	0	0	-1	1500
13150715	87	720	0	-100	0	230	101300000	1000	0	0	-1	1500
13163275	92	719	0	-100	0	230	101300000	1000	0	0	-1	1500
13175835	84	721	0	-100	0	230	101300000	1000	0	0	-1	1500
13188395	94	717	0	-100	0	230	101300000	1000	0	0	-1	1500
13200955	84	722	0	-100	0	230	101300000	1000	0	0	-1	1500
13213515	94	717	0	-100	0	230	101300000	1000	0	0	-1	1500
13226075	84	719	0	-100	0	230	101300000	1000	0	0	-1	1500
13238635	92	718	0	-100	0	230	101300000	1000	0	0	-1	1500
13251195	84	718	0	-100	0	230	101300000	1000	0	0	-1	1500
13263755	92	717	0	-100	0	230	101300000	1000	0	0	-1	1500
13276315	84	717	0	-100	0	230	101300000	1000	0	0	-1	1500
13288875	87	721	0	-100	0	230	101300000	1000	0	0	-1	1500
13301435	94	715	0	-100	0	230	101300000	1000	0	0	-1	1500
13313995	84	716	0	-100	0	230	101300000	1000	0	0	-1	1500
13326555	94	718	0	-100	0	230	101300000	1000	0	0	-1	1500
13339115	84	718	0	-100	0	230	101300000	1000	0	0	-1	1500
13351675	87	721	0	-100	0	230	101300000	1000	0	0	-1	1500
13364235	87	720	0	-100	0	230	101300000	1000	0	0	-1	1500
13376795	89	717	0	-100	0	230	101300000	1000	0	0	-1	1500
13389355	84	720	0	-100	0	230	101300000	1000	0	0	-1	1500
13401915	94	718	0	-100	0	230	101300000	1000	0	0	-1	1500
13414475	82	718	0	-100	0	230	101300000	1000	0	0	-1	1500
13427035	92	717	0	-100	0	230	101300000	1000	0	0	-1	1500
13439595	89	720	0	-100	0	230	101300000	1000	0	0	-1	1500
13452155	94	721	0	-100	0	230	101300000	1000	0	0	-1	1500
13464715	87	713	0	-100	0	230	101300000	1000	0	0	-1	1500
13477275	94	719	0	-100	0	230	101300000	1000	0	0	-1	1500
13489835	87	720	0	-100	0	230	101300000	1000	0	0	-1	1500
13502395	89	719	0	-100	0	230	101300000	1000	0	0	-1	1500
13514955	89	717	0	-100	0	230	101300000	1000	0	0	-1	1500
13527515	87	720	0	-100	0	230	101300000	1000	0	0	-1	1500
13540075	94	714	0	-100	0	230	101300000	1000	0	0	-1	1500
13552635	89	718	0	-100	0	230	101300000	1000	0	0	-1	1500
13565195	87	715	0	-100	0	230	101300000	1000	0	0	-1	1500
13577755	92	716	0	-100	0	230	101300000	1000	0	0	-1	1500
13590315	84	721	0	-100	0	230	101300000	1000	0	0	-1	1500
13602875	92	718	0	-100	0	230	101300000	1000	0	0	-1	1500
13615435	87	720	0	-100	0	230	101300000	1000	0	0	-1	1500
13627995	94	725	0	-100	0	230	101300000	1000	0	0	-1	1500
13640555	84	721	0	-100	0	230	101300000	1000	0	0	-1	1500
13653115	89	716	0	-100	0	230	101300000	1000	0	0	-1	1500
13665675	87	722	0	-100	0	230	101300000	1000	0	0	-1	1500
13678235	89	718	0	-100	0	230	101300000	1000	0	0	-1	1500
13690795	84	721	0	-100	0	230	101300000	1000	0	0	-1	1500
13703355	92	717	0	-100	0	230	101300000	1000	0	0	-1	1500
13715915	84	722	0	-100	0	230	101300000	1000	0	0	-1	1500
13728475	94	723	0	-100	0	230	101300000	1000	0	0	-1	1500
13741035	87	726	0	-100	0	230	101300000	1000	0	0	-1	1500
13753595	89	718	0	-100	0	230	101300000	1000	0	0	-1	1500
13766155	87	721	0	-100	0	230	101300000	1000	0	0	-1	1500
13778715	89	716	0	-100	0	230	101300000	1000	0	0	-1	1500
13791275	89	719	0	-100	0	230	101300000	1000	0	0	-1	1500
13803835	84	721	0	-100	0	230	101300000	1000	0	0	-1	1500
13816395	92	717	0	-100	0	230	101300000	1000	0	0	-1	1500
13828955	84	724	0	-100	0	230	101300000	1000	0	0	-1	1500
13841515	94	718	0	-100	0	230	101300000	1000	0	0	-1	1500
13854075	89	717	0	-100	0	230	101300000	1000	0	0	-1	1500
13866635	94	715	0	-100	0	230	101300000	1000	0	0	-1	1500
13879195	87	721	0	-100	0	230	101300000	1000	0	0	-1	1500
13891755	89	719	0	-100	0	230	101300000	1000	0	0	-1	1500
13904315	82	719	0	-100	0	230	101300000	1000	0	0	-1	1500
13916875	87	720	0	-100	0	230	101300000	1000	0	0	-1	1500
13929435	92	717	0	-100	0	230	101300000	1000	0	0	-1	1500
13941995	87	719	0	-100	0	230	101300000	1000	0	0	-1	1500
13954555	92	717	0	-100	0	230	101300000	1000	0	0	-1	1500
13967115	92	720	0	-100	0	230	101300000	1000	0	0	-1	1500
13979675	82	721	0	-100	0	230	101300000	1000	0	0	-1	1500
13992235	87	721	0	-100	0	230	101300000	1000	0	0	-1	1500
14004795	87	718	0	-100	0	230	101300000	1000	0	0	-1	1500
14017355	92	716	0	-100	0	230	101300000	1000	0	0	-1	1500
14029915	84	720	0	-100	0	230	101300000	1000	0	0	-1	1500
14042475	84	721	0	-100	0	230	101300000	1000	0	0	-1	1500
14055035	94	720	0	-100	0	230	101300000	1000	0	0	-1	1500
14067595	87	719	0	-100	0	230	101300000	1000	0	0	-1	1500
14080155	84	725	0	-100	0	230	101300000	1000	0	0	-1	1500
14092715	96	714	0	-100	0	230	101300000	1000	0	0	-1	1500
14105275	84	720	0	-100	0	230	101300000	1000	0	0	-1	1500
14117835	89	719	0	-100	0	230	101300000	1000	0	0	-1	1500
14130395	94	718	0	-100	0	230	101300000	1000	0	0	-1	1500
14142955	84	723	0	-100	0	230	101300000	1000	0	0	-1	1500
14155515	89	716	0	-100	0	230	101300000	1000	0	0	-1	1500
14168075	87	717	0	-100	0	230	101300000	1000	0	0	-1	1500
14180635	89	717	0	-100	0	230	101300000	1000	0	0	-1	1500
14193195	92	717	0	-100	0	230	101300000	1000	0	0	-1	1500
14205755	89	717	0	-100	0	230	101300000	1000	0	0	-1	1500
14218315	84	720	0	-100	0	230	101300000	1000	0	0	-1	1500
14230875	92	718	0	-100	0	230	101300000	1000	0	0	-1	1500
14243435	87	719	0	-100	0	230	101300000	1000	0	0	-1	1500
14255995	94	718	0	-100	0	230	101300000	1000	0	0	-1	1500
14268555	84	721	0	-100	0	230	101300000	1000	0	0	-1	1500
14281115	92	718	0	-100	0	230	101300000	1000	0	0	-1	1500
14293675	84	721	0	-100	0	230	101300000	1000	0	0	-1	1500
14306235	94	717	0	-100	0	230	101300000	1000	0	0	-1	1500
14318795	87	721	0	-100	0	230	101300000	1000	0	0	-1	1500
14331355	92	717	0	-100	0	230	101300000	1000	0	0	-1	1500
14343915	87	719	0	-100	0	230	101300000	1000	0	0	-1	1500
14356475	84	721	0	-100	0	230	101300000	1000	0	0	-1	1500
14369035	94	721	0	-100	0	230	101300000	1000	0	0	-1	1500
14381595	89	716	0	-100	0	230	101300000	1000	0	0	-1	1500
14394155	92	718	0	-100	0	230	101300000	1000	0	0	-1	1500
14406715	87	720	0	-100	0	230	101300000	1000	0	0	-1	1500
14419275	94	719	0	-100	0	230	101300000	1000	0	0	-1	1500
14431835	89	721	0	-100	0	230	101300000	1000	0	0	-1	1500
14444395	94	717	0	-100	0	230	101300000	1000	0	0	-1	1500
14456955	87	719	0	-100	0	230	101300000	1000	0	0	-1	1500
14469515	84	720	0	-100	0	230	101300000	1000	0	0	-1	1500
14482075	92	718	0	-100	0	230	101300000	1000	0	0	-1	1500
14494635	87	721	0	-100	0	230	101300000	1000	0	0	-1	1500
14507195	94	720	0	-100	0	230	101300000	1000	0	0	-1	1500
14519755	84	722	0	-100	0	230	101300000	1000	0	0	-1	1500
14532315	84	719	0	-100	0	230	101300000	1000	0	0	-1	1500
14544875	92	717	0	-100	0	230	101300000	1000	0	0	-1	1500
14557435	87	720	0	-100	0	230	101300000	1000	0	0	-1	1500
14569995	87	720	0	-100	0	230	101300000	1000	0	0	-1	1500
14582555	87	721	0	-100	0	230	101300000	1000	0	0	-1	1500
14595115	87	715	0	-100	0	230	101300000	1000	0	0	-1	1500
14607675	94	716	0	-100	0	230	101300000	1000	0	0	-1	1500
14620235	84	720	0	-100	0	230	101300000	1000	0	0	-1	1500
14632795	84	720	0	-100	0	230	101300000	1000	0	0	-1	1500
14645355	92	719	0	-100	0	230	101300000	1000	0	0	-1	1500
14657915	89	724	0	-100	0	230	101300000	1000	0	0	-1	1500
14670475	92	720	0	-100	0	230	101300000	1000	0	0	-1	1500
14683035	92	715	0	-100	0	230	101300000	1000	0	0	-1	1500
14695595	87	717	0	-100	0	230	101300000	1000	0	0	-1	1500
14708155	92	717	0	-100	0	230	101300000	1000	0	0	-1	1500
14720715	87	722	0	-100	0	230	101300000	1000	0	0	-1	1500
14733275	92	728	0	-100	0	230	101300000	1000	0	0	-1	1500
14745835	87	722	0	-100	0	230	101300000	1000	0	0	-1	1500
14758395	94	721	0	-100	0	230	101300000	1000	0	0	-1	1500
14770955	84	721	0	-100	0	230	101300000	1000	0	0	-1	1500
14783515	89	718	0	-100	0	230	101300000	1000	0	0	-1	1500
14796075	87	720	0	-100	0	230	101300000	1000	0	0	-1	1500
14808635	89	717	0	-100	0	230	101300000	1000	0	0	-1	1500
14821195	87	718	0	-100	0	230	101300000	1000	0	0	-1	1500
14833755	92	715	0	-100	0	230	101300000	1000	0	0	-1	1500
14846315	84	720	0	-100	0	230	101300000	1000	0	0	-1	1500
14858875	87	716	0	-100	0	230	101300000	1000	0	0	-1	1500
14871435	87	717	0	-100	0	230	101300000	1000	0	0	-1	1500
14883995	87	721	0	-100	0	230	101300000	1000	0	0	-1	1500
14896555	84	722	0	-100	0	230	101300000	1000	0	0	-1	1500
14909115	92	722	0	-100	0	230	101300000	1000	0	0	-1	1500
14921675	87	721	0	-100	0	230	101300000	1000	0	0	-1	1500
14934235	89	719	0	-100	0	230	101300000	1000	0	0	-1	1500
14946795	89	718	0	-100	0	230	101300000	1000	0	0	-1	1500
14959355	87	720	0	-100	0	230	101300000	1000	0	0	-1	1500
14971915	94	715	0	-100	0	230	101300000	1000	0	0	-1	1500
14984475	87	723	0	-100	0	230	101300000	1000	0	0	-1	1500
14997035	94	716	0	-100	0	230	101300000	1000	0	0	-1	1500
15009595	87	720	0	-100	0	230	101300000	1000	0	0	-1	1500
15022155	92	719	0	-100	0	230	101300000	1000	0	0	-1	1500
15034715	87	719	0	-100	0	230	101300000	1000	0	0	-1	1500
15047275	84	719	0	-100	0	230	101300000	1000	0	0	-1	1500
15059835	89	718	0	-100	0	230	101300000	1000	0	0	-1	1500
15072395	89	720	0	-100	0	230	101300000	1000	0	0	-1	1500
15084955	84	737	0	-100	0	230	101300000	1000	0	0	-1	1500
15097515	94	716	0	-100	0	230	101300000	1000	0	0	-1	1500
15110075	89	719	0	-100	0	230	101300000	1000	0	0	-1	1500
15122635	94	717	0	-100	0	230	101300000	1000	0	0	-1	1500
15135195	87	724	0	-100	0	230	101300000	1000	0	0	-1	1500
15147755	92	719	0	-100	0	230	101300000	1000	0	0	-1	1500
15160315	84	725	0	-100	0	230	101300000	1000	0	0	-1	1500
15172875	89	718	0	-100	0	230	101300000	1000	0	0	-1	1500
15185435	84	717	0	-100	0	230	101300000	1000	0	0	-1	1500
15197995	89	717	0	-100	0	230	101300000	1000	0	0	-1	1500
15210555	97	717	0	-100	0	230	101300000	1000	0	0	-1	1500
15223115	89	722	0	-100	0	230	101300000	1000	0	0	-1	1500
15235675	97	718	0	-100	0	230	101300000	1000	0	0	-1	1500
15248235	89	719	0	-100	0	230	101300000	1000	0	0	-1	1500
15260795	92	722	0	-100	0	230	101300000	1000	0	0	-1	1500
15273355	92	719	0	-100	0	230	101300000	1000	0	0	-1	1500
15285915	94	719	0	-100	0	230	101300000	1000	0	0	-1	1500
15298475	92	721	0	-100	0	230	101300000	1000	0	0	-1	1500
15311035	97	718	0	-100	0	230	101300000	1000	0	0	-1	1500
15323595	89	720	0	-100	0	230	101300000	1000	0	0	-1	1500
15336155	96	717	0	-100	0	230	101300000	1000	0	0	-1	1500
15348715	89	719	0	-100	0	230	101300000	1000	0	0	-1	1500
15361275	92	717	0	-100	0	230	101300000	1000	0	0	-1	1500
15373835	94	719	0	-100	0	230	101300000	1000	0	0	-1	1500
15386395	89	722	0	-100	0	230	101300000	1000	0	0	-1	1500
15398955	96	719	0	-100	0	230	101300000	1000	0	0	-1	1500
15411515	89	722	0	-100	0	230	101300000	1000	0	0	-1	1500
15424075	96	721	0	-100	0	230	101300000	1000	0	0	-1	1500
15436635	92	721	0	-100	0	230	101300000	1000	0	0	-1	1500
15449195	94	716	0	-100	0	230	101300000	1000	0	0	-1	1500
15461755	92	719	0	-100	0	230	101300000	1000	0	0	-1	1500
15474315	89	717	0	-100	0	230	101300000	1000	0	0	-1	1500
15486875	99	720	0	-100	0	230	101300000	1000	0	0	-1	1500
15499435	89	720	0	-100	0	230	101300000	1000	0	0	-1	1500
15511995	99	722	0	-100	0	230	101300000	1000	0	0	-1	1500
15524555	89	720	0	-100	0	230	101300000	1000	0	0	-1	1500
15537115	97	715	0	-100	0	230	101300000	1000	0	0	-1	1500
15549675	89	720	0	-100	0	230	101300000	1000	0	0	-1	1500
15562235	97	717	0	-100	0	230	101300000	1000	0	0	-1	1500
15574795	92	722	0	-100	0	230	101300000	1000	0	0	-1	1500
15587355	97	718	0	-100	0	230	101300000	1000	0	0	-1	1500
15599915	92	719	0	-100	0	230	101300000	1000	0	0	-1	1500
15612475	99	714	0	-100	0	230	101300000	1000	0	0	-1	1500
15625035	89	723	0	-100	0	230	101300000	1000	0	0	-1	1500
15637595	97	716	0	-100	0	230	101300000	1000	0	0	-1	1500
15650155	92	720	0	-100	0	230	101300000	1000	0	0	-1	1500
15662715	99	723	0	-100	0	230	101300000	1000	0	0	-1	1500
15675275	87	722	0	-100	0	230	101300000	1000	0	0	-1	1500
15687835	92	721	0	-100	0	230	101300000	1000	0	0	-1	1500
15700395	92	718	0	-100	0	230	101300000	1000	0	0	-1	1500
15712955	89	717	0	-100	0	230	101300000	1000	0	0	-1	1500
15725515	94	719	0	-100	0	230	101300000	1000	0	0	-1	1500
15738075	89	719	0	-100	0	230	101300000	1000	0	0	-1	1500
15750635	96	719	0	-100	0	230	101300000	1000	0	0	-1	1500
15763195	89	719	0	-100	0	230	101300000	1000	0	0	-1	1500
15775755	94	719	0	-100	0	230	101300000	1000	0	0	-1	1500
15788315	89	720	0	-100	0	230	101300000	1000	0	0	-1	1500
15800875	96	721	0	-100	0	230	101300000	1000	0	0	-1	1500
15813435	87	721	0	-100	0	230	101300000	1000	0	0	-1	1500
15825995	97	721	0	-100	0	230	101300000	1000	0	0	-1	1500
15838555	89	720	0	-100	0	230	101300000	1000	0	0	-1	1500
15851115	89	720	0	-100	0	230	101300000	1000	0	0	-1	1500
15863675	99	716	0	-100	0	230	101300000	1000	0	0	-1	1500
15876235	94	722	0	-100	0	230	101300000	1000	0	0	-1	1500
15888795	97	718	0	-100	0	230	101300000	1000	0	0	-1	1500
15901355	92	725	0	-100	0	230	101300000	1000	0	0	-1	1500
15913915	97	721	0	-100	0	230	101300000	1000	0	0	-1	1500
15926475	89	718	0	-100	0	230	101300000	1000	0	0	-1	1500
15939035	89	722	0	-100	0	230	101300000	1000	0	0	-1	1500
15951595	97	720	0	-100	0	230	101300000	1000	0	0	-1	1500
15964155	89	721	0	-100	0	230	101300000	1000	0	0	-1	1500
15976715	96	718	0	-100	0	230	101300000	1000	0	0	-1	1500
15989275	89	717	0	-100	0	230	101300000	1000	0	0	-1	1500
16001835	89	721	0	-100	0	230	101300000	1000	0	0	-1	1500
16014395	97	716	0	-100	0	230	101300000	1000	0	0	-1	1500
16026955	92	724	0	-100	0	230	101300000	1000	0	0	-1	1500
16039515	94	716	0	-100	0	230	101300000	1000	0	0	-1	1500
16052075	89	718	0	-100	0	230	101300000	1000	0	0	-1	1500
16064635	92	720	0	-100	0	230	101300000	1000	0	0	-1	1500
16077195	89	718	0	-100	0	230	101300000	1000	0	0	-1	1500
16089755	97	718	0	-100	0	230	101300000	1000	0	0	-1	1500
16102315	89	722	0	-100	0	230	101300000	1000	0	0	-1	1500
16114875	97	717	0	-100	0	230	101300000	1000	0	0	-1	1500
16127435	89	721	0	-100	0	230	101300000	1000	0	0	-1	1500
16139995	92	720	0	-100	0	230	101300000	1000	0	0	-1	1500
16152555	89	717	0	-100	0	230	101300000	1000	0	0	-1	1500
16165115	92	720	0	-100	0	230	101300000	1000	0	0	-1	1500
16177675	94	718	0	-100	0	230	101300000	1000	0	0	-1	1500
16190235	87	720	0	-100	0	230	101300000	1000	0	0	-1	1500
16202795	97	722	0	-100	0	230	101300000	1000	0	0	-1	1500
16215355	92	722	0	-100	0	230	101300000	1000	0	0	-1	1500
16227915	99	715	0	-100	0	230	101300000	1000	0	0	-1	1500
16240475	87	723	0	-100	0	230	101300000	1000	0	0	-1	1500
16253035	97	717	0	-100	0	230	101300000	1000	0	0	-1	1500
16265595	92	717	0	-100	0	230	101300000	1000	0	0	-1	1500
16278155	89	720	0	-100	0	230	101300000	1000	0	0	-1	1500
16290715	94	717	0	-100	0	230	101300000	1000	0	0	-1	1500
16303275	89	718	0	-100	0	230	101300000	1000	0	0	-1	1500
16315835	92	719	0	-100	0	230	101300000	1000	0	0	-1	1500
16328395	89	718	0	-100	0	230	101300000	1000	0	0	-1	1500
16340955	92	721	0	-100	0	230	101300000	1000	0	0	-1	1500
16353515	99	719	0	-100	0	230	101300000	1000	0	0	-1	1500
16366075	92	721	0	-100	0	230	101300000	1000	0	0	-1	1500
16378635	89	720	0	-100	0	230	101300000	1000	0	0	-1	1500
16391195	97	722	0	-100	0	230	101300000	1000	0	0	-1	1500
16403755	92	721	0	-100	0	230	101300000	1000	0	0	-1	1500
16416315	92	719	0	-100	0	230	101300000	1000	0	0	-1	1500
16428875	96	716	0	-100	0	230	101300000	1000	0	0	-1	1500
16441435	87	720	0	-100	0	230	101300000	1000	0	0	-1	1500
16453995	92	720	0	-100	0	230	101300000	1000	0	0	-1	1500
16466555	97	721	0	-100	0	230	101300000	1000	0	0	-1	1500
16479115	87	722	0	-100	0	230	101300000	1000	0	0	-1	1500
16491675	94	717	0	-100	0	230	101300000	1000	0	0	-1	1500
16504235	87	720	0	-100	0	230	101300000	1000	0	0	-1	1500
16516795	92	721	0	-100	0	230	101300000	1000	0	0	-1	1500
16529355	99	719	0	-100	0	230	101300000	1000	0	0	-1	1500
16541915	92	720	0	-100	0	230	101300000	1000	0	0	-1	1500
16554475	99	716	0	-100	0	230	101300000	1000	0	0	-1	1500
16567035	92	724	0	-100	0	230	101300000	1000	0	0	-1	1500
16579595	97	717	0	-100	0	230	101300000	1000	0	0	-1	1500
16592155	89	720	0	-100	0	230	101300000	1000	0	0	-1	1500
16604715	97	719	0	-100	0	230	101300000	1000	0	0	-1	1500
16617275	92	719	0	-100	0	230	101300000	1000	0	0	-1	1500
16629835	97	719	0	-100	0	230	101300000	1000	0	0	-1	1500
16642395	89	721	0	-100	0	230	101300000	1000	0	0	-1	1500
16654955	92	717	0	-100	0	230	101300000	1000	0	0	-1	1500
16667515	94	716	0	-100	0	230	101300000	1000	0	0	-1	1500
16680075	89	721	0	-100	0	230	101300000	1000	0	0	-1	1500
16692635	96	716	0	-100	0	230	101300000	1000	0	0	-1	1500
16705195	92	722	0	-100	0	230	101300000	1000	0	0	-1	1500
16717755	96	713	0	-100	0	230	101300000	1000	0	0	-1	1500
16730315	89	718	0	-100	0	230	101300000	1000	0	0	-1	1500
16742875	97	716	0	-100	0	230	101300000	1000	0	0	-1	1500
16755435	89	720	0	-100	0	230	101300000	1000	0	0	-1	1500
16767995	94	718	0	-100	0	230	101300000	1000	0	0	-1	1500
16780555	87	723	0	-100	0	230	101300000	1000	0	0	-1	1500
16793115	97	719	0	-100	0	230	101300000	1000	0	0	-1	1500
16805675	89	719	0	-100	0	230	101300000	1000	0	0	-1	1500
16818235	89	721	0	-100	0	230	101300000	1000	0	0	-1	1500
16830795	94	718	0	-100	0	230	101300000	1000	0	0	-1	1500
16843355	96	718	0	-100	0	230	101300000	1000	0	0	-1	1500
16855915	89	723	0	-100	0	230	101300000	1000	0	0	-1	1500
16868475	97	721	0	-100	0	230	101300000	1000	0	0	-1	1500
16881035	92	723	0	-100	0	230	101300000	1000	0	0	-1	1500
16893595	89	718	0	-100	0	230	101300000	1000	0	0	-1	1500
16906155	97	718	0	-100	0	230	101300000	1000	0	0	-1	1500
16918715	89	719	0	-100	0	230	101300000	1000	0	0	-1	1500
16931275	92	718	0	-100	0	230	101300000	1000	0	0	-1	1500
16943835	92	722	0	-100	0	230	101300000	1000	0	0	-1	1500
16956395	92	717	0	-100	0	230	101300000	1000	0	0	-1	1500
16968955	89	724	0	-100	0	230	101300000	1000	0	0	-1	1500
16981515	97	718	0	-100	0	230	101300000	1000	0	0	-1	1500
16994075	89	722	0	-100	0	230	101300000	1000	0	0	-1	1500
17006635	94	721	0	-100	0	230	101300000	1000	0	0	-1	1500
17019195	92	719	0	-100	0	230	101300000	1000	0	0	-1	1500
17031755	92	720	0	-100	0	230	101300000	1000	0	0	-1	1500
17044315	94	718	0	-100	0	230	101300000	1000	0	0	-1	1500
17056875	87	724	0	-100	0	230	101300000	1000	0	0	-1	1500
17069435	94	720	0	-100	0	230	101300000	1000	0	0	-1	1500
17081995	92	715	0	-100	0	230	101300000	1000	0	0	-1	1500
17094555	97	720	0	-100	0	230	101300000	1000	0	0	-1	1500
17107115	89	721	0	-100	0	230	101300000	1000	0	0	-1	1500
17119675	97	717	0	-100	0	230	101300000	1000	0	0	-1	1500
17132235	89	724	0	-100	0	230	101300000	1000	0	0	-1	1500
17144795	89	717	0	-100	0	230	101300000	1000	0	0	-1	1500
17157355	97	718	0	-100	0	230	101300000	1000	0	0	-1	1500
17169915	89	720	0	-100	0	230	101300000	1000	0	0	-1	1500
17182475	92	718	0	-100	0	230	101300000	1000	0	0	-1	1500
17195035	94	721	0	-100	0	230	101300000	1000	0	0	-1	1500
17207595	97	721	0	-100	0	230	101300000	1000	0	0	-1	1500
17220155	99	719	0	-100	0	230	101300000	1000	0	0	-1	1500
17232715	89	722	0	-100	0	230	101300000	1000	0	0	-1	1500
17245275	89	720	0	-100	0	230	101300000	1000	0	0	-1	1500
17257835	94	718	0	-100	0	230	101300000	1000	0	0	-1	1500
17270395	101	718	0	-100	0	230	101300000	1000	0	0	-1	1500
17282955	97	720	0	-100	0	230	101300000	1000	0	0	-1	1500
17295515	89	723	0	-100	0	230	101300000	1000	0	0	-1	1500
17308075	92	721	0	-100	0	230	101300000	1000	0	0	-1	1500
17320635	96	715	0	-100	0	230	101300000	1000	0	0	-1	1500
17333195	87	721	0	-100	0	230	101300000	1000	0	0	-1	1500
17345755	89	732	0	-100	0	230	101300000	1000	0	0	-1	1500
17358315	97	715	0	-100	0	230	101300000	1000	0	0	-1	1500
17370875	89	719	0	-100	0	230	101300000	1000	0	0	-1	1500
17383435	92	719	0	-100	0	230	101300000	1000	0	0	-1	1500
17395995	97	720	0	-100	0	230	101300000	1000	0	0	-1	1500
17408555	89	721	0	-100	0	230	101300000	1000	0	0	-1	1500
17421115	92	721	0	-100	0	230	101300000	1000	0	0	-1	1500
17433675	89	718	0	-100	0	230	101300000	1000	0	0	-1	1500
17446235	89	721	0	-100	0	230	101300000	1000	0	0	-1	1500
17458795	97	719	0	-100	0	230	101300000	1000	0	0	-1	1500
17471355	92	720	0	-100	0	230	101300000	1000	0	0	-1	1500
17483915	94	713	0	-100	0	230	101300000	1000	0	0	-1	1500
17496475	89	721	0	-100	0	230	101300000	1000	0	0	-1	1500
17509035	96	717	0	-100	0	230	101300000	1000	0	0	-1	1500
17521595	89	722	0	-100	0	230	101300000	1000	0	0	-1	1500
17534155	94	716	0	-100	0	230	101300000	1000	0	0	-1	1500
17546715	92	722	0	-100	0	230	101300000	1000	0	0	-1	1500
17559275	96	719	0	-100	0	230	101300000	1000	0	0	-1	1500
17571835	89	718	0	-100	0	230	101300000	1000	0	0	-1	1500
17584395	97	719	0	-100	0	230	101300000	1000	0	0	-1	1500
17596955	92	724	0	-100	0	230	101300000	1000	0	0	-1	1500
17609515	97	717	0	-100	0	230	101300000	1000	0	0	-1	1500
17622075	89	718	0	-100	0	230	101300000	1000	0	0	-1	1500
17634635	92	718	0	-100	0	230	101300000	1000	0	0	-1	1500
17647195	97	716	0	-100	0	230	101300000	1000	0	0	-1	1500
17659755	94	719	0	-100	0	230	101300000	1000	0	0	-1	1500
17672315	89	719	0	-100	0	230	101300000	1000	0	0	-1	1500
17684875	92	720	0	-100	0	230	101300000	1000	0	0	-1	1500
17697435	92	716	0	-100	0	230	101300000	1000	0	0	-1	1500
17709995	97	722	0	-100	0	230	101300000	1000	0	0	-1	1500
17722555	89	723	0	-100	0	230	101300000	1000	0	0	-1	1500
17735115	92	719	0	-100	0	230	101300000	1000	0	0	-1	1500
17747675	99	719	0	-100	0	230	101300000	1000	0	0	-1	1500
17760235	89	720	0	-100	0	230	101300000	1000	0	0	-1	1500
17772795	94	720	0	-100	0	230	101300000	1000	0	0	-1	1500
17785355	89	719	0	-100	0	230	101300000	1000	0	0	-1	1500
17797915	92	720	0	-100	0	230	101300000	1000	0	0	-1	1500
17810475	99	719	0	-100	0	230	101300000	1000	0	0	-1	1500
17823035	89	717	0	-100	0	230	101300000	1000	0	0	-1	1500
17835595	92	718	0	-100	0	230	101300000	1000	0	0	-1	1500
17848155	92	721	0	-100	0	230	101300000	1000	0	0	-1	1500
17860715	89	720	0	-100	0	230	101300000	1000	0	0	-1	1500
17873275	99	717	0	-100	0	230	101300000	1000	0	0	-1	1500
17885835	92	722	0	-100	0	230	101300000	1000	0	0	-1	1500
17898395	99	721	0	-100	0	230	101300000	1000	0	0	-1	1500
17910955	89	721	0	-100	0	230	101300000	1000	0	0	-1	1500
17923515	97	723	0	-100	0	230	101300000	1000	0	0	-1	1500
17936075	92	717	0	-100	0	230	101300000	1000	0	0	-1	1500
17948635	92	719	0	-100	0	230	101300000	1000	0	0	-1	1500
17961195	89	720	0	-100	0	230	101300000	1000	0	0	-1	1500
17973755	89	718	0	-100	0	230	101300000	1000	0	0	-1	1500
17986315	92	719	0	-100	0	230	101300000	1000	0	0	-1	1500
17998875	87	722	0	-100	0	230	101300000	1000	0	0	-1	1500
18011435	96	720	0	-100	0	230	101300000	1000	0	0	-1	1500
18023995	89	718	0	-100	0	230	101300000	1000	0	0	-1	1500
18036555	94	716	0	-100	0	230	101300000	1000	0	0	-1	1500
18049115	89	717	0	-100	0	230	101300000	1000	0	0	-1	1500
18061675	92	720	0	-100	0	230	101300000	1000	0	0	-1	1500
18074235	92	718	0	-100	0	230	101300000	1000	0	0	-1	1500
18086795	92	721	0	-100	0	230	101300000	1000	0	0	-1	1500
18099355	94	716	0	-100	0	230	101300000	1000	0	0	-1	1500
18111915	87	723	0	-100	0	230	101300000	1000	0	0	-1	1500
18124475	96	717	0	-100	0	230	101300000	1000	0	0	-1	1500
18137035	89	721	0	-100	0	230	101300000	1000	0	0	-1	1500
18149595	97	717	0	-100	0	230	101300000	1000	0	0	-1	1500
18162155	92	722	0	-100	0	230	101300000	1000	0	0	-1	1500
18174715	97	716	0	-100	0	230	101300000	1000	0	0	-1	1500
18187275	89	724	0	-100	0	230	101300000	1000	0	0	-1	1500
18199835	96	718	0	-100	0	230	101300000	1000	0	0	-1	1500
18212395	87	722	0	-100	0	230	101300000	1000	0	0	-1	1500
18224955	99	718	0	-100	0	230	101300000	1000	0	0	-1	1500
18237515	89	720	0	-100	0	230	101300000	1000	0	0	-1	1500
18250075	94	718	0	-100	0	230	101300000	1000	0	0	-1	1500
18262635	92	721	0	-100	0	230	101300000	1000	0	0	-1	1500
18275195	92	721	0	-100	0	230	101300000	1000	0	0	-1	1500
18287755	97	719	0	-100	0	230	101300000	1000	0	0	-1	1500
18300315	87	718	0	-100	0	230	101300000	1000	0	0	-1	1500
18312875	89	719	0	-100	0	230	101300000	1000	0	0	-1	1500
18325435	96	720	0	-100	0	230	101300000	1000	0	0	-1	1500
18337995	89	720	0	-100	0	230	101300000	1000	0	0	-1	1500
18350555	92	734	0	-100	0	230	101300000	1000	0	0	-1	1500
18363115	97	721	0	-100	0	230	101300000	1000	0	0	-1	1500
18375675	89	721	0	-100	0	230	101300000	1000	0	0	-1	1500
18388235	96	721	0	-100	0	230	101300000	1000	0	0	-1	1500
18400795	87	722	0	-100	0	230	101300000	1000	0	0	-1	1500
18413355	97	721	0	-100	0	230	101300000	1000	0	0	-1	1500
18425915	89	721	0	-100	0	230	101300000	1000	0	0	-1	1500
18438475	92	719	0	-100	0	230	101300000	1000	0	0	-1	1500
18451035	97	721	0	-100	0	230	101300000	1000	0	0	-1	1500
18463595	89	722	0	-100	0	230	101300000	1000	0	0	-1	1500
18476155	94	716	0	-100	0	230	101300000	1000	0	0	-1	1500
18488715	89	722	0	-100	0	230	101300000	1000	0	0	-1	1500
18501275	94	720	0	-100	0	230	101300000	1000	0	0	-1	1500
18513835	89	722	0	-100	0	230	101300000	1000	0	0	-1	1500
18526395	96	719	0	-100	0	230	101300000	1000	0	0	-1	1500
18538955	89	721	0	-100	0	230	101300000	1000	0	0	-1	1500
18551515	94	717	0	-100	0	230	101300000	1000	0	0	-1	1500
18564075	87	718	0	-100	0	230	101300000	1000	0	0	-1	1500
18576635	94	717	0	-100	0	230	101300000	1000	0	0	-1	1500
18589195	92	718	0	-100	0	230	101300000	1000	0	0	-1	1500
18601755	87	723	0	-100	0	230	101300000	1000	0	0	-1	1500
18614315	97	717	0	-100	0	230	101300000	1000	0	0	-1	1500
18626875	89	721	0	-100	0	230	101300000	1000	0	0	-1	1500
18639435	92	718	0	-100	0	230	101300000	1000	0	0	-1	1500
18651995	99	720	0	-100	0	230	101300000	1000	0	0	-1	1500
18664555	89	721	0	-100	0	230	101300000	1000	0	0	-1	1500
18677115	92	718	0	-100	0	230	101300000	1000	0	0	-1	1500
18689675	94	717	0	-100	0	230	101300000	1000	0	0	-1	1500
18702235	92	718	0	-100	0	230	101300000	1000	0	0	-1	1500
18714795	96	720	0	-100	0	230	101300000	1000	0	0	-1	1500
18727355	89	720	0	-100	0	230	101300000	1000	0	0	-1	1500
18739915	96	717	0	-100	0	230	101300000	1000	0	0	-1	1500
18752475	89	723	0	-100	0	230	101300000	1000	0	0	-1	1500
18765035	92	718	0	-100	0	230	101300000	1000	0	0	-1	1500
18777595	89	718	0	-100	0	230	101300000	1000	0	0	-1	1500
18790155	94	720	0	-100	0	230	101300000	1000	0	0	-1	1500
18802715	89	717	0	-100	0	230	101300000	1000	0	0	-1	1500
18815275	92	719	0	-100	0	230	101300000	1000	0	0	-1	1500
18827835	92	718	0	-100	0	230	101300000	1000	0	0	-1	1500
18840395	89	723	0	-100	0	230	101300000	1000	0	0	-1	1500
18852955	94	719	0	-100	0	230	101300000	1000	0	0	-1	1500
18865515	92	721	0	-100	0	230	101300000	1000	0	0	-1	1500
18878075	87	723	0	-100	0	230	101300000	1000	0	0	-1	1500
18890635	92	720	0	-100	0	230	101300000	1000	0	0	-1	1500
18903195	89	720	0	-100	0	230	101300000	1000	0	0	-1	1500
18915755	94	720	0	-100	0	230	101300000	1000	0	0	-1	1500
18928315	89	722	0	-100	0	230	101300000	1000	0	0	-1	1500
18940875	94	719	0	-100	0	230	101300000	1000	0	0	-1	1500
18953435	89	721	0	-100	0	230	101300000	1000	0	0	-1	1500
18965995	94	720	0	-100	0	230	101300000	1000	0	0	-1	1500
18978555	89	723	0	-100	0	230	101300000	1000	0	0	-1	1500
18991115	94	719	0	-100	0	230	101300000	1000	0	0	-1	1500
19003675	87	720	0	-100	0	230	101300000	1000	0	0	-1	1500
19016235	92	717	0	-100	0	230	101300000	1000	0	0	-1	1500
19028795	97	721	0	-100	0	230	101300000	1000	0	0	-1	1500
19041355	89	718	0	-100	0	230	101300000	1000	0	0	-1	1500
19053915	97	720	0	-100	0	230	101300000	1000	0	0	-1	1500
19066475	89	719	0	-100	0	230	101300000	1000	0	0	-1	1500
19079035	89	715	0	-100	0	230	101300000	1000	0	0	-1	1500
19091595	99	716	0	-100	0	230	101300000	1000	0	0	-1	1500
19104155	89	721	0	-100	0	230	101300000	1000	0	0	-1	1500
19116715	97	722	0	-100	0	230	101300000	1000	0	0	-1	1500
19129275	89	723	0	-100	0	230	101300000	1000	0	0	-1	1500
19141835	97	717	0	-100	0	230	101300000	1000	0	0	-1	1500
19154395	89	720	0	-100	0	230	101300000	1000	0	0	-1	1500
19166955	99	715	0	-100	0	230	101300000	1000	0	0	-1	1500
19179515	89	718	0	-100	0	230	101300000	1000	0	0	-1	1500
19192075	97	719	0	-100	0	230	101300000	1000	0	0	-1	1500
19204635	89	721	0	-100	0	230	101300000	1000	0	0	-1	1500
19217195	89	717	0	-100	0	230	101300000	1000	0	0	-1	1500
19229755	89	720	0	-100	0	230	101300000	1000	0	0	-1	1500
19242315	94	715	0	-100	0	230	101300000	1000	0	0	-1	1500
19254875	89	719	0	-100	0	230	101300000	1000	0	0	-1	1500
19267435	97	719	0	-100	0	230	101300000	1000	0	0	-1	1500
19279995	89	724	0	-100	0	230	101300000	1000	0	0	-1	1500
19292555	92	717	0	-100	0	230	101300000	1000	0	0	-1	1500
19305115	87	720	0	-100	0	230	101300000	1000	0	0	-1	1500
19317675	92	717	0	-100	0	230	101300000	1000	0	0	-1	1500
19330235	87	719	0	-100	0	230	101300000	1000	0	0	-1	1500
19342795	94	720	0	-100	0	230	101300000	1000	0	0	-1	1500
19355355	92	720	0	-100	0	230	101300000	1000	0	0	-1	1500
19367915	89	717	0	-100	0	230	101300000	1000	0	0	-1	1500
19380475	97	722	0	-100	0	230	101300000	1000	0	0	-1	1500
19393035	92	721	0	-100	0	230	101300000	1000	0	0	-1	1500
19405595	96	720	0	-100	0	230	101300000	1000	0	0	-1	1500
19418155	89	723	0	-100	0	230	101300000	1000	0	0	-1	1500
19430715	96	719	0	-100	0	230	101300000	1000	0	0	-1	1500
19443275	92	731	0	-100	0	230	101300000	1000	0	0	-1	1500
19455835	89	723	0	-100	0	230	101300000	1000	0	0	-1	1500
19468395	97	718	0	-100	0	230	101300000	1000	0	0	-1	1500
19480955	89	721	0	-100	0	230	101300000	1000	0	0	-1	1500
19493515	99	716	0	-100	0	230	101300000	1000	0	0	-1	1500
19506075	89	720	0	-100	0	230	101300000	1000	0	0	-1	1500
19518635	97	718	0	-100	0	230	101300000	1000	0	0	-1	1500
19531195	94	717	0	-100	0	230	101300000	1000	0	0	-1	1500
19543755	92	723	0	-100	0	230	101300000	1000	0	0	-1	1500
19556315	97	717	0	-100	0	230	101300000	1000	0	0	-1	1500
19568875	89	719	0	-100	0	230	101300000	1000	0	0	-1	1500
19581435	94	716	0	-100	0	230	101300000	1000	0	0	-1	1500
19593995	89	723	0	-100	0	230	101300000	1000	0	0	-1	1500
19606555	89	724	0	-100	0	230	101300000	1000	0	0	-1	1500
19619115	97	720	0	-100	0	230	101300000	1000	0	0	-1	1500
19631675	92	722	0	-100	0	230	101300000	1000	0	0	-1	1500
19644235	97	717	0	-100	0	230	101300000	1000	0	0	-1	1500
19656795	89	722	0	-100	0	230	101300000	1000	0	0	-1	1500
19669355	94	716	0	-100	0	230	101300000	1000	0	0	-1	1500
19681915	89	718	0	-100	0	230	101300000	1000	0	0	-1	1500
19694475	92	723	0	-100	0	230	101300000	1000	0	0	-1	1500
19707035	96	718	0	-100	0	230	101300000	1000	0	0	-1	1500
19719595	89	721	0	-100	0	230	101300000	1000	0	0	-1	1500
19732155	92	718	0	-100	0	230	101300000	1000	0	0	-1	1500
19744715	97	721	0	-100	0	230	101300000	1000	0	0	-1	1500
19757275	89	721	0	-100	0	230	101300000	1000	0	0	-1	1500
19769835	97	717	0	-100	0	230	101300000	1000	0	0	-1	1500
19782395	89	722	0	-100	0	230	101300000	1000	0	0	-1	1500
19794955	99	716	0	-100	0	230	101300000	1000	0	0	-1	1500
19807515	89	717	0	-100	0	230	101300000	1000	0	0	-1	1500
19820075	92	719	0	-100	0	230	101300000	1000	0	0	-1	1500
19832635	89	717	0	-100	0	230	101300000	1000	0	0	-1	1500
19845195	89	717	0	-100	0	230	101300000	1000	0	0	-1	1500
19857755	96	719	0	-100	0	230	101300000	1000	0	0	-1	1500
19870315	89	721	0	-100	0	230	101300000	1000	0	0	-1	1500
19882875	94	721	0	-100	0	230	101300000	1000	0	0	-1	1500
19895435	89	719	0	-100	0	230	101300000	1000	0	0	-1	1500
19907995	94	718	0	-100	0	230	101300000	1000	0	0	-1	1500
19920555	89	721	0	-100	0	230	101300000	1000	0	0	-1	1500
19933115	89	716	0	-100	0	230	101300000	1000	0	0	-1	1500
19945675	89	719	0	-100	0	230	101300000	1000	0	0	-1	1500
19958235	87	722	0	-100	0	230	101300000	1000	0	0	-1	1500
19970795	97	721	0	-100	0	230	101300000	1000	0	0	-1	1500
19983355	89	718	0	-100	0	230	101300000	1000	0	0	-1	1500
19995915	89	720	0	-100	0	230	101300000	1000	0	0	-1	1500
20008475	94	717	0	-100	0	230	101300000	1000	0	0	-1	1500
20021035	89	719	0	-100	0	230	101300000	1000	0	0	-1	1500
20033595	97	718	0	-100	0	230	101300000	1000	0	0	-1	1500
20046155	89	720	0	-100	0	230	101300000	1000	0	0	-1	1500
20058715	94	731	0	-100	0	230	101300000	1000	0	0	-1	1500
20071275	92	721	0	-100	0	230	101300000	1000	0	0	-1	1500
20083835	92	721	0	-100	0	230	101300000	1000	0	0	-1	1500
20096395	92	718	0	-100	0	230	101300000	1000	0	0	-1	1500
20108955	92	721	0	-100	0	230	101300000	1000	0	0	-1	1500
20121515	94	719	0	-100	0	230	101300000	1000	0	0	-1	1500
20134075	89	721	0	-100	0	230	101300000	1000	0	0	-1	1500
20146635	94	716	0	-100	0	230	101300000	1000	0	0	-1	1500
20159195	92	722	0	-100	0	230	101300000	1000	0	0	-1	1500
20171755	97	720	0	-100	0	230	101300000	1000	0	0	-1	1500
20184315	89	721	0	-100	0	230	101300000	1000	0	0	-1	1500
20196875	96	715	0	-100	0	230	101300000	1000	0	0	-1	1500
20209435	92	724	0	-100	0	230	101300000	1000	0	0	-1	1500
20221995	96	719	0	-100	0	230	101300000	1000	0	0	-1	1500
20234555	89	717	0	-100	0	230	101300000	1000	0	0	-1	1500
20247115	99	721	0	-100	0	230	101300000	1000	0	0	-1	1500
20259675	92	724	0	-100	0	230	101300000	1000	0	0	-1	1500
20272235	92	721	0	-100	0	230	101300000	1000	0	0	-1	1500
20284795	89	717	0	-100	0	230	101300000	1000	0	0	-1	1500
20297355	92	718	0	-100	0	230	101300000	1000	0	0	-1	1500
20309915	89	719	0	-100	0	230	101300000	1000	0	0	-1	1500
20322475	97	722	0	-100	0	230	101300000	1000	0	0	-1	1500
20335035	92	717	0	-100	0	230	101300000	1000	0	0	-1	1500
20347595	94	717	0	-100	0	230	101300000	1000	0	0	-1	1500
20360155	89	720	0	-100	0	230	101300000	1000	0	0	-1	1500
20372715	94	719	0	-100	0	230	101300000	1000	0	0	-1	1500
20385275	89	721	0	-100	0	230	101300000	1000	0	0	-1	1500
20397835	99	722	0	-100	0	230	101300000	1000	0	0	-1	1500
20410395	92	717	0	-100	0	230	101300000	1000	0	0	-1	1500
20422955	94	718	0	-100	0	230	101300000	1000	0	0	-1	1500
20435515	89	719	0	-100	0	230	101300000	1000	0	0	-1	1500
20448075	97	717	0	-100	0	230	101300000	1000	0	0	-1	1500
20460635	92	722	0	-100	0	230	101300000	1000	0	0	-1	1500
20473195	97	719	0	-100	0	230	101300000	1000	0	0	-1	1500
20485755	92	723	0	-100	0	230	101300000	1000	0	0	-1	1500
20498315	94	714	0	-100	0	230	101300000	1000	0	0	-1	1500
20510875	92	722	0	-100	0	230	101300000	1000	0	0	-1	1500
20523435	97	717	0	-100	0	230	101300000	1000	0	0	-1	1500
20535995	89	717	0	-100	0	230	101300000	1000	0	0	-1	1500
20548555	92	721	0	-100	0	230	101300000	1000	0	0	-1	1500
20561115	87	722	0	-100	0	230	101300000	1000	0	0	-1	1500
20573675	94	718	0	-100	0	230	101300000	1000	0	0	-1	1500
20586235	89	722	0	-100	0	230	101300000	1000	0	0	-1	1500
20598795	97	721	0	-100	0	230	101300000	1000	0	0	-1	1500
20611355	92	717	0	-100	0	230	101300000	1000	0	0	-1	1500
20623915	97	719	0	-100	0	230	101300000	1000	0	0	-1	1500
20636475	89	721	0	-100	0	230	101300000	1000	0	0	-1	1500
20649035	94	713	0	-100	0	230	101300000	1000	0	0	-1	1500
20661595	92	717	0	-100	0	230	101300000	1000	0	0	-1	1500
20674155	89	721	0	-100	0	230	101300000	1000	0	0	-1	1500
20686715	94	714	0	-100	0	230	101300000	1000	0	0	-1	1500
20699275	89	721	0	-100	0	230	101300000	1000	0	0	-1	1500
20711835	87	721	0	-100	0	230	101300000	1000	0	0	-1	1500
20724395	97	717	0	-100	0	230	101300000	1000	0	0	-1	1500
20736955	89	718	0	-100	0	230	101300000	1000	0	0	-1	1500
20749515	94	721	0	-100	0	230	101300000	1000	0	0	-1	1500
20762075	89	721	0	-100	0	230	101300000	1000	0	0	-1	1500
20774635	94	718	0	-100	0	230	101300000	1000	0	0	-1	1500
20787195	87	721	0	-100	0	230	101300000	1000	0	0	-1	1500
20799755	92	718	0	-100	0	230	101300000	1000	0	0	-1	1500
20812315	92	720	0	-100	0	230	101300000	1000	0	0	-1	1500
20824875	92	720	0	-100	0	230	101300000	1000	0	0	-1	1500
20837435	94	718	0	-100	0	230	101300000	1000	0	0	-1	1500
20849995	89	723	0	-100	0	230	101300000	1000	0	0	-1	1500
20862555	89	720	0	-100	0	230	101300000	1000	0	0	-1	1500
20875115	97	721	0	-100	0	230	101300000	1000	0	0	-1	1500
20887675	92	724	0	-100	0	230	101300000	1000	0	0	-1	1500
20900235	99	718	0	-100	0	230	101300000	1000	0	0	-1	1500
20912795	92	721	0	-100	0	230	101300000	1000	0	0	-1	1500
20925355	92	721	0	-100	0	230	101300000	1000	0	0	-1	1500
20937915	97	719	0	-100	0	230	101300000	1000	0	0	-1	1500
20950475	89	719	0	-100	0	230	101300000	1000	0	0	-1	1500
20963035	89	718	0	-100	0	230	101300000	1000	0	0	-1	1500
20975595	99	713	0	-100	0	230	101300000	1000	0	0	-1	1500
20988155	87	720	0	-100	0	230	101300000	1000	0	0	-1	1500
21000715	89	721	0	-100	0	230	101300000	1000	0	0	-1	1500
21013275	96	717	0	-100	0	230	101300000	1000	0	0	-1	1500
21025835	87	719	0	-100	0	230	101300000	1000	0	0	-1	1500
21038395	89	719	0	-100	0	230	101300000	1000	0	0	-1	1500
21050955	96	723	0	-100	0	230	101300000	1000	0	0	-1	1500
21063515	92	721	0	-100	0	230	101300000	1000	0	0	-1	1500
21076075	92	722	0	-100	0	230	101300000	1000	0	0	-1	1500
21088635	96	718	0	-100	0	230	101300000	1000	0	0	-1	1500
21101195	92	718	0	-100	0	230	101300000	1000	0	0	-1	1500
21113755	87	720	0	-100	0	230	101300000	1000	0	0	-1	1500
21126315	97	717	0	-100	0	230	101300000	1000	0	0	-1	1500
21138875	92	724	0	-100	0	230	101300000	1000	0	0	-1	1500
21151435	97	720	0	-100	0	230	101300000	1000	0	0	-1	1500
21163995	89	722	0	-100	0	230	101300000	1000	0	0	-1	1500
21176555	97	721	0	-100	0	230	101300000	1000	0	0	-1	1500
21189115	92	726	0	-100	0	230	101300000	1000	0	0	-1	1500
21201675	92	721	0	-100	0	230	101300000	1000	0	0	-1	1500
21214235	96	718	0	-100	0	230	101300000	1000	0	0	-1	1500
21226795	94	719	0	-100	0	230	101300000	1000	0	0	-1	1500
21239355	89	720	0	-100	0	230	101300000	1000	0	0	-1	1500
21251915	96	719	0	-100	0	230	101300000	1000	0	0	-1	1500
21264475	87	719	0	-100	0	230	101300000	1000	0	0	-1	1500
21277035	92	719	0	-100	0	230	101300000	1000	0	0	-1	1500
21289595	92	719	0	-100	0	230	101300000	1000	0	0	-1	1500
21302155	92	721	0	-100	0	230	101300000	1000	0	0	-1	1500
21314715	99	718	0	-100	0	230	101300000	1000	0	0	-1	1500
21327275	89	721	0	-100	0	230	101300000	1000	0	0	-1	1500
21339835	92	719	0	-100	0	230	101300000	1000	0	0	-1	1500
21352395	94	718	0	-100	0	230	101300000	1000	0	0	-1	1500
21364955	99	720	0	-100	0	230	101300000	1000	0	0	-1	1500
21377515	92	719	0	-100	0	230	101300000	1000	0	0	-1	1500
21390075	97	722	0	-100	0	230	101300000	1000	0	0	-1	1500
21402635	89	718	0	-100	0	230	101300000	1000	0	0	-1	1500
21415195	94	717	0	-100	0	230	101300000	1000	0	0	-1	1500
21427755	92	734	0	-100	0	230	101300000	1000	0	0	-1	1500
21440315	87	717	0	-100	0	230	101300000	1000	0	0	-1	1500
21452875	94	719	0	-100	0	230	101300000	1000	0	0	-1	1500
21465435	89	717	0	-100	0	230	101300000	1000	0	0	-1	1500
21477995	92	720	0	-100	0	230	101300000	1000	0	0	-1	1500
21490555	92	716	0	-100	0	230	101300000	1000	0	0	-1	1500
21503115	92	720	0	-100	0	230	101300000	1000	0	0	-1	1500
21515675	97	717	0	-100	0	230	101300000	1000	0	0	-1	1500
21528235	89	720	0	-100	0	230	101300000	1000	0	0	-1	1500
21540795	92	722	0	-100	0	230	101300000	1000	0	0	-1	1500
21553355	92	719	0	-100	0	230	101300000	1000	0	0	-1	1500
21565915	94	718	0	-100	0	230	101300000	1000	0	0	-1	1500
21578475	94	716	0	-100	0	230	101300000	1000	0	0	-1	1500
21591035	89	722	0	-100	0	230	101300000	1000	0	0	-1	1500
21603595	94	718	0	-100	0	230	101300000	1000	0	0	-1	1500
21616155	92	719	0	-100	0	230	101300000	1000	0	0	-1	1500
21628715	92	719	0	-100	0	230	101300000	1000	0	0	-1	1500
21641275	97	727	0	-100	0	230	101300000	1000	0	0	-1	1500
21678955	87	719	0	-100	0	230	101300000	1000	0	0	-1	1500
21691515	89	722	0	-100	0	230	101300000	1000	0	0	-1	1500
21704075	97	717	0	-100	0	230	101300000	1000	0	0	-1	1500
21716635	89	723	0	-100	0	230	101300000	1000	0	0	-1	1500
21729195	99	722	0	-100	0	230	101300000	1000	0	0	-1	1500
21741755	87	722	0	-100	0	230	101300000	1000	0	0	-1	1500
21754315	94	717	0	-100	0	230	101300000	1000	0	0	-1	1500
21766875	89	720	0	-100	0	230	101300000	1000	0	0	-1	1500
21779435	92	721	0	-100	0	230	101300000	1000	0	0	-1	1500
21791995	89	719	0	-100	0	230	101300000	1000	0	0	-1	1500
21804555	89	719	0	-100	0	230	101300000	1000	0	0	-1	1500
21817115	92	718	0	-100	0	230	101300000	1000	0	0	-1	1500
21829675	92	719	0	-100	0	230	101300000	1000	0	0	-1	1500
21842235	101	721	0	-100	0	230	101300000	1000	0	0	-1	1500
21854795	92	720	0	-100	0	230	101300000	1000	0	0	-1	1500
21867355	96	715	0	-100	0	230	101300000	1000	0	0	-1	1500
21879915	94	716	0	-100	0	230	101300000	1000	0	0	-1	1500
21892475	99	716	0	-100	0	230	101300000	1000	0	0	-1	1500
21905035	92	721	0	-100	0	230	101300000	1000	0	0	-1	1500
21917595	97	719	0	-100	0	230	101300000	1000	0	0	-1	1500
21930155	87	721	0	-100	0	230	101300000	1000	0	0	-1	1500
21942715	97	720	0	-100	0	230	101300000	1000	0	0	-1	1500
21955275	89	722	0	-100	0	230	101300000	1000	0	0	-1	1500
21967835	97	719	0	-100	0	230	101300000	1000	0	0	-1	1500
21980395	92	720	0	-100	0	230	101300000	1000	0	0	-1	1500
21992955	92	718	0	-100	0	230	101300000	1000	0	0	-1	1500
22005515	94	720	0	-100	0	230	101300000	1000	0	0	-1	1500
22018075	92	718	0	-100	0	230	101300000	1000	0	0	-1	1500
22030635	97	721	0	-100	0	230	101300000	1000	0	0	-1	1500
22043195	89	720	0	-100	0	230	101300000	1000	0	0	-1	1500
22055755	96	720	0	-100	0	230	101300000	1000	0	0	-1	1500
22068315	87	720	0	-100	0	230	101300000	1000	0	0	-1	1500
22080875	92	722	0	-100	0	230	101300000	1000	0	0	-1	1500
22093435	92	719	0	-100	0	230	101300000	1000	0	0	-1	1500
22105995	89	717	0	-100	0	230	101300000	1000	0	0	-1	1500
22118555	99	712	0	-100	0	230	101300000	1000	0	0	-1	1500
22131115	87	723	0	-100	0	230	101300000	1000	0	0	-1	1500
22143675	96	719	0	-100	0	230	101300000	1000	0	0	-1	1500
22156235	89	722	0	-100	0	230	101300000	1000	0	0	-1	1500
22168795	97	718	0	-100	0	230	101300000	1000	0	0	-1	1500
22181355	87	723	0	-100	0	230	101300000	1000	0	0	-1	1500
22193915	94	720	0	-100	0	230	101300000	1000	0	0	-1	1500
22206475	92	718	0	-100	0	230	101300000	1000	0	0	-1	1500
22219035	92	717	0	-100	0	230	101300000	1000	0	0	-1	1500
22231595	96	718	0	-100	0	230	101300000	1000	0	0	-1	1500
22244155	92	725	0	-100	0	230	101300000	1000	0	0	-1	1500
22256715	97	721	0	-100	0	230	101300000	1000	0	0	-1	1500
22269275	89	721	0	-100	0	230	101300000	1000	0	0	-1	1500
22281835	97	717	0	-100	0	230	101300000	1000	0	0	-1	1500
22294395	92	723	0	-100	0	230	101300000	1000	0	0	-1	1500
22306955	97	716	0	-100	0	230	101300000	1000	0	0	-1	1500
22319515	89	720	0	-100	0	230	101300000	1000	0	0	-1	1500
22332075	97	719	0	-100	0	230	101300000	1000	0	0	-1	1500
22344635	92	722	0	-100	0	230	101300000	1000	0	0	-1	1500
22357195	97	721	0	-100	0	230	101300000	1000	0	0	-1	1500
22369755	92	720	0	-100	0	230	101300000	1000	0	0	-1	1500
22382315	94	725	0	-100	0	230	101300000	1000	0	0	-1	1500
22394875	89	726	0	-100	0	230	101300000	1000	0	0	-1	1500
22407435	94	717	0	-100	0	230	101300000	1000	0	0	-1	1500
22419995	89	721	0	-100	0	230	101300000	1000	0	0	-1	1500
22432555	94	717	0	-100	0	230	101300000	1000	0	0	-1	1500
22445115	87	723	0	-100	0	230	101300000	1000	0	0	-1	1500
22457675	99	720	0	-100	0	230	101300000	1000	0	0	-1	1500
22470235	89	722	0	-100	0	230	101300000	1000	0	0	-1	1500
22482795	97	718	0	-100	0	230	101300000	1000	0	0	-1	1500
22495355	89	724	0	-100	0	230	101300000	1000	0	0	-1	1500
22507915	97	720	0	-100	0	230	101300000	1000	0	0	-1	1500
22520475	94	719	0	-100	0	230	101300000	1000	0	0	-1	1500
22533035	92	721	0	-100	0	230	101300000	1000	0	0	-1	1500
22545595	89	717	0	-100	0	230	101300000	1000	0	0	-1	1500
22558155	89	719	0	-100	0	230	101300000	1000	0	0	-1	1500
22570715	92	719	0	-100	0	230	101300000	1000	0	0	-1	1500
22583275	97	718	0	-100	0	230	101300000	1000	0	0	-1	1500
22595835	89	722	0	-100	0	230	101300000	1000	0	0	-1	1500
22608395	97	723	0	-100	0	230	101300000	1000	0	0	-1	1500
22620955	89	722	0	-100	0	230	101300000	1000	0	0	-1	1500
22633515	99	715	0	-100	0	230	101300000	1000	0	0	-1	1500
22646075	89	719	0	-100	0	230	101300000	1000	0	0	-1	1500
22658635	87	717	0	-100	0	230	101300000	1000	0	0	-1	1500
22671195	97	717	0	-100	0	230	101300000	1000	0	0	-1	1500
22683755	92	721	0	-100	0	230	101300000	1000	0	0	-1	1500
22696315	92	720	0	-100	0	230	101300000	1000	0	0	-1	1500
22708875	94	719	0	-100	0	230	101300000	1000	0	0	-1	1500
22721435	92	720	0	-100	0	230	101300000	1000	0	0	-1	1500
22733995	96	717	0	-100	0	230	101300000	1000	0	0	-1	1500
22746555	89	720	0	-100	0	230	101300000	1000	0	0	-1	1500
22759115	94	719	0	-100	0	230	101300000	1000	0	0	-1	1500
22771675	87	721	0	-100	0	230	101300000	1000	0	0	-1	1500
22784235	97	718	0	-100	0	230	101300000	1000	0	0	-1	1500
22796795	87	719	0	-100	0	230	101300000	1000	0	0	-1	1500
22809355	96	717	0	-100	0	230	101300000	1000	0	0	-1	1500
22821915	89	720	0	-100	0	230	101300000	1000	0	0	-1	1500
22834475	97	719	0	-100	0	230	101300000	1000	0	0	-1	1500
22847035	92	718	0	-100	0	230	101300000	1000	0	0	-1	1500
22859595	97	717	0	-100	0	230	101300000	1000	0	0	-1	1500
22872155	89	721	0	-100	0	230	101300000	1000	0	0	-1	1500
22884715	92	719	0	-100	0	230	101300000	1000	0	0	-1	1500
22897275	89	718	0	-100	0	230	101300000	1000	0	0	-1	1500
22909835	89	720	0	-100	0	230	101300000	1000	0	0	-1	1500
22922395	94	721	0	-100	0	230	101300000	1000	0	0	-1	1500
22934955	92	718	0	-100	0	230	101300000	1000	0	0	-1	1500
22947515	89	716	0	-100	0	230	101300000	1000	0	0	-1	1500
22960075	89	718	0	-100	0	230	101300000	1000	0	0	-1	1500
22972635	96	721	0	-100	0	230	101300000	1000	0	0	-1	1500
22985195	89	723	0	-100	0	230	101300000	1000	0	0	-1	1500
22997755	97	721	0	-100	0	230	101300000	1000	0	0	-1	1500
23010315	89	721	0	-100	0	230	101300000	1000	0	0	-1	1500
23022875	94	718	0	-100	0	230	101300000	1000	0	0	-1	1500
23035435	92	719	0	-100	0	230	101300000	1000	0	0	-1	1500
23047995	94	722	0	-100	0	230	101300000	1000	0	0	-1	1500
23060555	89	722	0	-100	0	230	101300000	1000	0	0	-1	1500
23073115	94	716	0	-100	0	230	101300000	1000	0	0	-1	1500
23085675	89	719	0	-100	0	230	101300000	1000	0	0	-1	1500
23098235	89	720	0	-100	0	230	101300000	1000	0	0	-1	1500
23110795	97	722	0	-100	0	230	101300000	1000	0	0	-1	1500
23123355	92	721	0	-100	0	230	101300000	1000	0	0	-1	1500
23135915	96	718	0	-100	0	230	101300000	1000	0	0	-1	1500
23148475	92	722	0	-100	0	230	101300000	1000	0	0	-1	1500
23161035	89	719	0	-100	0	230	101300000	1000	0	0	-1	1500
23173595	99	719	0	-100	0	230	101300000	1000	0	0	-1	1500
23186155	89	717	0	-100	0	230	101300000	1000	0	0	-1	1500
23198715	92	721	0	-100	0	230	101300000	1000	0	0	-1	1500
23211275	99	720	0	-100	0	230	101300000	1000	0	0	-1	1500
23223835	89	720	0	-100	0	230	101300000	1000	0	0	-1	1500
23236395	94	716	0	-100	0	230	101300000	1000	0	0	-1	1500
23248955	87	719	0	-100	0	230	101300000	1000	0	0	-1	1500
23261515	92	720	0	-100	0	230	101300000	1000	0	0	-1	1500
23274075	92	721	0	-100	0	230	101300000	1000	0	0	-1	1500
23286635	89	722	0	-100	0	230	101300000	1000	0	0	-1	1500
23299195	96	714	0	-100	0	230	101300000	1000	0	0	-1	1500
23311755	89	721	0	-100	0	230	101300000	1000	0	0	-1	1500
23324315	89	723	0	-100	0	230	101300000	1000	0	0	-1	1500
23336875	94	719	0	-100	0	230	101300000	1000	0	0	-1	1500
23349435	99	721	0	-100	0	230	101300000	1000	0	0	-1	1500
23361995	92	715	0	-100	0	230	101300000	1000	0	0	-1	1500
23374555	89	721	0	-100	0	230	101300000	1000	0	0	-1	1500
23387115	94	722	0	-100	0	230	101300000	1000	0	0	-1	1500
23399675	87	721	0	-100	0	230	101300000	1000	0	0	-1	1500
23412235	94	717	0	-100	0	230	101300000	1000	0	0	-1	1500
23424795	92	719	0	-100	0	230	101300000	1000	0	0	-1	1500
23437355	89	722	0	-100	0	230	101300000	1000	0	0	-1	1500
23449915	94	718	0	-100	0	230	101300000	1000	0	0	-1	1500
23462475	89	720	0	-100	0	230	101300000	1000	0	0	-1	1500
23475035	94	720	0	-100	0	230	101300000	1000	0	0	-1	1500
23487595	94	718	0	-100	0	230	101300000	1000	0	0	-1	1500
23500155	96	716	0	-100	0	230	101300000	1000	0	0	-1	1500
23512715	89	722	0	-100	0	230	101300000	1000	0	0	-1	1500
23525275	97	717	0	-100	0	230	101300000	1000	0	0	-1	1500
23537835	89	718	0	-100	0	230	101300000	1000	0	0	-1	1500
23550395	92	720	0	-100	0	230	101300000	1000	0	0	-1	1500
23562955	97	717	0	-100	0	230	101300000	1000	0	0	-1	1500
23575515	89	718	0	-100	0	230	101300000	1000	0	0	-1	1500
23588075	92	720	0	-100	0	230	101300000	1000	0	0	-1	1500
23600635	99	720	0	-100	0	230	101300000	1000	0	0	-1	1500
23613195	89	723	0	-100	0	230	101300000	1000	0	0	-1	1500
23625755	94	716	0	-100	0	230	101300000	1000	0	0	-1	1500
23638315	89	718	0	-100	0	230	101300000	1000	0	0	-1	1500
23650875	92	721	0	-100	0	230	101300000	1000	0	0	-1	1500
23663435	89	731	0	-100	0	230	101300000	1000	0	0	-1	1500
23675995	99	720	0	-100	0	230	101300000	1000	0	0	-1	1500
23688555	89	719	0	-100	0	230	101300000	1000	0	0	-1	1500
23701115	89	721	0	-100	0	230	101300000	1000	0	0	-1	1500
23713675	97	722	0	-100	0	230	101300000	1000	0	0	-1	1500
23726235	89	720	0	-100	0	230	101300000	1000	0	0	-1	1500
23738795	92	719	0	-100	0	230	101300000	1000	0	0	-1	1500
23751355	97	720	0	-100	0	230	101300000	1000	0	0	-1	1500
23763915	92	717	0	-100	0	230	101300000	1000	0	0	-1	1500
23776475	92	722	0	-100	0	230	101300000	1000	0	0	-1	1500
23789035	94	718	0	-100	0	230	101300000	1000	0	0	-1	1500
23801595	94	716	0	-100	0	230	101300000	1000	0	0	-1	1500
23814155	94	720	0	-100	0	230	101300000	1000	0	0	-1	1500
23826715	97	718	0	-100	0	230	101300000	1000	0	0	-1	1500
23839275	89	720	0	-100	0	230	101300000	1000	0	0	-1	1500
23851835	89	719	0	-100	0	230	101300000	1000	0	0	-1	1500
23864395	97	721	0	-100	0	230	101300000	1000	0	0	-1	1500
23876955	89	719	0	-100	0	230	101300000	1000	0	0	-1	1500
23889515	92	722	0	-100	0	230	101300000	1000	0	0	-1	1500
23902075	97	719	0	-100	0	230	101300000	1000	0	0	-1	1500
23914635	92	721	0	-100	0	230	101300000	1000	0	0	-1	1500
23927195	94	719	0	-100	0	230	101300000	1000	0	0	-1	1500
23939755	92	722	0	-100	0	230	101300000	1000	0	0	-1	1500
23952315	94	715	0	-100	0	230	101300000	1000	0	0	-1	1500
23964875	89	718	0	-100	0	230	101300000	1000	0	0	-1	1500
23977435	89	721	0	-100	0	230	101300000	1000	0	0	-1	1500
23989995	99	720	0	-100	0	230	101300000	1000	0	0	-1	1500
24002555	89	721	0	-100	0	230	101300000	1000	0	0	-1	1500
24015115	94	716	0	-100	0	230	101300000	1000	0	0	-1	1500
24027675	92	720	0	-100	0	230	101300000	1000	0	0	-1	1500
24040235	89	717	0	-100	0	230	101300000	1000	0	0	-1	1500
24052795	97	717	0	-100	0	230	101300000	1000	0	0	-1	1500
24065355	89	722	0	-100	0	230	101300000	1000	0	0	-1	1500
24077915	96	720	0	-100	0	230	101300000	1000	0	0	-1	1500
24090475	89	729	0	-100	0	230	101300000	1000	0	0	-1	1500
24103035	94	718	0	-100	0	230	101300000	1000	0	0	-1	1500
24115595	92	720	0	-100	0	230	101300000	1000	0	0	-1	1500
24128155	92	720	0	-100	0	230	101300000	1000	0	0	-1	1500
24140715	94	718	0	-100	0	230	101300000	1000	0	0	-1	1500
24153275	96	714	0	-100	0	230	101300000	1000	0	0	-1	1500
24165835	89	719	0	-100	0	230	101300000	1000	0	0	-1	1500
24178395	89	722	0	-100	0	230	101300000	1000	0	0	-1	1500
24190955	92	717	0	-100	0	230	101300000	1000	0	0	-1	1500
24203515	99	716	0	-100	0	230	101300000	1000	0	0	-1	1500
24216075	87	722	0	-100	0	230	101300000	1000	0	0	-1	1500
24228635	92	717	0	-100	0	230	101300000	1000	0	0	-1	1500
24241195	94	720	0	-100	0	230	101300000	1000	0	0	-1	1500
24253755	94	717	0	-100	0	230	101300000	1000	0	0	-1	1500
24266315	87	721	0	-100	0	230	101300000	1000	0	0	-1	1500
24278875	92	717	0	-100	0	230	101300000	1000	0	0	-1	1500
24291435	94	716	0	-100	0	230	101300000	1000	0	0	-1	1500
24303995	89	720	0	-100	0	230	101300000	1000	0	0	-1	1500
24316555	92	719	0	-100	0	230	101300000	1000	0	0	-1	1500
24329115	92	720	0	-100	0	230	101300000	1000	0	0	-1	1500
24341675	97	721	0	-100	0	230	101300000	1000	0	0	-1	1500
24354235	89	720	0	-100	0	230	101300000	1000	0	0	-1	1500
24366795	92	721	0	-100	0	230	101300000	1000	0	0	-1	1500
24379355	89	716	0	-100	0	230	101300000	1000	0	0	-1	1500
24391915	99	719	0	-100	0	230	101300000	1000	0	0	-1	1500
24404475	87	723	0	-100	0	230	101300000	1000	0	0	-1	1500
24417035	92	718	0	-100	0	230	101300000	1000	0	0	-1	1500
24429595	96	724	0	-100	0	230	101300000	1000	0	0	-1	1500
24442155	87	723	0	-100	0	230	101300000	1000	0	0	-1	1500
24454715	92	718	0	-100	0	230	101300000	1000	0	0	-1	1500
24467275	99	720	0	-100	0	230	101300000	1000	0	0	-1	1500
24479835	92	724	0	-100	0	230	101300000	1000	0	0	-1	1500
24492395	96	721	0	-100	0	230	101300000	1000	0	0	-1	1500
24504955	89	717	0	-100	0	230	101300000	1000	0	0	-1	1500
24517515	89	722	0	-100	0	230	101300000	1000	0	0	-1	1500
24530075	96	714	0	-100	0	230	101300000	1000	0	0	-1	1500
24542635	87	722	0	-100	0	230	101300000	1000	0	0	-1	1500
24555195	92	721	0	-100	0	230	101300000	1000	0	0	-1	1500
24567755	97	722	0	-100	0	230	101300000	1000	0	0	-1	1500
24580315	92	723	0	-100	0	230	101300000	1000	0	0	-1	1500
24592875	94	716	0	-100	0	230	101300000	1000	0	0	-1	1500
24605435	89	718	0	-100	0	230	101300000	1000	0	0	-1	1500
24617995	87	715	0	-100	0	230	101300000	1000	0	0	-1	1500
24630555	97	720	0	-100	0	230	101300000	1000	0	0	-1	1500
24643115	89	718	0	-100	0	230	101300000	1000	0	0	-1	1500
24655675	94	716	0	-100	0	230	101300000	1000	0	0	-1	1500
24668235	92	718	0	-100	0	230	101300000	1000	0	0	-1	1500
24680795	89	719	0	-100	0	230	101300000	1000	0	0	-1	1500
24693355	94	717	0	-100	0	230	101300000	1000	0	0	-1	1500
24705915	92	718	0	-100	0	230	101300000	1000	0	0	-1	1500
24718475	94	719	0	-100	0	230	101300000	1000	0	0	-1	1500
24731035	97	720	0	-100	0	230	101300000	1000	0	0	-1	1500
24743595	92	719	0	-100	0	230	101300000	1000	0	0	-1	1500
24756155	97	713	0	-100	0	230	101300000	1000	0	0	-1	1500
24768715	92	722	0	-100	0	230	101300000	1000	0	0	-1	1500
24781275	96	717	0	-100	0	230	101300000	1000	0	0	-1	1500
24793835	92	716	0	-100	0	230	101300000	1000	0	0	-1	1500
24806395	99	720	0	-100	0	230	101300000	1000	0	0	-1	1500
24818955	89	719	0	-100	0	230	101300000	1000	0	0	-1	1500
24831515	97	718	0	-100	0	230	101300000	1000	0	0	-1	1500
24844075	89	720	0	-100	0	230	101300000	1000	0	0	-1	1500
24856635	89	720	0	-100	0	230	101300000	1000	0	0	-1	1500
24869195	99	716	0	-100	0	230	101300000	1000	0	0	-1	1500
24881755	89	719	0	-100	0	230	101300000	1000	0	0	-1	1500
24894315	89	719	0	-100	0	230	101300000	1000	0	0	-1	1500
24906875	99	723	0	-100	0	230	101300000	1000	0	0	-1	1500
24919435	87	724	0	-100	0	230	101300000	1000	0	0	-1	1500
24931995	92	720	0	-100	0	230	101300000	1000	0	0	-1	1500
24944555	92	717	0	-100	0	230	101300000	1000	0	0	-1	1500
24957115	89	733	0	-100	0	230	101300000	1000	0	0	-1	1500
24969675	99	719	0	-100	0	230	101300000	1000	0	0	-1	1500
24982235	89	722	0	-100	0	230	101300000	1000	0	0	-1	1500
24994795	89	717	0	-100	0	230	101300000	1000	0	0	-1	1500
25007355	94	715	0	-100	0	230	101300000	1000	0	0	-1	1500
25019915	92	723	0	-100	0	230	101300000	1000	0	0	-1	1500
25032475	97	719	0	-100	0	230	101300000	1000	0	0	-1	1500
25045035	89	720	0	-100	0	230	101300000	1000	0	0	-1	1500
25057595	89	721	0	-100	0	230	101300000	1000	0	0	-1	1500
25070155	99	716	0	-100	0	230	101300000	1000	0	0	-1	1500
25082715	89	723	0	-100	0	230	101300000	1000	0	0	-1	1500
25095275	89	723	0	-100	0	230	101300000	1000	0	0	-1	1500
25107835	97	716	0	-100	0	230	101300000	1000	0	0	-1	1500
25120395	89	718	0	-100	0	230	101300000	1000	0	0	-1	1500
25132955	99	718	0	-100	0	230	101300000	1000	0	0	-1	1500
25145515	89	718	0	-100	0	230	101300000	1000	0	0	-1	1500
25158075	94	717	0	-100	0	230	101300000	1000	0	0	-1	1500
25170635	94	720	0	-100	0	230	101300000	1000	0	0	-1	1500
25183195	92	722	0	-100	0	230	101300000	1000	0	0	-1	1500
25195755	89	722	0	-100	0	230	101300000	1000	0	0	-1	1500
25208315	97	721	0	-100	0	230	101300000	1000	0	0	-1	1500
25220875	94	716	0	-100	0	230	101300000	1000	0	0	-1	1500
25233435	97	721	0	-100	0	230	101300000	1000	0	0	-1	1500
25245995	89	716	0	-100	0	230	101300000	1000	0	0	-1	1500
25258555	97	721	0	-100	0	230	101300000	1000	0	0	-1	1500
25271115	89	720	0	-100	0	230	101300000	1000	0	0	-1	1500
25283675	94	717	0	-100	0	230	101300000	1000	0	0	-1	1500
25296235	89	721	0	-100	0	230	101300000	1000	0	0	-1	1500
25308795	97	722	0	-100	0	230	101300000	1000	0	0	-1	1500
25321355	92	721	0	-100	0	230	101300000	1000	0	0	-1	1500
25333915	99	718	0	-100	0	230	101300000	1000	0	0	-1	1500
25346475	92	721	0	-100	0	230	101300000	1000	0	0	-1	1500
25359035	97	715	0	-100	0	230	101300000	1000	0	0	-1	1500
25371595	92	723	0	-100	0	230	101300000	1000	0	0	-1	1500
25384155	96	717	0	-100	0	230	101300000	1000	0	0	-1	1500
25396715	92	720	0	-100	0	230	101300000	1000	0	0	-1	1500
25409275	94	719	0	-100	0	230	101300000	1000	0	0	-1	1500
25421835	89	718	0	-100	0	230	101300000	1000	0	0	-1	1500
25434395	89	721	0	-100	0	230	101300000	1000	0	0	-1	1500
25446955	94	722	0	-100	0	230	101300000	1000	0	0	-1	1500
25459515	89	720	0	-100	0	230	101300000	1000	0	0	-1	1500
25472075	94	720	0	-100	0	230	101300000	1000	0	0	-1	1500
25484635	92	720	0	-100	0	230	101300000	1000	0	0	-1	1500
25497195	89	719	0	-100	0	230	101300000	1000	0	0	-1	1500
25509755	97	721	0	-100	0	230	101300000	1000	0	0	-1	1500
25522315	92	720	0	-100	0	230	101300000	1000	0	0	-1	1500
25534875	99	719	0	-100	0	230	101300000	1000	0	0	-1	1500
25547435	92	723	0	-100	0	230	101300000	1000	0	0	-1	1500
25559995	89	722	0	-100	0	230	101300000	1000	0	0	-1	1500
25572555	94	717	0	-100	0	230	101300000	1000	0	0	-1	1500
25585115	89	719	0	-100	0	230	101300000	1000	0	0	-1	1500
25597675	96	718	0	-100	0	230	101300000	1000	0	0	-1	1500
25610235	92	719	0	-100	0	230	101300000	1000	0	0	-1	1500
25622795	96	715	0	-100	0	230	101300000	1000	0	0	-1	1500
25635355	87	720	0	-100	0	230	101300000	1000	0	0	-1	1500
25647915	89	718	0	-100	0	230	101300000	1000	0	0	-1	1500
25660475	96	717	0	-100	0	230	101300000	1000	0	0	-1	1500
25673035	89	720	0	-100	0	230	101300000	1000	0	0	-1	1500
25685595	99	717	0	-100	0	230	101300000	1000	0	0	-1	1500
25698155	89	725	0	-100	0	230	101300000	1000	0	0	-1	1500
25710715	97	720	0	-100	0	230	101300000	1000	0	0	-1	1500
25723275	89	718	0	-100	0	230	101300000	1000	0	0	-1	1500
25735835	96	719	0	-100	0	230	101300000	1000	0	0	-1	1500
25748395	92	720	0	-100	0	230	101300000	1000	0	0	-1	1500
25760955	89	719	0	-100	0	230	101300000	1000	0	0	-1	1500
25773515	89	720	0	-100	0	230	101300000	1000	0	0	-1	1500
25786075	94	718	0	-100	0	230	101300000	1000	0	0	-1	1500
25798635	89	721	0	-100	0	230	101300000	1000	0	0	-1	1500
25811195	94	718	0	-100	0	230	101300000	1000	0	0	-1	1500
25823755	92	723	0	-100	0	230	101300000	1000	0	0	-1	1500
25836315	89	719	0	-100	0	230	101300000	1000	0	0	-1	1500
25848875	92	721	0	-100	0	230	101300000	1000	0	0	-1	1500
25861435	89	718	0	-100	0	230	101300000	1000	0	0	-1	1500
25873995	89	718	0	-100	0	230	101300000	1000	0	0	-1	1500
25886555	94	718	0	-100	0	230	101300000	1000	0	0	-1	1500
25899115	89	719	0	-100	0	230	101300000	1000	0	0	-1	1500
25911675	94	719	0	-100	0	230	101300000	1000	0	0	-1	1500
25924235	89	725	0	-100	0	230	101300000	1000	0	0	-1	1500
25936795	89	721	0	-100	0	230	101300000	1000	0	0	-1	1500
25949355	92	719	0	-100	0	230	101300000	1000	0	0	-1	1500
25961915	87	718	0	-100	0	230	101300000	1000	0	0	-1	1500
25974475	94	714	0	-100	0	230	101300000	1000	0	0	-1	1500
25987035	89	721	0	-100	0	230	101300000	1000	0	0	-1	1500
25999595	96	719	0	-100	0	230	101300000	1000	0	0	-1	1500
26012155	92	722	0	-100	0	230	101300000	1000	0	0	-1	1500
26024715	99	720	0	-100	0	230	101300000	1000	0	0	-1	1500
26037275	89	721	0	-100	0	230	101300000	1000	0	0	-1	1500
26049835	92	716	0	-100	0	230	101300000	1000	0	0	-1	1500
26062395	89	716	0	-100	0	230	101300000	1000	0	0	-1	1500
26074955	94	721	0	-100	0	230	101300000	1000	0	0	-1	1500
26087515	92	718	0	-100	0	230	101300000	1000	0	0	-1	1500
26100075	89	720	0	-100	0	230	101300000	1000	0	0	-1	1500
26112635	97	717	0	-100	0	230	101300000	1000	0	0	-1	1500
26125195	94	717	0	-100	0	230	101300000	1000	0	0	-1	1500
26137755	89	718	0	-100	0	230	101300000	1000	0	0	-1	1500
26150315	96	717	0	-100	0	230	101300000	1000	0	0	-1	1500
26162875	89	720	0	-100	0	230	101300000	1000	0	0	-1	1500
26175435	99	720	0	-100	0	230	101300000	1000	0	0	-1	1500
26187995	89	719	0	-100	0	230	101300000	1000	0	0	-1	1500
26200555	97	720	0	-100	0	230	101300000	1000	0	0	-1	1500
26213115	92	723	0	-100	0	230	101300000	1000	0	0	-1	1500
26225675	97	719	0	-100	0	230	101300000	1000	0	0	-1	1500
26238235	92	721	0	-100	0	230	101300000	1000	0	0	-1	1500
26250795	92	720	0	-100	0	230	101300000	1000	0	0	-1	1500
26263355	97	734	0	-100	0	230	101300000	1000	0	0	-1	1500
26275915	89	720	0	-100	0	230	101300000	1000	0	0	-1	1500
26288475	94	719	0	-100	0	230	101300000	1000	0	0	-1	1500
26301035	97	718	0	-100	0	230	101300000	1000	0	0	-1	1500
26313595	94	718	0	-100	0	230	101300000	1000	0	0	-1	1500
26326155	89	720	0	-100	0	230	101300000	1000	0	0	-1	1500
26338715	92	719	0	-100	0	230	101300000	1000	0	0	-1	1500
26351275	94	718	0	-100	0	230	101300000	1000	0	0	-1	1500
26363835	97	717	0	-100	0	230	101300000	1000	0	0	-1	1500
26376395	97	723	0	-100	0	230	101300000	1000	0	0	-1	1500
26388955	89	721	0	-100	0	230	101300000	1000	0	0	-1	1500
26401515	87	723	0	-100	0	230	101300000	1000	0	0	-1	1500
26414075	89	721	0	-100	0	230	101300000	1000	0	0	-1	1500
26426635	99	717	0	-100	0	230	101300000	1000	0	0	-1	1500
26439195	87	719	0	-100	0	230	101300000	1000	0	0	-1	1500
26451755	92	722	0	-100	0	230	101300000	1000	0	0	-1	1500
26464315	94	718	0	-100	0	230	101300000	1000	0	0	-1	1500
26476875	96	719	0	-100	0	230	101300000	1000	0	0	-1	1500
26489435	87	719	0	-100	0	230	101300000	1000	0	0	-1	1500
26501995	89	718	0	-100	0	230	101300000	1000	0	0	-1	1500
26514555	89	721	0	-100	0	230	101300000	1000	0	0	-1	1500
26527115	94	719	0	-100	0	230	101300000	1000	0	0	-1	1500
26539675	97	723	0	-100	0	230	101300000	1000	0	0	-1	1500
26552235	87	723	0	-100	0	230	101300000	1000	0	0	-1	1500
26564795	89	720	0	-100	0	230	101300000	1000	0	0	-1	1500
26577355	96	722	0	-100	0	230	101300000	1000	0	0	-1	1500
26589915	97	717	0	-100	0	230	101300000	1000	0	0	-1	1500
26602475	89	719	0	-100	0	230	101300000	1000	0	0	-1	1500
26615035	89	722	0	-100	0	230	101300000	1000	0	0	-1	1500
26627595	94	715	0	-100	0	230	101300000	1000	0	0	-1	1500
26640155	97	719	0	-100	0	230	101300000	1000	0	0	-1	1500
26652715	97	722	0	-100	0	230	101300000	1000	0	0	-1	1500
26665275	89	721	0	-100	0	230	101300000	1000	0	0	-1	1500
26677835	89	723	0	-100	0	230	101300000	1000	0	0	-1	1500
26690395	94	720	0	-100	0	230	101300000	1000	0	0	-1	1500
26702955	99	715	0	-100	0	230	101300000	1000	0	0	-1	1500
26715515	92	716	0	-100	0	230	101300000	1000	0	0	-1	1500
26728075	89	721	0	-100	0	230	101300000	1000	0	0	-1	1500
26740635	89	721	0	-100	0	230	101300000	1000	0	0	-1	1500
26753195	97	722	0	-100	0	230	101300000	1000	0	0	-1	1500
26765755	89	721	0	-100	0	230	101300000	1000	0	0	-1	1500
26778315	89	718	0	-100	0	230	101300000	1000	0	0	-1	1500
26790875	96	717	0	-100	0	230	101300000	1000	0	0	-1	1500
26803435	89	719	0	-100	0	230	101300000	1000	0	0	-1	1500
26815995	89	721	0	-100	0	230	101300000	1000	0	0	-1	1500
26828555	97	721	0	-100	0	230	101300000	1000	0	0	-1	1500
26841115	92	721	0	-100	0	230	101300000	1000	0	0	-1	1500
26853675	97	719	0	-100	0	230	101300000	1000	0	0	-1	1500
26866235	94	718	0	-100	0	230	101300000	1000	0	0	-1	1500
26878795	89	721	0	-100	0	230	101300000	1000	0	0	-1	1500
26891355	89	720	0	-100	0	230	101300000	1000	0	0	-1	1500
26903915	99	717	0	-100	0	230	101300000	1000	0	0	-1	1500
26916475	92	719	0	-100	0	230	101300000	1000	0	0	-1	1500
26929035	89	720	0	-100	0	230	101300000	1000	0	0	-1	1500
26941595	94	719	0	-100	0	230	101300000	1000	0	0	-1	1500
26954155	92	718	0	-100	0	230	101300000	1000	0	0	-1	1500
26966715	92	721	0	-100	0	230	101300000	1000	0	0	-1	1500
26979275	92	717	0	-100	0	230	101300000	1000	0	0	-1	1500
26991835	97	719	0	-100	0	230	101300000	1000	0	0	-1	1500
27004395	94	720	0	-100	0	230	101300000	1000	0	0	-1	1500
27016955	94	718	0	-100	0	230	101300000	1000	0	0	-1	1500
27029515	89	718	0	-100	0	230	101300000	1000	0	0	-1	1500
27042075	92	721	0	-100	0	230	101300000	1000	0	0	-1	1500
