timestamp	voltage	current	windSpeed	pitchAngle	rpm	temperature	ambientPressure	humidity	accelerationX	accelerationY	accelerationZ	currentSink
7035070	4014	0	0	-100	0	230	101300000	1000	0	0	-1	0
7042523	4017	0	0	-100	0	230	101300000	1000	0	0	-1	0
7055083	4011	4	0	-100	0	230	101300000	1000	0	0	-1	0
7067643	4014	0	0	-100	0	230	101300000	1000	0	0	-1	0
7080203	4015	0	0	-100	0	230	101300000	1000	0	0	-1	0
7092763	4011	0	0	-100	0	230	101300000	1000	0	0	-1	0
7105323	4008	2	0	-100	0	230	101300000	1000	0	0	-1	0
7117883	4015	0	0	-100	0	230	101300000	1000	0	0	-1	0
7130443	4011	0	0	-100	0	230	101300000	1000	0	0	-1	0
7143004	4013	0	0	-100	0	230	101300000	1000	0	0	-1	0
7155563	4014	0	0	-100	0	230	101300000	1000	0	0	-1	0
7168123	4015	0	0	-100	0	230	101300000	1000	0	0	-1	0
7180683	4009	0	0	-100	0	230	101300000	1000	0	0	-1	0
7193243	4011	0	0	-100	0	230	101300000	1000	0	0	-1	0
7205803	4015	0	0	-100	0	230	101300000	1000	0	0	-1	0
7218363	4009	0	0	-100	0	230	101300000	1000	0	0	-1	0
7230923	4008	4	0	-100	0	230	101300000	1000	0	0	-1	0
7243483	4018	0	0	-100	0	230	101300000	1000	0	0	-1	0
7256043	4011	0	0	-100	0	230	101300000	1000	0	0	-1	0
7268603	4011	2	0	-100	0	230	101300000	1000	0	0	-1	0
7281163	4012	0	0	-100	0	230	101300000	1000	0	0	-1	0
7293723	4006	0	0	-100	0	230	101300000	1000	0	0	-1	0
7306283	4012	0	0	-100	0	230	101300000	1000	0	0	-1	0
7318843	4013	0	0	-100	0	230	101300000	1000	0	0	-1	0
7331403	4009	4	0	-100	0	230	101300000	1000	0	0	-1	0
7343963	4016	0	0	-100	0	230	101300000	1000	0	0	-1	0
7674555	109	820	0	-100	0	230	101300000	1000	0	0	-1	1500
7687115	106	827	0	-100	0	230	101300000	1000	0	0	-1	1500
7699675	111	825	0	-100	0	230	101300000	1000	0	0	-1	1500
7712235	109	820	0	-100	0	230	101300000	1000	0	0	-1	1500
7724795	104	822	0	-100	0	230	101300000	1000	0	0	-1	1500
7737355	109	822	0	-100	0	230	101300000	1000	0	0	-1	1500
7749915	106	821	0	-100	0	230	101300000	1000	0	0	-1	1500
7762475	106	823	0	-100	0	230	101300000	1000	0	0	-1	1500
7775035	101	834	0	-100	0	230	101300000	1000	0	0	-1	1500
7787595	104	820	0	-100	0	230	101300000	1000	0	0	-1	1500
7800155	109	826	0	-100	0	230	101300000	1000	0	0	-1	1500
7812715	111	825	0	-100	0	230	101300000	1000	0	0	-1	1500
7825275	106	819	0	-100	0	230	101300000	1000	0	0	-1	1500
7837835	104	826	0	-100	0	230	101300000	1000	0	0	-1	1500
7850395	106	819	0	-100	0	230	101300000	1000	0	0	-1	1500
7862955	106	821	0	-100	0	230	101300000	1000	0	0	-1	1500
7875515	106	824	0	-100	0	230	101300000	1000	0	0	-1	1500
7888075	111	820	0	-100	0	230	101300000	1000	0	0	-1	1500
7900635	101	828	0	-100	0	230	101300000	1000	0	0	-1	1500
7913195	104	823	0	-100	0	230	101300000	1000	0	0	-1	1500
7925755	111	821	0	-100	0	230	101300000	1000	0	0	-1	1500
7938315	104	825	0	-100	0	230	101300000	1000	0	0	-1	1500
7950875	109	823	0	-100	0	230	101300000	1000	0	0	-1	1500
7963435	104	819	0	-100	0	230	101300000	1000	0	0	-1	1500
7975995	104	829	0	-100	0	230	101300000	1000	0	0	-1	1500
7988555	109	819	0	-100	0	230	101300000	1000	0	0	-1	1500
8001115	104	825	0	-100	0	230	101300000	1000	0	0	-1	1500
8013675	106	820	0	-100	0	230	101300000	1000	0	0	-1	1500
8026235	109	826	0	-100	0	230	101300000	1000	0	0	-1	1500
8038795	101	822	0	-100	0	230	101300000	1000	0	0	-1	1500
8051355	101	823	0	-100	0	230	101300000	1000	0	0	-1	1500
8063915	114	823	0	-100	0	230	101300000	1000	0	0	-1	1500
8076475	111	821	0	-100	0	230	101300000	1000	0	0	-1	1500
8089035	104	823	0	-100	0	230	101300000	1000	0	0	-1	1500
8101595	104	823	0	-100	0	230	101300000	1000	0	0	-1	1500
8114155	109	824	0	-100	0	230	101300000	1000	0	0	-1	1500
8126715	113	821	0	-100	0	230	101300000	1000	0	0	-1	1500
8139275	104	825	0	-100	0	230	101300000	1000	0	0	-1	1500
8151835	109	819	0	-100	0	230	101300000	1000	0	0	-1	1500
8164395	111	821	0	-100	0	230	101300000	1000	0	0	-1	1500
8176955	106	826	0	-100	0	230	101300000	1000	0	0	-1	1500
8189515	109	820	0	-100	0	230	101300000	1000	0	0	-1	1500
8202075	111	821	0	-100	0	230	101300000	1000	0	0	-1	1500
8214635	106	821	0	-100	0	230	101300000	1000	0	0	-1	1500
8227195	106	823	0	-100	0	230	101300000	1000	0	0	-1	1500
8239755	111	819	0	-100	0	230	101300000	1000	0	0	-1	1500
8252315	111	822	0	-100	0	230	101300000	1000	0	0	-1	1500
8264875	104	824	0	-100	0	230	101300000	1000	0	0	-1	1500
8277435	104	820	0	-100	0	230	101300000	1000	0	0	-1	1500
8289995	111	822	0	-100	0	230	101300000	1000	0	0	-1	1500
8302555	104	828	0	-100	0	230	101300000	1000	0	0	-1	1500
8315115	104	823	0	-100	0	230	101300000	1000	0	0	-1	1500
8327675	109	821	0	-100	0	230	101300000	1000	0	0	-1	1500
8340235	111	822	0	-100	0	230	101300000	1000	0	0	-1	1500
8352795	106	819	0	-100	0	230	101300000	1000	0	0	-1	1500
8365355	101	824	0	-100	0	230	101300000	1000	0	0	-1	1500
8377915	113	822	0	-100	0	230	101300000	1000	0	0	-1	1500
8390475	111	818	0	-100	0	230	101300000	1000	0	0	-1	1500
8403035	111	820	0	-100	0	230	101300000	1000	0	0	-1	1500
8415595	113	819	0	-100	0	230	101300000	1000	0	0	-1	1500
8428155	106	822	0	-100	0	230	101300000	1000	0	0	-1	1500
8440715	109	820	0	-100	0	230	101300000	1000	0	0	-1	1500
8453275	109	821	0	-100	0	230	101300000	1000	0	0	-1	1500
8465835	111	821	0	-100	0	230	101300000	1000	0	0	-1	1500
8478395	111	822	0	-100	0	230	101300000	1000	0	0	-1	1500
8490955	114	822	0	-100	0	230	101300000	1000	0	0	-1	1500
8503515	109	817	0	-100	0	230	101300000	1000	0	0	-1	1500
8516075	104	825	0	-100	0	230	101300000	1000	0	0	-1	1500
8528635	101	825	0	-100	0	230	101300000	1000	0	0	-1	1500
8541195	106	826	0	-100	0	230	101300000	1000	0	0	-1	1500
8553755	104	823	0	-100	0	230	101300000	1000	0	0	-1	1500
8566315	109	822	0	-100	0	230	101300000	1000	0	0	-1	1500
8578875	109	820	0	-100	0	230	101300000	1000	0	0	-1	1500
8591435	111	823	0	-100	0	230	101300000	1000	0	0	-1	1500
8603995	109	823	0	-100	0	230	101300000	1000	0	0	-1	1500
8616555	104	824	0	-100	0	230	101300000	1000	0	0	-1	1500
8629115	104	825	0	-100	0	230	101300000	1000	0	0	-1	1500
8641675	101	827	0	-100	0	230	101300000	1000	0	0	-1	1500
8654235	106	824	0	-100	0	230	101300000	1000	0	0	-1	1500
8666795	109	820	0	-100	0	230	101300000	1000	0	0	-1	1500
8679355	104	823	0	-100	0	230	101300000	1000	0	0	-1	1500
8691915	106	821	0	-100	0	230	101300000	1000	0	0	-1	1500
8704475	111	820	0	-100	0	230	101300000	1000	0	0	-1	1500
8717035	109	823	0	-100	0	230	101300000	1000	0	0	-1	1500
8729595	111	820	0	-100	0	230	101300000	1000	0	0	-1	1500
8742155	104	824	0	-100	0	230	101300000	1000	0	0	-1	1500
8754715	104	822	0	-100	0	230	101300000	1000	0	0	-1	1500
8767275	106	825	0	-100	0	230	101300000	1000	0	0	-1	1500
8779835	101	819	0	-100	0	230	101300000	1000	0	0	-1	1500
8792395	101	824	0	-100	0	230	101300000	1000	0	0	-1	1500
8804955	106	827	0	-100	0	230	101300000	1000	0	0	-1	1500
8817515	104	825	0	-100	0	230	101300000	1000	0	0	-1	1500
8830075	104	822	0	-100	0	230	101300000	1000	0	0	-1	1500
8842635	111	823	0	-100	0	230	101300000	1000	0	0	-1	1500
8855195	111	820	0	-100	0	230	101300000	1000	0	0	-1	1500
8867755	106	821	0	-100	0	230	101300000	1000	0	0	-1	1500
8880315	104	823	0	-100	0	230	101300000	1000	0	0	-1	1500
8892875	104	822	0	-100	0	230	101300000	1000	0	0	-1	1500
8905435	104	826	0	-100	0	230	101300000	1000	0	0	-1	1500
8917995	104	819	0	-100	0	230	101300000	1000	0	0	-1	1500
8930555	104	823	0	-100	0	230	101300000	1000	0	0	-1	1500
8943115	111	820	0	-100	0	230	101300000	1000	0	0	-1	1500
8955675	111	824	0	-100	0	230	101300000	1000	0	0	-1	1500
8968235	104	823	0	-100	0	230	101300000	1000	0	0	-1	1500
8980795	101	825	0	-100	0	230	101300000	1000	0	0	-1	1500
8993355	106	822	0	-100	0	230	101300000	1000	0	0	-1	1500
9005915	104	823	0	-100	0	230	101300000	1000	0	0	-1	1500
9018475	111	818	0	-100	0	230	101300000	1000	0	0	-1	1500
9031035	101	822	0	-100	0	230	101300000	1000	0	0	-1	1500
9043595	106	822	0	-100	0	230	101300000	1000	0	0	-1	1500
9056155	109	819	0	-100	0	230	101300000	1000	0	0	-1	1500
9068715	114	825	0	-100	0	230	101300000	1000	0	0	-1	1500
9081275	104	822	0	-100	0	230	101300000	1000	0	0	-1	1500
9093835	101	822	0	-100	0	230	101300000	1000	0	0	-1	1500
9106395	104	824	0	-100	0	230	101300000	1000	0	0	-1	1500
9118955	101	824	0	-100	0	230	101300000	1000	0	0	-1	1500
9131515	106	826	0	-100	0	230	101300000	1000	0	0	-1	1500
9144075	109	823	0	-100	0	230	101300000	1000	0	0	-1	1500
9156635	104	825	0	-100	0	230	101300000	1000	0	0	-1	1500
9169195	104	823	0	-100	0	230	101300000	1000	0	0	-1	1500
9181755	101	825	0	-100	0	230	101300000	1000	0	0	-1	1500
9194315	104	823	0	-100	0	230	101300000	1000	0	0	-1	1500
9206875	106	822	0	-100	0	230	101300000	1000	0	0	-1	1500
9219435	109	820	0	-100	0	230	101300000	1000	0	0	-1	1500
9231995	111	824	0	-100	0	230	101300000	1000	0	0	-1	1500
9244555	109	821	0	-100	0	230	101300000	1000	0	0	-1	1500
9257115	101	824	0	-100	0	230	101300000	1000	0	0	-1	1500
9269675	106	823	0	-100	0	230	101300000	1000	0	0	-1	1500
9282235	104	824	0	-100	0	230	101300000	1000	0	0	-1	1500
9294795	106	821	0	-100	0	230	101300000	1000	0	0	-1	1500
9307355	111	820	0	-100	0	230	101300000	1000	0	0	-1	1500
9319915	104	826	0	-100	0	230	101300000	1000	0	0	-1	1500
9332475	104	821	0	-100	0	230	101300000	1000	0	0	-1	1500
9345035	111	821	0	-100	0	230	101300000	1000	0	0	-1	1500
9357595	104	824	0	-100	0	230	101300000	1000	0	0	-1	1500
9370155	101	825	0	-100	0	230	101300000	1000	0	0	-1	1500
9382715	111	825	0	-100	0	230	101300000	1000	0	0	-1	1500
9395275	104	823	0	-100	0	230	101300000	1000	0	0	-1	1500
9407835	101	822	0	-100	0	230	101300000	1000	0	0	-1	1500
9420395	104	822	0	-100	0	230	101300000	1000	0	0	-1	1500
9432955	104	820	0	-100	0	230	101300000	1000	0	0	-1	1500
9445515	111	816	0	-100	0	230	101300000	1000	0	0	-1	1500
9458075	106	821	0	-100	0	230	101300000	1000	0	0	-1	1500
9470635	104	822	0	-100	0	230	101300000	1000	0	0	-1	1500
9483195	101	823	0	-100	0	230	101300000	1000	0	0	-1	1500
9495755	106	823	0	-100	0	230	101300000	1000	0	0	-1	1500
9508315	104	819	0	-100	0	230	101300000	1000	0	0	-1	1500
9520875	106	820	0	-100	0	230	101300000	1000	0	0	-1	1500
9533435	106	821	0	-100	0	230	101300000	1000	0	0	-1	1500
9545995	109	824	0	-100	0	230	101300000	1000	0	0	-1	1500
9558555	111	820	0	-100	0	230	101300000	1000	0	0	-1	1500
9571115	109	820	0	-100	0	230	101300000	1000	0	0	-1	1500
9583675	109	822	0	-100	0	230	101300000	1000	0	0	-1	1500
9596235	111	822	0	-100	0	230	101300000	1000	0	0	-1	1500
9608795	109	820	0	-100	0	230	101300000	1000	0	0	-1	1500
9621355	111	819	0	-100	0	230	101300000	1000	0	0	-1	1500
9633915	111	823	0	-100	0	230	101300000	1000	0	0	-1	1500
9646475	111	822	0	-100	0	230	101300000	1000	0	0	-1	1500
9659035	111	821	0	-100	0	230	101300000	1000	0	0	-1	1500
9671595	111	820	0	-100	0	230	101300000	1000	0	0	-1	1500
9684155	106	821	0	-100	0	230	101300000	1000	0	0	-1	1500
9696715	109	820	0	-100	0	230	101300000	1000	0	0	-1	1500
9709275	111	823	0	-100	0	230	101300000	1000	0	0	-1	1500
9721835	111	819	0	-100	0	230	101300000	1000	0	0	-1	1500
9734395	111	822	0	-100	0	230	101300000	1000	0	0	-1	1500
9746955	111	822	0	-100	0	230	101300000	1000	0	0	-1	1500
9759515	111	823	0	-100	0	230	101300000	1000	0	0	-1	1500
9772075	106	823	0	-100	0	230	101300000	1000	0	0	-1	1500
9784635	111	825	0	-100	0	230	101300000	1000	0	0	-1	1500
9797195	109	819	0	-100	0	230	101300000	1000	0	0	-1	1500
9809755	113	818	0	-100	0	230	101300000	1000	0	0	-1	1500
9822315	111	826	0	-100	0	230	101300000	1000	0	0	-1	1500
9834875	106	819	0	-100	0	230	101300000	1000	0	0	-1	1500
9847435	106	824	0	-100	0	230	101300000	1000	0	0	-1	1500
9859995	104	827	0	-100	0	230	101300000	1000	0	0	-1	1500
9872555	104	826	0	-100	0	230	101300000	1000	0	0	-1	1500
9885115	104	822	0	-100	0	230	101300000	1000	0	0	-1	1500
9897675	106	826	0	-100	0	230	101300000	1000	0	0	-1	1500
9910235	104	826	0	-100	0	230	101300000	1000	0	0	-1	1500
9922795	104	825	0	-100	0	230	101300000	1000	0	0	-1	1500
9935355	104	826	0	-100	0	230	101300000	1000	0	0	-1	1500
9947915	104	824	0	-100	0	230	101300000	1000	0	0	-1	1500
9960475	104	822	0	-100	0	230	101300000	1000	0	0	-1	1500
9973035	101	823	0	-100	0	230	101300000	1000	0	0	-1	1500
9985595	104	822	0	-100	0	230	101300000	1000	0	0	-1	1500
9998155	101	824	0	-100	0	230	101300000	1000	0	0	-1	1500
10010715	101	825	0	-100	0	230	101300000	1000	0	0	-1	1500
10023275	101	824	0	-100	0	230	101300000	1000	0	0	-1	1500
10035835	106	820	0	-100	0	230	101300000	1000	0	0	-1	1500
10048395	104	820	0	-100	0	230	101300000	1000	0	0	-1	1500
10060955	104	835	0	-100	0	230	101300000	1000	0	0	-1	1500
10073515	106	821	0	-100	0	230	101300000	1000	0	0	-1	1500
10086075	104	822	0	-100	0	230	101300000	1000	0	0	-1	1500
10098635	104	824	0	-100	0	230	101300000	1000	0	0	-1	1500
10111195	104	819	0	-100	0	230	101300000	1000	0	0	-1	1500
10123755	104	820	0	-100	0	230	101300000	1000	0	0	-1	1500
10136315	106	823	0	-100	0	230	101300000	1000	0	0	-1	1500
10148875	106	826	0	-100	0	230	101300000	1000	0	0	-1	1500
10161435	106	835	0	-100	0	230	101300000	1000	0	0	-1	1500
10173995	104	822	0	-100	0	230	101300000	1000	0	0	-1	1500
10186555	106	827	0	-100	0	230	101300000	1000	0	0	-1	1500
10199115	104	824	0	-100	0	230	101300000	1000	0	0	-1	1500
10211675	106	829	0	-100	0	230	101300000	1000	0	0	-1	1500
10224235	101	823	0	-100	0	230	101300000	1000	0	0	-1	1500
10236795	101	823	0	-100	0	230	101300000	1000	0	0	-1	1500
10249355	106	825	0	-100	0	230	101300000	1000	0	0	-1	1500
10261915	104	822	0	-100	0	230	101300000	1000	0	0	-1	1500
10274475	104	822	0	-100	0	230	101300000	1000	0	0	-1	1500
10287035	101	824	0	-100	0	230	101300000	1000	0	0	-1	1500
10299595	101	823	0	-100	0	230	101300000	1000	0	0	-1	1500
10312155	101	823	0	-100	0	230	101300000	1000	0	0	-1	1500
10324715	101	825	0	-100	0	230	101300000	1000	0	0	-1	1500
10337275	104	824	0	-100	0	230	101300000	1000	0	0	-1	1500
10349835	101	824	0	-100	0	230	101300000	1000	0	0	-1	1500
10362395	104	822	0	-100	0	230	101300000	1000	0	0	-1	1500
10374955	101	822	0	-100	0	230	101300000	1000	0	0	-1	1500
10387515	106	823	0	-100	0	230	101300000	1000	0	0	-1	1500
10400075	106	819	0	-100	0	230	101300000	1000	0	0	-1	1500
10412635	104	824	0	-100	0	230	101300000	1000	0	0	-1	1500
10425195	104	823	0	-100	0	230	101300000	1000	0	0	-1	1500
10437755	104	822	0	-100	0	230	101300000	1000	0	0	-1	1500
10450315	104	826	0	-100	0	230	101300000	1000	0	0	-1	1500
10462875	104	823	0	-100	0	230	101300000	1000	0	0	-1	1500
10475435	106	821	0	-100	0	230	101300000	1000	0	0	-1	1500
10487995	104	821	0	-100	0	230	101300000	1000	0	0	-1	1500
10500555	104	826	0	-100	0	230	101300000	1000	0	0	-1	1500
10513115	104	825	0	-100	0	230	101300000	1000	0	0	-1	1500
10525675	106	825	0	-100	0	230	101300000	1000	0	0	-1	1500
10538235	101	823	0	-100	0	230	101300000	1000	0	0	-1	1500
10550795	101	826	0	-100	0	230	101300000	1000	0	0	-1	1500
10563355	106	826	0	-100	0	230	101300000	1000	0	0	-1	1500
10575915	101	838	0	-100	0	230	101300000	1000	0	0	-1	1500
10588475	104	826	0	-100	0	230	101300000	1000	0	0	-1	1500
10601035	104	821	0	-100	0	230	101300000	1000	0	0	-1	1500
10613595	106	825	0	-100	0	230	101300000	1000	0	0	-1	1500
10626155	106	817	0	-100	0	230	101300000	1000	0	0	-1	1500
10638715	109	819	0	-100	0	230	101300000	1000	0	0	-1	1500
10651275	109	823	0	-100	0	230	101300000	1000	0	0	-1	1500
10663835	111	817	0	-100	0	230	101300000	1000	0	0	-1	1500
10676395	111	824	0	-100	0	230	101300000	1000	0	0	-1	1500
10688955	111	826	0	-100	0	230	101300000	1000	0	0	-1	1500
10701515	111	824	0	-100	0	230	101300000	1000	0	0	-1	1500
10714075	109	823	0	-100	0	230	101300000	1000	0	0	-1	1500
10726635	111	821	0	-100	0	230	101300000	1000	0	0	-1	1500
10739195	111	816	0	-100	0	230	101300000	1000	0	0	-1	1500
10751755	109	821	0	-100	0	230	101300000	1000	0	0	-1	1500
10764315	109	821	0	-100	0	230	101300000	1000	0	0	-1	1500
10776875	106	822	0	-100	0	230	101300000	1000	0	0	-1	1500
10789435	104	823	0	-100	0	230	101300000	1000	0	0	-1	1500
10801995	104	822	0	-100	0	230	101300000	1000	0	0	-1	1500
10814555	101	828	0	-100	0	230	101300000	1000	0	0	-1	1500
10827115	106	821	0	-100	0	230	101300000	1000	0	0	-1	1500
10839675	106	822	0	-100	0	230	101300000	1000	0	0	-1	1500
10852235	106	823	0	-100	0	230	101300000	1000	0	0	-1	1500
10864795	106	823	0	-100	0	230	101300000	1000	0	0	-1	1500
10877355	104	825	0	-100	0	230	101300000	1000	0	0	-1	1500
10889915	101	837	0	-100	0	230	101300000	1000	0	0	-1	1500
10902475	101	825	0	-100	0	230	101300000	1000	0	0	-1	1500
10915035	104	820	0	-100	0	230	101300000	1000	0	0	-1	1500
10927595	106	818	0	-100	0	230	101300000	1000	0	0	-1	1500
10940155	109	824	0	-100	0	230	101300000	1000	0	0	-1	1500
10952715	111	816	0	-100	0	230	101300000	1000	0	0	-1	1500
10965275	111	822	0	-100	0	230	101300000	1000	0	0	-1	1500
10977835	109	821	0	-100	0	230	101300000	1000	0	0	-1	1500
10990395	109	819	0	-100	0	230	101300000	1000	0	0	-1	1500
11002955	106	821	0	-100	0	230	101300000	1000	0	0	-1	1500
11015515	106	822	0	-100	0	230	101300000	1000	0	0	-1	1500
11028075	106	822	0	-100	0	230	101300000	1000	0	0	-1	1500
11040635	106	823	0	-100	0	230	101300000	1000	0	0	-1	1500
11053195	106	820	0	-100	0	230	101300000	1000	0	0	-1	1500
11065755	106	823	0	-100	0	230	101300000	1000	0	0	-1	1500
11078315	106	820	0	-100	0	230	101300000	1000	0	0	-1	1500
11090875	109	818	0	-100	0	230	101300000	1000	0	0	-1	1500
11103435	106	823	0	-100	0	230	101300000	1000	0	0	-1	1500
11115995	104	818	0	-100	0	230	101300000	1000	0	0	-1	1500
11128555	104	826	0	-100	0	230	101300000	1000	0	0	-1	1500
11141115	104	820	0	-100	0	230	101300000	1000	0	0	-1	1500
11153675	106	823	0	-100	0	230	101300000	1000	0	0	-1	1500
11166235	106	823	0	-100	0	230	101300000	1000	0	0	-1	1500
11178795	104	821	0	-100	0	230	101300000	1000	0	0	-1	1500
11191355	104	823	0	-100	0	230	101300000	1000	0	0	-1	1500
11203915	104	824	0	-100	0	230	101300000	1000	0	0	-1	1500
11216475	109	824	0	-100	0	230	101300000	1000	0	0	-1	1500
11229035	104	822	0	-100	0	230	101300000	1000	0	0	-1	1500
11241595	104	821	0	-100	0	230	101300000	1000	0	0	-1	1500
11254155	99	825	0	-100	0	230	101300000	1000	0	0	-1	1500
11266715	101	825	0	-100	0	230	101300000	1000	0	0	-1	1500
11279275	101	822	0	-100	0	230	101300000	1000	0	0	-1	1500
11291835	106	823	0	-100	0	230	101300000	1000	0	0	-1	1500
11304395	109	820	0	-100	0	230	101300000	1000	0	0	-1	1500
11316955	113	822	0	-100	0	230	101300000	1000	0	0	-1	1500
11329515	109	817	0	-100	0	230	101300000	1000	0	0	-1	1500
11342075	109	820	0	-100	0	230	101300000	1000	0	0	-1	1500
11354635	109	823	0	-100	0	230	101300000	1000	0	0	-1	1500
11367195	109	824	0	-100	0	230	101300000	1000	0	0	-1	1500
11379755	111	823	0	-100	0	230	101300000	1000	0	0	-1	1500
11392315	111	820	0	-100	0	230	101300000	1000	0	0	-1	1500
11404875	111	822	0	-100	0	230	101300000	1000	0	0	-1	1500
11417435	109	820	0	-100	0	230	101300000	1000	0	0	-1	1500
11429995	104	820	0	-100	0	230	101300000	1000	0	0	-1	1500
11442555	101	822	0	-100	0	230	101300000	1000	0	0	-1	1500
11455115	106	823	0	-100	0	230	101300000	1000	0	0	-1	1500
11467675	109	822	0	-100	0	230	101300000	1000	0	0	-1	1500
11480235	106	821	0	-100	0	230	101300000	1000	0	0	-1	1500
11492795	109	821	0	-100	0	230	101300000	1000	0	0	-1	1500
11505355	104	822	0	-100	0	230	101300000	1000	0	0	-1	1500
11517915	106	823	0	-100	0	230	101300000	1000	0	0	-1	1500
11530475	111	822	0	-100	0	230	101300000	1000	0	0	-1	1500
11543035	111	824	0	-100	0	230	101300000	1000	0	0	-1	1500
11555595	109	821	0	-100	0	230	101300000	1000	0	0	-1	1500
11568155	109	819	0	-100	0	230	101300000	1000	0	0	-1	1500
11580715	111	822	0	-100	0	230	101300000	1000	0	0	-1	1500
11593275	111	817	0	-100	0	230	101300000	1000	0	0	-1	1500
11605835	111	822	0	-100	0	230	101300000	1000	0	0	-1	1500
11618395	111	821	0	-100	0	230	101300000	1000	0	0	-1	1500
11630955	109	823	0	-100	0	230	101300000	1000	0	0	-1	1500
11643515	111	823	0	-100	0	230	101300000	1000	0	0	-1	1500
11656075	109	821	0	-100	0	230	101300000	1000	0	0	-1	1500
11668635	109	822	0	-100	0	230	101300000	1000	0	0	-1	1500
11681195	109	820	0	-100	0	230	101300000	1000	0	0	-1	1500
11693755	111	822	0	-100	0	230	101300000	1000	0	0	-1	1500
11706315	109	832	0	-100	0	230	101300000	1000	0	0	-1	1500
11718875	111	817	0	-100	0	230	101300000	1000	0	0	-1	1500
11731435	104	820	0	-100	0	230	101300000	1000	0	0	-1	1500
11743995	99	825	0	-100	0	230	101300000	1000	0	0	-1	1500
11756555	104	824	0	-100	0	230	101300000	1000	0	0	-1	1500
11769115	104	823	0	-100	0	230	101300000	1000	0	0	-1	1500
11781675	101	820	0	-100	0	230	101300000	1000	0	0	-1	1500
11794235	106	827	0	-100	0	230	101300000	1000	0	0	-1	1500
11806795	106	824	0	-100	0	230	101300000	1000	0	0	-1	1500
11819355	106	822	0	-100	0	230	101300000	1000	0	0	-1	1500
11831915	109	822	0	-100	0	230	101300000	1000	0	0	-1	1500
11844475	111	826	0	-100	0	230	101300000	1000	0	0	-1	1500
11857035	111	822	0	-100	0	230	101300000	1000	0	0	-1	1500
11869595	109	822	0	-100	0	230	101300000	1000	0	0	-1	1500
11882155	106	824	0	-100	0	230	101300000	1000	0	0	-1	1500
11894715	109	820	0	-100	0	230	101300000	1000	0	0	-1	1500
11907275	106	822	0	-100	0	230	101300000	1000	0	0	-1	1500
11919835	104	820	0	-100	0	230	101300000	1000	0	0	-1	1500
11932395	104	822	0	-100	0	230	101300000	1000	0	0	-1	1500
11944955	111	820	0	-100	0	230	101300000	1000	0	0	-1	1500
11957515	106	820	0	-100	0	230	101300000	1000	0	0	-1	1500
11970075	104	825	0	-100	0	230	101300000	1000	0	0	-1	1500
11982635	106	825	0	-100	0	230	101300000	1000	0	0	-1	1500
11995195	104	823	0	-100	0	230	101300000	1000	0	0	-1	1500
12007755	104	822	0	-100	0	230	101300000	1000	0	0	-1	1500
12020315	104	827	0	-100	0	230	101300000	1000	0	0	-1	1500
12032875	104	824	0	-100	0	230	101300000	1000	0	0	-1	1500
12045435	104	829	0	-100	0	230	101300000	1000	0	0	-1	1500
12057995	106	820	0	-100	0	230	101300000	1000	0	0	-1	1500
12070555	104	819	0	-100	0	230	101300000	1000	0	0	-1	1500
12083115	104	820	0	-100	0	230	101300000	1000	0	0	-1	1500
12095675	104	822	0	-100	0	230	101300000	1000	0	0	-1	1500
12108235	109	818	0	-100	0	230	101300000	1000	0	0	-1	1500
12120795	111	822	0	-100	0	230	101300000	1000	0	0	-1	1500
12133355	109	817	0	-100	0	230	101300000	1000	0	0	-1	1500
12145915	111	826	0	-100	0	230	101300000	1000	0	0	-1	1500
12158475	109	821	0	-100	0	230	101300000	1000	0	0	-1	1500
12171035	101	822	0	-100	0	230	101300000	1000	0	0	-1	1500
12183595	104	823	0	-100	0	230	101300000	1000	0	0	-1	1500
12196155	99	824	0	-100	0	230	101300000	1000	0	0	-1	1500
12208715	104	819	0	-100	0	230	101300000	1000	0	0	-1	1500
12221275	109	817	0	-100	0	230	101300000	1000	0	0	-1	1500
12233835	111	820	0	-100	0	230	101300000	1000	0	0	-1	1500
12246395	109	820	0	-100	0	230	101300000	1000	0	0	-1	1500
12258955	104	818	0	-100	0	230	101300000	1000	0	0	-1	1500
12271515	109	822	0	-100	0	230	101300000	1000	0	0	-1	1500
12284075	111	834	0	-100	0	230	101300000	1000	0	0	-1	1500
12296635	109	815	0	-100	0	230	101300000	1000	0	0	-1	1500
12309195	109	820	0	-100	0	230	101300000	1000	0	0	-1	1500
12321755	111	823	0	-100	0	230	101300000	1000	0	0	-1	1500
12334315	109	826	0	-100	0	230	101300000	1000	0	0	-1	1500
12346875	111	823	0	-100	0	230	101300000	1000	0	0	-1	1500
12359435	111	820	0	-100	0	230	101300000	1000	0	0	-1	1500
12371995	111	825	0	-100	0	230	101300000	1000	0	0	-1	1500
12384555	109	823	0	-100	0	230	101300000	1000	0	0	-1	1500
12397115	106	822	0	-100	0	230	101300000	1000	0	0	-1	1500
12409675	106	822	0	-100	0	230	101300000	1000	0	0	-1	1500
12422235	111	820	0	-100	0	230	101300000	1000	0	0	-1	1500
12434795	109	819	0	-100	0	230	101300000	1000	0	0	-1	1500
12447355	111	822	0	-100	0	230	101300000	1000	0	0	-1	1500
12459915	111	819	0	-100	0	230	101300000	1000	0	0	-1	1500
12472475	109	822	0	-100	0	230	101300000	1000	0	0	-1	1500
12485035	109	821	0	-100	0	230	101300000	1000	0	0	-1	1500
12497595	109	819	0	-100	0	230	101300000	1000	0	0	-1	1500
12510155	104	819	0	-100	0	230	101300000	1000	0	0	-1	1500
12522715	109	819	0	-100	0	230	101300000	1000	0	0	-1	1500
12535275	109	822	0	-100	0	230	101300000	1000	0	0	-1	1500
12547835	111	822	0	-100	0	230	101300000	1000	0	0	-1	1500
12560395	111	822	0	-100	0	230	101300000	1000	0	0	-1	1500
12572955	109	822	0	-100	0	230	101300000	1000	0	0	-1	1500
12585515	106	822	0	-100	0	230	101300000	1000	0	0	-1	1500
12598075	109	820	0	-100	0	230	101300000	1000	0	0	-1	1500
12610635	106	822	0	-100	0	230	101300000	1000	0	0	-1	1500
12623195	104	821	0	-100	0	230	101300000	1000	0	0	-1	1500
12635755	104	821	0	-100	0	230	101300000	1000	0	0	-1	1500
12648315	109	820	0	-100	0	230	101300000	1000	0	0	-1	1500
12660875	109	818	0	-100	0	230	101300000	1000	0	0	-1	1500
12673435	106	819	0	-100	0	230	101300000	1000	0	0	-1	1500
12685995	109	822	0	-100	0	230	101300000	1000	0	0	-1	1500
12698555	106	823	0	-100	0	230	101300000	1000	0	0	-1	1500
12711115	106	821	0	-100	0	230	101300000	1000	0	0	-1	1500
12723675	101	826	0	-100	0	230	101300000	1000	0	0	-1	1500
12736235	106	821	0	-100	0	230	101300000	1000	0	0	-1	1500
12748795	104	823	0	-100	0	230	101300000	1000	0	0	-1	1500
12761355	104	825	0	-100	0	230	101300000	1000	0	0	-1	1500
12773915	101	821	0	-100	0	230	101300000	1000	0	0	-1	1500
12786475	109	823	0	-100	0	230	101300000	1000	0	0	-1	1500
12799035	113	817	0	-100	0	230	101300000	1000	0	0	-1	1500
12811595	109	822	0	-100	0	230	101300000	1000	0	0	-1	1500
12824155	106	821	0	-100	0	230	101300000	1000	0	0	-1	1500
12836715	111	820	0	-100	0	230	101300000	1000	0	0	-1	1500
12849275	109	819	0	-100	0	230	101300000	1000	0	0	-1	1500
12861835	109	822	0	-100	0	230	101300000	1000	0	0	-1	1500
12874395	109	821	0	-100	0	230	101300000	1000	0	0	-1	1500
12886955	106	823	0	-100	0	230	101300000	1000	0	0	-1	1500
12899515	104	820	0	-100	0	230	101300000	1000	0	0	-1	1500
12912075	104	821	0	-100	0	230	101300000	1000	0	0	-1	1500
12924635	111	820	0	-100	0	230	101300000	1000	0	0	-1	1500
12937195	109	823	0	-100	0	230	101300000	1000	0	0	-1	1500
12949755	104	823	0	-100	0	230	101300000	1000	0	0	-1	1500
12962315	109	819	0	-100	0	230	101300000	1000	0	0	-1	1500
12974875	101	826	0	-100	0	230	101300000	1000	0	0	-1	1500
12987435	104	823	0	-100	0	230	101300000	1000	0	0	-1	1500
12999995	111	821	0	-100	0	230	101300000	1000	0	0	-1	1500
13012555	111	823	0	-100	0	230	101300000	1000	0	0	-1	1500
13025115	104	823	0	-100	0	230	101300000	1000	0	0	-1	1500
13037675	104	823	0	-100	0	230	101300000	1000	0	0	-1	1500
13050235	104	823	0	-100	0	230	101300000	1000	0	0	-1	1500
13062795	104	819	0	-100	0	230	101300000	1000	0	0	-1	1500
13075355	111	819	0	-100	0	230	101300000	1000	0	0	-1	1500
13087915	109	822	0	-100	0	230	101300000	1000	0	0	-1	1500
13100475	104	828	0	-100	0	230	101300000	1000	0	0	-1	1500
13113035	101	823	0	-100	0	230	101300000	1000	0	0	-1	1500
13125595	111	821	0	-100	0	230	101300000	1000	0	0	-1	1500
13138155	109	819	0	-100	0	230	101300000	1000	0	0	-1	1500
13150715	111	834	0	-100	0	230	101300000	1000	0	0	-1	1500
13163275	109	818	0	-100	0	230	101300000	1000	0	0	-1	1500
13175835	106	820	0	-100	0	230	101300000	1000	0	0	-1	1500
13188395	104	820	0	-100	0	230	101300000	1000	0	0	-1	1500
13200955	104	822	0	-100	0	230	101300000	1000	0	0	-1	1500
13213515	104	823	0	-100	0	230	101300000	1000	0	0	-1	1500
13226075	106	821	0	-100	0	230	101300000	1000	0	0	-1	1500
13238635	106	825	0	-100	0	230	101300000	1000	0	0	-1	1500
13251195	104	828	0	-100	0	230	101300000	1000	0	0	-1	1500
13263755	104	823	0	-100	0	230	101300000	1000	0	0	-1	1500
13276315	104	821	0	-100	0	230	101300000	1000	0	0	-1	1500
13288875	106	826	0	-100	0	230	101300000	1000	0	0	-1	1500
13301435	104	819	0	-100	0	230	101300000	1000	0	0	-1	1500
13313995	106	822	0	-100	0	230	101300000	1000	0	0	-1	1500
13326555	106	826	0	-100	0	230	101300000	1000	0	0	-1	1500
13339115	104	823	0	-100	0	230	101300000	1000	0	0	-1	1500
13351675	104	824	0	-100	0	230	101300000	1000	0	0	-1	1500
13364235	101	825	0	-100	0	230	101300000	1000	0	0	-1	1500
13376795	104	826	0	-100	0	230	101300000	1000	0	0	-1	1500
13389355	104	825	0	-100	0	230	101300000	1000	0	0	-1	1500
13401915	106	824	0	-100	0	230	101300000	1000	0	0	-1	1500
13414475	104	824	0	-100	0	230	101300000	1000	0	0	-1	1500
13427035	104	820	0	-100	0	230	101300000	1000	0	0	-1	1500
13439595	109	822	0	-100	0	230	101300000	1000	0	0	-1	1500
13452155	109	816	0	-100	0	230	101300000	1000	0	0	-1	1500
13464715	109	820	0	-100	0	230	101300000	1000	0	0	-1	1500
13477275	106	819	0	-100	0	230	101300000	1000	0	0	-1	1500
13489835	109	821	0	-100	0	230	101300000	1000	0	0	-1	1500
13502395	104	822	0	-100	0	230	101300000	1000	0	0	-1	1500
13514955	106	820	0	-100	0	230	101300000	1000	0	0	-1	1500
13527515	101	823	0	-100	0	230	101300000	1000	0	0	-1	1500
13540075	101	825	0	-100	0	230	101300000	1000	0	0	-1	1500
13552635	101	820	0	-100	0	230	101300000	1000	0	0	-1	1500
13565195	106	822	0	-100	0	230	101300000	1000	0	0	-1	1500
13577755	111	823	0	-100	0	230	101300000	1000	0	0	-1	1500
13590315	109	818	0	-100	0	230	101300000	1000	0	0	-1	1500
13602875	104	823	0	-100	0	230	101300000	1000	0	0	-1	1500
13615435	109	821	0	-100	0	230	101300000	1000	0	0	-1	1500
13627995	101	824	0	-100	0	230	101300000	1000	0	0	-1	1500
13640555	111	820	0	-100	0	230	101300000	1000	0	0	-1	1500
13653115	111	821	0	-100	0	230	101300000	1000	0	0	-1	1500
13665675	109	822	0	-100	0	230	101300000	1000	0	0	-1	1500
13678235	104	820	0	-100	0	230	101300000	1000	0	0	-1	1500
13690795	104	823	0	-100	0	230	101300000	1000	0	0	-1	1500
13703355	104	824	0	-100	0	230	101300000	1000	0	0	-1	1500
13715915	101	822	0	-100	0	230	101300000	1000	0	0	-1	1500
13728475	106	822	0	-100	0	230	101300000	1000	0	0	-1	1500
13741035	109	817	0	-100	0	230	101300000	1000	0	0	-1	1500
13753595	111	820	0	-100	0	230	101300000	1000	0	0	-1	1500
13766155	106	820	0	-100	0	230	101300000	1000	0	0	-1	1500
13778715	104	823	0	-100	0	230	101300000	1000	0	0	-1	1500
13791275	106	820	0	-100	0	230	101300000	1000	0	0	-1	1500
13803835	104	825	0	-100	0	230	101300000	1000	0	0	-1	1500
13816395	104	825	0	-100	0	230	101300000	1000	0	0	-1	1500
13828955	104	822	0	-100	0	230	101300000	1000	0	0	-1	1500
13841515	109	822	0	-100	0	230	101300000	1000	0	0	-1	1500
13854075	111	823	0	-100	0	230	101300000	1000	0	0	-1	1500
13866635	109	816	0	-100	0	230	101300000	1000	0	0	-1	1500
13879195	111	822	0	-100	0	230	101300000	1000	0	0	-1	1500
13891755	109	820	0	-100	0	230	101300000	1000	0	0	-1	1500
13904315	109	820	0	-100	0	230	101300000	1000	0	0	-1	1500
13916875	109	820	0	-100	0	230	101300000	1000	0	0	-1	1500
13929435	104	819	0	-100	0	230	101300000	1000	0	0	-1	1500
13941995	104	822	0	-100	0	230	101300000	1000	0	0	-1	1500
13954555	101	824	0	-100	0	230	101300000	1000	0	0	-1	1500
13967115	101	825	0	-100	0	230	101300000	1000	0	0	-1	1500
13979675	101	825	0	-100	0	230	101300000	1000	0	0	-1	1500
13992235	104	825	0	-100	0	230	101300000	1000	0	0	-1	1500
14004795	111	825	0	-100	0	230	101300000	1000	0	0	-1	1500
14017355	111	823	0	-100	0	230	101300000	1000	0	0	-1	1500
14029915	109	820	0	-100	0	230	101300000	1000	0	0	-1	1500
14042475	101	824	0	-100	0	230	101300000	1000	0	0	-1	1500
14055035	104	825	0	-100	0	230	101300000	1000	0	0	-1	1500
14067595	104	823	0	-100	0	230	101300000	1000	0	0	-1	1500
14080155	106	820	0	-100	0	230	101300000	1000	0	0	-1	1500
14092715	104	823	0	-100	0	230	101300000	1000	0	0	-1	1500
14105275	104	827	0	-100	0	230	101300000	1000	0	0	-1	1500
14117835	101	821	0	-100	0	230	101300000	1000	0	0	-1	1500
14130395	104	820	0	-100	0	230	101300000	1000	0	0	-1	1500
14142955	104	823	0	-100	0	230	101300000	1000	0	0	-1	1500
14155515	104	819	0	-100	0	230	101300000	1000	0	0	-1	1500
14168075	106	822	0	-100	0	230	101300000	1000	0	0	-1	1500
14180635	111	822	0	-100	0	230	101300000	1000	0	0	-1	1500
14193195	109	824	0	-100	0	230	101300000	1000	0	0	-1	1500
14205755	104	824	0	-100	0	230	101300000	1000	0	0	-1	1500
14218315	104	822	0	-100	0	230	101300000	1000	0	0	-1	1500
14230875	104	821	0	-100	0	230	101300000	1000	0	0	-1	1500
14243435	111	825	0	-100	0	230	101300000	1000	0	0	-1	1500
14255995	109	823	0	-100	0	230	101300000	1000	0	0	-1	1500
14268555	106	818	0	-100	0	230	101300000	1000	0	0	-1	1500
14281115	104	820	0	-100	0	230	101300000	1000	0	0	-1	1500
14293675	101	824	0	-100	0	230	101300000	1000	0	0	-1	1500
14306235	101	822	0	-100	0	230	101300000	1000	0	0	-1	1500
14318795	106	821	0	-100	0	230	101300000	1000	0	0	-1	1500
14331355	109	820	0	-100	0	230	101300000	1000	0	0	-1	1500
14343915	109	824	0	-100	0	230	101300000	1000	0	0	-1	1500
14356475	104	823	0	-100	0	230	101300000	1000	0	0	-1	1500
14369035	106	821	0	-100	0	230	101300000	1000	0	0	-1	1500
14381595	101	821	0	-100	0	230	101300000	1000	0	0	-1	1500
14394155	106	823	0	-100	0	230	101300000	1000	0	0	-1	1500
14406715	109	823	0	-100	0	230	101300000	1000	0	0	-1	1500
14419275	106	823	0	-100	0	230	101300000	1000	0	0	-1	1500
14431835	106	827	0	-100	0	230	101300000	1000	0	0	-1	1500
14444395	104	825	0	-100	0	230	101300000	1000	0	0	-1	1500
14456955	104	823	0	-100	0	230	101300000	1000	0	0	-1	1500
14469515	104	823	0	-100	0	230	101300000	1000	0	0	-1	1500
14482075	101	823	0	-100	0	230	101300000	1000	0	0	-1	1500
14494635	111	819	0	-100	0	230	101300000	1000	0	0	-1	1500
14507195	109	823	0	-100	0	230	101300000	1000	0	0	-1	1500
14519755	109	820	0	-100	0	230	101300000	1000	0	0	-1	1500
14532315	106	819	0	-100	0	230	101300000	1000	0	0	-1	1500
14544875	104	840	0	-100	0	230	101300000	1000	0	0	-1	1500
14557435	109	821	0	-100	0	230	101300000	1000	0	0	-1	1500
14569995	101	822	0	-100	0	230	101300000	1000	0	0	-1	1500
14582555	104	819	0	-100	0	230	101300000	1000	0	0	-1	1500
14595115	106	822	0	-100	0	230	101300000	1000	0	0	-1	1500
14607675	111	817	0	-100	0	230	101300000	1000	0	0	-1	1500
14620235	109	818	0	-100	0	230	101300000	1000	0	0	-1	1500
14632795	104	827	0	-100	0	230	101300000	1000	0	0	-1	1500
14645355	104	823	0	-100	0	230	101300000	1000	0	0	-1	1500
14657915	104	822	0	-100	0	230	101300000	1000	0	0	-1	1500
14670475	104	825	0	-100	0	230	101300000	1000	0	0	-1	1500
14683035	104	821	0	-100	0	230	101300000	1000	0	0	-1	1500
14695595	104	822	0	-100	0	230	101300000	1000	0	0	-1	1500
14708155	104	825	0	-100	0	230	101300000	1000	0	0	-1	1500
14720715	109	820	0	-100	0	230	101300000	1000	0	0	-1	1500
14733275	111	818	0	-100	0	230	101300000	1000	0	0	-1	1500
14745835	111	822	0	-100	0	230	101300000	1000	0	0	-1	1500
14758395	101	825	0	-100	0	230	101300000	1000	0	0	-1	1500
14770955	101	824	0	-100	0	230	101300000	1000	0	0	-1	1500
14783515	106	823	0	-100	0	230	101300000	1000	0	0	-1	1500
14796075	104	826	0	-100	0	230	101300000	1000	0	0	-1	1500
14808635	101	823	0	-100	0	230	101300000	1000	0	0	-1	1500
14821195	101	824	0	-100	0	230	101300000	1000	0	0	-1	1500
14833755	106	822	0	-100	0	230	101300000	1000	0	0	-1	1500
14846315	106	820	0	-100	0	230	101300000	1000	0	0	-1	1500
14858875	106	823	0	-100	0	230	101300000	1000	0	0	-1	1500
14871435	104	824	0	-100	0	230	101300000	1000	0	0	-1	1500
14883995	104	820	0	-100	0	230	101300000	1000	0	0	-1	1500
14896555	109	823	0	-100	0	230	101300000	1000	0	0	-1	1500
14909115	106	825	0	-100	0	230	101300000	1000	0	0	-1	1500
14921675	104	823	0	-100	0	230	101300000	1000	0	0	-1	1500
14934235	106	824	0	-100	0	230	101300000	1000	0	0	-1	1500
14946795	104	829	0	-100	0	230	101300000	1000	0	0	-1	1500
14959355	104	836	0	-100	0	230	101300000	1000	0	0	-1	1500
14971915	101	822	0	-100	0	230	101300000	1000	0	0	-1	1500
14984475	104	821	0	-100	0	230	101300000	1000	0	0	-1	1500
14997035	101	821	0	-100	0	230	101300000	1000	0	0	-1	1500
15009595	104	817	0	-100	0	230	101300000	1000	0	0	-1	1500
15022155	109	820	0	-100	0	230	101300000	1000	0	0	-1	1500
15034715	101	820	0	-100	0	230	101300000	1000	0	0	-1	1500
15047275	99	824	0	-100	0	230	101300000	1000	0	0	-1	1500
15059835	96	824	0	-100	0	230	101300000	1000	0	0	-1	1500
15072395	101	824	0	-100	0	230	101300000	1000	0	0	-1	1500
15084955	99	826	0	-100	0	230	101300000	1000	0	0	-1	1500
15097515	101	819	0	-100	0	230	101300000	1000	0	0	-1	1500
15110075	101	820	0	-100	0	230	101300000	1000	0	0	-1	1500
15122635	104	822	0	-100	0	230	101300000	1000	0	0	-1	1500
15135195	106	820	0	-100	0	230	101300000	1000	0	0	-1	1500
15147755	101	820	0	-100	0	230	101300000	1000	0	0	-1	1500
15160315	99	825	0	-100	0	230	101300000	1000	0	0	-1	1500
15172875	99	822	0	-100	0	230	101300000	1000	0	0	-1	1500
15185435	99	823	0	-100	0	230	101300000	1000	0	0	-1	1500
15197995	101	822	0	-100	0	230	101300000	1000	0	0	-1	1500
15210555	96	821	0	-100	0	230	101300000	1000	0	0	-1	1500
15223115	99	823	0	-100	0	230	101300000	1000	0	0	-1	1500
15235675	104	821	0	-100	0	230	101300000	1000	0	0	-1	1500
15248235	104	823	0	-100	0	230	101300000	1000	0	0	-1	1500
15260795	109	818	0	-100	0	230	101300000	1000	0	0	-1	1500
15273355	106	820	0	-100	0	230	101300000	1000	0	0	-1	1500
15285915	104	823	0	-100	0	230	101300000	1000	0	0	-1	1500
15298475	104	820	0	-100	0	230	101300000	1000	0	0	-1	1500
15311035	101	823	0	-100	0	230	101300000	1000	0	0	-1	1500
15323595	99	822	0	-100	0	230	101300000	1000	0	0	-1	1500
15336155	101	823	0	-100	0	230	101300000	1000	0	0	-1	1500
15348715	99	835	0	-100	0	230	101300000	1000	0	0	-1	1500
15361275	99	825	0	-100	0	230	101300000	1000	0	0	-1	1500
15373835	101	819	0	-100	0	230	101300000	1000	0	0	-1	1500
15386395	101	822	0	-100	0	230	101300000	1000	0	0	-1	1500
15398955	106	817	0	-100	0	230	101300000	1000	0	0	-1	1500
15411515	101	819	0	-100	0	230	101300000	1000	0	0	-1	1500
15424075	99	824	0	-100	0	230	101300000	1000	0	0	-1	1500
15436635	99	817	0	-100	0	230	101300000	1000	0	0	-1	1500
15449195	101	822	0	-100	0	230	101300000	1000	0	0	-1	1500
15461755	101	818	0	-100	0	230	101300000	1000	0	0	-1	1500
15474315	99	820	0	-100	0	230	101300000	1000	0	0	-1	1500
15486875	97	822	0	-100	0	230	101300000	1000	0	0	-1	1500
15499435	101	824	0	-100	0	230	101300000	1000	0	0	-1	1500
15511995	99	816	0	-100	0	230	101300000	1000	0	0	-1	1500
15524555	106	820	0	-100	0	230	101300000	1000	0	0	-1	1500
15537115	106	819	0	-100	0	230	101300000	1000	0	0	-1	1500
15549675	109	819	0	-100	0	230	101300000	1000	0	0	-1	1500
15562235	106	814	0	-100	0	230	101300000	1000	0	0	-1	1500
15574795	106	819	0	-100	0	230	101300000	1000	0	0	-1	1500
15587355	104	816	0	-100	0	230	101300000	1000	0	0	-1	1500
15599915	106	822	0	-100	0	230	101300000	1000	0	0	-1	1500
15612475	106	822	0	-100	0	230	101300000	1000	0	0	-1	1500
15625035	99	820	0	-100	0	230	101300000	1000	0	0	-1	1500
15637595	101	824	0	-100	0	230	101300000	1000	0	0	-1	1500
15650155	104	823	0	-100	0	230	101300000	1000	0	0	-1	1500
15662715	106	821	0	-100	0	230	101300000	1000	0	0	-1	1500
15675275	106	819	0	-100	0	230	101300000	1000	0	0	-1	1500
15687835	104	821	0	-100	0	230	101300000	1000	0	0	-1	1500
15700395	99	821	0	-100	0	230	101300000	1000	0	0	-1	1500
15712955	99	823	0	-100	0	230	101300000	1000	0	0	-1	1500
15725515	101	823	0	-100	0	230	101300000	1000	0	0	-1	1500
15738075	99	822	0	-100	0	230	101300000	1000	0	0	-1	1500
15750635	99	823	0	-100	0	230	101300000	1000	0	0	-1	1500
15763195	101	822	0	-100	0	230	101300000	1000	0	0	-1	1500
15775755	106	821	0	-100	0	230	101300000	1000	0	0	-1	1500
15788315	106	820	0	-100	0	230	101300000	1000	0	0	-1	1500
15800875	106	821	0	-100	0	230	101300000	1000	0	0	-1	1500
15813435	99	828	0	-100	0	230	101300000	1000	0	0	-1	1500
15825995	101	821	0	-100	0	230	101300000	1000	0	0	-1	1500
15838555	99	825	0	-100	0	230	101300000	1000	0	0	-1	1500
15851115	101	818	0	-100	0	230	101300000	1000	0	0	-1	1500
15863675	104	822	0	-100	0	230	101300000	1000	0	0	-1	1500
15876235	109	817	0	-100	0	230	101300000	1000	0	0	-1	1500
15888795	106	823	0	-100	0	230	101300000	1000	0	0	-1	1500
15901355	104	819	0	-100	0	230	101300000	1000	0	0	-1	1500
15913915	101	825	0	-100	0	230	101300000	1000	0	0	-1	1500
15926475	99	824	0	-100	0	230	101300000	1000	0	0	-1	1500
15939035	101	819	0	-100	0	230	101300000	1000	0	0	-1	1500
15951595	106	822	0	-100	0	230	101300000	1000	0	0	-1	1500
15964155	106	825	0	-100	0	230	101300000	1000	0	0	-1	1500
15976715	99	824	0	-100	0	230	101300000	1000	0	0	-1	1500
15989275	99	823	0	-100	0	230	101300000	1000	0	0	-1	1500
16001835	104	823	0	-100	0	230	101300000	1000	0	0	-1	1500
16014395	106	819	0	-100	0	230	101300000	1000	0	0	-1	1500
16026955	104	820	0	-100	0	230	101300000	1000	0	0	-1	1500
16039515	99	822	0	-100	0	230	101300000	1000	0	0	-1	1500
16052075	104	822	0	-100	0	230	101300000	1000	0	0	-1	1500
16064635	101	821	0	-100	0	230	101300000	1000	0	0	-1	1500
16077195	109	822	0	-100	0	230	101300000	1000	0	0	-1	1500
16089755	101	818	0	-100	0	230	101300000	1000	0	0	-1	1500
16102315	96	824	0	-100	0	230	101300000	1000	0	0	-1	1500
16114875	99	824	0	-100	0	230	101300000	1000	0	0	-1	1500
16127435	101	821	0	-100	0	230	101300000	1000	0	0	-1	1500
16139995	106	821	0	-100	0	230	101300000	1000	0	0	-1	1500
16152555	104	822	0	-100	0	230	101300000	1000	0	0	-1	1500
16165115	99	824	0	-100	0	230	101300000	1000	0	0	-1	1500
16177675	101	825	0	-100	0	230	101300000	1000	0	0	-1	1500
16190235	99	821	0	-100	0	230	101300000	1000	0	0	-1	1500
16202795	109	818	0	-100	0	230	101300000	1000	0	0	-1	1500
16215355	106	822	0	-100	0	230	101300000	1000	0	0	-1	1500
16227915	101	826	0	-100	0	230	101300000	1000	0	0	-1	1500
16240475	97	822	0	-100	0	230	101300000	1000	0	0	-1	1500
16253035	97	821	0	-100	0	230	101300000	1000	0	0	-1	1500
16265595	104	819	0	-100	0	230	101300000	1000	0	0	-1	1500
16278155	109	822	0	-100	0	230	101300000	1000	0	0	-1	1500
16290715	99	827	0	-100	0	230	101300000	1000	0	0	-1	1500
16303275	99	823	0	-100	0	230	101300000	1000	0	0	-1	1500
16315835	99	820	0	-100	0	230	101300000	1000	0	0	-1	1500
16328395	109	825	0	-100	0	230	101300000	1000	0	0	-1	1500
16340955	106	822	0	-100	0	230	101300000	1000	0	0	-1	1500
16353515	99	824	0	-100	0	230	101300000	1000	0	0	-1	1500
16366075	97	824	0	-100	0	230	101300000	1000	0	0	-1	1500
16378635	104	823	0	-100	0	230	101300000	1000	0	0	-1	1500
16391195	104	821	0	-100	0	230	101300000	1000	0	0	-1	1500
16403755	99	825	0	-100	0	230	101300000	1000	0	0	-1	1500
16416315	99	824	0	-100	0	230	101300000	1000	0	0	-1	1500
16428875	101	823	0	-100	0	230	101300000	1000	0	0	-1	1500
16441435	106	821	0	-100	0	230	101300000	1000	0	0	-1	1500
16453995	99	817	0	-100	0	230	101300000	1000	0	0	-1	1500
16466555	101	826	0	-100	0	230	101300000	1000	0	0	-1	1500
16479115	97	822	0	-100	0	230	101300000	1000	0	0	-1	1500
16491675	97	820	0	-100	0	230	101300000	1000	0	0	-1	1500
16504235	109	821	0	-100	0	230	101300000	1000	0	0	-1	1500
16516795	106	818	0	-100	0	230	101300000	1000	0	0	-1	1500
16529355	101	824	0	-100	0	230	101300000	1000	0	0	-1	1500
16541915	99	822	0	-100	0	230	101300000	1000	0	0	-1	1500
16554475	101	824	0	-100	0	230	101300000	1000	0	0	-1	1500
16567035	99	823	0	-100	0	230	101300000	1000	0	0	-1	1500
16579595	97	824	0	-100	0	230	101300000	1000	0	0	-1	1500
16592155	104	824	0	-100	0	230	101300000	1000	0	0	-1	1500
16604715	99	825	0	-100	0	230	101300000	1000	0	0	-1	1500
16617275	99	837	0	-100	0	230	101300000	1000	0	0	-1	1500
16629835	104	825	0	-100	0	230	101300000	1000	0	0	-1	1500
16642395	106	823	0	-100	0	230	101300000	1000	0	0	-1	1500
16654955	99	821	0	-100	0	230	101300000	1000	0	0	-1	1500
16667515	97	823	0	-100	0	230	101300000	1000	0	0	-1	1500
16680075	101	822	0	-100	0	230	101300000	1000	0	0	-1	1500
16692635	106	821	0	-100	0	230	101300000	1000	0	0	-1	1500
16705195	99	827	0	-100	0	230	101300000	1000	0	0	-1	1500
16717755	99	827	0	-100	0	230	101300000	1000	0	0	-1	1500
16730315	99	826	0	-100	0	230	101300000	1000	0	0	-1	1500
16742875	101	823	0	-100	0	230	101300000	1000	0	0	-1	1500
16755435	109	819	0	-100	0	230	101300000	1000	0	0	-1	1500
16767995	104	822	0	-100	0	230	101300000	1000	0	0	-1	1500
16780555	101	822	0	-100	0	230	101300000	1000	0	0	-1	1500
16793115	101	822	0	-100	0	230	101300000	1000	0	0	-1	1500
16805675	99	826	0	-100	0	230	101300000	1000	0	0	-1	1500
16818235	97	823	0	-100	0	230	101300000	1000	0	0	-1	1500
16830795	99	823	0	-100	0	230	101300000	1000	0	0	-1	1500
16843355	106	824	0	-100	0	230	101300000	1000	0	0	-1	1500
16855915	106	820	0	-100	0	230	101300000	1000	0	0	-1	1500
16868475	106	815	0	-100	0	230	101300000	1000	0	0	-1	1500
16881035	106	820	0	-100	0	230	101300000	1000	0	0	-1	1500
16893595	104	820	0	-100	0	230	101300000	1000	0	0	-1	1500
16906155	106	826	0	-100	0	230	101300000	1000	0	0	-1	1500
16918715	101	822	0	-100	0	230	101300000	1000	0	0	-1	1500
16931275	99	823	0	-100	0	230	101300000	1000	0	0	-1	1500
16943835	99	824	0	-100	0	230	101300000	1000	0	0	-1	1500
16956395	104	818	0	-100	0	230	101300000	1000	0	0	-1	1500
16968955	104	819	0	-100	0	230	101300000	1000	0	0	-1	1500
16981515	101	822	0	-100	0	230	101300000	1000	0	0	-1	1500
16994075	99	824	0	-100	0	230	101300000	1000	0	0	-1	1500
17006635	109	837	0	-100	0	230	101300000	1000	0	0	-1	1500
17019195	104	820	0	-100	0	230	101300000	1000	0	0	-1	1500
17031755	101	827	0	-100	0	230	101300000	1000	0	0	-1	1500
17044315	99	824	0	-100	0	230	101300000	1000	0	0	-1	1500
17056875	99	821	0	-100	0	230	101300000	1000	0	0	-1	1500
17069435	106	830	0	-100	0	230	101300000	1000	0	0	-1	1500
17081995	106	823	0	-100	0	230	101300000	1000	0	0	-1	1500
17094555	106	819	0	-100	0	230	101300000	1000	0	0	-1	1500
17107115	106	820	0	-100	0	230	101300000	1000	0	0	-1	1500
17119675	101	822	0	-100	0	230	101300000	1000	0	0	-1	1500
17132235	101	824	0	-100	0	230	101300000	1000	0	0	-1	1500
17144795	104	824	0	-100	0	230	101300000	1000	0	0	-1	1500
17157355	99	825	0	-100	0	230	101300000	1000	0	0	-1	1500
17169915	101	820	0	-100	0	230	101300000	1000	0	0	-1	1500
17182475	106	819	0	-100	0	230	101300000	1000	0	0	-1	1500
17195035	106	820	0	-100	0	230	101300000	1000	0	0	-1	1500
17207595	104	820	0	-100	0	230	101300000	1000	0	0	-1	1500
17220155	109	821	0	-100	0	230	101300000	1000	0	0	-1	1500
17232715	99	823	0	-100	0	230	101300000	1000	0	0	-1	1500
17245275	99	827	0	-100	0	230	101300000	1000	0	0	-1	1500
17257835	99	824	0	-100	0	230	101300000	1000	0	0	-1	1500
17270395	97	824	0	-100	0	230	101300000	1000	0	0	-1	1500
17282955	106	826	0	-100	0	230	101300000	1000	0	0	-1	1500
17295515	106	818	0	-100	0	230	101300000	1000	0	0	-1	1500
17308075	104	821	0	-100	0	230	101300000	1000	0	0	-1	1500
17320635	101	820	0	-100	0	230	101300000	1000	0	0	-1	1500
17333195	101	820	0	-100	0	230	101300000	1000	0	0	-1	1500
17345755	97	821	0	-100	0	230	101300000	1000	0	0	-1	1500
17358315	106	822	0	-100	0	230	101300000	1000	0	0	-1	1500
17370875	106	820	0	-100	0	230	101300000	1000	0	0	-1	1500
17383435	101	818	0	-100	0	230	101300000	1000	0	0	-1	1500
17395995	99	821	0	-100	0	230	101300000	1000	0	0	-1	1500
17408555	101	824	0	-100	0	230	101300000	1000	0	0	-1	1500
17421115	101	822	0	-100	0	230	101300000	1000	0	0	-1	1500
17433675	109	824	0	-100	0	230	101300000	1000	0	0	-1	1500
17446235	106	818	0	-100	0	230	101300000	1000	0	0	-1	1500
17458795	104	824	0	-100	0	230	101300000	1000	0	0	-1	1500
17471355	99	825	0	-100	0	230	101300000	1000	0	0	-1	1500
17483915	99	822	0	-100	0	230	101300000	1000	0	0	-1	1500
17496475	99	823	0	-100	0	230	101300000	1000	0	0	-1	1500
17509035	104	818	0	-100	0	230	101300000	1000	0	0	-1	1500
17521595	106	821	0	-100	0	230	101300000	1000	0	0	-1	1500
17534155	109	822	0	-100	0	230	101300000	1000	0	0	-1	1500
17546715	99	825	0	-100	0	230	101300000	1000	0	0	-1	1500
17559275	99	826	0	-100	0	230	101300000	1000	0	0	-1	1500
17571835	97	823	0	-100	0	230	101300000	1000	0	0	-1	1500
17584395	104	822	0	-100	0	230	101300000	1000	0	0	-1	1500
17596955	106	821	0	-100	0	230	101300000	1000	0	0	-1	1500
17609515	104	820	0	-100	0	230	101300000	1000	0	0	-1	1500
17622075	99	823	0	-100	0	230	101300000	1000	0	0	-1	1500
17634635	99	824	0	-100	0	230	101300000	1000	0	0	-1	1500
17647195	101	821	0	-100	0	230	101300000	1000	0	0	-1	1500
17659755	106	816	0	-100	0	230	101300000	1000	0	0	-1	1500
17672315	101	821	0	-100	0	230	101300000	1000	0	0	-1	1500
17684875	99	825	0	-100	0	230	101300000	1000	0	0	-1	1500
17697435	106	820	0	-100	0	230	101300000	1000	0	0	-1	1500
17709995	104	818	0	-100	0	230	101300000	1000	0	0	-1	1500
17722555	101	825	0	-100	0	230	101300000	1000	0	0	-1	1500
17735115	101	825	0	-100	0	230	101300000	1000	0	0	-1	1500
17747675	101	822	0	-100	0	230	101300000	1000	0	0	-1	1500
17760235	109	819	0	-100	0	230	101300000	1000	0	0	-1	1500
17772795	104	822	0	-100	0	230	101300000	1000	0	0	-1	1500
17785355	96	827	0	-100	0	230	101300000	1000	0	0	-1	1500
17797915	99	822	0	-100	0	230	101300000	1000	0	0	-1	1500
17810475	101	819	0	-100	0	230	101300000	1000	0	0	-1	1500
17823035	106	816	0	-100	0	230	101300000	1000	0	0	-1	1500
17835595	104	822	0	-100	0	230	101300000	1000	0	0	-1	1500
17848155	104	823	0	-100	0	230	101300000	1000	0	0	-1	1500
17860715	101	822	0	-100	0	230	101300000	1000	0	0	-1	1500
17873275	97	822	0	-100	0	230	101300000	1000	0	0	-1	1500
17885835	99	823	0	-100	0	230	101300000	1000	0	0	-1	1500
17898395	101	819	0	-100	0	230	101300000	1000	0	0	-1	1500
17910955	106	816	0	-100	0	230	101300000	1000	0	0	-1	1500
17923515	106	821	0	-100	0	230	101300000	1000	0	0	-1	1500
17936075	99	822	0	-100	0	230	101300000	1000	0	0	-1	1500
17948635	99	824	0	-100	0	230	101300000	1000	0	0	-1	1500
17961195	99	819	0	-100	0	230	101300000	1000	0	0	-1	1500
17973755	104	821	0	-100	0	230	101300000	1000	0	0	-1	1500
17986315	106	818	0	-100	0	230	101300000	1000	0	0	-1	1500
17998875	104	828	0	-100	0	230	101300000	1000	0	0	-1	1500
18011435	96	821	0	-100	0	230	101300000	1000	0	0	-1	1500
18023995	99	822	0	-100	0	230	101300000	1000	0	0	-1	1500
18036555	101	821	0	-100	0	230	101300000	1000	0	0	-1	1500
18049115	106	817	0	-100	0	230	101300000	1000	0	0	-1	1500
18061675	101	821	0	-100	0	230	101300000	1000	0	0	-1	1500
18074235	104	825	0	-100	0	230	101300000	1000	0	0	-1	1500
18086795	101	822	0	-100	0	230	101300000	1000	0	0	-1	1500
18099355	109	819	0	-100	0	230	101300000	1000	0	0	-1	1500
18111915	99	827	0	-100	0	230	101300000	1000	0	0	-1	1500
18124475	99	824	0	-100	0	230	101300000	1000	0	0	-1	1500
18137035	106	820	0	-100	0	230	101300000	1000	0	0	-1	1500
18149595	104	822	0	-100	0	230	101300000	1000	0	0	-1	1500
18162155	106	824	0	-100	0	230	101300000	1000	0	0	-1	1500
18174715	99	825	0	-100	0	230	101300000	1000	0	0	-1	1500
18187275	109	819	0	-100	0	230	101300000	1000	0	0	-1	1500
18199835	104	821	0	-100	0	230	101300000	1000	0	0	-1	1500
18212395	101	824	0	-100	0	230	101300000	1000	0	0	-1	1500
18224955	101	824	0	-100	0	230	101300000	1000	0	0	-1	1500
18237515	99	823	0	-100	0	230	101300000	1000	0	0	-1	1500
18250075	104	821	0	-100	0	230	101300000	1000	0	0	-1	1500
18262635	106	821	0	-100	0	230	101300000	1000	0	0	-1	1500
18275195	101	822	0	-100	0	230	101300000	1000	0	0	-1	1500
18287755	96	823	0	-100	0	230	101300000	1000	0	0	-1	1500
18300315	99	823	0	-100	0	230	101300000	1000	0	0	-1	1500
18312875	99	825	0	-100	0	230	101300000	1000	0	0	-1	1500
18325435	106	824	0	-100	0	230	101300000	1000	0	0	-1	1500
18337995	101	817	0	-100	0	230	101300000	1000	0	0	-1	1500
18350555	101	821	0	-100	0	230	101300000	1000	0	0	-1	1500
18363115	97	823	0	-100	0	230	101300000	1000	0	0	-1	1500
18375675	99	824	0	-100	0	230	101300000	1000	0	0	-1	1500
18388235	104	824	0	-100	0	230	101300000	1000	0	0	-1	1500
18400795	106	816	0	-100	0	230	101300000	1000	0	0	-1	1500
18413355	109	821	0	-100	0	230	101300000	1000	0	0	-1	1500
18425915	101	820	0	-100	0	230	101300000	1000	0	0	-1	1500
18438475	96	824	0	-100	0	230	101300000	1000	0	0	-1	1500
18451035	99	820	0	-100	0	230	101300000	1000	0	0	-1	1500
18463595	99	822	0	-100	0	230	101300000	1000	0	0	-1	1500
18476155	106	822	0	-100	0	230	101300000	1000	0	0	-1	1500
18488715	101	818	0	-100	0	230	101300000	1000	0	0	-1	1500
18501275	106	817	0	-100	0	230	101300000	1000	0	0	-1	1500
18513835	104	820	0	-100	0	230	101300000	1000	0	0	-1	1500
18526395	99	821	0	-100	0	230	101300000	1000	0	0	-1	1500
18538955	99	823	0	-100	0	230	101300000	1000	0	0	-1	1500
18551515	99	824	0	-100	0	230	101300000	1000	0	0	-1	1500
18564075	99	822	0	-100	0	230	101300000	1000	0	0	-1	1500
18576635	104	825	0	-100	0	230	101300000	1000	0	0	-1	1500
18589195	109	824	0	-100	0	230	101300000	1000	0	0	-1	1500
18601755	106	819	0	-100	0	230	101300000	1000	0	0	-1	1500
18614315	99	823	0	-100	0	230	101300000	1000	0	0	-1	1500
18626875	101	818	0	-100	0	230	101300000	1000	0	0	-1	1500
18639435	99	824	0	-100	0	230	101300000	1000	0	0	-1	1500
18651995	99	823	0	-100	0	230	101300000	1000	0	0	-1	1500
18664555	106	824	0	-100	0	230	101300000	1000	0	0	-1	1500
18677115	109	825	0	-100	0	230	101300000	1000	0	0	-1	1500
18689675	99	822	0	-100	0	230	101300000	1000	0	0	-1	1500
18702235	99	826	0	-100	0	230	101300000	1000	0	0	-1	1500
18714795	99	823	0	-100	0	230	101300000	1000	0	0	-1	1500
18727355	99	823	0	-100	0	230	101300000	1000	0	0	-1	1500
18739915	106	817	0	-100	0	230	101300000	1000	0	0	-1	1500
18752475	104	821	0	-100	0	230	101300000	1000	0	0	-1	1500
18765035	99	825	0	-100	0	230	101300000	1000	0	0	-1	1500
18777595	97	824	0	-100	0	230	101300000	1000	0	0	-1	1500
18790155	104	824	0	-100	0	230	101300000	1000	0	0	-1	1500
18802715	104	821	0	-100	0	230	101300000	1000	0	0	-1	1500
18815275	99	824	0	-100	0	230	101300000	1000	0	0	-1	1500
18827835	104	822	0	-100	0	230	101300000	1000	0	0	-1	1500
18840395	106	821	0	-100	0	230	101300000	1000	0	0	-1	1500
18852955	104	825	0	-100	0	230	101300000	1000	0	0	-1	1500
18865515	104	818	0	-100	0	230	101300000	1000	0	0	-1	1500
18878075	101	820	0	-100	0	230	101300000	1000	0	0	-1	1500
18890635	101	819	0	-100	0	230	101300000	1000	0	0	-1	1500
18903195	104	821	0	-100	0	230	101300000	1000	0	0	-1	1500
18915755	97	827	0	-100	0	230	101300000	1000	0	0	-1	1500
18928315	104	821	0	-100	0	230	101300000	1000	0	0	-1	1500
18940875	99	823	0	-100	0	230	101300000	1000	0	0	-1	1500
18953435	109	824	0	-100	0	230	101300000	1000	0	0	-1	1500
18965995	104	820	0	-100	0	230	101300000	1000	0	0	-1	1500
18978555	99	824	0	-100	0	230	101300000	1000	0	0	-1	1500
18991115	104	825	0	-100	0	230	101300000	1000	0	0	-1	1500
19003675	101	820	0	-100	0	230	101300000	1000	0	0	-1	1500
19016235	99	824	0	-100	0	230	101300000	1000	0	0	-1	1500
19028795	104	822	0	-100	0	230	101300000	1000	0	0	-1	1500
19041355	104	818	0	-100	0	230	101300000	1000	0	0	-1	1500
19053915	99	824	0	-100	0	230	101300000	1000	0	0	-1	1500
19066475	99	822	0	-100	0	230	101300000	1000	0	0	-1	1500
19079035	104	821	0	-100	0	230	101300000	1000	0	0	-1	1500
19091595	99	825	0	-100	0	230	101300000	1000	0	0	-1	1500
19104155	104	821	0	-100	0	230	101300000	1000	0	0	-1	1500
19116715	106	819	0	-100	0	230	101300000	1000	0	0	-1	1500
19129275	104	822	0	-100	0	230	101300000	1000	0	0	-1	1500
19141835	101	821	0	-100	0	230	101300000	1000	0	0	-1	1500
19154395	101	821	0	-100	0	230	101300000	1000	0	0	-1	1500
19166955	99	822	0	-100	0	230	101300000	1000	0	0	-1	1500
19179515	101	821	0	-100	0	230	101300000	1000	0	0	-1	1500
19192075	106	824	0	-100	0	230	101300000	1000	0	0	-1	1500
19204635	106	821	0	-100	0	230	101300000	1000	0	0	-1	1500
19217195	99	819	0	-100	0	230	101300000	1000	0	0	-1	1500
19229755	101	825	0	-100	0	230	101300000	1000	0	0	-1	1500
19242315	101	818	0	-100	0	230	101300000	1000	0	0	-1	1500
19254875	109	821	0	-100	0	230	101300000	1000	0	0	-1	1500
19267435	101	822	0	-100	0	230	101300000	1000	0	0	-1	1500
19279995	99	820	0	-100	0	230	101300000	1000	0	0	-1	1500
19292555	109	816	0	-100	0	230	101300000	1000	0	0	-1	1500
19305115	99	824	0	-100	0	230	101300000	1000	0	0	-1	1500
19317675	99	823	0	-100	0	230	101300000	1000	0	0	-1	1500
19330235	104	824	0	-100	0	230	101300000	1000	0	0	-1	1500
19342795	96	820	0	-100	0	230	101300000	1000	0	0	-1	1500
19355355	97	826	0	-100	0	230	101300000	1000	0	0	-1	1500
19367915	109	820	0	-100	0	230	101300000	1000	0	0	-1	1500
19380475	101	817	0	-100	0	230	101300000	1000	0	0	-1	1500
19393035	97	825	0	-100	0	230	101300000	1000	0	0	-1	1500
19405595	106	824	0	-100	0	230	101300000	1000	0	0	-1	1500
19418155	111	819	0	-100	0	230	101300000	1000	0	0	-1	1500
19430715	99	825	0	-100	0	230	101300000	1000	0	0	-1	1500
19443275	99	819	0	-100	0	230	101300000	1000	0	0	-1	1500
19455835	106	820	0	-100	0	230	101300000	1000	0	0	-1	1500
19468395	99	823	0	-100	0	230	101300000	1000	0	0	-1	1500
19480955	99	822	0	-100	0	230	101300000	1000	0	0	-1	1500
19493515	106	823	0	-100	0	230	101300000	1000	0	0	-1	1500
19506075	106	819	0	-100	0	230	101300000	1000	0	0	-1	1500
19518635	101	822	0	-100	0	230	101300000	1000	0	0	-1	1500
19531195	99	825	0	-100	0	230	101300000	1000	0	0	-1	1500
19543755	104	823	0	-100	0	230	101300000	1000	0	0	-1	1500
19556315	104	820	0	-100	0	230	101300000	1000	0	0	-1	1500
19568875	96	822	0	-100	0	230	101300000	1000	0	0	-1	1500
19581435	101	825	0	-100	0	230	101300000	1000	0	0	-1	1500
19593995	104	822	0	-100	0	230	101300000	1000	0	0	-1	1500
19606555	109	824	0	-100	0	230	101300000	1000	0	0	-1	1500
19619115	104	822	0	-100	0	230	101300000	1000	0	0	-1	1500
19631675	101	820	0	-100	0	230	101300000	1000	0	0	-1	1500
19644235	99	824	0	-100	0	230	101300000	1000	0	0	-1	1500
19656795	101	820	0	-100	0	230	101300000	1000	0	0	-1	1500
19669355	109	823	0	-100	0	230	101300000	1000	0	0	-1	1500
19681915	101	820	0	-100	0	230	101300000	1000	0	0	-1	1500
19694475	101	824	0	-100	0	230	101300000	1000	0	0	-1	1500
19707035	104	821	0	-100	0	230	101300000	1000	0	0	-1	1500
19719595	101	823	0	-100	0	230	101300000	1000	0	0	-1	1500
19732155	111	823	0	-100	0	230	101300000	1000	0	0	-1	1500
19744715	99	822	0	-100	0	230	101300000	1000	0	0	-1	1500
19757275	99	824	0	-100	0	230	101300000	1000	0	0	-1	1500
19769835	104	821	0	-100	0	230	101300000	1000	0	0	-1	1500
19782395	97	822	0	-100	0	230	101300000	1000	0	0	-1	1500
19794955	106	823	0	-100	0	230	101300000	1000	0	0	-1	1500
19807515	99	824	0	-100	0	230	101300000	1000	0	0	-1	1500
19820075	106	819	0	-100	0	230	101300000	1000	0	0	-1	1500
19832635	101	823	0	-100	0	230	101300000	1000	0	0	-1	1500
19845195	106	815	0	-100	0	230	101300000	1000	0	0	-1	1500
19857755	104	824	0	-100	0	230	101300000	1000	0	0	-1	1500
19870315	106	821	0	-100	0	230	101300000	1000	0	0	-1	1500
19882875	101	822	0	-100	0	230	101300000	1000	0	0	-1	1500
19895435	106	820	0	-100	0	230	101300000	1000	0	0	-1	1500
19907995	99	820	0	-100	0	230	101300000	1000	0	0	-1	1500
19920555	109	819	0	-100	0	230	101300000	1000	0	0	-1	1500
19933115	104	821	0	-100	0	230	101300000	1000	0	0	-1	1500
19945675	104	823	0	-100	0	230	101300000	1000	0	0	-1	1500
19958235	99	821	0	-100	0	230	101300000	1000	0	0	-1	1500
19970795	109	823	0	-100	0	230	101300000	1000	0	0	-1	1500
19983355	99	821	0	-100	0	230	101300000	1000	0	0	-1	1500
19995915	106	820	0	-100	0	230	101300000	1000	0	0	-1	1500
20008475	99	822	0	-100	0	230	101300000	1000	0	0	-1	1500
20021035	99	817	0	-100	0	230	101300000	1000	0	0	-1	1500
20033595	101	822	0	-100	0	230	101300000	1000	0	0	-1	1500
20046155	104	823	0	-100	0	230	101300000	1000	0	0	-1	1500
20058715	106	824	0	-100	0	230	101300000	1000	0	0	-1	1500
20071275	99	823	0	-100	0	230	101300000	1000	0	0	-1	1500
20083835	101	820	0	-100	0	230	101300000	1000	0	0	-1	1500
20096395	99	824	0	-100	0	230	101300000	1000	0	0	-1	1500
20108955	101	821	0	-100	0	230	101300000	1000	0	0	-1	1500
20121515	99	822	0	-100	0	230	101300000	1000	0	0	-1	1500
20134075	99	823	0	-100	0	230	101300000	1000	0	0	-1	1500
20146635	104	819	0	-100	0	230	101300000	1000	0	0	-1	1500
20159195	99	821	0	-100	0	230	101300000	1000	0	0	-1	1500
20171755	106	820	0	-100	0	230	101300000	1000	0	0	-1	1500
20184315	99	822	0	-100	0	230	101300000	1000	0	0	-1	1500
20196875	106	819	0	-100	0	230	101300000	1000	0	0	-1	1500
20209435	99	827	0	-100	0	230	101300000	1000	0	0	-1	1500
20221995	101	825	0	-100	0	230	101300000	1000	0	0	-1	1500
20234555	101	819	0	-100	0	230	101300000	1000	0	0	-1	1500
20247115	96	825	0	-100	0	230	101300000	1000	0	0	-1	1500
20259675	106	816	0	-100	0	230	101300000	1000	0	0	-1	1500
20272235	99	824	0	-100	0	230	101300000	1000	0	0	-1	1500
20284795	99	824	0	-100	0	230	101300000	1000	0	0	-1	1500
20297355	104	824	0	-100	0	230	101300000	1000	0	0	-1	1500
20309915	99	825	0	-100	0	230	101300000	1000	0	0	-1	1500
20322475	104	820	0	-100	0	230	101300000	1000	0	0	-1	1500
20335035	99	825	0	-100	0	230	101300000	1000	0	0	-1	1500
20347595	106	820	0	-100	0	230	101300000	1000	0	0	-1	1500
20360155	106	823	0	-100	0	230	101300000	1000	0	0	-1	1500
20372715	104	823	0	-100	0	230	101300000	1000	0	0	-1	1500
20385275	101	820	0	-100	0	230	101300000	1000	0	0	-1	1500
20397835	99	824	0	-100	0	230	101300000	1000	0	0	-1	1500
20410395	104	822	0	-100	0	230	101300000	1000	0	0	-1	1500
20422955	101	824	0	-100	0	230	101300000	1000	0	0	-1	1500
20435515	99	824	0	-100	0	230	101300000	1000	0	0	-1	1500
20448075	104	825	0	-100	0	230	101300000	1000	0	0	-1	1500
20460635	104	822	0	-100	0	230	101300000	1000	0	0	-1	1500
20473195	99	824	0	-100	0	230	101300000	1000	0	0	-1	1500
20485755	109	824	0	-100	0	230	101300000	1000	0	0	-1	1500
20498315	99	820	0	-100	0	230	101300000	1000	0	0	-1	1500
20510875	99	822	0	-100	0	230	101300000	1000	0	0	-1	1500
20523435	106	822	0	-100	0	230	101300000	1000	0	0	-1	1500
20535995	106	821	0	-100	0	230	101300000	1000	0	0	-1	1500
20548555	99	823	0	-100	0	230	101300000	1000	0	0	-1	1500
20561115	99	823	0	-100	0	230	101300000	1000	0	0	-1	1500
20573675	106	818	0	-100	0	230	101300000	1000	0	0	-1	1500
20586235	99	824	0	-100	0	230	101300000	1000	0	0	-1	1500
20598795	97	822	0	-100	0	230	101300000	1000	0	0	-1	1500
20611355	101	820	0	-100	0	230	101300000	1000	0	0	-1	1500
20623915	104	820	0	-100	0	230	101300000	1000	0	0	-1	1500
20636475	99	824	0	-100	0	230	101300000	1000	0	0	-1	1500
20649035	99	819	0	-100	0	230	101300000	1000	0	0	-1	1500
20661595	106	818	0	-100	0	230	101300000	1000	0	0	-1	1500
20674155	104	825	0	-100	0	230	101300000	1000	0	0	-1	1500
20686715	99	821	0	-100	0	230	101300000	1000	0	0	-1	1500
20699275	106	821	0	-100	0	230	101300000	1000	0	0	-1	1500
20711835	101	823	0	-100	0	230	101300000	1000	0	0	-1	1500
20724395	99	826	0	-100	0	230	101300000	1000	0	0	-1	1500
20736955	106	819	0	-100	0	230	101300000	1000	0	0	-1	1500
20749515	104	822	0	-100	0	230	101300000	1000	0	0	-1	1500
20762075	99	824	0	-100	0	230	101300000	1000	0	0	-1	1500
20774635	99	821	0	-100	0	230	101300000	1000	0	0	-1	1500
20787195	106	820	0	-100	0	230	101300000	1000	0	0	-1	1500
20799755	99	820	0	-100	0	230	101300000	1000	0	0	-1	1500
20812315	99	827	0	-100	0	230	101300000	1000	0	0	-1	1500
20824875	99	822	0	-100	0	230	101300000	1000	0	0	-1	1500
20837435	106	820	0	-100	0	230	101300000	1000	0	0	-1	1500
20849995	104	821	0	-100	0	230	101300000	1000	0	0	-1	1500
20862555	99	821	0	-100	0	230	101300000	1000	0	0	-1	1500
20875115	99	826	0	-100	0	230	101300000	1000	0	0	-1	1500
20887675	99	826	0	-100	0	230	101300000	1000	0	0	-1	1500
20900235	104	819	0	-100	0	230	101300000	1000	0	0	-1	1500
20912795	106	816	0	-100	0	230	101300000	1000	0	0	-1	1500
20925355	106	820	0	-100	0	230	101300000	1000	0	0	-1	1500
20937915	101	822	0	-100	0	230	101300000	1000	0	0	-1	1500
20950475	101	821	0	-100	0	230	101300000	1000	0	0	-1	1500
20963035	99	822	0	-100	0	230	101300000	1000	0	0	-1	1500
20975595	99	821	0	-100	0	230	101300000	1000	0	0	-1	1500
20988155	109	819	0	-100	0	230	101300000	1000	0	0	-1	1500
21000715	104	820	0	-100	0	230	101300000	1000	0	0	-1	1500
21013275	99	825	0	-100	0	230	101300000	1000	0	0	-1	1500
21025835	99	823	0	-100	0	230	101300000	1000	0	0	-1	1500
21038395	106	821	0	-100	0	230	101300000	1000	0	0	-1	1500
21050955	106	823	0	-100	0	230	101300000	1000	0	0	-1	1500
21063515	101	819	0	-100	0	230	101300000	1000	0	0	-1	1500
21076075	99	827	0	-100	0	230	101300000	1000	0	0	-1	1500
21088635	101	823	0	-100	0	230	101300000	1000	0	0	-1	1500
21101195	97	823	0	-100	0	230	101300000	1000	0	0	-1	1500
21113755	97	823	0	-100	0	230	101300000	1000	0	0	-1	1500
21126315	101	822	0	-100	0	230	101300000	1000	0	0	-1	1500
21138875	106	821	0	-100	0	230	101300000	1000	0	0	-1	1500
21151435	104	817	0	-100	0	230	101300000	1000	0	0	-1	1500
21163995	106	822	0	-100	0	230	101300000	1000	0	0	-1	1500
21176555	104	825	0	-100	0	230	101300000	1000	0	0	-1	1500
21189115	99	821	0	-100	0	230	101300000	1000	0	0	-1	1500
21201675	101	819	0	-100	0	230	101300000	1000	0	0	-1	1500
21214235	99	822	0	-100	0	230	101300000	1000	0	0	-1	1500
21226795	99	823	0	-100	0	230	101300000	1000	0	0	-1	1500
21239355	101	818	0	-100	0	230	101300000	1000	0	0	-1	1500
21251915	106	820	0	-100	0	230	101300000	1000	0	0	-1	1500
21264475	104	823	0	-100	0	230	101300000	1000	0	0	-1	1500
21277035	99	822	0	-100	0	230	101300000	1000	0	0	-1	1500
21289595	99	825	0	-100	0	230	101300000	1000	0	0	-1	1500
21302155	109	818	0	-100	0	230	101300000	1000	0	0	-1	1500
21314715	104	822	0	-100	0	230	101300000	1000	0	0	-1	1500
21327275	99	827	0	-100	0	230	101300000	1000	0	0	-1	1500
21339835	99	828	0	-100	0	230	101300000	1000	0	0	-1	1500
21352395	101	820	0	-100	0	230	101300000	1000	0	0	-1	1500
21364955	109	821	0	-100	0	230	101300000	1000	0	0	-1	1500
21377515	101	823	0	-100	0	230	101300000	1000	0	0	-1	1500
21390075	99	827	0	-100	0	230	101300000	1000	0	0	-1	1500
21402635	97	821	0	-100	0	230	101300000	1000	0	0	-1	1500
21415195	104	818	0	-100	0	230	101300000	1000	0	0	-1	1500
21427755	101	821	0	-100	0	230	101300000	1000	0	0	-1	1500
21440315	99	824	0	-100	0	230	101300000	1000	0	0	-1	1500
21452875	101	820	0	-100	0	230	101300000	1000	0	0	-1	1500
21465435	106	816	0	-100	0	230	101300000	1000	0	0	-1	1500
21477995	104	819	0	-100	0	230	101300000	1000	0	0	-1	1500
21490555	101	822	0	-100	0	230	101300000	1000	0	0	-1	1500
21503115	101	823	0	-100	0	230	101300000	1000	0	0	-1	1500
21515675	97	820	0	-100	0	230	101300000	1000	0	0	-1	1500
21528235	109	823	0	-100	0	230	101300000	1000	0	0	-1	1500
21540795	101	822	0	-100	0	230	101300000	1000	0	0	-1	1500
21553355	101	823	0	-100	0	230	101300000	1000	0	0	-1	1500
21565915	101	821	0	-100	0	230	101300000	1000	0	0	-1	1500
21578475	109	820	0	-100	0	230	101300000	1000	0	0	-1	1500
21591035	97	824	0	-100	0	230	101300000	1000	0	0	-1	1500
21603595	99	822	0	-100	0	230	101300000	1000	0	0	-1	1500
21616155	109	819	0	-100	0	230	101300000	1000	0	0	-1	1500
21628715	101	825	0	-100	0	230	101300000	1000	0	0	-1	1500
21641275	101	821	0	-100	0	230	101300000	1000	0	0	-1	1500
21653835	106	821	0	-100	0	230	101300000	1000	0	0	-1	1500
21666395	99	827	0	-100	0	230	101300000	1000	0	0	-1	1500
21678955	97	824	0	-100	0	230	101300000	1000	0	0	-1	1500
21691515	106	819	0	-100	0	230	101300000	1000	0	0	-1	1500
21704075	106	820	0	-100	0	230	101300000	1000	0	0	-1	1500
21716635	101	822	0	-100	0	230	101300000	1000	0	0	-1	1500
21729195	96	823	0	-100	0	230	101300000	1000	0	0	-1	1500
21741755	101	822	0	-100	0	230	101300000	1000	0	0	-1	1500
21754315	104	821	0	-100	0	230	101300000	1000	0	0	-1	1500
21766875	101	822	0	-100	0	230	101300000	1000	0	0	-1	1500
21779435	101	823	0	-100	0	230	101300000	1000	0	0	-1	1500
21791995	99	819	0	-100	0	230	101300000	1000	0	0	-1	1500
21804555	106	823	0	-100	0	230	101300000	1000	0	0	-1	1500
21817115	99	822	0	-100	0	230	101300000	1000	0	0	-1	1500
21829675	99	819	0	-100	0	230	101300000	1000	0	0	-1	1500
21842235	101	821	0	-100	0	230	101300000	1000	0	0	-1	1500
21854795	101	821	0	-100	0	230	101300000	1000	0	0	-1	1500
21867355	101	819	0	-100	0	230	101300000	1000	0	0	-1	1500
21879915	99	823	0	-100	0	230	101300000	1000	0	0	-1	1500
21892475	101	818	0	-100	0	230	101300000	1000	0	0	-1	1500
21905035	99	833	0	-100	0	230	101300000	1000	0	0	-1	1500
21917595	106	817	0	-100	0	230	101300000	1000	0	0	-1	1500
21930155	106	820	0	-100	0	230	101300000	1000	0	0	-1	1500
21942715	106	823	0	-100	0	230	101300000	1000	0	0	-1	1500
21955275	99	823	0	-100	0	230	101300000	1000	0	0	-1	1500
21967835	99	823	0	-100	0	230	101300000	1000	0	0	-1	1500
21980395	101	820	0	-100	0	230	101300000	1000	0	0	-1	1500
21992955	97	822	0	-100	0	230	101300000	1000	0	0	-1	1500
22005515	104	822	0	-100	0	230	101300000	1000	0	0	-1	1500
22018075	101	825	0	-100	0	230	101300000	1000	0	0	-1	1500
22030635	106	819	0	-100	0	230	101300000	1000	0	0	-1	1500
22043195	101	822	0	-100	0	230	101300000	1000	0	0	-1	1500
22055755	109	821	0	-100	0	230	101300000	1000	0	0	-1	1500
22068315	99	828	0	-100	0	230	101300000	1000	0	0	-1	1500
22080875	106	820	0	-100	0	230	101300000	1000	0	0	-1	1500
22093435	99	822	0	-100	0	230	101300000	1000	0	0	-1	1500
22105995	106	824	0	-100	0	230	101300000	1000	0	0	-1	1500
22118555	99	821	0	-100	0	230	101300000	1000	0	0	-1	1500
22131115	106	819	0	-100	0	230	101300000	1000	0	0	-1	1500
22143675	99	824	0	-100	0	230	101300000	1000	0	0	-1	1500
22156235	104	821	0	-100	0	230	101300000	1000	0	0	-1	1500
22168795	97	823	0	-100	0	230	101300000	1000	0	0	-1	1500
22181355	104	821	0	-100	0	230	101300000	1000	0	0	-1	1500
22193915	99	828	0	-100	0	230	101300000	1000	0	0	-1	1500
22206475	104	823	0	-100	0	230	101300000	1000	0	0	-1	1500
22219035	99	823	0	-100	0	230	101300000	1000	0	0	-1	1500
22231595	104	822	0	-100	0	230	101300000	1000	0	0	-1	1500
22244155	104	824	0	-100	0	230	101300000	1000	0	0	-1	1500
22256715	106	817	0	-100	0	230	101300000	1000	0	0	-1	1500
22269275	99	824	0	-100	0	230	101300000	1000	0	0	-1	1500
22281835	101	819	0	-100	0	230	101300000	1000	0	0	-1	1500
22294395	106	821	0	-100	0	230	101300000	1000	0	0	-1	1500
22306955	97	825	0	-100	0	230	101300000	1000	0	0	-1	1500
22319515	106	814	0	-100	0	230	101300000	1000	0	0	-1	1500
22332075	99	820	0	-100	0	230	101300000	1000	0	0	-1	1500
22344635	109	824	0	-100	0	230	101300000	1000	0	0	-1	1500
22357195	99	825	0	-100	0	230	101300000	1000	0	0	-1	1500
22369755	101	821	0	-100	0	230	101300000	1000	0	0	-1	1500
22382315	101	822	0	-100	0	230	101300000	1000	0	0	-1	1500
22394875	96	824	0	-100	0	230	101300000	1000	0	0	-1	1500
22407435	101	821	0	-100	0	230	101300000	1000	0	0	-1	1500
22419995	99	824	0	-100	0	230	101300000	1000	0	0	-1	1500
22432555	101	822	0	-100	0	230	101300000	1000	0	0	-1	1500
22445115	99	821	0	-100	0	230	101300000	1000	0	0	-1	1500
22457675	104	821	0	-100	0	230	101300000	1000	0	0	-1	1500
22470235	97	821	0	-100	0	230	101300000	1000	0	0	-1	1500
22482795	104	820	0	-100	0	230	101300000	1000	0	0	-1	1500
22495355	97	822	0	-100	0	230	101300000	1000	0	0	-1	1500
22507915	104	821	0	-100	0	230	101300000	1000	0	0	-1	1500
22520475	106	822	0	-100	0	230	101300000	1000	0	0	-1	1500
22533035	101	823	0	-100	0	230	101300000	1000	0	0	-1	1500
22545595	99	824	0	-100	0	230	101300000	1000	0	0	-1	1500
22558155	111	822	0	-100	0	230	101300000	1000	0	0	-1	1500
22570715	99	825	0	-100	0	230	101300000	1000	0	0	-1	1500
22583275	101	824	0	-100	0	230	101300000	1000	0	0	-1	1500
22595835	109	819	0	-100	0	230	101300000	1000	0	0	-1	1500
22608395	101	824	0	-100	0	230	101300000	1000	0	0	-1	1500
22620955	96	822	0	-100	0	230	101300000	1000	0	0	-1	1500
22633515	106	819	0	-100	0	230	101300000	1000	0	0	-1	1500
22646075	99	827	0	-100	0	230	101300000	1000	0	0	-1	1500
22658635	101	824	0	-100	0	230	101300000	1000	0	0	-1	1500
22671195	104	819	0	-100	0	230	101300000	1000	0	0	-1	1500
22683755	99	825	0	-100	0	230	101300000	1000	0	0	-1	1500
22696315	101	821	0	-100	0	230	101300000	1000	0	0	-1	1500
22708875	106	821	0	-100	0	230	101300000	1000	0	0	-1	1500
22721435	101	821	0	-100	0	230	101300000	1000	0	0	-1	1500
22733995	101	820	0	-100	0	230	101300000	1000	0	0	-1	1500
22746555	106	817	0	-100	0	230	101300000	1000	0	0	-1	1500
22759115	99	824	0	-100	0	230	101300000	1000	0	0	-1	1500
22771675	104	821	0	-100	0	230	101300000	1000	0	0	-1	1500
22784235	101	818	0	-100	0	230	101300000	1000	0	0	-1	1500
22796795	99	822	0	-100	0	230	101300000	1000	0	0	-1	1500
22809355	106	816	0	-100	0	230	101300000	1000	0	0	-1	1500
22821915	99	823	0	-100	0	230	101300000	1000	0	0	-1	1500
22834475	106	823	0	-100	0	230	101300000	1000	0	0	-1	1500
22847035	96	821	0	-100	0	230	101300000	1000	0	0	-1	1500
22859595	101	822	0	-100	0	230	101300000	1000	0	0	-1	1500
22872155	104	821	0	-100	0	230	101300000	1000	0	0	-1	1500
22884715	97	823	0	-100	0	230	101300000	1000	0	0	-1	1500
22897275	106	816	0	-100	0	230	101300000	1000	0	0	-1	1500
22909835	99	826	0	-100	0	230	101300000	1000	0	0	-1	1500
22922395	101	821	0	-100	0	230	101300000	1000	0	0	-1	1500
22934955	101	821	0	-100	0	230	101300000	1000	0	0	-1	1500
22947515	101	823	0	-100	0	230	101300000	1000	0	0	-1	1500
22960075	106	821	0	-100	0	230	101300000	1000	0	0	-1	1500
22972635	99	820	0	-100	0	230	101300000	1000	0	0	-1	1500
22985195	99	826	0	-100	0	230	101300000	1000	0	0	-1	1500
22997755	106	819	0	-100	0	230	101300000	1000	0	0	-1	1500
23010315	99	825	0	-100	0	230	101300000	1000	0	0	-1	1500
23022875	101	820	0	-100	0	230	101300000	1000	0	0	-1	1500
23035435	106	817	0	-100	0	230	101300000	1000	0	0	-1	1500
23047995	99	823	0	-100	0	230	101300000	1000	0	0	-1	1500
23060555	99	825	0	-100	0	230	101300000	1000	0	0	-1	1500
23073115	106	817	0	-100	0	230	101300000	1000	0	0	-1	1500
23085675	99	823	0	-100	0	230	101300000	1000	0	0	-1	1500
23098235	99	820	0	-100	0	230	101300000	1000	0	0	-1	1500
23110795	104	820	0	-100	0	230	101300000	1000	0	0	-1	1500
23123355	99	825	0	-100	0	230	101300000	1000	0	0	-1	1500
23135915	104	821	0	-100	0	230	101300000	1000	0	0	-1	1500
23148475	99	822	0	-100	0	230	101300000	1000	0	0	-1	1500
23161035	106	818	0	-100	0	230	101300000	1000	0	0	-1	1500
23173595	99	825	0	-100	0	230	101300000	1000	0	0	-1	1500
23186155	111	822	0	-100	0	230	101300000	1000	0	0	-1	1500
23198715	96	820	0	-100	0	230	101300000	1000	0	0	-1	1500
23211275	101	820	0	-100	0	230	101300000	1000	0	0	-1	1500
23223835	101	820	0	-100	0	230	101300000	1000	0	0	-1	1500
23236395	99	819	0	-100	0	230	101300000	1000	0	0	-1	1500
23248955	106	823	0	-100	0	230	101300000	1000	0	0	-1	1500
23261515	99	825	0	-100	0	230	101300000	1000	0	0	-1	1500
23274075	104	817	0	-100	0	230	101300000	1000	0	0	-1	1500
23286635	104	821	0	-100	0	230	101300000	1000	0	0	-1	1500
23299195	101	821	0	-100	0	230	101300000	1000	0	0	-1	1500
23311755	106	821	0	-100	0	230	101300000	1000	0	0	-1	1500
23324315	101	821	0	-100	0	230	101300000	1000	0	0	-1	1500
23336875	101	822	0	-100	0	230	101300000	1000	0	0	-1	1500
23349435	106	817	0	-100	0	230	101300000	1000	0	0	-1	1500
23361995	99	819	0	-100	0	230	101300000	1000	0	0	-1	1500
23374555	99	823	0	-100	0	230	101300000	1000	0	0	-1	1500
23387115	106	816	0	-100	0	230	101300000	1000	0	0	-1	1500
23399675	99	821	0	-100	0	230	101300000	1000	0	0	-1	1500
23412235	99	824	0	-100	0	230	101300000	1000	0	0	-1	1500
23424795	99	824	0	-100	0	230	101300000	1000	0	0	-1	1500
23437355	104	821	0	-100	0	230	101300000	1000	0	0	-1	1500
23449915	101	824	0	-100	0	230	101300000	1000	0	0	-1	1500
23462475	106	822	0	-100	0	230	101300000	1000	0	0	-1	1500
23475035	99	823	0	-100	0	230	101300000	1000	0	0	-1	1500
23487595	101	819	0	-100	0	230	101300000	1000	0	0	-1	1500
23500155	104	820	0	-100	0	230	101300000	1000	0	0	-1	1500
23512715	99	823	0	-100	0	230	101300000	1000	0	0	-1	1500
23525275	106	818	0	-100	0	230	101300000	1000	0	0	-1	1500
23537835	101	828	0	-100	0	230	101300000	1000	0	0	-1	1500
23550395	96	822	0	-100	0	230	101300000	1000	0	0	-1	1500
23562955	106	820	0	-100	0	230	101300000	1000	0	0	-1	1500
23575515	99	823	0	-100	0	230	101300000	1000	0	0	-1	1500
23588075	106	821	0	-100	0	230	101300000	1000	0	0	-1	1500
23600635	99	825	0	-100	0	230	101300000	1000	0	0	-1	1500
23613195	101	824	0	-100	0	230	101300000	1000	0	0	-1	1500
23625755	106	819	0	-100	0	230	101300000	1000	0	0	-1	1500
23638315	99	823	0	-100	0	230	101300000	1000	0	0	-1	1500
23650875	101	820	0	-100	0	230	101300000	1000	0	0	-1	1500
23663435	104	824	0	-100	0	230	101300000	1000	0	0	-1	1500
23675995	99	818	0	-100	0	230	101300000	1000	0	0	-1	1500
23688555	106	821	0	-100	0	230	101300000	1000	0	0	-1	1500
23701115	99	820	0	-100	0	230	101300000	1000	0	0	-1	1500
23713675	109	821	0	-100	0	230	101300000	1000	0	0	-1	1500
23726235	97	826	0	-100	0	230	101300000	1000	0	0	-1	1500
23738795	104	821	0	-100	0	230	101300000	1000	0	0	-1	1500
23751355	99	819	0	-100	0	230	101300000	1000	0	0	-1	1500
23763915	99	824	0	-100	0	230	101300000	1000	0	0	-1	1500
23776475	101	822	0	-100	0	230	101300000	1000	0	0	-1	1500
23789035	101	820	0	-100	0	230	101300000	1000	0	0	-1	1500
23801595	106	816	0	-100	0	230	101300000	1000	0	0	-1	1500
23814155	106	823	0	-100	0	230	101300000	1000	0	0	-1	1500
23826715	106	820	0	-100	0	230	101300000	1000	0	0	-1	1500
23839275	101	822	0	-100	0	230	101300000	1000	0	0	-1	1500
23851835	96	821	0	-100	0	230	101300000	1000	0	0	-1	1500
23864395	109	821	0	-100	0	230	101300000	1000	0	0	-1	1500
23876955	101	819	0	-100	0	230	101300000	1000	0	0	-1	1500
23889515	99	822	0	-100	0	230	101300000	1000	0	0	-1	1500
23902075	106	822	0	-100	0	230	101300000	1000	0	0	-1	1500
23914635	99	819	0	-100	0	230	101300000	1000	0	0	-1	1500
23927195	99	821	0	-100	0	230	101300000	1000	0	0	-1	1500
23939755	99	823	0	-100	0	230	101300000	1000	0	0	-1	1500
23952315	106	822	0	-100	0	230	101300000	1000	0	0	-1	1500
23964875	101	820	0	-100	0	230	101300000	1000	0	0	-1	1500
23977435	99	825	0	-100	0	230	101300000	1000	0	0	-1	1500
23989995	104	822	0	-100	0	230	101300000	1000	0	0	-1	1500
24002555	101	824	0	-100	0	230	101300000	1000	0	0	-1	1500
24015115	104	823	0	-100	0	230	101300000	1000	0	0	-1	1500
24027675	96	831	0	-100	0	230	101300000	1000	0	0	-1	1500
24040235	101	819	0	-100	0	230	101300000	1000	0	0	-1	1500
24052795	99	820	0	-100	0	230	101300000	1000	0	0	-1	1500
24065355	97	821	0	-100	0	230	101300000	1000	0	0	-1	1500
24077915	106	824	0	-100	0	230	101300000	1000	0	0	-1	1500
24090475	101	818	0	-100	0	230	101300000	1000	0	0	-1	1500
24103035	104	820	0	-100	0	230	101300000	1000	0	0	-1	1500
24115595	104	824	0	-100	0	230	101300000	1000	0	0	-1	1500
24128155	104	823	0	-100	0	230	101300000	1000	0	0	-1	1500
24140715	106	823	0	-100	0	230	101300000	1000	0	0	-1	1500
24153275	101	818	0	-100	0	230	101300000	1000	0	0	-1	1500
24165835	99	825	0	-100	0	230	101300000	1000	0	0	-1	1500
24178395	106	822	0	-100	0	230	101300000	1000	0	0	-1	1500
24190955	101	819	0	-100	0	230	101300000	1000	0	0	-1	1500
24203515	101	819	0	-100	0	230	101300000	1000	0	0	-1	1500
24216075	101	819	0	-100	0	230	101300000	1000	0	0	-1	1500
24228635	99	824	0	-100	0	230	101300000	1000	0	0	-1	1500
24241195	106	822	0	-100	0	230	101300000	1000	0	0	-1	1500
24253755	104	821	0	-100	0	230	101300000	1000	0	0	-1	1500
24266315	101	823	0	-100	0	230	101300000	1000	0	0	-1	1500
24278875	109	821	0	-100	0	230	101300000	1000	0	0	-1	1500
24291435	101	819	0	-100	0	230	101300000	1000	0	0	-1	1500
24303995	99	823	0	-100	0	230	101300000	1000	0	0	-1	1500
24316555	104	822	0	-100	0	230	101300000	1000	0	0	-1	1500
24329115	104	822	0	-100	0	230	101300000	1000	0	0	-1	1500
24341675	101	820	0	-100	0	230	101300000	1000	0	0	-1	1500
24354235	104	821	0	-100	0	230	101300000	1000	0	0	-1	1500
24366795	99	822	0	-100	0	230	101300000	1000	0	0	-1	1500
24379355	104	824	0	-100	0	230	101300000	1000	0	0	-1	1500
24391915	99	826	0	-100	0	230	101300000	1000	0	0	-1	1500
24404475	109	821	0	-100	0	230	101300000	1000	0	0	-1	1500
24417035	96	825	0	-100	0	230	101300000	1000	0	0	-1	1500
24429595	101	820	0	-100	0	230	101300000	1000	0	0	-1	1500
24442155	106	825	0	-100	0	230	101300000	1000	0	0	-1	1500
24454715	99	819	0	-100	0	230	101300000	1000	0	0	-1	1500
24467275	104	837	0	-100	0	230	101300000	1000	0	0	-1	1500
24479835	101	823	0	-100	0	230	101300000	1000	0	0	-1	1500
24492395	106	817	0	-100	0	230	101300000	1000	0	0	-1	1500
24504955	99	825	0	-100	0	230	101300000	1000	0	0	-1	1500
24517515	101	822	0	-100	0	230	101300000	1000	0	0	-1	1500
24530075	101	820	0	-100	0	230	101300000	1000	0	0	-1	1500
24542635	99	821	0	-100	0	230	101300000	1000	0	0	-1	1500
24555195	106	818	0	-100	0	230	101300000	1000	0	0	-1	1500
24567755	101	820	0	-100	0	230	101300000	1000	0	0	-1	1500
24580315	101	820	0	-100	0	230	101300000	1000	0	0	-1	1500
24592875	106	820	0	-100	0	230	101300000	1000	0	0	-1	1500
24605435	97	823	0	-100	0	230	101300000	1000	0	0	-1	1500
24617995	104	823	0	-100	0	230	101300000	1000	0	0	-1	1500
24630555	99	826	0	-100	0	230	101300000	1000	0	0	-1	1500
24643115	106	820	0	-100	0	230	101300000	1000	0	0	-1	1500
24655675	99	821	0	-100	0	230	101300000	1000	0	0	-1	1500
24668235	101	823	0	-100	0	230	101300000	1000	0	0	-1	1500
24680795	106	821	0	-100	0	230	101300000	1000	0	0	-1	1500
24693355	99	821	0	-100	0	230	101300000	1000	0	0	-1	1500
24705915	101	818	0	-100	0	230	101300000	1000	0	0	-1	1500
24718475	101	819	0	-100	0	230	101300000	1000	0	0	-1	1500
24731035	99	825	0	-100	0	230	101300000	1000	0	0	-1	1500
24743595	106	821	0	-100	0	230	101300000	1000	0	0	-1	1500
24756155	104	823	0	-100	0	230	101300000	1000	0	0	-1	1500
24768715	109	821	0	-100	0	230	101300000	1000	0	0	-1	1500
24781275	99	825	0	-100	0	230	101300000	1000	0	0	-1	1500
24793835	106	819	0	-100	0	230	101300000	1000	0	0	-1	1500
24806395	101	821	0	-100	0	230	101300000	1000	0	0	-1	1500
24818955	104	823	0	-100	0	230	101300000	1000	0	0	-1	1500
24831515	104	821	0	-100	0	230	101300000	1000	0	0	-1	1500
24844075	101	820	0	-100	0	230	101300000	1000	0	0	-1	1500
24856635	99	824	0	-100	0	230	101300000	1000	0	0	-1	1500
24869195	106	821	0	-100	0	230	101300000	1000	0	0	-1	1500
24881755	101	825	0	-100	0	230	101300000	1000	0	0	-1	1500
24894315	106	822	0	-100	0	230	101300000	1000	0	0	-1	1500
24906875	99	825	0	-100	0	230	101300000	1000	0	0	-1	1500
24919435	97	823	0	-100	0	230	101300000	1000	0	0	-1	1500
24931995	104	821	0	-100	0	230	101300000	1000	0	0	-1	1500
24944555	104	826	0	-100	0	230	101300000	1000	0	0	-1	1500
24957115	104	825	0	-100	0	230	101300000	1000	0	0	-1	1500
24969675	99	821	0	-100	0	230	101300000	1000	0	0	-1	1500
24982235	101	824	0	-100	0	230	101300000	1000	0	0	-1	1500
24994795	104	819	0	-100	0	230	101300000	1000	0	0	-1	1500
25007355	99	825	0	-100	0	230	101300000	1000	0	0	-1	1500
25019915	106	824	0	-100	0	230	101300000	1000	0	0	-1	1500
25032475	106	820	0	-100	0	230	101300000	1000	0	0	-1	1500
25045035	99	824	0	-100	0	230	101300000	1000	0	0	-1	1500
25057595	101	819	0	-100	0	230	101300000	1000	0	0	-1	1500
25070155	109	818	0	-100	0	230	101300000	1000	0	0	-1	1500
25082715	101	824	0	-100	0	230	101300000	1000	0	0	-1	1500
25095275	109	819	0	-100	0	230	101300000	1000	0	0	-1	1500
25107835	101	825	0	-100	0	230	101300000	1000	0	0	-1	1500
25120395	106	819	0	-100	0	230	101300000	1000	0	0	-1	1500
25132955	101	824	0	-100	0	230	101300000	1000	0	0	-1	1500
25145515	106	821	0	-100	0	230	101300000	1000	0	0	-1	1500
25158075	99	822	0	-100	0	230	101300000	1000	0	0	-1	1500
25170635	104	824	0	-100	0	230	101300000	1000	0	0	-1	1500
25183195	99	825	0	-100	0	230	101300000	1000	0	0	-1	1500
25195755	106	818	0	-100	0	230	101300000	1000	0	0	-1	1500
25208315	101	821	0	-100	0	230	101300000	1000	0	0	-1	1500
25220875	104	822	0	-100	0	230	101300000	1000	0	0	-1	1500
25233435	101	820	0	-100	0	230	101300000	1000	0	0	-1	1500
25245995	101	825	0	-100	0	230	101300000	1000	0	0	-1	1500
25258555	101	822	0	-100	0	230	101300000	1000	0	0	-1	1500
25271115	101	821	0	-100	0	230	101300000	1000	0	0	-1	1500
25283675	104	823	0	-100	0	230	101300000	1000	0	0	-1	1500
25296235	99	824	0	-100	0	230	101300000	1000	0	0	-1	1500
25308795	106	823	0	-100	0	230	101300000	1000	0	0	-1	1500
25321355	97	821	0	-100	0	230	101300000	1000	0	0	-1	1500
25333915	104	823	0	-100	0	230	101300000	1000	0	0	-1	1500
25346475	99	822	0	-100	0	230	101300000	1000	0	0	-1	1500
25359035	104	821	0	-100	0	230	101300000	1000	0	0	-1	1500
25371595	99	825	0	-100	0	230	101300000	1000	0	0	-1	1500
25384155	109	818	0	-100	0	230	101300000	1000	0	0	-1	1500
25396715	96	819	0	-100	0	230	101300000	1000	0	0	-1	1500
25409275	101	820	0	-100	0	230	101300000	1000	0	0	-1	1500
25421835	101	823	0	-100	0	230	101300000	1000	0	0	-1	1500
25434395	99	824	0	-100	0	230	101300000	1000	0	0	-1	1500
25446955	101	822	0	-100	0	230	101300000	1000	0	0	-1	1500
25459515	101	823	0	-100	0	230	101300000	1000	0	0	-1	1500
25472075	99	818	0	-100	0	230	101300000	1000	0	0	-1	1500
25484635	104	820	0	-100	0	230	101300000	1000	0	0	-1	1500
25497195	99	821	0	-100	0	230	101300000	1000	0	0	-1	1500
25509755	106	821	0	-100	0	230	101300000	1000	0	0	-1	1500
25522315	99	822	0	-100	0	230	101300000	1000	0	0	-1	1500
25534875	104	817	0	-100	0	230	101300000	1000	0	0	-1	1500
25547435	101	819	0	-100	0	230	101300000	1000	0	0	-1	1500
25559995	106	826	0	-100	0	230	101300000	1000	0	0	-1	1500
25572555	101	821	0	-100	0	230	101300000	1000	0	0	-1	1500
25585115	96	822	0	-100	0	230	101300000	1000	0	0	-1	1500
25597675	106	818	0	-100	0	230	101300000	1000	0	0	-1	1500
25610235	99	824	0	-100	0	230	101300000	1000	0	0	-1	1500
25622795	104	821	0	-100	0	230	101300000	1000	0	0	-1	1500
25635355	101	822	0	-100	0	230	101300000	1000	0	0	-1	1500
25647915	97	823	0	-100	0	230	101300000	1000	0	0	-1	1500
25660475	106	821	0	-100	0	230	101300000	1000	0	0	-1	1500
25673035	101	821	0	-100	0	230	101300000	1000	0	0	-1	1500
25685595	101	824	0	-100	0	230	101300000	1000	0	0	-1	1500
25698155	111	822	0	-100	0	230	101300000	1000	0	0	-1	1500
25710715	99	825	0	-100	0	230	101300000	1000	0	0	-1	1500
25723275	104	823	0	-100	0	230	101300000	1000	0	0	-1	1500
25735835	101	821	0	-100	0	230	101300000	1000	0	0	-1	1500
25748395	99	827	0	-100	0	230	101300000	1000	0	0	-1	1500
25760955	109	823	0	-100	0	230	101300000	1000	0	0	-1	1500
25773515	101	822	0	-100	0	230	101300000	1000	0	0	-1	1500
25786075	109	822	0	-100	0	230	101300000	1000	0	0	-1	1500
25798635	101	825	0	-100	0	230	101300000	1000	0	0	-1	1500
25811195	106	835	0	-100	0	230	101300000	1000	0	0	-1	1500
25823755	101	820	0	-100	0	230	101300000	1000	0	0	-1	1500
25836315	101	822	0	-100	0	230	101300000	1000	0	0	-1	1500
25848875	106	828	0	-100	0	230	101300000	1000	0	0	-1	1500
25861435	99	823	0	-100	0	230	101300000	1000	0	0	-1	1500
25873995	106	822	0	-100	0	230	101300000	1000	0	0	-1	1500
25886555	99	823	0	-100	0	230	101300000	1000	0	0	-1	1500
25899115	106	824	0	-100	0	230	101300000	1000	0	0	-1	1500
25911675	99	827	0	-100	0	230	101300000	1000	0	0	-1	1500
25924235	104	821	0	-100	0	230	101300000	1000	0	0	-1	1500
25936795	101	829	0	-100	0	230	101300000	1000	0	0	-1	1500
25949355	106	823	0	-100	0	230	101300000	1000	0	0	-1	1500
25961915	96	825	0	-100	0	230	101300000	1000	0	0	-1	1500
25974475	104	822	0	-100	0	230	101300000	1000	0	0	-1	1500
25987035	99	822	0	-100	0	230	101300000	1000	0	0	-1	1500
25999595	99	820	0	-100	0	230	101300000	1000	0	0	-1	1500
26012155	104	821	0	-100	0	230	101300000	1000	0	0	-1	1500
26024715	106	822	0	-100	0	230	101300000	1000	0	0	-1	1500
26037275	101	826	0	-100	0	230	101300000	1000	0	0	-1	1500
26049835	106	821	0	-100	0	230	101300000	1000	0	0	-1	1500
26062395	97	821	0	-100	0	230	101300000	1000	0	0	-1	1500
26074955	99	822	0	-100	0	230	101300000	1000	0	0	-1	1500
26087515	106	821	0	-100	0	230	101300000	1000	0	0	-1	1500
26100075	101	821	0	-100	0	230	101300000	1000	0	0	-1	1500
26112635	109	821	0	-100	0	230	101300000	1000	0	0	-1	1500
26125195	99	823	0	-100	0	230	101300000	1000	0	0	-1	1500
26137755	99	820	0	-100	0	230	101300000	1000	0	0	-1	1500
26150315	101	822	0	-100	0	230	101300000	1000	0	0	-1	1500
26162875	99	825	0	-100	0	230	101300000	1000	0	0	-1	1500
26175435	106	816	0	-100	0	230	101300000	1000	0	0	-1	1500
26187995	101	823	0	-100	0	230	101300000	1000	0	0	-1	1500
26200555	106	820	0	-100	0	230	101300000	1000	0	0	-1	1500
26213115	99	827	0	-100	0	230	101300000	1000	0	0	-1	1500
26225675	106	820	0	-100	0	230	101300000	1000	0	0	-1	1500
26238235	96	824	0	-100	0	230	101300000	1000	0	0	-1	1500
26250795	104	819	0	-100	0	230	101300000	1000	0	0	-1	1500
26263355	101	823	0	-100	0	230	101300000	1000	0	0	-1	1500
26275915	101	825	0	-100	0	230	101300000	1000	0	0	-1	1500
26288475	104	820	0	-100	0	230	101300000	1000	0	0	-1	1500
26301035	99	821	0	-100	0	230	101300000	1000	0	0	-1	1500
26313595	96	821	0	-100	0	230	101300000	1000	0	0	-1	1500
26326155	111	819	0	-100	0	230	101300000	1000	0	0	-1	1500
26338715	97	825	0	-100	0	230	101300000	1000	0	0	-1	1500
26351275	106	819	0	-100	0	230	101300000	1000	0	0	-1	1500
26363835	99	823	0	-100	0	230	101300000	1000	0	0	-1	1500
26376395	106	820	0	-100	0	230	101300000	1000	0	0	-1	1500
26388955	97	820	0	-100	0	230	101300000	1000	0	0	-1	1500
26401515	99	820	0	-100	0	230	101300000	1000	0	0	-1	1500
26414075	106	822	0	-100	0	230	101300000	1000	0	0	-1	1500
26426635	99	824	0	-100	0	230	101300000	1000	0	0	-1	1500
26439195	104	821	0	-100	0	230	101300000	1000	0	0	-1	1500
26451755	99	821	0	-100	0	230	101300000	1000	0	0	-1	1500
26464315	104	820	0	-100	0	230	101300000	1000	0	0	-1	1500
26476875	104	821	0	-100	0	230	101300000	1000	0	0	-1	1500
26489435	99	823	0	-100	0	230	101300000	1000	0	0	-1	1500
26501995	109	822	0	-100	0	230	101300000	1000	0	0	-1	1500
26514555	101	822	0	-100	0	230	101300000	1000	0	0	-1	1500
26527115	106	819	0	-100	0	230	101300000	1000	0	0	-1	1500
26539675	99	826	0	-100	0	230	101300000	1000	0	0	-1	1500
26552235	101	819	0	-100	0	230	101300000	1000	0	0	-1	1500
26564795	99	822	0	-100	0	230	101300000	1000	0	0	-1	1500
26577355	101	820	0	-100	0	230	101300000	1000	0	0	-1	1500
26589915	96	825	0	-100	0	230	101300000	1000	0	0	-1	1500
26602475	104	821	0	-100	0	230	101300000	1000	0	0	-1	1500
26615035	97	818	0	-100	0	230	101300000	1000	0	0	-1	1500
26627595	104	822	0	-100	0	230	101300000	1000	0	0	-1	1500
26640155	101	825	0	-100	0	230	101300000	1000	0	0	-1	1500
26652715	104	818	0	-100	0	230	101300000	1000	0	0	-1	1500
26665275	99	823	0	-100	0	230	101300000	1000	0	0	-1	1500
26677835	99	820	0	-100	0	230	101300000	1000	0	0	-1	1500
26690395	104	823	0	-100	0	230	101300000	1000	0	0	-1	1500
26702955	99	825	0	-100	0	230	101300000	1000	0	0	-1	1500
26715515	99	821	0	-100	0	230	101300000	1000	0	0	-1	1500
26728075	99	824	0	-100	0	230	101300000	1000	0	0	-1	1500
26740635	99	823	0	-100	0	230	101300000	1000	0	0	-1	1500
26753195	104	821	0	-100	0	230	101300000	1000	0	0	-1	1500
26765755	101	822	0	-100	0	230	101300000	1000	0	0	-1	1500
26778315	104	823	0	-100	0	230	101300000	1000	0	0	-1	1500
26790875	99	822	0	-100	0	230	101300000	1000	0	0	-1	1500
26803435	97	822	0	-100	0	230	101300000	1000	0	0	-1	1500
26815995	104	824	0	-100	0	230	101300000	1000	0	0	-1	1500
26828555	101	823	0	-100	0	230	101300000	1000	0	0	-1	1500
26841115	106	820	0	-100	0	230	101300000	1000	0	0	-1	1500
26853675	99	823	0	-100	0	230	101300000	1000	0	0	-1	1500
26866235	106	820	0	-100	0	230	101300000	1000	0	0	-1	1500
26878795	101	821	0	-100	0	230	101300000	1000	0	0	-1	1500
26891355	99	822	0	-100	0	230	101300000	1000	0	0	-1	1500
26903915	109	824	0	-100	0	230	101300000	1000	0	0	-1	1500
26916475	99	821	0	-100	0	230	101300000	1000	0	0	-1	1500
26929035	99	824	0	-100	0	230	101300000	1000	0	0	-1	1500
26941595	104	823	0	-100	0	230	101300000	1000	0	0	-1	1500
26954155	106	824	0	-100	0	230	101300000	1000	0	0	-1	1500
26966715	106	824	0	-100	0	230	101300000	1000	0	0	-1	1500
26979275	99	825	0	-100	0	230	101300000	1000	0	0	-1	1500
26991835	106	818	0	-100	0	230	101300000	1000	0	0	-1	1500
27004395	101	822	0	-100	0	230	101300000	1000	0	0	-1	1500
27016955	106	823	0	-100	0	230	101300000	1000	0	0	-1	1500
27029515	99	822	0	-100	0	230	101300000	1000	0	0	-1	1500
27042075	97	823	0	-100	0	230	101300000	1000	0	0	-1	1500
