timestamp	voltage	current	windSpeed	pitchAngle	rpm	temperature	ambientPressure	humidity	accelerationX	accelerationY	accelerationZ	currentSink
7039070	4011	6	0	-100	0	230	101300000	1000	0	0	-1	0
7046523	4015	0	0	-100	0	230	101300000	1000	0	0	-1	0
7059083	4018	0	0	-100	0	230	101300000	1000	0	0	-1	0
7071643	4009	3	0	-100	0	230	101300000	1000	0	0	-1	0
7084203	4012	0	0	-100	0	230	101300000	1000	0	0	-1	0
7096763	4013	1	0	-100	0	230	101300000	1000	0	0	-1	0
7109323	4007	0	0	-100	0	230	101300000	1000	0	0	-1	0
7121883	4011	0	0	-100	0	230	101300000	1000	0	0	-1	0
7134443	4011	0	0	-100	0	230	101300000	1000	0	0	-1	0
7147004	4006	4	0	-100	0	230	101300000	1000	0	0	-1	0
7159563	4011	4	0	-100	0	230	101300000	1000	0	0	-1	0
7172123	4011	0	0	-100	0	230	101300000	1000	0	0	-1	0
7184683	4015	0	0	-100	0	230	101300000	1000	0	0	-1	0
7197243	4008	4	0	-100	0	230	101300000	1000	0	0	-1	0
7209803	4007	0	0	-100	0	230	101300000	1000	0	0	-1	0
7222363	4018	0	0	-100	0	230	101300000	1000	0	0	-1	0
7234923	4009	4	0	-100	0	230	101300000	1000	0	0	-1	0
7247483	4012	0	0	-100	0	230	101300000	1000	0	0	-1	0
7260043	4018	0	0	-100	0	230	101300000	1000	0	0	-1	0
7272603	4008	0	0	-100	0	230	101300000	1000	0	0	-1	0
7285163	4010	0	0	-100	0	230	101300000	1000	0	0	-1	0
7297723	4009	3	0	-100	0	230	101300000	1000	0	0	-1	0
7310283	4008	0	0	-100	0	230	101300000	1000	0	0	-1	0
7322843	4016	0	0	-100	0	230	101300000	1000	0	0	-1	0
7335403	4018	0	0	-100	0	230	101300000	1000	0	0	-1	0
7347963	4008	4	0	-100	0	230	101300000	1000	0	0	-1	0
7691115	123	924	0	-100	0	230	101300000	1000	0	0	-1	1500
7703675	118	927	0	-100	0	230	101300000	1000	0	0	-1	1500
7716235	118	929	0	-100	0	230	101300000	1000	0	0	-1	1500
7728795	121	926	0	-100	0	230	101300000	1000	0	0	-1	1500
7741355	118	930	0	-100	0	230	101300000	1000	0	0	-1	1500
7753915	123	922	0	-100	0	230	101300000	1000	0	0	-1	1500
7766475	128	927	0	-100	0	230	101300000	1000	0	0	-1	1500
7779035	123	925	0	-100	0	230	101300000	1000	0	0	-1	1500
7791595	116	926	0	-100	0	230	101300000	1000	0	0	-1	1500
7804155	118	929	0	-100	0	230	101300000	1000	0	0	-1	1500
7816715	118	925	0	-100	0	230	101300000	1000	0	0	-1	1500
7829275	126	928	0	-100	0	230	101300000	1000	0	0	-1	1500
7841835	126	926	0	-100	0	230	101300000	1000	0	0	-1	1500
7854395	118	927	0	-100	0	230	101300000	1000	0	0	-1	1500
7866955	118	929	0	-100	0	230	101300000	1000	0	0	-1	1500
7879515	118	929	0	-100	0	230	101300000	1000	0	0	-1	1500
7892075	121	923	0	-100	0	230	101300000	1000	0	0	-1	1500
7904635	126	928	0	-100	0	230	101300000	1000	0	0	-1	1500
7917195	126	925	0	-100	0	230	101300000	1000	0	0	-1	1500
7929755	116	927	0	-100	0	230	101300000	1000	0	0	-1	1500
7942315	118	928	0	-100	0	230	101300000	1000	0	0	-1	1500
7954875	116	926	0	-100	0	230	101300000	1000	0	0	-1	1500
7967435	118	924	0	-100	0	230	101300000	1000	0	0	-1	1500
7979995	126	925	0	-100	0	230	101300000	1000	0	0	-1	1500
7992555	123	926	0	-100	0	230	101300000	1000	0	0	-1	1500
8005115	118	925	0	-100	0	230	101300000	1000	0	0	-1	1500
8017675	118	926	0	-100	0	230	101300000	1000	0	0	-1	1500
8030235	123	926	0	-100	0	230	101300000	1000	0	0	-1	1500
8042795	123	922	0	-100	0	230	101300000	1000	0	0	-1	1500
8055355	116	926	0	-100	0	230	101300000	1000	0	0	-1	1500
8067915	118	928	0	-100	0	230	101300000	1000	0	0	-1	1500
8080475	118	921	0	-100	0	230	101300000	1000	0	0	-1	1500
8093035	126	924	0	-100	0	230	101300000	1000	0	0	-1	1500
8105595	118	929	0	-100	0	230	101300000	1000	0	0	-1	1500
8118155	113	925	0	-100	0	230	101300000	1000	0	0	-1	1500
8130715	123	922	0	-100	0	230	101300000	1000	0	0	-1	1500
8143275	121	928	0	-100	0	230	101300000	1000	0	0	-1	1500
8155835	118	928	0	-100	0	230	101300000	1000	0	0	-1	1500
8168395	118	931	0	-100	0	230	101300000	1000	0	0	-1	1500
8180955	126	925	0	-100	0	230	101300000	1000	0	0	-1	1500
8193515	126	925	0	-100	0	230	101300000	1000	0	0	-1	1500
8206075	116	926	0	-100	0	230	101300000	1000	0	0	-1	1500
8218635	116	927	0	-100	0	230	101300000	1000	0	0	-1	1500
8231195	118	924	0	-100	0	230	101300000	1000	0	0	-1	1500
8243755	123	924	0	-100	0	230	101300000	1000	0	0	-1	1500
8256315	118	926	0	-100	0	230	101300000	1000	0	0	-1	1500
8268875	116	931	0	-100	0	230	101300000	1000	0	0	-1	1500
8281435	123	921	0	-100	0	230	101300000	1000	0	0	-1	1500
8293995	118	925	0	-100	0	230	101300000	1000	0	0	-1	1500
8306555	123	924	0	-100	0	230	101300000	1000	0	0	-1	1500
8319115	118	925	0	-100	0	230	101300000	1000	0	0	-1	1500
8331675	121	924	0	-100	0	230	101300000	1000	0	0	-1	1500
8344235	123	922	0	-100	0	230	101300000	1000	0	0	-1	1500
8356795	121	926	0	-100	0	230	101300000	1000	0	0	-1	1500
8369355	118	921	0	-100	0	230	101300000	1000	0	0	-1	1500
8381915	123	924	0	-100	0	230	101300000	1000	0	0	-1	1500
8394475	116	929	0	-100	0	230	101300000	1000	0	0	-1	1500
8407035	121	936	0	-100	0	230	101300000	1000	0	0	-1	1500
8419595	128	925	0	-100	0	230	101300000	1000	0	0	-1	1500
8432155	118	926	0	-100	0	230	101300000	1000	0	0	-1	1500
8444715	123	925	0	-100	0	230	101300000	1000	0	0	-1	1500
8457275	116	926	0	-100	0	230	101300000	1000	0	0	-1	1500
8469835	121	925	0	-100	0	230	101300000	1000	0	0	-1	1500
8482395	126	923	0	-100	0	230	101300000	1000	0	0	-1	1500
8494955	116	925	0	-100	0	230	101300000	1000	0	0	-1	1500
8507515	118	922	0	-100	0	230	101300000	1000	0	0	-1	1500
8520075	123	924	0	-100	0	230	101300000	1000	0	0	-1	1500
8532635	126	922	0	-100	0	230	101300000	1000	0	0	-1	1500
8545195	118	923	0	-100	0	230	101300000	1000	0	0	-1	1500
8557755	118	926	0	-100	0	230	101300000	1000	0	0	-1	1500
8570315	118	927	0	-100	0	230	101300000	1000	0	0	-1	1500
8582875	121	922	0	-100	0	230	101300000	1000	0	0	-1	1500
8595435	123	927	0	-100	0	230	101300000	1000	0	0	-1	1500
8607995	123	927	0	-100	0	230	101300000	1000	0	0	-1	1500
8620555	126	924	0	-100	0	230	101300000	1000	0	0	-1	1500
8633115	126	926	0	-100	0	230	101300000	1000	0	0	-1	1500
8645675	126	931	0	-100	0	230	101300000	1000	0	0	-1	1500
8658235	126	920	0	-100	0	230	101300000	1000	0	0	-1	1500
8670795	123	923	0	-100	0	230	101300000	1000	0	0	-1	1500
8683355	126	925	0	-100	0	230	101300000	1000	0	0	-1	1500
8695915	118	925	0	-100	0	230	101300000	1000	0	0	-1	1500
8708475	116	925	0	-100	0	230	101300000	1000	0	0	-1	1500
8721035	118	941	0	-100	0	230	101300000	1000	0	0	-1	1500
8733595	118	923	0	-100	0	230	101300000	1000	0	0	-1	1500
8746155	116	925	0	-100	0	230	101300000	1000	0	0	-1	1500
8758715	123	925	0	-100	0	230	101300000	1000	0	0	-1	1500
8771275	123	923	0	-100	0	230	101300000	1000	0	0	-1	1500
8783835	118	922	0	-100	0	230	101300000	1000	0	0	-1	1500
8796395	118	925	0	-100	0	230	101300000	1000	0	0	-1	1500
8808955	118	926	0	-100	0	230	101300000	1000	0	0	-1	1500
8821515	121	925	0	-100	0	230	101300000	1000	0	0	-1	1500
8834075	123	925	0	-100	0	230	101300000	1000	0	0	-1	1500
8846635	123	925	0	-100	0	230	101300000	1000	0	0	-1	1500
8859195	126	924	0	-100	0	230	101300000	1000	0	0	-1	1500
8871755	123	924	0	-100	0	230	101300000	1000	0	0	-1	1500
8884315	123	921	0	-100	0	230	101300000	1000	0	0	-1	1500
8896875	126	938	0	-100	0	230	101300000	1000	0	0	-1	1500
8909435	123	921	0	-100	0	230	101300000	1000	0	0	-1	1500
8921995	126	927	0	-100	0	230	101300000	1000	0	0	-1	1500
8934555	121	926	0	-100	0	230	101300000	1000	0	0	-1	1500
8947115	116	928	0	-100	0	230	101300000	1000	0	0	-1	1500
8959675	118	928	0	-100	0	230	101300000	1000	0	0	-1	1500
8972235	121	926	0	-100	0	230	101300000	1000	0	0	-1	1500
8984795	116	928	0	-100	0	230	101300000	1000	0	0	-1	1500
8997355	123	925	0	-100	0	230	101300000	1000	0	0	-1	1500
9009915	123	924	0	-100	0	230	101300000	1000	0	0	-1	1500
9022475	121	925	0	-100	0	230	101300000	1000	0	0	-1	1500
9035035	116	926	0	-100	0	230	101300000	1000	0	0	-1	1500
9047595	121	927	0	-100	0	230	101300000	1000	0	0	-1	1500
9060155	116	923	0	-100	0	230	101300000	1000	0	0	-1	1500
9072715	121	923	0	-100	0	230	101300000	1000	0	0	-1	1500
9085275	126	927	0	-100	0	230	101300000	1000	0	0	-1	1500
9097835	118	927	0	-100	0	230	101300000	1000	0	0	-1	1500
9110395	121	928	0	-100	0	230	101300000	1000	0	0	-1	1500
9122955	118	924	0	-100	0	230	101300000	1000	0	0	-1	1500
9135515	126	923	0	-100	0	230	101300000	1000	0	0	-1	1500
9148075	118	923	0	-100	0	230	101300000	1000	0	0	-1	1500
9160635	121	930	0	-100	0	230	101300000	1000	0	0	-1	1500
9173195	121	929	0	-100	0	230	101300000	1000	0	0	-1	1500
9185755	126	925	0	-100	0	230	101300000	1000	0	0	-1	1500
9198315	126	928	0	-100	0	230	101300000	1000	0	0	-1	1500
9210875	116	925	0	-100	0	230	101300000	1000	0	0	-1	1500
9223435	121	926	0	-100	0	230	101300000	1000	0	0	-1	1500
9235995	121	924	0	-100	0	230	101300000	1000	0	0	-1	1500
9248555	126	926	0	-100	0	230	101300000	1000	0	0	-1	1500
9261115	121	926	0	-100	0	230	101300000	1000	0	0	-1	1500
9273675	118	929	0	-100	0	230	101300000	1000	0	0	-1	1500
9286235	118	935	0	-100	0	230	101300000	1000	0	0	-1	1500
9298795	126	928	0	-100	0	230	101300000	1000	0	0	-1	1500
9311355	123	925	0	-100	0	230	101300000	1000	0	0	-1	1500
9323915	116	927	0	-100	0	230	101300000	1000	0	0	-1	1500
9336475	116	928	0	-100	0	230	101300000	1000	0	0	-1	1500
9349035	126	924	0	-100	0	230	101300000	1000	0	0	-1	1500
9361595	118	922	0	-100	0	230	101300000	1000	0	0	-1	1500
9374155	116	930	0	-100	0	230	101300000	1000	0	0	-1	1500
9386715	121	925	0	-100	0	230	101300000	1000	0	0	-1	1500
9399275	126	928	0	-100	0	230	101300000	1000	0	0	-1	1500
9411835	116	930	0	-100	0	230	101300000	1000	0	0	-1	1500
9424395	118	924	0	-100	0	230	101300000	1000	0	0	-1	1500
9436955	126	925	0	-100	0	230	101300000	1000	0	0	-1	1500
9449515	116	930	0	-100	0	230	101300000	1000	0	0	-1	1500
9462075	121	925	0	-100	0	230	101300000	1000	0	0	-1	1500
9474635	126	923	0	-100	0	230	101300000	1000	0	0	-1	1500
9487195	118	925	0	-100	0	230	101300000	1000	0	0	-1	1500
9499755	121	927	0	-100	0	230	101300000	1000	0	0	-1	1500
9512315	123	922	0	-100	0	230	101300000	1000	0	0	-1	1500
9524875	126	925	0	-100	0	230	101300000	1000	0	0	-1	1500
9537435	118	929	0	-100	0	230	101300000	1000	0	0	-1	1500
9549995	123	924	0	-100	0	230	101300000	1000	0	0	-1	1500
9562555	128	925	0	-100	0	230	101300000	1000	0	0	-1	1500
9575115	118	924	0	-100	0	230	101300000	1000	0	0	-1	1500
9587675	118	928	0	-100	0	230	101300000	1000	0	0	-1	1500
9600235	118	923	0	-100	0	230	101300000	1000	0	0	-1	1500
9612795	118	926	0	-100	0	230	101300000	1000	0	0	-1	1500
9625355	123	924	0	-100	0	230	101300000	1000	0	0	-1	1500
9637915	126	925	0	-100	0	230	101300000	1000	0	0	-1	1500
9650475	118	929	0	-100	0	230	101300000	1000	0	0	-1	1500
9663035	118	922	0	-100	0	230	101300000	1000	0	0	-1	1500
9675595	126	921	0	-100	0	230	101300000	1000	0	0	-1	1500
9688155	111	926	0	-100	0	230	101300000	1000	0	0	-1	1500
9700715	118	925	0	-100	0	230	101300000	1000	0	0	-1	1500
9713275	123	925	0	-100	0	230	101300000	1000	0	0	-1	1500
9725835	123	925	0	-100	0	230	101300000	1000	0	0	-1	1500
9738395	126	921	0	-100	0	230	101300000	1000	0	0	-1	1500
9750955	126	929	0	-100	0	230	101300000	1000	0	0	-1	1500
9763515	123	926	0	-100	0	230	101300000	1000	0	0	-1	1500
9776075	121	922	0	-100	0	230	101300000	1000	0	0	-1	1500
9788635	116	928	0	-100	0	230	101300000	1000	0	0	-1	1500
9801195	116	926	0	-100	0	230	101300000	1000	0	0	-1	1500
9813755	118	926	0	-100	0	230	101300000	1000	0	0	-1	1500
9826315	121	925	0	-100	0	230	101300000	1000	0	0	-1	1500
9838875	123	922	0	-100	0	230	101300000	1000	0	0	-1	1500
9851435	126	922	0	-100	0	230	101300000	1000	0	0	-1	1500
9863995	123	927	0	-100	0	230	101300000	1000	0	0	-1	1500
9876555	116	925	0	-100	0	230	101300000	1000	0	0	-1	1500
9889115	118	928	0	-100	0	230	101300000	1000	0	0	-1	1500
9901675	118	923	0	-100	0	230	101300000	1000	0	0	-1	1500
9914235	121	924	0	-100	0	230	101300000	1000	0	0	-1	1500
9926795	123	924	0	-100	0	230	101300000	1000	0	0	-1	1500
9939355	126	925	0	-100	0	230	101300000	1000	0	0	-1	1500
9951915	118	925	0	-100	0	230	101300000	1000	0	0	-1	1500
9964475	118	928	0	-100	0	230	101300000	1000	0	0	-1	1500
9977035	118	928	0	-100	0	230	101300000	1000	0	0	-1	1500
9989595	118	925	0	-100	0	230	101300000	1000	0	0	-1	1500
10002155	121	923	0	-100	0	230	101300000	1000	0	0	-1	1500
10014715	126	926	0	-100	0	230	101300000	1000	0	0	-1	1500
10027275	118	925	0	-100	0	230	101300000	1000	0	0	-1	1500
10039835	118	924	0	-100	0	230	101300000	1000	0	0	-1	1500
10052395	121	926	0	-100	0	230	101300000	1000	0	0	-1	1500
10064955	123	918	0	-100	0	230	101300000	1000	0	0	-1	1500
10077515	118	928	0	-100	0	230	101300000	1000	0	0	-1	1500
10090075	118	928	0	-100	0	230	101300000	1000	0	0	-1	1500
10102635	116	929	0	-100	0	230	101300000	1000	0	0	-1	1500
10115195	123	927	0	-100	0	230	101300000	1000	0	0	-1	1500
10127755	126	921	0	-100	0	230	101300000	1000	0	0	-1	1500
10140315	121	927	0	-100	0	230	101300000	1000	0	0	-1	1500
10152875	118	926	0	-100	0	230	101300000	1000	0	0	-1	1500
10165435	121	924	0	-100	0	230	101300000	1000	0	0	-1	1500
10177995	121	926	0	-100	0	230	101300000	1000	0	0	-1	1500
10190555	126	924	0	-100	0	230	101300000	1000	0	0	-1	1500
10203115	126	922	0	-100	0	230	101300000	1000	0	0	-1	1500
10215675	123	925	0	-100	0	230	101300000	1000	0	0	-1	1500
10228235	116	927	0	-100	0	230	101300000	1000	0	0	-1	1500
10240795	118	928	0	-100	0	230	101300000	1000	0	0	-1	1500
10253355	118	925	0	-100	0	230	101300000	1000	0	0	-1	1500
10265915	116	925	0	-100	0	230	101300000	1000	0	0	-1	1500
10278475	118	925	0	-100	0	230	101300000	1000	0	0	-1	1500
10291035	123	922	0	-100	0	230	101300000	1000	0	0	-1	1500
10303595	116	932	0	-100	0	230	101300000	1000	0	0	-1	1500
10316155	116	923	0	-100	0	230	101300000	1000	0	0	-1	1500
10328715	123	922	0	-100	0	230	101300000	1000	0	0	-1	1500
10341275	126	924	0	-100	0	230	101300000	1000	0	0	-1	1500
10353835	126	922	0	-100	0	230	101300000	1000	0	0	-1	1500
10366395	118	926	0	-100	0	230	101300000	1000	0	0	-1	1500
10378955	121	928	0	-100	0	230	101300000	1000	0	0	-1	1500
10391515	118	924	0	-100	0	230	101300000	1000	0	0	-1	1500
10404075	121	926	0	-100	0	230	101300000	1000	0	0	-1	1500
10416635	123	924	0	-100	0	230	101300000	1000	0	0	-1	1500
10429195	123	921	0	-100	0	230	101300000	1000	0	0	-1	1500
10441755	121	924	0	-100	0	230	101300000	1000	0	0	-1	1500
10454315	118	928	0	-100	0	230	101300000	1000	0	0	-1	1500
10466875	118	926	0	-100	0	230	101300000	1000	0	0	-1	1500
10479435	123	922	0	-100	0	230	101300000	1000	0	0	-1	1500
10491995	118	922	0	-100	0	230	101300000	1000	0	0	-1	1500
10504555	116	930	0	-100	0	230	101300000	1000	0	0	-1	1500
10517115	116	931	0	-100	0	230	101300000	1000	0	0	-1	1500
10529675	123	925	0	-100	0	230	101300000	1000	0	0	-1	1500
10542235	123	923	0	-100	0	230	101300000	1000	0	0	-1	1500
10554795	116	928	0	-100	0	230	101300000	1000	0	0	-1	1500
10567355	118	926	0	-100	0	230	101300000	1000	0	0	-1	1500
10579915	123	924	0	-100	0	230	101300000	1000	0	0	-1	1500
10592475	121	926	0	-100	0	230	101300000	1000	0	0	-1	1500
10605035	116	928	0	-100	0	230	101300000	1000	0	0	-1	1500
10617595	118	927	0	-100	0	230	101300000	1000	0	0	-1	1500
10630155	121	923	0	-100	0	230	101300000	1000	0	0	-1	1500
10642715	123	923	0	-100	0	230	101300000	1000	0	0	-1	1500
10655275	116	927	0	-100	0	230	101300000	1000	0	0	-1	1500
10667835	118	924	0	-100	0	230	101300000	1000	0	0	-1	1500
10680395	123	924	0	-100	0	230	101300000	1000	0	0	-1	1500
10692955	118	925	0	-100	0	230	101300000	1000	0	0	-1	1500
10705515	118	926	0	-100	0	230	101300000	1000	0	0	-1	1500
10718075	121	924	0	-100	0	230	101300000	1000	0	0	-1	1500
10730635	126	925	0	-100	0	230	101300000	1000	0	0	-1	1500
10743195	126	925	0	-100	0	230	101300000	1000	0	0	-1	1500
10755755	121	925	0	-100	0	230	101300000	1000	0	0	-1	1500
10768315	116	941	0	-100	0	230	101300000	1000	0	0	-1	1500
10780875	116	929	0	-100	0	230	101300000	1000	0	0	-1	1500
10793435	121	925	0	-100	0	230	101300000	1000	0	0	-1	1500
10805995	123	925	0	-100	0	230	101300000	1000	0	0	-1	1500
10818555	126	928	0	-100	0	230	101300000	1000	0	0	-1	1500
10831115	118	924	0	-100	0	230	101300000	1000	0	0	-1	1500
10843675	116	929	0	-100	0	230	101300000	1000	0	0	-1	1500
10856235	118	925	0	-100	0	230	101300000	1000	0	0	-1	1500
10868795	121	924	0	-100	0	230	101300000	1000	0	0	-1	1500
10881355	126	921	0	-100	0	230	101300000	1000	0	0	-1	1500
10893915	116	927	0	-100	0	230	101300000	1000	0	0	-1	1500
10906475	116	928	0	-100	0	230	101300000	1000	0	0	-1	1500
10919035	116	927	0	-100	0	230	101300000	1000	0	0	-1	1500
10931595	126	923	0	-100	0	230	101300000	1000	0	0	-1	1500
10944155	113	926	0	-100	0	230	101300000	1000	0	0	-1	1500
10956715	118	928	0	-100	0	230	101300000	1000	0	0	-1	1500
10969275	118	926	0	-100	0	230	101300000	1000	0	0	-1	1500
10981835	121	926	0	-100	0	230	101300000	1000	0	0	-1	1500
10994395	123	925	0	-100	0	230	101300000	1000	0	0	-1	1500
11006955	123	924	0	-100	0	230	101300000	1000	0	0	-1	1500
11019515	114	926	0	-100	0	230	101300000	1000	0	0	-1	1500
11032075	118	926	0	-100	0	230	101300000	1000	0	0	-1	1500
11044635	121	926	0	-100	0	230	101300000	1000	0	0	-1	1500
11057195	126	926	0	-100	0	230	101300000	1000	0	0	-1	1500
11069755	126	926	0	-100	0	230	101300000	1000	0	0	-1	1500
11082315	121	926	0	-100	0	230	101300000	1000	0	0	-1	1500
11094875	118	926	0	-100	0	230	101300000	1000	0	0	-1	1500
11107435	126	925	0	-100	0	230	101300000	1000	0	0	-1	1500
11119995	121	924	0	-100	0	230	101300000	1000	0	0	-1	1500
11132555	116	930	0	-100	0	230	101300000	1000	0	0	-1	1500
11145115	121	924	0	-100	0	230	101300000	1000	0	0	-1	1500
11157675	126	929	0	-100	0	230	101300000	1000	0	0	-1	1500
11170235	118	927	0	-100	0	230	101300000	1000	0	0	-1	1500
11182795	121	924	0	-100	0	230	101300000	1000	0	0	-1	1500
11195355	118	923	0	-100	0	230	101300000	1000	0	0	-1	1500
11207915	118	924	0	-100	0	230	101300000	1000	0	0	-1	1500
11220475	123	924	0	-100	0	230	101300000	1000	0	0	-1	1500
11233035	116	922	0	-100	0	230	101300000	1000	0	0	-1	1500
11245595	116	927	0	-100	0	230	101300000	1000	0	0	-1	1500
11258155	121	923	0	-100	0	230	101300000	1000	0	0	-1	1500
11270715	116	941	0	-100	0	230	101300000	1000	0	0	-1	1500
11283275	118	925	0	-100	0	230	101300000	1000	0	0	-1	1500
11295835	123	921	0	-100	0	230	101300000	1000	0	0	-1	1500
11308395	116	927	0	-100	0	230	101300000	1000	0	0	-1	1500
11320955	118	928	0	-100	0	230	101300000	1000	0	0	-1	1500
11333515	126	936	0	-100	0	230	101300000	1000	0	0	-1	1500
11346075	116	930	0	-100	0	230	101300000	1000	0	0	-1	1500
11358635	121	927	0	-100	0	230	101300000	1000	0	0	-1	1500
11371195	126	923	0	-100	0	230	101300000	1000	0	0	-1	1500
11383755	116	925	0	-100	0	230	101300000	1000	0	0	-1	1500
11396315	118	923	0	-100	0	230	101300000	1000	0	0	-1	1500
11408875	121	922	0	-100	0	230	101300000	1000	0	0	-1	1500
11421435	123	918	0	-100	0	230	101300000	1000	0	0	-1	1500
11433995	118	924	0	-100	0	230	101300000	1000	0	0	-1	1500
11446555	118	945	0	-100	0	230	101300000	1000	0	0	-1	1500
11459115	123	925	0	-100	0	230	101300000	1000	0	0	-1	1500
11471675	121	924	0	-100	0	230	101300000	1000	0	0	-1	1500
11484235	121	926	0	-100	0	230	101300000	1000	0	0	-1	1500
11496795	123	924	0	-100	0	230	101300000	1000	0	0	-1	1500
11509355	121	925	0	-100	0	230	101300000	1000	0	0	-1	1500
11521915	118	927	0	-100	0	230	101300000	1000	0	0	-1	1500
11534475	121	923	0	-100	0	230	101300000	1000	0	0	-1	1500
11547035	118	925	0	-100	0	230	101300000	1000	0	0	-1	1500
11559595	116	924	0	-100	0	230	101300000	1000	0	0	-1	1500
11572155	121	921	0	-100	0	230	101300000	1000	0	0	-1	1500
11584715	118	926	0	-100	0	230	101300000	1000	0	0	-1	1500
11597275	118	924	0	-100	0	230	101300000	1000	0	0	-1	1500
11609835	126	921	0	-100	0	230	101300000	1000	0	0	-1	1500
11622395	116	926	0	-100	0	230	101300000	1000	0	0	-1	1500
11634955	118	928	0	-100	0	230	101300000	1000	0	0	-1	1500
11647515	123	924	0	-100	0	230	101300000	1000	0	0	-1	1500
11660075	116	929	0	-100	0	230	101300000	1000	0	0	-1	1500
11672635	116	928	0	-100	0	230	101300000	1000	0	0	-1	1500
11685195	121	927	0	-100	0	230	101300000	1000	0	0	-1	1500
11697755	126	921	0	-100	0	230	101300000	1000	0	0	-1	1500
11710315	116	925	0	-100	0	230	101300000	1000	0	0	-1	1500
11722875	118	924	0	-100	0	230	101300000	1000	0	0	-1	1500
11735435	123	925	0	-100	0	230	101300000	1000	0	0	-1	1500
11747995	123	926	0	-100	0	230	101300000	1000	0	0	-1	1500
11760555	118	926	0	-100	0	230	101300000	1000	0	0	-1	1500
11773115	118	924	0	-100	0	230	101300000	1000	0	0	-1	1500
11785675	123	920	0	-100	0	230	101300000	1000	0	0	-1	1500
11798235	126	928	0	-100	0	230	101300000	1000	0	0	-1	1500
11810795	114	929	0	-100	0	230	101300000	1000	0	0	-1	1500
11823355	116	929	0	-100	0	230	101300000	1000	0	0	-1	1500
11835915	123	923	0	-100	0	230	101300000	1000	0	0	-1	1500
11848475	118	929	0	-100	0	230	101300000	1000	0	0	-1	1500
11861035	118	926	0	-100	0	230	101300000	1000	0	0	-1	1500
11873595	118	925	0	-100	0	230	101300000	1000	0	0	-1	1500
11886155	123	921	0	-100	0	230	101300000	1000	0	0	-1	1500
11898715	118	923	0	-100	0	230	101300000	1000	0	0	-1	1500
11911275	116	928	0	-100	0	230	101300000	1000	0	0	-1	1500
11923835	118	924	0	-100	0	230	101300000	1000	0	0	-1	1500
11936395	118	930	0	-100	0	230	101300000	1000	0	0	-1	1500
11948955	118	928	0	-100	0	230	101300000	1000	0	0	-1	1500
11961515	121	924	0	-100	0	230	101300000	1000	0	0	-1	1500
11974075	123	925	0	-100	0	230	101300000	1000	0	0	-1	1500
11986635	128	924	0	-100	0	230	101300000	1000	0	0	-1	1500
11999195	121	927	0	-100	0	230	101300000	1000	0	0	-1	1500
12011755	121	928	0	-100	0	230	101300000	1000	0	0	-1	1500
12024315	118	928	0	-100	0	230	101300000	1000	0	0	-1	1500
12036875	116	927	0	-100	0	230	101300000	1000	0	0	-1	1500
12049435	121	923	0	-100	0	230	101300000	1000	0	0	-1	1500
12061995	121	928	0	-100	0	230	101300000	1000	0	0	-1	1500
12074555	121	925	0	-100	0	230	101300000	1000	0	0	-1	1500
12087115	123	925	0	-100	0	230	101300000	1000	0	0	-1	1500
12099675	128	922	0	-100	0	230	101300000	1000	0	0	-1	1500
12112235	123	924	0	-100	0	230	101300000	1000	0	0	-1	1500
12124795	116	923	0	-100	0	230	101300000	1000	0	0	-1	1500
12137355	116	926	0	-100	0	230	101300000	1000	0	0	-1	1500
12149915	116	928	0	-100	0	230	101300000	1000	0	0	-1	1500
12162475	126	925	0	-100	0	230	101300000	1000	0	0	-1	1500
12175035	128	922	0	-100	0	230	101300000	1000	0	0	-1	1500
12187595	118	927	0	-100	0	230	101300000	1000	0	0	-1	1500
12200155	113	925	0	-100	0	230	101300000	1000	0	0	-1	1500
12212715	123	924	0	-100	0	230	101300000	1000	0	0	-1	1500
12225275	126	924	0	-100	0	230	101300000	1000	0	0	-1	1500
12237835	116	923	0	-100	0	230	101300000	1000	0	0	-1	1500
12250395	118	926	0	-100	0	230	101300000	1000	0	0	-1	1500
12262955	118	928	0	-100	0	230	101300000	1000	0	0	-1	1500
12275515	118	926	0	-100	0	230	101300000	1000	0	0	-1	1500
12288075	126	923	0	-100	0	230	101300000	1000	0	0	-1	1500
12300635	118	922	0	-100	0	230	101300000	1000	0	0	-1	1500
12313195	116	926	0	-100	0	230	101300000	1000	0	0	-1	1500
12325755	123	925	0	-100	0	230	101300000	1000	0	0	-1	1500
12338315	121	928	0	-100	0	230	101300000	1000	0	0	-1	1500
12350875	123	918	0	-100	0	230	101300000	1000	0	0	-1	1500
12363435	118	925	0	-100	0	230	101300000	1000	0	0	-1	1500
12375995	116	926	0	-100	0	230	101300000	1000	0	0	-1	1500
12388555	118	923	0	-100	0	230	101300000	1000	0	0	-1	1500
12401115	126	921	0	-100	0	230	101300000	1000	0	0	-1	1500
12413675	116	929	0	-100	0	230	101300000	1000	0	0	-1	1500
12426235	121	925	0	-100	0	230	101300000	1000	0	0	-1	1500
12438795	123	922	0	-100	0	230	101300000	1000	0	0	-1	1500
12451355	123	926	0	-100	0	230	101300000	1000	0	0	-1	1500
12463915	118	925	0	-100	0	230	101300000	1000	0	0	-1	1500
12476475	121	926	0	-100	0	230	101300000	1000	0	0	-1	1500
12489035	121	924	0	-100	0	230	101300000	1000	0	0	-1	1500
12501595	116	926	0	-100	0	230	101300000	1000	0	0	-1	1500
12514155	123	928	0	-100	0	230	101300000	1000	0	0	-1	1500
12526715	121	928	0	-100	0	230	101300000	1000	0	0	-1	1500
12539275	123	925	0	-100	0	230	101300000	1000	0	0	-1	1500
12551835	116	925	0	-100	0	230	101300000	1000	0	0	-1	1500
12564395	121	924	0	-100	0	230	101300000	1000	0	0	-1	1500
12576955	126	923	0	-100	0	230	101300000	1000	0	0	-1	1500
12589515	118	927	0	-100	0	230	101300000	1000	0	0	-1	1500
12602075	121	922	0	-100	0	230	101300000	1000	0	0	-1	1500
12614635	126	928	0	-100	0	230	101300000	1000	0	0	-1	1500
12627195	118	928	0	-100	0	230	101300000	1000	0	0	-1	1500
12639755	118	925	0	-100	0	230	101300000	1000	0	0	-1	1500
12652315	126	922	0	-100	0	230	101300000	1000	0	0	-1	1500
12664875	116	929	0	-100	0	230	101300000	1000	0	0	-1	1500
12677435	121	924	0	-100	0	230	101300000	1000	0	0	-1	1500
12689995	126	924	0	-100	0	230	101300000	1000	0	0	-1	1500
12702555	118	926	0	-100	0	230	101300000	1000	0	0	-1	1500
12715115	123	921	0	-100	0	230	101300000	1000	0	0	-1	1500
12727675	123	922	0	-100	0	230	101300000	1000	0	0	-1	1500
12740235	118	925	0	-100	0	230	101300000	1000	0	0	-1	1500
12752795	121	920	0	-100	0	230	101300000	1000	0	0	-1	1500
12765355	123	926	0	-100	0	230	101300000	1000	0	0	-1	1500
12777915	121	923	0	-100	0	230	101300000	1000	0	0	-1	1500
12790475	126	926	0	-100	0	230	101300000	1000	0	0	-1	1500
12803035	118	926	0	-100	0	230	101300000	1000	0	0	-1	1500
12815595	118	926	0	-100	0	230	101300000	1000	0	0	-1	1500
12828155	121	920	0	-100	0	230	101300000	1000	0	0	-1	1500
12840715	116	928	0	-100	0	230	101300000	1000	0	0	-1	1500
12853275	118	924	0	-100	0	230	101300000	1000	0	0	-1	1500
12865835	126	924	0	-100	0	230	101300000	1000	0	0	-1	1500
12878395	116	927	0	-100	0	230	101300000	1000	0	0	-1	1500
12890955	118	924	0	-100	0	230	101300000	1000	0	0	-1	1500
12903515	123	926	0	-100	0	230	101300000	1000	0	0	-1	1500
12916075	121	922	0	-100	0	230	101300000	1000	0	0	-1	1500
12928635	116	926	0	-100	0	230	101300000	1000	0	0	-1	1500
12941195	116	940	0	-100	0	230	101300000	1000	0	0	-1	1500
12953755	123	925	0	-100	0	230	101300000	1000	0	0	-1	1500
12966315	126	925	0	-100	0	230	101300000	1000	0	0	-1	1500
12978875	123	925	0	-100	0	230	101300000	1000	0	0	-1	1500
12991435	118	925	0	-100	0	230	101300000	1000	0	0	-1	1500
13003995	116	928	0	-100	0	230	101300000	1000	0	0	-1	1500
13016555	118	928	0	-100	0	230	101300000	1000	0	0	-1	1500
13029115	118	927	0	-100	0	230	101300000	1000	0	0	-1	1500
13041675	118	924	0	-100	0	230	101300000	1000	0	0	-1	1500
13054235	118	923	0	-100	0	230	101300000	1000	0	0	-1	1500
13066795	126	921	0	-100	0	230	101300000	1000	0	0	-1	1500
13079355	121	926	0	-100	0	230	101300000	1000	0	0	-1	1500
13091915	118	925	0	-100	0	230	101300000	1000	0	0	-1	1500
13104475	116	926	0	-100	0	230	101300000	1000	0	0	-1	1500
13117035	123	922	0	-100	0	230	101300000	1000	0	0	-1	1500
13129595	123	924	0	-100	0	230	101300000	1000	0	0	-1	1500
13142155	116	923	0	-100	0	230	101300000	1000	0	0	-1	1500
13154715	118	924	0	-100	0	230	101300000	1000	0	0	-1	1500
13167275	126	925	0	-100	0	230	101300000	1000	0	0	-1	1500
13179835	126	928	0	-100	0	230	101300000	1000	0	0	-1	1500
13192395	118	926	0	-100	0	230	101300000	1000	0	0	-1	1500
13204955	121	928	0	-100	0	230	101300000	1000	0	0	-1	1500
13217515	118	926	0	-100	0	230	101300000	1000	0	0	-1	1500
13230075	121	925	0	-100	0	230	101300000	1000	0	0	-1	1500
13242635	126	926	0	-100	0	230	101300000	1000	0	0	-1	1500
13255195	121	924	0	-100	0	230	101300000	1000	0	0	-1	1500
13267755	118	928	0	-100	0	230	101300000	1000	0	0	-1	1500
13280315	118	925	0	-100	0	230	101300000	1000	0	0	-1	1500
13292875	118	923	0	-100	0	230	101300000	1000	0	0	-1	1500
13305435	123	925	0	-100	0	230	101300000	1000	0	0	-1	1500
13317995	126	926	0	-100	0	230	101300000	1000	0	0	-1	1500
13330555	118	926	0	-100	0	230	101300000	1000	0	0	-1	1500
13343115	118	926	0	-100	0	230	101300000	1000	0	0	-1	1500
13355675	121	925	0	-100	0	230	101300000	1000	0	0	-1	1500
13368235	126	924	0	-100	0	230	101300000	1000	0	0	-1	1500
13380795	116	928	0	-100	0	230	101300000	1000	0	0	-1	1500
13393355	118	926	0	-100	0	230	101300000	1000	0	0	-1	1500
13405915	118	926	0	-100	0	230	101300000	1000	0	0	-1	1500
13418475	121	928	0	-100	0	230	101300000	1000	0	0	-1	1500
13431035	121	923	0	-100	0	230	101300000	1000	0	0	-1	1500
13443595	123	928	0	-100	0	230	101300000	1000	0	0	-1	1500
13456155	121	925	0	-100	0	230	101300000	1000	0	0	-1	1500
13468715	118	926	0	-100	0	230	101300000	1000	0	0	-1	1500
13481275	118	925	0	-100	0	230	101300000	1000	0	0	-1	1500
13493835	118	926	0	-100	0	230	101300000	1000	0	0	-1	1500
13506395	121	925	0	-100	0	230	101300000	1000	0	0	-1	1500
13518955	123	920	0	-100	0	230	101300000	1000	0	0	-1	1500
13531515	128	926	0	-100	0	230	101300000	1000	0	0	-1	1500
13544075	123	925	0	-100	0	230	101300000	1000	0	0	-1	1500
13556635	123	925	0	-100	0	230	101300000	1000	0	0	-1	1500
13569195	116	932	0	-100	0	230	101300000	1000	0	0	-1	1500
13581755	116	926	0	-100	0	230	101300000	1000	0	0	-1	1500
13594315	118	924	0	-100	0	230	101300000	1000	0	0	-1	1500
13606875	118	925	0	-100	0	230	101300000	1000	0	0	-1	1500
13619435	121	924	0	-100	0	230	101300000	1000	0	0	-1	1500
13631995	123	925	0	-100	0	230	101300000	1000	0	0	-1	1500
13644555	126	919	0	-100	0	230	101300000	1000	0	0	-1	1500
13657115	126	928	0	-100	0	230	101300000	1000	0	0	-1	1500
13669675	118	927	0	-100	0	230	101300000	1000	0	0	-1	1500
13682235	116	927	0	-100	0	230	101300000	1000	0	0	-1	1500
13694795	116	927	0	-100	0	230	101300000	1000	0	0	-1	1500
13707355	121	928	0	-100	0	230	101300000	1000	0	0	-1	1500
13719915	121	922	0	-100	0	230	101300000	1000	0	0	-1	1500
13732475	118	925	0	-100	0	230	101300000	1000	0	0	-1	1500
13745035	123	922	0	-100	0	230	101300000	1000	0	0	-1	1500
13757595	123	918	0	-100	0	230	101300000	1000	0	0	-1	1500
13770155	113	927	0	-100	0	230	101300000	1000	0	0	-1	1500
13782715	118	925	0	-100	0	230	101300000	1000	0	0	-1	1500
13795275	123	922	0	-100	0	230	101300000	1000	0	0	-1	1500
13807835	126	926	0	-100	0	230	101300000	1000	0	0	-1	1500
13820395	116	927	0	-100	0	230	101300000	1000	0	0	-1	1500
13832955	116	927	0	-100	0	230	101300000	1000	0	0	-1	1500
13845515	121	921	0	-100	0	230	101300000	1000	0	0	-1	1500
13858075	116	926	0	-100	0	230	101300000	1000	0	0	-1	1500
13870635	111	927	0	-100	0	230	101300000	1000	0	0	-1	1500
13883195	116	923	0	-100	0	230	101300000	1000	0	0	-1	1500
13895755	113	926	0	-100	0	230	101300000	1000	0	0	-1	1500
13908315	116	924	0	-100	0	230	101300000	1000	0	0	-1	1500
13920875	121	922	0	-100	0	230	101300000	1000	0	0	-1	1500
13933435	111	926	0	-100	0	230	101300000	1000	0	0	-1	1500
13945995	116	925	0	-100	0	230	101300000	1000	0	0	-1	1500
13958555	121	927	0	-100	0	230	101300000	1000	0	0	-1	1500
13971115	116	922	0	-100	0	230	101300000	1000	0	0	-1	1500
13983675	113	928	0	-100	0	230	101300000	1000	0	0	-1	1500
13996235	113	929	0	-100	0	230	101300000	1000	0	0	-1	1500
14008795	121	923	0	-100	0	230	101300000	1000	0	0	-1	1500
14021355	111	923	0	-100	0	230	101300000	1000	0	0	-1	1500
14033915	116	925	0	-100	0	230	101300000	1000	0	0	-1	1500
14046475	113	922	0	-100	0	230	101300000	1000	0	0	-1	1500
14059035	121	925	0	-100	0	230	101300000	1000	0	0	-1	1500
14071595	118	926	0	-100	0	230	101300000	1000	0	0	-1	1500
14084155	121	926	0	-100	0	230	101300000	1000	0	0	-1	1500
14096715	113	926	0	-100	0	230	101300000	1000	0	0	-1	1500
14109275	114	927	0	-100	0	230	101300000	1000	0	0	-1	1500
14121835	113	921	0	-100	0	230	101300000	1000	0	0	-1	1500
14134395	118	925	0	-100	0	230	101300000	1000	0	0	-1	1500
14146955	113	924	0	-100	0	230	101300000	1000	0	0	-1	1500
14159515	113	926	0	-100	0	230	101300000	1000	0	0	-1	1500
14172075	121	923	0	-100	0	230	101300000	1000	0	0	-1	1500
14184635	111	927	0	-100	0	230	101300000	1000	0	0	-1	1500
14197195	113	928	0	-100	0	230	101300000	1000	0	0	-1	1500
14209755	121	922	0	-100	0	230	101300000	1000	0	0	-1	1500
14222315	116	923	0	-100	0	230	101300000	1000	0	0	-1	1500
14234875	116	926	0	-100	0	230	101300000	1000	0	0	-1	1500
14247435	116	925	0	-100	0	230	101300000	1000	0	0	-1	1500
14259995	121	922	0	-100	0	230	101300000	1000	0	0	-1	1500
14272555	111	924	0	-100	0	230	101300000	1000	0	0	-1	1500
14285115	111	926	0	-100	0	230	101300000	1000	0	0	-1	1500
14297675	118	922	0	-100	0	230	101300000	1000	0	0	-1	1500
14310235	113	926	0	-100	0	230	101300000	1000	0	0	-1	1500
14322795	113	924	0	-100	0	230	101300000	1000	0	0	-1	1500
14335355	113	926	0	-100	0	230	101300000	1000	0	0	-1	1500
14347915	118	925	0	-100	0	230	101300000	1000	0	0	-1	1500
14360475	116	923	0	-100	0	230	101300000	1000	0	0	-1	1500
14373035	114	929	0	-100	0	230	101300000	1000	0	0	-1	1500
14385595	116	922	0	-100	0	230	101300000	1000	0	0	-1	1500
14398155	126	920	0	-100	0	230	101300000	1000	0	0	-1	1500
14410715	111	926	0	-100	0	230	101300000	1000	0	0	-1	1500
14423275	113	924	0	-100	0	230	101300000	1000	0	0	-1	1500
14435835	113	928	0	-100	0	230	101300000	1000	0	0	-1	1500
14448395	118	927	0	-100	0	230	101300000	1000	0	0	-1	1500
14460955	114	923	0	-100	0	230	101300000	1000	0	0	-1	1500
14473515	116	927	0	-100	0	230	101300000	1000	0	0	-1	1500
14486075	116	925	0	-100	0	230	101300000	1000	0	0	-1	1500
14498635	121	920	0	-100	0	230	101300000	1000	0	0	-1	1500
14511195	111	926	0	-100	0	230	101300000	1000	0	0	-1	1500
14523755	113	923	0	-100	0	230	101300000	1000	0	0	-1	1500
14536315	121	924	0	-100	0	230	101300000	1000	0	0	-1	1500
14548875	114	927	0	-100	0	230	101300000	1000	0	0	-1	1500
14561435	116	922	0	-100	0	230	101300000	1000	0	0	-1	1500
14573995	121	926	0	-100	0	230	101300000	1000	0	0	-1	1500
14586555	111	926	0	-100	0	230	101300000	1000	0	0	-1	1500
14599115	116	926	0	-100	0	230	101300000	1000	0	0	-1	1500
14611675	121	922	0	-100	0	230	101300000	1000	0	0	-1	1500
14624235	113	928	0	-100	0	230	101300000	1000	0	0	-1	1500
14636795	111	928	0	-100	0	230	101300000	1000	0	0	-1	1500
14649355	118	923	0	-100	0	230	101300000	1000	0	0	-1	1500
14661915	121	918	0	-100	0	230	101300000	1000	0	0	-1	1500
14674475	113	927	0	-100	0	230	101300000	1000	0	0	-1	1500
14687035	111	927	0	-100	0	230	101300000	1000	0	0	-1	1500
14699595	121	941	0	-100	0	230	101300000	1000	0	0	-1	1500
14712155	126	924	0	-100	0	230	101300000	1000	0	0	-1	1500
14724715	114	927	0	-100	0	230	101300000	1000	0	0	-1	1500
14737275	116	930	0	-100	0	230	101300000	1000	0	0	-1	1500
14749835	116	924	0	-100	0	230	101300000	1000	0	0	-1	1500
14762395	121	923	0	-100	0	230	101300000	1000	0	0	-1	1500
14774955	116	923	0	-100	0	230	101300000	1000	0	0	-1	1500
14787515	113	927	0	-100	0	230	101300000	1000	0	0	-1	1500
14800075	113	923	0	-100	0	230	101300000	1000	0	0	-1	1500
14812635	121	923	0	-100	0	230	101300000	1000	0	0	-1	1500
14825195	118	928	0	-100	0	230	101300000	1000	0	0	-1	1500
14837755	113	925	0	-100	0	230	101300000	1000	0	0	-1	1500
14850315	113	932	0	-100	0	230	101300000	1000	0	0	-1	1500
14862875	121	920	0	-100	0	230	101300000	1000	0	0	-1	1500
14875435	121	927	0	-100	0	230	101300000	1000	0	0	-1	1500
14887995	111	926	0	-100	0	230	101300000	1000	0	0	-1	1500
14900555	118	923	0	-100	0	230	101300000	1000	0	0	-1	1500
14913115	118	924	0	-100	0	230	101300000	1000	0	0	-1	1500
14925675	121	921	0	-100	0	230	101300000	1000	0	0	-1	1500
14938235	111	928	0	-100	0	230	101300000	1000	0	0	-1	1500
14950795	113	926	0	-100	0	230	101300000	1000	0	0	-1	1500
14963355	121	924	0	-100	0	230	101300000	1000	0	0	-1	1500
14975915	114	926	0	-100	0	230	101300000	1000	0	0	-1	1500
14988475	113	925	0	-100	0	230	101300000	1000	0	0	-1	1500
15001035	118	923	0	-100	0	230	101300000	1000	0	0	-1	1500
15013595	118	925	0	-100	0	230	101300000	1000	0	0	-1	1500
15026155	118	928	0	-100	0	230	101300000	1000	0	0	-1	1500
15038715	113	922	0	-100	0	230	101300000	1000	0	0	-1	1500
15051275	118	922	0	-100	0	230	101300000	1000	0	0	-1	1500
15063835	113	927	0	-100	0	230	101300000	1000	0	0	-1	1500
15076395	118	924	0	-100	0	230	101300000	1000	0	0	-1	1500
15088955	121	922	0	-100	0	230	101300000	1000	0	0	-1	1500
15101515	116	926	0	-100	0	230	101300000	1000	0	0	-1	1500
15114075	113	926	0	-100	0	230	101300000	1000	0	0	-1	1500
15126635	121	921	0	-100	0	230	101300000	1000	0	0	-1	1500
15139195	113	926	0	-100	0	230	101300000	1000	0	0	-1	1500
15151755	121	924	0	-100	0	230	101300000	1000	0	0	-1	1500
15164315	116	922	0	-100	0	230	101300000	1000	0	0	-1	1500
15176875	113	926	0	-100	0	230	101300000	1000	0	0	-1	1500
15189435	118	926	0	-100	0	230	101300000	1000	0	0	-1	1500
15201995	113	924	0	-100	0	230	101300000	1000	0	0	-1	1500
15214555	116	923	0	-100	0	230	101300000	1000	0	0	-1	1500
15227115	118	925	0	-100	0	230	101300000	1000	0	0	-1	1500
15239675	114	927	0	-100	0	230	101300000	1000	0	0	-1	1500
15252235	113	926	0	-100	0	230	101300000	1000	0	0	-1	1500
15264795	121	935	0	-100	0	230	101300000	1000	0	0	-1	1500
15277355	113	926	0	-100	0	230	101300000	1000	0	0	-1	1500
15289915	116	924	0	-100	0	230	101300000	1000	0	0	-1	1500
15302475	116	924	0	-100	0	230	101300000	1000	0	0	-1	1500
15315035	116	921	0	-100	0	230	101300000	1000	0	0	-1	1500
15327595	123	924	0	-100	0	230	101300000	1000	0	0	-1	1500
15340155	118	927	0	-100	0	230	101300000	1000	0	0	-1	1500
15352715	113	929	0	-100	0	230	101300000	1000	0	0	-1	1500
15365275	121	918	0	-100	0	230	101300000	1000	0	0	-1	1500
15377835	113	927	0	-100	0	230	101300000	1000	0	0	-1	1500
15390395	113	926	0	-100	0	230	101300000	1000	0	0	-1	1500
15402955	121	920	0	-100	0	230	101300000	1000	0	0	-1	1500
15415515	111	927	0	-100	0	230	101300000	1000	0	0	-1	1500
15428075	113	928	0	-100	0	230	101300000	1000	0	0	-1	1500
15440635	121	922	0	-100	0	230	101300000	1000	0	0	-1	1500
15453195	113	924	0	-100	0	230	101300000	1000	0	0	-1	1500
15465755	113	928	0	-100	0	230	101300000	1000	0	0	-1	1500
15478315	116	923	0	-100	0	230	101300000	1000	0	0	-1	1500
15490875	116	920	0	-100	0	230	101300000	1000	0	0	-1	1500
15503435	113	927	0	-100	0	230	101300000	1000	0	0	-1	1500
15515995	116	925	0	-100	0	230	101300000	1000	0	0	-1	1500
15528555	121	928	0	-100	0	230	101300000	1000	0	0	-1	1500
15541115	116	926	0	-100	0	230	101300000	1000	0	0	-1	1500
15553675	113	926	0	-100	0	230	101300000	1000	0	0	-1	1500
15566235	121	925	0	-100	0	230	101300000	1000	0	0	-1	1500
15578795	111	926	0	-100	0	230	101300000	1000	0	0	-1	1500
15591355	113	930	0	-100	0	230	101300000	1000	0	0	-1	1500
15603915	121	940	0	-100	0	230	101300000	1000	0	0	-1	1500
15616475	116	921	0	-100	0	230	101300000	1000	0	0	-1	1500
15629035	114	925	0	-100	0	230	101300000	1000	0	0	-1	1500
15641595	113	926	0	-100	0	230	101300000	1000	0	0	-1	1500
15654155	126	923	0	-100	0	230	101300000	1000	0	0	-1	1500
15666715	113	922	0	-100	0	230	101300000	1000	0	0	-1	1500
15679275	116	924	0	-100	0	230	101300000	1000	0	0	-1	1500
15691835	121	922	0	-100	0	230	101300000	1000	0	0	-1	1500
15704395	118	927	0	-100	0	230	101300000	1000	0	0	-1	1500
15716955	113	925	0	-100	0	230	101300000	1000	0	0	-1	1500
15729515	113	925	0	-100	0	230	101300000	1000	0	0	-1	1500
15742075	121	919	0	-100	0	230	101300000	1000	0	0	-1	1500
15754635	111	923	0	-100	0	230	101300000	1000	0	0	-1	1500
15767195	116	922	0	-100	0	230	101300000	1000	0	0	-1	1500
15779755	118	923	0	-100	0	230	101300000	1000	0	0	-1	1500
15792315	113	924	0	-100	0	230	101300000	1000	0	0	-1	1500
15804875	113	927	0	-100	0	230	101300000	1000	0	0	-1	1500
15817435	121	921	0	-100	0	230	101300000	1000	0	0	-1	1500
15829995	116	924	0	-100	0	230	101300000	1000	0	0	-1	1500
15842555	113	927	0	-100	0	230	101300000	1000	0	0	-1	1500
15855115	123	925	0	-100	0	230	101300000	1000	0	0	-1	1500
15867675	113	924	0	-100	0	230	101300000	1000	0	0	-1	1500
15880235	116	929	0	-100	0	230	101300000	1000	0	0	-1	1500
15892795	116	923	0	-100	0	230	101300000	1000	0	0	-1	1500
15905355	121	926	0	-100	0	230	101300000	1000	0	0	-1	1500
15917915	114	924	0	-100	0	230	101300000	1000	0	0	-1	1500
15930475	113	928	0	-100	0	230	101300000	1000	0	0	-1	1500
15943035	116	924	0	-100	0	230	101300000	1000	0	0	-1	1500
15955595	121	919	0	-100	0	230	101300000	1000	0	0	-1	1500
15968155	118	926	0	-100	0	230	101300000	1000	0	0	-1	1500
15980715	113	930	0	-100	0	230	101300000	1000	0	0	-1	1500
15993275	121	923	0	-100	0	230	101300000	1000	0	0	-1	1500
16005835	118	925	0	-100	0	230	101300000	1000	0	0	-1	1500
16018395	116	924	0	-100	0	230	101300000	1000	0	0	-1	1500
16030955	121	925	0	-100	0	230	101300000	1000	0	0	-1	1500
16043515	116	925	0	-100	0	230	101300000	1000	0	0	-1	1500
16056075	113	926	0	-100	0	230	101300000	1000	0	0	-1	1500
16068635	116	926	0	-100	0	230	101300000	1000	0	0	-1	1500
16081195	121	925	0	-100	0	230	101300000	1000	0	0	-1	1500
16093755	113	928	0	-100	0	230	101300000	1000	0	0	-1	1500
16106315	113	927	0	-100	0	230	101300000	1000	0	0	-1	1500
16118875	118	923	0	-100	0	230	101300000	1000	0	0	-1	1500
16131435	116	923	0	-100	0	230	101300000	1000	0	0	-1	1500
16143995	114	922	0	-100	0	230	101300000	1000	0	0	-1	1500
16156555	116	925	0	-100	0	230	101300000	1000	0	0	-1	1500
16169115	123	924	0	-100	0	230	101300000	1000	0	0	-1	1500
16181675	113	924	0	-100	0	230	101300000	1000	0	0	-1	1500
16194235	116	926	0	-100	0	230	101300000	1000	0	0	-1	1500
16206795	116	920	0	-100	0	230	101300000	1000	0	0	-1	1500
16219355	121	921	0	-100	0	230	101300000	1000	0	0	-1	1500
16231915	113	928	0	-100	0	230	101300000	1000	0	0	-1	1500
16244475	113	928	0	-100	0	230	101300000	1000	0	0	-1	1500
16257035	118	926	0	-100	0	230	101300000	1000	0	0	-1	1500
16269595	118	926	0	-100	0	230	101300000	1000	0	0	-1	1500
16282155	118	924	0	-100	0	230	101300000	1000	0	0	-1	1500
16294715	116	923	0	-100	0	230	101300000	1000	0	0	-1	1500
16307275	116	924	0	-100	0	230	101300000	1000	0	0	-1	1500
16319835	121	923	0	-100	0	230	101300000	1000	0	0	-1	1500
16332395	111	926	0	-100	0	230	101300000	1000	0	0	-1	1500
16344955	111	927	0	-100	0	230	101300000	1000	0	0	-1	1500
16357515	118	926	0	-100	0	230	101300000	1000	0	0	-1	1500
16370075	123	925	0	-100	0	230	101300000	1000	0	0	-1	1500
16382635	111	926	0	-100	0	230	101300000	1000	0	0	-1	1500
16395195	113	931	0	-100	0	230	101300000	1000	0	0	-1	1500
16407755	121	924	0	-100	0	230	101300000	1000	0	0	-1	1500
16420315	118	924	0	-100	0	230	101300000	1000	0	0	-1	1500
16432875	111	924	0	-100	0	230	101300000	1000	0	0	-1	1500
16445435	113	928	0	-100	0	230	101300000	1000	0	0	-1	1500
16457995	121	925	0	-100	0	230	101300000	1000	0	0	-1	1500
16470555	118	924	0	-100	0	230	101300000	1000	0	0	-1	1500
16483115	113	928	0	-100	0	230	101300000	1000	0	0	-1	1500
16495675	118	922	0	-100	0	230	101300000	1000	0	0	-1	1500
16508235	114	925	0	-100	0	230	101300000	1000	0	0	-1	1500
16520795	113	928	0	-100	0	230	101300000	1000	0	0	-1	1500
16533355	123	925	0	-100	0	230	101300000	1000	0	0	-1	1500
16545915	113	928	0	-100	0	230	101300000	1000	0	0	-1	1500
16558475	121	925	0	-100	0	230	101300000	1000	0	0	-1	1500
16571035	113	926	0	-100	0	230	101300000	1000	0	0	-1	1500
16583595	118	923	0	-100	0	230	101300000	1000	0	0	-1	1500
16596155	118	926	0	-100	0	230	101300000	1000	0	0	-1	1500
16608715	116	926	0	-100	0	230	101300000	1000	0	0	-1	1500
16621275	121	920	0	-100	0	230	101300000	1000	0	0	-1	1500
16633835	113	925	0	-100	0	230	101300000	1000	0	0	-1	1500
16646395	118	921	0	-100	0	230	101300000	1000	0	0	-1	1500
16658955	116	925	0	-100	0	230	101300000	1000	0	0	-1	1500
16671515	113	926	0	-100	0	230	101300000	1000	0	0	-1	1500
16684075	118	924	0	-100	0	230	101300000	1000	0	0	-1	1500
16696635	121	925	0	-100	0	230	101300000	1000	0	0	-1	1500
16709195	113	927	0	-100	0	230	101300000	1000	0	0	-1	1500
16721755	111	928	0	-100	0	230	101300000	1000	0	0	-1	1500
16734315	118	924	0	-100	0	230	101300000	1000	0	0	-1	1500
16746875	121	927	0	-100	0	230	101300000	1000	0	0	-1	1500
16759435	111	924	0	-100	0	230	101300000	1000	0	0	-1	1500
16771995	113	923	0	-100	0	230	101300000	1000	0	0	-1	1500
16784555	113	925	0	-100	0	230	101300000	1000	0	0	-1	1500
16797115	121	925	0	-100	0	230	101300000	1000	0	0	-1	1500
16809675	114	925	0	-100	0	230	101300000	1000	0	0	-1	1500
16822235	111	926	0	-100	0	230	101300000	1000	0	0	-1	1500
16834795	113	925	0	-100	0	230	101300000	1000	0	0	-1	1500
16847355	116	925	0	-100	0	230	101300000	1000	0	0	-1	1500
16859915	118	923	0	-100	0	230	101300000	1000	0	0	-1	1500
16872475	118	926	0	-100	0	230	101300000	1000	0	0	-1	1500
16885035	121	921	0	-100	0	230	101300000	1000	0	0	-1	1500
16897595	123	924	0	-100	0	230	101300000	1000	0	0	-1	1500
16910155	121	924	0	-100	0	230	101300000	1000	0	0	-1	1500
16922715	111	926	0	-100	0	230	101300000	1000	0	0	-1	1500
16935275	113	927	0	-100	0	230	101300000	1000	0	0	-1	1500
16947835	113	923	0	-100	0	230	101300000	1000	0	0	-1	1500
16960395	118	925	0	-100	0	230	101300000	1000	0	0	-1	1500
16972955	121	921	0	-100	0	230	101300000	1000	0	0	-1	1500
16985515	113	918	0	-100	0	230	101300000	1000	0	0	-1	1500
16998075	114	929	0	-100	0	230	101300000	1000	0	0	-1	1500
17010635	116	928	0	-100	0	230	101300000	1000	0	0	-1	1500
17023195	113	925	0	-100	0	230	101300000	1000	0	0	-1	1500
17035755	121	922	0	-100	0	230	101300000	1000	0	0	-1	1500
17048315	121	920	0	-100	0	230	101300000	1000	0	0	-1	1500
17060875	116	926	0	-100	0	230	101300000	1000	0	0	-1	1500
17073435	114	928	0	-100	0	230	101300000	1000	0	0	-1	1500
17085995	111	922	0	-100	0	230	101300000	1000	0	0	-1	1500
17098555	118	923	0	-100	0	230	101300000	1000	0	0	-1	1500
17111115	121	921	0	-100	0	230	101300000	1000	0	0	-1	1500
17123675	121	923	0	-100	0	230	101300000	1000	0	0	-1	1500
17136235	116	923	0	-100	0	230	101300000	1000	0	0	-1	1500
17148795	111	929	0	-100	0	230	101300000	1000	0	0	-1	1500
17161355	116	927	0	-100	0	230	101300000	1000	0	0	-1	1500
17173915	116	926	0	-100	0	230	101300000	1000	0	0	-1	1500
17186475	113	926	0	-100	0	230	101300000	1000	0	0	-1	1500
17199035	121	923	0	-100	0	230	101300000	1000	0	0	-1	1500
17211595	118	924	0	-100	0	230	101300000	1000	0	0	-1	1500
17224155	128	924	0	-100	0	230	101300000	1000	0	0	-1	1500
17236715	113	926	0	-100	0	230	101300000	1000	0	0	-1	1500
17249275	114	927	0	-100	0	230	101300000	1000	0	0	-1	1500
17261835	113	924	0	-100	0	230	101300000	1000	0	0	-1	1500
17274395	121	922	0	-100	0	230	101300000	1000	0	0	-1	1500
17286955	121	922	0	-100	0	230	101300000	1000	0	0	-1	1500
17299515	116	922	0	-100	0	230	101300000	1000	0	0	-1	1500
17312075	113	927	0	-100	0	230	101300000	1000	0	0	-1	1500
17324635	116	926	0	-100	0	230	101300000	1000	0	0	-1	1500
17337195	113	925	0	-100	0	230	101300000	1000	0	0	-1	1500
17349755	118	922	0	-100	0	230	101300000	1000	0	0	-1	1500
17362315	121	924	0	-100	0	230	101300000	1000	0	0	-1	1500
17374875	118	926	0	-100	0	230	101300000	1000	0	0	-1	1500
17387435	114	924	0	-100	0	230	101300000	1000	0	0	-1	1500
17399995	118	923	0	-100	0	230	101300000	1000	0	0	-1	1500
17412555	118	923	0	-100	0	230	101300000	1000	0	0	-1	1500
17425115	123	927	0	-100	0	230	101300000	1000	0	0	-1	1500
17437675	113	924	0	-100	0	230	101300000	1000	0	0	-1	1500
17450235	113	930	0	-100	0	230	101300000	1000	0	0	-1	1500
17462795	113	925	0	-100	0	230	101300000	1000	0	0	-1	1500
17475355	118	923	0	-100	0	230	101300000	1000	0	0	-1	1500
17487915	121	925	0	-100	0	230	101300000	1000	0	0	-1	1500
17500475	111	924	0	-100	0	230	101300000	1000	0	0	-1	1500
17513035	116	922	0	-100	0	230	101300000	1000	0	0	-1	1500
17525595	118	922	0	-100	0	230	101300000	1000	0	0	-1	1500
17538155	126	927	0	-100	0	230	101300000	1000	0	0	-1	1500
17550715	121	926	0	-100	0	230	101300000	1000	0	0	-1	1500
17563275	113	926	0	-100	0	230	101300000	1000	0	0	-1	1500
17575835	113	929	0	-100	0	230	101300000	1000	0	0	-1	1500
17588395	123	925	0	-100	0	230	101300000	1000	0	0	-1	1500
17600955	113	924	0	-100	0	230	101300000	1000	0	0	-1	1500
17613515	114	927	0	-100	0	230	101300000	1000	0	0	-1	1500
17626075	118	925	0	-100	0	230	101300000	1000	0	0	-1	1500
17638635	123	926	0	-100	0	230	101300000	1000	0	0	-1	1500
17651195	113	927	0	-100	0	230	101300000	1000	0	0	-1	1500
17663755	113	945	0	-100	0	230	101300000	1000	0	0	-1	1500
17676315	121	925	0	-100	0	230	101300000	1000	0	0	-1	1500
17688875	123	926	0	-100	0	230	101300000	1000	0	0	-1	1500
17701435	116	926	0	-100	0	230	101300000	1000	0	0	-1	1500
17713995	118	924	0	-100	0	230	101300000	1000	0	0	-1	1500
17726555	121	926	0	-100	0	230	101300000	1000	0	0	-1	1500
17739115	111	925	0	-100	0	230	101300000	1000	0	0	-1	1500
17751675	116	928	0	-100	0	230	101300000	1000	0	0	-1	1500
17764235	111	925	0	-100	0	230	101300000	1000	0	0	-1	1500
17776795	118	925	0	-100	0	230	101300000	1000	0	0	-1	1500
17789355	121	926	0	-100	0	230	101300000	1000	0	0	-1	1500
17801915	113	926	0	-100	0	230	101300000	1000	0	0	-1	1500
17814475	116	925	0	-100	0	230	101300000	1000	0	0	-1	1500
17827035	118	921	0	-100	0	230	101300000	1000	0	0	-1	1500
17839595	121	923	0	-100	0	230	101300000	1000	0	0	-1	1500
17852155	118	925	0	-100	0	230	101300000	1000	0	0	-1	1500
17864715	111	925	0	-100	0	230	101300000	1000	0	0	-1	1500
17877275	118	922	0	-100	0	230	101300000	1000	0	0	-1	1500
17889835	118	923	0	-100	0	230	101300000	1000	0	0	-1	1500
17902395	116	925	0	-100	0	230	101300000	1000	0	0	-1	1500
17914955	113	925	0	-100	0	230	101300000	1000	0	0	-1	1500
17927515	123	925	0	-100	0	230	101300000	1000	0	0	-1	1500
17940075	113	924	0	-100	0	230	101300000	1000	0	0	-1	1500
17952635	114	928	0	-100	0	230	101300000	1000	0	0	-1	1500
17965195	116	925	0	-100	0	230	101300000	1000	0	0	-1	1500
17977755	121	922	0	-100	0	230	101300000	1000	0	0	-1	1500
17990315	113	924	0	-100	0	230	101300000	1000	0	0	-1	1500
18002875	116	928	0	-100	0	230	101300000	1000	0	0	-1	1500
18015435	123	926	0	-100	0	230	101300000	1000	0	0	-1	1500
18027995	111	926	0	-100	0	230	101300000	1000	0	0	-1	1500
18040555	113	923	0	-100	0	230	101300000	1000	0	0	-1	1500
18053115	123	923	0	-100	0	230	101300000	1000	0	0	-1	1500
18065675	114	926	0	-100	0	230	101300000	1000	0	0	-1	1500
18078235	118	925	0	-100	0	230	101300000	1000	0	0	-1	1500
18090795	121	923	0	-100	0	230	101300000	1000	0	0	-1	1500
18103355	116	925	0	-100	0	230	101300000	1000	0	0	-1	1500
18115915	116	923	0	-100	0	230	101300000	1000	0	0	-1	1500
18128475	121	925	0	-100	0	230	101300000	1000	0	0	-1	1500
18141035	116	925	0	-100	0	230	101300000	1000	0	0	-1	1500
18153595	118	926	0	-100	0	230	101300000	1000	0	0	-1	1500
18166155	121	924	0	-100	0	230	101300000	1000	0	0	-1	1500
18178715	118	923	0	-100	0	230	101300000	1000	0	0	-1	1500
18191275	116	922	0	-100	0	230	101300000	1000	0	0	-1	1500
18203835	118	922	0	-100	0	230	101300000	1000	0	0	-1	1500
18216395	121	924	0	-100	0	230	101300000	1000	0	0	-1	1500
18228955	113	928	0	-100	0	230	101300000	1000	0	0	-1	1500
18241515	113	926	0	-100	0	230	101300000	1000	0	0	-1	1500
18254075	123	922	0	-100	0	230	101300000	1000	0	0	-1	1500
18266635	116	926	0	-100	0	230	101300000	1000	0	0	-1	1500
18279195	113	927	0	-100	0	230	101300000	1000	0	0	-1	1500
18291755	121	923	0	-100	0	230	101300000	1000	0	0	-1	1500
18304315	111	926	0	-100	0	230	101300000	1000	0	0	-1	1500
18316875	116	924	0	-100	0	230	101300000	1000	0	0	-1	1500
18329435	121	921	0	-100	0	230	101300000	1000	0	0	-1	1500
18341995	111	926	0	-100	0	230	101300000	1000	0	0	-1	1500
18354555	116	928	0	-100	0	230	101300000	1000	0	0	-1	1500
18367115	116	922	0	-100	0	230	101300000	1000	0	0	-1	1500
18379675	118	924	0	-100	0	230	101300000	1000	0	0	-1	1500
18392235	123	919	0	-100	0	230	101300000	1000	0	0	-1	1500
18404795	113	925	0	-100	0	230	101300000	1000	0	0	-1	1500
18417355	116	928	0	-100	0	230	101300000	1000	0	0	-1	1500
18429915	113	927	0	-100	0	230	101300000	1000	0	0	-1	1500
18442475	118	925	0	-100	0	230	101300000	1000	0	0	-1	1500
18455035	121	922	0	-100	0	230	101300000	1000	0	0	-1	1500
18467595	121	922	0	-100	0	230	101300000	1000	0	0	-1	1500
18480155	123	923	0	-100	0	230	101300000	1000	0	0	-1	1500
18492715	113	926	0	-100	0	230	101300000	1000	0	0	-1	1500
18505275	114	929	0	-100	0	230	101300000	1000	0	0	-1	1500
18517835	116	926	0	-100	0	230	101300000	1000	0	0	-1	1500
18530395	116	925	0	-100	0	230	101300000	1000	0	0	-1	1500
18542955	118	926	0	-100	0	230	101300000	1000	0	0	-1	1500
18555515	118	924	0	-100	0	230	101300000	1000	0	0	-1	1500
18568075	113	926	0	-100	0	230	101300000	1000	0	0	-1	1500
18580635	121	924	0	-100	0	230	101300000	1000	0	0	-1	1500
18593195	113	924	0	-100	0	230	101300000	1000	0	0	-1	1500
18605755	116	925	0	-100	0	230	101300000	1000	0	0	-1	1500
18618315	114	925	0	-100	0	230	101300000	1000	0	0	-1	1500
18630875	116	921	0	-100	0	230	101300000	1000	0	0	-1	1500
18643435	116	922	0	-100	0	230	101300000	1000	0	0	-1	1500
18655995	116	924	0	-100	0	230	101300000	1000	0	0	-1	1500
18668555	123	924	0	-100	0	230	101300000	1000	0	0	-1	1500
18681115	113	929	0	-100	0	230	101300000	1000	0	0	-1	1500
18693675	118	925	0	-100	0	230	101300000	1000	0	0	-1	1500
18706235	116	923	0	-100	0	230	101300000	1000	0	0	-1	1500
18718795	116	924	0	-100	0	230	101300000	1000	0	0	-1	1500
18731355	118	922	0	-100	0	230	101300000	1000	0	0	-1	1500
18743915	118	923	0	-100	0	230	101300000	1000	0	0	-1	1500
18756475	116	924	0	-100	0	230	101300000	1000	0	0	-1	1500
18769035	121	921	0	-100	0	230	101300000	1000	0	0	-1	1500
18781595	111	925	0	-100	0	230	101300000	1000	0	0	-1	1500
18794155	121	926	0	-100	0	230	101300000	1000	0	0	-1	1500
18806715	116	923	0	-100	0	230	101300000	1000	0	0	-1	1500
18819275	113	924	0	-100	0	230	101300000	1000	0	0	-1	1500
18831835	116	922	0	-100	0	230	101300000	1000	0	0	-1	1500
18844395	113	925	0	-100	0	230	101300000	1000	0	0	-1	1500
18856955	121	923	0	-100	0	230	101300000	1000	0	0	-1	1500
18869515	111	925	0	-100	0	230	101300000	1000	0	0	-1	1500
18882075	118	925	0	-100	0	230	101300000	1000	0	0	-1	1500
18894635	113	925	0	-100	0	230	101300000	1000	0	0	-1	1500
18907195	111	928	0	-100	0	230	101300000	1000	0	0	-1	1500
18919755	121	926	0	-100	0	230	101300000	1000	0	0	-1	1500
18932315	113	925	0	-100	0	230	101300000	1000	0	0	-1	1500
18944875	123	922	0	-100	0	230	101300000	1000	0	0	-1	1500
18957435	111	925	0	-100	0	230	101300000	1000	0	0	-1	1500
18969995	118	926	0	-100	0	230	101300000	1000	0	0	-1	1500
18982555	113	926	0	-100	0	230	101300000	1000	0	0	-1	1500
18995115	118	925	0	-100	0	230	101300000	1000	0	0	-1	1500
19007675	111	924	0	-100	0	230	101300000	1000	0	0	-1	1500
19020235	113	923	0	-100	0	230	101300000	1000	0	0	-1	1500
19032795	116	941	0	-100	0	230	101300000	1000	0	0	-1	1500
19045355	116	922	0	-100	0	230	101300000	1000	0	0	-1	1500
19057915	121	925	0	-100	0	230	101300000	1000	0	0	-1	1500
19070475	113	926	0	-100	0	230	101300000	1000	0	0	-1	1500
19083035	116	925	0	-100	0	230	101300000	1000	0	0	-1	1500
19095595	118	925	0	-100	0	230	101300000	1000	0	0	-1	1500
19108155	118	925	0	-100	0	230	101300000	1000	0	0	-1	1500
19120715	113	925	0	-100	0	230	101300000	1000	0	0	-1	1500
19133275	123	927	0	-100	0	230	101300000	1000	0	0	-1	1500
19145835	113	928	0	-100	0	230	101300000	1000	0	0	-1	1500
19158395	121	923	0	-100	0	230	101300000	1000	0	0	-1	1500
19170955	113	923	0	-100	0	230	101300000	1000	0	0	-1	1500
19183515	113	925	0	-100	0	230	101300000	1000	0	0	-1	1500
19196075	121	924	0	-100	0	230	101300000	1000	0	0	-1	1500
19208635	113	926	0	-100	0	230	101300000	1000	0	0	-1	1500
19221195	116	924	0	-100	0	230	101300000	1000	0	0	-1	1500
19233755	121	922	0	-100	0	230	101300000	1000	0	0	-1	1500
19246315	116	925	0	-100	0	230	101300000	1000	0	0	-1	1500
19258875	121	918	0	-100	0	230	101300000	1000	0	0	-1	1500
19271435	114	928	0	-100	0	230	101300000	1000	0	0	-1	1500
19283995	121	922	0	-100	0	230	101300000	1000	0	0	-1	1500
19296555	116	923	0	-100	0	230	101300000	1000	0	0	-1	1500
19309115	116	924	0	-100	0	230	101300000	1000	0	0	-1	1500
19321675	116	926	0	-100	0	230	101300000	1000	0	0	-1	1500
19334235	121	920	0	-100	0	230	101300000	1000	0	0	-1	1500
19346795	111	926	0	-100	0	230	101300000	1000	0	0	-1	1500
19359355	113	927	0	-100	0	230	101300000	1000	0	0	-1	1500
19371915	118	922	0	-100	0	230	101300000	1000	0	0	-1	1500
19384475	111	929	0	-100	0	230	101300000	1000	0	0	-1	1500
19397035	118	923	0	-100	0	230	101300000	1000	0	0	-1	1500
19409595	118	922	0	-100	0	230	101300000	1000	0	0	-1	1500
19422155	116	926	0	-100	0	230	101300000	1000	0	0	-1	1500
19434715	118	921	0	-100	0	230	101300000	1000	0	0	-1	1500
19447275	116	922	0	-100	0	230	101300000	1000	0	0	-1	1500
19459835	116	928	0	-100	0	230	101300000	1000	0	0	-1	1500
19472395	121	926	0	-100	0	230	101300000	1000	0	0	-1	1500
19484955	116	928	0	-100	0	230	101300000	1000	0	0	-1	1500
19497515	118	927	0	-100	0	230	101300000	1000	0	0	-1	1500
19510075	116	922	0	-100	0	230	101300000	1000	0	0	-1	1500
19522635	116	923	0	-100	0	230	101300000	1000	0	0	-1	1500
19535195	121	923	0	-100	0	230	101300000	1000	0	0	-1	1500
19547755	111	923	0	-100	0	230	101300000	1000	0	0	-1	1500
19560315	113	926	0	-100	0	230	101300000	1000	0	0	-1	1500
19572875	118	926	0	-100	0	230	101300000	1000	0	0	-1	1500
19585435	116	923	0	-100	0	230	101300000	1000	0	0	-1	1500
19597995	114	921	0	-100	0	230	101300000	1000	0	0	-1	1500
19610555	121	942	0	-100	0	230	101300000	1000	0	0	-1	1500
19623115	111	928	0	-100	0	230	101300000	1000	0	0	-1	1500
19635675	113	926	0	-100	0	230	101300000	1000	0	0	-1	1500
19648235	121	921	0	-100	0	230	101300000	1000	0	0	-1	1500
19660795	111	924	0	-100	0	230	101300000	1000	0	0	-1	1500
19673355	111	924	0	-100	0	230	101300000	1000	0	0	-1	1500
19685915	118	922	0	-100	0	230	101300000	1000	0	0	-1	1500
19698475	113	927	0	-100	0	230	101300000	1000	0	0	-1	1500
19711035	113	928	0	-100	0	230	101300000	1000	0	0	-1	1500
19723595	123	925	0	-100	0	230	101300000	1000	0	0	-1	1500
19736155	121	923	0	-100	0	230	101300000	1000	0	0	-1	1500
19748715	116	930	0	-100	0	230	101300000	1000	0	0	-1	1500
19761275	118	922	0	-100	0	230	101300000	1000	0	0	-1	1500
19773835	116	924	0	-100	0	230	101300000	1000	0	0	-1	1500
19786395	111	924	0	-100	0	230	101300000	1000	0	0	-1	1500
19798955	113	923	0	-100	0	230	101300000	1000	0	0	-1	1500
19811515	118	922	0	-100	0	230	101300000	1000	0	0	-1	1500
19824075	116	920	0	-100	0	230	101300000	1000	0	0	-1	1500
19836635	114	928	0	-100	0	230	101300000	1000	0	0	-1	1500
19849195	113	931	0	-100	0	230	101300000	1000	0	0	-1	1500
19861755	121	926	0	-100	0	230	101300000	1000	0	0	-1	1500
19874315	118	935	0	-100	0	230	101300000	1000	0	0	-1	1500
19886875	113	924	0	-100	0	230	101300000	1000	0	0	-1	1500
19899435	114	929	0	-100	0	230	101300000	1000	0	0	-1	1500
19911995	113	922	0	-100	0	230	101300000	1000	0	0	-1	1500
19924555	121	923	0	-100	0	230	101300000	1000	0	0	-1	1500
19937115	121	923	0	-100	0	230	101300000	1000	0	0	-1	1500
19949675	118	940	0	-100	0	230	101300000	1000	0	0	-1	1500
19962235	113	925	0	-100	0	230	101300000	1000	0	0	-1	1500
19974795	116	924	0	-100	0	230	101300000	1000	0	0	-1	1500
19987355	121	921	0	-100	0	230	101300000	1000	0	0	-1	1500
19999915	116	922	0	-100	0	230	101300000	1000	0	0	-1	1500
20012475	114	927	0	-100	0	230	101300000	1000	0	0	-1	1500
20025035	118	924	0	-100	0	230	101300000	1000	0	0	-1	1500
20037595	121	924	0	-100	0	230	101300000	1000	0	0	-1	1500
20050155	118	927	0	-100	0	230	101300000	1000	0	0	-1	1500
20062715	116	921	0	-100	0	230	101300000	1000	0	0	-1	1500
20075275	114	926	0	-100	0	230	101300000	1000	0	0	-1	1500
20087835	113	926	0	-100	0	230	101300000	1000	0	0	-1	1500
20100395	121	922	0	-100	0	230	101300000	1000	0	0	-1	1500
20112955	113	931	0	-100	0	230	101300000	1000	0	0	-1	1500
20125515	121	925	0	-100	0	230	101300000	1000	0	0	-1	1500
20138075	113	929	0	-100	0	230	101300000	1000	0	0	-1	1500
20150635	118	923	0	-100	0	230	101300000	1000	0	0	-1	1500
20163195	116	923	0	-100	0	230	101300000	1000	0	0	-1	1500
20175755	116	924	0	-100	0	230	101300000	1000	0	0	-1	1500
20188315	121	922	0	-100	0	230	101300000	1000	0	0	-1	1500
20200875	113	923	0	-100	0	230	101300000	1000	0	0	-1	1500
20213435	113	925	0	-100	0	230	101300000	1000	0	0	-1	1500
20225995	121	924	0	-100	0	230	101300000	1000	0	0	-1	1500
20238555	111	926	0	-100	0	230	101300000	1000	0	0	-1	1500
20251115	118	923	0	-100	0	230	101300000	1000	0	0	-1	1500
20263675	113	924	0	-100	0	230	101300000	1000	0	0	-1	1500
20276235	116	927	0	-100	0	230	101300000	1000	0	0	-1	1500
20288795	121	924	0	-100	0	230	101300000	1000	0	0	-1	1500
20301355	116	922	0	-100	0	230	101300000	1000	0	0	-1	1500
20313915	121	921	0	-100	0	230	101300000	1000	0	0	-1	1500
20326475	111	928	0	-100	0	230	101300000	1000	0	0	-1	1500
20339035	113	924	0	-100	0	230	101300000	1000	0	0	-1	1500
20351595	123	926	0	-100	0	230	101300000	1000	0	0	-1	1500
20364155	118	925	0	-100	0	230	101300000	1000	0	0	-1	1500
20376715	118	922	0	-100	0	230	101300000	1000	0	0	-1	1500
20389275	111	933	0	-100	0	230	101300000	1000	0	0	-1	1500
20401835	116	924	0	-100	0	230	101300000	1000	0	0	-1	1500
20414395	113	924	0	-100	0	230	101300000	1000	0	0	-1	1500
20426955	113	926	0	-100	0	230	101300000	1000	0	0	-1	1500
20439515	118	924	0	-100	0	230	101300000	1000	0	0	-1	1500
20452075	116	923	0	-100	0	230	101300000	1000	0	0	-1	1500
20464635	114	926	0	-100	0	230	101300000	1000	0	0	-1	1500
20477195	118	922	0	-100	0	230	101300000	1000	0	0	-1	1500
20489755	111	926	0	-100	0	230	101300000	1000	0	0	-1	1500
20502315	118	925	0	-100	0	230	101300000	1000	0	0	-1	1500
20514875	114	929	0	-100	0	230	101300000	1000	0	0	-1	1500
20527435	113	926	0	-100	0	230	101300000	1000	0	0	-1	1500
20539995	118	926	0	-100	0	230	101300000	1000	0	0	-1	1500
20552555	113	922	0	-100	0	230	101300000	1000	0	0	-1	1500
20565115	113	925	0	-100	0	230	101300000	1000	0	0	-1	1500
20577675	116	923	0	-100	0	230	101300000	1000	0	0	-1	1500
20590235	116	925	0	-100	0	230	101300000	1000	0	0	-1	1500
20602795	113	928	0	-100	0	230	101300000	1000	0	0	-1	1500
20615355	118	924	0	-100	0	230	101300000	1000	0	0	-1	1500
20627915	111	924	0	-100	0	230	101300000	1000	0	0	-1	1500
20640475	118	924	0	-100	0	230	101300000	1000	0	0	-1	1500
20653035	116	919	0	-100	0	230	101300000	1000	0	0	-1	1500
20665595	113	926	0	-100	0	230	101300000	1000	0	0	-1	1500
20678155	126	919	0	-100	0	230	101300000	1000	0	0	-1	1500
20690715	116	931	0	-100	0	230	101300000	1000	0	0	-1	1500
20703275	121	927	0	-100	0	230	101300000	1000	0	0	-1	1500
20715835	113	926	0	-100	0	230	101300000	1000	0	0	-1	1500
20728395	116	924	0	-100	0	230	101300000	1000	0	0	-1	1500
20740955	123	927	0	-100	0	230	101300000	1000	0	0	-1	1500
20753515	118	926	0	-100	0	230	101300000	1000	0	0	-1	1500
20766075	121	923	0	-100	0	230	101300000	1000	0	0	-1	1500
20778635	111	926	0	-100	0	230	101300000	1000	0	0	-1	1500
20791195	113	923	0	-100	0	230	101300000	1000	0	0	-1	1500
20803755	121	923	0	-100	0	230	101300000	1000	0	0	-1	1500
20816315	111	927	0	-100	0	230	101300000	1000	0	0	-1	1500
20828875	116	927	0	-100	0	230	101300000	1000	0	0	-1	1500
20841435	118	921	0	-100	0	230	101300000	1000	0	0	-1	1500
20853995	121	927	0	-100	0	230	101300000	1000	0	0	-1	1500
20866555	116	927	0	-100	0	230	101300000	1000	0	0	-1	1500
20879115	113	926	0	-100	0	230	101300000	1000	0	0	-1	1500
20891675	113	925	0	-100	0	230	101300000	1000	0	0	-1	1500
20904235	121	925	0	-100	0	230	101300000	1000	0	0	-1	1500
20916795	121	922	0	-100	0	230	101300000	1000	0	0	-1	1500
20929355	114	925	0	-100	0	230	101300000	1000	0	0	-1	1500
20941915	111	926	0	-100	0	230	101300000	1000	0	0	-1	1500
20954475	116	922	0	-100	0	230	101300000	1000	0	0	-1	1500
20967035	116	922	0	-100	0	230	101300000	1000	0	0	-1	1500
20979595	121	925	0	-100	0	230	101300000	1000	0	0	-1	1500
20992155	126	925	0	-100	0	230	101300000	1000	0	0	-1	1500
21004715	116	923	0	-100	0	230	101300000	1000	0	0	-1	1500
21017275	113	930	0	-100	0	230	101300000	1000	0	0	-1	1500
21029835	116	925	0	-100	0	230	101300000	1000	0	0	-1	1500
21042395	118	924	0	-100	0	230	101300000	1000	0	0	-1	1500
21054955	121	923	0	-100	0	230	101300000	1000	0	0	-1	1500
21067515	116	925	0	-100	0	230	101300000	1000	0	0	-1	1500
21080075	113	921	0	-100	0	230	101300000	1000	0	0	-1	1500
21092635	121	923	0	-100	0	230	101300000	1000	0	0	-1	1500
21105195	113	928	0	-100	0	230	101300000	1000	0	0	-1	1500
21117755	116	925	0	-100	0	230	101300000	1000	0	0	-1	1500
21130315	116	924	0	-100	0	230	101300000	1000	0	0	-1	1500
21142875	121	927	0	-100	0	230	101300000	1000	0	0	-1	1500
21155435	113	926	0	-100	0	230	101300000	1000	0	0	-1	1500
21167995	118	924	0	-100	0	230	101300000	1000	0	0	-1	1500
21180555	121	926	0	-100	0	230	101300000	1000	0	0	-1	1500
21193115	116	928	0	-100	0	230	101300000	1000	0	0	-1	1500
21205675	116	925	0	-100	0	230	101300000	1000	0	0	-1	1500
21218235	123	927	0	-100	0	230	101300000	1000	0	0	-1	1500
21230795	111	924	0	-100	0	230	101300000	1000	0	0	-1	1500
21243355	116	924	0	-100	0	230	101300000	1000	0	0	-1	1500
21255915	121	923	0	-100	0	230	101300000	1000	0	0	-1	1500
21268475	114	924	0	-100	0	230	101300000	1000	0	0	-1	1500
21281035	116	924	0	-100	0	230	101300000	1000	0	0	-1	1500
21293595	116	923	0	-100	0	230	101300000	1000	0	0	-1	1500
21306155	126	920	0	-100	0	230	101300000	1000	0	0	-1	1500
21318715	113	927	0	-100	0	230	101300000	1000	0	0	-1	1500
21331275	113	927	0	-100	0	230	101300000	1000	0	0	-1	1500
21343835	116	926	0	-100	0	230	101300000	1000	0	0	-1	1500
21356395	121	925	0	-100	0	230	101300000	1000	0	0	-1	1500
21368955	111	926	0	-100	0	230	101300000	1000	0	0	-1	1500
21381515	111	924	0	-100	0	230	101300000	1000	0	0	-1	1500
21394075	121	923	0	-100	0	230	101300000	1000	0	0	-1	1500
21406635	114	938	0	-100	0	230	101300000	1000	0	0	-1	1500
21419195	113	923	0	-100	0	230	101300000	1000	0	0	-1	1500
21431755	121	922	0	-100	0	230	101300000	1000	0	0	-1	1500
21444315	113	928	0	-100	0	230	101300000	1000	0	0	-1	1500
21456875	118	922	0	-100	0	230	101300000	1000	0	0	-1	1500
21469435	116	924	0	-100	0	230	101300000	1000	0	0	-1	1500
21481995	113	934	0	-100	0	230	101300000	1000	0	0	-1	1500
21494555	121	929	0	-100	0	230	101300000	1000	0	0	-1	1500
21507115	116	926	0	-100	0	230	101300000	1000	0	0	-1	1500
21519675	116	920	0	-100	0	230	101300000	1000	0	0	-1	1500
21532235	121	921	0	-100	0	230	101300000	1000	0	0	-1	1500
21544795	113	926	0	-100	0	230	101300000	1000	0	0	-1	1500
21557355	113	926	0	-100	0	230	101300000	1000	0	0	-1	1500
21569915	121	921	0	-100	0	230	101300000	1000	0	0	-1	1500
21582475	111	928	0	-100	0	230	101300000	1000	0	0	-1	1500
21595035	118	924	0	-100	0	230	101300000	1000	0	0	-1	1500
21607595	114	923	0	-100	0	230	101300000	1000	0	0	-1	1500
21620155	121	926	0	-100	0	230	101300000	1000	0	0	-1	1500
21632715	123	923	0	-100	0	230	101300000	1000	0	0	-1	1500
21645275	113	926	0	-100	0	230	101300000	1000	0	0	-1	1500
21657835	118	923	0	-100	0	230	101300000	1000	0	0	-1	1500
21670395	116	922	0	-100	0	230	101300000	1000	0	0	-1	1500
21682955	113	925	0	-100	0	230	101300000	1000	0	0	-1	1500
21695515	121	920	0	-100	0	230	101300000	1000	0	0	-1	1500
21708075	114	926	0	-100	0	230	101300000	1000	0	0	-1	1500
21720635	113	925	0	-100	0	230	101300000	1000	0	0	-1	1500
21733195	118	923	0	-100	0	230	101300000	1000	0	0	-1	1500
21745755	116	925	0	-100	0	230	101300000	1000	0	0	-1	1500
21758315	113	926	0	-100	0	230	101300000	1000	0	0	-1	1500
21770875	118	922	0	-100	0	230	101300000	1000	0	0	-1	1500
21783435	121	921	0	-100	0	230	101300000	1000	0	0	-1	1500
21795995	113	925	0	-100	0	230	101300000	1000	0	0	-1	1500
21808555	116	924	0	-100	0	230	101300000	1000	0	0	-1	1500
21821115	121	920	0	-100	0	230	101300000	1000	0	0	-1	1500
21833675	116	924	0	-100	0	230	101300000	1000	0	0	-1	1500
21846235	116	925	0	-100	0	230	101300000	1000	0	0	-1	1500
21858795	121	922	0	-100	0	230	101300000	1000	0	0	-1	1500
21871355	111	927	0	-100	0	230	101300000	1000	0	0	-1	1500
21883915	116	923	0	-100	0	230	101300000	1000	0	0	-1	1500
21896475	113	927	0	-100	0	230	101300000	1000	0	0	-1	1500
21909035	116	929	0	-100	0	230	101300000	1000	0	0	-1	1500
21921595	118	926	0	-100	0	230	101300000	1000	0	0	-1	1500
21934155	118	928	0	-100	0	230	101300000	1000	0	0	-1	1500
21946715	121	921	0	-100	0	230	101300000	1000	0	0	-1	1500
21959275	118	925	0	-100	0	230	101300000	1000	0	0	-1	1500
21971835	121	924	0	-100	0	230	101300000	1000	0	0	-1	1500
21984395	113	925	0	-100	0	230	101300000	1000	0	0	-1	1500
21996955	118	923	0	-100	0	230	101300000	1000	0	0	-1	1500
22009515	113	922	0	-100	0	230	101300000	1000	0	0	-1	1500
22022075	113	926	0	-100	0	230	101300000	1000	0	0	-1	1500
22034635	118	931	0	-100	0	230	101300000	1000	0	0	-1	1500
22047195	113	924	0	-100	0	230	101300000	1000	0	0	-1	1500
22059755	116	925	0	-100	0	230	101300000	1000	0	0	-1	1500
22072315	113	925	0	-100	0	230	101300000	1000	0	0	-1	1500
22084875	116	924	0	-100	0	230	101300000	1000	0	0	-1	1500
22097435	113	927	0	-100	0	230	101300000	1000	0	0	-1	1500
22109995	121	925	0	-100	0	230	101300000	1000	0	0	-1	1500
22122555	113	926	0	-100	0	230	101300000	1000	0	0	-1	1500
22135115	118	924	0	-100	0	230	101300000	1000	0	0	-1	1500
22147675	116	926	0	-100	0	230	101300000	1000	0	0	-1	1500
22160235	113	929	0	-100	0	230	101300000	1000	0	0	-1	1500
22172795	121	928	0	-100	0	230	101300000	1000	0	0	-1	1500
22185355	113	929	0	-100	0	230	101300000	1000	0	0	-1	1500
22197915	116	926	0	-100	0	230	101300000	1000	0	0	-1	1500
22210475	113	922	0	-100	0	230	101300000	1000	0	0	-1	1500
22223035	111	924	0	-100	0	230	101300000	1000	0	0	-1	1500
22235595	116	924	0	-100	0	230	101300000	1000	0	0	-1	1500
22248155	121	923	0	-100	0	230	101300000	1000	0	0	-1	1500
22260715	113	928	0	-100	0	230	101300000	1000	0	0	-1	1500
22273275	121	922	0	-100	0	230	101300000	1000	0	0	-1	1500
22285835	113	928	0	-100	0	230	101300000	1000	0	0	-1	1500
22298395	118	924	0	-100	0	230	101300000	1000	0	0	-1	1500
22310955	116	925	0	-100	0	230	101300000	1000	0	0	-1	1500
22323515	111	927	0	-100	0	230	101300000	1000	0	0	-1	1500
22336075	121	929	0	-100	0	230	101300000	1000	0	0	-1	1500
22348635	116	921	0	-100	0	230	101300000	1000	0	0	-1	1500
22361195	121	924	0	-100	0	230	101300000	1000	0	0	-1	1500
22373755	113	925	0	-100	0	230	101300000	1000	0	0	-1	1500
22386315	113	926	0	-100	0	230	101300000	1000	0	0	-1	1500
22398875	121	922	0	-100	0	230	101300000	1000	0	0	-1	1500
22411435	113	928	0	-100	0	230	101300000	1000	0	0	-1	1500
22423995	118	932	0	-100	0	230	101300000	1000	0	0	-1	1500
22436555	121	925	0	-100	0	230	101300000	1000	0	0	-1	1500
22449115	114	925	0	-100	0	230	101300000	1000	0	0	-1	1500
22461675	116	923	0	-100	0	230	101300000	1000	0	0	-1	1500
22474235	123	925	0	-100	0	230	101300000	1000	0	0	-1	1500
22486795	113	929	0	-100	0	230	101300000	1000	0	0	-1	1500
22499355	118	922	0	-100	0	230	101300000	1000	0	0	-1	1500
22511915	121	926	0	-100	0	230	101300000	1000	0	0	-1	1500
22524475	116	927	0	-100	0	230	101300000	1000	0	0	-1	1500
22537035	121	923	0	-100	0	230	101300000	1000	0	0	-1	1500
22549595	116	923	0	-100	0	230	101300000	1000	0	0	-1	1500
22562155	118	925	0	-100	0	230	101300000	1000	0	0	-1	1500
22574715	121	925	0	-100	0	230	101300000	1000	0	0	-1	1500
22587275	113	927	0	-100	0	230	101300000	1000	0	0	-1	1500
22599835	118	925	0	-100	0	230	101300000	1000	0	0	-1	1500
22612395	111	929	0	-100	0	230	101300000	1000	0	0	-1	1500
22624955	113	923	0	-100	0	230	101300000	1000	0	0	-1	1500
22637515	113	925	0	-100	0	230	101300000	1000	0	0	-1	1500
22650075	116	924	0	-100	0	230	101300000	1000	0	0	-1	1500
22662635	121	926	0	-100	0	230	101300000	1000	0	0	-1	1500
22675195	116	926	0	-100	0	230	101300000	1000	0	0	-1	1500
22687755	123	922	0	-100	0	230	101300000	1000	0	0	-1	1500
22700315	113	928	0	-100	0	230	101300000	1000	0	0	-1	1500
22712875	116	922	0	-100	0	230	101300000	1000	0	0	-1	1500
22725435	116	921	0	-100	0	230	101300000	1000	0	0	-1	1500
22737995	111	923	0	-100	0	230	101300000	1000	0	0	-1	1500
22750555	121	919	0	-100	0	230	101300000	1000	0	0	-1	1500
22763115	113	929	0	-100	0	230	101300000	1000	0	0	-1	1500
22775675	116	922	0	-100	0	230	101300000	1000	0	0	-1	1500
22788235	116	925	0	-100	0	230	101300000	1000	0	0	-1	1500
22800795	116	924	0	-100	0	230	101300000	1000	0	0	-1	1500
22813355	123	922	0	-100	0	230	101300000	1000	0	0	-1	1500
22825915	113	925	0	-100	0	230	101300000	1000	0	0	-1	1500
22838475	113	925	0	-100	0	230	101300000	1000	0	0	-1	1500
22851035	123	921	0	-100	0	230	101300000	1000	0	0	-1	1500
22863595	113	928	0	-100	0	230	101300000	1000	0	0	-1	1500
22876155	118	924	0	-100	0	230	101300000	1000	0	0	-1	1500
22888715	123	922	0	-100	0	230	101300000	1000	0	0	-1	1500
22901275	113	928	0	-100	0	230	101300000	1000	0	0	-1	1500
22913835	116	923	0	-100	0	230	101300000	1000	0	0	-1	1500
22926395	111	924	0	-100	0	230	101300000	1000	0	0	-1	1500
22938955	116	923	0	-100	0	230	101300000	1000	0	0	-1	1500
22951515	113	925	0	-100	0	230	101300000	1000	0	0	-1	1500
22964075	118	923	0	-100	0	230	101300000	1000	0	0	-1	1500
22976635	116	922	0	-100	0	230	101300000	1000	0	0	-1	1500
22989195	113	923	0	-100	0	230	101300000	1000	0	0	-1	1500
23001755	121	921	0	-100	0	230	101300000	1000	0	0	-1	1500
23014315	113	928	0	-100	0	230	101300000	1000	0	0	-1	1500
23026875	116	923	0	-100	0	230	101300000	1000	0	0	-1	1500
23039435	116	923	0	-100	0	230	101300000	1000	0	0	-1	1500
23051995	116	925	0	-100	0	230	101300000	1000	0	0	-1	1500
23064555	114	925	0	-100	0	230	101300000	1000	0	0	-1	1500
23077115	113	923	0	-100	0	230	101300000	1000	0	0	-1	1500
23089675	116	924	0	-100	0	230	101300000	1000	0	0	-1	1500
23102235	113	927	0	-100	0	230	101300000	1000	0	0	-1	1500
23114795	121	921	0	-100	0	230	101300000	1000	0	0	-1	1500
23127355	116	924	0	-100	0	230	101300000	1000	0	0	-1	1500
23139915	113	928	0	-100	0	230	101300000	1000	0	0	-1	1500
23152475	123	925	0	-100	0	230	101300000	1000	0	0	-1	1500
23165035	116	929	0	-100	0	230	101300000	1000	0	0	-1	1500
23177595	121	921	0	-100	0	230	101300000	1000	0	0	-1	1500
23190155	121	926	0	-100	0	230	101300000	1000	0	0	-1	1500
23202715	116	922	0	-100	0	230	101300000	1000	0	0	-1	1500
23215275	121	922	0	-100	0	230	101300000	1000	0	0	-1	1500
23227835	111	929	0	-100	0	230	101300000	1000	0	0	-1	1500
23240395	118	926	0	-100	0	230	101300000	1000	0	0	-1	1500
23252955	113	922	0	-100	0	230	101300000	1000	0	0	-1	1500
23265515	121	917	0	-100	0	230	101300000	1000	0	0	-1	1500
23278075	113	929	0	-100	0	230	101300000	1000	0	0	-1	1500
23290635	113	924	0	-100	0	230	101300000	1000	0	0	-1	1500
23303195	121	922	0	-100	0	230	101300000	1000	0	0	-1	1500
23315755	113	931	0	-100	0	230	101300000	1000	0	0	-1	1500
23328315	118	924	0	-100	0	230	101300000	1000	0	0	-1	1500
23340875	116	923	0	-100	0	230	101300000	1000	0	0	-1	1500
23353435	113	926	0	-100	0	230	101300000	1000	0	0	-1	1500
23365995	121	928	0	-100	0	230	101300000	1000	0	0	-1	1500
23378555	111	927	0	-100	0	230	101300000	1000	0	0	-1	1500
23391115	118	922	0	-100	0	230	101300000	1000	0	0	-1	1500
23403675	118	924	0	-100	0	230	101300000	1000	0	0	-1	1500
23416235	116	924	0	-100	0	230	101300000	1000	0	0	-1	1500
23428795	116	925	0	-100	0	230	101300000	1000	0	0	-1	1500
23441355	118	925	0	-100	0	230	101300000	1000	0	0	-1	1500
23453915	113	926	0	-100	0	230	101300000	1000	0	0	-1	1500
23466475	121	922	0	-100	0	230	101300000	1000	0	0	-1	1500
23479035	118	923	0	-100	0	230	101300000	1000	0	0	-1	1500
23491595	116	922	0	-100	0	230	101300000	1000	0	0	-1	1500
23504155	123	924	0	-100	0	230	101300000	1000	0	0	-1	1500
23516715	116	928	0	-100	0	230	101300000	1000	0	0	-1	1500
23529275	113	939	0	-100	0	230	101300000	1000	0	0	-1	1500
23541835	118	924	0	-100	0	230	101300000	1000	0	0	-1	1500
23554395	111	925	0	-100	0	230	101300000	1000	0	0	-1	1500
23566955	121	922	0	-100	0	230	101300000	1000	0	0	-1	1500
23579515	114	928	0	-100	0	230	101300000	1000	0	0	-1	1500
23592075	121	925	0	-100	0	230	101300000	1000	0	0	-1	1500
23604635	113	928	0	-100	0	230	101300000	1000	0	0	-1	1500
23617195	121	922	0	-100	0	230	101300000	1000	0	0	-1	1500
23629755	113	928	0	-100	0	230	101300000	1000	0	0	-1	1500
23642315	121	923	0	-100	0	230	101300000	1000	0	0	-1	1500
23654875	111	925	0	-100	0	230	101300000	1000	0	0	-1	1500
23667435	118	925	0	-100	0	230	101300000	1000	0	0	-1	1500
23679995	113	929	0	-100	0	230	101300000	1000	0	0	-1	1500
23692555	116	925	0	-100	0	230	101300000	1000	0	0	-1	1500
23705115	116	925	0	-100	0	230	101300000	1000	0	0	-1	1500
23717675	113	923	0	-100	0	230	101300000	1000	0	0	-1	1500
23730235	113	926	0	-100	0	230	101300000	1000	0	0	-1	1500
23742795	116	923	0	-100	0	230	101300000	1000	0	0	-1	1500
23755355	113	927	0	-100	0	230	101300000	1000	0	0	-1	1500
23767915	118	922	0	-100	0	230	101300000	1000	0	0	-1	1500
23780475	111	921	0	-100	0	230	101300000	1000	0	0	-1	1500
23793035	118	925	0	-100	0	230	101300000	1000	0	0	-1	1500
23805595	116	926	0	-100	0	230	101300000	1000	0	0	-1	1500
23818155	126	933	0	-100	0	230	101300000	1000	0	0	-1	1500
23830715	113	928	0	-100	0	230	101300000	1000	0	0	-1	1500
23843275	116	921	0	-100	0	230	101300000	1000	0	0	-1	1500
23855835	116	925	0	-100	0	230	101300000	1000	0	0	-1	1500
23868395	111	924	0	-100	0	230	101300000	1000	0	0	-1	1500
23880955	121	942	0	-100	0	230	101300000	1000	0	0	-1	1500
23893515	113	927	0	-100	0	230	101300000	1000	0	0	-1	1500
23906075	123	925	0	-100	0	230	101300000	1000	0	0	-1	1500
23918635	113	926	0	-100	0	230	101300000	1000	0	0	-1	1500
23931195	121	922	0	-100	0	230	101300000	1000	0	0	-1	1500
23943755	113	928	0	-100	0	230	101300000	1000	0	0	-1	1500
23956315	118	923	0	-100	0	230	101300000	1000	0	0	-1	1500
23968875	113	925	0	-100	0	230	101300000	1000	0	0	-1	1500
23981435	116	924	0	-100	0	230	101300000	1000	0	0	-1	1500
23993995	121	926	0	-100	0	230	101300000	1000	0	0	-1	1500
24006555	113	926	0	-100	0	230	101300000	1000	0	0	-1	1500
24019115	121	921	0	-100	0	230	101300000	1000	0	0	-1	1500
24031675	121	924	0	-100	0	230	101300000	1000	0	0	-1	1500
24044235	116	924	0	-100	0	230	101300000	1000	0	0	-1	1500
24056795	123	922	0	-100	0	230	101300000	1000	0	0	-1	1500
24069355	113	926	0	-100	0	230	101300000	1000	0	0	-1	1500
24081915	118	923	0	-100	0	230	101300000	1000	0	0	-1	1500
24094475	113	926	0	-100	0	230	101300000	1000	0	0	-1	1500
24107035	116	922	0	-100	0	230	101300000	1000	0	0	-1	1500
24119595	118	925	0	-100	0	230	101300000	1000	0	0	-1	1500
24132155	121	925	0	-100	0	230	101300000	1000	0	0	-1	1500
24144715	121	923	0	-100	0	230	101300000	1000	0	0	-1	1500
24157275	113	922	0	-100	0	230	101300000	1000	0	0	-1	1500
24169835	113	929	0	-100	0	230	101300000	1000	0	0	-1	1500
24182395	123	921	0	-100	0	230	101300000	1000	0	0	-1	1500
24194955	113	944	0	-100	0	230	101300000	1000	0	0	-1	1500
24207515	113	924	0	-100	0	230	101300000	1000	0	0	-1	1500
24220075	118	925	0	-100	0	230	101300000	1000	0	0	-1	1500
24232635	116	926	0	-100	0	230	101300000	1000	0	0	-1	1500
24245195	118	925	0	-100	0	230	101300000	1000	0	0	-1	1500
24257755	113	929	0	-100	0	230	101300000	1000	0	0	-1	1500
24270315	118	925	0	-100	0	230	101300000	1000	0	0	-1	1500
24282875	121	925	0	-100	0	230	101300000	1000	0	0	-1	1500
24295435	116	926	0	-100	0	230	101300000	1000	0	0	-1	1500
24307995	113	922	0	-100	0	230	101300000	1000	0	0	-1	1500
24320555	121	923	0	-100	0	230	101300000	1000	0	0	-1	1500
24333115	113	926	0	-100	0	230	101300000	1000	0	0	-1	1500
24345675	116	926	0	-100	0	230	101300000	1000	0	0	-1	1500
24358235	113	930	0	-100	0	230	101300000	1000	0	0	-1	1500
24370795	123	925	0	-100	0	230	101300000	1000	0	0	-1	1500
24383355	116	924	0	-100	0	230	101300000	1000	0	0	-1	1500
24395915	116	926	0	-100	0	230	101300000	1000	0	0	-1	1500
24408475	116	922	0	-100	0	230	101300000	1000	0	0	-1	1500
24421035	121	924	0	-100	0	230	101300000	1000	0	0	-1	1500
24433595	118	926	0	-100	0	230	101300000	1000	0	0	-1	1500
24446155	121	928	0	-100	0	230	101300000	1000	0	0	-1	1500
24458715	113	931	0	-100	0	230	101300000	1000	0	0	-1	1500
24471275	116	922	0	-100	0	230	101300000	1000	0	0	-1	1500
24483835	123	927	0	-100	0	230	101300000	1000	0	0	-1	1500
24496395	121	923	0	-100	0	230	101300000	1000	0	0	-1	1500
24508955	113	922	0	-100	0	230	101300000	1000	0	0	-1	1500
24521515	111	925	0	-100	0	230	101300000	1000	0	0	-1	1500
24534075	113	928	0	-100	0	230	101300000	1000	0	0	-1	1500
24546635	113	924	0	-100	0	230	101300000	1000	0	0	-1	1500
24559195	116	922	0	-100	0	230	101300000	1000	0	0	-1	1500
24571755	121	923	0	-100	0	230	101300000	1000	0	0	-1	1500
24584315	121	928	0	-100	0	230	101300000	1000	0	0	-1	1500
24596875	113	925	0	-100	0	230	101300000	1000	0	0	-1	1500
24609435	113	925	0	-100	0	230	101300000	1000	0	0	-1	1500
24621995	113	925	0	-100	0	230	101300000	1000	0	0	-1	1500
24634555	121	923	0	-100	0	230	101300000	1000	0	0	-1	1500
24647115	121	919	0	-100	0	230	101300000	1000	0	0	-1	1500
24659675	116	925	0	-100	0	230	101300000	1000	0	0	-1	1500
24672235	113	925	0	-100	0	230	101300000	1000	0	0	-1	1500
24684795	116	925	0	-100	0	230	101300000	1000	0	0	-1	1500
24697355	116	925	0	-100	0	230	101300000	1000	0	0	-1	1500
24709915	118	925	0	-100	0	230	101300000	1000	0	0	-1	1500
24722475	118	926	0	-100	0	230	101300000	1000	0	0	-1	1500
24735035	111	925	0	-100	0	230	101300000	1000	0	0	-1	1500
24747595	116	923	0	-100	0	230	101300000	1000	0	0	-1	1500
24760155	121	925	0	-100	0	230	101300000	1000	0	0	-1	1500
24772715	121	923	0	-100	0	230	101300000	1000	0	0	-1	1500
24785275	111	926	0	-100	0	230	101300000	1000	0	0	-1	1500
24797835	113	928	0	-100	0	230	101300000	1000	0	0	-1	1500
24810395	116	921	0	-100	0	230	101300000	1000	0	0	-1	1500
24822955	121	920	0	-100	0	230	101300000	1000	0	0	-1	1500
24835515	111	924	0	-100	0	230	101300000	1000	0	0	-1	1500
24848075	113	925	0	-100	0	230	101300000	1000	0	0	-1	1500
24860635	121	920	0	-100	0	230	101300000	1000	0	0	-1	1500
24873195	116	924	0	-100	0	230	101300000	1000	0	0	-1	1500
24885755	113	926	0	-100	0	230	101300000	1000	0	0	-1	1500
24898315	113	924	0	-100	0	230	101300000	1000	0	0	-1	1500
24910875	121	926	0	-100	0	230	101300000	1000	0	0	-1	1500
24923435	116	924	0	-100	0	230	101300000	1000	0	0	-1	1500
24935995	113	922	0	-100	0	230	101300000	1000	0	0	-1	1500
24948555	121	924	0	-100	0	230	101300000	1000	0	0	-1	1500
24961115	113	925	0	-100	0	230	101300000	1000	0	0	-1	1500
24973675	113	926	0	-100	0	230	101300000	1000	0	0	-1	1500
24986235	118	924	0	-100	0	230	101300000	1000	0	0	-1	1500
24998795	113	922	0	-100	0	230	101300000	1000	0	0	-1	1500
25011355	121	922	0	-100	0	230	101300000	1000	0	0	-1	1500
25023915	113	931	0	-100	0	230	101300000	1000	0	0	-1	1500
25036475	121	922	0	-100	0	230	101300000	1000	0	0	-1	1500
25049035	113	929	0	-100	0	230	101300000	1000	0	0	-1	1500
25061595	121	920	0	-100	0	230	101300000	1000	0	0	-1	1500
25074155	118	922	0	-100	0	230	101300000	1000	0	0	-1	1500
25086715	121	923	0	-100	0	230	101300000	1000	0	0	-1	1500
25099275	111	928	0	-100	0	230	101300000	1000	0	0	-1	1500
25111835	116	923	0	-100	0	230	101300000	1000	0	0	-1	1500
25124395	116	926	0	-100	0	230	101300000	1000	0	0	-1	1500
25136955	116	923	0	-100	0	230	101300000	1000	0	0	-1	1500
25149515	121	920	0	-100	0	230	101300000	1000	0	0	-1	1500
25162075	113	927	0	-100	0	230	101300000	1000	0	0	-1	1500
25174635	116	922	0	-100	0	230	101300000	1000	0	0	-1	1500
25187195	121	927	0	-100	0	230	101300000	1000	0	0	-1	1500
25199755	116	922	0	-100	0	230	101300000	1000	0	0	-1	1500
25212315	121	922	0	-100	0	230	101300000	1000	0	0	-1	1500
25224875	114	925	0	-100	0	230	101300000	1000	0	0	-1	1500
25237435	121	924	0	-100	0	230	101300000	1000	0	0	-1	1500
25249995	111	925	0	-100	0	230	101300000	1000	0	0	-1	1500
25262555	116	923	0	-100	0	230	101300000	1000	0	0	-1	1500
25275115	118	927	0	-100	0	230	101300000	1000	0	0	-1	1500
25287675	116	922	0	-100	0	230	101300000	1000	0	0	-1	1500
25300235	116	926	0	-100	0	230	101300000	1000	0	0	-1	1500
25312795	121	922	0	-100	0	230	101300000	1000	0	0	-1	1500
25325355	114	926	0	-100	0	230	101300000	1000	0	0	-1	1500
25337915	111	927	0	-100	0	230	101300000	1000	0	0	-1	1500
25350475	121	918	0	-100	0	230	101300000	1000	0	0	-1	1500
25363035	116	926	0	-100	0	230	101300000	1000	0	0	-1	1500
25375595	118	927	0	-100	0	230	101300000	1000	0	0	-1	1500
25388155	123	925	0	-100	0	230	101300000	1000	0	0	-1	1500
25400715	116	921	0	-100	0	230	101300000	1000	0	0	-1	1500
25413275	121	919	0	-100	0	230	101300000	1000	0	0	-1	1500
25425835	113	926	0	-100	0	230	101300000	1000	0	0	-1	1500
25438395	121	922	0	-100	0	230	101300000	1000	0	0	-1	1500
25450955	111	926	0	-100	0	230	101300000	1000	0	0	-1	1500
25463515	113	923	0	-100	0	230	101300000	1000	0	0	-1	1500
25476075	121	926	0	-100	0	230	101300000	1000	0	0	-1	1500
25488635	113	926	0	-100	0	230	101300000	1000	0	0	-1	1500
25501195	121	926	0	-100	0	230	101300000	1000	0	0	-1	1500
25513755	116	925	0	-100	0	230	101300000	1000	0	0	-1	1500
25526315	116	926	0	-100	0	230	101300000	1000	0	0	-1	1500
25538875	118	924	0	-100	0	230	101300000	1000	0	0	-1	1500
25551435	116	925	0	-100	0	230	101300000	1000	0	0	-1	1500
25563995	116	921	0	-100	0	230	101300000	1000	0	0	-1	1500
25576555	116	921	0	-100	0	230	101300000	1000	0	0	-1	1500
25589115	121	925	0	-100	0	230	101300000	1000	0	0	-1	1500
25601675	111	924	0	-100	0	230	101300000	1000	0	0	-1	1500
25614235	114	931	0	-100	0	230	101300000	1000	0	0	-1	1500
25626795	116	922	0	-100	0	230	101300000	1000	0	0	-1	1500
25639355	121	924	0	-100	0	230	101300000	1000	0	0	-1	1500
25651915	114	927	0	-100	0	230	101300000	1000	0	0	-1	1500
25664475	114	929	0	-100	0	230	101300000	1000	0	0	-1	1500
25677035	118	923	0	-100	0	230	101300000	1000	0	0	-1	1500
25689595	113	926	0	-100	0	230	101300000	1000	0	0	-1	1500
25702155	121	925	0	-100	0	230	101300000	1000	0	0	-1	1500
25714715	121	923	0	-100	0	230	101300000	1000	0	0	-1	1500
25727275	113	926	0	-100	0	230	101300000	1000	0	0	-1	1500
25739835	116	922	0	-100	0	230	101300000	1000	0	0	-1	1500
25752395	118	922	0	-100	0	230	101300000	1000	0	0	-1	1500
25764955	121	924	0	-100	0	230	101300000	1000	0	0	-1	1500
25777515	113	924	0	-100	0	230	101300000	1000	0	0	-1	1500
25790075	113	926	0	-100	0	230	101300000	1000	0	0	-1	1500
25802635	118	925	0	-100	0	230	101300000	1000	0	0	-1	1500
25815195	113	924	0	-100	0	230	101300000	1000	0	0	-1	1500
25827755	113	927	0	-100	0	230	101300000	1000	0	0	-1	1500
25840315	116	923	0	-100	0	230	101300000	1000	0	0	-1	1500
25852875	123	925	0	-100	0	230	101300000	1000	0	0	-1	1500
25865435	121	923	0	-100	0	230	101300000	1000	0	0	-1	1500
25877995	116	926	0	-100	0	230	101300000	1000	0	0	-1	1500
25890555	116	928	0	-100	0	230	101300000	1000	0	0	-1	1500
25903115	118	925	0	-100	0	230	101300000	1000	0	0	-1	1500
25915675	118	924	0	-100	0	230	101300000	1000	0	0	-1	1500
25928235	114	926	0	-100	0	230	101300000	1000	0	0	-1	1500
25940795	118	923	0	-100	0	230	101300000	1000	0	0	-1	1500
25953355	116	924	0	-100	0	230	101300000	1000	0	0	-1	1500
25965915	113	928	0	-100	0	230	101300000	1000	0	0	-1	1500
25978475	121	925	0	-100	0	230	101300000	1000	0	0	-1	1500
25991035	116	926	0	-100	0	230	101300000	1000	0	0	-1	1500
26003595	121	923	0	-100	0	230	101300000	1000	0	0	-1	1500
26016155	118	925	0	-100	0	230	101300000	1000	0	0	-1	1500
26028715	116	922	0	-100	0	230	101300000	1000	0	0	-1	1500
26041275	121	921	0	-100	0	230	101300000	1000	0	0	-1	1500
26053835	116	928	0	-100	0	230	101300000	1000	0	0	-1	1500
26066395	121	924	0	-100	0	230	101300000	1000	0	0	-1	1500
26078955	116	926	0	-100	0	230	101300000	1000	0	0	-1	1500
26091515	113	925	0	-100	0	230	101300000	1000	0	0	-1	1500
26104075	121	921	0	-100	0	230	101300000	1000	0	0	-1	1500
26116635	116	929	0	-100	0	230	101300000	1000	0	0	-1	1500
26129195	118	922	0	-100	0	230	101300000	1000	0	0	-1	1500
26141755	111	927	0	-100	0	230	101300000	1000	0	0	-1	1500
26154315	116	923	0	-100	0	230	101300000	1000	0	0	-1	1500
26166875	116	923	0	-100	0	230	101300000	1000	0	0	-1	1500
26179435	116	926	0	-100	0	230	101300000	1000	0	0	-1	1500
26191995	121	923	0	-100	0	230	101300000	1000	0	0	-1	1500
26204555	118	922	0	-100	0	230	101300000	1000	0	0	-1	1500
26217115	113	929	0	-100	0	230	101300000	1000	0	0	-1	1500
26229675	113	924	0	-100	0	230	101300000	1000	0	0	-1	1500
26242235	121	924	0	-100	0	230	101300000	1000	0	0	-1	1500
26254795	113	926	0	-100	0	230	101300000	1000	0	0	-1	1500
26267355	113	926	0	-100	0	230	101300000	1000	0	0	-1	1500
26279915	116	925	0	-100	0	230	101300000	1000	0	0	-1	1500
26292475	123	924	0	-100	0	230	101300000	1000	0	0	-1	1500
26305035	113	926	0	-100	0	230	101300000	1000	0	0	-1	1500
26317595	113	926	0	-100	0	230	101300000	1000	0	0	-1	1500
26330155	118	928	0	-100	0	230	101300000	1000	0	0	-1	1500
26342715	116	922	0	-100	0	230	101300000	1000	0	0	-1	1500
26355275	118	924	0	-100	0	230	101300000	1000	0	0	-1	1500
26367835	123	925	0	-100	0	230	101300000	1000	0	0	-1	1500
26380395	113	927	0	-100	0	230	101300000	1000	0	0	-1	1500
26392955	116	928	0	-100	0	230	101300000	1000	0	0	-1	1500
26405515	113	922	0	-100	0	230	101300000	1000	0	0	-1	1500
26418075	121	924	0	-100	0	230	101300000	1000	0	0	-1	1500
26430635	111	926	0	-100	0	230	101300000	1000	0	0	-1	1500
26443195	113	924	0	-100	0	230	101300000	1000	0	0	-1	1500
26455755	118	923	0	-100	0	230	101300000	1000	0	0	-1	1500
26468315	121	922	0	-100	0	230	101300000	1000	0	0	-1	1500
26480875	111	923	0	-100	0	230	101300000	1000	0	0	-1	1500
26493435	114	927	0	-100	0	230	101300000	1000	0	0	-1	1500
26505995	116	921	0	-100	0	230	101300000	1000	0	0	-1	1500
26518555	118	923	0	-100	0	230	101300000	1000	0	0	-1	1500
26531115	113	926	0	-100	0	230	101300000	1000	0	0	-1	1500
26543675	113	926	0	-100	0	230	101300000	1000	0	0	-1	1500
26556235	113	927	0	-100	0	230	101300000	1000	0	0	-1	1500
26568795	116	924	0	-100	0	230	101300000	1000	0	0	-1	1500
26581355	121	924	0	-100	0	230	101300000	1000	0	0	-1	1500
26593915	118	926	0	-100	0	230	101300000	1000	0	0	-1	1500
26606475	111	927	0	-100	0	230	101300000	1000	0	0	-1	1500
26619035	116	929	0	-100	0	230	101300000	1000	0	0	-1	1500
26631595	113	933	0	-100	0	230	101300000	1000	0	0	-1	1500
26644155	126	927	0	-100	0	230	101300000	1000	0	0	-1	1500
26656715	116	926	0	-100	0	230	101300000	1000	0	0	-1	1500
26669275	114	929	0	-100	0	230	101300000	1000	0	0	-1	1500
26681835	113	928	0	-100	0	230	101300000	1000	0	0	-1	1500
26694395	123	925	0	-100	0	230	101300000	1000	0	0	-1	1500
26706955	118	927	0	-100	0	230	101300000	1000	0	0	-1	1500
26719515	111	922	0	-100	0	230	101300000	1000	0	0	-1	1500
26732075	114	925	0	-100	0	230	101300000	1000	0	0	-1	1500
26744635	113	927	0	-100	0	230	101300000	1000	0	0	-1	1500
26757195	118	923	0	-100	0	230	101300000	1000	0	0	-1	1500
26769755	121	923	0	-100	0	230	101300000	1000	0	0	-1	1500
26782315	121	927	0	-100	0	230	101300000	1000	0	0	-1	1500
26794875	118	924	0	-100	0	230	101300000	1000	0	0	-1	1500
26807435	113	925	0	-100	0	230	101300000	1000	0	0	-1	1500
26819995	116	927	0	-100	0	230	101300000	1000	0	0	-1	1500
26832555	114	926	0	-100	0	230	101300000	1000	0	0	-1	1500
26845115	113	924	0	-100	0	230	101300000	1000	0	0	-1	1500
26857675	113	926	0	-100	0	230	101300000	1000	0	0	-1	1500
26870235	111	925	0	-100	0	230	101300000	1000	0	0	-1	1500
26882795	113	929	0	-100	0	230	101300000	1000	0	0	-1	1500
26895355	116	924	0	-100	0	230	101300000	1000	0	0	-1	1500
26907915	113	929	0	-100	0	230	101300000	1000	0	0	-1	1500
26920475	111	928	0	-100	0	230	101300000	1000	0	0	-1	1500
26933035	113	929	0	-100	0	230	101300000	1000	0	0	-1	1500
26945595	113	924	0	-100	0	230	101300000	1000	0	0	-1	1500
26958155	118	925	0	-100	0	230	101300000	1000	0	0	-1	1500
26970715	116	923	0	-100	0	230	101300000	1000	0	0	-1	1500
26983275	116	924	0	-100	0	230	101300000	1000	0	0	-1	1500
26995835	113	923	0	-100	0	230	101300000	1000	0	0	-1	1500
27008395	116	926	0	-100	0	230	101300000	1000	0	0	-1	1500
27020955	111	923	0	-100	0	230	101300000	1000	0	0	-1	1500
27033515	111	924	0	-100	0	230	101300000	1000	0	0	-1	1500
27046075	113	928	0	-100	0	230	101300000	1000	0	0	-1	1500
