timestamp	voltage	current	windSpeed	pitchAngle	rpm	temperature	ambientPressure	humidity	accelerationX	accelerationY	accelerationZ	currentSink
7038070	5017	0	0	-100	0	230	101300000	1000	0	0	-1	0
7045523	5018	0	0	-100	0	230	101300000	1000	0	0	-1	0
7058083	5016	0	0	-100	0	230	101300000	1000	0	0	-1	0
7070643	5016	0	0	-100	0	230	101300000	1000	0	0	-1	0
7083203	5009	0	0	-100	0	230	101300000	1000	0	0	-1	0
7095763	5011	0	0	-100	0	230	101300000	1000	0	0	-1	0
7108323	5016	0	0	-100	0	230	101300000	1000	0	0	-1	0
7120883	5010	0	0	-100	0	230	101300000	1000	0	0	-1	0
7133443	5012	0	0	-100	0	230	101300000	1000	0	0	-1	0
7146004	5010	2	0	-100	0	230	101300000	1000	0	0	-1	0
7158563	5016	0	0	-100	0	230	101300000	1000	0	0	-1	0
7171123	5014	0	0	-100	0	230	101300000	1000	0	0	-1	0
7183683	5018	0	0	-100	0	230	101300000	1000	0	0	-1	0
7196243	5015	2	0	-100	0	230	101300000	1000	0	0	-1	0
7208803	5019	0	0	-100	0	230	101300000	1000	0	0	-1	0
7221363	5019	0	0	-100	0	230	101300000	1000	0	0	-1	0
7233923	5012	0	0	-100	0	230	101300000	1000	0	0	-1	0
7246483	5011	2	0	-100	0	230	101300000	1000	0	0	-1	0
7259043	5016	0	0	-100	0	230	101300000	1000	0	0	-1	0
7271603	5018	0	0	-100	0	230	101300000	1000	0	0	-1	0
7284163	5014	0	0	-100	0	230	101300000	1000	0	0	-1	0
7296723	5017	0	0	-100	0	230	101300000	1000	0	0	-1	0
7309283	5017	0	0	-100	0	230	101300000	1000	0	0	-1	0
7321843	5016	0	0	-100	0	230	101300000	1000	0	0	-1	0
7334403	5014	0	0	-100	0	230	101300000	1000	0	0	-1	0
7346963	5015	0	0	-100	0	230	101300000	1000	0	0	-1	0
7707795	5018	0	0	-100	0	230	101300000	1000	0	0	-1	0
7720355	5016	0	0	-100	0	230	101300000	1000	0	0	-1	0
7732915	5012	0	0	-100	0	230	101300000	1000	0	0	-1	0
7745475	5011	2	0	-100	0	230	101300000	1000	0	0	-1	0
7758035	5019	0	0	-100	0	230	101300000	1000	0	0	-1	0
7770595	5021	0	0	-100	0	230	101300000	1000	0	0	-1	0
7783155	5013	0	0	-100	0	230	101300000	1000	0	0	-1	0
7795715	5010	0	0	-100	0	230	101300000	1000	0	0	-1	0
7808275	5012	0	0	-100	0	230	101300000	1000	0	0	-1	0
7820835	5019	0	0	-100	0	230	101300000	1000	0	0	-1	0
7833395	5011	0	0	-100	0	230	101300000	1000	0	0	-1	0
7845955	5011	0	0	-100	0	230	101300000	1000	0	0	-1	0
7858515	5021	0	0	-100	0	230	101300000	1000	0	0	-1	0
7871075	5009	0	0	-100	0	230	101300000	1000	0	0	-1	0
7883635	5015	0	0	-100	0	230	101300000	1000	0	0	-1	0
7896195	5017	0	0	-100	0	230	101300000	1000	0	0	-1	0
7908755	5011	2	0	-100	0	230	101300000	1000	0	0	-1	0
7921315	5017	0	0	-100	0	230	101300000	1000	0	0	-1	0
7933875	5016	0	0	-100	0	230	101300000	1000	0	0	-1	0
7946435	5025	0	0	-100	0	230	101300000	1000	0	0	-1	0
7958995	5014	0	0	-100	0	230	101300000	1000	0	0	-1	0
7971555	5015	0	0	-100	0	230	101300000	1000	0	0	-1	0
7984115	5012	0	0	-100	0	230	101300000	1000	0	0	-1	0
7996675	5018	0	0	-100	0	230	101300000	1000	0	0	-1	0
8009235	5015	1	0	-100	0	230	101300000	1000	0	0	-1	0
8021795	5017	0	0	-100	0	230	101300000	1000	0	0	-1	0
8034355	5015	2	0	-100	0	230	101300000	1000	0	0	-1	0
8046915	5017	0	0	-100	0	230	101300000	1000	0	0	-1	0
8059475	5012	1	0	-100	0	230	101300000	1000	0	0	-1	0
8072035	5017	0	0	-100	0	230	101300000	1000	0	0	-1	0
8084595	5012	3	0	-100	0	230	101300000	1000	0	0	-1	0
8097155	5014	0	0	-100	0	230	101300000	1000	0	0	-1	0
8109715	5015	0	0	-100	0	230	101300000	1000	0	0	-1	0
8122275	5018	0	0	-100	0	230	101300000	1000	0	0	-1	0
8134835	5011	0	0	-100	0	230	101300000	1000	0	0	-1	0
8147395	5020	0	0	-100	0	230	101300000	1000	0	0	-1	0
8159955	5010	0	0	-100	0	230	101300000	1000	0	0	-1	0
8172515	5015	0	0	-100	0	230	101300000	1000	0	0	-1	0
8185075	5016	0	0	-100	0	230	101300000	1000	0	0	-1	0
8197635	5012	1	0	-100	0	230	101300000	1000	0	0	-1	0
8210195	5017	0	0	-100	0	230	101300000	1000	0	0	-1	0
8222755	5014	4	0	-100	0	230	101300000	1000	0	0	-1	0
8235315	5022	0	0	-100	0	230	101300000	1000	0	0	-1	0
8247875	5014	0	0	-100	0	230	101300000	1000	0	0	-1	0
8260435	5011	3	0	-100	0	230	101300000	1000	0	0	-1	0
8272995	5020	2	0	-100	0	230	101300000	1000	0	0	-1	0
8285555	5011	0	0	-100	0	230	101300000	1000	0	0	-1	0
8298115	5015	0	0	-100	0	230	101300000	1000	0	0	-1	0
8310675	5020	0	0	-100	0	230	101300000	1000	0	0	-1	0
8323235	5011	3	0	-100	0	230	101300000	1000	0	0	-1	0
8348355	5012	0	0	-100	0	230	101300000	1000	0	0	-1	0
8360915	5015	0	0	-100	0	230	101300000	1000	0	0	-1	0
8373475	5018	0	0	-100	0	230	101300000	1000	0	0	-1	0
8386035	5016	2	0	-100	0	230	101300000	1000	0	0	-1	0
8398595	5017	0	0	-100	0	230	101300000	1000	0	0	-1	0
8411155	5008	4	0	-100	0	230	101300000	1000	0	0	-1	0
8423715	5014	0	0	-100	0	230	101300000	1000	0	0	-1	0
8436275	5015	2	0	-100	0	230	101300000	1000	0	0	-1	0
8448835	5017	0	0	-100	0	230	101300000	1000	0	0	-1	0
8461395	5015	3	0	-100	0	230	101300000	1000	0	0	-1	0
8473955	5018	0	0	-100	0	230	101300000	1000	0	0	-1	0
8511635	5021	0	0	-100	0	230	101300000	1000	0	0	-1	0
8524195	5014	3	0	-100	0	230	101300000	1000	0	0	-1	0
8536755	5018	0	0	-100	0	230	101300000	1000	0	0	-1	0
8549315	5015	0	0	-100	0	230	101300000	1000	0	0	-1	0
8561875	5014	0	0	-100	0	230	101300000	1000	0	0	-1	0
8574435	5017	0	0	-100	0	230	101300000	1000	0	0	-1	0
8586995	5016	0	0	-100	0	230	101300000	1000	0	0	-1	0
8599555	5014	1	0	-100	0	230	101300000	1000	0	0	-1	0
8612115	5014	0	0	-100	0	230	101300000	1000	0	0	-1	0
8624675	5014	0	0	-100	0	230	101300000	1000	0	0	-1	0
8637235	5014	0	0	-100	0	230	101300000	1000	0	0	-1	0
8662355	5014	4	0	-100	0	230	101300000	1000	0	0	-1	0
8674915	5019	0	0	-100	0	230	101300000	1000	0	0	-1	0
8687475	5010	3	0	-100	0	230	101300000	1000	0	0	-1	0
8700035	5018	0	0	-100	0	230	101300000	1000	0	0	-1	0
8712595	5011	0	0	-100	0	230	101300000	1000	0	0	-1	0
8725155	5008	0	0	-100	0	230	101300000	1000	0	0	-1	0
8737715	5017	0	0	-100	0	230	101300000	1000	0	0	-1	0
8750275	5010	2	0	-100	0	230	101300000	1000	0	0	-1	0
8762835	5017	0	0	-100	0	230	101300000	1000	0	0	-1	0
8775395	5010	4	0	-100	0	230	101300000	1000	0	0	-1	0
8787955	5018	0	0	-100	0	230	101300000	1000	0	0	-1	0
8800515	5008	0	0	-100	0	230	101300000	1000	0	0	-1	0
8813075	5010	2	0	-100	0	230	101300000	1000	0	0	-1	0
8825635	5018	0	0	-100	0	230	101300000	1000	0	0	-1	0
8838195	5012	0	0	-100	0	230	101300000	1000	0	0	-1	0
8850755	5016	0	0	-100	0	230	101300000	1000	0	0	-1	0
8863315	5015	0	0	-100	0	230	101300000	1000	0	0	-1	0
8875875	5016	1	0	-100	0	230	101300000	1000	0	0	-1	0
8888435	5021	0	0	-100	0	230	101300000	1000	0	0	-1	0
8900995	5008	0	0	-100	0	230	101300000	1000	0	0	-1	0
8913555	5015	0	0	-100	0	230	101300000	1000	0	0	-1	0
8926115	5017	0	0	-100	0	230	101300000	1000	0	0	-1	0
8938675	5015	2	0	-100	0	230	101300000	1000	0	0	-1	0
8951235	5017	0	0	-100	0	230	101300000	1000	0	0	-1	0
8963795	5016	0	0	-100	0	230	101300000	1000	0	0	-1	0
8976355	5012	1	0	-100	0	230	101300000	1000	0	0	-1	0
8988915	5018	0	0	-100	0	230	101300000	1000	0	0	-1	0
9001475	5015	0	0	-100	0	230	101300000	1000	0	0	-1	0
9014035	5014	3	0	-100	0	230	101300000	1000	0	0	-1	0
9026595	5014	0	0	-100	0	230	101300000	1000	0	0	-1	0
9039155	5012	0	0	-100	0	230	101300000	1000	0	0	-1	0
9051715	5011	0	0	-100	0	230	101300000	1000	0	0	-1	0
9064275	5012	2	0	-100	0	230	101300000	1000	0	0	-1	0
9076835	5018	0	0	-100	0	230	101300000	1000	0	0	-1	0
9089395	5012	0	0	-100	0	230	101300000	1000	0	0	-1	0
9101955	5012	0	0	-100	0	230	101300000	1000	0	0	-1	0
9114515	5021	0	0	-100	0	230	101300000	1000	0	0	-1	0
9127075	5012	0	0	-100	0	230	101300000	1000	0	0	-1	0
9139635	5019	0	0	-100	0	230	101300000	1000	0	0	-1	0
9152195	5014	0	0	-100	0	230	101300000	1000	0	0	-1	0
9164755	5014	0	0	-100	0	230	101300000	1000	0	0	-1	0
9177315	5019	0	0	-100	0	230	101300000	1000	0	0	-1	0
9189875	5014	0	0	-100	0	230	101300000	1000	0	0	-1	0
9202435	5012	0	0	-100	0	230	101300000	1000	0	0	-1	0
9214995	5016	3	0	-100	0	230	101300000	1000	0	0	-1	0
9227555	5014	0	0	-100	0	230	101300000	1000	0	0	-1	0
9240115	5015	2	0	-100	0	230	101300000	1000	0	0	-1	0
9252675	5023	0	0	-100	0	230	101300000	1000	0	0	-1	0
9265235	5016	0	0	-100	0	230	101300000	1000	0	0	-1	0
9277795	5013	0	0	-100	0	230	101300000	1000	0	0	-1	0
9290355	5012	0	0	-100	0	230	101300000	1000	0	0	-1	0
9302915	5016	0	0	-100	0	230	101300000	1000	0	0	-1	0
9315475	5015	0	0	-100	0	230	101300000	1000	0	0	-1	0
9328035	5015	0	0	-100	0	230	101300000	1000	0	0	-1	0
9340595	5018	0	0	-100	0	230	101300000	1000	0	0	-1	0
9353155	5005	0	0	-100	0	230	101300000	1000	0	0	-1	0
9365715	5016	0	0	-100	0	230	101300000	1000	0	0	-1	0
9378275	5011	0	0	-100	0	230	101300000	1000	0	0	-1	0
9390835	5012	1	0	-100	0	230	101300000	1000	0	0	-1	0
9403395	5018	0	0	-100	0	230	101300000	1000	0	0	-1	0
9415955	5011	0	0	-100	0	230	101300000	1000	0	0	-1	0
9428515	5014	1	0	-100	0	230	101300000	1000	0	0	-1	0
9441075	5017	0	0	-100	0	230	101300000	1000	0	0	-1	0
9453635	5014	0	0	-100	0	230	101300000	1000	0	0	-1	0
9466195	5018	0	0	-100	0	230	101300000	1000	0	0	-1	0
9478755	5014	0	0	-100	0	230	101300000	1000	0	0	-1	0
9491315	5012	0	0	-100	0	230	101300000	1000	0	0	-1	0
9503875	5017	0	0	-100	0	230	101300000	1000	0	0	-1	0
9516435	5011	0	0	-100	0	230	101300000	1000	0	0	-1	0
9528995	5012	0	0	-100	0	230	101300000	1000	0	0	-1	0
9541555	5019	0	0	-100	0	230	101300000	1000	0	0	-1	0
9554115	5018	0	0	-100	0	230	101300000	1000	0	0	-1	0
9566675	5015	2	0	-100	0	230	101300000	1000	0	0	-1	0
9579235	5020	0	0	-100	0	230	101300000	1000	0	0	-1	0
9591795	5017	0	0	-100	0	230	101300000	1000	0	0	-1	0
9604355	5010	0	0	-100	0	230	101300000	1000	0	0	-1	0
9616915	5014	2	0	-100	0	230	101300000	1000	0	0	-1	0
9629475	5021	0	0	-100	0	230	101300000	1000	0	0	-1	0
9642035	5016	0	0	-100	0	230	101300000	1000	0	0	-1	0
9654595	5012	2	0	-100	0	230	101300000	1000	0	0	-1	0
9667155	5013	0	0	-100	0	230	101300000	1000	0	0	-1	0
9679715	5016	0	0	-100	0	230	101300000	1000	0	0	-1	0
9692275	5015	2	0	-100	0	230	101300000	1000	0	0	-1	0
9704835	5017	0	0	-100	0	230	101300000	1000	0	0	-1	0
9717395	5012	0	0	-100	0	230	101300000	1000	0	0	-1	0
9729955	5012	2	0	-100	0	230	101300000	1000	0	0	-1	0
9742515	5018	0	0	-100	0	230	101300000	1000	0	0	-1	0
9755075	5014	0	0	-100	0	230	101300000	1000	0	0	-1	0
9767635	5020	0	0	-100	0	230	101300000	1000	0	0	-1	0
9780195	5010	0	0	-100	0	230	101300000	1000	0	0	-1	0
9792755	5022	0	0	-100	0	230	101300000	1000	0	0	-1	0
9805315	5012	0	0	-100	0	230	101300000	1000	0	0	-1	0
9817875	5021	0	0	-100	0	230	101300000	1000	0	0	-1	0
9830435	5011	0	0	-100	0	230	101300000	1000	0	0	-1	0
9842995	5019	4	0	-100	0	230	101300000	1000	0	0	-1	0
9855555	5014	4	0	-100	0	230	101300000	1000	0	0	-1	0
9868115	5021	0	0	-100	0	230	101300000	1000	0	0	-1	0
9880675	5015	3	0	-100	0	230	101300000	1000	0	0	-1	0
9893235	5018	0	0	-100	0	230	101300000	1000	0	0	-1	0
9905795	5021	2	0	-100	0	230	101300000	1000	0	0	-1	0
9918355	5016	0	0	-100	0	230	101300000	1000	0	0	-1	0
9930915	5015	3	0	-100	0	230	101300000	1000	0	0	-1	0
9943475	5019	0	0	-100	0	230	101300000	1000	0	0	-1	0
9956035	5014	2	0	-100	0	230	101300000	1000	0	0	-1	0
9968595	5017	0	0	-100	0	230	101300000	1000	0	0	-1	0
9981155	5011	0	0	-100	0	230	101300000	1000	0	0	-1	0
9993715	5014	4	0	-100	0	230	101300000	1000	0	0	-1	0
10006275	5018	0	0	-100	0	230	101300000	1000	0	0	-1	0
10018835	5014	2	0	-100	0	230	101300000	1000	0	0	-1	0
10031395	5017	0	0	-100	0	230	101300000	1000	0	0	-1	0
10043955	5012	0	0	-100	0	230	101300000	1000	0	0	-1	0
10056515	5014	0	0	-100	0	230	101300000	1000	0	0	-1	0
10069075	5021	0	0	-100	0	230	101300000	1000	0	0	-1	0
10081635	5015	0	0	-100	0	230	101300000	1000	0	0	-1	0
10094195	5015	1	0	-100	0	230	101300000	1000	0	0	-1	0
10106755	5021	0	0	-100	0	230	101300000	1000	0	0	-1	0
10119315	5010	0	0	-100	0	230	101300000	1000	0	0	-1	0
10131875	5011	0	0	-100	0	230	101300000	1000	0	0	-1	0
10144435	5016	0	0	-100	0	230	101300000	1000	0	0	-1	0
10156995	5007	0	0	-100	0	230	101300000	1000	0	0	-1	0
10169555	5014	0	0	-100	0	230	101300000	1000	0	0	-1	0
10182115	5018	0	0	-100	0	230	101300000	1000	0	0	-1	0
10194675	5017	0	0	-100	0	230	101300000	1000	0	0	-1	0
10207235	5015	0	0	-100	0	230	101300000	1000	0	0	-1	0
10219795	5017	0	0	-100	0	230	101300000	1000	0	0	-1	0
10232355	5011	2	0	-100	0	230	101300000	1000	0	0	-1	0
10244915	5016	0	0	-100	0	230	101300000	1000	0	0	-1	0
10257475	5015	0	0	-100	0	230	101300000	1000	0	0	-1	0
10270035	5010	0	0	-100	0	230	101300000	1000	0	0	-1	0
10282595	5018	0	0	-100	0	230	101300000	1000	0	0	-1	0
10295155	5007	0	0	-100	0	230	101300000	1000	0	0	-1	0
10307715	5014	0	0	-100	0	230	101300000	1000	0	0	-1	0
10320275	5012	0	0	-100	0	230	101300000	1000	0	0	-1	0
10332835	5012	0	0	-100	0	230	101300000	1000	0	0	-1	0
10345395	5018	0	0	-100	0	230	101300000	1000	0	0	-1	0
10357955	5012	4	0	-100	0	230	101300000	1000	0	0	-1	0
10370515	5015	0	0	-100	0	230	101300000	1000	0	0	-1	0
10383075	5017	0	0	-100	0	230	101300000	1000	0	0	-1	0
10395635	5012	0	0	-100	0	230	101300000	1000	0	0	-1	0
10408195	5016	0	0	-100	0	230	101300000	1000	0	0	-1	0
10420755	5018	0	0	-100	0	230	101300000	1000	0	0	-1	0
10433315	5012	0	0	-100	0	230	101300000	1000	0	0	-1	0
10445875	5011	0	0	-100	0	230	101300000	1000	0	0	-1	0
10458435	5018	0	0	-100	0	230	101300000	1000	0	0	-1	0
10470995	5011	0	0	-100	0	230	101300000	1000	0	0	-1	0
10483555	5021	0	0	-100	0	230	101300000	1000	0	0	-1	0
10496115	5012	0	0	-100	0	230	101300000	1000	0	0	-1	0
10508675	5011	0	0	-100	0	230	101300000	1000	0	0	-1	0
10521235	5020	0	0	-100	0	230	101300000	1000	0	0	-1	0
10533795	5012	0	0	-100	0	230	101300000	1000	0	0	-1	0
10546355	5012	0	0	-100	0	230	101300000	1000	0	0	-1	0
10558915	5021	0	0	-100	0	230	101300000	1000	0	0	-1	0
10571475	5011	0	0	-100	0	230	101300000	1000	0	0	-1	0
10584035	5012	3	0	-100	0	230	101300000	1000	0	0	-1	0
10596595	5021	0	0	-100	0	230	101300000	1000	0	0	-1	0
10609155	5008	0	0	-100	0	230	101300000	1000	0	0	-1	0
10621715	5011	1	0	-100	0	230	101300000	1000	0	0	-1	0
10634275	5017	0	0	-100	0	230	101300000	1000	0	0	-1	0
10646835	5012	0	0	-100	0	230	101300000	1000	0	0	-1	0
10659395	5016	1	0	-100	0	230	101300000	1000	0	0	-1	0
10671955	5018	0	0	-100	0	230	101300000	1000	0	0	-1	0
10684515	5011	0	0	-100	0	230	101300000	1000	0	0	-1	0
10697075	5016	0	0	-100	0	230	101300000	1000	0	0	-1	0
10709635	5015	0	0	-100	0	230	101300000	1000	0	0	-1	0
10722195	5015	0	0	-100	0	230	101300000	1000	0	0	-1	0
10734755	5014	0	0	-100	0	230	101300000	1000	0	0	-1	0
10747315	5015	0	0	-100	0	230	101300000	1000	0	0	-1	0
10759875	5011	1	0	-100	0	230	101300000	1000	0	0	-1	0
10772435	5018	0	0	-100	0	230	101300000	1000	0	0	-1	0
10784995	5014	0	0	-100	0	230	101300000	1000	0	0	-1	0
10797555	5015	0	0	-100	0	230	101300000	1000	0	0	-1	0
10810115	5016	3	0	-100	0	230	101300000	1000	0	0	-1	0
10822675	5012	2	0	-100	0	230	101300000	1000	0	0	-1	0
10835235	5014	0	0	-100	0	230	101300000	1000	0	0	-1	0
10847795	5019	0	0	-100	0	230	101300000	1000	0	0	-1	0
10860355	5018	0	0	-100	0	230	101300000	1000	0	0	-1	0
10872915	5007	0	0	-100	0	230	101300000	1000	0	0	-1	0
10885475	5014	3	0	-100	0	230	101300000	1000	0	0	-1	0
10898035	5012	0	0	-100	0	230	101300000	1000	0	0	-1	0
10910595	5018	0	0	-100	0	230	101300000	1000	0	0	-1	0
10923155	5013	0	0	-100	0	230	101300000	1000	0	0	-1	0
10935715	5014	0	0	-100	0	230	101300000	1000	0	0	-1	0
10948275	5012	4	0	-100	0	230	101300000	1000	0	0	-1	0
10960835	5011	2	0	-100	0	230	101300000	1000	0	0	-1	0
10973395	5016	0	0	-100	0	230	101300000	1000	0	0	-1	0
10985955	5016	0	0	-100	0	230	101300000	1000	0	0	-1	0
10998515	5016	0	0	-100	0	230	101300000	1000	0	0	-1	0
11011075	5012	0	0	-100	0	230	101300000	1000	0	0	-1	0
11023635	5012	2	0	-100	0	230	101300000	1000	0	0	-1	0
11036195	5015	0	0	-100	0	230	101300000	1000	0	0	-1	0
11048755	5020	0	0	-100	0	230	101300000	1000	0	0	-1	0
11061315	5010	0	0	-100	0	230	101300000	1000	0	0	-1	0
11073875	5014	2	0	-100	0	230	101300000	1000	0	0	-1	0
11086435	5016	0	0	-100	0	230	101300000	1000	0	0	-1	0
11098995	5018	0	0	-100	0	230	101300000	1000	0	0	-1	0
11111555	5012	0	0	-100	0	230	101300000	1000	0	0	-1	0
11124115	5014	4	0	-100	0	230	101300000	1000	0	0	-1	0
11136675	5012	0	0	-100	0	230	101300000	1000	0	0	-1	0
11149235	5018	0	0	-100	0	230	101300000	1000	0	0	-1	0
11161795	5018	0	0	-100	0	230	101300000	1000	0	0	-1	0
11174355	5018	0	0	-100	0	230	101300000	1000	0	0	-1	0
11186915	5017	0	0	-100	0	230	101300000	1000	0	0	-1	0
11199475	5014	2	0	-100	0	230	101300000	1000	0	0	-1	0
11212035	5015	0	0	-100	0	230	101300000	1000	0	0	-1	0
11224595	5022	0	0	-100	0	230	101300000	1000	0	0	-1	0
11237155	5016	0	0	-100	0	230	101300000	1000	0	0	-1	0
11249715	5016	0	0	-100	0	230	101300000	1000	0	0	-1	0
11262275	5017	0	0	-100	0	230	101300000	1000	0	0	-1	0
11274835	5011	0	0	-100	0	230	101300000	1000	0	0	-1	0
11287395	5010	0	0	-100	0	230	101300000	1000	0	0	-1	0
11299955	5009	0	0	-100	0	230	101300000	1000	0	0	-1	0
11312515	5012	3	0	-100	0	230	101300000	1000	0	0	-1	0
11325075	5011	1	0	-100	0	230	101300000	1000	0	0	-1	0
11337635	5015	0	0	-100	0	230	101300000	1000	0	0	-1	0
11362755	5018	0	0	-100	0	230	101300000	1000	0	0	-1	0
11375315	5014	0	0	-100	0	230	101300000	1000	0	0	-1	0
11387875	5014	0	0	-100	0	230	101300000	1000	0	0	-1	0
11400435	5012	1	0	-100	0	230	101300000	1000	0	0	-1	0
11412995	5016	0	0	-100	0	230	101300000	1000	0	0	-1	0
11425555	5017	0	0	-100	0	230	101300000	1000	0	0	-1	0
11438115	5015	0	0	-100	0	230	101300000	1000	0	0	-1	0
11450675	5015	0	0	-100	0	230	101300000	1000	0	0	-1	0
11463235	5012	0	0	-100	0	230	101300000	1000	0	0	-1	0
11475795	5018	0	0	-100	0	230	101300000	1000	0	0	-1	0
11488355	5018	0	0	-100	0	230	101300000	1000	0	0	-1	0
11500915	5014	0	0	-100	0	230	101300000	1000	0	0	-1	0
11513475	5015	2	0	-100	0	230	101300000	1000	0	0	-1	0
11526035	5011	0	0	-100	0	230	101300000	1000	0	0	-1	0
11538595	5019	0	0	-100	0	230	101300000	1000	0	0	-1	0
11551155	5008	0	0	-100	0	230	101300000	1000	0	0	-1	0
11563715	5014	1	0	-100	0	230	101300000	1000	0	0	-1	0
11576275	5015	0	0	-100	0	230	101300000	1000	0	0	-1	0
11588835	5018	0	0	-100	0	230	101300000	1000	0	0	-1	0
11601395	5011	0	0	-100	0	230	101300000	1000	0	0	-1	0
11613955	5015	2	0	-100	0	230	101300000	1000	0	0	-1	0
11626515	5010	1	0	-100	0	230	101300000	1000	0	0	-1	0
11639075	5022	0	0	-100	0	230	101300000	1000	0	0	-1	0
11651635	5020	0	0	-100	0	230	101300000	1000	0	0	-1	0
11664195	5014	0	0	-100	0	230	101300000	1000	0	0	-1	0
11676755	5012	4	0	-100	0	230	101300000	1000	0	0	-1	0
11689315	5014	0	0	-100	0	230	101300000	1000	0	0	-1	0
11701875	5015	0	0	-100	0	230	101300000	1000	0	0	-1	0
11714435	5011	0	0	-100	0	230	101300000	1000	0	0	-1	0
11726995	5014	0	0	-100	0	230	101300000	1000	0	0	-1	0
11739555	5018	0	0	-100	0	230	101300000	1000	0	0	-1	0
11752115	5012	0	0	-100	0	230	101300000	1000	0	0	-1	0
11764675	5011	1	0	-100	0	230	101300000	1000	0	0	-1	0
11777235	5018	0	0	-100	0	230	101300000	1000	0	0	-1	0
11789795	5008	0	0	-100	0	230	101300000	1000	0	0	-1	0
11802355	5012	0	0	-100	0	230	101300000	1000	0	0	-1	0
11814915	5016	0	0	-100	0	230	101300000	1000	0	0	-1	0
11827475	5014	0	0	-100	0	230	101300000	1000	0	0	-1	0
11840035	5014	0	0	-100	0	230	101300000	1000	0	0	-1	0
11852595	5018	0	0	-100	0	230	101300000	1000	0	0	-1	0
11865155	5006	0	0	-100	0	230	101300000	1000	0	0	-1	0
11877715	5016	0	0	-100	0	230	101300000	1000	0	0	-1	0
11890275	5017	0	0	-100	0	230	101300000	1000	0	0	-1	0
11902835	5009	0	0	-100	0	230	101300000	1000	0	0	-1	0
11915395	5012	0	0	-100	0	230	101300000	1000	0	0	-1	0
11927955	5018	0	0	-100	0	230	101300000	1000	0	0	-1	0
11940515	5006	0	0	-100	0	230	101300000	1000	0	0	-1	0
11953075	5010	1	0	-100	0	230	101300000	1000	0	0	-1	0
11965635	5018	0	0	-100	0	230	101300000	1000	0	0	-1	0
11978195	5014	0	0	-100	0	230	101300000	1000	0	0	-1	0
11990755	5012	3	0	-100	0	230	101300000	1000	0	0	-1	0
12003315	5021	0	0	-100	0	230	101300000	1000	0	0	-1	0
12015875	5018	0	0	-100	0	230	101300000	1000	0	0	-1	0
12028435	5012	1	0	-100	0	230	101300000	1000	0	0	-1	0
12040995	5022	4	0	-100	0	230	101300000	1000	0	0	-1	0
12053555	5017	0	0	-100	0	230	101300000	1000	0	0	-1	0
12066115	5015	2	0	-100	0	230	101300000	1000	0	0	-1	0
12078675	5021	0	0	-100	0	230	101300000	1000	0	0	-1	0
12091235	5011	0	0	-100	0	230	101300000	1000	0	0	-1	0
12103795	5015	0	0	-100	0	230	101300000	1000	0	0	-1	0
12116355	5018	0	0	-100	0	230	101300000	1000	0	0	-1	0
12128915	5008	0	0	-100	0	230	101300000	1000	0	0	-1	0
12141475	5012	0	0	-100	0	230	101300000	1000	0	0	-1	0
12154035	5018	0	0	-100	0	230	101300000	1000	0	0	-1	0
12166595	5015	0	0	-100	0	230	101300000	1000	0	0	-1	0
12179155	5008	5	0	-100	0	230	101300000	1000	0	0	-1	0
12191715	5019	0	0	-100	0	230	101300000	1000	0	0	-1	0
12204275	5018	0	0	-100	0	230	101300000	1000	0	0	-1	0
12216835	5014	0	0	-100	0	230	101300000	1000	0	0	-1	0
12229395	5014	0	0	-100	0	230	101300000	1000	0	0	-1	0
12241955	5017	0	0	-100	0	230	101300000	1000	0	0	-1	0
12254515	5014	2	0	-100	0	230	101300000	1000	0	0	-1	0
12267075	5020	0	0	-100	0	230	101300000	1000	0	0	-1	0
12279635	5017	0	0	-100	0	230	101300000	1000	0	0	-1	0
12292195	5014	1	0	-100	0	230	101300000	1000	0	0	-1	0
12304755	5020	0	0	-100	0	230	101300000	1000	0	0	-1	0
12317315	5016	0	0	-100	0	230	101300000	1000	0	0	-1	0
12329875	5022	0	0	-100	0	230	101300000	1000	0	0	-1	0
12342435	5016	0	0	-100	0	230	101300000	1000	0	0	-1	0
12354995	5012	0	0	-100	0	230	101300000	1000	0	0	-1	0
12367555	5021	0	0	-100	0	230	101300000	1000	0	0	-1	0
12380115	5015	0	0	-100	0	230	101300000	1000	0	0	-1	0
12392675	5010	0	0	-100	0	230	101300000	1000	0	0	-1	0
12405235	5021	0	0	-100	0	230	101300000	1000	0	0	-1	0
12417795	5012	3	0	-100	0	230	101300000	1000	0	0	-1	0
12430355	5012	0	0	-100	0	230	101300000	1000	0	0	-1	0
12442915	5018	0	0	-100	0	230	101300000	1000	0	0	-1	0
12455475	5012	0	0	-100	0	230	101300000	1000	0	0	-1	0
12468035	5017	0	0	-100	0	230	101300000	1000	0	0	-1	0
12480595	5012	0	0	-100	0	230	101300000	1000	0	0	-1	0
12493155	5007	2	0	-100	0	230	101300000	1000	0	0	-1	0
12505715	5016	0	0	-100	0	230	101300000	1000	0	0	-1	0
12518275	5011	3	0	-100	0	230	101300000	1000	0	0	-1	0
12530835	5016	0	0	-100	0	230	101300000	1000	0	0	-1	0
12543395	5011	0	0	-100	0	230	101300000	1000	0	0	-1	0
12555955	5012	0	0	-100	0	230	101300000	1000	0	0	-1	0
12568515	5018	0	0	-100	0	230	101300000	1000	0	0	-1	0
12581075	5014	0	0	-100	0	230	101300000	1000	0	0	-1	0
12593635	5014	1	0	-100	0	230	101300000	1000	0	0	-1	0
12606195	5017	0	0	-100	0	230	101300000	1000	0	0	-1	0
12618755	5010	0	0	-100	0	230	101300000	1000	0	0	-1	0
12631315	5014	0	0	-100	0	230	101300000	1000	0	0	-1	0
12643875	5017	0	0	-100	0	230	101300000	1000	0	0	-1	0
12656435	5014	0	0	-100	0	230	101300000	1000	0	0	-1	0
12668995	5019	3	0	-100	0	230	101300000	1000	0	0	-1	0
12681555	5014	0	0	-100	0	230	101300000	1000	0	0	-1	0
12694115	5023	0	0	-100	0	230	101300000	1000	0	0	-1	0
12706675	5015	0	0	-100	0	230	101300000	1000	0	0	-1	0
12719235	5009	1	0	-100	0	230	101300000	1000	0	0	-1	0
12731795	5018	0	0	-100	0	230	101300000	1000	0	0	-1	0
12744355	5015	3	0	-100	0	230	101300000	1000	0	0	-1	0
12756915	5019	0	0	-100	0	230	101300000	1000	0	0	-1	0
12769475	5010	0	0	-100	0	230	101300000	1000	0	0	-1	0
12782035	5016	0	0	-100	0	230	101300000	1000	0	0	-1	0
12794595	5013	0	0	-100	0	230	101300000	1000	0	0	-1	0
12807155	5007	3	0	-100	0	230	101300000	1000	0	0	-1	0
12819715	5021	0	0	-100	0	230	101300000	1000	0	0	-1	0
12832275	5014	2	0	-100	0	230	101300000	1000	0	0	-1	0
12844835	5022	0	0	-100	0	230	101300000	1000	0	0	-1	0
12857395	5017	0	0	-100	0	230	101300000	1000	0	0	-1	0
12869955	5014	0	0	-100	0	230	101300000	1000	0	0	-1	0
12882515	5010	1	0	-100	0	230	101300000	1000	0	0	-1	0
12895075	5022	0	0	-100	0	230	101300000	1000	0	0	-1	0
12907635	5016	0	0	-100	0	230	101300000	1000	0	0	-1	0
12920195	5015	0	0	-100	0	230	101300000	1000	0	0	-1	0
12932755	5015	0	0	-100	0	230	101300000	1000	0	0	-1	0
12945315	5017	0	0	-100	0	230	101300000	1000	0	0	-1	0
12957875	5015	0	0	-100	0	230	101300000	1000	0	0	-1	0
12970435	5015	2	0	-100	0	230	101300000	1000	0	0	-1	0
12982995	5020	4	0	-100	0	230	101300000	1000	0	0	-1	0
12995555	5015	0	0	-100	0	230	101300000	1000	0	0	-1	0
13008115	5012	1	0	-100	0	230	101300000	1000	0	0	-1	0
13020675	5021	0	0	-100	0	230	101300000	1000	0	0	-1	0
13033235	5017	0	0	-100	0	230	101300000	1000	0	0	-1	0
13045795	5008	0	0	-100	0	230	101300000	1000	0	0	-1	0
13058355	5014	0	0	-100	0	230	101300000	1000	0	0	-1	0
13070915	5017	0	0	-100	0	230	101300000	1000	0	0	-1	0
13083475	5016	0	0	-100	0	230	101300000	1000	0	0	-1	0
13096035	5011	3	0	-100	0	230	101300000	1000	0	0	-1	0
13108595	5014	0	0	-100	0	230	101300000	1000	0	0	-1	0
13121155	5013	0	0	-100	0	230	101300000	1000	0	0	-1	0
13133715	5015	0	0	-100	0	230	101300000	1000	0	0	-1	0
13146275	5012	0	0	-100	0	230	101300000	1000	0	0	-1	0
13158835	5014	1	0	-100	0	230	101300000	1000	0	0	-1	0
13171395	5016	0	0	-100	0	230	101300000	1000	0	0	-1	0
13183955	5016	0	0	-100	0	230	101300000	1000	0	0	-1	0
13196515	5012	3	0	-100	0	230	101300000	1000	0	0	-1	0
13209075	5012	0	0	-100	0	230	101300000	1000	0	0	-1	0
13221635	5017	0	0	-100	0	230	101300000	1000	0	0	-1	0
13234195	5020	0	0	-100	0	230	101300000	1000	0	0	-1	0
13246755	5012	0	0	-100	0	230	101300000	1000	0	0	-1	0
13259315	5015	0	0	-100	0	230	101300000	1000	0	0	-1	0
13271875	5014	0	0	-100	0	230	101300000	1000	0	0	-1	0
13284435	5017	0	0	-100	0	230	101300000	1000	0	0	-1	0
13296995	5016	0	0	-100	0	230	101300000	1000	0	0	-1	0
13309555	5014	3	0	-100	0	230	101300000	1000	0	0	-1	0
13322115	5017	0	0	-100	0	230	101300000	1000	0	0	-1	0
13334675	5016	0	0	-100	0	230	101300000	1000	0	0	-1	0
13347235	5012	3	0	-100	0	230	101300000	1000	0	0	-1	0
13359795	5011	0	0	-100	0	230	101300000	1000	0	0	-1	0
13372355	5018	0	0	-100	0	230	101300000	1000	0	0	-1	0
13384915	5019	0	0	-100	0	230	101300000	1000	0	0	-1	0
13397475	5015	0	0	-100	0	230	101300000	1000	0	0	-1	0
13410035	5011	0	0	-100	0	230	101300000	1000	0	0	-1	0
13422595	5014	0	0	-100	0	230	101300000	1000	0	0	-1	0
13435155	5009	0	0	-100	0	230	101300000	1000	0	0	-1	0
13447715	5011	0	0	-100	0	230	101300000	1000	0	0	-1	0
13460275	5015	0	0	-100	0	230	101300000	1000	0	0	-1	0
13472835	5017	0	0	-100	0	230	101300000	1000	0	0	-1	0
13485395	5012	3	0	-100	0	230	101300000	1000	0	0	-1	0
13497955	5022	0	0	-100	0	230	101300000	1000	0	0	-1	0
13510515	5011	0	0	-100	0	230	101300000	1000	0	0	-1	0
13523075	5014	1	0	-100	0	230	101300000	1000	0	0	-1	0
13535635	5018	0	0	-100	0	230	101300000	1000	0	0	-1	0
13548195	5014	0	0	-100	0	230	101300000	1000	0	0	-1	0
13560755	5015	1	0	-100	0	230	101300000	1000	0	0	-1	0
13573315	5021	0	0	-100	0	230	101300000	1000	0	0	-1	0
13585875	5012	0	0	-100	0	230	101300000	1000	0	0	-1	0
13598435	5017	0	0	-100	0	230	101300000	1000	0	0	-1	0
13610995	5016	0	0	-100	0	230	101300000	1000	0	0	-1	0
13623555	5019	0	0	-100	0	230	101300000	1000	0	0	-1	0
13636115	5010	0	0	-100	0	230	101300000	1000	0	0	-1	0
13648675	5012	2	0	-100	0	230	101300000	1000	0	0	-1	0
13661235	5017	0	0	-100	0	230	101300000	1000	0	0	-1	0
13673795	5017	0	0	-100	0	230	101300000	1000	0	0	-1	0
13686355	5016	0	0	-100	0	230	101300000	1000	0	0	-1	0
13698915	5014	0	0	-100	0	230	101300000	1000	0	0	-1	0
13711475	5019	0	0	-100	0	230	101300000	1000	0	0	-1	0
13724035	5018	0	0	-100	0	230	101300000	1000	0	0	-1	0
13736595	5014	0	0	-100	0	230	101300000	1000	0	0	-1	0
13749155	5007	1	0	-100	0	230	101300000	1000	0	0	-1	0
13761715	5018	0	0	-100	0	230	101300000	1000	0	0	-1	0
13774275	5017	0	0	-100	0	230	101300000	1000	0	0	-1	0
13786835	5017	0	0	-100	0	230	101300000	1000	0	0	-1	0
13799395	5011	0	0	-100	0	230	101300000	1000	0	0	-1	0
13811955	5014	0	0	-100	0	230	101300000	1000	0	0	-1	0
13824515	5016	0	0	-100	0	230	101300000	1000	0	0	-1	0
13837075	5016	0	0	-100	0	230	101300000	1000	0	0	-1	0
13849635	5011	0	0	-100	0	230	101300000	1000	0	0	-1	0
13862195	5017	0	0	-100	0	230	101300000	1000	0	0	-1	0
13874755	5016	0	0	-100	0	230	101300000	1000	0	0	-1	0
13887315	5015	1	0	-100	0	230	101300000	1000	0	0	-1	0
13899875	5016	0	0	-100	0	230	101300000	1000	0	0	-1	0
13912435	5018	0	0	-100	0	230	101300000	1000	0	0	-1	0
13924995	5015	0	0	-100	0	230	101300000	1000	0	0	-1	0
13937555	5014	3	0	-100	0	230	101300000	1000	0	0	-1	0
13950115	5012	0	0	-100	0	230	101300000	1000	0	0	-1	0
13962675	5018	0	0	-100	0	230	101300000	1000	0	0	-1	0
13975235	5014	0	0	-100	0	230	101300000	1000	0	0	-1	0
13987795	5012	3	0	-100	0	230	101300000	1000	0	0	-1	0
14000355	5017	0	0	-100	0	230	101300000	1000	0	0	-1	0
14012915	5015	0	0	-100	0	230	101300000	1000	0	0	-1	0
14025475	5014	1	0	-100	0	230	101300000	1000	0	0	-1	0
14038035	5015	0	0	-100	0	230	101300000	1000	0	0	-1	0
14050595	5018	0	0	-100	0	230	101300000	1000	0	0	-1	0
14063155	5008	0	0	-100	0	230	101300000	1000	0	0	-1	0
14075715	5012	4	0	-100	0	230	101300000	1000	0	0	-1	0
14088275	5012	0	0	-100	0	230	101300000	1000	0	0	-1	0
14100835	5017	0	0	-100	0	230	101300000	1000	0	0	-1	0
14113395	5011	0	0	-100	0	230	101300000	1000	0	0	-1	0
14125955	5016	0	0	-100	0	230	101300000	1000	0	0	-1	0
14138515	5012	0	0	-100	0	230	101300000	1000	0	0	-1	0
14151075	5016	0	0	-100	0	230	101300000	1000	0	0	-1	0
14163635	5023	0	0	-100	0	230	101300000	1000	0	0	-1	0
14176195	5018	0	0	-100	0	230	101300000	1000	0	0	-1	0
14188755	5010	0	0	-100	0	230	101300000	1000	0	0	-1	0
14201315	5014	2	0	-100	0	230	101300000	1000	0	0	-1	0
14213875	5022	0	0	-100	0	230	101300000	1000	0	0	-1	0
14226435	5016	0	0	-100	0	230	101300000	1000	0	0	-1	0
14238995	5014	0	0	-100	0	230	101300000	1000	0	0	-1	0
14251555	5015	0	0	-100	0	230	101300000	1000	0	0	-1	0
14264115	5016	0	0	-100	0	230	101300000	1000	0	0	-1	0
14276675	5011	0	0	-100	0	230	101300000	1000	0	0	-1	0
14289235	5012	0	0	-100	0	230	101300000	1000	0	0	-1	0
14301795	5021	0	0	-100	0	230	101300000	1000	0	0	-1	0
14314355	5015	0	0	-100	0	230	101300000	1000	0	0	-1	0
14326915	5011	0	0	-100	0	230	101300000	1000	0	0	-1	0
14339475	5011	0	0	-100	0	230	101300000	1000	0	0	-1	0
14352035	5020	0	0	-100	0	230	101300000	1000	0	0	-1	0
14364595	5011	0	0	-100	0	230	101300000	1000	0	0	-1	0
14389715	5016	0	0	-100	0	230	101300000	1000	0	0	-1	0
14402275	5018	0	0	-100	0	230	101300000	1000	0	0	-1	0
14414835	5012	0	0	-100	0	230	101300000	1000	0	0	-1	0
14427395	5012	1	0	-100	0	230	101300000	1000	0	0	-1	0
14439955	5021	0	0	-100	0	230	101300000	1000	0	0	-1	0
14452515	5014	0	0	-100	0	230	101300000	1000	0	0	-1	0
14465075	5014	1	0	-100	0	230	101300000	1000	0	0	-1	0
14477635	5017	0	0	-100	0	230	101300000	1000	0	0	-1	0
14490195	5014	0	0	-100	0	230	101300000	1000	0	0	-1	0
14502755	5014	0	0	-100	0	230	101300000	1000	0	0	-1	0
14515315	5018	0	0	-100	0	230	101300000	1000	0	0	-1	0
14527875	5012	3	0	-100	0	230	101300000	1000	0	0	-1	0
14540435	5018	0	0	-100	0	230	101300000	1000	0	0	-1	0
14552995	5015	0	0	-100	0	230	101300000	1000	0	0	-1	0
14565555	5015	2	0	-100	0	230	101300000	1000	0	0	-1	0
14578115	5018	0	0	-100	0	230	101300000	1000	0	0	-1	0
14590675	5012	0	0	-100	0	230	101300000	1000	0	0	-1	0
14603235	5014	3	0	-100	0	230	101300000	1000	0	0	-1	0
14615795	5018	0	0	-100	0	230	101300000	1000	0	0	-1	0
14628355	5016	0	0	-100	0	230	101300000	1000	0	0	-1	0
14640915	5012	0	0	-100	0	230	101300000	1000	0	0	-1	0
14653475	5014	0	0	-100	0	230	101300000	1000	0	0	-1	0
14666035	5016	0	0	-100	0	230	101300000	1000	0	0	-1	0
14678595	5017	0	0	-100	0	230	101300000	1000	0	0	-1	0
14691155	5006	2	0	-100	0	230	101300000	1000	0	0	-1	0
14703715	5018	0	0	-100	0	230	101300000	1000	0	0	-1	0
14716275	5014	0	0	-100	0	230	101300000	1000	0	0	-1	0
14728835	5016	1	0	-100	0	230	101300000	1000	0	0	-1	0
14741395	5021	0	0	-100	0	230	101300000	1000	0	0	-1	0
14753955	5015	0	0	-100	0	230	101300000	1000	0	0	-1	0
14766515	5008	0	0	-100	0	230	101300000	1000	0	0	-1	0
14779075	5014	0	0	-100	0	230	101300000	1000	0	0	-1	0
14791635	5017	0	0	-100	0	230	101300000	1000	0	0	-1	0
14804195	5016	0	0	-100	0	230	101300000	1000	0	0	-1	0
14816755	5014	2	0	-100	0	230	101300000	1000	0	0	-1	0
14829315	5018	0	0	-100	0	230	101300000	1000	0	0	-1	0
14841875	5011	0	0	-100	0	230	101300000	1000	0	0	-1	0
14854435	5011	2	0	-100	0	230	101300000	1000	0	0	-1	0
14866995	5018	3	0	-100	0	230	101300000	1000	0	0	-1	0
14879555	5011	0	0	-100	0	230	101300000	1000	0	0	-1	0
14892115	5012	0	0	-100	0	230	101300000	1000	0	0	-1	0
14904675	5016	0	0	-100	0	230	101300000	1000	0	0	-1	0
14917235	5015	0	0	-100	0	230	101300000	1000	0	0	-1	0
14929795	5016	0	0	-100	0	230	101300000	1000	0	0	-1	0
14942355	5016	0	0	-100	0	230	101300000	1000	0	0	-1	0
14954915	5010	4	0	-100	0	230	101300000	1000	0	0	-1	0
14967475	5015	0	0	-100	0	230	101300000	1000	0	0	-1	0
14980035	5018	0	0	-100	0	230	101300000	1000	0	0	-1	0
14992595	5016	0	0	-100	0	230	101300000	1000	0	0	-1	0
15005155	5007	4	0	-100	0	230	101300000	1000	0	0	-1	0
15017715	5015	0	0	-100	0	230	101300000	1000	0	0	-1	0
15030275	5017	0	0	-100	0	230	101300000	1000	0	0	-1	0
15042835	5017	0	0	-100	0	230	101300000	1000	0	0	-1	0
15055395	5011	0	0	-100	0	230	101300000	1000	0	0	-1	0
15067955	5014	2	0	-100	0	230	101300000	1000	0	0	-1	0
15080515	5012	0	0	-100	0	230	101300000	1000	0	0	-1	0
15093075	5021	0	0	-100	0	230	101300000	1000	0	0	-1	0
15105635	5018	0	0	-100	0	230	101300000	1000	0	0	-1	0
15118195	5015	0	0	-100	0	230	101300000	1000	0	0	-1	0
15130755	5015	0	0	-100	0	230	101300000	1000	0	0	-1	0
15143315	5011	0	0	-100	0	230	101300000	1000	0	0	-1	0
15155875	5022	0	0	-100	0	230	101300000	1000	0	0	-1	0
15168435	5018	0	0	-100	0	230	101300000	1000	0	0	-1	0
15180995	5014	0	0	-100	0	230	101300000	1000	0	0	-1	0
15193555	5015	0	0	-100	0	230	101300000	1000	0	0	-1	0
15206115	5011	1	0	-100	0	230	101300000	1000	0	0	-1	0
15218675	5022	0	0	-100	0	230	101300000	1000	0	0	-1	0
15231235	5017	0	0	-100	0	230	101300000	1000	0	0	-1	0
15243795	5008	0	0	-100	0	230	101300000	1000	0	0	-1	0
15256355	5010	0	0	-100	0	230	101300000	1000	0	0	-1	0
15268915	5015	0	0	-100	0	230	101300000	1000	0	0	-1	0
15281475	5018	0	0	-100	0	230	101300000	1000	0	0	-1	0
15294035	5020	0	0	-100	0	230	101300000	1000	0	0	-1	0
15306595	5011	0	0	-100	0	230	101300000	1000	0	0	-1	0
15319155	5006	4	0	-100	0	230	101300000	1000	0	0	-1	0
15331715	5011	0	0	-100	0	230	101300000	1000	0	0	-1	0
15344275	5020	0	0	-100	0	230	101300000	1000	0	0	-1	0
15356835	5014	0	0	-100	0	230	101300000	1000	0	0	-1	0
15369395	5014	0	0	-100	0	230	101300000	1000	0	0	-1	0
15381955	5011	1	0	-100	0	230	101300000	1000	0	0	-1	0
15394515	5018	0	0	-100	0	230	101300000	1000	0	0	-1	0
15407075	5015	0	0	-100	0	230	101300000	1000	0	0	-1	0
15419635	5014	0	0	-100	0	230	101300000	1000	0	0	-1	0
15432195	5015	0	0	-100	0	230	101300000	1000	0	0	-1	0
15444755	5011	0	0	-100	0	230	101300000	1000	0	0	-1	0
15457315	5012	0	0	-100	0	230	101300000	1000	0	0	-1	0
15469875	5018	0	0	-100	0	230	101300000	1000	0	0	-1	0
15482435	5012	0	0	-100	0	230	101300000	1000	0	0	-1	0
15494995	5014	0	0	-100	0	230	101300000	1000	0	0	-1	0
15507555	5019	0	0	-100	0	230	101300000	1000	0	0	-1	0
15520115	5012	0	0	-100	0	230	101300000	1000	0	0	-1	0
15532675	5015	2	0	-100	0	230	101300000	1000	0	0	-1	0
15545235	5011	0	0	-100	0	230	101300000	1000	0	0	-1	0
15557795	5017	0	0	-100	0	230	101300000	1000	0	0	-1	0
15570355	5016	0	0	-100	0	230	101300000	1000	0	0	-1	0
15582915	5011	0	0	-100	0	230	101300000	1000	0	0	-1	0
15595475	5012	0	0	-100	0	230	101300000	1000	0	0	-1	0
15608035	5022	0	0	-100	0	230	101300000	1000	0	0	-1	0
15620595	5020	0	0	-100	0	230	101300000	1000	0	0	-1	0
15633155	5010	3	0	-100	0	230	101300000	1000	0	0	-1	0
15645715	5015	0	0	-100	0	230	101300000	1000	0	0	-1	0
15658275	5020	0	0	-100	0	230	101300000	1000	0	0	-1	0
15670835	5012	0	0	-100	0	230	101300000	1000	0	0	-1	0
15683395	5012	3	0	-100	0	230	101300000	1000	0	0	-1	0
15695955	5014	0	0	-100	0	230	101300000	1000	0	0	-1	0
15708515	5016	0	0	-100	0	230	101300000	1000	0	0	-1	0
15721075	5016	0	0	-100	0	230	101300000	1000	0	0	-1	0
15733635	5015	0	0	-100	0	230	101300000	1000	0	0	-1	0
15746195	5018	0	0	-100	0	230	101300000	1000	0	0	-1	0
15758755	5011	0	0	-100	0	230	101300000	1000	0	0	-1	0
15771315	5011	0	0	-100	0	230	101300000	1000	0	0	-1	0
15783875	5019	0	0	-100	0	230	101300000	1000	0	0	-1	0
15796435	5012	0	0	-100	0	230	101300000	1000	0	0	-1	0
15808995	5014	0	0	-100	0	230	101300000	1000	0	0	-1	0
15821555	5017	0	0	-100	0	230	101300000	1000	0	0	-1	0
15834115	5014	0	0	-100	0	230	101300000	1000	0	0	-1	0
15846675	5014	0	0	-100	0	230	101300000	1000	0	0	-1	0
15859235	5020	0	0	-100	0	230	101300000	1000	0	0	-1	0
15871795	5013	0	0	-100	0	230	101300000	1000	0	0	-1	0
15884355	5014	0	0	-100	0	230	101300000	1000	0	0	-1	0
15896915	5012	0	0	-100	0	230	101300000	1000	0	0	-1	0
15909475	5022	0	0	-100	0	230	101300000	1000	0	0	-1	0
15922035	5008	0	0	-100	0	230	101300000	1000	0	0	-1	0
15934595	5014	0	0	-100	0	230	101300000	1000	0	0	-1	0
15947155	5011	0	0	-100	0	230	101300000	1000	0	0	-1	0
15959715	5012	0	0	-100	0	230	101300000	1000	0	0	-1	0
15972275	5011	1	0	-100	0	230	101300000	1000	0	0	-1	0
15984835	5019	0	0	-100	0	230	101300000	1000	0	0	-1	0
15997395	5012	0	0	-100	0	230	101300000	1000	0	0	-1	0
16009955	5014	0	0	-100	0	230	101300000	1000	0	0	-1	0
16022515	5017	0	0	-100	0	230	101300000	1000	0	0	-1	0
16035075	5015	0	0	-100	0	230	101300000	1000	0	0	-1	0
16047635	5012	2	0	-100	0	230	101300000	1000	0	0	-1	0
16060195	5020	0	0	-100	0	230	101300000	1000	0	0	-1	0
16072755	5016	0	0	-100	0	230	101300000	1000	0	0	-1	0
16085315	5012	0	0	-100	0	230	101300000	1000	0	0	-1	0
16097875	5014	0	0	-100	0	230	101300000	1000	0	0	-1	0
16110435	5017	0	0	-100	0	230	101300000	1000	0	0	-1	0
16122995	5014	0	0	-100	0	230	101300000	1000	0	0	-1	0
16135555	5012	2	0	-100	0	230	101300000	1000	0	0	-1	0
16148115	5017	0	0	-100	0	230	101300000	1000	0	0	-1	0
16160675	5016	0	0	-100	0	230	101300000	1000	0	0	-1	0
16173235	5014	2	0	-100	0	230	101300000	1000	0	0	-1	0
16185795	5019	0	0	-100	0	230	101300000	1000	0	0	-1	0
16198355	5015	0	0	-100	0	230	101300000	1000	0	0	-1	0
16210915	5014	2	0	-100	0	230	101300000	1000	0	0	-1	0
16223475	5017	0	0	-100	0	230	101300000	1000	0	0	-1	0
16236035	5022	0	0	-100	0	230	101300000	1000	0	0	-1	0
16248595	5014	4	0	-100	0	230	101300000	1000	0	0	-1	0
16261155	5007	0	0	-100	0	230	101300000	1000	0	0	-1	0
16273715	5017	0	0	-100	0	230	101300000	1000	0	0	-1	0
16286275	5012	0	0	-100	0	230	101300000	1000	0	0	-1	0
16298835	5011	0	0	-100	0	230	101300000	1000	0	0	-1	0
16311395	5015	0	0	-100	0	230	101300000	1000	0	0	-1	0
16323955	5025	0	0	-100	0	230	101300000	1000	0	0	-1	0
16336515	5018	0	0	-100	0	230	101300000	1000	0	0	-1	0
16349075	5015	1	0	-100	0	230	101300000	1000	0	0	-1	0
16361635	5014	0	0	-100	0	230	101300000	1000	0	0	-1	0
16374195	5018	0	0	-100	0	230	101300000	1000	0	0	-1	0
16386755	5011	0	0	-100	0	230	101300000	1000	0	0	-1	0
16399315	5012	2	0	-100	0	230	101300000	1000	0	0	-1	0
16411875	5015	0	0	-100	0	230	101300000	1000	0	0	-1	0
16424435	5018	0	0	-100	0	230	101300000	1000	0	0	-1	0
16436995	5017	0	0	-100	0	230	101300000	1000	0	0	-1	0
16449555	5011	0	0	-100	0	230	101300000	1000	0	0	-1	0
16462115	5012	0	0	-100	0	230	101300000	1000	0	0	-1	0
16474675	5016	0	0	-100	0	230	101300000	1000	0	0	-1	0
16487235	5021	0	0	-100	0	230	101300000	1000	0	0	-1	0
16499795	5016	0	0	-100	0	230	101300000	1000	0	0	-1	0
16512355	5011	0	0	-100	0	230	101300000	1000	0	0	-1	0
16524915	5012	1	0	-100	0	230	101300000	1000	0	0	-1	0
16537475	5018	0	0	-100	0	230	101300000	1000	0	0	-1	0
16550035	5018	0	0	-100	0	230	101300000	1000	0	0	-1	0
16562595	5011	0	0	-100	0	230	101300000	1000	0	0	-1	0
16575155	5008	4	0	-100	0	230	101300000	1000	0	0	-1	0
16587715	5017	0	0	-100	0	230	101300000	1000	0	0	-1	0
16600275	5018	0	0	-100	0	230	101300000	1000	0	0	-1	0
16612835	5010	0	0	-100	0	230	101300000	1000	0	0	-1	0
16625395	5014	1	0	-100	0	230	101300000	1000	0	0	-1	0
16637955	5016	0	0	-100	0	230	101300000	1000	0	0	-1	0
16650515	5017	0	0	-100	0	230	101300000	1000	0	0	-1	0
16663075	5012	0	0	-100	0	230	101300000	1000	0	0	-1	0
16675635	5012	2	0	-100	0	230	101300000	1000	0	0	-1	0
16688195	5020	0	0	-100	0	230	101300000	1000	0	0	-1	0
16700755	5018	0	0	-100	0	230	101300000	1000	0	0	-1	0
16713315	5014	4	0	-100	0	230	101300000	1000	0	0	-1	0
16725875	5016	0	0	-100	0	230	101300000	1000	0	0	-1	0
16738435	5018	0	0	-100	0	230	101300000	1000	0	0	-1	0
16750995	5010	0	0	-100	0	230	101300000	1000	0	0	-1	0
16763555	5010	2	0	-100	0	230	101300000	1000	0	0	-1	0
16776115	5020	0	0	-100	0	230	101300000	1000	0	0	-1	0
16788675	5018	0	0	-100	0	230	101300000	1000	0	0	-1	0
16801235	5010	0	0	-100	0	230	101300000	1000	0	0	-1	0
16813795	5012	0	0	-100	0	230	101300000	1000	0	0	-1	0
16826355	5016	0	0	-100	0	230	101300000	1000	0	0	-1	0
16838915	5011	2	0	-100	0	230	101300000	1000	0	0	-1	0
16851475	5020	0	0	-100	0	230	101300000	1000	0	0	-1	0
16864035	5017	0	0	-100	0	230	101300000	1000	0	0	-1	0
16876595	5010	3	0	-100	0	230	101300000	1000	0	0	-1	0
16889155	5014	0	0	-100	0	230	101300000	1000	0	0	-1	0
16901715	5011	0	0	-100	0	230	101300000	1000	0	0	-1	0
16914275	5012	3	0	-100	0	230	101300000	1000	0	0	-1	0
16926835	5015	0	0	-100	0	230	101300000	1000	0	0	-1	0
16939395	5022	0	0	-100	0	230	101300000	1000	0	0	-1	0
16951955	5018	0	0	-100	0	230	101300000	1000	0	0	-1	0
16964515	5016	0	0	-100	0	230	101300000	1000	0	0	-1	0
16977075	5014	0	0	-100	0	230	101300000	1000	0	0	-1	0
16989635	5012	2	0	-100	0	230	101300000	1000	0	0	-1	0
17002195	5012	1	0	-100	0	230	101300000	1000	0	0	-1	0
17014755	5016	0	0	-100	0	230	101300000	1000	0	0	-1	0
17027315	5016	0	0	-100	0	230	101300000	1000	0	0	-1	0
17039875	5011	0	0	-100	0	230	101300000	1000	0	0	-1	0
17052435	5015	3	0	-100	0	230	101300000	1000	0	0	-1	0
17064995	5014	0	0	-100	0	230	101300000	1000	0	0	-1	0
17077555	5020	0	0	-100	0	230	101300000	1000	0	0	-1	0
17090115	5012	0	0	-100	0	230	101300000	1000	0	0	-1	0
17102675	5014	1	0	-100	0	230	101300000	1000	0	0	-1	0
17115235	5021	0	0	-100	0	230	101300000	1000	0	0	-1	0
17127795	5016	1	0	-100	0	230	101300000	1000	0	0	-1	0
17140355	5018	0	0	-100	0	230	101300000	1000	0	0	-1	0
17152915	5008	0	0	-100	0	230	101300000	1000	0	0	-1	0
17165475	5016	0	0	-100	0	230	101300000	1000	0	0	-1	0
17178035	5014	0	0	-100	0	230	101300000	1000	0	0	-1	0
17190595	5012	0	0	-100	0	230	101300000	1000	0	0	-1	0
17203155	5012	0	0	-100	0	230	101300000	1000	0	0	-1	0
17215715	5014	3	0	-100	0	230	101300000	1000	0	0	-1	0
17228275	5016	0	0	-100	0	230	101300000	1000	0	0	-1	0
17240835	5014	0	0	-100	0	230	101300000	1000	0	0	-1	0
17253395	5014	0	0	-100	0	230	101300000	1000	0	0	-1	0
17265955	5011	0	0	-100	0	230	101300000	1000	0	0	-1	0
17278515	5019	0	0	-100	0	230	101300000	1000	0	0	-1	0
17291075	5016	0	0	-100	0	230	101300000	1000	0	0	-1	0
17303635	5014	4	0	-100	0	230	101300000	1000	0	0	-1	0
17316195	5012	0	0	-100	0	230	101300000	1000	0	0	-1	0
17328755	5021	0	0	-100	0	230	101300000	1000	0	0	-1	0
17341315	5015	0	0	-100	0	230	101300000	1000	0	0	-1	0
17353875	5014	1	0	-100	0	230	101300000	1000	0	0	-1	0
17366435	5025	0	0	-100	0	230	101300000	1000	0	0	-1	0
17378995	5012	0	0	-100	0	230	101300000	1000	0	0	-1	0
17416675	5013	0	0	-100	0	230	101300000	1000	0	0	-1	0
17429235	5015	0	0	-100	0	230	101300000	1000	0	0	-1	0
17441795	5011	0	0	-100	0	230	101300000	1000	0	0	-1	0
17454355	5018	0	0	-100	0	230	101300000	1000	0	0	-1	0
17466915	5010	0	0	-100	0	230	101300000	1000	0	0	-1	0
17479475	5011	0	0	-100	0	230	101300000	1000	0	0	-1	0
17492035	5023	0	0	-100	0	230	101300000	1000	0	0	-1	0
17504595	5015	0	0	-100	0	230	101300000	1000	0	0	-1	0
17517155	5005	0	0	-100	0	230	101300000	1000	0	0	-1	0
17529715	5015	0	0	-100	0	230	101300000	1000	0	0	-1	0
17542275	5020	0	0	-100	0	230	101300000	1000	0	0	-1	0
17554835	5018	0	0	-100	0	230	101300000	1000	0	0	-1	0
17567395	5016	0	0	-100	0	230	101300000	1000	0	0	-1	0
17579955	5011	0	0	-100	0	230	101300000	1000	0	0	-1	0
17592515	5011	1	0	-100	0	230	101300000	1000	0	0	-1	0
17605075	5012	0	0	-100	0	230	101300000	1000	0	0	-1	0
17617635	5017	0	0	-100	0	230	101300000	1000	0	0	-1	0
17630195	5016	0	0	-100	0	230	101300000	1000	0	0	-1	0
17642755	5011	0	0	-100	0	230	101300000	1000	0	0	-1	0
17655315	5014	0	0	-100	0	230	101300000	1000	0	0	-1	0
17667875	5021	0	0	-100	0	230	101300000	1000	0	0	-1	0
17680435	5017	0	0	-100	0	230	101300000	1000	0	0	-1	0
17692995	5012	0	0	-100	0	230	101300000	1000	0	0	-1	0
17705555	5012	1	0	-100	0	230	101300000	1000	0	0	-1	0
17718115	5017	0	0	-100	0	230	101300000	1000	0	0	-1	0
17730675	5017	0	0	-100	0	230	101300000	1000	0	0	-1	0
17743235	5014	0	0	-100	0	230	101300000	1000	0	0	-1	0
17755795	5010	2	0	-100	0	230	101300000	1000	0	0	-1	0
17768355	5017	0	0	-100	0	230	101300000	1000	0	0	-1	0
17780915	5017	0	0	-100	0	230	101300000	1000	0	0	-1	0
17793475	5014	0	0	-100	0	230	101300000	1000	0	0	-1	0
17806035	5015	3	0	-100	0	230	101300000	1000	0	0	-1	0
17818595	5019	0	0	-100	0	230	101300000	1000	0	0	-1	0
17831155	5013	0	0	-100	0	230	101300000	1000	0	0	-1	0
17843715	5010	0	0	-100	0	230	101300000	1000	0	0	-1	0
17856275	5010	0	0	-100	0	230	101300000	1000	0	0	-1	0
17868835	5018	0	0	-100	0	230	101300000	1000	0	0	-1	0
17881395	5014	0	0	-100	0	230	101300000	1000	0	0	-1	0
17893955	5014	4	0	-100	0	230	101300000	1000	0	0	-1	0
17906515	5009	0	0	-100	0	230	101300000	1000	0	0	-1	0
17919075	5022	0	0	-100	0	230	101300000	1000	0	0	-1	0
17931635	5018	0	0	-100	0	230	101300000	1000	0	0	-1	0
17944195	5011	0	0	-100	0	230	101300000	1000	0	0	-1	0
17956755	5012	1	0	-100	0	230	101300000	1000	0	0	-1	0
17969315	5022	0	0	-100	0	230	101300000	1000	0	0	-1	0
17981875	5018	0	0	-100	0	230	101300000	1000	0	0	-1	0
17994435	5014	0	0	-100	0	230	101300000	1000	0	0	-1	0
18006995	5011	0	0	-100	0	230	101300000	1000	0	0	-1	0
18019555	5016	0	0	-100	0	230	101300000	1000	0	0	-1	0
18032115	5019	0	0	-100	0	230	101300000	1000	0	0	-1	0
18044675	5017	0	0	-100	0	230	101300000	1000	0	0	-1	0
18057235	5010	0	0	-100	0	230	101300000	1000	0	0	-1	0
18069795	5016	0	0	-100	0	230	101300000	1000	0	0	-1	0
18082355	5014	1	0	-100	0	230	101300000	1000	0	0	-1	0
18094915	5012	0	0	-100	0	230	101300000	1000	0	0	-1	0
18107475	5017	0	0	-100	0	230	101300000	1000	0	0	-1	0
18120035	5015	0	0	-100	0	230	101300000	1000	0	0	-1	0
18132595	5011	2	0	-100	0	230	101300000	1000	0	0	-1	0
18145155	5007	2	0	-100	0	230	101300000	1000	0	0	-1	0
18157715	5018	0	0	-100	0	230	101300000	1000	0	0	-1	0
18170275	5017	0	0	-100	0	230	101300000	1000	0	0	-1	0
18182835	5012	0	0	-100	0	230	101300000	1000	0	0	-1	0
18195395	5015	2	0	-100	0	230	101300000	1000	0	0	-1	0
18207955	5012	1	0	-100	0	230	101300000	1000	0	0	-1	0
18220515	5020	0	0	-100	0	230	101300000	1000	0	0	-1	0
18233075	5021	0	0	-100	0	230	101300000	1000	0	0	-1	0
18245635	5017	0	0	-100	0	230	101300000	1000	0	0	-1	0
18258195	5015	0	0	-100	0	230	101300000	1000	0	0	-1	0
18270755	5012	0	0	-100	0	230	101300000	1000	0	0	-1	0
18283315	5014	0	0	-100	0	230	101300000	1000	0	0	-1	0
18295875	5020	0	0	-100	0	230	101300000	1000	0	0	-1	0
18308435	5014	0	0	-100	0	230	101300000	1000	0	0	-1	0
18320995	5017	0	0	-100	0	230	101300000	1000	0	0	-1	0
18333555	5012	2	0	-100	0	230	101300000	1000	0	0	-1	0
18346115	5015	0	0	-100	0	230	101300000	1000	0	0	-1	0
18358675	5022	0	0	-100	0	230	101300000	1000	0	0	-1	0
18371235	5017	0	0	-100	0	230	101300000	1000	0	0	-1	0
18383795	5018	0	0	-100	0	230	101300000	1000	0	0	-1	0
18396355	5015	0	0	-100	0	230	101300000	1000	0	0	-1	0
18408915	5012	0	0	-100	0	230	101300000	1000	0	0	-1	0
18421475	5014	1	0	-100	0	230	101300000	1000	0	0	-1	0
18434035	5014	0	0	-100	0	230	101300000	1000	0	0	-1	0
18446595	5018	0	0	-100	0	230	101300000	1000	0	0	-1	0
18459155	5013	0	0	-100	0	230	101300000	1000	0	0	-1	0
18471715	5014	0	0	-100	0	230	101300000	1000	0	0	-1	0
18484275	5010	0	0	-100	0	230	101300000	1000	0	0	-1	0
18496835	5011	3	0	-100	0	230	101300000	1000	0	0	-1	0
18509395	5017	0	0	-100	0	230	101300000	1000	0	0	-1	0
18521955	5021	0	0	-100	0	230	101300000	1000	0	0	-1	0
18534515	5017	0	0	-100	0	230	101300000	1000	0	0	-1	0
18547075	5019	0	0	-100	0	230	101300000	1000	0	0	-1	0
18559635	5011	0	0	-100	0	230	101300000	1000	0	0	-1	0
18572195	5015	0	0	-100	0	230	101300000	1000	0	0	-1	0
18584755	5014	0	0	-100	0	230	101300000	1000	0	0	-1	0
18597315	5022	0	0	-100	0	230	101300000	1000	0	0	-1	0
18609875	5018	0	0	-100	0	230	101300000	1000	0	0	-1	0
18622435	5015	0	0	-100	0	230	101300000	1000	0	0	-1	0
18634995	5012	0	0	-100	0	230	101300000	1000	0	0	-1	0
18647555	5014	0	0	-100	0	230	101300000	1000	0	0	-1	0
18660115	5012	0	0	-100	0	230	101300000	1000	0	0	-1	0
18672675	5021	0	0	-100	0	230	101300000	1000	0	0	-1	0
18685235	5020	0	0	-100	0	230	101300000	1000	0	0	-1	0
18697795	5016	0	0	-100	0	230	101300000	1000	0	0	-1	0
18710355	5008	0	0	-100	0	230	101300000	1000	0	0	-1	0
18722915	5015	4	0	-100	0	230	101300000	1000	0	0	-1	0
18735475	5014	1	0	-100	0	230	101300000	1000	0	0	-1	0
18748035	5021	0	0	-100	0	230	101300000	1000	0	0	-1	0
18760595	5017	0	0	-100	0	230	101300000	1000	0	0	-1	0
18773155	5007	0	0	-100	0	230	101300000	1000	0	0	-1	0
18785715	5014	2	0	-100	0	230	101300000	1000	0	0	-1	0
18798275	5014	0	0	-100	0	230	101300000	1000	0	0	-1	0
18810835	5018	0	0	-100	0	230	101300000	1000	0	0	-1	0
18823395	5016	0	0	-100	0	230	101300000	1000	0	0	-1	0
18835955	5012	0	0	-100	0	230	101300000	1000	0	0	-1	0
18848515	5014	2	0	-100	0	230	101300000	1000	0	0	-1	0
18861075	5015	0	0	-100	0	230	101300000	1000	0	0	-1	0
18873635	5018	0	0	-100	0	230	101300000	1000	0	0	-1	0
18886195	5014	0	0	-100	0	230	101300000	1000	0	0	-1	0
18898755	5011	1	0	-100	0	230	101300000	1000	0	0	-1	0
18911315	5016	0	0	-100	0	230	101300000	1000	0	0	-1	0
18923875	5016	0	0	-100	0	230	101300000	1000	0	0	-1	0
18936435	5010	0	0	-100	0	230	101300000	1000	0	0	-1	0
18948995	5012	0	0	-100	0	230	101300000	1000	0	0	-1	0
18961555	5019	0	0	-100	0	230	101300000	1000	0	0	-1	0
18974115	5021	0	0	-100	0	230	101300000	1000	0	0	-1	0
18986675	5011	0	0	-100	0	230	101300000	1000	0	0	-1	0
18999235	5015	0	0	-100	0	230	101300000	1000	0	0	-1	0
19011795	5015	1	0	-100	0	230	101300000	1000	0	0	-1	0
19024355	5018	0	0	-100	0	230	101300000	1000	0	0	-1	0
19036915	5012	0	0	-100	0	230	101300000	1000	0	0	-1	0
19049475	5011	2	0	-100	0	230	101300000	1000	0	0	-1	0
19062035	5020	0	0	-100	0	230	101300000	1000	0	0	-1	0
19074595	5018	0	0	-100	0	230	101300000	1000	0	0	-1	0
19087155	5006	0	0	-100	0	230	101300000	1000	0	0	-1	0
19099715	5016	3	0	-100	0	230	101300000	1000	0	0	-1	0
19112275	5014	0	0	-100	0	230	101300000	1000	0	0	-1	0
19124835	5018	0	0	-100	0	230	101300000	1000	0	0	-1	0
19137395	5017	0	0	-100	0	230	101300000	1000	0	0	-1	0
19149955	5008	0	0	-100	0	230	101300000	1000	0	0	-1	0
19162515	5014	0	0	-100	0	230	101300000	1000	0	0	-1	0
19175075	5021	0	0	-100	0	230	101300000	1000	0	0	-1	0
19187635	5012	2	0	-100	0	230	101300000	1000	0	0	-1	0
19200195	5019	0	0	-100	0	230	101300000	1000	0	0	-1	0
19212755	5012	0	0	-100	0	230	101300000	1000	0	0	-1	0
19225315	5012	1	0	-100	0	230	101300000	1000	0	0	-1	0
19237875	5017	0	0	-100	0	230	101300000	1000	0	0	-1	0
19250435	5011	0	0	-100	0	230	101300000	1000	0	0	-1	0
19262995	5015	0	0	-100	0	230	101300000	1000	0	0	-1	0
19275555	5019	0	0	-100	0	230	101300000	1000	0	0	-1	0
19288115	5017	0	0	-100	0	230	101300000	1000	0	0	-1	0
19300675	5014	0	0	-100	0	230	101300000	1000	0	0	-1	0
19313235	5012	0	0	-100	0	230	101300000	1000	0	0	-1	0
19325795	5018	0	0	-100	0	230	101300000	1000	0	0	-1	0
19338355	5015	2	0	-100	0	230	101300000	1000	0	0	-1	0
19350915	5022	0	0	-100	0	230	101300000	1000	0	0	-1	0
19363475	5015	0	0	-100	0	230	101300000	1000	0	0	-1	0
19376035	5014	1	0	-100	0	230	101300000	1000	0	0	-1	0
19388595	5017	0	0	-100	0	230	101300000	1000	0	0	-1	0
19401155	5008	0	0	-100	0	230	101300000	1000	0	0	-1	0
19413715	5016	2	0	-100	0	230	101300000	1000	0	0	-1	0
19426275	5016	0	0	-100	0	230	101300000	1000	0	0	-1	0
19438835	5010	0	0	-100	0	230	101300000	1000	0	0	-1	0
19451395	5016	0	0	-100	0	230	101300000	1000	0	0	-1	0
19463955	5015	0	0	-100	0	230	101300000	1000	0	0	-1	0
19476515	5012	2	0	-100	0	230	101300000	1000	0	0	-1	0
19489075	5015	0	0	-100	0	230	101300000	1000	0	0	-1	0
19501635	5018	0	0	-100	0	230	101300000	1000	0	0	-1	0
19514195	5011	0	0	-100	0	230	101300000	1000	0	0	-1	0
19526755	5015	2	0	-100	0	230	101300000	1000	0	0	-1	0
19539315	5010	0	0	-100	0	230	101300000	1000	0	0	-1	0
19551875	5018	0	0	-100	0	230	101300000	1000	0	0	-1	0
19564435	5020	0	0	-100	0	230	101300000	1000	0	0	-1	0
19576995	5014	0	0	-100	0	230	101300000	1000	0	0	-1	0
19589555	5011	1	0	-100	0	230	101300000	1000	0	0	-1	0
19602115	5021	0	0	-100	0	230	101300000	1000	0	0	-1	0
19614675	5017	0	0	-100	0	230	101300000	1000	0	0	-1	0
19627235	5015	0	0	-100	0	230	101300000	1000	0	0	-1	0
19639795	5014	0	0	-100	0	230	101300000	1000	0	0	-1	0
19652355	5011	1	0	-100	0	230	101300000	1000	0	0	-1	0
19664915	5016	0	0	-100	0	230	101300000	1000	0	0	-1	0
19677475	5018	0	0	-100	0	230	101300000	1000	0	0	-1	0
19690035	5017	0	0	-100	0	230	101300000	1000	0	0	-1	0
19702595	5012	0	0	-100	0	230	101300000	1000	0	0	-1	0
19715155	5010	3	0	-100	0	230	101300000	1000	0	0	-1	0
19727715	5017	0	0	-100	0	230	101300000	1000	0	0	-1	0
19740275	5016	0	0	-100	0	230	101300000	1000	0	0	-1	0
19752835	5008	0	0	-100	0	230	101300000	1000	0	0	-1	0
19765395	5014	0	0	-100	0	230	101300000	1000	0	0	-1	0
19777955	5016	0	0	-100	0	230	101300000	1000	0	0	-1	0
19790515	5010	0	0	-100	0	230	101300000	1000	0	0	-1	0
19803075	5012	1	0	-100	0	230	101300000	1000	0	0	-1	0
19815635	5021	0	0	-100	0	230	101300000	1000	0	0	-1	0
19828195	5020	0	0	-100	0	230	101300000	1000	0	0	-1	0
19840755	5012	0	0	-100	0	230	101300000	1000	0	0	-1	0
19853315	5010	0	0	-100	0	230	101300000	1000	0	0	-1	0
19865875	5015	1	0	-100	0	230	101300000	1000	0	0	-1	0
19878435	5012	0	0	-100	0	230	101300000	1000	0	0	-1	0
19890995	5018	3	0	-100	0	230	101300000	1000	0	0	-1	0
19903555	5016	0	0	-100	0	230	101300000	1000	0	0	-1	0
19916115	5011	0	0	-100	0	230	101300000	1000	0	0	-1	0
19928675	5019	1	0	-100	0	230	101300000	1000	0	0	-1	0
19941235	5016	0	0	-100	0	230	101300000	1000	0	0	-1	0
19953795	5018	0	0	-100	0	230	101300000	1000	0	0	-1	0
19966355	5015	0	0	-100	0	230	101300000	1000	0	0	-1	0
19978915	5015	3	0	-100	0	230	101300000	1000	0	0	-1	0
19991475	5011	0	0	-100	0	230	101300000	1000	0	0	-1	0
20004035	5022	0	0	-100	0	230	101300000	1000	0	0	-1	0
20016595	5020	0	0	-100	0	230	101300000	1000	0	0	-1	0
20029155	5011	0	0	-100	0	230	101300000	1000	0	0	-1	0
20041715	5014	0	0	-100	0	230	101300000	1000	0	0	-1	0
20054275	5011	0	0	-100	0	230	101300000	1000	0	0	-1	0
20066835	5016	0	0	-100	0	230	101300000	1000	0	0	-1	0
20079395	5023	0	0	-100	0	230	101300000	1000	0	0	-1	0
20091955	5015	0	0	-100	0	230	101300000	1000	0	0	-1	0
20104515	5012	0	0	-100	0	230	101300000	1000	0	0	-1	0
20117075	5014	3	0	-100	0	230	101300000	1000	0	0	-1	0
20129635	5012	0	0	-100	0	230	101300000	1000	0	0	-1	0
20142195	5017	0	0	-100	0	230	101300000	1000	0	0	-1	0
20154755	5021	0	0	-100	0	230	101300000	1000	0	0	-1	0
20167315	5010	0	0	-100	0	230	101300000	1000	0	0	-1	0
20179875	5012	3	0	-100	0	230	101300000	1000	0	0	-1	0
20192435	5012	0	0	-100	0	230	101300000	1000	0	0	-1	0
20204995	5011	0	0	-100	0	230	101300000	1000	0	0	-1	0
20217555	5020	0	0	-100	0	230	101300000	1000	0	0	-1	0
20230115	5019	0	0	-100	0	230	101300000	1000	0	0	-1	0
20242675	5021	0	0	-100	0	230	101300000	1000	0	0	-1	0
20255235	5018	0	0	-100	0	230	101300000	1000	0	0	-1	0
20267795	5013	0	0	-100	0	230	101300000	1000	0	0	-1	0
20280355	5017	0	0	-100	0	230	101300000	1000	0	0	-1	0
20292915	5012	0	0	-100	0	230	101300000	1000	0	0	-1	0
20305475	5011	0	0	-100	0	230	101300000	1000	0	0	-1	0
20318035	5012	2	0	-100	0	230	101300000	1000	0	0	-1	0
20330595	5018	0	0	-100	0	230	101300000	1000	0	0	-1	0
20343155	5011	0	0	-100	0	230	101300000	1000	0	0	-1	0
20355715	5012	0	0	-100	0	230	101300000	1000	0	0	-1	0
20368275	5014	3	0	-100	0	230	101300000	1000	0	0	-1	0
20380835	5010	1	0	-100	0	230	101300000	1000	0	0	-1	0
20393395	5015	0	0	-100	0	230	101300000	1000	0	0	-1	0
20405955	5019	0	0	-100	0	230	101300000	1000	0	0	-1	0
20418515	5020	0	0	-100	0	230	101300000	1000	0	0	-1	0
20431075	5016	0	0	-100	0	230	101300000	1000	0	0	-1	0
20443635	5011	0	0	-100	0	230	101300000	1000	0	0	-1	0
20456195	5013	0	0	-100	0	230	101300000	1000	0	0	-1	0
20468755	5015	2	0	-100	0	230	101300000	1000	0	0	-1	0
20481315	5014	3	0	-100	0	230	101300000	1000	0	0	-1	0
20493875	5011	1	0	-100	0	230	101300000	1000	0	0	-1	0
20506435	5012	0	0	-100	0	230	101300000	1000	0	0	-1	0
20518995	5019	3	0	-100	0	230	101300000	1000	0	0	-1	0
20531555	5021	0	0	-100	0	230	101300000	1000	0	0	-1	0
20544115	5018	0	0	-100	0	230	101300000	1000	0	0	-1	0
20556675	5020	0	0	-100	0	230	101300000	1000	0	0	-1	0
20569235	5017	0	0	-100	0	230	101300000	1000	0	0	-1	0
20581795	5014	0	0	-100	0	230	101300000	1000	0	0	-1	0
20594355	5010	0	0	-100	0	230	101300000	1000	0	0	-1	0
20606915	5014	4	0	-100	0	230	101300000	1000	0	0	-1	0
20619475	5010	2	0	-100	0	230	101300000	1000	0	0	-1	0
20632035	5012	0	0	-100	0	230	101300000	1000	0	0	-1	0
20644595	5016	0	0	-100	0	230	101300000	1000	0	0	-1	0
20657155	5012	0	0	-100	0	230	101300000	1000	0	0	-1	0
20669715	5011	0	0	-100	0	230	101300000	1000	0	0	-1	0
20682275	5015	1	0	-100	0	230	101300000	1000	0	0	-1	0
20694835	5010	1	0	-100	0	230	101300000	1000	0	0	-1	0
20707395	5022	0	0	-100	0	230	101300000	1000	0	0	-1	0
20719955	5017	0	0	-100	0	230	101300000	1000	0	0	-1	0
20732515	5012	0	0	-100	0	230	101300000	1000	0	0	-1	0
20745075	5014	3	0	-100	0	230	101300000	1000	0	0	-1	0
20757635	5016	0	0	-100	0	230	101300000	1000	0	0	-1	0
20770195	5017	0	0	-100	0	230	101300000	1000	0	0	-1	0
20782755	5010	0	0	-100	0	230	101300000	1000	0	0	-1	0
20795315	5011	1	0	-100	0	230	101300000	1000	0	0	-1	0
20807875	5016	0	0	-100	0	230	101300000	1000	0	0	-1	0
20820435	5019	0	0	-100	0	230	101300000	1000	0	0	-1	0
20832995	5018	1	0	-100	0	230	101300000	1000	0	0	-1	0
20845555	5014	0	0	-100	0	230	101300000	1000	0	0	-1	0
20858115	5009	0	0	-100	0	230	101300000	1000	0	0	-1	0
20870675	5012	1	0	-100	0	230	101300000	1000	0	0	-1	0
20883235	5022	0	0	-100	0	230	101300000	1000	0	0	-1	0
20895795	5018	0	0	-100	0	230	101300000	1000	0	0	-1	0
20908355	5015	0	0	-100	0	230	101300000	1000	0	0	-1	0
20920915	5012	4	0	-100	0	230	101300000	1000	0	0	-1	0
20933475	5012	1	0	-100	0	230	101300000	1000	0	0	-1	0
20946035	5017	0	0	-100	0	230	101300000	1000	0	0	-1	0
20958595	5018	0	0	-100	0	230	101300000	1000	0	0	-1	0
20971155	5012	0	0	-100	0	230	101300000	1000	0	0	-1	0
20983715	5011	3	0	-100	0	230	101300000	1000	0	0	-1	0
20996275	5012	0	0	-100	0	230	101300000	1000	0	0	-1	0
21008835	5020	0	0	-100	0	230	101300000	1000	0	0	-1	0
21021395	5011	0	0	-100	0	230	101300000	1000	0	0	-1	0
21033955	5014	3	0	-100	0	230	101300000	1000	0	0	-1	0
21046515	5017	0	0	-100	0	230	101300000	1000	0	0	-1	0
21059075	5011	2	0	-100	0	230	101300000	1000	0	0	-1	0
21071635	5018	0	0	-100	0	230	101300000	1000	0	0	-1	0
21084195	5015	2	0	-100	0	230	101300000	1000	0	0	-1	0
21096755	5015	0	0	-100	0	230	101300000	1000	0	0	-1	0
21109315	5012	0	0	-100	0	230	101300000	1000	0	0	-1	0
21121875	5012	0	0	-100	0	230	101300000	1000	0	0	-1	0
21134435	5017	0	0	-100	0	230	101300000	1000	0	0	-1	0
21146995	5012	0	0	-100	0	230	101300000	1000	0	0	-1	0
21159555	5021	0	0	-100	0	230	101300000	1000	0	0	-1	0
21172115	5011	2	0	-100	0	230	101300000	1000	0	0	-1	0
21184675	5012	0	0	-100	0	230	101300000	1000	0	0	-1	0
21197235	5022	0	0	-100	0	230	101300000	1000	0	0	-1	0
21209795	5012	1	0	-100	0	230	101300000	1000	0	0	-1	0
21222355	5014	0	0	-100	0	230	101300000	1000	0	0	-1	0
21234915	5020	0	0	-100	0	230	101300000	1000	0	0	-1	0
21247475	5012	3	0	-100	0	230	101300000	1000	0	0	-1	0
21260035	5015	0	0	-100	0	230	101300000	1000	0	0	-1	0
21272595	5016	0	0	-100	0	230	101300000	1000	0	0	-1	0
21285155	5010	0	0	-100	0	230	101300000	1000	0	0	-1	0
21297715	5011	3	0	-100	0	230	101300000	1000	0	0	-1	0
21310275	5018	0	0	-100	0	230	101300000	1000	0	0	-1	0
21322835	5018	0	0	-100	0	230	101300000	1000	0	0	-1	0
21335395	5015	1	0	-100	0	230	101300000	1000	0	0	-1	0
21347955	5017	0	0	-100	0	230	101300000	1000	0	0	-1	0
21360515	5010	2	0	-100	0	230	101300000	1000	0	0	-1	0
21373075	5016	0	0	-100	0	230	101300000	1000	0	0	-1	0
21385635	5021	0	0	-100	0	230	101300000	1000	0	0	-1	0
21398195	5017	3	0	-100	0	230	101300000	1000	0	0	-1	0
21410755	5016	0	0	-100	0	230	101300000	1000	0	0	-1	0
21423315	5012	0	0	-100	0	230	101300000	1000	0	0	-1	0
21435875	5008	0	0	-100	0	230	101300000	1000	0	0	-1	0
21448435	5018	0	0	-100	0	230	101300000	1000	0	0	-1	0
21460995	5012	0	0	-100	0	230	101300000	1000	0	0	-1	0
21473555	5010	0	0	-100	0	230	101300000	1000	0	0	-1	0
21486115	5017	0	0	-100	0	230	101300000	1000	0	0	-1	0
21498675	5014	2	0	-100	0	230	101300000	1000	0	0	-1	0
21511235	5015	0	0	-100	0	230	101300000	1000	0	0	-1	0
21523795	5016	0	0	-100	0	230	101300000	1000	0	0	-1	0
21536355	5017	0	0	-100	0	230	101300000	1000	0	0	-1	0
21548915	5012	1	0	-100	0	230	101300000	1000	0	0	-1	0
21561475	5010	0	0	-100	0	230	101300000	1000	0	0	-1	0
21574035	5018	0	0	-100	0	230	101300000	1000	0	0	-1	0
21586595	5016	0	0	-100	0	230	101300000	1000	0	0	-1	0
21599155	5003	0	0	-100	0	230	101300000	1000	0	0	-1	0
21611715	5018	0	0	-100	0	230	101300000	1000	0	0	-1	0
21624275	5014	2	0	-100	0	230	101300000	1000	0	0	-1	0
21636835	5018	0	0	-100	0	230	101300000	1000	0	0	-1	0
21649395	5016	0	0	-100	0	230	101300000	1000	0	0	-1	0
21661955	5011	0	0	-100	0	230	101300000	1000	0	0	-1	0
21674515	5018	0	0	-100	0	230	101300000	1000	0	0	-1	0
21687075	5014	3	0	-100	0	230	101300000	1000	0	0	-1	0
21699635	5016	0	0	-100	0	230	101300000	1000	0	0	-1	0
21712195	5015	0	0	-100	0	230	101300000	1000	0	0	-1	0
21724755	5008	0	0	-100	0	230	101300000	1000	0	0	-1	0
21737315	5021	0	0	-100	0	230	101300000	1000	0	0	-1	0
21749875	5015	2	0	-100	0	230	101300000	1000	0	0	-1	0
21762435	5018	0	0	-100	0	230	101300000	1000	0	0	-1	0
21774995	5012	0	0	-100	0	230	101300000	1000	0	0	-1	0
21787555	5016	0	0	-100	0	230	101300000	1000	0	0	-1	0
21800115	5017	0	0	-100	0	230	101300000	1000	0	0	-1	0
21812675	5015	2	0	-100	0	230	101300000	1000	0	0	-1	0
21825235	5016	0	0	-100	0	230	101300000	1000	0	0	-1	0
21837795	5011	0	0	-100	0	230	101300000	1000	0	0	-1	0
21850355	5012	0	0	-100	0	230	101300000	1000	0	0	-1	0
21862915	5017	0	0	-100	0	230	101300000	1000	0	0	-1	0
21875475	5014	1	0	-100	0	230	101300000	1000	0	0	-1	0
21888035	5014	0	0	-100	0	230	101300000	1000	0	0	-1	0
21900595	5014	0	0	-100	0	230	101300000	1000	0	0	-1	0
21913155	5005	0	0	-100	0	230	101300000	1000	0	0	-1	0
21925715	5018	0	0	-100	0	230	101300000	1000	0	0	-1	0
21938275	5012	2	0	-100	0	230	101300000	1000	0	0	-1	0
21950835	5014	0	0	-100	0	230	101300000	1000	0	0	-1	0
21963395	5017	0	0	-100	0	230	101300000	1000	0	0	-1	0
21975955	5015	0	0	-100	0	230	101300000	1000	0	0	-1	0
21988515	5017	0	0	-100	0	230	101300000	1000	0	0	-1	0
22001075	5012	0	0	-100	0	230	101300000	1000	0	0	-1	0
22013635	5011	0	0	-100	0	230	101300000	1000	0	0	-1	0
22026195	5021	0	0	-100	0	230	101300000	1000	0	0	-1	0
22038755	5014	0	0	-100	0	230	101300000	1000	0	0	-1	0
22051315	5011	0	0	-100	0	230	101300000	1000	0	0	-1	0
22063875	5016	0	0	-100	0	230	101300000	1000	0	0	-1	0
22076435	5011	2	0	-100	0	230	101300000	1000	0	0	-1	0
22088995	5011	0	0	-100	0	230	101300000	1000	0	0	-1	0
22101555	5016	0	0	-100	0	230	101300000	1000	0	0	-1	0
22114115	5012	0	0	-100	0	230	101300000	1000	0	0	-1	0
22126675	5010	0	0	-100	0	230	101300000	1000	0	0	-1	0
22139235	5018	0	0	-100	0	230	101300000	1000	0	0	-1	0
22151795	5014	0	0	-100	0	230	101300000	1000	0	0	-1	0
22164355	5015	1	0	-100	0	230	101300000	1000	0	0	-1	0
22176915	5011	0	0	-100	0	230	101300000	1000	0	0	-1	0
22189475	5018	0	0	-100	0	230	101300000	1000	0	0	-1	0
22202035	5012	2	0	-100	0	230	101300000	1000	0	0	-1	0
22214595	5016	0	0	-100	0	230	101300000	1000	0	0	-1	0
22227155	5015	0	0	-100	0	230	101300000	1000	0	0	-1	0
22239715	5012	3	0	-100	0	230	101300000	1000	0	0	-1	0
22252275	5017	0	0	-100	0	230	101300000	1000	0	0	-1	0
22264835	5023	0	0	-100	0	230	101300000	1000	0	0	-1	0
22277395	5015	2	0	-100	0	230	101300000	1000	0	0	-1	0
22289955	5017	0	0	-100	0	230	101300000	1000	0	0	-1	0
22302515	5022	0	0	-100	0	230	101300000	1000	0	0	-1	0
22315075	5012	0	0	-100	0	230	101300000	1000	0	0	-1	0
22327635	5010	0	0	-100	0	230	101300000	1000	0	0	-1	0
22340195	5017	0	0	-100	0	230	101300000	1000	0	0	-1	0
22352755	5018	0	0	-100	0	230	101300000	1000	0	0	-1	0
22365315	5012	0	0	-100	0	230	101300000	1000	0	0	-1	0
22377875	5008	0	0	-100	0	230	101300000	1000	0	0	-1	0
22390435	5016	0	0	-100	0	230	101300000	1000	0	0	-1	0
22402995	5018	1	0	-100	0	230	101300000	1000	0	0	-1	0
22415555	5012	1	0	-100	0	230	101300000	1000	0	0	-1	0
22428115	5012	0	0	-100	0	230	101300000	1000	0	0	-1	0
22440675	5019	0	0	-100	0	230	101300000	1000	0	0	-1	0
22453235	5015	3	0	-100	0	230	101300000	1000	0	0	-1	0
22465795	5017	0	0	-100	0	230	101300000	1000	0	0	-1	0
22478355	5012	2	0	-100	0	230	101300000	1000	0	0	-1	0
22490915	5018	0	0	-100	0	230	101300000	1000	0	0	-1	0
22503475	5011	0	0	-100	0	230	101300000	1000	0	0	-1	0
22516035	5014	0	0	-100	0	230	101300000	1000	0	0	-1	0
22528595	5022	0	0	-100	0	230	101300000	1000	0	0	-1	0
22541155	5004	0	0	-100	0	230	101300000	1000	0	0	-1	0
22553715	5017	0	0	-100	0	230	101300000	1000	0	0	-1	0
22566275	5012	0	0	-100	0	230	101300000	1000	0	0	-1	0
22578835	5013	0	0	-100	0	230	101300000	1000	0	0	-1	0
22591395	5014	0	0	-100	0	230	101300000	1000	0	0	-1	0
22603955	5016	0	0	-100	0	230	101300000	1000	0	0	-1	0
22616515	5012	0	0	-100	0	230	101300000	1000	0	0	-1	0
22629075	5016	0	0	-100	0	230	101300000	1000	0	0	-1	0
22641635	5014	0	0	-100	0	230	101300000	1000	0	0	-1	0
22654195	5014	0	0	-100	0	230	101300000	1000	0	0	-1	0
22666755	5021	0	0	-100	0	230	101300000	1000	0	0	-1	0
22679315	5015	0	0	-100	0	230	101300000	1000	0	0	-1	0
22691875	5017	0	0	-100	0	230	101300000	1000	0	0	-1	0
22704435	5013	0	0	-100	0	230	101300000	1000	0	0	-1	0
22716995	5018	3	0	-100	0	230	101300000	1000	0	0	-1	0
22729555	5015	0	0	-100	0	230	101300000	1000	0	0	-1	0
22742115	5019	0	0	-100	0	230	101300000	1000	0	0	-1	0
22754675	5015	0	0	-100	0	230	101300000	1000	0	0	-1	0
22767235	5021	0	0	-100	0	230	101300000	1000	0	0	-1	0
22779795	5015	0	0	-100	0	230	101300000	1000	0	0	-1	0
22792355	5018	0	0	-100	0	230	101300000	1000	0	0	-1	0
22804915	5008	0	0	-100	0	230	101300000	1000	0	0	-1	0
22817475	5020	0	0	-100	0	230	101300000	1000	0	0	-1	0
22830035	5015	1	0	-100	0	230	101300000	1000	0	0	-1	0
22842595	5017	0	0	-100	0	230	101300000	1000	0	0	-1	0
22855155	5006	2	0	-100	0	230	101300000	1000	0	0	-1	0
22867715	5016	0	0	-100	0	230	101300000	1000	0	0	-1	0
22880275	5020	0	0	-100	0	230	101300000	1000	0	0	-1	0
22892835	5008	0	0	-100	0	230	101300000	1000	0	0	-1	0
22905395	5021	0	0	-100	0	230	101300000	1000	0	0	-1	0
22917955	5014	2	0	-100	0	230	101300000	1000	0	0	-1	0
22930515	5018	0	0	-100	0	230	101300000	1000	0	0	-1	0
22943075	5014	3	0	-100	0	230	101300000	1000	0	0	-1	0
22955635	5021	0	0	-100	0	230	101300000	1000	0	0	-1	0
22968195	5009	0	0	-100	0	230	101300000	1000	0	0	-1	0
22980755	5012	0	0	-100	0	230	101300000	1000	0	0	-1	0
22993315	5022	0	0	-100	0	230	101300000	1000	0	0	-1	0
23005875	5017	3	0	-100	0	230	101300000	1000	0	0	-1	0
23018435	5020	0	0	-100	0	230	101300000	1000	0	0	-1	0
23030995	5014	0	0	-100	0	230	101300000	1000	0	0	-1	0
23043555	5018	0	0	-100	0	230	101300000	1000	0	0	-1	0
23056115	5012	0	0	-100	0	230	101300000	1000	0	0	-1	0
23068675	5015	0	0	-100	0	230	101300000	1000	0	0	-1	0
23081235	5014	1	0	-100	0	230	101300000	1000	0	0	-1	0
23093795	5017	0	0	-100	0	230	101300000	1000	0	0	-1	0
23106355	5014	0	0	-100	0	230	101300000	1000	0	0	-1	0
23118915	5016	0	0	-100	0	230	101300000	1000	0	0	-1	0
23131475	5015	2	0	-100	0	230	101300000	1000	0	0	-1	0
23144035	5018	0	0	-100	0	230	101300000	1000	0	0	-1	0
23156595	5011	2	0	-100	0	230	101300000	1000	0	0	-1	0
23169155	5009	0	0	-100	0	230	101300000	1000	0	0	-1	0
23181715	5014	0	0	-100	0	230	101300000	1000	0	0	-1	0
23194275	5012	0	0	-100	0	230	101300000	1000	0	0	-1	0
23206835	5019	0	0	-100	0	230	101300000	1000	0	0	-1	0
23219395	5011	2	0	-100	0	230	101300000	1000	0	0	-1	0
23231955	5016	0	0	-100	0	230	101300000	1000	0	0	-1	0
23244515	5011	3	0	-100	0	230	101300000	1000	0	0	-1	0
23257075	5018	0	0	-100	0	230	101300000	1000	0	0	-1	0
23269635	5015	2	0	-100	0	230	101300000	1000	0	0	-1	0
23282195	5018	0	0	-100	0	230	101300000	1000	0	0	-1	0
23294755	5011	2	0	-100	0	230	101300000	1000	0	0	-1	0
23307315	5017	0	0	-100	0	230	101300000	1000	0	0	-1	0
23319875	5014	0	0	-100	0	230	101300000	1000	0	0	-1	0
23332435	5010	0	0	-100	0	230	101300000	1000	0	0	-1	0
23344995	5021	4	0	-100	0	230	101300000	1000	0	0	-1	0
23357555	5015	0	0	-100	0	230	101300000	1000	0	0	-1	0
23370115	5014	0	0	-100	0	230	101300000	1000	0	0	-1	0
23382675	5016	0	0	-100	0	230	101300000	1000	0	0	-1	0
23395235	5015	2	0	-100	0	230	101300000	1000	0	0	-1	0
23407795	5018	0	0	-100	0	230	101300000	1000	0	0	-1	0
23420355	5011	2	0	-100	0	230	101300000	1000	0	0	-1	0
23432915	5016	0	0	-100	0	230	101300000	1000	0	0	-1	0
23445475	5012	2	0	-100	0	230	101300000	1000	0	0	-1	0
23458035	5018	0	0	-100	0	230	101300000	1000	0	0	-1	0
23470595	5015	2	0	-100	0	230	101300000	1000	0	0	-1	0
23483155	5009	0	0	-100	0	230	101300000	1000	0	0	-1	0
23495715	5014	1	0	-100	0	230	101300000	1000	0	0	-1	0
23508275	5016	0	0	-100	0	230	101300000	1000	0	0	-1	0
23520835	5014	3	0	-100	0	230	101300000	1000	0	0	-1	0
23533395	5016	0	0	-100	0	230	101300000	1000	0	0	-1	0
23545955	5014	3	0	-100	0	230	101300000	1000	0	0	-1	0
23558515	5018	0	0	-100	0	230	101300000	1000	0	0	-1	0
23571075	5012	0	0	-100	0	230	101300000	1000	0	0	-1	0
23583635	5022	0	0	-100	0	230	101300000	1000	0	0	-1	0
23596195	5011	0	0	-100	0	230	101300000	1000	0	0	-1	0
23608755	5012	0	0	-100	0	230	101300000	1000	0	0	-1	0
23621315	5017	0	0	-100	0	230	101300000	1000	0	0	-1	0
23633875	5015	2	0	-100	0	230	101300000	1000	0	0	-1	0
23646435	5017	0	0	-100	0	230	101300000	1000	0	0	-1	0
23658995	5011	0	0	-100	0	230	101300000	1000	0	0	-1	0
23671555	5016	0	0	-100	0	230	101300000	1000	0	0	-1	0
23684115	5014	0	0	-100	0	230	101300000	1000	0	0	-1	0
23696675	5021	0	0	-100	0	230	101300000	1000	0	0	-1	0
23709235	5014	4	0	-100	0	230	101300000	1000	0	0	-1	0
23721795	5017	0	0	-100	0	230	101300000	1000	0	0	-1	0
23734355	5015	0	0	-100	0	230	101300000	1000	0	0	-1	0
23746915	5019	0	0	-100	0	230	101300000	1000	0	0	-1	0
23759475	5012	0	0	-100	0	230	101300000	1000	0	0	-1	0
23772035	5023	0	0	-100	0	230	101300000	1000	0	0	-1	0
23784595	5012	0	0	-100	0	230	101300000	1000	0	0	-1	0
23797155	5005	4	0	-100	0	230	101300000	1000	0	0	-1	0
23809715	5017	0	0	-100	0	230	101300000	1000	0	0	-1	0
23822275	5015	3	0	-100	0	230	101300000	1000	0	0	-1	0
23834835	5016	0	0	-100	0	230	101300000	1000	0	0	-1	0
23847395	5012	0	0	-100	0	230	101300000	1000	0	0	-1	0
23859955	5011	0	0	-100	0	230	101300000	1000	0	0	-1	0
23872515	5013	0	0	-100	0	230	101300000	1000	0	0	-1	0
23885075	5012	1	0	-100	0	230	101300000	1000	0	0	-1	0
23897635	5021	0	0	-100	0	230	101300000	1000	0	0	-1	0
23910195	5015	3	0	-100	0	230	101300000	1000	0	0	-1	0
23922755	5021	0	0	-100	0	230	101300000	1000	0	0	-1	0
23935315	5011	2	0	-100	0	230	101300000	1000	0	0	-1	0
23947875	5017	0	0	-100	0	230	101300000	1000	0	0	-1	0
23960435	5016	0	0	-100	0	230	101300000	1000	0	0	-1	0
23972995	5011	0	0	-100	0	230	101300000	1000	0	0	-1	0
23985555	5016	0	0	-100	0	230	101300000	1000	0	0	-1	0
23998115	5012	2	0	-100	0	230	101300000	1000	0	0	-1	0
24010675	5014	0	0	-100	0	230	101300000	1000	0	0	-1	0
24023235	5018	0	0	-100	0	230	101300000	1000	0	0	-1	0
24035795	5012	2	0	-100	0	230	101300000	1000	0	0	-1	0
24048355	5016	0	0	-100	0	230	101300000	1000	0	0	-1	0
24060915	5015	0	0	-100	0	230	101300000	1000	0	0	-1	0
24073475	5014	0	0	-100	0	230	101300000	1000	0	0	-1	0
24086035	5011	0	0	-100	0	230	101300000	1000	0	0	-1	0
24098595	5016	0	0	-100	0	230	101300000	1000	0	0	-1	0
24111155	5007	1	0	-100	0	230	101300000	1000	0	0	-1	0
24123715	5011	0	0	-100	0	230	101300000	1000	0	0	-1	0
24136275	5013	0	0	-100	0	230	101300000	1000	0	0	-1	0
24148835	5022	0	0	-100	0	230	101300000	1000	0	0	-1	0
24161395	5012	0	0	-100	0	230	101300000	1000	0	0	-1	0
24173955	5014	2	0	-100	0	230	101300000	1000	0	0	-1	0
24186515	5010	0	0	-100	0	230	101300000	1000	0	0	-1	0
24199075	5025	0	0	-100	0	230	101300000	1000	0	0	-1	0
24211635	5012	0	0	-100	0	230	101300000	1000	0	0	-1	0
24224195	5011	0	0	-100	0	230	101300000	1000	0	0	-1	0
24236755	5016	0	0	-100	0	230	101300000	1000	0	0	-1	0
24249315	5010	4	0	-100	0	230	101300000	1000	0	0	-1	0
24261875	5019	0	0	-100	0	230	101300000	1000	0	0	-1	0
24274435	5015	1	0	-100	0	230	101300000	1000	0	0	-1	0
24286995	5014	0	0	-100	0	230	101300000	1000	0	0	-1	0
24299555	5022	0	0	-100	0	230	101300000	1000	0	0	-1	0
24312115	5014	2	0	-100	0	230	101300000	1000	0	0	-1	0
24324675	5011	0	0	-100	0	230	101300000	1000	0	0	-1	0
24337235	5017	0	0	-100	0	230	101300000	1000	0	0	-1	0
24349795	5012	0	0	-100	0	230	101300000	1000	0	0	-1	0
24362355	5011	0	0	-100	0	230	101300000	1000	0	0	-1	0
24374915	5017	0	0	-100	0	230	101300000	1000	0	0	-1	0
24387475	5011	3	0	-100	0	230	101300000	1000	0	0	-1	0
24400035	5016	0	0	-100	0	230	101300000	1000	0	0	-1	0
24412595	5011	1	0	-100	0	230	101300000	1000	0	0	-1	0
24425155	5009	0	0	-100	0	230	101300000	1000	0	0	-1	0
24437715	5012	0	0	-100	0	230	101300000	1000	0	0	-1	0
24450275	5013	0	0	-100	0	230	101300000	1000	0	0	-1	0
24462835	5017	0	0	-100	0	230	101300000	1000	0	0	-1	0
24475395	5012	0	0	-100	0	230	101300000	1000	0	0	-1	0
24487955	5017	0	0	-100	0	230	101300000	1000	0	0	-1	0
24500515	5008	0	0	-100	0	230	101300000	1000	0	0	-1	0
24513075	5022	0	0	-100	0	230	101300000	1000	0	0	-1	0
24525635	5014	2	0	-100	0	230	101300000	1000	0	0	-1	0
24538195	5017	0	0	-100	0	230	101300000	1000	0	0	-1	0
24550755	5015	1	0	-100	0	230	101300000	1000	0	0	-1	0
24563315	5017	0	0	-100	0	230	101300000	1000	0	0	-1	0
24575875	5015	1	0	-100	0	230	101300000	1000	0	0	-1	0
24588435	5019	0	0	-100	0	230	101300000	1000	0	0	-1	0
24600995	5009	0	0	-100	0	230	101300000	1000	0	0	-1	0
24613555	5022	0	0	-100	0	230	101300000	1000	0	0	-1	0
24626115	5011	0	0	-100	0	230	101300000	1000	0	0	-1	0
24638675	5018	0	0	-100	0	230	101300000	1000	0	0	-1	0
24651235	5015	1	0	-100	0	230	101300000	1000	0	0	-1	0
24663795	5018	0	0	-100	0	230	101300000	1000	0	0	-1	0
24676355	5015	2	0	-100	0	230	101300000	1000	0	0	-1	0
24688915	5012	0	0	-100	0	230	101300000	1000	0	0	-1	0
24701475	5017	0	0	-100	0	230	101300000	1000	0	0	-1	0
24714035	5011	0	0	-100	0	230	101300000	1000	0	0	-1	0
24726595	5012	0	0	-100	0	230	101300000	1000	0	0	-1	0
24739155	5016	0	0	-100	0	230	101300000	1000	0	0	-1	0
24751715	5015	0	0	-100	0	230	101300000	1000	0	0	-1	0
24764275	5020	0	0	-100	0	230	101300000	1000	0	0	-1	0
24776835	5012	0	0	-100	0	230	101300000	1000	0	0	-1	0
24789395	5010	0	0	-100	0	230	101300000	1000	0	0	-1	0
24801955	5016	0	0	-100	0	230	101300000	1000	0	0	-1	0
24814515	5015	2	0	-100	0	230	101300000	1000	0	0	-1	0
24827075	5016	0	0	-100	0	230	101300000	1000	0	0	-1	0
24839635	5014	0	0	-100	0	230	101300000	1000	0	0	-1	0
24852195	5010	0	0	-100	0	230	101300000	1000	0	0	-1	0
24864755	5016	0	0	-100	0	230	101300000	1000	0	0	-1	0
24877315	5011	1	0	-100	0	230	101300000	1000	0	0	-1	0
24889875	5017	0	0	-100	0	230	101300000	1000	0	0	-1	0
24902435	5016	0	0	-100	0	230	101300000	1000	0	0	-1	0
24914995	5014	0	0	-100	0	230	101300000	1000	0	0	-1	0
24927555	5011	1	0	-100	0	230	101300000	1000	0	0	-1	0
24940115	5021	0	0	-100	0	230	101300000	1000	0	0	-1	0
24952675	5016	0	0	-100	0	230	101300000	1000	0	0	-1	0
24965235	5012	1	0	-100	0	230	101300000	1000	0	0	-1	0
24977795	5016	0	0	-100	0	230	101300000	1000	0	0	-1	0
24990355	5015	0	0	-100	0	230	101300000	1000	0	0	-1	0
25002915	5014	4	0	-100	0	230	101300000	1000	0	0	-1	0
25015475	5016	0	0	-100	0	230	101300000	1000	0	0	-1	0
25028035	5017	0	0	-100	0	230	101300000	1000	0	0	-1	0
25040595	5012	2	0	-100	0	230	101300000	1000	0	0	-1	0
25053155	5013	0	0	-100	0	230	101300000	1000	0	0	-1	0
25065715	5015	1	0	-100	0	230	101300000	1000	0	0	-1	0
25078275	5021	0	0	-100	0	230	101300000	1000	0	0	-1	0
25090835	5012	2	0	-100	0	230	101300000	1000	0	0	-1	0
25103395	5011	0	0	-100	0	230	101300000	1000	0	0	-1	0
25115955	5020	0	0	-100	0	230	101300000	1000	0	0	-1	0
25128515	5016	0	0	-100	0	230	101300000	1000	0	0	-1	0
25141075	5017	0	0	-100	0	230	101300000	1000	0	0	-1	0
25153635	5012	0	0	-100	0	230	101300000	1000	0	0	-1	0
25166195	5014	2	0	-100	0	230	101300000	1000	0	0	-1	0
25178755	5015	2	0	-100	0	230	101300000	1000	0	0	-1	0
25191315	5012	0	0	-100	0	230	101300000	1000	0	0	-1	0
25203875	5016	0	0	-100	0	230	101300000	1000	0	0	-1	0
25216435	5019	0	0	-100	0	230	101300000	1000	0	0	-1	0
25228995	5017	0	0	-100	0	230	101300000	1000	0	0	-1	0
25241555	5012	0	0	-100	0	230	101300000	1000	0	0	-1	0
25254115	5012	4	0	-100	0	230	101300000	1000	0	0	-1	0
25266675	5011	0	0	-100	0	230	101300000	1000	0	0	-1	0
25279235	5021	0	0	-100	0	230	101300000	1000	0	0	-1	0
25291795	5016	0	0	-100	0	230	101300000	1000	0	0	-1	0
25304355	5010	0	0	-100	0	230	101300000	1000	0	0	-1	0
25316915	5014	2	0	-100	0	230	101300000	1000	0	0	-1	0
25329475	5015	3	0	-100	0	230	101300000	1000	0	0	-1	0
25342035	5010	2	0	-100	0	230	101300000	1000	0	0	-1	0
25354595	5015	0	0	-100	0	230	101300000	1000	0	0	-1	0
25367155	5013	0	0	-100	0	230	101300000	1000	0	0	-1	0
25379715	5017	0	0	-100	0	230	101300000	1000	0	0	-1	0
25392275	5016	0	0	-100	0	230	101300000	1000	0	0	-1	0
25404835	5012	1	0	-100	0	230	101300000	1000	0	0	-1	0
25417395	5017	0	0	-100	0	230	101300000	1000	0	0	-1	0
25429955	5020	0	0	-100	0	230	101300000	1000	0	0	-1	0
25442515	5017	0	0	-100	0	230	101300000	1000	0	0	-1	0
25455075	5010	0	0	-100	0	230	101300000	1000	0	0	-1	0
25467635	5015	3	0	-100	0	230	101300000	1000	0	0	-1	0
25480195	5011	0	0	-100	0	230	101300000	1000	0	0	-1	0
25492755	5019	0	0	-100	0	230	101300000	1000	0	0	-1	0
25505315	5018	0	0	-100	0	230	101300000	1000	0	0	-1	0
25517875	5017	0	0	-100	0	230	101300000	1000	0	0	-1	0
25530435	5012	0	0	-100	0	230	101300000	1000	0	0	-1	0
25542995	5011	0	0	-100	0	230	101300000	1000	0	0	-1	0
25555555	5014	0	0	-100	0	230	101300000	1000	0	0	-1	0
25568115	5012	0	0	-100	0	230	101300000	1000	0	0	-1	0
25580675	5014	0	0	-100	0	230	101300000	1000	0	0	-1	0
25593235	5014	0	0	-100	0	230	101300000	1000	0	0	-1	0
25605795	5014	2	0	-100	0	230	101300000	1000	0	0	-1	0
25618355	5018	0	0	-100	0	230	101300000	1000	0	0	-1	0
25630915	5015	0	0	-100	0	230	101300000	1000	0	0	-1	0
25643475	5012	0	0	-100	0	230	101300000	1000	0	0	-1	0
25656035	5012	0	0	-100	0	230	101300000	1000	0	0	-1	0
25668595	5018	0	0	-100	0	230	101300000	1000	0	0	-1	0
25681155	5015	0	0	-100	0	230	101300000	1000	0	0	-1	0
25693715	5016	0	0	-100	0	230	101300000	1000	0	0	-1	0
25706275	5025	0	0	-100	0	230	101300000	1000	0	0	-1	0
25718835	5017	0	0	-100	0	230	101300000	1000	0	0	-1	0
25731395	5017	0	0	-100	0	230	101300000	1000	0	0	-1	0
25743955	5018	0	0	-100	0	230	101300000	1000	0	0	-1	0
25756515	5016	0	0	-100	0	230	101300000	1000	0	0	-1	0
25769075	5014	0	0	-100	0	230	101300000	1000	0	0	-1	0
25781635	5012	1	0	-100	0	230	101300000	1000	0	0	-1	0
25794195	5013	0	0	-100	0	230	101300000	1000	0	0	-1	0
25806755	5019	0	0	-100	0	230	101300000	1000	0	0	-1	0
25819315	5016	0	0	-100	0	230	101300000	1000	0	0	-1	0
25831875	5017	0	0	-100	0	230	101300000	1000	0	0	-1	0
25844435	5018	0	0	-100	0	230	101300000	1000	0	0	-1	0
25856995	5012	0	0	-100	0	230	101300000	1000	0	0	-1	0
25869555	5015	0	0	-100	0	230	101300000	1000	0	0	-1	0
25882115	5012	3	0	-100	0	230	101300000	1000	0	0	-1	0
25894675	5015	0	0	-100	0	230	101300000	1000	0	0	-1	0
25907235	5021	0	0	-100	0	230	101300000	1000	0	0	-1	0
25919795	5017	0	0	-100	0	230	101300000	1000	0	0	-1	0
25932355	5015	0	0	-100	0	230	101300000	1000	0	0	-1	0
25944915	5015	2	0	-100	0	230	101300000	1000	0	0	-1	0
25957475	5011	0	0	-100	0	230	101300000	1000	0	0	-1	0
25970035	5016	0	0	-100	0	230	101300000	1000	0	0	-1	0
25982595	5016	0	0	-100	0	230	101300000	1000	0	0	-1	0
25995155	5012	0	0	-100	0	230	101300000	1000	0	0	-1	0
26007715	5017	0	0	-100	0	230	101300000	1000	0	0	-1	0
26020275	5014	0	0	-100	0	230	101300000	1000	0	0	-1	0
26032835	5011	0	0	-100	0	230	101300000	1000	0	0	-1	0
26045395	5015	4	0	-100	0	230	101300000	1000	0	0	-1	0
26057955	5014	1	0	-100	0	230	101300000	1000	0	0	-1	0
26070515	5016	0	0	-100	0	230	101300000	1000	0	0	-1	0
26083075	5018	0	0	-100	0	230	101300000	1000	0	0	-1	0
26095635	5011	0	0	-100	0	230	101300000	1000	0	0	-1	0
26108195	5015	0	0	-100	0	230	101300000	1000	0	0	-1	0
26120755	5017	0	0	-100	0	230	101300000	1000	0	0	-1	0
26133315	5011	0	0	-100	0	230	101300000	1000	0	0	-1	0
26145875	5015	0	0	-100	0	230	101300000	1000	0	0	-1	0
26158435	5016	0	0	-100	0	230	101300000	1000	0	0	-1	0
26170995	5014	0	0	-100	0	230	101300000	1000	0	0	-1	0
26183555	5017	0	0	-100	0	230	101300000	1000	0	0	-1	0
26196115	5015	0	0	-100	0	230	101300000	1000	0	0	-1	0
26208675	5015	0	0	-100	0	230	101300000	1000	0	0	-1	0
26221235	5014	0	0	-100	0	230	101300000	1000	0	0	-1	0
26233795	5017	0	0	-100	0	230	101300000	1000	0	0	-1	0
26246355	5011	0	0	-100	0	230	101300000	1000	0	0	-1	0
26258915	5011	0	0	-100	0	230	101300000	1000	0	0	-1	0
26271475	5020	0	0	-100	0	230	101300000	1000	0	0	-1	0
26284035	5008	0	0	-100	0	230	101300000	1000	0	0	-1	0
26296595	5011	2	0	-100	0	230	101300000	1000	0	0	-1	0
26309155	5013	0	0	-100	0	230	101300000	1000	0	0	-1	0
26321715	5018	0	0	-100	0	230	101300000	1000	0	0	-1	0
26334275	5014	0	0	-100	0	230	101300000	1000	0	0	-1	0
26346835	5012	0	0	-100	0	230	101300000	1000	0	0	-1	0
26359395	5016	0	0	-100	0	230	101300000	1000	0	0	-1	0
26371955	5016	0	0	-100	0	230	101300000	1000	0	0	-1	0
26384515	5010	0	0	-100	0	230	101300000	1000	0	0	-1	0
26397075	5012	1	0	-100	0	230	101300000	1000	0	0	-1	0
26409635	5017	0	0	-100	0	230	101300000	1000	0	0	-1	0
26422195	5021	0	0	-100	0	230	101300000	1000	0	0	-1	0
26434755	5014	0	0	-100	0	230	101300000	1000	0	0	-1	0
26447315	5015	3	0	-100	0	230	101300000	1000	0	0	-1	0
26459875	5012	0	0	-100	0	230	101300000	1000	0	0	-1	0
26472435	5018	0	0	-100	0	230	101300000	1000	0	0	-1	0
26484995	5011	0	0	-100	0	230	101300000	1000	0	0	-1	0
26497555	5014	1	0	-100	0	230	101300000	1000	0	0	-1	0
26510115	5017	0	0	-100	0	230	101300000	1000	0	0	-1	0
26522675	5011	0	0	-100	0	230	101300000	1000	0	0	-1	0
26535235	5021	0	0	-100	0	230	101300000	1000	0	0	-1	0
26547795	5014	2	0	-100	0	230	101300000	1000	0	0	-1	0
26560355	5012	0	0	-100	0	230	101300000	1000	0	0	-1	0
26572915	5019	0	0	-100	0	230	101300000	1000	0	0	-1	0
26585475	5011	0	0	-100	0	230	101300000	1000	0	0	-1	0
26598035	5019	0	0	-100	0	230	101300000	1000	0	0	-1	0
26610595	5015	2	0	-100	0	230	101300000	1000	0	0	-1	0
26623155	5013	0	0	-100	0	230	101300000	1000	0	0	-1	0
26635715	5012	1	0	-100	0	230	101300000	1000	0	0	-1	0
26648275	5014	0	0	-100	0	230	101300000	1000	0	0	-1	0
26660835	5018	0	0	-100	0	230	101300000	1000	0	0	-1	0
26673395	5015	0	0	-100	0	230	101300000	1000	0	0	-1	0
26685955	5014	0	0	-100	0	230	101300000	1000	0	0	-1	0
26698515	5016	0	0	-100	0	230	101300000	1000	0	0	-1	0
26711075	5012	0	0	-100	0	230	101300000	1000	0	0	-1	0
26723635	5014	0	0	-100	0	230	101300000	1000	0	0	-1	0
26736195	5020	0	0	-100	0	230	101300000	1000	0	0	-1	0
26748755	5014	0	0	-100	0	230	101300000	1000	0	0	-1	0
26761315	5018	0	0	-100	0	230	101300000	1000	0	0	-1	0
26773875	5014	1	0	-100	0	230	101300000	1000	0	0	-1	0
26786435	5011	0	0	-100	0	230	101300000	1000	0	0	-1	0
26798995	5018	4	0	-100	0	230	101300000	1000	0	0	-1	0
26811555	5015	1	0	-100	0	230	101300000	1000	0	0	-1	0
26824115	5014	0	0	-100	0	230	101300000	1000	0	0	-1	0
26836675	5019	0	0	-100	0	230	101300000	1000	0	0	-1	0
26849235	5015	0	0	-100	0	230	101300000	1000	0	0	-1	0
26861795	5010	0	0	-100	0	230	101300000	1000	0	0	-1	0
26874355	5020	0	0	-100	0	230	101300000	1000	0	0	-1	0
26886915	5015	0	0	-100	0	230	101300000	1000	0	0	-1	0
26899475	5012	0	0	-100	0	230	101300000	1000	0	0	-1	0
26912035	5018	0	0	-100	0	230	101300000	1000	0	0	-1	0
26924595	5014	3	0	-100	0	230	101300000	1000	0	0	-1	0
26937155	5007	0	0	-100	0	230	101300000	1000	0	0	-1	0
26949715	5018	0	0	-100	0	230	101300000	1000	0	0	-1	0
26962275	5017	0	0	-100	0	230	101300000	1000	0	0	-1	0
26974835	5010	3	0	-100	0	230	101300000	1000	0	0	-1	0
26987395	5008	0	0	-100	0	230	101300000	1000	0	0	-1	0
26999955	5017	0	0	-100	0	230	101300000	1000	0	0	-1	0
27012515	5016	0	0	-100	0	230	101300000	1000	0	0	-1	0
27025075	5015	2	0	-100	0	230	101300000	1000	0	0	-1	0
27037635	5017	0	0	-100	0	230	101300000	1000	0	0	-1	0
27050195	5020	0	0	-100	0	230	101300000	1000	0	0	-1	0
27062755	5011	2	0	-100	0	230	101300000	1000	0	0	-1	0
27075315	5012	0	0	-100	0	230	101300000	1000	0	0	-1	0
27087875	5017	0	0	-100	0	230	101300000	1000	0	0	-1	0
27100435	5016	0	0	-100	0	230	101300000	1000	0	0	-1	0
27112995	5011	0	0	-100	0	230	101300000	1000	0	0	-1	0
27125555	5018	0	0	-100	0	230	101300000	1000	0	0	-1	0
27138115	5014	2	0	-100	0	230	101300000	1000	0	0	-1	0
27150675	5015	0	0	-100	0	230	101300000	1000	0	0	-1	0
27163235	5014	0	0	-100	0	230	101300000	1000	0	0	-1	0
27175795	5014	1	0	-100	0	230	101300000	1000	0	0	-1	0
27188355	5008	0	0	-100	0	230	101300000	1000	0	0	-1	0
27200915	5018	0	0	-100	0	230	101300000	1000	0	0	-1	0
27213475	5011	0	0	-100	0	230	101300000	1000	0	0	-1	0
27226035	5016	0	0	-100	0	230	101300000	1000	0	0	-1	0
27238595	5018	0	0	-100	0	230	101300000	1000	0	0	-1	0
27251155	5009	0	0	-100	0	230	101300000	1000	0	0	-1	0
27263715	5011	2	0	-100	0	230	101300000	1000	0	0	-1	0
27276275	5012	0	0	-100	0	230	101300000	1000	0	0	-1	0
27288835	5016	0	0	-100	0	230	101300000	1000	0	0	-1	0
27301395	5017	0	0	-100	0	230	101300000	1000	0	0	-1	0
27313955	5022	0	0	-100	0	230	101300000	1000	0	0	-1	0
27326515	5011	1	0	-100	0	230	101300000	1000	0	0	-1	0
27339075	5014	0	0	-100	0	230	101300000	1000	0	0	-1	0
27351635	5014	0	0	-100	0	230	101300000	1000	0	0	-1	0
27364195	5019	0	0	-100	0	230	101300000	1000	0	0	-1	0
27376755	5015	0	0	-100	0	230	101300000	1000	0	0	-1	0
27389315	5016	0	0	-100	0	230	101300000	1000	0	0	-1	0
27401875	5018	0	0	-100	0	230	101300000	1000	0	0	-1	0
27414435	5017	0	0	-100	0	230	101300000	1000	0	0	-1	0
27426995	5012	0	0	-100	0	230	101300000	1000	0	0	-1	0
27439555	5012	0	0	-100	0	230	101300000	1000	0	0	-1	0
27452115	5019	0	0	-100	0	230	101300000	1000	0	0	-1	0
27464675	5012	0	0	-100	0	230	101300000	1000	0	0	-1	0
27477235	5015	4	0	-100	0	230	101300000	1000	0	0	-1	0
27489795	5009	0	0	-100	0	230	101300000	1000	0	0	-1	0
27502355	5019	0	0	-100	0	230	101300000	1000	0	0	-1	0
27514915	5012	2	0	-100	0	230	101300000	1000	0	0	-1	0
27527475	5012	0	0	-100	0	230	101300000	1000	0	0	-1	0
27540035	5019	0	0	-100	0	230	101300000	1000	0	0	-1	0
27552595	5010	0	0	-100	0	230	101300000	1000	0	0	-1	0
27565155	5013	0	0	-100	0	230	101300000	1000	0	0	-1	0
27577715	5014	1	0	-100	0	230	101300000	1000	0	0	-1	0
27590275	5011	0	0	-100	0	230	101300000	1000	0	0	-1	0
27602835	5021	0	0	-100	0	230	101300000	1000	0	0	-1	0
27615395	5017	0	0	-100	0	230	101300000	1000	0	0	-1	0
27627955	5014	3	0	-100	0	230	101300000	1000	0	0	-1	0
27640515	5013	0	0	-100	0	230	101300000	1000	0	0	-1	0
27653075	5015	0	0	-100	0	230	101300000	1000	0	0	-1	0
27665635	5012	0	0	-100	0	230	101300000	1000	0	0	-1	0
27678195	5021	0	0	-100	0	230	101300000	1000	0	0	-1	0
27690755	5016	2	0	-100	0	230	101300000	1000	0	0	-1	0
27703315	5011	0	0	-100	0	230	101300000	1000	0	0	-1	0
27715875	5016	0	0	-100	0	230	101300000	1000	0	0	-1	0
27728435	5010	0	0	-100	0	230	101300000	1000	0	0	-1	0
27740995	5022	5	0	-100	0	230	101300000	1000	0	0	-1	0
27753555	5014	0	0	-100	0	230	101300000	1000	0	0	-1	0
27766115	5019	0	0	-100	0	230	101300000	1000	0	0	-1	0
27778675	5015	2	0	-100	0	230	101300000	1000	0	0	-1	0
27791235	5017	0	0	-100	0	230	101300000	1000	0	0	-1	0
27803795	5012	0	0	-100	0	230	101300000	1000	0	0	-1	0
27816355	5012	0	0	-100	0	230	101300000	1000	0	0	-1	0
27828915	5022	0	0	-100	0	230	101300000	1000	0	0	-1	0
27841475	5015	2	0	-100	0	230	101300000	1000	0	0	-1	0
27854035	5016	0	0	-100	0	230	101300000	1000	0	0	-1	0
27866595	5020	0	0	-100	0	230	101300000	1000	0	0	-1	0
27879155	5008	4	0	-100	0	230	101300000	1000	0	0	-1	0
27891715	5017	0	0	-100	0	230	101300000	1000	0	0	-1	0
27904275	5015	0	0	-100	0	230	101300000	1000	0	0	-1	0
27916835	5010	0	0	-100	0	230	101300000	1000	0	0	-1	0
27929395	5018	0	0	-100	0	230	101300000	1000	0	0	-1	0
27941955	5014	2	0	-100	0	230	101300000	1000	0	0	-1	0
27954515	5013	0	0	-100	0	230	101300000	1000	0	0	-1	0
27967075	5015	0	0	-100	0	230	101300000	1000	0	0	-1	0
27979635	5011	0	0	-100	0	230	101300000	1000	0	0	-1	0
27992195	5020	0	0	-100	0	230	101300000	1000	0	0	-1	0
28004755	5014	0	0	-100	0	230	101300000	1000	0	0	-1	0
28017315	5021	0	0	-100	0	230	101300000	1000	0	0	-1	0
28029875	5014	0	0	-100	0	230	101300000	1000	0	0	-1	0
28042435	5018	0	0	-100	0	230	101300000	1000	0	0	-1	0
28054995	5014	0	0	-100	0	230	101300000	1000	0	0	-1	0
28067555	5016	0	0	-100	0	230	101300000	1000	0	0	-1	0
28080115	5017	0	0	-100	0	230	101300000	1000	0	0	-1	0
28092675	5015	0	0	-100	0	230	101300000	1000	0	0	-1	0
28105235	5018	0	0	-100	0	230	101300000	1000	0	0	-1	0
28117795	5015	0	0	-100	0	230	101300000	1000	0	0	-1	0
28130355	5018	0	0	-100	0	230	101300000	1000	0	0	-1	0
28142915	5014	0	0	-100	0	230	101300000	1000	0	0	-1	0
28155475	5018	0	0	-100	0	230	101300000	1000	0	0	-1	0
28168035	5014	0	0	-100	0	230	101300000	1000	0	0	-1	0
28180595	5019	0	0	-100	0	230	101300000	1000	0	0	-1	0
28193155	5006	5	0	-100	0	230	101300000	1000	0	0	-1	0
28205715	5016	0	0	-100	0	230	101300000	1000	0	0	-1	0
28218275	5015	2	0	-100	0	230	101300000	1000	0	0	-1	0
28230835	5019	0	0	-100	0	230	101300000	1000	0	0	-1	0
28243395	5008	0	0	-100	0	230	101300000	1000	0	0	-1	0
28255955	5015	0	0	-100	0	230	101300000	1000	0	0	-1	0
28268515	5012	0	0	-100	0	230	101300000	1000	0	0	-1	0
28281075	5011	1	0	-100	0	230	101300000	1000	0	0	-1	0
28293635	5018	0	0	-100	0	230	101300000	1000	0	0	-1	0
28306195	5016	2	0	-100	0	230	101300000	1000	0	0	-1	0
28318755	5018	0	0	-100	0	230	101300000	1000	0	0	-1	0
28331315	5012	1	0	-100	0	230	101300000	1000	0	0	-1	0
28343875	5021	0	0	-100	0	230	101300000	1000	0	0	-1	0
28356435	5011	0	0	-100	0	230	101300000	1000	0	0	-1	0
28368995	5021	4	0	-100	0	230	101300000	1000	0	0	-1	0
28381555	5011	0	0	-100	0	230	101300000	1000	0	0	-1	0
28394115	5015	0	0	-100	0	230	101300000	1000	0	0	-1	0
28406675	5013	0	0	-100	0	230	101300000	1000	0	0	-1	0
28419235	5015	3	0	-100	0	230	101300000	1000	0	0	-1	0
28431795	5017	0	0	-100	0	230	101300000	1000	0	0	-1	0
28444355	5016	0	0	-100	0	230	101300000	1000	0	0	-1	0
28456915	5017	0	0	-100	0	230	101300000	1000	0	0	-1	0
28469475	5011	3	0	-100	0	230	101300000	1000	0	0	-1	0
28482035	5017	0	0	-100	0	230	101300000	1000	0	0	-1	0
28494595	5012	3	0	-100	0	230	101300000	1000	0	0	-1	0
28507155	5011	0	0	-100	0	230	101300000	1000	0	0	-1	0
28519715	5012	2	0	-100	0	230	101300000	1000	0	0	-1	0
28532275	5017	0	0	-100	0	230	101300000	1000	0	0	-1	0
28544835	5012	3	0	-100	0	230	101300000	1000	0	0	-1	0
28557395	5017	0	0	-100	0	230	101300000	1000	0	0	-1	0
28569955	5014	3	0	-100	0	230	101300000	1000	0	0	-1	0
28582515	5016	0	0	-100	0	230	101300000	1000	0	0	-1	0
28595075	5012	3	0	-100	0	230	101300000	1000	0	0	-1	0
28607635	5015	0	0	-100	0	230	101300000	1000	0	0	-1	0
28620195	5012	3	0	-100	0	230	101300000	1000	0	0	-1	0
28632755	5017	0	0	-100	0	230	101300000	1000	0	0	-1	0
28645315	5011	0	0	-100	0	230	101300000	1000	0	0	-1	0
28657875	5012	0	0	-100	0	230	101300000	1000	0	0	-1	0
28670435	5017	0	0	-100	0	230	101300000	1000	0	0	-1	0
28682995	5015	0	0	-100	0	230	101300000	1000	0	0	-1	0
28695555	5016	0	0	-100	0	230	101300000	1000	0	0	-1	0
28708115	5015	0	0	-100	0	230	101300000	1000	0	0	-1	0
28720675	5022	0	0	-100	0	230	101300000	1000	0	0	-1	0
28733235	5014	0	0	-100	0	230	101300000	1000	0	0	-1	0
28745795	5016	0	0	-100	0	230	101300000	1000	0	0	-1	0
28758355	5011	0	0	-100	0	230	101300000	1000	0	0	-1	0
28770915	5012	0	0	-100	0	230	101300000	1000	0	0	-1	0
28783475	5017	0	0	-100	0	230	101300000	1000	0	0	-1	0
28796035	5012	2	0	-100	0	230	101300000	1000	0	0	-1	0
28808595	5018	0	0	-100	0	230	101300000	1000	0	0	-1	0
28821155	5012	4	0	-100	0	230	101300000	1000	0	0	-1	0
28833715	5022	0	0	-100	0	230	101300000	1000	0	0	-1	0
28846275	5014	0	0	-100	0	230	101300000	1000	0	0	-1	0
28858835	5012	0	0	-100	0	230	101300000	1000	0	0	-1	0
28871395	5014	0	0	-100	0	230	101300000	1000	0	0	-1	0
28883955	5014	2	0	-100	0	230	101300000	1000	0	0	-1	0
28896515	5018	0	0	-100	0	230	101300000	1000	0	0	-1	0
28909075	5015	2	0	-100	0	230	101300000	1000	0	0	-1	0
28921635	5021	0	0	-100	0	230	101300000	1000	0	0	-1	0
28934195	5012	2	0	-100	0	230	101300000	1000	0	0	-1	0
28946755	5021	0	0	-100	0	230	101300000	1000	0	0	-1	0
28959315	5015	0	0	-100	0	230	101300000	1000	0	0	-1	0
28971875	5011	1	0	-100	0	230	101300000	1000	0	0	-1	0
28984435	5017	0	0	-100	0	230	101300000	1000	0	0	-1	0
28996995	5011	0	0	-100	0	230	101300000	1000	0	0	-1	0
29009555	5011	0	0	-100	0	230	101300000	1000	0	0	-1	0
29022115	5016	0	0	-100	0	230	101300000	1000	0	0	-1	0
29034675	5012	2	0	-100	0	230	101300000	1000	0	0	-1	0
29047235	5016	0	0	-100	0	230	101300000	1000	0	0	-1	0
29059795	5014	2	0	-100	0	230	101300000	1000	0	0	-1	0
29072355	5016	0	0	-100	0	230	101300000	1000	0	0	-1	0
29084915	5014	2	0	-100	0	230	101300000	1000	0	0	-1	0
29097475	5021	0	0	-100	0	230	101300000	1000	0	0	-1	0
29110035	5011	4	0	-100	0	230	101300000	1000	0	0	-1	0
29122595	5018	0	0	-100	0	230	101300000	1000	0	0	-1	0
29135155	5004	0	0	-100	0	230	101300000	1000	0	0	-1	0
29210515	5014	3	0	-100	0	230	101300000	1000	0	0	-1	0
29223075	5019	0	0	-100	0	230	101300000	1000	0	0	-1	0
29235635	5010	0	0	-100	0	230	101300000	1000	0	0	-1	0
29248195	5017	0	0	-100	0	230	101300000	1000	0	0	-1	0
29260755	5018	0	0	-100	0	230	101300000	1000	0	0	-1	0
29273315	5010	1	0	-100	0	230	101300000	1000	0	0	-1	0
29285875	5018	0	0	-100	0	230	101300000	1000	0	0	-1	0
29298435	5010	0	0	-100	0	230	101300000	1000	0	0	-1	0
29310995	5012	0	0	-100	0	230	101300000	1000	0	0	-1	0
29323555	5015	0	0	-100	0	230	101300000	1000	0	0	-1	0
29336115	5015	0	0	-100	0	230	101300000	1000	0	0	-1	0
29348675	5016	0	0	-100	0	230	101300000	1000	0	0	-1	0
29436595	5021	0	0	-100	0	230	101300000	1000	0	0	-1	0
29449155	5011	0	0	-100	0	230	101300000	1000	0	0	-1	0
29461715	5011	3	0	-100	0	230	101300000	1000	0	0	-1	0
29474275	5018	0	0	-100	0	230	101300000	1000	0	0	-1	0
29486835	5012	1	0	-100	0	230	101300000	1000	0	0	-1	0
29499395	5020	0	0	-100	0	230	101300000	1000	0	0	-1	0
29511955	5014	0	0	-100	0	230	101300000	1000	0	0	-1	0
29524515	5015	0	0	-100	0	230	101300000	1000	0	0	-1	0
29537075	5018	0	0	-100	0	230	101300000	1000	0	0	-1	0
29549635	5014	0	0	-100	0	230	101300000	1000	0	0	-1	0
29562195	5022	0	0	-100	0	230	101300000	1000	0	0	-1	0
29574755	5012	0	0	-100	0	230	101300000	1000	0	0	-1	0
29587315	5012	1	0	-100	0	230	101300000	1000	0	0	-1	0
29599875	5019	0	0	-100	0	230	101300000	1000	0	0	-1	0
29612435	5015	0	0	-100	0	230	101300000	1000	0	0	-1	0
29624995	5008	0	0	-100	0	230	101300000	1000	0	0	-1	0
29637555	5011	1	0	-100	0	230	101300000	1000	0	0	-1	0
29650115	5021	0	0	-100	0	230	101300000	1000	0	0	-1	0
29662675	5017	0	0	-100	0	230	101300000	1000	0	0	-1	0
29675235	5015	2	0	-100	0	230	101300000	1000	0	0	-1	0
29687795	5017	0	0	-100	0	230	101300000	1000	0	0	-1	0
29700355	5010	0	0	-100	0	230	101300000	1000	0	0	-1	0
29712915	5015	0	0	-100	0	230	101300000	1000	0	0	-1	0
29725475	5020	0	0	-100	0	230	101300000	1000	0	0	-1	0
29738035	5011	2	0	-100	0	230	101300000	1000	0	0	-1	0
29750595	5022	0	0	-100	0	230	101300000	1000	0	0	-1	0
29763155	5011	0	0	-100	0	230	101300000	1000	0	0	-1	0
29775715	5014	3	0	-100	0	230	101300000	1000	0	0	-1	0
29788275	5016	0	0	-100	0	230	101300000	1000	0	0	-1	0
29800835	5014	0	0	-100	0	230	101300000	1000	0	0	-1	0
29813395	5014	2	0	-100	0	230	101300000	1000	0	0	-1	0
29825955	5018	0	0	-100	0	230	101300000	1000	0	0	-1	0
29838515	5011	0	0	-100	0	230	101300000	1000	0	0	-1	0
29851075	5016	0	0	-100	0	230	101300000	1000	0	0	-1	0
29863635	5013	0	0	-100	0	230	101300000	1000	0	0	-1	0
29876195	5014	1	0	-100	0	230	101300000	1000	0	0	-1	0
29888755	5017	0	0	-100	0	230	101300000	1000	0	0	-1	0
29901315	5008	0	0	-100	0	230	101300000	1000	0	0	-1	0
29913875	5020	0	0	-100	0	230	101300000	1000	0	0	-1	0
29926435	5008	0	0	-100	0	230	101300000	1000	0	0	-1	0
29938995	5021	4	0	-100	0	230	101300000	1000	0	0	-1	0
29951555	5008	0	0	-100	0	230	101300000	1000	0	0	-1	0
29964115	5011	0	0	-100	0	230	101300000	1000	0	0	-1	0
29976675	5020	0	0	-100	0	230	101300000	1000	0	0	-1	0
29989235	5015	0	0	-100	0	230	101300000	1000	0	0	-1	0
30001795	5016	0	0	-100	0	230	101300000	1000	0	0	-1	0
30014355	5018	0	0	-100	0	230	101300000	1000	0	0	-1	0
30026915	5014	4	0	-100	0	230	101300000	1000	0	0	-1	0
30039475	5020	0	0	-100	0	230	101300000	1000	0	0	-1	0
30052035	5014	0	0	-100	0	230	101300000	1000	0	0	-1	0
30064595	5011	0	0	-100	0	230	101300000	1000	0	0	-1	0
30077155	5015	0	0	-100	0	230	101300000	1000	0	0	-1	0
30089715	5013	0	0	-100	0	230	101300000	1000	0	0	-1	0
30102275	5017	0	0	-100	0	230	101300000	1000	0	0	-1	0
30114835	5011	0	0	-100	0	230	101300000	1000	0	0	-1	0
30127395	5015	0	0	-100	0	230	101300000	1000	0	0	-1	0
30139955	5014	1	0	-100	0	230	101300000	1000	0	0	-1	0
30152515	5019	0	0	-100	0	230	101300000	1000	0	0	-1	0
30165075	5012	0	0	-100	0	230	101300000	1000	0	0	-1	0
30177635	5012	0	0	-100	0	230	101300000	1000	0	0	-1	0
30190195	5022	0	0	-100	0	230	101300000	1000	0	0	-1	0
30202755	5012	0	0	-100	0	230	101300000	1000	0	0	-1	0
30215315	5014	0	0	-100	0	230	101300000	1000	0	0	-1	0
30227875	5018	0	0	-100	0	230	101300000	1000	0	0	-1	0
30240435	5012	0	0	-100	0	230	101300000	1000	0	0	-1	0
30252995	5017	0	0	-100	0	230	101300000	1000	0	0	-1	0
30265555	5016	0	0	-100	0	230	101300000	1000	0	0	-1	0
30278115	5012	2	0	-100	0	230	101300000	1000	0	0	-1	0
30290675	5017	0	0	-100	0	230	101300000	1000	0	0	-1	0
30303235	5014	2	0	-100	0	230	101300000	1000	0	0	-1	0
30315795	5018	0	0	-100	0	230	101300000	1000	0	0	-1	0
30328355	5015	1	0	-100	0	230	101300000	1000	0	0	-1	0
30340915	5018	0	0	-100	0	230	101300000	1000	0	0	-1	0
30353475	5012	0	0	-100	0	230	101300000	1000	0	0	-1	0
30366035	5014	0	0	-100	0	230	101300000	1000	0	0	-1	0
30378595	5016	0	0	-100	0	230	101300000	1000	0	0	-1	0
30391155	5006	4	0	-100	0	230	101300000	1000	0	0	-1	0
30403715	5017	0	0	-100	0	230	101300000	1000	0	0	-1	0
30416275	5008	0	0	-100	0	230	101300000	1000	0	0	-1	0
30428835	5019	0	0	-100	0	230	101300000	1000	0	0	-1	0
30441395	5017	0	0	-100	0	230	101300000	1000	0	0	-1	0
30453955	5012	0	0	-100	0	230	101300000	1000	0	0	-1	0
30466515	5017	0	0	-100	0	230	101300000	1000	0	0	-1	0
30479075	5014	0	0	-100	0	230	101300000	1000	0	0	-1	0
30491635	5016	0	0	-100	0	230	101300000	1000	0	0	-1	0
30504195	5017	0	0	-100	0	230	101300000	1000	0	0	-1	0
30516755	5015	2	0	-100	0	230	101300000	1000	0	0	-1	0
30529315	5020	0	0	-100	0	230	101300000	1000	0	0	-1	0
30541875	5014	0	0	-100	0	230	101300000	1000	0	0	-1	0
30554435	5016	0	0	-100	0	230	101300000	1000	0	0	-1	0
30566995	5017	1	0	-100	0	230	101300000	1000	0	0	-1	0
30579555	5012	2	0	-100	0	230	101300000	1000	0	0	-1	0
30592115	5018	0	0	-100	0	230	101300000	1000	0	0	-1	0
30604675	5015	0	0	-100	0	230	101300000	1000	0	0	-1	0
30617235	5011	0	0	-100	0	230	101300000	1000	0	0	-1	0
30629795	5020	0	0	-100	0	230	101300000	1000	0	0	-1	0
30642355	5013	0	0	-100	0	230	101300000	1000	0	0	-1	0
30654915	5015	0	0	-100	0	230	101300000	1000	0	0	-1	0
30667475	5015	0	0	-100	0	230	101300000	1000	0	0	-1	0
30680035	5016	0	0	-100	0	230	101300000	1000	0	0	-1	0
30692595	5013	0	0	-100	0	230	101300000	1000	0	0	-1	0
30705155	5006	3	0	-100	0	230	101300000	1000	0	0	-1	0
30717715	5016	0	0	-100	0	230	101300000	1000	0	0	-1	0
30730275	5011	3	0	-100	0	230	101300000	1000	0	0	-1	0
30742835	5020	0	0	-100	0	230	101300000	1000	0	0	-1	0
30755395	5011	2	0	-100	0	230	101300000	1000	0	0	-1	0
30767955	5017	0	0	-100	0	230	101300000	1000	0	0	-1	0
30780515	5014	1	0	-100	0	230	101300000	1000	0	0	-1	0
30793075	5018	0	0	-100	0	230	101300000	1000	0	0	-1	0
30805635	5015	1	0	-100	0	230	101300000	1000	0	0	-1	0
30818195	5018	0	0	-100	0	230	101300000	1000	0	0	-1	0
30830755	5015	0	0	-100	0	230	101300000	1000	0	0	-1	0
30843315	5015	2	0	-100	0	230	101300000	1000	0	0	-1	0
30855875	5018	0	0	-100	0	230	101300000	1000	0	0	-1	0
30868435	5016	1	0	-100	0	230	101300000	1000	0	0	-1	0
30880995	5017	0	0	-100	0	230	101300000	1000	0	0	-1	0
30893555	5016	1	0	-100	0	230	101300000	1000	0	0	-1	0
30906115	5018	0	0	-100	0	230	101300000	1000	0	0	-1	0
30918675	5012	2	0	-100	0	230	101300000	1000	0	0	-1	0
30931235	5014	0	0	-100	0	230	101300000	1000	0	0	-1	0
30943795	5021	0	0	-100	0	230	101300000	1000	0	0	-1	0
30956355	5012	2	0	-100	0	230	101300000	1000	0	0	-1	0
30968915	5017	0	0	-100	0	230	101300000	1000	0	0	-1	0
30981475	5019	0	0	-100	0	230	101300000	1000	0	0	-1	0
30994035	5014	1	0	-100	0	230	101300000	1000	0	0	-1	0
31006595	5018	0	0	-100	0	230	101300000	1000	0	0	-1	0
31019155	5007	4	0	-100	0	230	101300000	1000	0	0	-1	0
31031715	5017	0	0	-100	0	230	101300000	1000	0	0	-1	0
31044275	5012	1	0	-100	0	230	101300000	1000	0	0	-1	0
31056835	5016	0	0	-100	0	230	101300000	1000	0	0	-1	0
31069395	5012	0	0	-100	0	230	101300000	1000	0	0	-1	0
31081955	5012	0	0	-100	0	230	101300000	1000	0	0	-1	0
31094515	5021	0	0	-100	0	230	101300000	1000	0	0	-1	0
31107075	5011	0	0	-100	0	230	101300000	1000	0	0	-1	0
31119635	5017	0	0	-100	0	230	101300000	1000	0	0	-1	0
31132195	5011	0	0	-100	0	230	101300000	1000	0	0	-1	0
31144755	5015	0	0	-100	0	230	101300000	1000	0	0	-1	0
31157315	5015	0	0	-100	0	230	101300000	1000	0	0	-1	0
31169875	5017	0	0	-100	0	230	101300000	1000	0	0	-1	0
31182435	5011	0	0	-100	0	230	101300000	1000	0	0	-1	0
31194995	5017	0	0	-100	0	230	101300000	1000	0	0	-1	0
31207555	5014	0	0	-100	0	230	101300000	1000	0	0	-1	0
31220115	5012	0	0	-100	0	230	101300000	1000	0	0	-1	0
31232675	5021	0	0	-100	0	230	101300000	1000	0	0	-1	0
31245235	5011	3	0	-100	0	230	101300000	1000	0	0	-1	0
31257795	5022	0	0	-100	0	230	101300000	1000	0	0	-1	0
31270355	5014	4	0	-100	0	230	101300000	1000	0	0	-1	0
31282915	5014	0	0	-100	0	230	101300000	1000	0	0	-1	0
31295475	5013	0	0	-100	0	230	101300000	1000	0	0	-1	0
31308035	5022	0	0	-100	0	230	101300000	1000	0	0	-1	0
31320595	5012	0	0	-100	0	230	101300000	1000	0	0	-1	0
31333155	5012	0	0	-100	0	230	101300000	1000	0	0	-1	0
31345715	5014	0	0	-100	0	230	101300000	1000	0	0	-1	0
31358275	5011	0	0	-100	0	230	101300000	1000	0	0	-1	0
31370835	5018	0	0	-100	0	230	101300000	1000	0	0	-1	0
31383395	5015	1	0	-100	0	230	101300000	1000	0	0	-1	0
31395955	5017	0	0	-100	0	230	101300000	1000	0	0	-1	0
31408515	5014	3	0	-100	0	230	101300000	1000	0	0	-1	0
31421075	5016	0	0	-100	0	230	101300000	1000	0	0	-1	0
31433635	5015	3	0	-100	0	230	101300000	1000	0	0	-1	0
31446195	5018	0	0	-100	0	230	101300000	1000	0	0	-1	0
31458755	5012	4	0	-100	0	230	101300000	1000	0	0	-1	0
31471315	5021	0	0	-100	0	230	101300000	1000	0	0	-1	0
31483875	5011	0	0	-100	0	230	101300000	1000	0	0	-1	0
31496435	5016	0	0	-100	0	230	101300000	1000	0	0	-1	0
31508995	5014	0	0	-100	0	230	101300000	1000	0	0	-1	0
31521555	5017	0	0	-100	0	230	101300000	1000	0	0	-1	0
31534115	5011	0	0	-100	0	230	101300000	1000	0	0	-1	0
31546675	5014	0	0	-100	0	230	101300000	1000	0	0	-1	0
31559235	5016	2	0	-100	0	230	101300000	1000	0	0	-1	0
31571795	5016	0	0	-100	0	230	101300000	1000	0	0	-1	0
31584355	5016	2	0	-100	0	230	101300000	1000	0	0	-1	0
31596915	5017	0	0	-100	0	230	101300000	1000	0	0	-1	0
31609475	5015	0	0	-100	0	230	101300000	1000	0	0	-1	0
31622035	5020	0	0	-100	0	230	101300000	1000	0	0	-1	0
31634595	5011	3	0	-100	0	230	101300000	1000	0	0	-1	0
31647155	5014	0	0	-100	0	230	101300000	1000	0	0	-1	0
31659715	5014	0	0	-100	0	230	101300000	1000	0	0	-1	0
31672275	5019	0	0	-100	0	230	101300000	1000	0	0	-1	0
31684835	5012	0	0	-100	0	230	101300000	1000	0	0	-1	0
31697395	5014	0	0	-100	0	230	101300000	1000	0	0	-1	0
31709955	5012	0	0	-100	0	230	101300000	1000	0	0	-1	0
31722515	5021	0	0	-100	0	230	101300000	1000	0	0	-1	0
31735075	5008	0	0	-100	0	230	101300000	1000	0	0	-1	0
31747635	5025	0	0	-100	0	230	101300000	1000	0	0	-1	0
31760195	5014	0	0	-100	0	230	101300000	1000	0	0	-1	0
31772755	5017	0	0	-100	0	230	101300000	1000	0	0	-1	0
31785315	5015	0	0	-100	0	230	101300000	1000	0	0	-1	0
31797875	5016	0	0	-100	0	230	101300000	1000	0	0	-1	0
31810435	5012	4	0	-100	0	230	101300000	1000	0	0	-1	0
31822995	5018	3	0	-100	0	230	101300000	1000	0	0	-1	0
31835555	5011	0	0	-100	0	230	101300000	1000	0	0	-1	0
31848115	5014	0	0	-100	0	230	101300000	1000	0	0	-1	0
31860675	5018	0	0	-100	0	230	101300000	1000	0	0	-1	0
31873235	5012	4	0	-100	0	230	101300000	1000	0	0	-1	0
31885795	5020	0	0	-100	0	230	101300000	1000	0	0	-1	0
31898355	5014	0	0	-100	0	230	101300000	1000	0	0	-1	0
31910915	5014	2	0	-100	0	230	101300000	1000	0	0	-1	0
31923475	5021	0	0	-100	0	230	101300000	1000	0	0	-1	0
31936035	5015	0	0	-100	0	230	101300000	1000	0	0	-1	0
31948595	5011	2	0	-100	0	230	101300000	1000	0	0	-1	0
31961155	5012	0	0	-100	0	230	101300000	1000	0	0	-1	0
31973715	5011	0	0	-100	0	230	101300000	1000	0	0	-1	0
31986275	5016	0	0	-100	0	230	101300000	1000	0	0	-1	0
31998835	5014	0	0	-100	0	230	101300000	1000	0	0	-1	0
32011395	5012	0	0	-100	0	230	101300000	1000	0	0	-1	0
32023955	5016	0	0	-100	0	230	101300000	1000	0	0	-1	0
32036515	5012	0	0	-100	0	230	101300000	1000	0	0	-1	0
32049075	5017	0	0	-100	0	230	101300000	1000	0	0	-1	0
32061635	5016	0	0	-100	0	230	101300000	1000	0	0	-1	0
32074195	5014	0	0	-100	0	230	101300000	1000	0	0	-1	0
32086755	5012	0	0	-100	0	230	101300000	1000	0	0	-1	0
32099315	5021	0	0	-100	0	230	101300000	1000	0	0	-1	0
32111875	5017	0	0	-100	0	230	101300000	1000	0	0	-1	0
32149555	5017	0	0	-100	0	230	101300000	1000	0	0	-1	0
32162115	5011	0	0	-100	0	230	101300000	1000	0	0	-1	0
32174675	5014	0	0	-100	0	230	101300000	1000	0	0	-1	0
32187235	5014	0	0	-100	0	230	101300000	1000	0	0	-1	0
32199795	5018	0	0	-100	0	230	101300000	1000	0	0	-1	0
32212355	5015	0	0	-100	0	230	101300000	1000	0	0	-1	0
32224915	5012	2	0	-100	0	230	101300000	1000	0	0	-1	0
32237475	5021	0	0	-100	0	230	101300000	1000	0	0	-1	0
32250035	5012	0	0	-100	0	230	101300000	1000	0	0	-1	0
32262595	5015	2	0	-100	0	230	101300000	1000	0	0	-1	0
32275155	5010	1	0	-100	0	230	101300000	1000	0	0	-1	0
32363075	5010	0	0	-100	0	230	101300000	1000	0	0	-1	0
32375635	5011	1	0	-100	0	230	101300000	1000	0	0	-1	0
32388195	5017	0	0	-100	0	230	101300000	1000	0	0	-1	0
32400755	5010	0	0	-100	0	230	101300000	1000	0	0	-1	0
32413315	5015	0	0	-100	0	230	101300000	1000	0	0	-1	0
32425875	5018	0	0	-100	0	230	101300000	1000	0	0	-1	0
32438435	5012	0	0	-100	0	230	101300000	1000	0	0	-1	0
32450995	5016	0	0	-100	0	230	101300000	1000	0	0	-1	0
32463555	5015	0	0	-100	0	230	101300000	1000	0	0	-1	0
32476115	5009	0	0	-100	0	230	101300000	1000	0	0	-1	0
32488675	5018	0	0	-100	0	230	101300000	1000	0	0	-1	0
32501235	5014	1	0	-100	0	230	101300000	1000	0	0	-1	0
32526355	5014	0	0	-100	0	230	101300000	1000	0	0	-1	0
32538915	5010	1	0	-100	0	230	101300000	1000	0	0	-1	0
32551475	5016	0	0	-100	0	230	101300000	1000	0	0	-1	0
32564035	5014	0	0	-100	0	230	101300000	1000	0	0	-1	0
32576595	5016	0	0	-100	0	230	101300000	1000	0	0	-1	0
32589155	5011	0	0	-100	0	230	101300000	1000	0	0	-1	0
32601715	5010	3	0	-100	0	230	101300000	1000	0	0	-1	0
32614275	5019	0	0	-100	0	230	101300000	1000	0	0	-1	0
32626835	5012	2	0	-100	0	230	101300000	1000	0	0	-1	0
32639395	5016	0	0	-100	0	230	101300000	1000	0	0	-1	0
32651955	5011	0	0	-100	0	230	101300000	1000	0	0	-1	0
32664515	5014	0	0	-100	0	230	101300000	1000	0	0	-1	0
32677075	5015	0	0	-100	0	230	101300000	1000	0	0	-1	0
32689635	5011	2	0	-100	0	230	101300000	1000	0	0	-1	0
32702195	5017	0	0	-100	0	230	101300000	1000	0	0	-1	0
32714755	5012	0	0	-100	0	230	101300000	1000	0	0	-1	0
32727315	5016	0	0	-100	0	230	101300000	1000	0	0	-1	0
32739875	5010	0	0	-100	0	230	101300000	1000	0	0	-1	0
32752435	5016	0	0	-100	0	230	101300000	1000	0	0	-1	0
32764995	5010	0	0	-100	0	230	101300000	1000	0	0	-1	0
32777555	5016	0	0	-100	0	230	101300000	1000	0	0	-1	0
32790115	5015	3	0	-100	0	230	101300000	1000	0	0	-1	0
32802675	5016	0	0	-100	0	230	101300000	1000	0	0	-1	0
32815235	5010	0	0	-100	0	230	101300000	1000	0	0	-1	0
32827795	5016	0	0	-100	0	230	101300000	1000	0	0	-1	0
32840355	5018	0	0	-100	0	230	101300000	1000	0	0	-1	0
32852915	5015	4	0	-100	0	230	101300000	1000	0	0	-1	0
32865475	5018	0	0	-100	0	230	101300000	1000	0	0	-1	0
32878035	5012	1	0	-100	0	230	101300000	1000	0	0	-1	0
32890595	5021	0	0	-100	0	230	101300000	1000	0	0	-1	0
32903155	5002	0	0	-100	0	230	101300000	1000	0	0	-1	0
32915715	5015	0	0	-100	0	230	101300000	1000	0	0	-1	0
32928275	5018	0	0	-100	0	230	101300000	1000	0	0	-1	0
32940835	5014	2	0	-100	0	230	101300000	1000	0	0	-1	0
32953395	5021	0	0	-100	0	230	101300000	1000	0	0	-1	0
32965955	5011	0	0	-100	0	230	101300000	1000	0	0	-1	0
32978515	5012	0	0	-100	0	230	101300000	1000	0	0	-1	0
32991075	5019	0	0	-100	0	230	101300000	1000	0	0	-1	0
33003635	5012	0	0	-100	0	230	101300000	1000	0	0	-1	0
33016195	5011	0	0	-100	0	230	101300000	1000	0	0	-1	0
33028755	5018	0	0	-100	0	230	101300000	1000	0	0	-1	0
33041315	5012	0	0	-100	0	230	101300000	1000	0	0	-1	0
33053875	5012	0	0	-100	0	230	101300000	1000	0	0	-1	0
33066435	5017	0	0	-100	0	230	101300000	1000	0	0	-1	0
33078995	5015	0	0	-100	0	230	101300000	1000	0	0	-1	0
33091555	5019	0	0	-100	0	230	101300000	1000	0	0	-1	0
33104115	5012	0	0	-100	0	230	101300000	1000	0	0	-1	0
33116675	5014	1	0	-100	0	230	101300000	1000	0	0	-1	0
33129235	5018	0	0	-100	0	230	101300000	1000	0	0	-1	0
33141795	5008	0	0	-100	0	230	101300000	1000	0	0	-1	0
33154355	5015	0	0	-100	0	230	101300000	1000	0	0	-1	0
33166915	5017	0	0	-100	0	230	101300000	1000	0	0	-1	0
33179475	5011	2	0	-100	0	230	101300000	1000	0	0	-1	0
33192035	5016	0	0	-100	0	230	101300000	1000	0	0	-1	0
33204595	5010	0	0	-100	0	230	101300000	1000	0	0	-1	0
33217155	5007	1	0	-100	0	230	101300000	1000	0	0	-1	0
33229715	5018	0	0	-100	0	230	101300000	1000	0	0	-1	0
33242275	5013	1	0	-100	0	230	101300000	1000	0	0	-1	0
33254835	5020	0	0	-100	0	230	101300000	1000	0	0	-1	0
33267395	5015	0	0	-100	0	230	101300000	1000	0	0	-1	0
33279955	5012	0	0	-100	0	230	101300000	1000	0	0	-1	0
33292515	5017	0	0	-100	0	230	101300000	1000	0	0	-1	0
33305075	5011	3	0	-100	0	230	101300000	1000	0	0	-1	0
33317635	5018	0	0	-100	0	230	101300000	1000	0	0	-1	0
33330195	5011	0	0	-100	0	230	101300000	1000	0	0	-1	0
33342755	5011	0	0	-100	0	230	101300000	1000	0	0	-1	0
33355315	5015	0	0	-100	0	230	101300000	1000	0	0	-1	0
33367875	5015	3	0	-100	0	230	101300000	1000	0	0	-1	0
33380435	5021	0	0	-100	0	230	101300000	1000	0	0	-1	0
33392995	5010	0	0	-100	0	230	101300000	1000	0	0	-1	0
33405555	5015	0	0	-100	0	230	101300000	1000	0	0	-1	0
33418115	5017	0	0	-100	0	230	101300000	1000	0	0	-1	0
33430675	5012	1	0	-100	0	230	101300000	1000	0	0	-1	0
33443235	5020	0	0	-100	0	230	101300000	1000	0	0	-1	0
33455795	5010	0	0	-100	0	230	101300000	1000	0	0	-1	0
33468355	5011	0	0	-100	0	230	101300000	1000	0	0	-1	0
33480915	5019	0	0	-100	0	230	101300000	1000	0	0	-1	0
33493475	5018	0	0	-100	0	230	101300000	1000	0	0	-1	0
33506035	5010	0	0	-100	0	230	101300000	1000	0	0	-1	0
33518595	5014	0	0	-100	0	230	101300000	1000	0	0	-1	0
33531155	5013	0	0	-100	0	230	101300000	1000	0	0	-1	0
33543715	5014	0	0	-100	0	230	101300000	1000	0	0	-1	0
33556275	5022	0	0	-100	0	230	101300000	1000	0	0	-1	0
33568835	5014	0	0	-100	0	230	101300000	1000	0	0	-1	0
33581395	5016	0	0	-100	0	230	101300000	1000	0	0	-1	0
33593955	5014	0	0	-100	0	230	101300000	1000	0	0	-1	0
33606515	5014	0	0	-100	0	230	101300000	1000	0	0	-1	0
33619075	5015	0	0	-100	0	230	101300000	1000	0	0	-1	0
33631635	5012	0	0	-100	0	230	101300000	1000	0	0	-1	0
33644195	5016	0	0	-100	0	230	101300000	1000	0	0	-1	0
33656755	5014	1	0	-100	0	230	101300000	1000	0	0	-1	0
33669315	5020	0	0	-100	0	230	101300000	1000	0	0	-1	0
33681875	5017	0	0	-100	0	230	101300000	1000	0	0	-1	0
33694435	5011	2	0	-100	0	230	101300000	1000	0	0	-1	0
33706995	5018	0	0	-100	0	230	101300000	1000	0	0	-1	0
33719555	5018	0	0	-100	0	230	101300000	1000	0	0	-1	0
33732115	5015	0	0	-100	0	230	101300000	1000	0	0	-1	0
33744675	5011	0	0	-100	0	230	101300000	1000	0	0	-1	0
33757235	5020	0	0	-100	0	230	101300000	1000	0	0	-1	0
33769795	5014	0	0	-100	0	230	101300000	1000	0	0	-1	0
33782355	5014	1	0	-100	0	230	101300000	1000	0	0	-1	0
33794915	5016	0	0	-100	0	230	101300000	1000	0	0	-1	0
33807475	5015	0	0	-100	0	230	101300000	1000	0	0	-1	0
33820035	5014	0	0	-100	0	230	101300000	1000	0	0	-1	0
33832595	5011	2	0	-100	0	230	101300000	1000	0	0	-1	0
33845155	5017	0	0	-100	0	230	101300000	1000	0	0	-1	0
33857715	5017	0	0	-100	0	230	101300000	1000	0	0	-1	0
33870275	5010	0	0	-100	0	230	101300000	1000	0	0	-1	0
33882835	5012	1	0	-100	0	230	101300000	1000	0	0	-1	0
33895395	5021	0	0	-100	0	230	101300000	1000	0	0	-1	0
33907955	5017	0	0	-100	0	230	101300000	1000	0	0	-1	0
33920515	5015	1	0	-100	0	230	101300000	1000	0	0	-1	0
33933075	5018	0	0	-100	0	230	101300000	1000	0	0	-1	0
33945635	5016	0	0	-100	0	230	101300000	1000	0	0	-1	0
33958195	5010	2	0	-100	0	230	101300000	1000	0	0	-1	0
33970755	5022	0	0	-100	0	230	101300000	1000	0	0	-1	0
33983315	5017	0	0	-100	0	230	101300000	1000	0	0	-1	0
33995875	5017	0	0	-100	0	230	101300000	1000	0	0	-1	0
34008435	5016	0	0	-100	0	230	101300000	1000	0	0	-1	0
34020995	5012	0	0	-100	0	230	101300000	1000	0	0	-1	0
34033555	5020	0	0	-100	0	230	101300000	1000	0	0	-1	0
34046115	5018	0	0	-100	0	230	101300000	1000	0	0	-1	0
34058675	5012	0	0	-100	0	230	101300000	1000	0	0	-1	0
34071235	5011	0	0	-100	0	230	101300000	1000	0	0	-1	0
34083795	5021	0	0	-100	0	230	101300000	1000	0	0	-1	0
34096355	5010	0	0	-100	0	230	101300000	1000	0	0	-1	0
34108915	5014	1	0	-100	0	230	101300000	1000	0	0	-1	0
34121475	5016	0	0	-100	0	230	101300000	1000	0	0	-1	0
34134035	5022	0	0	-100	0	230	101300000	1000	0	0	-1	0
34146595	5012	0	0	-100	0	230	101300000	1000	0	0	-1	0
34159155	5006	4	0	-100	0	230	101300000	1000	0	0	-1	0
34171715	5014	0	0	-100	0	230	101300000	1000	0	0	-1	0
34184275	5016	0	0	-100	0	230	101300000	1000	0	0	-1	0
34196835	5015	0	0	-100	0	230	101300000	1000	0	0	-1	0
34209395	5014	0	0	-100	0	230	101300000	1000	0	0	-1	0
34221955	5011	0	0	-100	0	230	101300000	1000	0	0	-1	0
34234515	5017	0	0	-100	0	230	101300000	1000	0	0	-1	0
34247075	5010	0	0	-100	0	230	101300000	1000	0	0	-1	0
34259635	5012	3	0	-100	0	230	101300000	1000	0	0	-1	0
34272195	5011	0	0	-100	0	230	101300000	1000	0	0	-1	0
34284755	5021	0	0	-100	0	230	101300000	1000	0	0	-1	0
34297315	5017	0	0	-100	0	230	101300000	1000	0	0	-1	0
34309875	5014	0	0	-100	0	230	101300000	1000	0	0	-1	0
34322435	5011	3	0	-100	0	230	101300000	1000	0	0	-1	0
34334995	5012	0	0	-100	0	230	101300000	1000	0	0	-1	0
34347555	5018	0	0	-100	0	230	101300000	1000	0	0	-1	0
34360115	5014	0	0	-100	0	230	101300000	1000	0	0	-1	0
34372675	5014	1	0	-100	0	230	101300000	1000	0	0	-1	0
34385235	5017	0	0	-100	0	230	101300000	1000	0	0	-1	0
34397795	5008	0	0	-100	0	230	101300000	1000	0	0	-1	0
34410355	5014	2	0	-100	0	230	101300000	1000	0	0	-1	0
34422915	5014	0	0	-100	0	230	101300000	1000	0	0	-1	0
34435475	5020	0	0	-100	0	230	101300000	1000	0	0	-1	0
34448035	5018	0	0	-100	0	230	101300000	1000	0	0	-1	0
34460595	5011	0	0	-100	0	230	101300000	1000	0	0	-1	0
34473155	5005	4	0	-100	0	230	101300000	1000	0	0	-1	0
34485715	5018	0	0	-100	0	230	101300000	1000	0	0	-1	0
34498275	5020	0	0	-100	0	230	101300000	1000	0	0	-1	0
34510835	5012	4	0	-100	0	230	101300000	1000	0	0	-1	0
34523395	5015	0	0	-100	0	230	101300000	1000	0	0	-1	0
34535955	5017	0	0	-100	0	230	101300000	1000	0	0	-1	0
34548515	5014	0	0	-100	0	230	101300000	1000	0	0	-1	0
34561075	5012	0	0	-100	0	230	101300000	1000	0	0	-1	0
34573635	5018	0	0	-100	0	230	101300000	1000	0	0	-1	0
34586195	5012	0	0	-100	0	230	101300000	1000	0	0	-1	0
34598755	5014	0	0	-100	0	230	101300000	1000	0	0	-1	0
34611315	5011	0	0	-100	0	230	101300000	1000	0	0	-1	0
34623875	5019	0	0	-100	0	230	101300000	1000	0	0	-1	0
34636435	5011	0	0	-100	0	230	101300000	1000	0	0	-1	0
34648995	5014	0	0	-100	0	230	101300000	1000	0	0	-1	0
34661555	5017	0	0	-100	0	230	101300000	1000	0	0	-1	0
34674115	5014	0	0	-100	0	230	101300000	1000	0	0	-1	0
34686675	5012	2	0	-100	0	230	101300000	1000	0	0	-1	0
34699235	5015	0	0	-100	0	230	101300000	1000	0	0	-1	0
34711795	5018	0	0	-100	0	230	101300000	1000	0	0	-1	0
34724355	5013	0	0	-100	0	230	101300000	1000	0	0	-1	0
34736915	5017	0	0	-100	0	230	101300000	1000	0	0	-1	0
34749475	5010	0	0	-100	0	230	101300000	1000	0	0	-1	0
34762035	5018	0	0	-100	0	230	101300000	1000	0	0	-1	0
34774595	5012	0	0	-100	0	230	101300000	1000	0	0	-1	0
34787155	5006	4	0	-100	0	230	101300000	1000	0	0	-1	0
34799715	5017	0	0	-100	0	230	101300000	1000	0	0	-1	0
34812275	5015	0	0	-100	0	230	101300000	1000	0	0	-1	0
34824835	5012	0	0	-100	0	230	101300000	1000	0	0	-1	0
34837395	5014	0	0	-100	0	230	101300000	1000	0	0	-1	0
34849955	5016	0	0	-100	0	230	101300000	1000	0	0	-1	0
34862515	5010	0	0	-100	0	230	101300000	1000	0	0	-1	0
34875075	5011	1	0	-100	0	230	101300000	1000	0	0	-1	0
34887635	5016	0	0	-100	0	230	101300000	1000	0	0	-1	0
34900195	5012	0	0	-100	0	230	101300000	1000	0	0	-1	0
34912755	5011	0	0	-100	0	230	101300000	1000	0	0	-1	0
34925315	5020	0	0	-100	0	230	101300000	1000	0	0	-1	0
34937875	5012	0	0	-100	0	230	101300000	1000	0	0	-1	0
34950435	5016	0	0	-100	0	230	101300000	1000	0	0	-1	0
34962995	5017	1	0	-100	0	230	101300000	1000	0	0	-1	0
34975555	5009	0	0	-100	0	230	101300000	1000	0	0	-1	0
34988115	5017	0	0	-100	0	230	101300000	1000	0	0	-1	0
35000675	5015	0	0	-100	0	230	101300000	1000	0	0	-1	0
35013235	5014	1	0	-100	0	230	101300000	1000	0	0	-1	0
35025795	5022	0	0	-100	0	230	101300000	1000	0	0	-1	0
35038355	5015	0	0	-100	0	230	101300000	1000	0	0	-1	0
35050915	5011	2	0	-100	0	230	101300000	1000	0	0	-1	0
35088595	5012	0	0	-100	0	230	101300000	1000	0	0	-1	0
35101155	5008	4	0	-100	0	230	101300000	1000	0	0	-1	0
35113715	5021	0	0	-100	0	230	101300000	1000	0	0	-1	0
35126275	5017	0	0	-100	0	230	101300000	1000	0	0	-1	0
35138835	5018	0	0	-100	0	230	101300000	1000	0	0	-1	0
35151395	5015	4	0	-100	0	230	101300000	1000	0	0	-1	0
35163955	5016	2	0	-100	0	230	101300000	1000	0	0	-1	0
35176515	5014	0	0	-100	0	230	101300000	1000	0	0	-1	0
35189075	5012	0	0	-100	0	230	101300000	1000	0	0	-1	0
35201635	5016	0	0	-100	0	230	101300000	1000	0	0	-1	0
35214195	5017	0	0	-100	0	230	101300000	1000	0	0	-1	0
35226755	5011	0	0	-100	0	230	101300000	1000	0	0	-1	0
35314675	5014	0	0	-100	0	230	101300000	1000	0	0	-1	0
35327235	5019	0	0	-100	0	230	101300000	1000	0	0	-1	0
35339795	5018	0	0	-100	0	230	101300000	1000	0	0	-1	0
35352355	5012	0	0	-100	0	230	101300000	1000	0	0	-1	0
35364915	5011	4	0	-100	0	230	101300000	1000	0	0	-1	0
35377475	5012	0	0	-100	0	230	101300000	1000	0	0	-1	0
35390035	5016	0	0	-100	0	230	101300000	1000	0	0	-1	0
35402595	5022	0	0	-100	0	230	101300000	1000	0	0	-1	0
35415155	5009	0	0	-100	0	230	101300000	1000	0	0	-1	0
35427715	5012	0	0	-100	0	230	101300000	1000	0	0	-1	0
35440275	5015	1	0	-100	0	230	101300000	1000	0	0	-1	0
35452835	5023	0	0	-100	0	230	101300000	1000	0	0	-1	0
35490515	5020	0	0	-100	0	230	101300000	1000	0	0	-1	0
35503075	5018	0	0	-100	0	230	101300000	1000	0	0	-1	0
35515635	5015	2	0	-100	0	230	101300000	1000	0	0	-1	0
35528195	5014	0	0	-100	0	230	101300000	1000	0	0	-1	0
35540755	5012	0	0	-100	0	230	101300000	1000	0	0	-1	0
35553315	5021	0	0	-100	0	230	101300000	1000	0	0	-1	0
35565875	5011	0	0	-100	0	230	101300000	1000	0	0	-1	0
35578435	5011	0	0	-100	0	230	101300000	1000	0	0	-1	0
35590995	5016	0	0	-100	0	230	101300000	1000	0	0	-1	0
35603555	5011	2	0	-100	0	230	101300000	1000	0	0	-1	0
35616115	5021	0	0	-100	0	230	101300000	1000	0	0	-1	0
35628675	5012	0	0	-100	0	230	101300000	1000	0	0	-1	0
35641235	5014	1	0	-100	0	230	101300000	1000	0	0	-1	0
35653795	5016	0	0	-100	0	230	101300000	1000	0	0	-1	0
35666355	5012	2	0	-100	0	230	101300000	1000	0	0	-1	0
35678915	5018	0	0	-100	0	230	101300000	1000	0	0	-1	0
35691475	5012	0	0	-100	0	230	101300000	1000	0	0	-1	0
35704035	5022	0	0	-100	0	230	101300000	1000	0	0	-1	0
35716595	5012	0	0	-100	0	230	101300000	1000	0	0	-1	0
35729155	5007	0	0	-100	0	230	101300000	1000	0	0	-1	0
35741715	5014	0	0	-100	0	230	101300000	1000	0	0	-1	0
35754275	5017	0	0	-100	0	230	101300000	1000	0	0	-1	0
35766835	5008	0	0	-100	0	230	101300000	1000	0	0	-1	0
35779395	5021	0	0	-100	0	230	101300000	1000	0	0	-1	0
35791955	5010	0	0	-100	0	230	101300000	1000	0	0	-1	0
35804515	5016	0	0	-100	0	230	101300000	1000	0	0	-1	0
35817075	5014	0	0	-100	0	230	101300000	1000	0	0	-1	0
35829635	5018	0	0	-100	0	230	101300000	1000	0	0	-1	0
35842195	5013	0	0	-100	0	230	101300000	1000	0	0	-1	0
35854755	5016	0	0	-100	0	230	101300000	1000	0	0	-1	0
35867315	5011	3	0	-100	0	230	101300000	1000	0	0	-1	0
35879875	5017	0	0	-100	0	230	101300000	1000	0	0	-1	0
35892435	5014	4	0	-100	0	230	101300000	1000	0	0	-1	0
35904995	5018	3	0	-100	0	230	101300000	1000	0	0	-1	0
35917555	5014	2	0	-100	0	230	101300000	1000	0	0	-1	0
35930115	5016	0	0	-100	0	230	101300000	1000	0	0	-1	0
35942675	5016	0	0	-100	0	230	101300000	1000	0	0	-1	0
35955235	5018	0	0	-100	0	230	101300000	1000	0	0	-1	0
35967795	5011	0	0	-100	0	230	101300000	1000	0	0	-1	0
35980355	5014	0	0	-100	0	230	101300000	1000	0	0	-1	0
35992915	5014	0	0	-100	0	230	101300000	1000	0	0	-1	0
36005475	5014	0	0	-100	0	230	101300000	1000	0	0	-1	0
36018035	5019	0	0	-100	0	230	101300000	1000	0	0	-1	0
36030595	5012	3	0	-100	0	230	101300000	1000	0	0	-1	0
36043155	5015	0	0	-100	0	230	101300000	1000	0	0	-1	0
36055715	5015	0	0	-100	0	230	101300000	1000	0	0	-1	0
36068275	5011	2	0	-100	0	230	101300000	1000	0	0	-1	0
36080835	5018	0	0	-100	0	230	101300000	1000	0	0	-1	0
36093395	5011	0	0	-100	0	230	101300000	1000	0	0	-1	0
36105955	5010	0	0	-100	0	230	101300000	1000	0	0	-1	0
36118515	5019	0	0	-100	0	230	101300000	1000	0	0	-1	0
36131075	5014	0	0	-100	0	230	101300000	1000	0	0	-1	0
36143635	5015	0	0	-100	0	230	101300000	1000	0	0	-1	0
36156195	5018	0	0	-100	0	230	101300000	1000	0	0	-1	0
36168755	5015	1	0	-100	0	230	101300000	1000	0	0	-1	0
36181315	5022	0	0	-100	0	230	101300000	1000	0	0	-1	0
36193875	5011	0	0	-100	0	230	101300000	1000	0	0	-1	0
36206435	5015	0	0	-100	0	230	101300000	1000	0	0	-1	0
36218995	5016	0	0	-100	0	230	101300000	1000	0	0	-1	0
36231555	5016	0	0	-100	0	230	101300000	1000	0	0	-1	0
36244115	5014	0	0	-100	0	230	101300000	1000	0	0	-1	0
36256675	5017	0	0	-100	0	230	101300000	1000	0	0	-1	0
36269235	5014	0	0	-100	0	230	101300000	1000	0	0	-1	0
36281795	5015	0	0	-100	0	230	101300000	1000	0	0	-1	0
36294355	5018	0	0	-100	0	230	101300000	1000	0	0	-1	0
