timestamp	voltage	current	windSpeed	pitchAngle	rpm	temperature	ambientPressure	humidity	accelerationX	accelerationY	accelerationZ	currentSink
7039070	5012	3	0	-100	0	230	101300000	1000	0	0	-1	0
7046523	5018	0	0	-100	0	230	101300000	1000	0	0	-1	0
7059083	5017	1	0	-100	0	230	101300000	1000	0	0	-1	0
7071643	5019	0	0	-100	0	230	101300000	1000	0	0	-1	0
7084203	5016	0	0	-100	0	230	101300000	1000	0	0	-1	0
7096763	5009	0	0	-100	0	230	101300000	1000	0	0	-1	0
7109323	5021	0	0	-100	0	230	101300000	1000	0	0	-1	0
7121883	5015	2	0	-100	0	230	101300000	1000	0	0	-1	0
7134443	5017	0	0	-100	0	230	101300000	1000	0	0	-1	0
7147004	5016	4	0	-100	0	230	101300000	1000	0	0	-1	0
7159563	5014	2	0	-100	0	230	101300000	1000	0	0	-1	0
7172123	5014	0	0	-100	0	230	101300000	1000	0	0	-1	0
7184683	5017	0	0	-100	0	230	101300000	1000	0	0	-1	0
7197243	5019	0	0	-100	0	230	101300000	1000	0	0	-1	0
7209803	5012	3	0	-100	0	230	101300000	1000	0	0	-1	0
7222363	5013	0	0	-100	0	230	101300000	1000	0	0	-1	0
7234923	5018	0	0	-100	0	230	101300000	1000	0	0	-1	0
7247483	5017	0	0	-100	0	230	101300000	1000	0	0	-1	0
7260043	5012	3	0	-100	0	230	101300000	1000	0	0	-1	0
7272603	5014	0	0	-100	0	230	101300000	1000	0	0	-1	0
7285163	5018	0	0	-100	0	230	101300000	1000	0	0	-1	0
7297723	5017	0	0	-100	0	230	101300000	1000	0	0	-1	0
7310283	5017	0	0	-100	0	230	101300000	1000	0	0	-1	0
7322843	5012	3	0	-100	0	230	101300000	1000	0	0	-1	0
7335403	5011	0	0	-100	0	230	101300000	1000	0	0	-1	0
7347963	5012	0	0	-100	0	230	101300000	1000	0	0	-1	0
7681115	5143	145	0	-100	0	230	101300000	1000	0	0	-1	100
7693675	5140	143	0	-100	0	230	101300000	1000	0	0	-1	100
7706235	5139	152	0	-100	0	230	101300000	1000	0	0	-1	100
7718795	5141	144	0	-100	0	230	101300000	1000	0	0	-1	100
7731355	5145	144	0	-100	0	230	101300000	1000	0	0	-1	100
7743915	5136	150	0	-100	0	230	101300000	1000	0	0	-1	100
7756475	5131	147	0	-100	0	230	101300000	1000	0	0	-1	100
7769035	5142	143	0	-100	0	230	101300000	1000	0	0	-1	100
7781595	5140	147	0	-100	0	230	101300000	1000	0	0	-1	100
7794155	5142	150	0	-100	0	230	101300000	1000	0	0	-1	100
7806715	5136	143	0	-100	0	230	101300000	1000	0	0	-1	100
7819275	5142	144	0	-100	0	230	101300000	1000	0	0	-1	100
7831835	5140	150	0	-100	0	230	101300000	1000	0	0	-1	100
7844395	5138	145	0	-100	0	230	101300000	1000	0	0	-1	100
7856955	5143	146	0	-100	0	230	101300000	1000	0	0	-1	100
7869515	5138	149	0	-100	0	230	101300000	1000	0	0	-1	100
7882075	5136	146	0	-100	0	230	101300000	1000	0	0	-1	100
7894635	5139	142	0	-100	0	230	101300000	1000	0	0	-1	100
7907195	5141	145	0	-100	0	230	101300000	1000	0	0	-1	100
7919755	5135	149	0	-100	0	230	101300000	1000	0	0	-1	100
7932315	5142	144	0	-100	0	230	101300000	1000	0	0	-1	100
7944875	5140	145	0	-100	0	230	101300000	1000	0	0	-1	100
7957435	5143	150	0	-100	0	230	101300000	1000	0	0	-1	100
7969995	5144	144	0	-100	0	230	101300000	1000	0	0	-1	100
7982555	5138	145	0	-100	0	230	101300000	1000	0	0	-1	100
7995115	5138	147	0	-100	0	230	101300000	1000	0	0	-1	100
8007675	5142	144	0	-100	0	230	101300000	1000	0	0	-1	100
8020235	5140	147	0	-100	0	230	101300000	1000	0	0	-1	100
8032795	5136	146	0	-100	0	230	101300000	1000	0	0	-1	100
8045355	5144	143	0	-100	0	230	101300000	1000	0	0	-1	100
8057915	5135	148	0	-100	0	230	101300000	1000	0	0	-1	100
8070475	5135	145	0	-100	0	230	101300000	1000	0	0	-1	100
8083035	5143	143	0	-100	0	230	101300000	1000	0	0	-1	100
8095595	5137	150	0	-100	0	230	101300000	1000	0	0	-1	100
8108155	5136	144	0	-100	0	230	101300000	1000	0	0	-1	100
8120715	5143	143	0	-100	0	230	101300000	1000	0	0	-1	100
8133275	5136	150	0	-100	0	230	101300000	1000	0	0	-1	100
8145835	5138	147	0	-100	0	230	101300000	1000	0	0	-1	100
8158395	5143	145	0	-100	0	230	101300000	1000	0	0	-1	100
8170955	5139	147	0	-100	0	230	101300000	1000	0	0	-1	100
8183515	5135	146	0	-100	0	230	101300000	1000	0	0	-1	100
8196075	5144	142	0	-100	0	230	101300000	1000	0	0	-1	100
8208635	5140	150	0	-100	0	230	101300000	1000	0	0	-1	100
8221195	5140	144	0	-100	0	230	101300000	1000	0	0	-1	100
8233755	5138	151	0	-100	0	230	101300000	1000	0	0	-1	100
8246315	5140	143	0	-100	0	230	101300000	1000	0	0	-1	100
8258875	5141	151	0	-100	0	230	101300000	1000	0	0	-1	100
8271435	5142	144	0	-100	0	230	101300000	1000	0	0	-1	100
8283995	5135	144	0	-100	0	230	101300000	1000	0	0	-1	100
8296555	5142	144	0	-100	0	230	101300000	1000	0	0	-1	100
8309115	5140	150	0	-100	0	230	101300000	1000	0	0	-1	100
8321675	5148	144	0	-100	0	230	101300000	1000	0	0	-1	100
8334235	5136	150	0	-100	0	230	101300000	1000	0	0	-1	100
8346795	5144	140	0	-100	0	230	101300000	1000	0	0	-1	100
8359355	5133	146	0	-100	0	230	101300000	1000	0	0	-1	100
8371915	5151	143	0	-100	0	230	101300000	1000	0	0	-1	100
8384475	5137	148	0	-100	0	230	101300000	1000	0	0	-1	100
8397035	5142	143	0	-100	0	230	101300000	1000	0	0	-1	100
8409595	5140	152	0	-100	0	230	101300000	1000	0	0	-1	100
8422155	5145	140	0	-100	0	230	101300000	1000	0	0	-1	100
8434715	5140	150	0	-100	0	230	101300000	1000	0	0	-1	100
8447275	5142	143	0	-100	0	230	101300000	1000	0	0	-1	100
8459835	5135	150	0	-100	0	230	101300000	1000	0	0	-1	100
8472395	5136	143	0	-100	0	230	101300000	1000	0	0	-1	100
8484955	5142	143	0	-100	0	230	101300000	1000	0	0	-1	100
8497515	5141	147	0	-100	0	230	101300000	1000	0	0	-1	100
8510075	5140	142	0	-100	0	230	101300000	1000	0	0	-1	100
8522635	5139	149	0	-100	0	230	101300000	1000	0	0	-1	100
8535195	5143	143	0	-100	0	230	101300000	1000	0	0	-1	100
8547755	5143	145	0	-100	0	230	101300000	1000	0	0	-1	100
8560315	5136	147	0	-100	0	230	101300000	1000	0	0	-1	100
8572875	5144	144	0	-100	0	230	101300000	1000	0	0	-1	100
8585435	5138	148	0	-100	0	230	101300000	1000	0	0	-1	100
8597995	5147	151	0	-100	0	230	101300000	1000	0	0	-1	100
8610555	5141	147	0	-100	0	230	101300000	1000	0	0	-1	100
8623115	5145	143	0	-100	0	230	101300000	1000	0	0	-1	100
8635675	5142	150	0	-100	0	230	101300000	1000	0	0	-1	100
8648235	5149	143	0	-100	0	230	101300000	1000	0	0	-1	100
8660795	5138	153	0	-100	0	230	101300000	1000	0	0	-1	100
8673355	5140	142	0	-100	0	230	101300000	1000	0	0	-1	100
8685915	5133	147	0	-100	0	230	101300000	1000	0	0	-1	100
8698475	5142	142	0	-100	0	230	101300000	1000	0	0	-1	100
8711035	5138	151	0	-100	0	230	101300000	1000	0	0	-1	100
8723595	5141	144	0	-100	0	230	101300000	1000	0	0	-1	100
8736155	5138	145	0	-100	0	230	101300000	1000	0	0	-1	100
8748715	5139	146	0	-100	0	230	101300000	1000	0	0	-1	100
8761275	5144	143	0	-100	0	230	101300000	1000	0	0	-1	100
8773835	5137	149	0	-100	0	230	101300000	1000	0	0	-1	100
8786395	5135	144	0	-100	0	230	101300000	1000	0	0	-1	100
8798955	5144	146	0	-100	0	230	101300000	1000	0	0	-1	100
8811515	5141	150	0	-100	0	230	101300000	1000	0	0	-1	100
8824075	5134	143	0	-100	0	230	101300000	1000	0	0	-1	100
8836635	5141	141	0	-100	0	230	101300000	1000	0	0	-1	100
8849195	5134	148	0	-100	0	230	101300000	1000	0	0	-1	100
8861755	5140	151	0	-100	0	230	101300000	1000	0	0	-1	100
8874315	5137	143	0	-100	0	230	101300000	1000	0	0	-1	100
8886875	5142	143	0	-100	0	230	101300000	1000	0	0	-1	100
8899435	5136	151	0	-100	0	230	101300000	1000	0	0	-1	100
8911995	5141	143	0	-100	0	230	101300000	1000	0	0	-1	100
8924555	5139	145	0	-100	0	230	101300000	1000	0	0	-1	100
8937115	5140	151	0	-100	0	230	101300000	1000	0	0	-1	100
8949675	5142	143	0	-100	0	230	101300000	1000	0	0	-1	100
8962235	5137	147	0	-100	0	230	101300000	1000	0	0	-1	100
8974795	5138	148	0	-100	0	230	101300000	1000	0	0	-1	100
8987355	5141	143	0	-100	0	230	101300000	1000	0	0	-1	100
8999915	5140	147	0	-100	0	230	101300000	1000	0	0	-1	100
9012475	5141	151	0	-100	0	230	101300000	1000	0	0	-1	100
9025035	5133	143	0	-100	0	230	101300000	1000	0	0	-1	100
9037595	5145	143	0	-100	0	230	101300000	1000	0	0	-1	100
9050155	5144	145	0	-100	0	230	101300000	1000	0	0	-1	100
9062715	5142	149	0	-100	0	230	101300000	1000	0	0	-1	100
9075275	5139	147	0	-100	0	230	101300000	1000	0	0	-1	100
9087835	5143	143	0	-100	0	230	101300000	1000	0	0	-1	100
9100395	5144	143	0	-100	0	230	101300000	1000	0	0	-1	100
9112955	5140	149	0	-100	0	230	101300000	1000	0	0	-1	100
9125515	5134	147	0	-100	0	230	101300000	1000	0	0	-1	100
9138075	5147	143	0	-100	0	230	101300000	1000	0	0	-1	100
9150635	5147	141	0	-100	0	230	101300000	1000	0	0	-1	100
9163195	5149	143	0	-100	0	230	101300000	1000	0	0	-1	100
9175755	5139	149	0	-100	0	230	101300000	1000	0	0	-1	100
9188315	5141	147	0	-100	0	230	101300000	1000	0	0	-1	100
9200875	5142	144	0	-100	0	230	101300000	1000	0	0	-1	100
9213435	5144	143	0	-100	0	230	101300000	1000	0	0	-1	100
9225995	5137	143	0	-100	0	230	101300000	1000	0	0	-1	100
9238555	5141	147	0	-100	0	230	101300000	1000	0	0	-1	100
9251115	5139	143	0	-100	0	230	101300000	1000	0	0	-1	100
9263675	5150	143	0	-100	0	230	101300000	1000	0	0	-1	100
9276235	5143	149	0	-100	0	230	101300000	1000	0	0	-1	100
9288795	5137	148	0	-100	0	230	101300000	1000	0	0	-1	100
9301355	5143	142	0	-100	0	230	101300000	1000	0	0	-1	100
9313915	5143	150	0	-100	0	230	101300000	1000	0	0	-1	100
9326475	5145	142	0	-100	0	230	101300000	1000	0	0	-1	100
9339035	5145	142	0	-100	0	230	101300000	1000	0	0	-1	100
9351595	5143	149	0	-100	0	230	101300000	1000	0	0	-1	100
9364155	5149	143	0	-100	0	230	101300000	1000	0	0	-1	100
9376715	5149	146	0	-100	0	230	101300000	1000	0	0	-1	100
9389275	5144	143	0	-100	0	230	101300000	1000	0	0	-1	100
9401835	5144	151	0	-100	0	230	101300000	1000	0	0	-1	100
9414395	5150	143	0	-100	0	230	101300000	1000	0	0	-1	100
9426955	5141	151	0	-100	0	230	101300000	1000	0	0	-1	100
9439515	5147	145	0	-100	0	230	101300000	1000	0	0	-1	100
9452075	5139	148	0	-100	0	230	101300000	1000	0	0	-1	100
9464635	5152	145	0	-100	0	230	101300000	1000	0	0	-1	100
9477195	5141	147	0	-100	0	230	101300000	1000	0	0	-1	100
9489755	5144	144	0	-100	0	230	101300000	1000	0	0	-1	100
9502315	5138	147	0	-100	0	230	101300000	1000	0	0	-1	100
9514875	5151	143	0	-100	0	230	101300000	1000	0	0	-1	100
9527435	5147	149	0	-100	0	230	101300000	1000	0	0	-1	100
9539995	5147	151	0	-100	0	230	101300000	1000	0	0	-1	100
9552555	5142	151	0	-100	0	230	101300000	1000	0	0	-1	100
9565115	5145	143	0	-100	0	230	101300000	1000	0	0	-1	100
9577675	5142	148	0	-100	0	230	101300000	1000	0	0	-1	100
9590235	5148	143	0	-100	0	230	101300000	1000	0	0	-1	100
9602795	5140	150	0	-100	0	230	101300000	1000	0	0	-1	100
9615355	5145	143	0	-100	0	230	101300000	1000	0	0	-1	100
9627915	5138	148	0	-100	0	230	101300000	1000	0	0	-1	100
9640475	5144	143	0	-100	0	230	101300000	1000	0	0	-1	100
9653035	5141	151	0	-100	0	230	101300000	1000	0	0	-1	100
9665595	5148	142	0	-100	0	230	101300000	1000	0	0	-1	100
9678155	5142	146	0	-100	0	230	101300000	1000	0	0	-1	100
9690715	5152	143	0	-100	0	230	101300000	1000	0	0	-1	100
9703275	5138	147	0	-100	0	230	101300000	1000	0	0	-1	100
9715835	5153	143	0	-100	0	230	101300000	1000	0	0	-1	100
9728395	5140	146	0	-100	0	230	101300000	1000	0	0	-1	100
9740955	5146	143	0	-100	0	230	101300000	1000	0	0	-1	100
9753515	5141	145	0	-100	0	230	101300000	1000	0	0	-1	100
9766075	5140	147	0	-100	0	230	101300000	1000	0	0	-1	100
9778635	5143	144	0	-100	0	230	101300000	1000	0	0	-1	100
9791195	5147	150	0	-100	0	230	101300000	1000	0	0	-1	100
9803755	5145	140	0	-100	0	230	101300000	1000	0	0	-1	100
9816315	5144	146	0	-100	0	230	101300000	1000	0	0	-1	100
9828875	5150	144	0	-100	0	230	101300000	1000	0	0	-1	100
9841435	5144	143	0	-100	0	230	101300000	1000	0	0	-1	100
9853995	5146	143	0	-100	0	230	101300000	1000	0	0	-1	100
9866555	5145	144	0	-100	0	230	101300000	1000	0	0	-1	100
9879115	5138	144	0	-100	0	230	101300000	1000	0	0	-1	100
9891675	5144	147	0	-100	0	230	101300000	1000	0	0	-1	100
9904235	5144	143	0	-100	0	230	101300000	1000	0	0	-1	100
9916795	5139	150	0	-100	0	230	101300000	1000	0	0	-1	100
9929355	5144	144	0	-100	0	230	101300000	1000	0	0	-1	100
9941915	5143	147	0	-100	0	230	101300000	1000	0	0	-1	100
9954475	5142	147	0	-100	0	230	101300000	1000	0	0	-1	100
9967035	5142	144	0	-100	0	230	101300000	1000	0	0	-1	100
9979595	5145	146	0	-100	0	230	101300000	1000	0	0	-1	100
9992155	5140	147	0	-100	0	230	101300000	1000	0	0	-1	100
10004715	5148	142	0	-100	0	230	101300000	1000	0	0	-1	100
10017275	5138	150	0	-100	0	230	101300000	1000	0	0	-1	100
10029835	5154	144	0	-100	0	230	101300000	1000	0	0	-1	100
10042395	5144	143	0	-100	0	230	101300000	1000	0	0	-1	100
10054955	5144	150	0	-100	0	230	101300000	1000	0	0	-1	100
10067515	5149	146	0	-100	0	230	101300000	1000	0	0	-1	100
10080075	5142	143	0	-100	0	230	101300000	1000	0	0	-1	100
10092635	5146	147	0	-100	0	230	101300000	1000	0	0	-1	100
10105195	5144	144	0	-100	0	230	101300000	1000	0	0	-1	100
10117755	5143	150	0	-100	0	230	101300000	1000	0	0	-1	100
10130315	5150	143	0	-100	0	230	101300000	1000	0	0	-1	100
10142875	5143	150	0	-100	0	230	101300000	1000	0	0	-1	100
10155435	5144	143	0	-100	0	230	101300000	1000	0	0	-1	100
10167995	5143	145	0	-100	0	230	101300000	1000	0	0	-1	100
10180555	5144	147	0	-100	0	230	101300000	1000	0	0	-1	100
10193115	5150	143	0	-100	0	230	101300000	1000	0	0	-1	100
10205675	5145	147	0	-100	0	230	101300000	1000	0	0	-1	100
10218235	5147	145	0	-100	0	230	101300000	1000	0	0	-1	100
10230795	5144	142	0	-100	0	230	101300000	1000	0	0	-1	100
10243355	5141	150	0	-100	0	230	101300000	1000	0	0	-1	100
10255915	5152	143	0	-100	0	230	101300000	1000	0	0	-1	100
10268475	5142	146	0	-100	0	230	101300000	1000	0	0	-1	100
10281035	5140	148	0	-100	0	230	101300000	1000	0	0	-1	100
10293595	5145	142	0	-100	0	230	101300000	1000	0	0	-1	100
10306155	5144	150	0	-100	0	230	101300000	1000	0	0	-1	100
10318715	5150	145	0	-100	0	230	101300000	1000	0	0	-1	100
10331275	5148	142	0	-100	0	230	101300000	1000	0	0	-1	100
10343835	5142	148	0	-100	0	230	101300000	1000	0	0	-1	100
10356395	5147	143	0	-100	0	230	101300000	1000	0	0	-1	100
10368955	5141	151	0	-100	0	230	101300000	1000	0	0	-1	100
10381515	5155	144	0	-100	0	230	101300000	1000	0	0	-1	100
10394075	5139	147	0	-100	0	230	101300000	1000	0	0	-1	100
10406635	5147	146	0	-100	0	230	101300000	1000	0	0	-1	100
10419195	5142	143	0	-100	0	230	101300000	1000	0	0	-1	100
10431755	5147	147	0	-100	0	230	101300000	1000	0	0	-1	100
10444315	5143	144	0	-100	0	230	101300000	1000	0	0	-1	100
10456875	5143	144	0	-100	0	230	101300000	1000	0	0	-1	100
10469435	5140	150	0	-100	0	230	101300000	1000	0	0	-1	100
10481995	5151	149	0	-100	0	230	101300000	1000	0	0	-1	100
10494555	5138	148	0	-100	0	230	101300000	1000	0	0	-1	100
10507115	5145	149	0	-100	0	230	101300000	1000	0	0	-1	100
10519675	5145	144	0	-100	0	230	101300000	1000	0	0	-1	100
10532235	5144	147	0	-100	0	230	101300000	1000	0	0	-1	100
10544795	5144	144	0	-100	0	230	101300000	1000	0	0	-1	100
10557355	5135	146	0	-100	0	230	101300000	1000	0	0	-1	100
10569915	5141	147	0	-100	0	230	101300000	1000	0	0	-1	100
10582475	5147	143	0	-100	0	230	101300000	1000	0	0	-1	100
10595035	5147	149	0	-100	0	230	101300000	1000	0	0	-1	100
10607595	5141	146	0	-100	0	230	101300000	1000	0	0	-1	100
10620155	5148	143	0	-100	0	230	101300000	1000	0	0	-1	100
10632715	5142	152	0	-100	0	230	101300000	1000	0	0	-1	100
10645275	5148	144	0	-100	0	230	101300000	1000	0	0	-1	100
10657835	5147	143	0	-100	0	230	101300000	1000	0	0	-1	100
10670395	5140	150	0	-100	0	230	101300000	1000	0	0	-1	100
10682955	5147	144	0	-100	0	230	101300000	1000	0	0	-1	100
10695515	5148	143	0	-100	0	230	101300000	1000	0	0	-1	100
10708075	5144	152	0	-100	0	230	101300000	1000	0	0	-1	100
10720635	5147	147	0	-100	0	230	101300000	1000	0	0	-1	100
10733195	5148	143	0	-100	0	230	101300000	1000	0	0	-1	100
10745755	5146	147	0	-100	0	230	101300000	1000	0	0	-1	100
10758315	5148	144	0	-100	0	230	101300000	1000	0	0	-1	100
10770875	5142	147	0	-100	0	230	101300000	1000	0	0	-1	100
10783435	5145	148	0	-100	0	230	101300000	1000	0	0	-1	100
10795995	5145	143	0	-100	0	230	101300000	1000	0	0	-1	100
10808555	5143	148	0	-100	0	230	101300000	1000	0	0	-1	100
10821115	5149	142	0	-100	0	230	101300000	1000	0	0	-1	100
10833675	5142	147	0	-100	0	230	101300000	1000	0	0	-1	100
10846235	5143	143	0	-100	0	230	101300000	1000	0	0	-1	100
10858795	5143	148	0	-100	0	230	101300000	1000	0	0	-1	100
10871355	5145	144	0	-100	0	230	101300000	1000	0	0	-1	100
10883915	5146	151	0	-100	0	230	101300000	1000	0	0	-1	100
10896475	5147	143	0	-100	0	230	101300000	1000	0	0	-1	100
10909035	5145	143	0	-100	0	230	101300000	1000	0	0	-1	100
10921595	5142	150	0	-100	0	230	101300000	1000	0	0	-1	100
10934155	5143	142	0	-100	0	230	101300000	1000	0	0	-1	100
10946715	5140	147	0	-100	0	230	101300000	1000	0	0	-1	100
10959275	5143	147	0	-100	0	230	101300000	1000	0	0	-1	100
10971835	5144	144	0	-100	0	230	101300000	1000	0	0	-1	100
10984395	5142	146	0	-100	0	230	101300000	1000	0	0	-1	100
10996955	5141	147	0	-100	0	230	101300000	1000	0	0	-1	100
11009515	5149	143	0	-100	0	230	101300000	1000	0	0	-1	100
11022075	5143	147	0	-100	0	230	101300000	1000	0	0	-1	100
11034635	5144	142	0	-100	0	230	101300000	1000	0	0	-1	100
11047195	5144	147	0	-100	0	230	101300000	1000	0	0	-1	100
11059755	5154	143	0	-100	0	230	101300000	1000	0	0	-1	100
11072315	5143	143	0	-100	0	230	101300000	1000	0	0	-1	100
11084875	5141	149	0	-100	0	230	101300000	1000	0	0	-1	100
11097435	5147	143	0	-100	0	230	101300000	1000	0	0	-1	100
11109995	5147	144	0	-100	0	230	101300000	1000	0	0	-1	100
11122555	5150	145	0	-100	0	230	101300000	1000	0	0	-1	100
11135115	5139	145	0	-100	0	230	101300000	1000	0	0	-1	100
11147675	5144	146	0	-100	0	230	101300000	1000	0	0	-1	100
11160235	5150	143	0	-100	0	230	101300000	1000	0	0	-1	100
11172795	5143	149	0	-100	0	230	101300000	1000	0	0	-1	100
11185355	5144	145	0	-100	0	230	101300000	1000	0	0	-1	100
11197915	5143	148	0	-100	0	230	101300000	1000	0	0	-1	100
11210475	5147	145	0	-100	0	230	101300000	1000	0	0	-1	100
11223035	5135	146	0	-100	0	230	101300000	1000	0	0	-1	100
11235595	5150	144	0	-100	0	230	101300000	1000	0	0	-1	100
11248155	5143	147	0	-100	0	230	101300000	1000	0	0	-1	100
11260715	5151	144	0	-100	0	230	101300000	1000	0	0	-1	100
11273275	5144	148	0	-100	0	230	101300000	1000	0	0	-1	100
11285835	5147	142	0	-100	0	230	101300000	1000	0	0	-1	100
11298395	5144	151	0	-100	0	230	101300000	1000	0	0	-1	100
11310955	5148	143	0	-100	0	230	101300000	1000	0	0	-1	100
11323515	5140	148	0	-100	0	230	101300000	1000	0	0	-1	100
11336075	5142	144	0	-100	0	230	101300000	1000	0	0	-1	100
11348635	5143	145	0	-100	0	230	101300000	1000	0	0	-1	100
11361195	5143	143	0	-100	0	230	101300000	1000	0	0	-1	100
11373755	5144	147	0	-100	0	230	101300000	1000	0	0	-1	100
11386315	5149	142	0	-100	0	230	101300000	1000	0	0	-1	100
11398875	5144	148	0	-100	0	230	101300000	1000	0	0	-1	100
11411435	5141	143	0	-100	0	230	101300000	1000	0	0	-1	100
11423995	5141	147	0	-100	0	230	101300000	1000	0	0	-1	100
11436555	5146	143	0	-100	0	230	101300000	1000	0	0	-1	100
11449115	5139	149	0	-100	0	230	101300000	1000	0	0	-1	100
11461675	5150	144	0	-100	0	230	101300000	1000	0	0	-1	100
11474235	5147	151	0	-100	0	230	101300000	1000	0	0	-1	100
11486795	5151	143	0	-100	0	230	101300000	1000	0	0	-1	100
11499355	5149	146	0	-100	0	230	101300000	1000	0	0	-1	100
11511915	5148	142	0	-100	0	230	101300000	1000	0	0	-1	100
11524475	5143	151	0	-100	0	230	101300000	1000	0	0	-1	100
11537035	5143	144	0	-100	0	230	101300000	1000	0	0	-1	100
11549595	5141	151	0	-100	0	230	101300000	1000	0	0	-1	100
11562155	5143	143	0	-100	0	230	101300000	1000	0	0	-1	100
11574715	5140	147	0	-100	0	230	101300000	1000	0	0	-1	100
11587275	5138	146	0	-100	0	230	101300000	1000	0	0	-1	100
11599835	5143	141	0	-100	0	230	101300000	1000	0	0	-1	100
11612395	5141	150	0	-100	0	230	101300000	1000	0	0	-1	100
11624955	5144	143	0	-100	0	230	101300000	1000	0	0	-1	100
11637515	5143	143	0	-100	0	230	101300000	1000	0	0	-1	100
11650075	5139	146	0	-100	0	230	101300000	1000	0	0	-1	100
11662635	5142	146	0	-100	0	230	101300000	1000	0	0	-1	100
11675195	5146	143	0	-100	0	230	101300000	1000	0	0	-1	100
11687755	5142	148	0	-100	0	230	101300000	1000	0	0	-1	100
11700315	5142	142	0	-100	0	230	101300000	1000	0	0	-1	100
11712875	5145	149	0	-100	0	230	101300000	1000	0	0	-1	100
11725435	5149	143	0	-100	0	230	101300000	1000	0	0	-1	100
11737995	5144	147	0	-100	0	230	101300000	1000	0	0	-1	100
11750555	5139	146	0	-100	0	230	101300000	1000	0	0	-1	100
11763115	5142	143	0	-100	0	230	101300000	1000	0	0	-1	100
11775675	5139	147	0	-100	0	230	101300000	1000	0	0	-1	100
11788235	5147	140	0	-100	0	230	101300000	1000	0	0	-1	100
11800795	5145	150	0	-100	0	230	101300000	1000	0	0	-1	100
11813355	5145	143	0	-100	0	230	101300000	1000	0	0	-1	100
11825915	5144	143	0	-100	0	230	101300000	1000	0	0	-1	100
11838475	5142	151	0	-100	0	230	101300000	1000	0	0	-1	100
11851035	5142	142	0	-100	0	230	101300000	1000	0	0	-1	100
11863595	5142	147	0	-100	0	230	101300000	1000	0	0	-1	100
11876155	5138	148	0	-100	0	230	101300000	1000	0	0	-1	100
11888715	5145	143	0	-100	0	230	101300000	1000	0	0	-1	100
11901275	5142	152	0	-100	0	230	101300000	1000	0	0	-1	100
11913835	5142	143	0	-100	0	230	101300000	1000	0	0	-1	100
11926395	5148	144	0	-100	0	230	101300000	1000	0	0	-1	100
11938955	5143	151	0	-100	0	230	101300000	1000	0	0	-1	100
11951515	5148	142	0	-100	0	230	101300000	1000	0	0	-1	100
11964075	5144	147	0	-100	0	230	101300000	1000	0	0	-1	100
11976635	5143	145	0	-100	0	230	101300000	1000	0	0	-1	100
11989195	5153	143	0	-100	0	230	101300000	1000	0	0	-1	100
12001755	5143	148	0	-100	0	230	101300000	1000	0	0	-1	100
12014315	5147	143	0	-100	0	230	101300000	1000	0	0	-1	100
12026875	5140	148	0	-100	0	230	101300000	1000	0	0	-1	100
12039435	5137	149	0	-100	0	230	101300000	1000	0	0	-1	100
12051995	5150	149	0	-100	0	230	101300000	1000	0	0	-1	100
12064555	5140	148	0	-100	0	230	101300000	1000	0	0	-1	100
12077115	5143	143	0	-100	0	230	101300000	1000	0	0	-1	100
12089675	5152	144	0	-100	0	230	101300000	1000	0	0	-1	100
12102235	5144	149	0	-100	0	230	101300000	1000	0	0	-1	100
12114795	5143	143	0	-100	0	230	101300000	1000	0	0	-1	100
12127355	5149	143	0	-100	0	230	101300000	1000	0	0	-1	100
12139915	5145	149	0	-100	0	230	101300000	1000	0	0	-1	100
12152475	5143	144	0	-100	0	230	101300000	1000	0	0	-1	100
12165035	5142	146	0	-100	0	230	101300000	1000	0	0	-1	100
12177595	5142	147	0	-100	0	230	101300000	1000	0	0	-1	100
12190155	5144	144	0	-100	0	230	101300000	1000	0	0	-1	100
12202715	5142	143	0	-100	0	230	101300000	1000	0	0	-1	100
12215275	5145	146	0	-100	0	230	101300000	1000	0	0	-1	100
12227835	5142	143	0	-100	0	230	101300000	1000	0	0	-1	100
12240395	5145	144	0	-100	0	230	101300000	1000	0	0	-1	100
12252955	5143	150	0	-100	0	230	101300000	1000	0	0	-1	100
12265515	5149	143	0	-100	0	230	101300000	1000	0	0	-1	100
12278075	5145	147	0	-100	0	230	101300000	1000	0	0	-1	100
12290635	5140	148	0	-100	0	230	101300000	1000	0	0	-1	100
12303195	5145	143	0	-100	0	230	101300000	1000	0	0	-1	100
12315755	5138	147	0	-100	0	230	101300000	1000	0	0	-1	100
12328315	5140	147	0	-100	0	230	101300000	1000	0	0	-1	100
12340875	5147	143	0	-100	0	230	101300000	1000	0	0	-1	100
12353435	5141	147	0	-100	0	230	101300000	1000	0	0	-1	100
12365995	5142	141	0	-100	0	230	101300000	1000	0	0	-1	100
12378555	5149	142	0	-100	0	230	101300000	1000	0	0	-1	100
12391115	5140	150	0	-100	0	230	101300000	1000	0	0	-1	100
12403675	5144	143	0	-100	0	230	101300000	1000	0	0	-1	100
12416235	5143	146	0	-100	0	230	101300000	1000	0	0	-1	100
12428795	5143	151	0	-100	0	230	101300000	1000	0	0	-1	100
12441355	5147	143	0	-100	0	230	101300000	1000	0	0	-1	100
12453915	5142	146	0	-100	0	230	101300000	1000	0	0	-1	100
12466475	5143	143	0	-100	0	230	101300000	1000	0	0	-1	100
12479035	5148	144	0	-100	0	230	101300000	1000	0	0	-1	100
12491595	5137	147	0	-100	0	230	101300000	1000	0	0	-1	100
12504155	5148	144	0	-100	0	230	101300000	1000	0	0	-1	100
12516715	5146	151	0	-100	0	230	101300000	1000	0	0	-1	100
12529275	5148	143	0	-100	0	230	101300000	1000	0	0	-1	100
12541835	5144	147	0	-100	0	230	101300000	1000	0	0	-1	100
12554395	5145	149	0	-100	0	230	101300000	1000	0	0	-1	100
12566955	5143	143	0	-100	0	230	101300000	1000	0	0	-1	100
12579515	5141	151	0	-100	0	230	101300000	1000	0	0	-1	100
12592075	5146	143	0	-100	0	230	101300000	1000	0	0	-1	100
12604635	5141	147	0	-100	0	230	101300000	1000	0	0	-1	100
12617195	5143	147	0	-100	0	230	101300000	1000	0	0	-1	100
12629755	5150	142	0	-100	0	230	101300000	1000	0	0	-1	100
12642315	5144	148	0	-100	0	230	101300000	1000	0	0	-1	100
12654875	5138	147	0	-100	0	230	101300000	1000	0	0	-1	100
12667435	5144	142	0	-100	0	230	101300000	1000	0	0	-1	100
12679995	5143	144	0	-100	0	230	101300000	1000	0	0	-1	100
12692555	5150	143	0	-100	0	230	101300000	1000	0	0	-1	100
12705115	5148	147	0	-100	0	230	101300000	1000	0	0	-1	100
12717675	5153	145	0	-100	0	230	101300000	1000	0	0	-1	100
12730235	5139	147	0	-100	0	230	101300000	1000	0	0	-1	100
12742795	5144	145	0	-100	0	230	101300000	1000	0	0	-1	100
12755355	5142	150	0	-100	0	230	101300000	1000	0	0	-1	100
12767915	5147	143	0	-100	0	230	101300000	1000	0	0	-1	100
12780475	5143	148	0	-100	0	230	101300000	1000	0	0	-1	100
12793035	5144	143	0	-100	0	230	101300000	1000	0	0	-1	100
12805595	5144	145	0	-100	0	230	101300000	1000	0	0	-1	100
12818155	5135	147	0	-100	0	230	101300000	1000	0	0	-1	100
12830715	5144	142	0	-100	0	230	101300000	1000	0	0	-1	100
12843275	5152	143	0	-100	0	230	101300000	1000	0	0	-1	100
12855835	5143	150	0	-100	0	230	101300000	1000	0	0	-1	100
12868395	5137	147	0	-100	0	230	101300000	1000	0	0	-1	100
12880955	5144	143	0	-100	0	230	101300000	1000	0	0	-1	100
12893515	5145	145	0	-100	0	230	101300000	1000	0	0	-1	100
12906075	5145	147	0	-100	0	230	101300000	1000	0	0	-1	100
12918635	5148	143	0	-100	0	230	101300000	1000	0	0	-1	100
12931195	5143	147	0	-100	0	230	101300000	1000	0	0	-1	100
12943755	5138	148	0	-100	0	230	101300000	1000	0	0	-1	100
12956315	5145	142	0	-100	0	230	101300000	1000	0	0	-1	100
12968875	5147	149	0	-100	0	230	101300000	1000	0	0	-1	100
12981435	5138	145	0	-100	0	230	101300000	1000	0	0	-1	100
12993995	5145	150	0	-100	0	230	101300000	1000	0	0	-1	100
13006555	5142	147	0	-100	0	230	101300000	1000	0	0	-1	100
13019115	5144	151	0	-100	0	230	101300000	1000	0	0	-1	100
13031675	5143	144	0	-100	0	230	101300000	1000	0	0	-1	100
13044235	5145	141	0	-100	0	230	101300000	1000	0	0	-1	100
13056795	5138	148	0	-100	0	230	101300000	1000	0	0	-1	100
13069355	5140	145	0	-100	0	230	101300000	1000	0	0	-1	100
13081915	5150	141	0	-100	0	230	101300000	1000	0	0	-1	100
13094475	5144	147	0	-100	0	230	101300000	1000	0	0	-1	100
13107035	5137	147	0	-100	0	230	101300000	1000	0	0	-1	100
13119595	5143	141	0	-100	0	230	101300000	1000	0	0	-1	100
13132155	5137	150	0	-100	0	230	101300000	1000	0	0	-1	100
13144715	5143	142	0	-100	0	230	101300000	1000	0	0	-1	100
13157275	5147	143	0	-100	0	230	101300000	1000	0	0	-1	100
13169835	5142	150	0	-100	0	230	101300000	1000	0	0	-1	100
13182395	5144	143	0	-100	0	230	101300000	1000	0	0	-1	100
13194955	5144	146	0	-100	0	230	101300000	1000	0	0	-1	100
13207515	5138	147	0	-100	0	230	101300000	1000	0	0	-1	100
13220075	5148	144	0	-100	0	230	101300000	1000	0	0	-1	100
13232635	5142	150	0	-100	0	230	101300000	1000	0	0	-1	100
13245195	5148	143	0	-100	0	230	101300000	1000	0	0	-1	100
13257755	5139	147	0	-100	0	230	101300000	1000	0	0	-1	100
13270315	5136	148	0	-100	0	230	101300000	1000	0	0	-1	100
13282875	5148	142	0	-100	0	230	101300000	1000	0	0	-1	100
13295435	5144	153	0	-100	0	230	101300000	1000	0	0	-1	100
13307995	5147	150	0	-100	0	230	101300000	1000	0	0	-1	100
13320555	5141	147	0	-100	0	230	101300000	1000	0	0	-1	100
13333115	5150	143	0	-100	0	230	101300000	1000	0	0	-1	100
13345675	5142	151	0	-100	0	230	101300000	1000	0	0	-1	100
13358235	5144	144	0	-100	0	230	101300000	1000	0	0	-1	100
13370795	5140	143	0	-100	0	230	101300000	1000	0	0	-1	100
13383355	5141	146	0	-100	0	230	101300000	1000	0	0	-1	100
13395915	5144	145	0	-100	0	230	101300000	1000	0	0	-1	100
13408475	5141	146	0	-100	0	230	101300000	1000	0	0	-1	100
13421035	5149	142	0	-100	0	230	101300000	1000	0	0	-1	100
13433595	5144	142	0	-100	0	230	101300000	1000	0	0	-1	100
13446155	5140	151	0	-100	0	230	101300000	1000	0	0	-1	100
13458715	5147	145	0	-100	0	230	101300000	1000	0	0	-1	100
13471275	5147	144	0	-100	0	230	101300000	1000	0	0	-1	100
13483835	5137	148	0	-100	0	230	101300000	1000	0	0	-1	100
13496395	5142	143	0	-100	0	230	101300000	1000	0	0	-1	100
13508955	5145	146	0	-100	0	230	101300000	1000	0	0	-1	100
13521515	5141	143	0	-100	0	230	101300000	1000	0	0	-1	100
13534075	5142	145	0	-100	0	230	101300000	1000	0	0	-1	100
13546635	5147	148	0	-100	0	230	101300000	1000	0	0	-1	100
13559195	5140	143	0	-100	0	230	101300000	1000	0	0	-1	100
13571755	5150	143	0	-100	0	230	101300000	1000	0	0	-1	100
13584315	5146	151	0	-100	0	230	101300000	1000	0	0	-1	100
13596875	5143	142	0	-100	0	230	101300000	1000	0	0	-1	100
13609435	5147	146	0	-100	0	230	101300000	1000	0	0	-1	100
13621995	5145	143	0	-100	0	230	101300000	1000	0	0	-1	100
13634555	5139	144	0	-100	0	230	101300000	1000	0	0	-1	100
13647115	5147	143	0	-100	0	230	101300000	1000	0	0	-1	100
13659675	5142	148	0	-100	0	230	101300000	1000	0	0	-1	100
13672235	5141	147	0	-100	0	230	101300000	1000	0	0	-1	100
13684795	5145	143	0	-100	0	230	101300000	1000	0	0	-1	100
13697355	5148	145	0	-100	0	230	101300000	1000	0	0	-1	100
13709915	5139	148	0	-100	0	230	101300000	1000	0	0	-1	100
13722475	5149	145	0	-100	0	230	101300000	1000	0	0	-1	100
13735035	5143	149	0	-100	0	230	101300000	1000	0	0	-1	100
13747595	5141	145	0	-100	0	230	101300000	1000	0	0	-1	100
13760155	5149	143	0	-100	0	230	101300000	1000	0	0	-1	100
13772715	5142	149	0	-100	0	230	101300000	1000	0	0	-1	100
13785275	5141	145	0	-100	0	230	101300000	1000	0	0	-1	100
13797835	5150	138	0	-100	0	230	101300000	1000	0	0	-1	100
13810395	5140	147	0	-100	0	230	101300000	1000	0	0	-1	100
13822955	5142	148	0	-100	0	230	101300000	1000	0	0	-1	100
13835515	5144	142	0	-100	0	230	101300000	1000	0	0	-1	100
13848075	5148	141	0	-100	0	230	101300000	1000	0	0	-1	100
13860635	5145	145	0	-100	0	230	101300000	1000	0	0	-1	100
13873195	5149	148	0	-100	0	230	101300000	1000	0	0	-1	100
13885755	5145	142	0	-100	0	230	101300000	1000	0	0	-1	100
13898315	5148	143	0	-100	0	230	101300000	1000	0	0	-1	100
13910875	5143	151	0	-100	0	230	101300000	1000	0	0	-1	100
13923435	5142	147	0	-100	0	230	101300000	1000	0	0	-1	100
13935995	5148	144	0	-100	0	230	101300000	1000	0	0	-1	100
13948555	5145	143	0	-100	0	230	101300000	1000	0	0	-1	100
13961115	5142	149	0	-100	0	230	101300000	1000	0	0	-1	100
13973675	5142	147	0	-100	0	230	101300000	1000	0	0	-1	100
13986235	5145	145	0	-100	0	230	101300000	1000	0	0	-1	100
13998795	5147	147	0	-100	0	230	101300000	1000	0	0	-1	100
14011355	5142	147	0	-100	0	230	101300000	1000	0	0	-1	100
14023915	5142	144	0	-100	0	230	101300000	1000	0	0	-1	100
14036475	5147	143	0	-100	0	230	101300000	1000	0	0	-1	100
14049035	5140	149	0	-100	0	230	101300000	1000	0	0	-1	100
14061595	5144	144	0	-100	0	230	101300000	1000	0	0	-1	100
14074155	5143	146	0	-100	0	230	101300000	1000	0	0	-1	100
14086715	5139	147	0	-100	0	230	101300000	1000	0	0	-1	100
14099275	5150	143	0	-100	0	230	101300000	1000	0	0	-1	100
14111835	5140	148	0	-100	0	230	101300000	1000	0	0	-1	100
14124395	5142	146	0	-100	0	230	101300000	1000	0	0	-1	100
14136955	5148	142	0	-100	0	230	101300000	1000	0	0	-1	100
14149515	5141	151	0	-100	0	230	101300000	1000	0	0	-1	100
14162075	5144	144	0	-100	0	230	101300000	1000	0	0	-1	100
14174635	5147	143	0	-100	0	230	101300000	1000	0	0	-1	100
14187195	5142	150	0	-100	0	230	101300000	1000	0	0	-1	100
14199755	5148	142	0	-100	0	230	101300000	1000	0	0	-1	100
14212315	5144	146	0	-100	0	230	101300000	1000	0	0	-1	100
14224875	5139	147	0	-100	0	230	101300000	1000	0	0	-1	100
14237435	5147	140	0	-100	0	230	101300000	1000	0	0	-1	100
14249995	5147	143	0	-100	0	230	101300000	1000	0	0	-1	100
14262555	5143	143	0	-100	0	230	101300000	1000	0	0	-1	100
14275115	5153	143	0	-100	0	230	101300000	1000	0	0	-1	100
14287675	5138	151	0	-100	0	230	101300000	1000	0	0	-1	100
14300235	5145	143	0	-100	0	230	101300000	1000	0	0	-1	100
14312795	5143	145	0	-100	0	230	101300000	1000	0	0	-1	100
14325355	5146	148	0	-100	0	230	101300000	1000	0	0	-1	100
14337915	5150	142	0	-100	0	230	101300000	1000	0	0	-1	100
14350475	5140	147	0	-100	0	230	101300000	1000	0	0	-1	100
14363035	5146	148	0	-100	0	230	101300000	1000	0	0	-1	100
14375595	5143	142	0	-100	0	230	101300000	1000	0	0	-1	100
14388155	5152	143	0	-100	0	230	101300000	1000	0	0	-1	100
14400715	5141	149	0	-100	0	230	101300000	1000	0	0	-1	100
14413275	5143	143	0	-100	0	230	101300000	1000	0	0	-1	100
14425835	5151	143	0	-100	0	230	101300000	1000	0	0	-1	100
14438395	5143	151	0	-100	0	230	101300000	1000	0	0	-1	100
14450955	5150	143	0	-100	0	230	101300000	1000	0	0	-1	100
14463515	5140	148	0	-100	0	230	101300000	1000	0	0	-1	100
14476075	5144	144	0	-100	0	230	101300000	1000	0	0	-1	100
14488635	5147	142	0	-100	0	230	101300000	1000	0	0	-1	100
14501195	5144	148	0	-100	0	230	101300000	1000	0	0	-1	100
14513755	5138	144	0	-100	0	230	101300000	1000	0	0	-1	100
14526315	5148	143	0	-100	0	230	101300000	1000	0	0	-1	100
14538875	5142	147	0	-100	0	230	101300000	1000	0	0	-1	100
14551435	5147	143	0	-100	0	230	101300000	1000	0	0	-1	100
14563995	5138	144	0	-100	0	230	101300000	1000	0	0	-1	100
14576555	5148	143	0	-100	0	230	101300000	1000	0	0	-1	100
14589115	5141	147	0	-100	0	230	101300000	1000	0	0	-1	100
14601675	5147	141	0	-100	0	230	101300000	1000	0	0	-1	100
14614235	5140	149	0	-100	0	230	101300000	1000	0	0	-1	100
14626795	5148	142	0	-100	0	230	101300000	1000	0	0	-1	100
14639355	5137	150	0	-100	0	230	101300000	1000	0	0	-1	100
14651915	5148	143	0	-100	0	230	101300000	1000	0	0	-1	100
14664475	5138	149	0	-100	0	230	101300000	1000	0	0	-1	100
14677035	5147	143	0	-100	0	230	101300000	1000	0	0	-1	100
14689595	5145	143	0	-100	0	230	101300000	1000	0	0	-1	100
14702155	5144	149	0	-100	0	230	101300000	1000	0	0	-1	100
14714715	5145	143	0	-100	0	230	101300000	1000	0	0	-1	100
14727275	5145	147	0	-100	0	230	101300000	1000	0	0	-1	100
14739835	5142	147	0	-100	0	230	101300000	1000	0	0	-1	100
14752395	5149	144	0	-100	0	230	101300000	1000	0	0	-1	100
14764955	5143	147	0	-100	0	230	101300000	1000	0	0	-1	100
14777515	5149	147	0	-100	0	230	101300000	1000	0	0	-1	100
14790075	5144	144	0	-100	0	230	101300000	1000	0	0	-1	100
14802635	5154	144	0	-100	0	230	101300000	1000	0	0	-1	100
14815195	5138	150	0	-100	0	230	101300000	1000	0	0	-1	100
14827755	5144	146	0	-100	0	230	101300000	1000	0	0	-1	100
14840315	5147	142	0	-100	0	230	101300000	1000	0	0	-1	100
14852875	5154	144	0	-100	0	230	101300000	1000	0	0	-1	100
14865435	5143	147	0	-100	0	230	101300000	1000	0	0	-1	100
14877995	5142	143	0	-100	0	230	101300000	1000	0	0	-1	100
14890555	5143	145	0	-100	0	230	101300000	1000	0	0	-1	100
14903115	5147	141	0	-100	0	230	101300000	1000	0	0	-1	100
14915675	5145	147	0	-100	0	230	101300000	1000	0	0	-1	100
14928235	5140	148	0	-100	0	230	101300000	1000	0	0	-1	100
14940795	5153	142	0	-100	0	230	101300000	1000	0	0	-1	100
14953355	5142	149	0	-100	0	230	101300000	1000	0	0	-1	100
14965915	5147	143	0	-100	0	230	101300000	1000	0	0	-1	100
14978475	5146	146	0	-100	0	230	101300000	1000	0	0	-1	100
14991035	5141	147	0	-100	0	230	101300000	1000	0	0	-1	100
15003595	5149	141	0	-100	0	230	101300000	1000	0	0	-1	100
15016155	5140	150	0	-100	0	230	101300000	1000	0	0	-1	100
15028715	5148	142	0	-100	0	230	101300000	1000	0	0	-1	100
15041275	5144	148	0	-100	0	230	101300000	1000	0	0	-1	100
15053835	5137	147	0	-100	0	230	101300000	1000	0	0	-1	100
15066395	5148	143	0	-100	0	230	101300000	1000	0	0	-1	100
15078955	5141	147	0	-100	0	230	101300000	1000	0	0	-1	100
15091515	5142	146	0	-100	0	230	101300000	1000	0	0	-1	100
15104075	5148	146	0	-100	0	230	101300000	1000	0	0	-1	100
15116635	5142	150	0	-100	0	230	101300000	1000	0	0	-1	100
15129195	5149	143	0	-100	0	230	101300000	1000	0	0	-1	100
15141755	5141	146	0	-100	0	230	101300000	1000	0	0	-1	100
15154315	5145	144	0	-100	0	230	101300000	1000	0	0	-1	100
15166875	5148	144	0	-100	0	230	101300000	1000	0	0	-1	100
15179435	5135	148	0	-100	0	230	101300000	1000	0	0	-1	100
15191995	5148	149	0	-100	0	230	101300000	1000	0	0	-1	100
15204555	5138	151	0	-100	0	230	101300000	1000	0	0	-1	100
15217115	5143	144	0	-100	0	230	101300000	1000	0	0	-1	100
15229675	5140	147	0	-100	0	230	101300000	1000	0	0	-1	100
15242235	5140	144	0	-100	0	230	101300000	1000	0	0	-1	100
15254795	5152	143	0	-100	0	230	101300000	1000	0	0	-1	100
15267355	5141	148	0	-100	0	230	101300000	1000	0	0	-1	100
15279915	5147	143	0	-100	0	230	101300000	1000	0	0	-1	100
15292475	5143	147	0	-100	0	230	101300000	1000	0	0	-1	100
15305035	5141	147	0	-100	0	230	101300000	1000	0	0	-1	100
15317595	5150	145	0	-100	0	230	101300000	1000	0	0	-1	100
15330155	5146	150	0	-100	0	230	101300000	1000	0	0	-1	100
15342715	5145	141	0	-100	0	230	101300000	1000	0	0	-1	100
15355275	5143	150	0	-100	0	230	101300000	1000	0	0	-1	100
15367835	5144	143	0	-100	0	230	101300000	1000	0	0	-1	100
15380395	5138	147	0	-100	0	230	101300000	1000	0	0	-1	100
15392955	5143	146	0	-100	0	230	101300000	1000	0	0	-1	100
15405515	5144	142	0	-100	0	230	101300000	1000	0	0	-1	100
15418075	5144	148	0	-100	0	230	101300000	1000	0	0	-1	100
15430635	5143	144	0	-100	0	230	101300000	1000	0	0	-1	100
15443195	5148	144	0	-100	0	230	101300000	1000	0	0	-1	100
15455755	5143	151	0	-100	0	230	101300000	1000	0	0	-1	100
15468315	5144	144	0	-100	0	230	101300000	1000	0	0	-1	100
15480875	5145	148	0	-100	0	230	101300000	1000	0	0	-1	100
15493435	5142	143	0	-100	0	230	101300000	1000	0	0	-1	100
15505995	5145	151	0	-100	0	230	101300000	1000	0	0	-1	100
15518555	5143	148	0	-100	0	230	101300000	1000	0	0	-1	100
15531115	5138	144	0	-100	0	230	101300000	1000	0	0	-1	100
15543675	5145	144	0	-100	0	230	101300000	1000	0	0	-1	100
15556235	5147	150	0	-100	0	230	101300000	1000	0	0	-1	100
15568795	5148	143	0	-100	0	230	101300000	1000	0	0	-1	100
15581355	5143	147	0	-100	0	230	101300000	1000	0	0	-1	100
15593915	5145	149	0	-100	0	230	101300000	1000	0	0	-1	100
15606475	5143	142	0	-100	0	230	101300000	1000	0	0	-1	100
15619035	5145	144	0	-100	0	230	101300000	1000	0	0	-1	100
15631595	5145	148	0	-100	0	230	101300000	1000	0	0	-1	100
15644155	5144	144	0	-100	0	230	101300000	1000	0	0	-1	100
15656715	5147	147	0	-100	0	230	101300000	1000	0	0	-1	100
15669275	5141	148	0	-100	0	230	101300000	1000	0	0	-1	100
15681835	5145	142	0	-100	0	230	101300000	1000	0	0	-1	100
15694395	5144	148	0	-100	0	230	101300000	1000	0	0	-1	100
15706955	5149	144	0	-100	0	230	101300000	1000	0	0	-1	100
15719515	5143	152	0	-100	0	230	101300000	1000	0	0	-1	100
15732075	5149	143	0	-100	0	230	101300000	1000	0	0	-1	100
15744635	5139	150	0	-100	0	230	101300000	1000	0	0	-1	100
15757195	5148	140	0	-100	0	230	101300000	1000	0	0	-1	100
15769755	5145	151	0	-100	0	230	101300000	1000	0	0	-1	100
15782315	5145	143	0	-100	0	230	101300000	1000	0	0	-1	100
15794875	5140	146	0	-100	0	230	101300000	1000	0	0	-1	100
15807435	5148	145	0	-100	0	230	101300000	1000	0	0	-1	100
15819995	5141	143	0	-100	0	230	101300000	1000	0	0	-1	100
15832555	5147	142	0	-100	0	230	101300000	1000	0	0	-1	100
15845115	5140	148	0	-100	0	230	101300000	1000	0	0	-1	100
15857675	5140	145	0	-100	0	230	101300000	1000	0	0	-1	100
15870235	5150	144	0	-100	0	230	101300000	1000	0	0	-1	100
15882795	5141	147	0	-100	0	230	101300000	1000	0	0	-1	100
15895355	5145	143	0	-100	0	230	101300000	1000	0	0	-1	100
15907915	5147	151	0	-100	0	230	101300000	1000	0	0	-1	100
15920475	5147	143	0	-100	0	230	101300000	1000	0	0	-1	100
15933035	5141	149	0	-100	0	230	101300000	1000	0	0	-1	100
15945595	5149	142	0	-100	0	230	101300000	1000	0	0	-1	100
15958155	5137	148	0	-100	0	230	101300000	1000	0	0	-1	100
15970715	5142	142	0	-100	0	230	101300000	1000	0	0	-1	100
15983275	5149	144	0	-100	0	230	101300000	1000	0	0	-1	100
15995835	5144	150	0	-100	0	230	101300000	1000	0	0	-1	100
16008395	5147	143	0	-100	0	230	101300000	1000	0	0	-1	100
16020955	5143	147	0	-100	0	230	101300000	1000	0	0	-1	100
16033515	5140	145	0	-100	0	230	101300000	1000	0	0	-1	100
16046075	5144	141	0	-100	0	230	101300000	1000	0	0	-1	100
16058635	5141	148	0	-100	0	230	101300000	1000	0	0	-1	100
16071195	5144	142	0	-100	0	230	101300000	1000	0	0	-1	100
16083755	5143	145	0	-100	0	230	101300000	1000	0	0	-1	100
16096315	5137	149	0	-100	0	230	101300000	1000	0	0	-1	100
16108875	5153	143	0	-100	0	230	101300000	1000	0	0	-1	100
16121435	5142	147	0	-100	0	230	101300000	1000	0	0	-1	100
16133995	5144	150	0	-100	0	230	101300000	1000	0	0	-1	100
16146555	5143	149	0	-100	0	230	101300000	1000	0	0	-1	100
16159115	5149	143	0	-100	0	230	101300000	1000	0	0	-1	100
16171675	5142	147	0	-100	0	230	101300000	1000	0	0	-1	100
16184235	5141	143	0	-100	0	230	101300000	1000	0	0	-1	100
16196795	5147	145	0	-100	0	230	101300000	1000	0	0	-1	100
16209355	5143	145	0	-100	0	230	101300000	1000	0	0	-1	100
16221915	5144	143	0	-100	0	230	101300000	1000	0	0	-1	100
16234475	5142	145	0	-100	0	230	101300000	1000	0	0	-1	100
16247035	5141	148	0	-100	0	230	101300000	1000	0	0	-1	100
16259595	5143	143	0	-100	0	230	101300000	1000	0	0	-1	100
16272155	5141	147	0	-100	0	230	101300000	1000	0	0	-1	100
16284715	5144	145	0	-100	0	230	101300000	1000	0	0	-1	100
16297275	5141	146	0	-100	0	230	101300000	1000	0	0	-1	100
16309835	5140	148	0	-100	0	230	101300000	1000	0	0	-1	100
16322395	5148	143	0	-100	0	230	101300000	1000	0	0	-1	100
16334955	5143	145	0	-100	0	230	101300000	1000	0	0	-1	100
16347515	5150	143	0	-100	0	230	101300000	1000	0	0	-1	100
16360075	5140	147	0	-100	0	230	101300000	1000	0	0	-1	100
16372635	5148	144	0	-100	0	230	101300000	1000	0	0	-1	100
16385195	5144	150	0	-100	0	230	101300000	1000	0	0	-1	100
16397755	5146	144	0	-100	0	230	101300000	1000	0	0	-1	100
16410315	5141	147	0	-100	0	230	101300000	1000	0	0	-1	100
16422875	5138	148	0	-100	0	230	101300000	1000	0	0	-1	100
16435435	5150	143	0	-100	0	230	101300000	1000	0	0	-1	100
16447995	5141	143	0	-100	0	230	101300000	1000	0	0	-1	100
16460555	5140	149	0	-100	0	230	101300000	1000	0	0	-1	100
16473115	5147	143	0	-100	0	230	101300000	1000	0	0	-1	100
16485675	5147	149	0	-100	0	230	101300000	1000	0	0	-1	100
16498235	5150	140	0	-100	0	230	101300000	1000	0	0	-1	100
16510795	5141	147	0	-100	0	230	101300000	1000	0	0	-1	100
16523355	5147	143	0	-100	0	230	101300000	1000	0	0	-1	100
16535915	5142	143	0	-100	0	230	101300000	1000	0	0	-1	100
16548475	5144	147	0	-100	0	230	101300000	1000	0	0	-1	100
16561035	5143	143	0	-100	0	230	101300000	1000	0	0	-1	100
16573595	5140	150	0	-100	0	230	101300000	1000	0	0	-1	100
16586155	5145	142	0	-100	0	230	101300000	1000	0	0	-1	100
16598715	5143	148	0	-100	0	230	101300000	1000	0	0	-1	100
16611275	5147	143	0	-100	0	230	101300000	1000	0	0	-1	100
16623835	5141	153	0	-100	0	230	101300000	1000	0	0	-1	100
16636395	5142	142	0	-100	0	230	101300000	1000	0	0	-1	100
16648955	5138	150	0	-100	0	230	101300000	1000	0	0	-1	100
16661515	5148	143	0	-100	0	230	101300000	1000	0	0	-1	100
16674075	5142	151	0	-100	0	230	101300000	1000	0	0	-1	100
16686635	5141	144	0	-100	0	230	101300000	1000	0	0	-1	100
16699195	5143	147	0	-100	0	230	101300000	1000	0	0	-1	100
16711755	5145	143	0	-100	0	230	101300000	1000	0	0	-1	100
16724315	5146	145	0	-100	0	230	101300000	1000	0	0	-1	100
16736875	5139	144	0	-100	0	230	101300000	1000	0	0	-1	100
16749435	5141	147	0	-100	0	230	101300000	1000	0	0	-1	100
16761995	5136	145	0	-100	0	230	101300000	1000	0	0	-1	100
16774555	5142	147	0	-100	0	230	101300000	1000	0	0	-1	100
16787115	5145	143	0	-100	0	230	101300000	1000	0	0	-1	100
16799675	5140	148	0	-100	0	230	101300000	1000	0	0	-1	100
16812235	5144	143	0	-100	0	230	101300000	1000	0	0	-1	100
16824795	5139	149	0	-100	0	230	101300000	1000	0	0	-1	100
16837355	5148	142	0	-100	0	230	101300000	1000	0	0	-1	100
16849915	5143	150	0	-100	0	230	101300000	1000	0	0	-1	100
16862475	5148	143	0	-100	0	230	101300000	1000	0	0	-1	100
16875035	5140	151	0	-100	0	230	101300000	1000	0	0	-1	100
16887595	5149	143	0	-100	0	230	101300000	1000	0	0	-1	100
16900155	5143	149	0	-100	0	230	101300000	1000	0	0	-1	100
16912715	5150	140	0	-100	0	230	101300000	1000	0	0	-1	100
16925275	5143	151	0	-100	0	230	101300000	1000	0	0	-1	100
16937835	5147	144	0	-100	0	230	101300000	1000	0	0	-1	100
16950395	5140	151	0	-100	0	230	101300000	1000	0	0	-1	100
16962955	5142	142	0	-100	0	230	101300000	1000	0	0	-1	100
16975515	5147	147	0	-100	0	230	101300000	1000	0	0	-1	100
16988075	5139	148	0	-100	0	230	101300000	1000	0	0	-1	100
17000635	5145	141	0	-100	0	230	101300000	1000	0	0	-1	100
17013195	5147	149	0	-100	0	230	101300000	1000	0	0	-1	100
17025755	5145	142	0	-100	0	230	101300000	1000	0	0	-1	100
17038315	5148	145	0	-100	0	230	101300000	1000	0	0	-1	100
17050875	5142	144	0	-100	0	230	101300000	1000	0	0	-1	100
17063435	5148	143	0	-100	0	230	101300000	1000	0	0	-1	100
17075995	5148	144	0	-100	0	230	101300000	1000	0	0	-1	100
17088555	5146	143	0	-100	0	230	101300000	1000	0	0	-1	100
17101115	5141	151	0	-100	0	230	101300000	1000	0	0	-1	100
17113675	5146	143	0	-100	0	230	101300000	1000	0	0	-1	100
17126235	5143	149	0	-100	0	230	101300000	1000	0	0	-1	100
17138795	5149	142	0	-100	0	230	101300000	1000	0	0	-1	100
17151355	5142	147	0	-100	0	230	101300000	1000	0	0	-1	100
17163915	5141	144	0	-100	0	230	101300000	1000	0	0	-1	100
17176475	5149	143	0	-100	0	230	101300000	1000	0	0	-1	100
17189035	5139	146	0	-100	0	230	101300000	1000	0	0	-1	100
17201595	5143	145	0	-100	0	230	101300000	1000	0	0	-1	100
17214155	5137	147	0	-100	0	230	101300000	1000	0	0	-1	100
17226715	5149	143	0	-100	0	230	101300000	1000	0	0	-1	100
17239275	5142	149	0	-100	0	230	101300000	1000	0	0	-1	100
17251835	5145	144	0	-100	0	230	101300000	1000	0	0	-1	100
17264395	5147	147	0	-100	0	230	101300000	1000	0	0	-1	100
17276955	5144	140	0	-100	0	230	101300000	1000	0	0	-1	100
17289515	5142	148	0	-100	0	230	101300000	1000	0	0	-1	100
17302075	5144	144	0	-100	0	230	101300000	1000	0	0	-1	100
17314635	5139	147	0	-100	0	230	101300000	1000	0	0	-1	100
17327195	5148	143	0	-100	0	230	101300000	1000	0	0	-1	100
17339755	5147	148	0	-100	0	230	101300000	1000	0	0	-1	100
17352315	5149	144	0	-100	0	230	101300000	1000	0	0	-1	100
17364875	5145	148	0	-100	0	230	101300000	1000	0	0	-1	100
17377435	5149	144	0	-100	0	230	101300000	1000	0	0	-1	100
17389995	5142	144	0	-100	0	230	101300000	1000	0	0	-1	100
17402555	5143	144	0	-100	0	230	101300000	1000	0	0	-1	100
17415115	5140	148	0	-100	0	230	101300000	1000	0	0	-1	100
17427675	5144	142	0	-100	0	230	101300000	1000	0	0	-1	100
17440235	5147	145	0	-100	0	230	101300000	1000	0	0	-1	100
17452795	5143	147	0	-100	0	230	101300000	1000	0	0	-1	100
17465355	5149	142	0	-100	0	230	101300000	1000	0	0	-1	100
17477915	5147	149	0	-100	0	230	101300000	1000	0	0	-1	100
17490475	5148	143	0	-100	0	230	101300000	1000	0	0	-1	100
17503035	5144	146	0	-100	0	230	101300000	1000	0	0	-1	100
17515595	5145	142	0	-100	0	230	101300000	1000	0	0	-1	100
17528155	5144	147	0	-100	0	230	101300000	1000	0	0	-1	100
17540715	5145	143	0	-100	0	230	101300000	1000	0	0	-1	100
17553275	5149	144	0	-100	0	230	101300000	1000	0	0	-1	100
17565835	5143	148	0	-100	0	230	101300000	1000	0	0	-1	100
17578395	5145	143	0	-100	0	230	101300000	1000	0	0	-1	100
17590955	5141	147	0	-100	0	230	101300000	1000	0	0	-1	100
17603515	5138	148	0	-100	0	230	101300000	1000	0	0	-1	100
17616075	5143	145	0	-100	0	230	101300000	1000	0	0	-1	100
17628635	5143	147	0	-100	0	230	101300000	1000	0	0	-1	100
17641195	5140	147	0	-100	0	230	101300000	1000	0	0	-1	100
17653755	5147	142	0	-100	0	230	101300000	1000	0	0	-1	100
17666315	5140	150	0	-100	0	230	101300000	1000	0	0	-1	100
17678875	5147	143	0	-100	0	230	101300000	1000	0	0	-1	100
17691435	5145	149	0	-100	0	230	101300000	1000	0	0	-1	100
17703995	5147	146	0	-100	0	230	101300000	1000	0	0	-1	100
17716555	5141	150	0	-100	0	230	101300000	1000	0	0	-1	100
17729115	5142	143	0	-100	0	230	101300000	1000	0	0	-1	100
17741675	5145	141	0	-100	0	230	101300000	1000	0	0	-1	100
17754235	5142	150	0	-100	0	230	101300000	1000	0	0	-1	100
17766795	5142	147	0	-100	0	230	101300000	1000	0	0	-1	100
17779355	5153	142	0	-100	0	230	101300000	1000	0	0	-1	100
17791915	5143	146	0	-100	0	230	101300000	1000	0	0	-1	100
17804475	5144	151	0	-100	0	230	101300000	1000	0	0	-1	100
17817035	5137	148	0	-100	0	230	101300000	1000	0	0	-1	100
17829595	5138	143	0	-100	0	230	101300000	1000	0	0	-1	100
17842155	5145	144	0	-100	0	230	101300000	1000	0	0	-1	100
17854715	5147	140	0	-100	0	230	101300000	1000	0	0	-1	100
17867275	5147	144	0	-100	0	230	101300000	1000	0	0	-1	100
17879835	5142	143	0	-100	0	230	101300000	1000	0	0	-1	100
17892395	5141	148	0	-100	0	230	101300000	1000	0	0	-1	100
17904955	5138	151	0	-100	0	230	101300000	1000	0	0	-1	100
17917515	5143	144	0	-100	0	230	101300000	1000	0	0	-1	100
17930075	5151	144	0	-100	0	230	101300000	1000	0	0	-1	100
17942635	5140	151	0	-100	0	230	101300000	1000	0	0	-1	100
17955195	5147	143	0	-100	0	230	101300000	1000	0	0	-1	100
17967755	5140	149	0	-100	0	230	101300000	1000	0	0	-1	100
17980315	5135	148	0	-100	0	230	101300000	1000	0	0	-1	100
17992875	5149	142	0	-100	0	230	101300000	1000	0	0	-1	100
18005435	5151	141	0	-100	0	230	101300000	1000	0	0	-1	100
18017995	5143	148	0	-100	0	230	101300000	1000	0	0	-1	100
18030555	5138	150	0	-100	0	230	101300000	1000	0	0	-1	100
18043115	5142	146	0	-100	0	230	101300000	1000	0	0	-1	100
18055675	5142	143	0	-100	0	230	101300000	1000	0	0	-1	100
18068235	5149	141	0	-100	0	230	101300000	1000	0	0	-1	100
18080795	5140	147	0	-100	0	230	101300000	1000	0	0	-1	100
18093355	5147	150	0	-100	0	230	101300000	1000	0	0	-1	100
18105915	5136	147	0	-100	0	230	101300000	1000	0	0	-1	100
18118475	5144	143	0	-100	0	230	101300000	1000	0	0	-1	100
18131035	5148	144	0	-100	0	230	101300000	1000	0	0	-1	100
18143595	5138	147	0	-100	0	230	101300000	1000	0	0	-1	100
18156155	5142	145	0	-100	0	230	101300000	1000	0	0	-1	100
18168715	5145	143	0	-100	0	230	101300000	1000	0	0	-1	100
18181275	5140	147	0	-100	0	230	101300000	1000	0	0	-1	100
18193835	5141	152	0	-100	0	230	101300000	1000	0	0	-1	100
18206395	5142	144	0	-100	0	230	101300000	1000	0	0	-1	100
18218955	5144	143	0	-100	0	230	101300000	1000	0	0	-1	100
18231515	5136	149	0	-100	0	230	101300000	1000	0	0	-1	100
18244075	5135	146	0	-100	0	230	101300000	1000	0	0	-1	100
18256635	5147	143	0	-100	0	230	101300000	1000	0	0	-1	100
18269195	5139	147	0	-100	0	230	101300000	1000	0	0	-1	100
18281755	5137	151	0	-100	0	230	101300000	1000	0	0	-1	100
18294315	5137	142	0	-100	0	230	101300000	1000	0	0	-1	100
18306875	5142	143	0	-100	0	230	101300000	1000	0	0	-1	100
18319435	5136	151	0	-100	0	230	101300000	1000	0	0	-1	100
18331995	5141	144	0	-100	0	230	101300000	1000	0	0	-1	100
18344555	5144	143	0	-100	0	230	101300000	1000	0	0	-1	100
18357115	5134	149	0	-100	0	230	101300000	1000	0	0	-1	100
18369675	5139	143	0	-100	0	230	101300000	1000	0	0	-1	100
18382235	5138	142	0	-100	0	230	101300000	1000	0	0	-1	100
18394795	5135	148	0	-100	0	230	101300000	1000	0	0	-1	100
18407355	5132	146	0	-100	0	230	101300000	1000	0	0	-1	100
18419915	5142	143	0	-100	0	230	101300000	1000	0	0	-1	100
18432475	5141	146	0	-100	0	230	101300000	1000	0	0	-1	100
18445035	5142	149	0	-100	0	230	101300000	1000	0	0	-1	100
18457595	5142	142	0	-100	0	230	101300000	1000	0	0	-1	100
18470155	5138	145	0	-100	0	230	101300000	1000	0	0	-1	100
18482715	5142	151	0	-100	0	230	101300000	1000	0	0	-1	100
18495275	5139	142	0	-100	0	230	101300000	1000	0	0	-1	100
18507835	5143	141	0	-100	0	230	101300000	1000	0	0	-1	100
18520395	5136	148	0	-100	0	230	101300000	1000	0	0	-1	100
18532955	5135	151	0	-100	0	230	101300000	1000	0	0	-1	100
18545515	5136	152	0	-100	0	230	101300000	1000	0	0	-1	100
18558075	5137	144	0	-100	0	230	101300000	1000	0	0	-1	100
18570635	5143	143	0	-100	0	230	101300000	1000	0	0	-1	100
18583195	5147	143	0	-100	0	230	101300000	1000	0	0	-1	100
18595755	5135	148	0	-100	0	230	101300000	1000	0	0	-1	100
18608315	5135	151	0	-100	0	230	101300000	1000	0	0	-1	100
18620875	5137	143	0	-100	0	230	101300000	1000	0	0	-1	100
18633435	5151	143	0	-100	0	230	101300000	1000	0	0	-1	100
18645995	5137	141	0	-100	0	230	101300000	1000	0	0	-1	100
18658555	5140	144	0	-100	0	230	101300000	1000	0	0	-1	100
18671115	5135	147	0	-100	0	230	101300000	1000	0	0	-1	100
18683675	5138	146	0	-100	0	230	101300000	1000	0	0	-1	100
18696235	5142	145	0	-100	0	230	101300000	1000	0	0	-1	100
18708795	5137	147	0	-100	0	230	101300000	1000	0	0	-1	100
18721355	5138	147	0	-100	0	230	101300000	1000	0	0	-1	100
18733915	5142	141	0	-100	0	230	101300000	1000	0	0	-1	100
18746475	5134	148	0	-100	0	230	101300000	1000	0	0	-1	100
18759035	5137	146	0	-100	0	230	101300000	1000	0	0	-1	100
18771595	5139	142	0	-100	0	230	101300000	1000	0	0	-1	100
18784155	5135	146	0	-100	0	230	101300000	1000	0	0	-1	100
18796715	5141	151	0	-100	0	230	101300000	1000	0	0	-1	100
18809275	5138	144	0	-100	0	230	101300000	1000	0	0	-1	100
18821835	5147	142	0	-100	0	230	101300000	1000	0	0	-1	100
18834395	5139	150	0	-100	0	230	101300000	1000	0	0	-1	100
18846955	5133	147	0	-100	0	230	101300000	1000	0	0	-1	100
18859515	5148	141	0	-100	0	230	101300000	1000	0	0	-1	100
18872075	5143	143	0	-100	0	230	101300000	1000	0	0	-1	100
18884635	5138	149	0	-100	0	230	101300000	1000	0	0	-1	100
18897195	5140	147	0	-100	0	230	101300000	1000	0	0	-1	100
18909755	5139	143	0	-100	0	230	101300000	1000	0	0	-1	100
18922315	5148	143	0	-100	0	230	101300000	1000	0	0	-1	100
18934875	5135	148	0	-100	0	230	101300000	1000	0	0	-1	100
18947435	5138	147	0	-100	0	230	101300000	1000	0	0	-1	100
18959995	5141	148	0	-100	0	230	101300000	1000	0	0	-1	100
18972555	5142	143	0	-100	0	230	101300000	1000	0	0	-1	100
18985115	5135	151	0	-100	0	230	101300000	1000	0	0	-1	100
18997675	5141	143	0	-100	0	230	101300000	1000	0	0	-1	100
19010235	5142	142	0	-100	0	230	101300000	1000	0	0	-1	100
19022795	5138	148	0	-100	0	230	101300000	1000	0	0	-1	100
19035355	5136	146	0	-100	0	230	101300000	1000	0	0	-1	100
19047915	5143	142	0	-100	0	230	101300000	1000	0	0	-1	100
19060475	5146	145	0	-100	0	230	101300000	1000	0	0	-1	100
19073035	5138	150	0	-100	0	230	101300000	1000	0	0	-1	100
19085595	5140	147	0	-100	0	230	101300000	1000	0	0	-1	100
19098155	5142	142	0	-100	0	230	101300000	1000	0	0	-1	100
19110715	5143	145	0	-100	0	230	101300000	1000	0	0	-1	100
19123275	5140	148	0	-100	0	230	101300000	1000	0	0	-1	100
19135835	5139	148	0	-100	0	230	101300000	1000	0	0	-1	100
19148395	5141	143	0	-100	0	230	101300000	1000	0	0	-1	100
19160955	5144	145	0	-100	0	230	101300000	1000	0	0	-1	100
19173515	5138	149	0	-100	0	230	101300000	1000	0	0	-1	100
19186075	5133	144	0	-100	0	230	101300000	1000	0	0	-1	100
19198635	5143	143	0	-100	0	230	101300000	1000	0	0	-1	100
19211195	5141	147	0	-100	0	230	101300000	1000	0	0	-1	100
19223755	5141	150	0	-100	0	230	101300000	1000	0	0	-1	100
19236315	5135	147	0	-100	0	230	101300000	1000	0	0	-1	100
19248875	5145	143	0	-100	0	230	101300000	1000	0	0	-1	100
19261435	5140	145	0	-100	0	230	101300000	1000	0	0	-1	100
19273995	5141	144	0	-100	0	230	101300000	1000	0	0	-1	100
19286555	5139	146	0	-100	0	230	101300000	1000	0	0	-1	100
19299115	5141	143	0	-100	0	230	101300000	1000	0	0	-1	100
19311675	5145	144	0	-100	0	230	101300000	1000	0	0	-1	100
19324235	5136	148	0	-100	0	230	101300000	1000	0	0	-1	100
19336795	5137	146	0	-100	0	230	101300000	1000	0	0	-1	100
19349355	5140	143	0	-100	0	230	101300000	1000	0	0	-1	100
19361915	5149	144	0	-100	0	230	101300000	1000	0	0	-1	100
19374475	5136	149	0	-100	0	230	101300000	1000	0	0	-1	100
19387035	5138	149	0	-100	0	230	101300000	1000	0	0	-1	100
19399595	5136	147	0	-100	0	230	101300000	1000	0	0	-1	100
19412155	5138	143	0	-100	0	230	101300000	1000	0	0	-1	100
19424715	5141	143	0	-100	0	230	101300000	1000	0	0	-1	100
19437275	5143	144	0	-100	0	230	101300000	1000	0	0	-1	100
19449835	5147	145	0	-100	0	230	101300000	1000	0	0	-1	100
19462395	5134	149	0	-100	0	230	101300000	1000	0	0	-1	100
19474955	5140	151	0	-100	0	230	101300000	1000	0	0	-1	100
19487515	5139	147	0	-100	0	230	101300000	1000	0	0	-1	100
19500075	5137	143	0	-100	0	230	101300000	1000	0	0	-1	100
19512635	5148	144	0	-100	0	230	101300000	1000	0	0	-1	100
19525195	5143	145	0	-100	0	230	101300000	1000	0	0	-1	100
19537755	5137	147	0	-100	0	230	101300000	1000	0	0	-1	100
19550315	5141	151	0	-100	0	230	101300000	1000	0	0	-1	100
19562875	5133	145	0	-100	0	230	101300000	1000	0	0	-1	100
19575435	5145	143	0	-100	0	230	101300000	1000	0	0	-1	100
19587995	5146	151	0	-100	0	230	101300000	1000	0	0	-1	100
19600555	5136	147	0	-100	0	230	101300000	1000	0	0	-1	100
19613115	5143	149	0	-100	0	230	101300000	1000	0	0	-1	100
19625675	5138	142	0	-100	0	230	101300000	1000	0	0	-1	100
19638235	5146	143	0	-100	0	230	101300000	1000	0	0	-1	100
19650795	5142	145	0	-100	0	230	101300000	1000	0	0	-1	100
19663355	5138	148	0	-100	0	230	101300000	1000	0	0	-1	100
19675915	5136	149	0	-100	0	230	101300000	1000	0	0	-1	100
19688475	5137	147	0	-100	0	230	101300000	1000	0	0	-1	100
19701035	5136	149	0	-100	0	230	101300000	1000	0	0	-1	100
19713595	5143	143	0	-100	0	230	101300000	1000	0	0	-1	100
19726155	5146	142	0	-100	0	230	101300000	1000	0	0	-1	100
19738715	5141	146	0	-100	0	230	101300000	1000	0	0	-1	100
19751275	5141	149	0	-100	0	230	101300000	1000	0	0	-1	100
19763835	5141	150	0	-100	0	230	101300000	1000	0	0	-1	100
19776395	5137	147	0	-100	0	230	101300000	1000	0	0	-1	100
19788955	5138	143	0	-100	0	230	101300000	1000	0	0	-1	100
19801515	5145	142	0	-100	0	230	101300000	1000	0	0	-1	100
19814075	5147	143	0	-100	0	230	101300000	1000	0	0	-1	100
19826635	5138	150	0	-100	0	230	101300000	1000	0	0	-1	100
19839195	5141	150	0	-100	0	230	101300000	1000	0	0	-1	100
19851755	5138	143	0	-100	0	230	101300000	1000	0	0	-1	100
19864315	5143	143	0	-100	0	230	101300000	1000	0	0	-1	100
19876875	5147	144	0	-100	0	230	101300000	1000	0	0	-1	100
19889435	5137	151	0	-100	0	230	101300000	1000	0	0	-1	100
19901995	5143	141	0	-100	0	230	101300000	1000	0	0	-1	100
19914555	5145	142	0	-100	0	230	101300000	1000	0	0	-1	100
19927115	5147	143	0	-100	0	230	101300000	1000	0	0	-1	100
19939675	5149	143	0	-100	0	230	101300000	1000	0	0	-1	100
19952235	5146	146	0	-100	0	230	101300000	1000	0	0	-1	100
19964795	5142	150	0	-100	0	230	101300000	1000	0	0	-1	100
19977355	5141	151	0	-100	0	230	101300000	1000	0	0	-1	100
19989915	5139	151	0	-100	0	230	101300000	1000	0	0	-1	100
20002475	5145	152	0	-100	0	230	101300000	1000	0	0	-1	100
20015035	5141	146	0	-100	0	230	101300000	1000	0	0	-1	100
20027595	5140	147	0	-100	0	230	101300000	1000	0	0	-1	100
20040155	5142	143	0	-100	0	230	101300000	1000	0	0	-1	100
20052715	5147	143	0	-100	0	230	101300000	1000	0	0	-1	100
20065275	5146	143	0	-100	0	230	101300000	1000	0	0	-1	100
20077835	5146	141	0	-100	0	230	101300000	1000	0	0	-1	100
20090395	5149	144	0	-100	0	230	101300000	1000	0	0	-1	100
20102955	5134	149	0	-100	0	230	101300000	1000	0	0	-1	100
20115515	5142	151	0	-100	0	230	101300000	1000	0	0	-1	100
20128075	5142	152	0	-100	0	230	101300000	1000	0	0	-1	100
20140635	5140	147	0	-100	0	230	101300000	1000	0	0	-1	100
20153195	5143	144	0	-100	0	230	101300000	1000	0	0	-1	100
20165755	5147	142	0	-100	0	230	101300000	1000	0	0	-1	100
20178315	5148	143	0	-100	0	230	101300000	1000	0	0	-1	100
20190875	5137	147	0	-100	0	230	101300000	1000	0	0	-1	100
20203435	5139	151	0	-100	0	230	101300000	1000	0	0	-1	100
20215995	5140	141	0	-100	0	230	101300000	1000	0	0	-1	100
20228555	5141	143	0	-100	0	230	101300000	1000	0	0	-1	100
20241115	5147	143	0	-100	0	230	101300000	1000	0	0	-1	100
20253675	5150	143	0	-100	0	230	101300000	1000	0	0	-1	100
20266235	5139	151	0	-100	0	230	101300000	1000	0	0	-1	100
20278795	5138	148	0	-100	0	230	101300000	1000	0	0	-1	100
20291355	5143	143	0	-100	0	230	101300000	1000	0	0	-1	100
20303915	5147	142	0	-100	0	230	101300000	1000	0	0	-1	100
20316475	5147	143	0	-100	0	230	101300000	1000	0	0	-1	100
20329035	5142	151	0	-100	0	230	101300000	1000	0	0	-1	100
20341595	5145	142	0	-100	0	230	101300000	1000	0	0	-1	100
20354155	5139	148	0	-100	0	230	101300000	1000	0	0	-1	100
20366715	5143	142	0	-100	0	230	101300000	1000	0	0	-1	100
20379275	5143	146	0	-100	0	230	101300000	1000	0	0	-1	100
20391835	5137	147	0	-100	0	230	101300000	1000	0	0	-1	100
20404395	5145	143	0	-100	0	230	101300000	1000	0	0	-1	100
20416955	5139	147	0	-100	0	230	101300000	1000	0	0	-1	100
20429515	5141	143	0	-100	0	230	101300000	1000	0	0	-1	100
20442075	5142	144	0	-100	0	230	101300000	1000	0	0	-1	100
20454635	5142	146	0	-100	0	230	101300000	1000	0	0	-1	100
20467195	5148	142	0	-100	0	230	101300000	1000	0	0	-1	100
20479755	5143	150	0	-100	0	230	101300000	1000	0	0	-1	100
20492315	5145	143	0	-100	0	230	101300000	1000	0	0	-1	100
20504875	5143	147	0	-100	0	230	101300000	1000	0	0	-1	100
20517435	5137	145	0	-100	0	230	101300000	1000	0	0	-1	100
20529995	5149	150	0	-100	0	230	101300000	1000	0	0	-1	100
20542555	5142	150	0	-100	0	230	101300000	1000	0	0	-1	100
20555115	5144	144	0	-100	0	230	101300000	1000	0	0	-1	100
20567675	5149	144	0	-100	0	230	101300000	1000	0	0	-1	100
20580235	5146	150	0	-100	0	230	101300000	1000	0	0	-1	100
20592795	5145	142	0	-100	0	230	101300000	1000	0	0	-1	100
20605355	5145	148	0	-100	0	230	101300000	1000	0	0	-1	100
20617915	5140	144	0	-100	0	230	101300000	1000	0	0	-1	100
20630475	5147	145	0	-100	0	230	101300000	1000	0	0	-1	100
20643035	5137	149	0	-100	0	230	101300000	1000	0	0	-1	100
20655595	5145	142	0	-100	0	230	101300000	1000	0	0	-1	100
20668155	5145	147	0	-100	0	230	101300000	1000	0	0	-1	100
20680715	5139	148	0	-100	0	230	101300000	1000	0	0	-1	100
20693275	5144	139	0	-100	0	230	101300000	1000	0	0	-1	100
20705835	5137	150	0	-100	0	230	101300000	1000	0	0	-1	100
20718395	5148	144	0	-100	0	230	101300000	1000	0	0	-1	100
20730955	5149	142	0	-100	0	230	101300000	1000	0	0	-1	100
20743515	5142	149	0	-100	0	230	101300000	1000	0	0	-1	100
20756075	5140	142	0	-100	0	230	101300000	1000	0	0	-1	100
20768635	5149	143	0	-100	0	230	101300000	1000	0	0	-1	100
20781195	5142	150	0	-100	0	230	101300000	1000	0	0	-1	100
20793755	5143	143	0	-100	0	230	101300000	1000	0	0	-1	100
20806315	5145	146	0	-100	0	230	101300000	1000	0	0	-1	100
20818875	5141	148	0	-100	0	230	101300000	1000	0	0	-1	100
20831435	5148	144	0	-100	0	230	101300000	1000	0	0	-1	100
20843995	5142	149	0	-100	0	230	101300000	1000	0	0	-1	100
20856555	5143	146	0	-100	0	230	101300000	1000	0	0	-1	100
20869115	5143	144	0	-100	0	230	101300000	1000	0	0	-1	100
20881675	5142	147	0	-100	0	230	101300000	1000	0	0	-1	100
20894235	5140	147	0	-100	0	230	101300000	1000	0	0	-1	100
20906795	5145	140	0	-100	0	230	101300000	1000	0	0	-1	100
20919355	5142	151	0	-100	0	230	101300000	1000	0	0	-1	100
20931915	5142	145	0	-100	0	230	101300000	1000	0	0	-1	100
20944475	5140	150	0	-100	0	230	101300000	1000	0	0	-1	100
20957035	5145	143	0	-100	0	230	101300000	1000	0	0	-1	100
20969595	5141	149	0	-100	0	230	101300000	1000	0	0	-1	100
20982155	5147	144	0	-100	0	230	101300000	1000	0	0	-1	100
20994715	5142	147	0	-100	0	230	101300000	1000	0	0	-1	100
21007275	5141	147	0	-100	0	230	101300000	1000	0	0	-1	100
21019835	5145	144	0	-100	0	230	101300000	1000	0	0	-1	100
21032395	5142	151	0	-100	0	230	101300000	1000	0	0	-1	100
21044955	5146	143	0	-100	0	230	101300000	1000	0	0	-1	100
21057515	5142	150	0	-100	0	230	101300000	1000	0	0	-1	100
21070075	5144	143	0	-100	0	230	101300000	1000	0	0	-1	100
21082635	5142	151	0	-100	0	230	101300000	1000	0	0	-1	100
21095195	5148	143	0	-100	0	230	101300000	1000	0	0	-1	100
21107755	5142	148	0	-100	0	230	101300000	1000	0	0	-1	100
21120315	5141	143	0	-100	0	230	101300000	1000	0	0	-1	100
21132875	5148	144	0	-100	0	230	101300000	1000	0	0	-1	100
21145435	5141	146	0	-100	0	230	101300000	1000	0	0	-1	100
21157995	5149	149	0	-100	0	230	101300000	1000	0	0	-1	100
21170555	5146	149	0	-100	0	230	101300000	1000	0	0	-1	100
21183115	5151	143	0	-100	0	230	101300000	1000	0	0	-1	100
21195675	5144	147	0	-100	0	230	101300000	1000	0	0	-1	100
21208235	5141	149	0	-100	0	230	101300000	1000	0	0	-1	100
21220795	5149	141	0	-100	0	230	101300000	1000	0	0	-1	100
21233355	5138	151	0	-100	0	230	101300000	1000	0	0	-1	100
21245915	5140	143	0	-100	0	230	101300000	1000	0	0	-1	100
21258475	5144	142	0	-100	0	230	101300000	1000	0	0	-1	100
21271035	5142	149	0	-100	0	230	101300000	1000	0	0	-1	100
21283595	5141	147	0	-100	0	230	101300000	1000	0	0	-1	100
21296155	5153	143	0	-100	0	230	101300000	1000	0	0	-1	100
21308715	5145	146	0	-100	0	230	101300000	1000	0	0	-1	100
21321275	5144	147	0	-100	0	230	101300000	1000	0	0	-1	100
21333835	5144	145	0	-100	0	230	101300000	1000	0	0	-1	100
21346395	5140	146	0	-100	0	230	101300000	1000	0	0	-1	100
21358955	5145	151	0	-100	0	230	101300000	1000	0	0	-1	100
21371515	5147	143	0	-100	0	230	101300000	1000	0	0	-1	100
21384075	5142	149	0	-100	0	230	101300000	1000	0	0	-1	100
21396635	5138	144	0	-100	0	230	101300000	1000	0	0	-1	100
21409195	5144	143	0	-100	0	230	101300000	1000	0	0	-1	100
21421755	5148	145	0	-100	0	230	101300000	1000	0	0	-1	100
21434315	5149	151	0	-100	0	230	101300000	1000	0	0	-1	100
21446875	5150	147	0	-100	0	230	101300000	1000	0	0	-1	100
21459435	5150	142	0	-100	0	230	101300000	1000	0	0	-1	100
21471995	5156	152	0	-100	0	230	101300000	1000	0	0	-1	100
21484555	5147	150	0	-100	0	230	101300000	1000	0	0	-1	100
21497115	5151	142	0	-100	0	230	101300000	1000	0	0	-1	100
21509675	5151	142	0	-100	0	230	101300000	1000	0	0	-1	100
21522235	5157	143	0	-100	0	230	101300000	1000	0	0	-1	100
21534795	5154	150	0	-100	0	230	101300000	1000	0	0	-1	100
21547355	5154	142	0	-100	0	230	101300000	1000	0	0	-1	100
21559915	5151	146	0	-100	0	230	101300000	1000	0	0	-1	100
21572475	5153	147	0	-100	0	230	101300000	1000	0	0	-1	100
21585035	5155	144	0	-100	0	230	101300000	1000	0	0	-1	100
21597595	5148	147	0	-100	0	230	101300000	1000	0	0	-1	100
21610155	5144	149	0	-100	0	230	101300000	1000	0	0	-1	100
21622715	5157	143	0	-100	0	230	101300000	1000	0	0	-1	100
21635275	5150	149	0	-100	0	230	101300000	1000	0	0	-1	100
21647835	5150	144	0	-100	0	230	101300000	1000	0	0	-1	100
21660395	5159	143	0	-100	0	230	101300000	1000	0	0	-1	100
21672955	5148	151	0	-100	0	230	101300000	1000	0	0	-1	100
21685515	5155	143	0	-100	0	230	101300000	1000	0	0	-1	100
21698075	5144	150	0	-100	0	230	101300000	1000	0	0	-1	100
21710635	5151	146	0	-100	0	230	101300000	1000	0	0	-1	100
21723195	5156	140	0	-100	0	230	101300000	1000	0	0	-1	100
21735755	5154	149	0	-100	0	230	101300000	1000	0	0	-1	100
21748315	5153	143	0	-100	0	230	101300000	1000	0	0	-1	100
21760875	5156	143	0	-100	0	230	101300000	1000	0	0	-1	100
21773435	5148	151	0	-100	0	230	101300000	1000	0	0	-1	100
21785995	5150	143	0	-100	0	230	101300000	1000	0	0	-1	100
21798555	5153	143	0	-100	0	230	101300000	1000	0	0	-1	100
21811115	5151	150	0	-100	0	230	101300000	1000	0	0	-1	100
21823675	5154	143	0	-100	0	230	101300000	1000	0	0	-1	100
21836235	5151	146	0	-100	0	230	101300000	1000	0	0	-1	100
21848795	5152	146	0	-100	0	230	101300000	1000	0	0	-1	100
21861355	5151	142	0	-100	0	230	101300000	1000	0	0	-1	100
21873915	5160	142	0	-100	0	230	101300000	1000	0	0	-1	100
21886475	5153	148	0	-100	0	230	101300000	1000	0	0	-1	100
21899035	5149	148	0	-100	0	230	101300000	1000	0	0	-1	100
21911595	5153	143	0	-100	0	230	101300000	1000	0	0	-1	100
21924155	5151	147	0	-100	0	230	101300000	1000	0	0	-1	100
21936715	5147	147	0	-100	0	230	101300000	1000	0	0	-1	100
21949275	5152	145	0	-100	0	230	101300000	1000	0	0	-1	100
21961835	5148	143	0	-100	0	230	101300000	1000	0	0	-1	100
21974395	5151	143	0	-100	0	230	101300000	1000	0	0	-1	100
21986955	5150	143	0	-100	0	230	101300000	1000	0	0	-1	100
21999515	5150	143	0	-100	0	230	101300000	1000	0	0	-1	100
22012075	5156	141	0	-100	0	230	101300000	1000	0	0	-1	100
22024635	5154	144	0	-100	0	230	101300000	1000	0	0	-1	100
22037195	5152	150	0	-100	0	230	101300000	1000	0	0	-1	100
22049755	5151	147	0	-100	0	230	101300000	1000	0	0	-1	100
22062315	5148	143	0	-100	0	230	101300000	1000	0	0	-1	100
22074875	5153	144	0	-100	0	230	101300000	1000	0	0	-1	100
22087435	5154	144	0	-100	0	230	101300000	1000	0	0	-1	100
22099995	5148	143	0	-100	0	230	101300000	1000	0	0	-1	100
22112555	5150	149	0	-100	0	230	101300000	1000	0	0	-1	100
22125115	5146	146	0	-100	0	230	101300000	1000	0	0	-1	100
22137675	5150	144	0	-100	0	230	101300000	1000	0	0	-1	100
22150235	5154	142	0	-100	0	230	101300000	1000	0	0	-1	100
22162795	5154	144	0	-100	0	230	101300000	1000	0	0	-1	100
22175355	5147	147	0	-100	0	230	101300000	1000	0	0	-1	100
22187915	5145	151	0	-100	0	230	101300000	1000	0	0	-1	100
22200475	5143	147	0	-100	0	230	101300000	1000	0	0	-1	100
22213035	5150	144	0	-100	0	230	101300000	1000	0	0	-1	100
22225595	5150	143	0	-100	0	230	101300000	1000	0	0	-1	100
22238155	5153	144	0	-100	0	230	101300000	1000	0	0	-1	100
22250715	5152	145	0	-100	0	230	101300000	1000	0	0	-1	100
22263275	5148	148	0	-100	0	230	101300000	1000	0	0	-1	100
22275835	5144	150	0	-100	0	230	101300000	1000	0	0	-1	100
22288395	5148	151	0	-100	0	230	101300000	1000	0	0	-1	100
22300955	5144	151	0	-100	0	230	101300000	1000	0	0	-1	100
22313515	5153	147	0	-100	0	230	101300000	1000	0	0	-1	100
22326075	5145	147	0	-100	0	230	101300000	1000	0	0	-1	100
22338635	5147	148	0	-100	0	230	101300000	1000	0	0	-1	100
22351195	5148	144	0	-100	0	230	101300000	1000	0	0	-1	100
22363755	5149	144	0	-100	0	230	101300000	1000	0	0	-1	100
22376315	5148	143	0	-100	0	230	101300000	1000	0	0	-1	100
22388875	5148	143	0	-100	0	230	101300000	1000	0	0	-1	100
22401435	5146	147	0	-100	0	230	101300000	1000	0	0	-1	100
22413995	5147	143	0	-100	0	230	101300000	1000	0	0	-1	100
22426555	5150	143	0	-100	0	230	101300000	1000	0	0	-1	100
22439115	5154	143	0	-100	0	230	101300000	1000	0	0	-1	100
22451675	5160	143	0	-100	0	230	101300000	1000	0	0	-1	100
22464235	5157	143	0	-100	0	230	101300000	1000	0	0	-1	100
22476795	5152	144	0	-100	0	230	101300000	1000	0	0	-1	100
22489355	5150	148	0	-100	0	230	101300000	1000	0	0	-1	100
22501915	5149	147	0	-100	0	230	101300000	1000	0	0	-1	100
22514475	5149	141	0	-100	0	230	101300000	1000	0	0	-1	100
22527035	5151	141	0	-100	0	230	101300000	1000	0	0	-1	100
22539595	5153	145	0	-100	0	230	101300000	1000	0	0	-1	100
22552155	5147	148	0	-100	0	230	101300000	1000	0	0	-1	100
22564715	5147	151	0	-100	0	230	101300000	1000	0	0	-1	100
22577275	5148	147	0	-100	0	230	101300000	1000	0	0	-1	100
22589835	5148	143	0	-100	0	230	101300000	1000	0	0	-1	100
22602395	5150	143	0	-100	0	230	101300000	1000	0	0	-1	100
22614955	5150	141	0	-100	0	230	101300000	1000	0	0	-1	100
22627515	5157	143	0	-100	0	230	101300000	1000	0	0	-1	100
22640075	5152	148	0	-100	0	230	101300000	1000	0	0	-1	100
22652635	5148	148	0	-100	0	230	101300000	1000	0	0	-1	100
22665195	5150	150	0	-100	0	230	101300000	1000	0	0	-1	100
22677755	5152	151	0	-100	0	230	101300000	1000	0	0	-1	100
22690315	5148	146	0	-100	0	230	101300000	1000	0	0	-1	100
22702875	5149	143	0	-100	0	230	101300000	1000	0	0	-1	100
22715435	5149	142	0	-100	0	230	101300000	1000	0	0	-1	100
22727995	5155	149	0	-100	0	230	101300000	1000	0	0	-1	100
22740555	5147	148	0	-100	0	230	101300000	1000	0	0	-1	100
22753115	5148	151	0	-100	0	230	101300000	1000	0	0	-1	100
22765675	5150	143	0	-100	0	230	101300000	1000	0	0	-1	100
22778235	5156	140	0	-100	0	230	101300000	1000	0	0	-1	100
22790795	5153	145	0	-100	0	230	101300000	1000	0	0	-1	100
22803355	5147	151	0	-100	0	230	101300000	1000	0	0	-1	100
22815915	5149	143	0	-100	0	230	101300000	1000	0	0	-1	100
22828475	5153	143	0	-100	0	230	101300000	1000	0	0	-1	100
22841035	5150	147	0	-100	0	230	101300000	1000	0	0	-1	100
22853595	5153	149	0	-100	0	230	101300000	1000	0	0	-1	100
22866155	5151	143	0	-100	0	230	101300000	1000	0	0	-1	100
22878715	5154	143	0	-100	0	230	101300000	1000	0	0	-1	100
22891275	5154	144	0	-100	0	230	101300000	1000	0	0	-1	100
22903835	5148	147	0	-100	0	230	101300000	1000	0	0	-1	100
22916395	5150	151	0	-100	0	230	101300000	1000	0	0	-1	100
22928955	5149	148	0	-100	0	230	101300000	1000	0	0	-1	100
22941515	5152	142	0	-100	0	230	101300000	1000	0	0	-1	100
22954075	5158	144	0	-100	0	230	101300000	1000	0	0	-1	100
22966635	5157	143	0	-100	0	230	101300000	1000	0	0	-1	100
22979195	5148	147	0	-100	0	230	101300000	1000	0	0	-1	100
22991755	5150	151	0	-100	0	230	101300000	1000	0	0	-1	100
23004315	5151	149	0	-100	0	230	101300000	1000	0	0	-1	100
23016875	5147	143	0	-100	0	230	101300000	1000	0	0	-1	100
23029435	5155	143	0	-100	0	230	101300000	1000	0	0	-1	100
23041995	5157	151	0	-100	0	230	101300000	1000	0	0	-1	100
23054555	5150	147	0	-100	0	230	101300000	1000	0	0	-1	100
23067115	5150	149	0	-100	0	230	101300000	1000	0	0	-1	100
23079675	5148	152	0	-100	0	230	101300000	1000	0	0	-1	100
23092235	5151	147	0	-100	0	230	101300000	1000	0	0	-1	100
23104795	5149	147	0	-100	0	230	101300000	1000	0	0	-1	100
23117355	5153	147	0	-100	0	230	101300000	1000	0	0	-1	100
23129915	5152	143	0	-100	0	230	101300000	1000	0	0	-1	100
23142475	5151	142	0	-100	0	230	101300000	1000	0	0	-1	100
23155035	5154	146	0	-100	0	230	101300000	1000	0	0	-1	100
23167595	5148	150	0	-100	0	230	101300000	1000	0	0	-1	100
23180155	5145	151	0	-100	0	230	101300000	1000	0	0	-1	100
23192715	5148	148	0	-100	0	230	101300000	1000	0	0	-1	100
23205275	5154	143	0	-100	0	230	101300000	1000	0	0	-1	100
23217835	5158	143	0	-100	0	230	101300000	1000	0	0	-1	100
23230395	5154	142	0	-100	0	230	101300000	1000	0	0	-1	100
23242955	5157	143	0	-100	0	230	101300000	1000	0	0	-1	100
23255515	5158	143	0	-100	0	230	101300000	1000	0	0	-1	100
23268075	5154	143	0	-100	0	230	101300000	1000	0	0	-1	100
23280635	5157	146	0	-100	0	230	101300000	1000	0	0	-1	100
23293195	5147	150	0	-100	0	230	101300000	1000	0	0	-1	100
23305755	5148	151	0	-100	0	230	101300000	1000	0	0	-1	100
23318315	5148	151	0	-100	0	230	101300000	1000	0	0	-1	100
23330875	5154	150	0	-100	0	230	101300000	1000	0	0	-1	100
23343435	5150	152	0	-100	0	230	101300000	1000	0	0	-1	100
23355995	5148	143	0	-100	0	230	101300000	1000	0	0	-1	100
23368555	5157	148	0	-100	0	230	101300000	1000	0	0	-1	100
23381115	5154	148	0	-100	0	230	101300000	1000	0	0	-1	100
23393675	5152	147	0	-100	0	230	101300000	1000	0	0	-1	100
23406235	5151	146	0	-100	0	230	101300000	1000	0	0	-1	100
23418795	5147	149	0	-100	0	230	101300000	1000	0	0	-1	100
23431355	5148	147	0	-100	0	230	101300000	1000	0	0	-1	100
23443915	5153	143	0	-100	0	230	101300000	1000	0	0	-1	100
23456475	5151	143	0	-100	0	230	101300000	1000	0	0	-1	100
23469035	5151	141	0	-100	0	230	101300000	1000	0	0	-1	100
23481595	5156	145	0	-100	0	230	101300000	1000	0	0	-1	100
23494155	5147	150	0	-100	0	230	101300000	1000	0	0	-1	100
23506715	5148	148	0	-100	0	230	101300000	1000	0	0	-1	100
23519275	5148	143	0	-100	0	230	101300000	1000	0	0	-1	100
23531835	5157	143	0	-100	0	230	101300000	1000	0	0	-1	100
23544395	5157	145	0	-100	0	230	101300000	1000	0	0	-1	100
23556955	5151	147	0	-100	0	230	101300000	1000	0	0	-1	100
23569515	5154	151	0	-100	0	230	101300000	1000	0	0	-1	100
23582075	5152	144	0	-100	0	230	101300000	1000	0	0	-1	100
23594635	5153	144	0	-100	0	230	101300000	1000	0	0	-1	100
23607195	5159	145	0	-100	0	230	101300000	1000	0	0	-1	100
23619755	5156	147	0	-100	0	230	101300000	1000	0	0	-1	100
23632315	5150	152	0	-100	0	230	101300000	1000	0	0	-1	100
23644875	5145	147	0	-100	0	230	101300000	1000	0	0	-1	100
23657435	5151	144	0	-100	0	230	101300000	1000	0	0	-1	100
23669995	5149	147	0	-100	0	230	101300000	1000	0	0	-1	100
23682555	5156	144	0	-100	0	230	101300000	1000	0	0	-1	100
23695115	5153	150	0	-100	0	230	101300000	1000	0	0	-1	100
23707675	5150	148	0	-100	0	230	101300000	1000	0	0	-1	100
23720235	5150	144	0	-100	0	230	101300000	1000	0	0	-1	100
23732795	5156	143	0	-100	0	230	101300000	1000	0	0	-1	100
23745355	5144	147	0	-100	0	230	101300000	1000	0	0	-1	100
23757915	5142	149	0	-100	0	230	101300000	1000	0	0	-1	100
23770475	5144	142	0	-100	0	230	101300000	1000	0	0	-1	100
23783035	5147	143	0	-100	0	230	101300000	1000	0	0	-1	100
23795595	5142	151	0	-100	0	230	101300000	1000	0	0	-1	100
23808155	5141	143	0	-100	0	230	101300000	1000	0	0	-1	100
23820715	5144	143	0	-100	0	230	101300000	1000	0	0	-1	100
23833275	5141	148	0	-100	0	230	101300000	1000	0	0	-1	100
23845835	5141	148	0	-100	0	230	101300000	1000	0	0	-1	100
23858395	5147	143	0	-100	0	230	101300000	1000	0	0	-1	100
23870955	5141	144	0	-100	0	230	101300000	1000	0	0	-1	100
23883515	5141	147	0	-100	0	230	101300000	1000	0	0	-1	100
23896075	5138	151	0	-100	0	230	101300000	1000	0	0	-1	100
23908635	5144	148	0	-100	0	230	101300000	1000	0	0	-1	100
23921195	5140	144	0	-100	0	230	101300000	1000	0	0	-1	100
23933755	5143	144	0	-100	0	230	101300000	1000	0	0	-1	100
23946315	5143	144	0	-100	0	230	101300000	1000	0	0	-1	100
23958875	5144	147	0	-100	0	230	101300000	1000	0	0	-1	100
23971435	5141	151	0	-100	0	230	101300000	1000	0	0	-1	100
23983995	5140	143	0	-100	0	230	101300000	1000	0	0	-1	100
23996555	5141	146	0	-100	0	230	101300000	1000	0	0	-1	100
24009115	5150	143	0	-100	0	230	101300000	1000	0	0	-1	100
24021675	5144	143	0	-100	0	230	101300000	1000	0	0	-1	100
24034235	5142	145	0	-100	0	230	101300000	1000	0	0	-1	100
24046795	5140	150	0	-100	0	230	101300000	1000	0	0	-1	100
24059355	5143	147	0	-100	0	230	101300000	1000	0	0	-1	100
24071915	5142	143	0	-100	0	230	101300000	1000	0	0	-1	100
24084475	5148	142	0	-100	0	230	101300000	1000	0	0	-1	100
24097035	5142	144	0	-100	0	230	101300000	1000	0	0	-1	100
24109595	5146	145	0	-100	0	230	101300000	1000	0	0	-1	100
24122155	5139	151	0	-100	0	230	101300000	1000	0	0	-1	100
24134715	5141	148	0	-100	0	230	101300000	1000	0	0	-1	100
24147275	5137	144	0	-100	0	230	101300000	1000	0	0	-1	100
24159835	5145	142	0	-100	0	230	101300000	1000	0	0	-1	100
24172395	5145	143	0	-100	0	230	101300000	1000	0	0	-1	100
24184955	5145	143	0	-100	0	230	101300000	1000	0	0	-1	100
24197515	5144	141	0	-100	0	230	101300000	1000	0	0	-1	100
24210075	5152	143	0	-100	0	230	101300000	1000	0	0	-1	100
24222635	5147	144	0	-100	0	230	101300000	1000	0	0	-1	100
24235195	5149	144	0	-100	0	230	101300000	1000	0	0	-1	100
24247755	5145	145	0	-100	0	230	101300000	1000	0	0	-1	100
24260315	5146	141	0	-100	0	230	101300000	1000	0	0	-1	100
24272875	5143	142	0	-100	0	230	101300000	1000	0	0	-1	100
24285435	5144	144	0	-100	0	230	101300000	1000	0	0	-1	100
24297995	5147	151	0	-100	0	230	101300000	1000	0	0	-1	100
24310555	5145	144	0	-100	0	230	101300000	1000	0	0	-1	100
24323115	5137	147	0	-100	0	230	101300000	1000	0	0	-1	100
24335675	5133	147	0	-100	0	230	101300000	1000	0	0	-1	100
24348235	5141	151	0	-100	0	230	101300000	1000	0	0	-1	100
24360795	5141	151	0	-100	0	230	101300000	1000	0	0	-1	100
24373355	5134	147	0	-100	0	230	101300000	1000	0	0	-1	100
24385915	5133	147	0	-100	0	230	101300000	1000	0	0	-1	100
24398475	5139	142	0	-100	0	230	101300000	1000	0	0	-1	100
24411035	5141	142	0	-100	0	230	101300000	1000	0	0	-1	100
24423595	5148	142	0	-100	0	230	101300000	1000	0	0	-1	100
24436155	5146	143	0	-100	0	230	101300000	1000	0	0	-1	100
24448715	5140	146	0	-100	0	230	101300000	1000	0	0	-1	100
24461275	5141	149	0	-100	0	230	101300000	1000	0	0	-1	100
24473835	5142	152	0	-100	0	230	101300000	1000	0	0	-1	100
24486395	5137	147	0	-100	0	230	101300000	1000	0	0	-1	100
24498955	5143	147	0	-100	0	230	101300000	1000	0	0	-1	100
24511515	5140	143	0	-100	0	230	101300000	1000	0	0	-1	100
24524075	5144	144	0	-100	0	230	101300000	1000	0	0	-1	100
24536635	5149	143	0	-100	0	230	101300000	1000	0	0	-1	100
24549195	5148	145	0	-100	0	230	101300000	1000	0	0	-1	100
24561755	5138	147	0	-100	0	230	101300000	1000	0	0	-1	100
24574315	5137	151	0	-100	0	230	101300000	1000	0	0	-1	100
24586875	5143	151	0	-100	0	230	101300000	1000	0	0	-1	100
24599435	5134	148	0	-100	0	230	101300000	1000	0	0	-1	100
24611995	5143	143	0	-100	0	230	101300000	1000	0	0	-1	100
24624555	5143	144	0	-100	0	230	101300000	1000	0	0	-1	100
24637115	5144	144	0	-100	0	230	101300000	1000	0	0	-1	100
24649675	5150	144	0	-100	0	230	101300000	1000	0	0	-1	100
24662235	5152	143	0	-100	0	230	101300000	1000	0	0	-1	100
24674795	5137	146	0	-100	0	230	101300000	1000	0	0	-1	100
24687355	5141	149	0	-100	0	230	101300000	1000	0	0	-1	100
24699915	5144	145	0	-100	0	230	101300000	1000	0	0	-1	100
24712475	5108	140	0	-100	0	230	101300000	1000	0	0	-1	100
24725035	5096	141	0	-100	0	230	101300000	1000	0	0	-1	100
24737595	5096	141	0	-100	0	230	101300000	1000	0	0	-1	100
24750155	5085	143	0	-100	0	230	101300000	1000	0	0	-1	100
24762715	5067	143	0	-100	0	230	101300000	1000	0	0	-1	100
24775275	5121	148	0	-100	0	230	101300000	1000	0	0	-1	100
24787835	5098	149	0	-100	0	230	101300000	1000	0	0	-1	100
24800395	5120	150	0	-100	0	230	101300000	1000	0	0	-1	100
24812955	5122	147	0	-100	0	230	101300000	1000	0	0	-1	100
24825515	5142	144	0	-100	0	230	101300000	1000	0	0	-1	100
24838075	5130	142	0	-100	0	230	101300000	1000	0	0	-1	100
24850635	5090	143	0	-100	0	230	101300000	1000	0	0	-1	100
24863195	5131	142	0	-100	0	230	101300000	1000	0	0	-1	100
24875755	5125	143	0	-100	0	230	101300000	1000	0	0	-1	100
24888315	5064	144	0	-100	0	230	101300000	1000	0	0	-1	100
24900875	5120	147	0	-100	0	230	101300000	1000	0	0	-1	100
24913435	5092	148	0	-100	0	230	101300000	1000	0	0	-1	100
24925995	5080	143	0	-100	0	230	101300000	1000	0	0	-1	100
24938555	5081	151	0	-100	0	230	101300000	1000	0	0	-1	100
24951115	5077	146	0	-100	0	230	101300000	1000	0	0	-1	100
24963675	5073	144	0	-100	0	230	101300000	1000	0	0	-1	100
24976235	5077	142	0	-100	0	230	101300000	1000	0	0	-1	100
24988795	5077	139	0	-100	0	230	101300000	1000	0	0	-1	100
25001355	5075	142	0	-100	0	230	101300000	1000	0	0	-1	100
25013915	5073	148	0	-100	0	230	101300000	1000	0	0	-1	100
25026475	5069	143	0	-100	0	230	101300000	1000	0	0	-1	100
25039035	5078	143	0	-100	0	230	101300000	1000	0	0	-1	100
25051595	5068	147	0	-100	0	230	101300000	1000	0	0	-1	100
25064155	5071	144	0	-100	0	230	101300000	1000	0	0	-1	100
25076715	5079	142	0	-100	0	230	101300000	1000	0	0	-1	100
25089275	5070	142	0	-100	0	230	101300000	1000	0	0	-1	100
25101835	5074	151	0	-100	0	230	101300000	1000	0	0	-1	100
25114395	5078	141	0	-100	0	230	101300000	1000	0	0	-1	100
25126955	5081	141	0	-100	0	230	101300000	1000	0	0	-1	100
25139515	5073	147	0	-100	0	230	101300000	1000	0	0	-1	100
25152075	5072	143	0	-100	0	230	101300000	1000	0	0	-1	100
25164635	5073	139	0	-100	0	230	101300000	1000	0	0	-1	100
25177195	5072	144	0	-100	0	230	101300000	1000	0	0	-1	100
25189755	5074	149	0	-100	0	230	101300000	1000	0	0	-1	100
25202315	5073	142	0	-100	0	230	101300000	1000	0	0	-1	100
25214875	5078	138	0	-100	0	230	101300000	1000	0	0	-1	100
25227435	5077	143	0	-100	0	230	101300000	1000	0	0	-1	100
25239995	5071	142	0	-100	0	230	101300000	1000	0	0	-1	100
25252555	5075	142	0	-100	0	230	101300000	1000	0	0	-1	100
25265115	5071	138	0	-100	0	230	101300000	1000	0	0	-1	100
25277675	5077	143	0	-100	0	230	101300000	1000	0	0	-1	100
25290235	5065	150	0	-100	0	230	101300000	1000	0	0	-1	100
25302795	5070	142	0	-100	0	230	101300000	1000	0	0	-1	100
25315355	5078	141	0	-100	0	230	101300000	1000	0	0	-1	100
25327915	5073	138	0	-100	0	230	101300000	1000	0	0	-1	100
25340475	5077	141	0	-100	0	230	101300000	1000	0	0	-1	100
25353035	5071	148	0	-100	0	230	101300000	1000	0	0	-1	100
25365595	5074	147	0	-100	0	230	101300000	1000	0	0	-1	100
25378155	5075	142	0	-100	0	230	101300000	1000	0	0	-1	100
25390715	5079	139	0	-100	0	230	101300000	1000	0	0	-1	100
25403275	5072	146	0	-100	0	230	101300000	1000	0	0	-1	100
25415835	5071	147	0	-100	0	230	101300000	1000	0	0	-1	100
25428395	5073	142	0	-100	0	230	101300000	1000	0	0	-1	100
25440955	5081	142	0	-100	0	230	101300000	1000	0	0	-1	100
25453515	5071	147	0	-100	0	230	101300000	1000	0	0	-1	100
25466075	5069	145	0	-100	0	230	101300000	1000	0	0	-1	100
25478635	5075	139	0	-100	0	230	101300000	1000	0	0	-1	100
25491195	5073	149	0	-100	0	230	101300000	1000	0	0	-1	100
25503755	5075	142	0	-100	0	230	101300000	1000	0	0	-1	100
25516315	5073	145	0	-100	0	230	101300000	1000	0	0	-1	100
25528875	5075	149	0	-100	0	230	101300000	1000	0	0	-1	100
25541435	5074	142	0	-100	0	230	101300000	1000	0	0	-1	100
25553995	5074	147	0	-100	0	230	101300000	1000	0	0	-1	100
25566555	5072	151	0	-100	0	230	101300000	1000	0	0	-1	100
25579115	5077	140	0	-100	0	230	101300000	1000	0	0	-1	100
25591675	5078	142	0	-100	0	230	101300000	1000	0	0	-1	100
25604235	5070	143	0	-100	0	230	101300000	1000	0	0	-1	100
25616795	5073	150	0	-100	0	230	101300000	1000	0	0	-1	100
25629355	5079	141	0	-100	0	230	101300000	1000	0	0	-1	100
25641915	5072	142	0	-100	0	230	101300000	1000	0	0	-1	100
25654475	5074	149	0	-100	0	230	101300000	1000	0	0	-1	100
25667035	5070	143	0	-100	0	230	101300000	1000	0	0	-1	100
25679595	5079	140	0	-100	0	230	101300000	1000	0	0	-1	100
25692155	5071	145	0	-100	0	230	101300000	1000	0	0	-1	100
25704715	5071	145	0	-100	0	230	101300000	1000	0	0	-1	100
25717275	5074	141	0	-100	0	230	101300000	1000	0	0	-1	100
25729835	5079	142	0	-100	0	230	101300000	1000	0	0	-1	100
25742395	5074	148	0	-100	0	230	101300000	1000	0	0	-1	100
25754955	5074	140	0	-100	0	230	101300000	1000	0	0	-1	100
25767515	5077	141	0	-100	0	230	101300000	1000	0	0	-1	100
25780075	5075	148	0	-100	0	230	101300000	1000	0	0	-1	100
25792635	5068	143	0	-100	0	230	101300000	1000	0	0	-1	100
25805195	5073	142	0	-100	0	230	101300000	1000	0	0	-1	100
25817755	5073	146	0	-100	0	230	101300000	1000	0	0	-1	100
25830315	5077	146	0	-100	0	230	101300000	1000	0	0	-1	100
25842875	5074	142	0	-100	0	230	101300000	1000	0	0	-1	100
25855435	5076	142	0	-100	0	230	101300000	1000	0	0	-1	100
25867995	5067	142	0	-100	0	230	101300000	1000	0	0	-1	100
25880555	5074	146	0	-100	0	230	101300000	1000	0	0	-1	100
25893115	5070	143	0	-100	0	230	101300000	1000	0	0	-1	100
25905675	5077	141	0	-100	0	230	101300000	1000	0	0	-1	100
25918235	5074	142	0	-100	0	230	101300000	1000	0	0	-1	100
25930795	5071	148	0	-100	0	230	101300000	1000	0	0	-1	100
25943355	5065	145	0	-100	0	230	101300000	1000	0	0	-1	100
25955915	5075	140	0	-100	0	230	101300000	1000	0	0	-1	100
25968475	5074	143	0	-100	0	230	101300000	1000	0	0	-1	100
25981035	5068	146	0	-100	0	230	101300000	1000	0	0	-1	100
25993595	5074	138	0	-100	0	230	101300000	1000	0	0	-1	100
26006155	5069	147	0	-100	0	230	101300000	1000	0	0	-1	100
26018715	5079	142	0	-100	0	230	101300000	1000	0	0	-1	100
26031275	5080	143	0	-100	0	230	101300000	1000	0	0	-1	100
26043835	5069	146	0	-100	0	230	101300000	1000	0	0	-1	100
26056395	5078	143	0	-100	0	230	101300000	1000	0	0	-1	100
26068955	5068	147	0	-100	0	230	101300000	1000	0	0	-1	100
26081515	5070	140	0	-100	0	230	101300000	1000	0	0	-1	100
26094075	5072	144	0	-100	0	230	101300000	1000	0	0	-1	100
26106635	5072	144	0	-100	0	230	101300000	1000	0	0	-1	100
26119195	5079	142	0	-100	0	230	101300000	1000	0	0	-1	100
26131755	5070	146	0	-100	0	230	101300000	1000	0	0	-1	100
26144315	5076	139	0	-100	0	230	101300000	1000	0	0	-1	100
26156875	5071	150	0	-100	0	230	101300000	1000	0	0	-1	100
26169435	5074	142	0	-100	0	230	101300000	1000	0	0	-1	100
26181995	5071	143	0	-100	0	230	101300000	1000	0	0	-1	100
26194555	5074	140	0	-100	0	230	101300000	1000	0	0	-1	100
26207115	5073	143	0	-100	0	230	101300000	1000	0	0	-1	100
26219675	5072	145	0	-100	0	230	101300000	1000	0	0	-1	100
26232235	5079	138	0	-100	0	230	101300000	1000	0	0	-1	100
26244795	5070	148	0	-100	0	230	101300000	1000	0	0	-1	100
26257355	5075	142	0	-100	0	230	101300000	1000	0	0	-1	100
26269915	5073	147	0	-100	0	230	101300000	1000	0	0	-1	100
26282475	5072	142	0	-100	0	230	101300000	1000	0	0	-1	100
26295035	5084	142	0	-100	0	230	101300000	1000	0	0	-1	100
26307595	5071	144	0	-100	0	230	101300000	1000	0	0	-1	100
26320155	5076	138	0	-100	0	230	101300000	1000	0	0	-1	100
26332715	5071	150	0	-100	0	230	101300000	1000	0	0	-1	100
26345275	5080	138	0	-100	0	230	101300000	1000	0	0	-1	100
26357835	5079	146	0	-100	0	230	101300000	1000	0	0	-1	100
26370395	5068	140	0	-100	0	230	101300000	1000	0	0	-1	100
26382955	5095	151	0	-100	0	230	101300000	1000	0	0	-1	100
26395515	5121	143	0	-100	0	230	101300000	1000	0	0	-1	100
26408075	5130	147	0	-100	0	230	101300000	1000	0	0	-1	100
26420635	5136	144	0	-100	0	230	101300000	1000	0	0	-1	100
26433195	5137	145	0	-100	0	230	101300000	1000	0	0	-1	100
26445755	5135	147	0	-100	0	230	101300000	1000	0	0	-1	100
26458315	5144	144	0	-100	0	230	101300000	1000	0	0	-1	100
26470875	5141	149	0	-100	0	230	101300000	1000	0	0	-1	100
26483435	5148	142	0	-100	0	230	101300000	1000	0	0	-1	100
26495995	5143	143	0	-100	0	230	101300000	1000	0	0	-1	100
26508555	5144	143	0	-100	0	230	101300000	1000	0	0	-1	100
26521115	5139	148	0	-100	0	230	101300000	1000	0	0	-1	100
26533675	5145	143	0	-100	0	230	101300000	1000	0	0	-1	100
26546235	5142	146	0	-100	0	230	101300000	1000	0	0	-1	100
26558795	5140	147	0	-100	0	230	101300000	1000	0	0	-1	100
26571355	5147	146	0	-100	0	230	101300000	1000	0	0	-1	100
26583915	5141	151	0	-100	0	230	101300000	1000	0	0	-1	100
26596475	5144	144	0	-100	0	230	101300000	1000	0	0	-1	100
26609035	5138	151	0	-100	0	230	101300000	1000	0	0	-1	100
26621595	5149	143	0	-100	0	230	101300000	1000	0	0	-1	100
26634155	5140	151	0	-100	0	230	101300000	1000	0	0	-1	100
26646715	5146	141	0	-100	0	230	101300000	1000	0	0	-1	100
26659275	5138	149	0	-100	0	230	101300000	1000	0	0	-1	100
26671835	5149	143	0	-100	0	230	101300000	1000	0	0	-1	100
26684395	5141	147	0	-100	0	230	101300000	1000	0	0	-1	100
26696955	5152	143	0	-100	0	230	101300000	1000	0	0	-1	100
26709515	5141	148	0	-100	0	230	101300000	1000	0	0	-1	100
26722075	5142	143	0	-100	0	230	101300000	1000	0	0	-1	100
26734635	5145	144	0	-100	0	230	101300000	1000	0	0	-1	100
26747195	5140	152	0	-100	0	230	101300000	1000	0	0	-1	100
26759755	5144	144	0	-100	0	230	101300000	1000	0	0	-1	100
26772315	5148	145	0	-100	0	230	101300000	1000	0	0	-1	100
26784875	5139	151	0	-100	0	230	101300000	1000	0	0	-1	100
26797435	5141	149	0	-100	0	230	101300000	1000	0	0	-1	100
26809995	5148	146	0	-100	0	230	101300000	1000	0	0	-1	100
26822555	5145	144	0	-100	0	230	101300000	1000	0	0	-1	100
26835115	5141	147	0	-100	0	230	101300000	1000	0	0	-1	100
26847675	5147	143	0	-100	0	230	101300000	1000	0	0	-1	100
26860235	5139	146	0	-100	0	230	101300000	1000	0	0	-1	100
26872795	5147	143	0	-100	0	230	101300000	1000	0	0	-1	100
26885355	5141	148	0	-100	0	230	101300000	1000	0	0	-1	100
26897915	5153	143	0	-100	0	230	101300000	1000	0	0	-1	100
26910475	5139	151	0	-100	0	230	101300000	1000	0	0	-1	100
26923035	5167	142	0	-100	0	230	101300000	1000	0	0	-1	100
26935595	5143	147	0	-100	0	230	101300000	1000	0	0	-1	100
26948155	5142	141	0	-100	0	230	101300000	1000	0	0	-1	100
26960715	5143	142	0	-100	0	230	101300000	1000	0	0	-1	100
26973275	5115	148	0	-100	0	230	101300000	1000	0	0	-1	100
26985835	5132	142	0	-100	0	230	101300000	1000	0	0	-1	100
26998395	5139	143	0	-100	0	230	101300000	1000	0	0	-1	100
27010955	5139	151	0	-100	0	230	101300000	1000	0	0	-1	100
27023515	5135	147	0	-100	0	230	101300000	1000	0	0	-1	100
27036075	5147	142	0	-100	0	230	101300000	1000	0	0	-1	100
27048635	5134	148	0	-100	0	230	101300000	1000	0	0	-1	100
27061195	5148	147	0	-100	0	230	101300000	1000	0	0	-1	100
27073755	5142	140	0	-100	0	230	101300000	1000	0	0	-1	100
27086315	5118	148	0	-100	0	230	101300000	1000	0	0	-1	100
27098875	5117	142	0	-100	0	230	101300000	1000	0	0	-1	100
27111435	5115	147	0	-100	0	230	101300000	1000	0	0	-1	100
27123995	5115	143	0	-100	0	230	101300000	1000	0	0	-1	100
27136555	5124	143	0	-100	0	230	101300000	1000	0	0	-1	100
27149115	5117	145	0	-100	0	230	101300000	1000	0	0	-1	100
27161675	5120	148	0	-100	0	230	101300000	1000	0	0	-1	100
27174235	5120	141	0	-100	0	230	101300000	1000	0	0	-1	100
27186795	5120	146	0	-100	0	230	101300000	1000	0	0	-1	100
27199355	5119	145	0	-100	0	230	101300000	1000	0	0	-1	100
27211915	5117	142	0	-100	0	230	101300000	1000	0	0	-1	100
27224475	5120	145	0	-100	0	230	101300000	1000	0	0	-1	100
27237035	5119	147	0	-100	0	230	101300000	1000	0	0	-1	100
27249595	5117	138	0	-100	0	230	101300000	1000	0	0	-1	100
27262155	5113	148	0	-100	0	230	101300000	1000	0	0	-1	100
27274715	5120	140	0	-100	0	230	101300000	1000	0	0	-1	100
27287275	5121	143	0	-100	0	230	101300000	1000	0	0	-1	100
27299835	5123	147	0	-100	0	230	101300000	1000	0	0	-1	100
27312395	5118	143	0	-100	0	230	101300000	1000	0	0	-1	100
27324955	5118	139	0	-100	0	230	101300000	1000	0	0	-1	100
27337515	5120	147	0	-100	0	230	101300000	1000	0	0	-1	100
27350075	5114	145	0	-100	0	230	101300000	1000	0	0	-1	100
27362635	5120	142	0	-100	0	230	101300000	1000	0	0	-1	100
27375195	5122	142	0	-100	0	230	101300000	1000	0	0	-1	100
27387755	5112	151	0	-100	0	230	101300000	1000	0	0	-1	100
27400315	5121	139	0	-100	0	230	101300000	1000	0	0	-1	100
27412875	5130	141	0	-100	0	230	101300000	1000	0	0	-1	100
27425435	5113	149	0	-100	0	230	101300000	1000	0	0	-1	100
27437995	5116	141	0	-100	0	230	101300000	1000	0	0	-1	100
27450555	5119	142	0	-100	0	230	101300000	1000	0	0	-1	100
27463115	5115	143	0	-100	0	230	101300000	1000	0	0	-1	100
27475675	5119	149	0	-100	0	230	101300000	1000	0	0	-1	100
27488235	5119	140	0	-100	0	230	101300000	1000	0	0	-1	100
27500795	5120	138	0	-100	0	230	101300000	1000	0	0	-1	100
27513355	5115	144	0	-100	0	230	101300000	1000	0	0	-1	100
27525915	5115	147	0	-100	0	230	101300000	1000	0	0	-1	100
27538475	5119	140	0	-100	0	230	101300000	1000	0	0	-1	100
27551035	5124	140	0	-100	0	230	101300000	1000	0	0	-1	100
27563595	5114	144	0	-100	0	230	101300000	1000	0	0	-1	100
27576155	5123	146	0	-100	0	230	101300000	1000	0	0	-1	100
27588715	5113	142	0	-100	0	230	101300000	1000	0	0	-1	100
27601275	5124	143	0	-100	0	230	101300000	1000	0	0	-1	100
27613835	5120	142	0	-100	0	230	101300000	1000	0	0	-1	100
27626395	5115	147	0	-100	0	230	101300000	1000	0	0	-1	100
27638955	5112	145	0	-100	0	230	101300000	1000	0	0	-1	100
27651515	5119	143	0	-100	0	230	101300000	1000	0	0	-1	100
27664075	5117	143	0	-100	0	230	101300000	1000	0	0	-1	100
27676635	5124	147	0	-100	0	230	101300000	1000	0	0	-1	100
27689195	5114	146	0	-100	0	230	101300000	1000	0	0	-1	100
27701755	5114	145	0	-100	0	230	101300000	1000	0	0	-1	100
27714315	5120	140	0	-100	0	230	101300000	1000	0	0	-1	100
27726875	5119	139	0	-100	0	230	101300000	1000	0	0	-1	100
27739435	5113	146	0	-100	0	230	101300000	1000	0	0	-1	100
27751995	5113	142	0	-100	0	230	101300000	1000	0	0	-1	100
27764555	5124	139	0	-100	0	230	101300000	1000	0	0	-1	100
27777115	5121	141	0	-100	0	230	101300000	1000	0	0	-1	100
27789675	5114	145	0	-100	0	230	101300000	1000	0	0	-1	100
27802235	5119	149	0	-100	0	230	101300000	1000	0	0	-1	100
27814795	5113	145	0	-100	0	230	101300000	1000	0	0	-1	100
27827355	5119	140	0	-100	0	230	101300000	1000	0	0	-1	100
27839915	5119	138	0	-100	0	230	101300000	1000	0	0	-1	100
27852475	5116	145	0	-100	0	230	101300000	1000	0	0	-1	100
27865035	5113	147	0	-100	0	230	101300000	1000	0	0	-1	100
27877595	5114	146	0	-100	0	230	101300000	1000	0	0	-1	100
27890155	5117	141	0	-100	0	230	101300000	1000	0	0	-1	100
27902715	5123	139	0	-100	0	230	101300000	1000	0	0	-1	100
27915275	5123	142	0	-100	0	230	101300000	1000	0	0	-1	100
27927835	5113	145	0	-100	0	230	101300000	1000	0	0	-1	100
27940395	5114	147	0	-100	0	230	101300000	1000	0	0	-1	100
27952955	5119	144	0	-100	0	230	101300000	1000	0	0	-1	100
27965515	5114	141	0	-100	0	230	101300000	1000	0	0	-1	100
27978075	5117	142	0	-100	0	230	101300000	1000	0	0	-1	100
27990635	5116	146	0	-100	0	230	101300000	1000	0	0	-1	100
28003195	5113	149	0	-100	0	230	101300000	1000	0	0	-1	100
28015755	5118	143	0	-100	0	230	101300000	1000	0	0	-1	100
28028315	5114	142	0	-100	0	230	101300000	1000	0	0	-1	100
28040875	5121	143	0	-100	0	230	101300000	1000	0	0	-1	100
28053435	5112	144	0	-100	0	230	101300000	1000	0	0	-1	100
28065995	5119	146	0	-100	0	230	101300000	1000	0	0	-1	100
28078555	5114	143	0	-100	0	230	101300000	1000	0	0	-1	100
28091115	5118	146	0	-100	0	230	101300000	1000	0	0	-1	100
28103675	5110	141	0	-100	0	230	101300000	1000	0	0	-1	100
28116235	5119	141	0	-100	0	230	101300000	1000	0	0	-1	100
28128795	5124	143	0	-100	0	230	101300000	1000	0	0	-1	100
28141355	5112	147	0	-100	0	230	101300000	1000	0	0	-1	100
28153915	5115	147	0	-100	0	230	101300000	1000	0	0	-1	100
28166475	5116	143	0	-100	0	230	101300000	1000	0	0	-1	100
28179035	5122	142	0	-100	0	230	101300000	1000	0	0	-1	100
28191595	5118	144	0	-100	0	230	101300000	1000	0	0	-1	100
28204155	5118	150	0	-100	0	230	101300000	1000	0	0	-1	100
28216715	5119	142	0	-100	0	230	101300000	1000	0	0	-1	100
28229275	5119	139	0	-100	0	230	101300000	1000	0	0	-1	100
28241835	5114	147	0	-100	0	230	101300000	1000	0	0	-1	100
28254395	5115	146	0	-100	0	230	101300000	1000	0	0	-1	100
28266955	5113	141	0	-100	0	230	101300000	1000	0	0	-1	100
28279515	5123	139	0	-100	0	230	101300000	1000	0	0	-1	100
28292075	5115	144	0	-100	0	230	101300000	1000	0	0	-1	100
28304635	5114	147	0	-100	0	230	101300000	1000	0	0	-1	100
28317195	5115	147	0	-100	0	230	101300000	1000	0	0	-1	100
28329755	5122	141	0	-100	0	230	101300000	1000	0	0	-1	100
28342315	5122	139	0	-100	0	230	101300000	1000	0	0	-1	100
28354875	5125	141	0	-100	0	230	101300000	1000	0	0	-1	100
28367435	5113	149	0	-100	0	230	101300000	1000	0	0	-1	100
28379995	5113	142	0	-100	0	230	101300000	1000	0	0	-1	100
28392555	5122	141	0	-100	0	230	101300000	1000	0	0	-1	100
28405115	5125	139	0	-100	0	230	101300000	1000	0	0	-1	100
28417675	5119	147	0	-100	0	230	101300000	1000	0	0	-1	100
28430235	5121	147	0	-100	0	230	101300000	1000	0	0	-1	100
28442795	5109	142	0	-100	0	230	101300000	1000	0	0	-1	100
28455355	5119	140	0	-100	0	230	101300000	1000	0	0	-1	100
28467915	5116	143	0	-100	0	230	101300000	1000	0	0	-1	100
28480475	5121	149	0	-100	0	230	101300000	1000	0	0	-1	100
28493035	5115	141	0	-100	0	230	101300000	1000	0	0	-1	100
28505595	5118	141	0	-100	0	230	101300000	1000	0	0	-1	100
28518155	5121	140	0	-100	0	230	101300000	1000	0	0	-1	100
28530715	5112	144	0	-100	0	230	101300000	1000	0	0	-1	100
28543275	5097	148	0	-100	0	230	101300000	1000	0	0	-1	100
28555835	5113	145	0	-100	0	230	101300000	1000	0	0	-1	100
28568395	5127	144	0	-100	0	230	101300000	1000	0	0	-1	100
28580955	5137	145	0	-100	0	230	101300000	1000	0	0	-1	100
28593515	5138	151	0	-100	0	230	101300000	1000	0	0	-1	100
28606075	5139	144	0	-100	0	230	101300000	1000	0	0	-1	100
28618635	5146	143	0	-100	0	230	101300000	1000	0	0	-1	100
28631195	5140	151	0	-100	0	230	101300000	1000	0	0	-1	100
28643755	5141	143	0	-100	0	230	101300000	1000	0	0	-1	100
28656315	5144	143	0	-100	0	230	101300000	1000	0	0	-1	100
28668875	5146	143	0	-100	0	230	101300000	1000	0	0	-1	100
28681435	5141	150	0	-100	0	230	101300000	1000	0	0	-1	100
28693995	5141	144	0	-100	0	230	101300000	1000	0	0	-1	100
28706555	5146	143	0	-100	0	230	101300000	1000	0	0	-1	100
28719115	5144	146	0	-100	0	230	101300000	1000	0	0	-1	100
28731675	5142	150	0	-100	0	230	101300000	1000	0	0	-1	100
28744235	5140	150	0	-100	0	230	101300000	1000	0	0	-1	100
28756795	5137	148	0	-100	0	230	101300000	1000	0	0	-1	100
28769355	5143	144	0	-100	0	230	101300000	1000	0	0	-1	100
28781915	5137	148	0	-100	0	230	101300000	1000	0	0	-1	100
28794475	5140	147	0	-100	0	230	101300000	1000	0	0	-1	100
28807035	5142	142	0	-100	0	230	101300000	1000	0	0	-1	100
28819595	5146	144	0	-100	0	230	101300000	1000	0	0	-1	100
28832155	5142	151	0	-100	0	230	101300000	1000	0	0	-1	100
28844715	5141	147	0	-100	0	230	101300000	1000	0	0	-1	100
28857275	5139	143	0	-100	0	230	101300000	1000	0	0	-1	100
28869835	5147	143	0	-100	0	230	101300000	1000	0	0	-1	100
28882395	5141	147	0	-100	0	230	101300000	1000	0	0	-1	100
28894955	5140	148	0	-100	0	230	101300000	1000	0	0	-1	100
28907515	5142	142	0	-100	0	230	101300000	1000	0	0	-1	100
28920075	5150	144	0	-100	0	230	101300000	1000	0	0	-1	100
28932635	5137	150	0	-100	0	230	101300000	1000	0	0	-1	100
28945195	5138	147	0	-100	0	230	101300000	1000	0	0	-1	100
28957755	5143	142	0	-100	0	230	101300000	1000	0	0	-1	100
28970315	5143	144	0	-100	0	230	101300000	1000	0	0	-1	100
28982875	5139	149	0	-100	0	230	101300000	1000	0	0	-1	100
28995435	5140	147	0	-100	0	230	101300000	1000	0	0	-1	100
29007995	5145	146	0	-100	0	230	101300000	1000	0	0	-1	100
29020555	5142	148	0	-100	0	230	101300000	1000	0	0	-1	100
29033115	5137	146	0	-100	0	230	101300000	1000	0	0	-1	100
29045675	5143	142	0	-100	0	230	101300000	1000	0	0	-1	100
29058235	5146	145	0	-100	0	230	101300000	1000	0	0	-1	100
29070795	5139	150	0	-100	0	230	101300000	1000	0	0	-1	100
29083355	5140	147	0	-100	0	230	101300000	1000	0	0	-1	100
29095915	5144	143	0	-100	0	230	101300000	1000	0	0	-1	100
29108475	5144	140	0	-100	0	230	101300000	1000	0	0	-1	100
29121035	5140	146	0	-100	0	230	101300000	1000	0	0	-1	100
29133595	5138	152	0	-100	0	230	101300000	1000	0	0	-1	100
29146155	5137	145	0	-100	0	230	101300000	1000	0	0	-1	100
29158715	5147	143	0	-100	0	230	101300000	1000	0	0	-1	100
29171275	5141	147	0	-100	0	230	101300000	1000	0	0	-1	100
29183835	5140	151	0	-100	0	230	101300000	1000	0	0	-1	100
29196395	5144	144	0	-100	0	230	101300000	1000	0	0	-1	100
29208955	5145	141	0	-100	0	230	101300000	1000	0	0	-1	100
29221515	5143	145	0	-100	0	230	101300000	1000	0	0	-1	100
29234075	5137	150	0	-100	0	230	101300000	1000	0	0	-1	100
29246635	5139	144	0	-100	0	230	101300000	1000	0	0	-1	100
29259195	5142	143	0	-100	0	230	101300000	1000	0	0	-1	100
29271755	5144	147	0	-100	0	230	101300000	1000	0	0	-1	100
29284315	5139	142	0	-100	0	230	101300000	1000	0	0	-1	100
29296875	5143	151	0	-100	0	230	101300000	1000	0	0	-1	100
29309435	5141	143	0	-100	0	230	101300000	1000	0	0	-1	100
29321995	5145	147	0	-100	0	230	101300000	1000	0	0	-1	100
29334555	5137	147	0	-100	0	230	101300000	1000	0	0	-1	100
29347115	5147	143	0	-100	0	230	101300000	1000	0	0	-1	100
29359675	5144	146	0	-100	0	230	101300000	1000	0	0	-1	100
29372235	5143	142	0	-100	0	230	101300000	1000	0	0	-1	100
29384795	5138	150	0	-100	0	230	101300000	1000	0	0	-1	100
29397355	5146	143	0	-100	0	230	101300000	1000	0	0	-1	100
29409915	5141	152	0	-100	0	230	101300000	1000	0	0	-1	100
29422475	5147	143	0	-100	0	230	101300000	1000	0	0	-1	100
29435035	5136	147	0	-100	0	230	101300000	1000	0	0	-1	100
29447595	5148	143	0	-100	0	230	101300000	1000	0	0	-1	100
29460155	5137	147	0	-100	0	230	101300000	1000	0	0	-1	100
29472715	5144	144	0	-100	0	230	101300000	1000	0	0	-1	100
29485275	5141	147	0	-100	0	230	101300000	1000	0	0	-1	100
29497835	5143	142	0	-100	0	230	101300000	1000	0	0	-1	100
29510395	5142	148	0	-100	0	230	101300000	1000	0	0	-1	100
29522955	5140	144	0	-100	0	230	101300000	1000	0	0	-1	100
29535515	5147	143	0	-100	0	230	101300000	1000	0	0	-1	100
29548075	5142	150	0	-100	0	230	101300000	1000	0	0	-1	100
29560635	5142	144	0	-100	0	230	101300000	1000	0	0	-1	100
29573195	5146	143	0	-100	0	230	101300000	1000	0	0	-1	100
29585755	5143	151	0	-100	0	230	101300000	1000	0	0	-1	100
29598315	5142	143	0	-100	0	230	101300000	1000	0	0	-1	100
29610875	5139	147	0	-100	0	230	101300000	1000	0	0	-1	100
29623435	5143	147	0	-100	0	230	101300000	1000	0	0	-1	100
29635995	5143	148	0	-100	0	230	101300000	1000	0	0	-1	100
29648555	5137	148	0	-100	0	230	101300000	1000	0	0	-1	100
29661115	5147	141	0	-100	0	230	101300000	1000	0	0	-1	100
29673675	5140	147	0	-100	0	230	101300000	1000	0	0	-1	100
29686235	5140	146	0	-100	0	230	101300000	1000	0	0	-1	100
29698795	5145	141	0	-100	0	230	101300000	1000	0	0	-1	100
29711355	5146	150	0	-100	0	230	101300000	1000	0	0	-1	100
29723915	5142	142	0	-100	0	230	101300000	1000	0	0	-1	100
29736475	5142	150	0	-100	0	230	101300000	1000	0	0	-1	100
29749035	5145	143	0	-100	0	230	101300000	1000	0	0	-1	100
29761595	5141	147	0	-100	0	230	101300000	1000	0	0	-1	100
29774155	5136	147	0	-100	0	230	101300000	1000	0	0	-1	100
29786715	5147	142	0	-100	0	230	101300000	1000	0	0	-1	100
29799275	5137	147	0	-100	0	230	101300000	1000	0	0	-1	100
29811835	5137	146	0	-100	0	230	101300000	1000	0	0	-1	100
29824395	5143	143	0	-100	0	230	101300000	1000	0	0	-1	100
29836955	5152	143	0	-100	0	230	101300000	1000	0	0	-1	100
29849515	5142	151	0	-100	0	230	101300000	1000	0	0	-1	100
29862075	5138	145	0	-100	0	230	101300000	1000	0	0	-1	100
29874635	5147	144	0	-100	0	230	101300000	1000	0	0	-1	100
29887195	5137	149	0	-100	0	230	101300000	1000	0	0	-1	100
29899755	5142	142	0	-100	0	230	101300000	1000	0	0	-1	100
29912315	5152	140	0	-100	0	230	101300000	1000	0	0	-1	100
29924875	5140	149	0	-100	0	230	101300000	1000	0	0	-1	100
29937435	5137	147	0	-100	0	230	101300000	1000	0	0	-1	100
29949995	5144	147	0	-100	0	230	101300000	1000	0	0	-1	100
29962555	5141	147	0	-100	0	230	101300000	1000	0	0	-1	100
29975115	5138	146	0	-100	0	230	101300000	1000	0	0	-1	100
29987675	5145	143	0	-100	0	230	101300000	1000	0	0	-1	100
30000235	5147	144	0	-100	0	230	101300000	1000	0	0	-1	100
30012795	5137	148	0	-100	0	230	101300000	1000	0	0	-1	100
30025355	5140	147	0	-100	0	230	101300000	1000	0	0	-1	100
30037915	5144	140	0	-100	0	230	101300000	1000	0	0	-1	100
30050475	5142	150	0	-100	0	230	101300000	1000	0	0	-1	100
30063035	5144	143	0	-100	0	230	101300000	1000	0	0	-1	100
30075595	5140	147	0	-100	0	230	101300000	1000	0	0	-1	100
30088155	5138	143	0	-100	0	230	101300000	1000	0	0	-1	100
30100715	5147	143	0	-100	0	230	101300000	1000	0	0	-1	100
30113275	5142	148	0	-100	0	230	101300000	1000	0	0	-1	100
30125835	5145	143	0	-100	0	230	101300000	1000	0	0	-1	100
30138395	5136	149	0	-100	0	230	101300000	1000	0	0	-1	100
30150955	5141	144	0	-100	0	230	101300000	1000	0	0	-1	100
30163515	5149	143	0	-100	0	230	101300000	1000	0	0	-1	100
30176075	5145	146	0	-100	0	230	101300000	1000	0	0	-1	100
30188635	5145	140	0	-100	0	230	101300000	1000	0	0	-1	100
30201195	5145	151	0	-100	0	230	101300000	1000	0	0	-1	100
30213755	5144	144	0	-100	0	230	101300000	1000	0	0	-1	100
30226315	5139	148	0	-100	0	230	101300000	1000	0	0	-1	100
30238875	5141	143	0	-100	0	230	101300000	1000	0	0	-1	100
30251435	5140	145	0	-100	0	230	101300000	1000	0	0	-1	100
30263995	5137	139	0	-100	0	230	101300000	1000	0	0	-1	100
30276555	5145	145	0	-100	0	230	101300000	1000	0	0	-1	100
30289115	5141	150	0	-100	0	230	101300000	1000	0	0	-1	100
30301675	5147	144	0	-100	0	230	101300000	1000	0	0	-1	100
30314235	5140	150	0	-100	0	230	101300000	1000	0	0	-1	100
30326795	5142	143	0	-100	0	230	101300000	1000	0	0	-1	100
30339355	5144	143	0	-100	0	230	101300000	1000	0	0	-1	100
30351915	5138	146	0	-100	0	230	101300000	1000	0	0	-1	100
30364475	5141	143	0	-100	0	230	101300000	1000	0	0	-1	100
30377035	5146	143	0	-100	0	230	101300000	1000	0	0	-1	100
30389595	5142	148	0	-100	0	230	101300000	1000	0	0	-1	100
30402155	5141	150	0	-100	0	230	101300000	1000	0	0	-1	100
30414715	5145	143	0	-100	0	230	101300000	1000	0	0	-1	100
30427275	5149	144	0	-100	0	230	101300000	1000	0	0	-1	100
30439835	5141	147	0	-100	0	230	101300000	1000	0	0	-1	100
30452395	5140	149	0	-100	0	230	101300000	1000	0	0	-1	100
30464955	5150	142	0	-100	0	230	101300000	1000	0	0	-1	100
30477515	5143	147	0	-100	0	230	101300000	1000	0	0	-1	100
30490075	5141	146	0	-100	0	230	101300000	1000	0	0	-1	100
30502635	5143	142	0	-100	0	230	101300000	1000	0	0	-1	100
30515195	5137	152	0	-100	0	230	101300000	1000	0	0	-1	100
30527755	5142	143	0	-100	0	230	101300000	1000	0	0	-1	100
30540315	5144	142	0	-100	0	230	101300000	1000	0	0	-1	100
30552875	5140	151	0	-100	0	230	101300000	1000	0	0	-1	100
30565435	5144	143	0	-100	0	230	101300000	1000	0	0	-1	100
30577995	5148	149	0	-100	0	230	101300000	1000	0	0	-1	100
30590555	5144	151	0	-100	0	230	101300000	1000	0	0	-1	100
30603115	5146	143	0	-100	0	230	101300000	1000	0	0	-1	100
30615675	5149	143	0	-100	0	230	101300000	1000	0	0	-1	100
30628235	5140	147	0	-100	0	230	101300000	1000	0	0	-1	100
30640795	5144	144	0	-100	0	230	101300000	1000	0	0	-1	100
30653355	5141	149	0	-100	0	230	101300000	1000	0	0	-1	100
30665915	5140	145	0	-100	0	230	101300000	1000	0	0	-1	100
30678475	5144	142	0	-100	0	230	101300000	1000	0	0	-1	100
30691035	5137	150	0	-100	0	230	101300000	1000	0	0	-1	100
30703595	5142	144	0	-100	0	230	101300000	1000	0	0	-1	100
30716155	5147	143	0	-100	0	230	101300000	1000	0	0	-1	100
30728715	5140	150	0	-100	0	230	101300000	1000	0	0	-1	100
30741275	5136	143	0	-100	0	230	101300000	1000	0	0	-1	100
30753835	5144	142	0	-100	0	230	101300000	1000	0	0	-1	100
30766395	5141	150	0	-100	0	230	101300000	1000	0	0	-1	100
30778955	5141	142	0	-100	0	230	101300000	1000	0	0	-1	100
30791515	5148	151	0	-100	0	230	101300000	1000	0	0	-1	100
30804075	5141	149	0	-100	0	230	101300000	1000	0	0	-1	100
30816635	5142	142	0	-100	0	230	101300000	1000	0	0	-1	100
30829195	5139	148	0	-100	0	230	101300000	1000	0	0	-1	100
30841755	5138	144	0	-100	0	230	101300000	1000	0	0	-1	100
30854315	5147	143	0	-100	0	230	101300000	1000	0	0	-1	100
30866875	5143	151	0	-100	0	230	101300000	1000	0	0	-1	100
30879435	5149	142	0	-100	0	230	101300000	1000	0	0	-1	100
30891995	5141	147	0	-100	0	230	101300000	1000	0	0	-1	100
30904555	5139	147	0	-100	0	230	101300000	1000	0	0	-1	100
30917115	5145	145	0	-100	0	230	101300000	1000	0	0	-1	100
30929675	5141	150	0	-100	0	230	101300000	1000	0	0	-1	100
30942235	5140	143	0	-100	0	230	101300000	1000	0	0	-1	100
30954795	5147	143	0	-100	0	230	101300000	1000	0	0	-1	100
30967355	5141	152	0	-100	0	230	101300000	1000	0	0	-1	100
30979915	5142	142	0	-100	0	230	101300000	1000	0	0	-1	100
30992475	5153	144	0	-100	0	230	101300000	1000	0	0	-1	100
31005035	5146	149	0	-100	0	230	101300000	1000	0	0	-1	100
31017595	5137	148	0	-100	0	230	101300000	1000	0	0	-1	100
31030155	5142	144	0	-100	0	230	101300000	1000	0	0	-1	100
31042715	5143	145	0	-100	0	230	101300000	1000	0	0	-1	100
31055275	5140	150	0	-100	0	230	101300000	1000	0	0	-1	100
31067835	5143	142	0	-100	0	230	101300000	1000	0	0	-1	100
31080395	5144	143	0	-100	0	230	101300000	1000	0	0	-1	100
31092955	5138	150	0	-100	0	230	101300000	1000	0	0	-1	100
31105515	5143	142	0	-100	0	230	101300000	1000	0	0	-1	100
31118075	5148	143	0	-100	0	230	101300000	1000	0	0	-1	100
31130635	5143	148	0	-100	0	230	101300000	1000	0	0	-1	100
31143195	5140	143	0	-100	0	230	101300000	1000	0	0	-1	100
31155755	5146	143	0	-100	0	230	101300000	1000	0	0	-1	100
31168315	5140	147	0	-100	0	230	101300000	1000	0	0	-1	100
31180875	5138	151	0	-100	0	230	101300000	1000	0	0	-1	100
31193435	5138	144	0	-100	0	230	101300000	1000	0	0	-1	100
31205995	5143	150	0	-100	0	230	101300000	1000	0	0	-1	100
31218555	5137	146	0	-100	0	230	101300000	1000	0	0	-1	100
31231115	5143	149	0	-100	0	230	101300000	1000	0	0	-1	100
31243675	5138	142	0	-100	0	230	101300000	1000	0	0	-1	100
31256235	5144	142	0	-100	0	230	101300000	1000	0	0	-1	100
31268795	5138	148	0	-100	0	230	101300000	1000	0	0	-1	100
31281355	5140	148	0	-100	0	230	101300000	1000	0	0	-1	100
31293915	5141	143	0	-100	0	230	101300000	1000	0	0	-1	100
31306475	5143	140	0	-100	0	230	101300000	1000	0	0	-1	100
31319035	5140	147	0	-100	0	230	101300000	1000	0	0	-1	100
31331595	5139	149	0	-100	0	230	101300000	1000	0	0	-1	100
31344155	5135	147	0	-100	0	230	101300000	1000	0	0	-1	100
31356715	5141	142	0	-100	0	230	101300000	1000	0	0	-1	100
31369275	5143	143	0	-100	0	230	101300000	1000	0	0	-1	100
31381835	5142	141	0	-100	0	230	101300000	1000	0	0	-1	100
31394395	5137	146	0	-100	0	230	101300000	1000	0	0	-1	100
31406955	5140	147	0	-100	0	230	101300000	1000	0	0	-1	100
31419515	5142	143	0	-100	0	230	101300000	1000	0	0	-1	100
31432075	5151	144	0	-100	0	230	101300000	1000	0	0	-1	100
31444635	5138	147	0	-100	0	230	101300000	1000	0	0	-1	100
31457195	5144	151	0	-100	0	230	101300000	1000	0	0	-1	100
31469755	5136	147	0	-100	0	230	101300000	1000	0	0	-1	100
31482315	5145	142	0	-100	0	230	101300000	1000	0	0	-1	100
31494875	5147	142	0	-100	0	230	101300000	1000	0	0	-1	100
31507435	5140	147	0	-100	0	230	101300000	1000	0	0	-1	100
31519995	5142	143	0	-100	0	230	101300000	1000	0	0	-1	100
31532555	5139	144	0	-100	0	230	101300000	1000	0	0	-1	100
31545115	5147	140	0	-100	0	230	101300000	1000	0	0	-1	100
31557675	5142	147	0	-100	0	230	101300000	1000	0	0	-1	100
31570235	5139	146	0	-100	0	230	101300000	1000	0	0	-1	100
31582795	5148	142	0	-100	0	230	101300000	1000	0	0	-1	100
31595355	5140	147	0	-100	0	230	101300000	1000	0	0	-1	100
31607915	5140	143	0	-100	0	230	101300000	1000	0	0	-1	100
31620475	5143	144	0	-100	0	230	101300000	1000	0	0	-1	100
31633035	5140	149	0	-100	0	230	101300000	1000	0	0	-1	100
31645595	5140	145	0	-100	0	230	101300000	1000	0	0	-1	100
31658155	5146	140	0	-100	0	230	101300000	1000	0	0	-1	100
31670715	5136	147	0	-100	0	230	101300000	1000	0	0	-1	100
31683275	5137	147	0	-100	0	230	101300000	1000	0	0	-1	100
31695835	5143	143	0	-100	0	230	101300000	1000	0	0	-1	100
31708395	5146	144	0	-100	0	230	101300000	1000	0	0	-1	100
31720955	5138	151	0	-100	0	230	101300000	1000	0	0	-1	100
31733515	5142	149	0	-100	0	230	101300000	1000	0	0	-1	100
31746075	5138	144	0	-100	0	230	101300000	1000	0	0	-1	100
31758635	5140	143	0	-100	0	230	101300000	1000	0	0	-1	100
31771195	5145	143	0	-100	0	230	101300000	1000	0	0	-1	100
31783755	5139	144	0	-100	0	230	101300000	1000	0	0	-1	100
31796315	5137	147	0	-100	0	230	101300000	1000	0	0	-1	100
31808875	5141	149	0	-100	0	230	101300000	1000	0	0	-1	100
31821435	5138	147	0	-100	0	230	101300000	1000	0	0	-1	100
31833995	5142	147	0	-100	0	230	101300000	1000	0	0	-1	100
31846555	5145	143	0	-100	0	230	101300000	1000	0	0	-1	100
31859115	5138	146	0	-100	0	230	101300000	1000	0	0	-1	100
31871675	5136	150	0	-100	0	230	101300000	1000	0	0	-1	100
31884235	5140	149	0	-100	0	230	101300000	1000	0	0	-1	100
31896795	5136	147	0	-100	0	230	101300000	1000	0	0	-1	100
31909355	5141	143	0	-100	0	230	101300000	1000	0	0	-1	100
31921915	5144	144	0	-100	0	230	101300000	1000	0	0	-1	100
31934475	5144	145	0	-100	0	230	101300000	1000	0	0	-1	100
31947035	5139	147	0	-100	0	230	101300000	1000	0	0	-1	100
31959595	5142	151	0	-100	0	230	101300000	1000	0	0	-1	100
31972155	5141	143	0	-100	0	230	101300000	1000	0	0	-1	100
31984715	5142	144	0	-100	0	230	101300000	1000	0	0	-1	100
31997275	5144	141	0	-100	0	230	101300000	1000	0	0	-1	100
32009835	5147	143	0	-100	0	230	101300000	1000	0	0	-1	100
32022395	5141	147	0	-100	0	230	101300000	1000	0	0	-1	100
32034955	5141	148	0	-100	0	230	101300000	1000	0	0	-1	100
32047515	5143	150	0	-100	0	230	101300000	1000	0	0	-1	100
32060075	5141	149	0	-100	0	230	101300000	1000	0	0	-1	100
32072635	5142	151	0	-100	0	230	101300000	1000	0	0	-1	100
32085195	5143	150	0	-100	0	230	101300000	1000	0	0	-1	100
32097755	5141	148	0	-100	0	230	101300000	1000	0	0	-1	100
32110315	5143	148	0	-100	0	230	101300000	1000	0	0	-1	100
32122875	5136	149	0	-100	0	230	101300000	1000	0	0	-1	100
32135435	5141	149	0	-100	0	230	101300000	1000	0	0	-1	100
32147995	5141	143	0	-100	0	230	101300000	1000	0	0	-1	100
32160555	5136	143	0	-100	0	230	101300000	1000	0	0	-1	100
32173115	5144	141	0	-100	0	230	101300000	1000	0	0	-1	100
32185675	5136	147	0	-100	0	230	101300000	1000	0	0	-1	100
32198235	5141	148	0	-100	0	230	101300000	1000	0	0	-1	100
32210795	5142	143	0	-100	0	230	101300000	1000	0	0	-1	100
32223355	5148	144	0	-100	0	230	101300000	1000	0	0	-1	100
32235915	5142	149	0	-100	0	230	101300000	1000	0	0	-1	100
32248475	5141	146	0	-100	0	230	101300000	1000	0	0	-1	100
32261035	5149	141	0	-100	0	230	101300000	1000	0	0	-1	100
32273595	5139	147	0	-100	0	230	101300000	1000	0	0	-1	100
32286155	5142	150	0	-100	0	230	101300000	1000	0	0	-1	100
32298715	5138	143	0	-100	0	230	101300000	1000	0	0	-1	100
32311275	5144	141	0	-100	0	230	101300000	1000	0	0	-1	100
32323835	5141	146	0	-100	0	230	101300000	1000	0	0	-1	100
32336395	5142	149	0	-100	0	230	101300000	1000	0	0	-1	100
32348955	5146	143	0	-100	0	230	101300000	1000	0	0	-1	100
32361515	5145	145	0	-100	0	230	101300000	1000	0	0	-1	100
32374075	5142	150	0	-100	0	230	101300000	1000	0	0	-1	100
32386635	5141	147	0	-100	0	230	101300000	1000	0	0	-1	100
32399195	5145	142	0	-100	0	230	101300000	1000	0	0	-1	100
32411755	5148	144	0	-100	0	230	101300000	1000	0	0	-1	100
32424315	5142	147	0	-100	0	230	101300000	1000	0	0	-1	100
32436875	5138	151	0	-100	0	230	101300000	1000	0	0	-1	100
32449435	5140	143	0	-100	0	230	101300000	1000	0	0	-1	100
32461995	5144	147	0	-100	0	230	101300000	1000	0	0	-1	100
32474555	5145	146	0	-100	0	230	101300000	1000	0	0	-1	100
32487115	5137	150	0	-100	0	230	101300000	1000	0	0	-1	100
32499675	5135	148	0	-100	0	230	101300000	1000	0	0	-1	100
32512235	5143	142	0	-100	0	230	101300000	1000	0	0	-1	100
32524795	5149	144	0	-100	0	230	101300000	1000	0	0	-1	100
32537355	5137	149	0	-100	0	230	101300000	1000	0	0	-1	100
32549915	5137	144	0	-100	0	230	101300000	1000	0	0	-1	100
32562475	5144	141	0	-100	0	230	101300000	1000	0	0	-1	100
32575035	5142	146	0	-100	0	230	101300000	1000	0	0	-1	100
32587595	5141	148	0	-100	0	230	101300000	1000	0	0	-1	100
32600155	5147	143	0	-100	0	230	101300000	1000	0	0	-1	100
32612715	5150	143	0	-100	0	230	101300000	1000	0	0	-1	100
32625275	5143	146	0	-100	0	230	101300000	1000	0	0	-1	100
32637835	5136	151	0	-100	0	230	101300000	1000	0	0	-1	100
32650395	5140	147	0	-100	0	230	101300000	1000	0	0	-1	100
32662955	5142	143	0	-100	0	230	101300000	1000	0	0	-1	100
32675515	5142	144	0	-100	0	230	101300000	1000	0	0	-1	100
32688075	5143	149	0	-100	0	230	101300000	1000	0	0	-1	100
32700635	5148	147	0	-100	0	230	101300000	1000	0	0	-1	100
32713195	5141	143	0	-100	0	230	101300000	1000	0	0	-1	100
32725755	5144	142	0	-100	0	230	101300000	1000	0	0	-1	100
32738315	5137	147	0	-100	0	230	101300000	1000	0	0	-1	100
32750875	5138	147	0	-100	0	230	101300000	1000	0	0	-1	100
32763435	5143	144	0	-100	0	230	101300000	1000	0	0	-1	100
32775995	5144	150	0	-100	0	230	101300000	1000	0	0	-1	100
32788555	5142	149	0	-100	0	230	101300000	1000	0	0	-1	100
32801115	5142	143	0	-100	0	230	101300000	1000	0	0	-1	100
32813675	5143	142	0	-100	0	230	101300000	1000	0	0	-1	100
32826235	5140	150	0	-100	0	230	101300000	1000	0	0	-1	100
32838795	5142	144	0	-100	0	230	101300000	1000	0	0	-1	100
32851355	5145	141	0	-100	0	230	101300000	1000	0	0	-1	100
32863915	5144	146	0	-100	0	230	101300000	1000	0	0	-1	100
32876475	5141	149	0	-100	0	230	101300000	1000	0	0	-1	100
32889035	5138	147	0	-100	0	230	101300000	1000	0	0	-1	100
32901595	5148	144	0	-100	0	230	101300000	1000	0	0	-1	100
32914155	5142	147	0	-100	0	230	101300000	1000	0	0	-1	100
32926715	5141	146	0	-100	0	230	101300000	1000	0	0	-1	100
32939275	5145	143	0	-100	0	230	101300000	1000	0	0	-1	100
32951835	5145	145	0	-100	0	230	101300000	1000	0	0	-1	100
32964395	5142	150	0	-100	0	230	101300000	1000	0	0	-1	100
32976955	5140	143	0	-100	0	230	101300000	1000	0	0	-1	100
32989515	5148	143	0	-100	0	230	101300000	1000	0	0	-1	100
33002075	5138	146	0	-100	0	230	101300000	1000	0	0	-1	100
33014635	5146	143	0	-100	0	230	101300000	1000	0	0	-1	100
33027195	5143	150	0	-100	0	230	101300000	1000	0	0	-1	100
33039755	5144	143	0	-100	0	230	101300000	1000	0	0	-1	100
33052315	5137	150	0	-100	0	230	101300000	1000	0	0	-1	100
33064875	5142	143	0	-100	0	230	101300000	1000	0	0	-1	100
33077435	5143	147	0	-100	0	230	101300000	1000	0	0	-1	100
33089995	5152	150	0	-100	0	230	101300000	1000	0	0	-1	100
33102555	5142	147	0	-100	0	230	101300000	1000	0	0	-1	100
33115115	5144	143	0	-100	0	230	101300000	1000	0	0	-1	100
33127675	5141	145	0	-100	0	230	101300000	1000	0	0	-1	100
33140235	5143	150	0	-100	0	230	101300000	1000	0	0	-1	100
33152795	5137	143	0	-100	0	230	101300000	1000	0	0	-1	100
33165355	5145	143	0	-100	0	230	101300000	1000	0	0	-1	100
33177915	5138	149	0	-100	0	230	101300000	1000	0	0	-1	100
33190475	5141	147	0	-100	0	230	101300000	1000	0	0	-1	100
33203035	5144	142	0	-100	0	230	101300000	1000	0	0	-1	100
33215595	5140	148	0	-100	0	230	101300000	1000	0	0	-1	100
33228155	5141	149	0	-100	0	230	101300000	1000	0	0	-1	100
33240715	5143	142	0	-100	0	230	101300000	1000	0	0	-1	100
33253275	5143	140	0	-100	0	230	101300000	1000	0	0	-1	100
33265835	5141	145	0	-100	0	230	101300000	1000	0	0	-1	100
33278395	5143	149	0	-100	0	230	101300000	1000	0	0	-1	100
33290955	5136	146	0	-100	0	230	101300000	1000	0	0	-1	100
33303515	5140	143	0	-100	0	230	101300000	1000	0	0	-1	100
33316075	5140	143	0	-100	0	230	101300000	1000	0	0	-1	100
33328635	5145	143	0	-100	0	230	101300000	1000	0	0	-1	100
33341195	5147	144	0	-100	0	230	101300000	1000	0	0	-1	100
33353755	5144	143	0	-100	0	230	101300000	1000	0	0	-1	100
33366315	5144	141	0	-100	0	230	101300000	1000	0	0	-1	100
33378875	5147	141	0	-100	0	230	101300000	1000	0	0	-1	100
33391435	5145	141	0	-100	0	230	101300000	1000	0	0	-1	100
33403995	5147	149	0	-100	0	230	101300000	1000	0	0	-1	100
33416555	5143	144	0	-100	0	230	101300000	1000	0	0	-1	100
33429115	5144	143	0	-100	0	230	101300000	1000	0	0	-1	100
33441675	5141	148	0	-100	0	230	101300000	1000	0	0	-1	100
33454235	5141	149	0	-100	0	230	101300000	1000	0	0	-1	100
33466795	5140	151	0	-100	0	230	101300000	1000	0	0	-1	100
33479355	5140	148	0	-100	0	230	101300000	1000	0	0	-1	100
33491915	5142	147	0	-100	0	230	101300000	1000	0	0	-1	100
33504475	5141	147	0	-100	0	230	101300000	1000	0	0	-1	100
33517035	5138	147	0	-100	0	230	101300000	1000	0	0	-1	100
33529595	5138	147	0	-100	0	230	101300000	1000	0	0	-1	100
33542155	5143	143	0	-100	0	230	101300000	1000	0	0	-1	100
33554715	5144	144	0	-100	0	230	101300000	1000	0	0	-1	100
33567275	5143	143	0	-100	0	230	101300000	1000	0	0	-1	100
33579835	5144	146	0	-100	0	230	101300000	1000	0	0	-1	100
33592395	5147	143	0	-100	0	230	101300000	1000	0	0	-1	100
33604955	5145	140	0	-100	0	230	101300000	1000	0	0	-1	100
33617515	5141	143	0	-100	0	230	101300000	1000	0	0	-1	100
33630075	5143	140	0	-100	0	230	101300000	1000	0	0	-1	100
33642635	5145	141	0	-100	0	230	101300000	1000	0	0	-1	100
33655195	5141	143	0	-100	0	230	101300000	1000	0	0	-1	100
33667755	5141	143	0	-100	0	230	101300000	1000	0	0	-1	100
33680315	5142	149	0	-100	0	230	101300000	1000	0	0	-1	100
33692875	5143	151	0	-100	0	230	101300000	1000	0	0	-1	100
33705435	5141	151	0	-100	0	230	101300000	1000	0	0	-1	100
33717995	5141	143	0	-100	0	230	101300000	1000	0	0	-1	100
33730555	5145	152	0	-100	0	230	101300000	1000	0	0	-1	100
33743115	5145	148	0	-100	0	230	101300000	1000	0	0	-1	100
33755675	5140	147	0	-100	0	230	101300000	1000	0	0	-1	100
33768235	5137	148	0	-100	0	230	101300000	1000	0	0	-1	100
33780795	5141	147	0	-100	0	230	101300000	1000	0	0	-1	100
33793355	5140	145	0	-100	0	230	101300000	1000	0	0	-1	100
33805915	5138	145	0	-100	0	230	101300000	1000	0	0	-1	100
33818475	5140	146	0	-100	0	230	101300000	1000	0	0	-1	100
