timestamp	voltage	current	windSpeed	pitchAngle	rpm	temperature	ambientPressure	humidity	accelerationX	accelerationY	accelerationZ	currentSink
7038070	5011	0	0	-100	0	230	101300000	1000	0	0	-1	0
7045523	5015	0	0	-100	0	230	101300000	1000	0	0	-1	0
7058083	5017	0	0	-100	0	230	101300000	1000	0	0	-1	0
7070643	5015	2	0	-100	0	230	101300000	1000	0	0	-1	0
7083203	5017	0	0	-100	0	230	101300000	1000	0	0	-1	0
7095763	5014	0	0	-100	0	230	101300000	1000	0	0	-1	0
7108323	5022	0	0	-100	0	230	101300000	1000	0	0	-1	0
7120883	5010	0	0	-100	0	230	101300000	1000	0	0	-1	0
7133443	5012	0	0	-100	0	230	101300000	1000	0	0	-1	0
7146004	5012	0	0	-100	0	230	101300000	1000	0	0	-1	0
7158563	5011	2	0	-100	0	230	101300000	1000	0	0	-1	0
7171123	5019	0	0	-100	0	230	101300000	1000	0	0	-1	0
7183683	5017	0	0	-100	0	230	101300000	1000	0	0	-1	0
7196243	5022	0	0	-100	0	230	101300000	1000	0	0	-1	0
7208803	5012	2	0	-100	0	230	101300000	1000	0	0	-1	0
7221363	5017	0	0	-100	0	230	101300000	1000	0	0	-1	0
7233923	5017	0	0	-100	0	230	101300000	1000	0	0	-1	0
7246483	5014	0	0	-100	0	230	101300000	1000	0	0	-1	0
7259043	5022	0	0	-100	0	230	101300000	1000	0	0	-1	0
7271603	5015	2	0	-100	0	230	101300000	1000	0	0	-1	0
7284163	5011	0	0	-100	0	230	101300000	1000	0	0	-1	0
7296723	5012	0	0	-100	0	230	101300000	1000	0	0	-1	0
7309283	5014	0	0	-100	0	230	101300000	1000	0	0	-1	0
7321843	5021	0	0	-100	0	230	101300000	1000	0	0	-1	0
7334403	5012	3	0	-100	0	230	101300000	1000	0	0	-1	0
7346963	5015	0	0	-100	0	230	101300000	1000	0	0	-1	0
7705235	5251	222	0	-100	0	230	101300000	1000	0	0	-1	150
7717795	5253	220	0	-100	0	230	101300000	1000	0	0	-1	150
7730355	5254	221	0	-100	0	230	101300000	1000	0	0	-1	150
7742915	5253	222	0	-100	0	230	101300000	1000	0	0	-1	150
7755475	5263	215	0	-100	0	230	101300000	1000	0	0	-1	150
7768035	5251	225	0	-100	0	230	101300000	1000	0	0	-1	150
7780595	5254	218	0	-100	0	230	101300000	1000	0	0	-1	150
7793155	5252	220	0	-100	0	230	101300000	1000	0	0	-1	150
7805715	5259	227	0	-100	0	230	101300000	1000	0	0	-1	150
7818275	5259	219	0	-100	0	230	101300000	1000	0	0	-1	150
7830835	5251	223	0	-100	0	230	101300000	1000	0	0	-1	150
7843395	5254	218	0	-100	0	230	101300000	1000	0	0	-1	150
7855955	5256	219	0	-100	0	230	101300000	1000	0	0	-1	150
7868515	5254	221	0	-100	0	230	101300000	1000	0	0	-1	150
7881075	5256	219	0	-100	0	230	101300000	1000	0	0	-1	150
7893635	5251	222	0	-100	0	230	101300000	1000	0	0	-1	150
7906195	5258	218	0	-100	0	230	101300000	1000	0	0	-1	150
7918755	5256	224	0	-100	0	230	101300000	1000	0	0	-1	150
7931315	5253	219	0	-100	0	230	101300000	1000	0	0	-1	150
7943875	5251	220	0	-100	0	230	101300000	1000	0	0	-1	150
7956435	5251	222	0	-100	0	230	101300000	1000	0	0	-1	150
7968995	5257	227	0	-100	0	230	101300000	1000	0	0	-1	150
7981555	5253	225	0	-100	0	230	101300000	1000	0	0	-1	150
7994115	5258	217	0	-100	0	230	101300000	1000	0	0	-1	150
8006675	5253	222	0	-100	0	230	101300000	1000	0	0	-1	150
8019235	5249	218	0	-100	0	230	101300000	1000	0	0	-1	150
8031795	5261	219	0	-100	0	230	101300000	1000	0	0	-1	150
8044355	5249	222	0	-100	0	230	101300000	1000	0	0	-1	150
8056915	5259	220	0	-100	0	230	101300000	1000	0	0	-1	150
8069475	5254	226	0	-100	0	230	101300000	1000	0	0	-1	150
8082035	5257	219	0	-100	0	230	101300000	1000	0	0	-1	150
8094595	5254	221	0	-100	0	230	101300000	1000	0	0	-1	150
8107155	5247	222	0	-100	0	230	101300000	1000	0	0	-1	150
8119715	5252	217	0	-100	0	230	101300000	1000	0	0	-1	150
8132275	5257	220	0	-100	0	230	101300000	1000	0	0	-1	150
8144835	5253	227	0	-100	0	230	101300000	1000	0	0	-1	150
8157395	5256	218	0	-100	0	230	101300000	1000	0	0	-1	150
8169955	5256	222	0	-100	0	230	101300000	1000	0	0	-1	150
8182515	5253	227	0	-100	0	230	101300000	1000	0	0	-1	150
8195075	5255	219	0	-100	0	230	101300000	1000	0	0	-1	150
8207635	5255	215	0	-100	0	230	101300000	1000	0	0	-1	150
8220195	5253	225	0	-100	0	230	101300000	1000	0	0	-1	150
8232755	5252	218	0	-100	0	230	101300000	1000	0	0	-1	150
8245315	5254	223	0	-100	0	230	101300000	1000	0	0	-1	150
8257875	5247	222	0	-100	0	230	101300000	1000	0	0	-1	150
8270435	5256	218	0	-100	0	230	101300000	1000	0	0	-1	150
8282995	5256	226	0	-100	0	230	101300000	1000	0	0	-1	150
8295555	5253	223	0	-100	0	230	101300000	1000	0	0	-1	150
8308115	5251	224	0	-100	0	230	101300000	1000	0	0	-1	150
8320675	5253	219	0	-100	0	230	101300000	1000	0	0	-1	150
8333235	5250	222	0	-100	0	230	101300000	1000	0	0	-1	150
8345795	5250	224	0	-100	0	230	101300000	1000	0	0	-1	150
8358355	5255	219	0	-100	0	230	101300000	1000	0	0	-1	150
8370915	5254	222	0	-100	0	230	101300000	1000	0	0	-1	150
8383475	5249	222	0	-100	0	230	101300000	1000	0	0	-1	150
8396035	5256	215	0	-100	0	230	101300000	1000	0	0	-1	150
8408595	5251	223	0	-100	0	230	101300000	1000	0	0	-1	150
8421155	5243	222	0	-100	0	230	101300000	1000	0	0	-1	150
8433715	5261	218	0	-100	0	230	101300000	1000	0	0	-1	150
8446275	5248	225	0	-100	0	230	101300000	1000	0	0	-1	150
8458835	5256	219	0	-100	0	230	101300000	1000	0	0	-1	150
8471395	5251	223	0	-100	0	230	101300000	1000	0	0	-1	150
8483955	5242	222	0	-100	0	230	101300000	1000	0	0	-1	150
8496515	5258	216	0	-100	0	230	101300000	1000	0	0	-1	150
8509075	5250	225	0	-100	0	230	101300000	1000	0	0	-1	150
8521635	5255	219	0	-100	0	230	101300000	1000	0	0	-1	150
8534195	5254	222	0	-100	0	230	101300000	1000	0	0	-1	150
8546755	5247	223	0	-100	0	230	101300000	1000	0	0	-1	150
8559315	5255	217	0	-100	0	230	101300000	1000	0	0	-1	150
8571875	5247	222	0	-100	0	230	101300000	1000	0	0	-1	150
8584435	5247	220	0	-100	0	230	101300000	1000	0	0	-1	150
8596995	5257	226	0	-100	0	230	101300000	1000	0	0	-1	150
8609555	5247	223	0	-100	0	230	101300000	1000	0	0	-1	150
8622115	5259	225	0	-100	0	230	101300000	1000	0	0	-1	150
8634675	5251	219	0	-100	0	230	101300000	1000	0	0	-1	150
8647235	5261	220	0	-100	0	230	101300000	1000	0	0	-1	150
8659795	5252	227	0	-100	0	230	101300000	1000	0	0	-1	150
8672355	5253	218	0	-100	0	230	101300000	1000	0	0	-1	150
8684915	5252	221	0	-100	0	230	101300000	1000	0	0	-1	150
8697475	5248	226	0	-100	0	230	101300000	1000	0	0	-1	150
8710035	5269	221	0	-100	0	230	101300000	1000	0	0	-1	150
8722595	5314	219	0	-100	0	230	101300000	1000	0	0	-1	150
8735155	5336	219	0	-100	0	230	101300000	1000	0	0	-1	150
8747715	5351	221	0	-100	0	230	101300000	1000	0	0	-1	150
8760275	5354	225	0	-100	0	230	101300000	1000	0	0	-1	150
8772835	5364	219	0	-100	0	230	101300000	1000	0	0	-1	150
8785395	5362	221	0	-100	0	230	101300000	1000	0	0	-1	150
8797955	5368	224	0	-100	0	230	101300000	1000	0	0	-1	150
8810515	5365	217	0	-100	0	230	101300000	1000	0	0	-1	150
8823075	5366	219	0	-100	0	230	101300000	1000	0	0	-1	150
8835635	5366	226	0	-100	0	230	101300000	1000	0	0	-1	150
8848195	5362	223	0	-100	0	230	101300000	1000	0	0	-1	150
8860755	5367	219	0	-100	0	230	101300000	1000	0	0	-1	150
8873315	5368	220	0	-100	0	230	101300000	1000	0	0	-1	150
8885875	5363	225	0	-100	0	230	101300000	1000	0	0	-1	150
8898435	5369	218	0	-100	0	230	101300000	1000	0	0	-1	150
8910995	5367	227	0	-100	0	230	101300000	1000	0	0	-1	150
8923555	5359	224	0	-100	0	230	101300000	1000	0	0	-1	150
8936115	5359	223	0	-100	0	230	101300000	1000	0	0	-1	150
8948675	5365	219	0	-100	0	230	101300000	1000	0	0	-1	150
8961235	5365	223	0	-100	0	230	101300000	1000	0	0	-1	150
8973795	5360	227	0	-100	0	230	101300000	1000	0	0	-1	150
8986355	5367	219	0	-100	0	230	101300000	1000	0	0	-1	150
8998915	5366	220	0	-100	0	230	101300000	1000	0	0	-1	150
9011475	5360	223	0	-100	0	230	101300000	1000	0	0	-1	150
9024035	5367	217	0	-100	0	230	101300000	1000	0	0	-1	150
9036595	5366	226	0	-100	0	230	101300000	1000	0	0	-1	150
9049155	5354	222	0	-100	0	230	101300000	1000	0	0	-1	150
9061715	5371	219	0	-100	0	230	101300000	1000	0	0	-1	150
9074275	5363	226	0	-100	0	230	101300000	1000	0	0	-1	150
9086835	5361	223	0	-100	0	230	101300000	1000	0	0	-1	150
9099395	5367	217	0	-100	0	230	101300000	1000	0	0	-1	150
9111955	5362	223	0	-100	0	230	101300000	1000	0	0	-1	150
9124515	5359	223	0	-100	0	230	101300000	1000	0	0	-1	150
9137075	5360	222	0	-100	0	230	101300000	1000	0	0	-1	150
9149635	5359	223	0	-100	0	230	101300000	1000	0	0	-1	150
9162195	5360	223	0	-100	0	230	101300000	1000	0	0	-1	150
9174755	5360	223	0	-100	0	230	101300000	1000	0	0	-1	150
9187315	5358	223	0	-100	0	230	101300000	1000	0	0	-1	150
9199875	5360	223	0	-100	0	230	101300000	1000	0	0	-1	150
9212435	5360	223	0	-100	0	230	101300000	1000	0	0	-1	150
9224995	5359	219	0	-100	0	230	101300000	1000	0	0	-1	150
9237555	5364	227	0	-100	0	230	101300000	1000	0	0	-1	150
9250115	5362	227	0	-100	0	230	101300000	1000	0	0	-1	150
9262675	5362	227	0	-100	0	230	101300000	1000	0	0	-1	150
9275235	5359	223	0	-100	0	230	101300000	1000	0	0	-1	150
9287795	5360	223	0	-100	0	230	101300000	1000	0	0	-1	150
9300355	5358	224	0	-100	0	230	101300000	1000	0	0	-1	150
9312915	5363	219	0	-100	0	230	101300000	1000	0	0	-1	150
9325475	5361	218	0	-100	0	230	101300000	1000	0	0	-1	150
9338035	5366	219	0	-100	0	230	101300000	1000	0	0	-1	150
9350595	5365	219	0	-100	0	230	101300000	1000	0	0	-1	150
9363155	5366	220	0	-100	0	230	101300000	1000	0	0	-1	150
9375715	5363	222	0	-100	0	230	101300000	1000	0	0	-1	150
9388275	5360	224	0	-100	0	230	101300000	1000	0	0	-1	150
9400835	5360	226	0	-100	0	230	101300000	1000	0	0	-1	150
9413395	5363	226	0	-100	0	230	101300000	1000	0	0	-1	150
9425955	5359	227	0	-100	0	230	101300000	1000	0	0	-1	150
9438515	5364	224	0	-100	0	230	101300000	1000	0	0	-1	150
9451075	5356	222	0	-100	0	230	101300000	1000	0	0	-1	150
9463635	5359	223	0	-100	0	230	101300000	1000	0	0	-1	150
9476195	5358	221	0	-100	0	230	101300000	1000	0	0	-1	150
9488755	5365	219	0	-100	0	230	101300000	1000	0	0	-1	150
9501315	5365	219	0	-100	0	230	101300000	1000	0	0	-1	150
9513875	5364	216	0	-100	0	230	101300000	1000	0	0	-1	150
9526435	5369	219	0	-100	0	230	101300000	1000	0	0	-1	150
9538995	5354	223	0	-100	0	230	101300000	1000	0	0	-1	150
9551555	5366	227	0	-100	0	230	101300000	1000	0	0	-1	150
9564115	5352	221	0	-100	0	230	101300000	1000	0	0	-1	150
9576675	5360	218	0	-100	0	230	101300000	1000	0	0	-1	150
9589235	5363	219	0	-100	0	230	101300000	1000	0	0	-1	150
9601795	5363	218	0	-100	0	230	101300000	1000	0	0	-1	150
9614355	5365	220	0	-100	0	230	101300000	1000	0	0	-1	150
9626915	5359	224	0	-100	0	230	101300000	1000	0	0	-1	150
9639475	5363	228	0	-100	0	230	101300000	1000	0	0	-1	150
9652035	5362	223	0	-100	0	230	101300000	1000	0	0	-1	150
9664595	5365	218	0	-100	0	230	101300000	1000	0	0	-1	150
9677155	5359	220	0	-100	0	230	101300000	1000	0	0	-1	150
9689715	5366	218	0	-100	0	230	101300000	1000	0	0	-1	150
9702275	5358	224	0	-100	0	230	101300000	1000	0	0	-1	150
9714835	5361	224	0	-100	0	230	101300000	1000	0	0	-1	150
9727395	5364	218	0	-100	0	230	101300000	1000	0	0	-1	150
9739955	5362	226	0	-100	0	230	101300000	1000	0	0	-1	150
9752515	5363	219	0	-100	0	230	101300000	1000	0	0	-1	150
9765075	5360	223	0	-100	0	230	101300000	1000	0	0	-1	150
9777635	5361	220	0	-100	0	230	101300000	1000	0	0	-1	150
9790195	5360	224	0	-100	0	230	101300000	1000	0	0	-1	150
9802755	5359	219	0	-100	0	230	101300000	1000	0	0	-1	150
9815315	5362	223	0	-100	0	230	101300000	1000	0	0	-1	150
9827875	5363	218	0	-100	0	230	101300000	1000	0	0	-1	150
9840435	5365	220	0	-100	0	230	101300000	1000	0	0	-1	150
9852995	5362	219	0	-100	0	230	101300000	1000	0	0	-1	150
9865555	5367	219	0	-100	0	230	101300000	1000	0	0	-1	150
9878115	5366	219	0	-100	0	230	101300000	1000	0	0	-1	150
9890675	5360	226	0	-100	0	230	101300000	1000	0	0	-1	150
9903235	5359	220	0	-100	0	230	101300000	1000	0	0	-1	150
9915795	5367	217	0	-100	0	230	101300000	1000	0	0	-1	150
9928355	5356	223	0	-100	0	230	101300000	1000	0	0	-1	150
9940915	5364	224	0	-100	0	230	101300000	1000	0	0	-1	150
9953475	5362	219	0	-100	0	230	101300000	1000	0	0	-1	150
9966035	5363	221	0	-100	0	230	101300000	1000	0	0	-1	150
9978595	5355	227	0	-100	0	230	101300000	1000	0	0	-1	150
9991155	5355	219	0	-100	0	230	101300000	1000	0	0	-1	150
10003715	5369	220	0	-100	0	230	101300000	1000	0	0	-1	150
10016275	5358	227	0	-100	0	230	101300000	1000	0	0	-1	150
10028835	5359	223	0	-100	0	230	101300000	1000	0	0	-1	150
10041395	5363	216	0	-100	0	230	101300000	1000	0	0	-1	150
10053955	5359	223	0	-100	0	230	101300000	1000	0	0	-1	150
10066515	5359	222	0	-100	0	230	101300000	1000	0	0	-1	150
10079075	5364	220	0	-100	0	230	101300000	1000	0	0	-1	150
10091635	5363	223	0	-100	0	230	101300000	1000	0	0	-1	150
10104195	5355	221	0	-100	0	230	101300000	1000	0	0	-1	150
10116755	5361	219	0	-100	0	230	101300000	1000	0	0	-1	150
10129315	5363	223	0	-100	0	230	101300000	1000	0	0	-1	150
10141875	5359	224	0	-100	0	230	101300000	1000	0	0	-1	150
10154435	5361	218	0	-100	0	230	101300000	1000	0	0	-1	150
10166995	5364	227	0	-100	0	230	101300000	1000	0	0	-1	150
10179555	5358	225	0	-100	0	230	101300000	1000	0	0	-1	150
10192115	5358	223	0	-100	0	230	101300000	1000	0	0	-1	150
10204675	5349	218	0	-100	0	230	101300000	1000	0	0	-1	150
10217235	5276	221	0	-100	0	230	101300000	1000	0	0	-1	150
10229795	5180	225	0	-100	0	230	101300000	1000	0	0	-1	150
10242355	5118	215	0	-100	0	230	101300000	1000	0	0	-1	150
10254915	5095	214	0	-100	0	230	101300000	1000	0	0	-1	150
10267475	5071	220	0	-100	0	230	101300000	1000	0	0	-1	150
10280035	5063	225	0	-100	0	230	101300000	1000	0	0	-1	150
10292595	5059	216	0	-100	0	230	101300000	1000	0	0	-1	150
10305155	5054	218	0	-100	0	230	101300000	1000	0	0	-1	150
10317715	5047	220	0	-100	0	230	101300000	1000	0	0	-1	150
10330275	5047	223	0	-100	0	230	101300000	1000	0	0	-1	150
10342835	5046	214	0	-100	0	230	101300000	1000	0	0	-1	150
10355395	5050	216	0	-100	0	230	101300000	1000	0	0	-1	150
10367955	5042	223	0	-100	0	230	101300000	1000	0	0	-1	150
10380515	5038	215	0	-100	0	230	101300000	1000	0	0	-1	150
10393075	5046	215	0	-100	0	230	101300000	1000	0	0	-1	150
10405635	5037	219	0	-100	0	230	101300000	1000	0	0	-1	150
10418195	5033	225	0	-100	0	230	101300000	1000	0	0	-1	150
10430755	5030	216	0	-100	0	230	101300000	1000	0	0	-1	150
10443315	5037	215	0	-100	0	230	101300000	1000	0	0	-1	150
10455875	5034	216	0	-100	0	230	101300000	1000	0	0	-1	150
10468435	5030	222	0	-100	0	230	101300000	1000	0	0	-1	150
10480995	5029	216	0	-100	0	230	101300000	1000	0	0	-1	150
10493555	5033	216	0	-100	0	230	101300000	1000	0	0	-1	150
10506115	5033	218	0	-100	0	230	101300000	1000	0	0	-1	150
10518675	5028	223	0	-100	0	230	101300000	1000	0	0	-1	150
10531235	5026	218	0	-100	0	230	101300000	1000	0	0	-1	150
10543795	5030	217	0	-100	0	230	101300000	1000	0	0	-1	150
10556355	5032	216	0	-100	0	230	101300000	1000	0	0	-1	150
10568915	5023	221	0	-100	0	230	101300000	1000	0	0	-1	150
10581475	5028	221	0	-100	0	230	101300000	1000	0	0	-1	150
10594035	5028	216	0	-100	0	230	101300000	1000	0	0	-1	150
10606595	5033	212	0	-100	0	230	101300000	1000	0	0	-1	150
10619155	5021	223	0	-100	0	230	101300000	1000	0	0	-1	150
10631715	5026	216	0	-100	0	230	101300000	1000	0	0	-1	150
10644275	5039	216	0	-100	0	230	101300000	1000	0	0	-1	150
10656835	5027	222	0	-100	0	230	101300000	1000	0	0	-1	150
10669395	5027	219	0	-100	0	230	101300000	1000	0	0	-1	150
10681955	5030	215	0	-100	0	230	101300000	1000	0	0	-1	150
10694515	5026	220	0	-100	0	230	101300000	1000	0	0	-1	150
10707075	5024	219	0	-100	0	230	101300000	1000	0	0	-1	150
10719635	5029	215	0	-100	0	230	101300000	1000	0	0	-1	150
10732195	5029	216	0	-100	0	230	101300000	1000	0	0	-1	150
10744755	5026	222	0	-100	0	230	101300000	1000	0	0	-1	150
10757315	5030	219	0	-100	0	230	101300000	1000	0	0	-1	150
10769875	5027	216	0	-100	0	230	101300000	1000	0	0	-1	150
10782435	5031	221	0	-100	0	230	101300000	1000	0	0	-1	150
10794995	5027	218	0	-100	0	230	101300000	1000	0	0	-1	150
10807555	5033	216	0	-100	0	230	101300000	1000	0	0	-1	150
10820115	5036	218	0	-100	0	230	101300000	1000	0	0	-1	150
10832675	5032	219	0	-100	0	230	101300000	1000	0	0	-1	150
10845235	5027	219	0	-100	0	230	101300000	1000	0	0	-1	150
10857795	5033	215	0	-100	0	230	101300000	1000	0	0	-1	150
10870355	5033	217	0	-100	0	230	101300000	1000	0	0	-1	150
10882915	5036	214	0	-100	0	230	101300000	1000	0	0	-1	150
10895475	5028	219	0	-100	0	230	101300000	1000	0	0	-1	150
10908035	5030	223	0	-100	0	230	101300000	1000	0	0	-1	150
10920595	5029	217	0	-100	0	230	101300000	1000	0	0	-1	150
10933155	5027	216	0	-100	0	230	101300000	1000	0	0	-1	150
10945715	5036	217	0	-100	0	230	101300000	1000	0	0	-1	150
10958275	5026	221	0	-100	0	230	101300000	1000	0	0	-1	150
10970835	5030	219	0	-100	0	230	101300000	1000	0	0	-1	150
10983395	5028	214	0	-100	0	230	101300000	1000	0	0	-1	150
10995955	5030	217	0	-100	0	230	101300000	1000	0	0	-1	150
11008515	5027	222	0	-100	0	230	101300000	1000	0	0	-1	150
11021075	5023	219	0	-100	0	230	101300000	1000	0	0	-1	150
11033635	5032	217	0	-100	0	230	101300000	1000	0	0	-1	150
11046195	5023	219	0	-100	0	230	101300000	1000	0	0	-1	150
11058755	5025	221	0	-100	0	230	101300000	1000	0	0	-1	150
11071315	5032	215	0	-100	0	230	101300000	1000	0	0	-1	150
11083875	5033	216	0	-100	0	230	101300000	1000	0	0	-1	150
11096435	5032	224	0	-100	0	230	101300000	1000	0	0	-1	150
11108995	5033	215	0	-100	0	230	101300000	1000	0	0	-1	150
11121555	5040	217	0	-100	0	230	101300000	1000	0	0	-1	150
11134115	5034	223	0	-100	0	230	101300000	1000	0	0	-1	150
11146675	5030	216	0	-100	0	230	101300000	1000	0	0	-1	150
11159235	5038	215	0	-100	0	230	101300000	1000	0	0	-1	150
11171795	5033	224	0	-100	0	230	101300000	1000	0	0	-1	150
11184355	5033	216	0	-100	0	230	101300000	1000	0	0	-1	150
11196915	5037	218	0	-100	0	230	101300000	1000	0	0	-1	150
11209475	5031	223	0	-100	0	230	101300000	1000	0	0	-1	150
11222035	5029	214	0	-100	0	230	101300000	1000	0	0	-1	150
11234595	5033	217	0	-100	0	230	101300000	1000	0	0	-1	150
11247155	5024	225	0	-100	0	230	101300000	1000	0	0	-1	150
11259715	5033	214	0	-100	0	230	101300000	1000	0	0	-1	150
11272275	5036	218	0	-100	0	230	101300000	1000	0	0	-1	150
11284835	5029	220	0	-100	0	230	101300000	1000	0	0	-1	150
11297395	5039	215	0	-100	0	230	101300000	1000	0	0	-1	150
11309955	5032	221	0	-100	0	230	101300000	1000	0	0	-1	150
11322515	5036	216	0	-100	0	230	101300000	1000	0	0	-1	150
11335075	5037	219	0	-100	0	230	101300000	1000	0	0	-1	150
11347635	5035	219	0	-100	0	230	101300000	1000	0	0	-1	150
11360195	5036	217	0	-100	0	230	101300000	1000	0	0	-1	150
11372755	5036	219	0	-100	0	230	101300000	1000	0	0	-1	150
11385315	5035	221	0	-100	0	230	101300000	1000	0	0	-1	150
11397875	5038	215	0	-100	0	230	101300000	1000	0	0	-1	150
11410435	5040	217	0	-100	0	230	101300000	1000	0	0	-1	150
11422995	5035	219	0	-100	0	230	101300000	1000	0	0	-1	150
11435555	5034	224	0	-100	0	230	101300000	1000	0	0	-1	150
11448115	5032	216	0	-100	0	230	101300000	1000	0	0	-1	150
11460675	5032	214	0	-100	0	230	101300000	1000	0	0	-1	150
11473235	5024	221	0	-100	0	230	101300000	1000	0	0	-1	150
11485795	5032	218	0	-100	0	230	101300000	1000	0	0	-1	150
11498355	5033	214	0	-100	0	230	101300000	1000	0	0	-1	150
11510915	5034	223	0	-100	0	230	101300000	1000	0	0	-1	150
11523475	5039	216	0	-100	0	230	101300000	1000	0	0	-1	150
11536035	5034	222	0	-100	0	230	101300000	1000	0	0	-1	150
11548595	5033	215	0	-100	0	230	101300000	1000	0	0	-1	150
11561155	5031	219	0	-100	0	230	101300000	1000	0	0	-1	150
11573715	5033	223	0	-100	0	230	101300000	1000	0	0	-1	150
11586275	5033	220	0	-100	0	230	101300000	1000	0	0	-1	150
11598835	5034	214	0	-100	0	230	101300000	1000	0	0	-1	150
11611395	5034	220	0	-100	0	230	101300000	1000	0	0	-1	150
11623955	5025	219	0	-100	0	230	101300000	1000	0	0	-1	150
11636515	5033	217	0	-100	0	230	101300000	1000	0	0	-1	150
11649075	5029	220	0	-100	0	230	101300000	1000	0	0	-1	150
11661635	5026	219	0	-100	0	230	101300000	1000	0	0	-1	150
11674195	5027	217	0	-100	0	230	101300000	1000	0	0	-1	150
11686755	5026	220	0	-100	0	230	101300000	1000	0	0	-1	150
11699315	5019	219	0	-100	0	230	101300000	1000	0	0	-1	150
11711875	5029	215	0	-100	0	230	101300000	1000	0	0	-1	150
11724435	5022	221	0	-100	0	230	101300000	1000	0	0	-1	150
11736995	5022	216	0	-100	0	230	101300000	1000	0	0	-1	150
11749555	5022	217	0	-100	0	230	101300000	1000	0	0	-1	150
11762115	5031	215	0	-100	0	230	101300000	1000	0	0	-1	150
11774675	5026	223	0	-100	0	230	101300000	1000	0	0	-1	150
11787235	5033	214	0	-100	0	230	101300000	1000	0	0	-1	150
11799795	5035	217	0	-100	0	230	101300000	1000	0	0	-1	150
11812355	5036	223	0	-100	0	230	101300000	1000	0	0	-1	150
11824915	5035	214	0	-100	0	230	101300000	1000	0	0	-1	150
11837475	5042	214	0	-100	0	230	101300000	1000	0	0	-1	150
11850035	5037	219	0	-100	0	230	101300000	1000	0	0	-1	150
11862595	5065	222	0	-100	0	230	101300000	1000	0	0	-1	150
11875155	5174	218	0	-100	0	230	101300000	1000	0	0	-1	150
11887715	5264	221	0	-100	0	230	101300000	1000	0	0	-1	150
11900275	5302	223	0	-100	0	230	101300000	1000	0	0	-1	150
11912835	5326	224	0	-100	0	230	101300000	1000	0	0	-1	150
11925395	5344	217	0	-100	0	230	101300000	1000	0	0	-1	150
11937955	5348	222	0	-100	0	230	101300000	1000	0	0	-1	150
11950515	5351	222	0	-100	0	230	101300000	1000	0	0	-1	150
11963075	5359	216	0	-100	0	230	101300000	1000	0	0	-1	150
11975635	5358	227	0	-100	0	230	101300000	1000	0	0	-1	150
11988195	5367	219	0	-100	0	230	101300000	1000	0	0	-1	150
12000755	5355	226	0	-100	0	230	101300000	1000	0	0	-1	150
12013315	5359	221	0	-100	0	230	101300000	1000	0	0	-1	150
12025875	5364	217	0	-100	0	230	101300000	1000	0	0	-1	150
12038435	5360	226	0	-100	0	230	101300000	1000	0	0	-1	150
12050995	5354	218	0	-100	0	230	101300000	1000	0	0	-1	150
12063555	5358	219	0	-100	0	230	101300000	1000	0	0	-1	150
12076115	5365	220	0	-100	0	230	101300000	1000	0	0	-1	150
12088675	5362	223	0	-100	0	230	101300000	1000	0	0	-1	150
12101235	5362	227	0	-100	0	230	101300000	1000	0	0	-1	150
12113795	5359	219	0	-100	0	230	101300000	1000	0	0	-1	150
12126355	5364	218	0	-100	0	230	101300000	1000	0	0	-1	150
12138915	5362	227	0	-100	0	230	101300000	1000	0	0	-1	150
12151475	5363	219	0	-100	0	230	101300000	1000	0	0	-1	150
12164035	5355	224	0	-100	0	230	101300000	1000	0	0	-1	150
12176595	5359	218	0	-100	0	230	101300000	1000	0	0	-1	150
12189155	5350	226	0	-100	0	230	101300000	1000	0	0	-1	150
12201715	5361	218	0	-100	0	230	101300000	1000	0	0	-1	150
12214275	5360	225	0	-100	0	230	101300000	1000	0	0	-1	150
12226835	5361	218	0	-100	0	230	101300000	1000	0	0	-1	150
12239395	5362	223	0	-100	0	230	101300000	1000	0	0	-1	150
12251955	5355	219	0	-100	0	230	101300000	1000	0	0	-1	150
12264515	5364	219	0	-100	0	230	101300000	1000	0	0	-1	150
12277075	5359	223	0	-100	0	230	101300000	1000	0	0	-1	150
12289635	5367	219	0	-100	0	230	101300000	1000	0	0	-1	150
12302195	5359	219	0	-100	0	230	101300000	1000	0	0	-1	150
12314755	5357	223	0	-100	0	230	101300000	1000	0	0	-1	150
12327315	5365	219	0	-100	0	230	101300000	1000	0	0	-1	150
12339875	5356	227	0	-100	0	230	101300000	1000	0	0	-1	150
12352435	5362	216	0	-100	0	230	101300000	1000	0	0	-1	150
12364995	5358	219	0	-100	0	230	101300000	1000	0	0	-1	150
12377555	5363	219	0	-100	0	230	101300000	1000	0	0	-1	150
12390115	5361	223	0	-100	0	230	101300000	1000	0	0	-1	150
12402675	5356	224	0	-100	0	230	101300000	1000	0	0	-1	150
12415235	5361	218	0	-100	0	230	101300000	1000	0	0	-1	150
12427795	5352	226	0	-100	0	230	101300000	1000	0	0	-1	150
12440355	5363	217	0	-100	0	230	101300000	1000	0	0	-1	150
12452915	5358	223	0	-100	0	230	101300000	1000	0	0	-1	150
12465475	5354	223	0	-100	0	230	101300000	1000	0	0	-1	150
12478035	5367	220	0	-100	0	230	101300000	1000	0	0	-1	150
12490595	5355	225	0	-100	0	230	101300000	1000	0	0	-1	150
12503155	5351	220	0	-100	0	230	101300000	1000	0	0	-1	150
12515715	5369	221	0	-100	0	230	101300000	1000	0	0	-1	150
12528275	5359	227	0	-100	0	230	101300000	1000	0	0	-1	150
12540835	5367	219	0	-100	0	230	101300000	1000	0	0	-1	150
12553395	5355	223	0	-100	0	230	101300000	1000	0	0	-1	150
12565955	5360	223	0	-100	0	230	101300000	1000	0	0	-1	150
12578515	5367	220	0	-100	0	230	101300000	1000	0	0	-1	150
12591075	5353	223	0	-100	0	230	101300000	1000	0	0	-1	150
12603635	5353	224	0	-100	0	230	101300000	1000	0	0	-1	150
12616195	5360	217	0	-100	0	230	101300000	1000	0	0	-1	150
12628755	5355	226	0	-100	0	230	101300000	1000	0	0	-1	150
12641315	5485	218	0	-100	0	230	101300000	1000	0	0	-1	150
12653875	5693	218	0	-100	0	230	101300000	1000	0	0	-1	150
12666435	5798	218	0	-100	0	230	101300000	1000	0	0	-1	150
12678995	5867	219	0	-100	0	230	101300000	1000	0	0	-1	150
12691555	5899	218	0	-100	0	230	101300000	1000	0	0	-1	150
12704115	5917	223	0	-100	0	230	101300000	1000	0	0	-1	150
12716675	5926	214	0	-100	0	230	101300000	1000	0	0	-1	150
12729235	5929	214	0	-100	0	230	101300000	1000	0	0	-1	150
12741795	5932	220	0	-100	0	230	101300000	1000	0	0	-1	150
12754355	5928	214	0	-100	0	230	101300000	1000	0	0	-1	150
12766915	5936	218	0	-100	0	230	101300000	1000	0	0	-1	150
12779475	5930	219	0	-100	0	230	101300000	1000	0	0	-1	150
12792035	5937	212	0	-100	0	230	101300000	1000	0	0	-1	150
12804595	5928	219	0	-100	0	230	101300000	1000	0	0	-1	150
12817155	5919	215	0	-100	0	230	101300000	1000	0	0	-1	150
12829715	5932	216	0	-100	0	230	101300000	1000	0	0	-1	150
12842275	5929	218	0	-100	0	230	101300000	1000	0	0	-1	150
12854835	5932	214	0	-100	0	230	101300000	1000	0	0	-1	150
12867395	5936	215	0	-100	0	230	101300000	1000	0	0	-1	150
12879955	5932	221	0	-100	0	230	101300000	1000	0	0	-1	150
12892515	5933	215	0	-100	0	230	101300000	1000	0	0	-1	150
12905075	5932	222	0	-100	0	230	101300000	1000	0	0	-1	150
12917635	5928	215	0	-100	0	230	101300000	1000	0	0	-1	150
12930195	5943	215	0	-100	0	230	101300000	1000	0	0	-1	150
12942755	5940	221	0	-100	0	230	101300000	1000	0	0	-1	150
12955315	5933	215	0	-100	0	230	101300000	1000	0	0	-1	150
12967875	5929	219	0	-100	0	230	101300000	1000	0	0	-1	150
12980435	5928	219	0	-100	0	230	101300000	1000	0	0	-1	150
12992995	5936	219	0	-100	0	230	101300000	1000	0	0	-1	150
13005555	5933	217	0	-100	0	230	101300000	1000	0	0	-1	150
13018115	5936	214	0	-100	0	230	101300000	1000	0	0	-1	150
13030675	5939	219	0	-100	0	230	101300000	1000	0	0	-1	150
13043235	5938	214	0	-100	0	230	101300000	1000	0	0	-1	150
13055795	5931	219	0	-100	0	230	101300000	1000	0	0	-1	150
13068355	5931	214	0	-100	0	230	101300000	1000	0	0	-1	150
13080915	5932	214	0	-100	0	230	101300000	1000	0	0	-1	150
13093475	5924	218	0	-100	0	230	101300000	1000	0	0	-1	150
13106035	5936	215	0	-100	0	230	101300000	1000	0	0	-1	150
13118595	5935	219	0	-100	0	230	101300000	1000	0	0	-1	150
13131155	5940	212	0	-100	0	230	101300000	1000	0	0	-1	150
13143715	5944	221	0	-100	0	230	101300000	1000	0	0	-1	150
13156275	5942	219	0	-100	0	230	101300000	1000	0	0	-1	150
13168835	5947	215	0	-100	0	230	101300000	1000	0	0	-1	150
13181395	5944	218	0	-100	0	230	101300000	1000	0	0	-1	150
13193955	5943	220	0	-100	0	230	101300000	1000	0	0	-1	150
13206515	5941	215	0	-100	0	230	101300000	1000	0	0	-1	150
13219075	5943	213	0	-100	0	230	101300000	1000	0	0	-1	150
13231635	5932	218	0	-100	0	230	101300000	1000	0	0	-1	150
13244195	5941	211	0	-100	0	230	101300000	1000	0	0	-1	150
13256755	5938	220	0	-100	0	230	101300000	1000	0	0	-1	150
13269315	5936	214	0	-100	0	230	101300000	1000	0	0	-1	150
13281875	5949	214	0	-100	0	230	101300000	1000	0	0	-1	150
13294435	5940	223	0	-100	0	230	101300000	1000	0	0	-1	150
13306995	5946	215	0	-100	0	230	101300000	1000	0	0	-1	150
13319555	5948	216	0	-100	0	230	101300000	1000	0	0	-1	150
13332115	5937	222	0	-100	0	230	101300000	1000	0	0	-1	150
13344675	5945	214	0	-100	0	230	101300000	1000	0	0	-1	150
13357235	5951	215	0	-100	0	230	101300000	1000	0	0	-1	150
13369795	5946	215	0	-100	0	230	101300000	1000	0	0	-1	150
13382355	5940	220	0	-100	0	230	101300000	1000	0	0	-1	150
13394915	5940	214	0	-100	0	230	101300000	1000	0	0	-1	150
13407475	5951	214	0	-100	0	230	101300000	1000	0	0	-1	150
13420035	5945	222	0	-100	0	230	101300000	1000	0	0	-1	150
13432595	5944	211	0	-100	0	230	101300000	1000	0	0	-1	150
13445155	5945	217	0	-100	0	230	101300000	1000	0	0	-1	150
13457715	5952	218	0	-100	0	230	101300000	1000	0	0	-1	150
13470275	5965	212	0	-100	0	230	101300000	1000	0	0	-1	150
13482835	5962	219	0	-100	0	230	101300000	1000	0	0	-1	150
13495395	5955	214	0	-100	0	230	101300000	1000	0	0	-1	150
13507955	5964	214	0	-100	0	230	101300000	1000	0	0	-1	150
13520515	5954	218	0	-100	0	230	101300000	1000	0	0	-1	150
13533075	5957	216	0	-100	0	230	101300000	1000	0	0	-1	150
13545635	5949	220	0	-100	0	230	101300000	1000	0	0	-1	150
13558195	5946	215	0	-100	0	230	101300000	1000	0	0	-1	150
13570755	5942	219	0	-100	0	230	101300000	1000	0	0	-1	150
13583315	5943	214	0	-100	0	230	101300000	1000	0	0	-1	150
13595875	5945	218	0	-100	0	230	101300000	1000	0	0	-1	150
13608435	5945	214	0	-100	0	230	101300000	1000	0	0	-1	150
13620995	5945	217	0	-100	0	230	101300000	1000	0	0	-1	150
13633555	5942	216	0	-100	0	230	101300000	1000	0	0	-1	150
13646115	5949	215	0	-100	0	230	101300000	1000	0	0	-1	150
13658675	5942	223	0	-100	0	230	101300000	1000	0	0	-1	150
13671235	5936	214	0	-100	0	230	101300000	1000	0	0	-1	150
13683795	5942	216	0	-100	0	230	101300000	1000	0	0	-1	150
13696355	5932	223	0	-100	0	230	101300000	1000	0	0	-1	150
13708915	5937	213	0	-100	0	230	101300000	1000	0	0	-1	150
13721475	5932	219	0	-100	0	230	101300000	1000	0	0	-1	150
13734035	5924	217	0	-100	0	230	101300000	1000	0	0	-1	150
13746595	5933	213	0	-100	0	230	101300000	1000	0	0	-1	150
13759155	5917	223	0	-100	0	230	101300000	1000	0	0	-1	150
13771715	5933	214	0	-100	0	230	101300000	1000	0	0	-1	150
13784275	5930	220	0	-100	0	230	101300000	1000	0	0	-1	150
13796835	5932	213	0	-100	0	230	101300000	1000	0	0	-1	150
13809395	5938	213	0	-100	0	230	101300000	1000	0	0	-1	150
13821955	5924	221	0	-100	0	230	101300000	1000	0	0	-1	150
13834515	5923	214	0	-100	0	230	101300000	1000	0	0	-1	150
13847075	5928	212	0	-100	0	230	101300000	1000	0	0	-1	150
13859635	5926	220	0	-100	0	230	101300000	1000	0	0	-1	150
13872195	5921	214	0	-100	0	230	101300000	1000	0	0	-1	150
13884755	5926	216	0	-100	0	230	101300000	1000	0	0	-1	150
13897315	5926	221	0	-100	0	230	101300000	1000	0	0	-1	150
13909875	5926	214	0	-100	0	230	101300000	1000	0	0	-1	150
13922435	5932	215	0	-100	0	230	101300000	1000	0	0	-1	150
13934995	5927	215	0	-100	0	230	101300000	1000	0	0	-1	150
13947555	5924	218	0	-100	0	230	101300000	1000	0	0	-1	150
13960115	5936	212	0	-100	0	230	101300000	1000	0	0	-1	150
13972675	5927	218	0	-100	0	230	101300000	1000	0	0	-1	150
13985235	5928	214	0	-100	0	230	101300000	1000	0	0	-1	150
13997795	5936	213	0	-100	0	230	101300000	1000	0	0	-1	150
14010355	5923	218	0	-100	0	230	101300000	1000	0	0	-1	150
14022915	5936	216	0	-100	0	230	101300000	1000	0	0	-1	150
14035475	5922	221	0	-100	0	230	101300000	1000	0	0	-1	150
14048035	5932	215	0	-100	0	230	101300000	1000	0	0	-1	150
14060595	5921	221	0	-100	0	230	101300000	1000	0	0	-1	150
14073155	5914	215	0	-100	0	230	101300000	1000	0	0	-1	150
14085715	5931	215	0	-100	0	230	101300000	1000	0	0	-1	150
14098275	5920	218	0	-100	0	230	101300000	1000	0	0	-1	150
14110835	5929	212	0	-100	0	230	101300000	1000	0	0	-1	150
14123395	5923	219	0	-100	0	230	101300000	1000	0	0	-1	150
14135955	5919	222	0	-100	0	230	101300000	1000	0	0	-1	150
14148515	5923	213	0	-100	0	230	101300000	1000	0	0	-1	150
14161075	5924	212	0	-100	0	230	101300000	1000	0	0	-1	150
14173635	5914	221	0	-100	0	230	101300000	1000	0	0	-1	150
14186195	5923	214	0	-100	0	230	101300000	1000	0	0	-1	150
14198755	5929	215	0	-100	0	230	101300000	1000	0	0	-1	150
14211315	5918	218	0	-100	0	230	101300000	1000	0	0	-1	150
14223875	5920	214	0	-100	0	230	101300000	1000	0	0	-1	150
14236435	5912	220	0	-100	0	230	101300000	1000	0	0	-1	150
14248995	5917	216	0	-100	0	230	101300000	1000	0	0	-1	150
14261555	5915	213	0	-100	0	230	101300000	1000	0	0	-1	150
14274115	5913	221	0	-100	0	230	101300000	1000	0	0	-1	150
14286675	5909	214	0	-100	0	230	101300000	1000	0	0	-1	150
14299235	5915	214	0	-100	0	230	101300000	1000	0	0	-1	150
14311795	5912	219	0	-100	0	230	101300000	1000	0	0	-1	150
14324355	5907	219	0	-100	0	230	101300000	1000	0	0	-1	150
14336915	5828	215	0	-100	0	230	101300000	1000	0	0	-1	150
14349475	5613	223	0	-100	0	230	101300000	1000	0	0	-1	150
14362035	5501	221	0	-100	0	230	101300000	1000	0	0	-1	150
14374595	5443	218	0	-100	0	230	101300000	1000	0	0	-1	150
14387155	5396	227	0	-100	0	230	101300000	1000	0	0	-1	150
14399715	5384	218	0	-100	0	230	101300000	1000	0	0	-1	150
14412275	5380	219	0	-100	0	230	101300000	1000	0	0	-1	150
14424835	5370	226	0	-100	0	230	101300000	1000	0	0	-1	150
14437395	5363	219	0	-100	0	230	101300000	1000	0	0	-1	150
14449955	5365	219	0	-100	0	230	101300000	1000	0	0	-1	150
14462515	5356	224	0	-100	0	230	101300000	1000	0	0	-1	150
14475075	5357	223	0	-100	0	230	101300000	1000	0	0	-1	150
14487635	5361	221	0	-100	0	230	101300000	1000	0	0	-1	150
14500195	5355	222	0	-100	0	230	101300000	1000	0	0	-1	150
14512755	5357	223	0	-100	0	230	101300000	1000	0	0	-1	150
14525315	5362	220	0	-100	0	230	101300000	1000	0	0	-1	150
14537875	5359	220	0	-100	0	230	101300000	1000	0	0	-1	150
14550435	5357	225	0	-100	0	230	101300000	1000	0	0	-1	150
14562995	5355	218	0	-100	0	230	101300000	1000	0	0	-1	150
14575555	5363	217	0	-100	0	230	101300000	1000	0	0	-1	150
14588115	5363	221	0	-100	0	230	101300000	1000	0	0	-1	150
14600675	5353	227	0	-100	0	230	101300000	1000	0	0	-1	150
14613235	5363	219	0	-100	0	230	101300000	1000	0	0	-1	150
14625795	5357	220	0	-100	0	230	101300000	1000	0	0	-1	150
14638355	5356	223	0	-100	0	230	101300000	1000	0	0	-1	150
14650915	5360	219	0	-100	0	230	101300000	1000	0	0	-1	150
14663475	5358	224	0	-100	0	230	101300000	1000	0	0	-1	150
14676035	5355	223	0	-100	0	230	101300000	1000	0	0	-1	150
14688595	5364	220	0	-100	0	230	101300000	1000	0	0	-1	150
14701155	5350	226	0	-100	0	230	101300000	1000	0	0	-1	150
14713715	5357	219	0	-100	0	230	101300000	1000	0	0	-1	150
14726275	5363	219	0	-100	0	230	101300000	1000	0	0	-1	150
14738835	5355	225	0	-100	0	230	101300000	1000	0	0	-1	150
14751395	5355	219	0	-100	0	230	101300000	1000	0	0	-1	150
14763955	5360	219	0	-100	0	230	101300000	1000	0	0	-1	150
14776515	5356	228	0	-100	0	230	101300000	1000	0	0	-1	150
14789075	5363	218	0	-100	0	230	101300000	1000	0	0	-1	150
14801635	5363	219	0	-100	0	230	101300000	1000	0	0	-1	150
14814195	5355	227	0	-100	0	230	101300000	1000	0	0	-1	150
14826755	5356	219	0	-100	0	230	101300000	1000	0	0	-1	150
14839315	5360	217	0	-100	0	230	101300000	1000	0	0	-1	150
14851875	5358	221	0	-100	0	230	101300000	1000	0	0	-1	150
14864435	5354	226	0	-100	0	230	101300000	1000	0	0	-1	150
14876995	5352	216	0	-100	0	230	101300000	1000	0	0	-1	150
14889555	5363	219	0	-100	0	230	101300000	1000	0	0	-1	150
14902115	5362	219	0	-100	0	230	101300000	1000	0	0	-1	150
14914675	5354	227	0	-100	0	230	101300000	1000	0	0	-1	150
14927235	5354	220	0	-100	0	230	101300000	1000	0	0	-1	150
14939795	5362	219	0	-100	0	230	101300000	1000	0	0	-1	150
14952355	5354	225	0	-100	0	230	101300000	1000	0	0	-1	150
14964915	5359	221	0	-100	0	230	101300000	1000	0	0	-1	150
14977475	5363	219	0	-100	0	230	101300000	1000	0	0	-1	150
14990035	5355	224	0	-100	0	230	101300000	1000	0	0	-1	150
15002595	5363	217	0	-100	0	230	101300000	1000	0	0	-1	150
15015155	5353	227	0	-100	0	230	101300000	1000	0	0	-1	150
15027715	5357	223	0	-100	0	230	101300000	1000	0	0	-1	150
15040275	5359	220	0	-100	0	230	101300000	1000	0	0	-1	150
15052835	5361	222	0	-100	0	230	101300000	1000	0	0	-1	150
15065395	5354	222	0	-100	0	230	101300000	1000	0	0	-1	150
15077955	5361	217	0	-100	0	230	101300000	1000	0	0	-1	150
15090515	5355	225	0	-100	0	230	101300000	1000	0	0	-1	150
15103075	5358	218	0	-100	0	230	101300000	1000	0	0	-1	150
15115635	5362	219	0	-100	0	230	101300000	1000	0	0	-1	150
15128195	5357	224	0	-100	0	230	101300000	1000	0	0	-1	150
15140755	5361	218	0	-100	0	230	101300000	1000	0	0	-1	150
15153315	5362	226	0	-100	0	230	101300000	1000	0	0	-1	150
15165875	5358	219	0	-100	0	230	101300000	1000	0	0	-1	150
15178435	5364	219	0	-100	0	230	101300000	1000	0	0	-1	150
15190995	5359	219	0	-100	0	230	101300000	1000	0	0	-1	150
15203555	5362	219	0	-100	0	230	101300000	1000	0	0	-1	150
15216115	5359	224	0	-100	0	230	101300000	1000	0	0	-1	150
15228675	5358	223	0	-100	0	230	101300000	1000	0	0	-1	150
15241235	5361	216	0	-100	0	230	101300000	1000	0	0	-1	150
15253795	5354	224	0	-100	0	230	101300000	1000	0	0	-1	150
15266355	5362	220	0	-100	0	230	101300000	1000	0	0	-1	150
15278915	5361	224	0	-100	0	230	101300000	1000	0	0	-1	150
15291475	5363	218	0	-100	0	230	101300000	1000	0	0	-1	150
15304035	5358	221	0	-100	0	230	101300000	1000	0	0	-1	150
15316595	5354	223	0	-100	0	230	101300000	1000	0	0	-1	150
15329155	5355	222	0	-100	0	230	101300000	1000	0	0	-1	150
15341715	5352	223	0	-100	0	230	101300000	1000	0	0	-1	150
15354275	5358	222	0	-100	0	230	101300000	1000	0	0	-1	150
15366835	5365	217	0	-100	0	230	101300000	1000	0	0	-1	150
15379395	5355	223	0	-100	0	230	101300000	1000	0	0	-1	150
15391955	5362	219	0	-100	0	230	101300000	1000	0	0	-1	150
15404515	5363	219	0	-100	0	230	101300000	1000	0	0	-1	150
15417075	5359	225	0	-100	0	230	101300000	1000	0	0	-1	150
15429635	5358	219	0	-100	0	230	101300000	1000	0	0	-1	150
15442195	5363	219	0	-100	0	230	101300000	1000	0	0	-1	150
15454755	5357	226	0	-100	0	230	101300000	1000	0	0	-1	150
15467315	5360	219	0	-100	0	230	101300000	1000	0	0	-1	150
15479875	5359	226	0	-100	0	230	101300000	1000	0	0	-1	150
15492435	5361	218	0	-100	0	230	101300000	1000	0	0	-1	150
15504995	5357	220	0	-100	0	230	101300000	1000	0	0	-1	150
15517555	5354	220	0	-100	0	230	101300000	1000	0	0	-1	150
15530115	5360	218	0	-100	0	230	101300000	1000	0	0	-1	150
15542675	5357	223	0	-100	0	230	101300000	1000	0	0	-1	150
15555235	5355	219	0	-100	0	230	101300000	1000	0	0	-1	150
15567795	5359	220	0	-100	0	230	101300000	1000	0	0	-1	150
15580355	5354	223	0	-100	0	230	101300000	1000	0	0	-1	150
15592915	5360	216	0	-100	0	230	101300000	1000	0	0	-1	150
15605475	5354	225	0	-100	0	230	101300000	1000	0	0	-1	150
15618035	5359	219	0	-100	0	230	101300000	1000	0	0	-1	150
15630595	5364	219	0	-100	0	230	101300000	1000	0	0	-1	150
15643155	5350	226	0	-100	0	230	101300000	1000	0	0	-1	150
15655715	5362	219	0	-100	0	230	101300000	1000	0	0	-1	150
15668275	5353	226	0	-100	0	230	101300000	1000	0	0	-1	150
15680835	5360	219	0	-100	0	230	101300000	1000	0	0	-1	150
15693395	5351	223	0	-100	0	230	101300000	1000	0	0	-1	150
15705955	5348	220	0	-100	0	230	101300000	1000	0	0	-1	150
15718515	5354	219	0	-100	0	230	101300000	1000	0	0	-1	150
15731075	5344	223	0	-100	0	230	101300000	1000	0	0	-1	150
15743635	5344	216	0	-100	0	230	101300000	1000	0	0	-1	150
15756195	5339	227	0	-100	0	230	101300000	1000	0	0	-1	150
15768755	5343	218	0	-100	0	230	101300000	1000	0	0	-1	150
15781315	5337	226	0	-100	0	230	101300000	1000	0	0	-1	150
15793875	5336	221	0	-100	0	230	101300000	1000	0	0	-1	150
15806435	5330	223	0	-100	0	230	101300000	1000	0	0	-1	150
15818995	5334	221	0	-100	0	230	101300000	1000	0	0	-1	150
15831555	5335	221	0	-100	0	230	101300000	1000	0	0	-1	150
15844115	5325	222	0	-100	0	230	101300000	1000	0	0	-1	150
15856675	5337	217	0	-100	0	230	101300000	1000	0	0	-1	150
15869235	5330	225	0	-100	0	230	101300000	1000	0	0	-1	150
15881795	5332	218	0	-100	0	230	101300000	1000	0	0	-1	150
15894355	5331	219	0	-100	0	230	101300000	1000	0	0	-1	150
15906915	5330	223	0	-100	0	230	101300000	1000	0	0	-1	150
15919475	5335	220	0	-100	0	230	101300000	1000	0	0	-1	150
15932035	5332	225	0	-100	0	230	101300000	1000	0	0	-1	150
15944595	5322	218	0	-100	0	230	101300000	1000	0	0	-1	150
15957155	5316	223	0	-100	0	230	101300000	1000	0	0	-1	150
15969715	5323	220	0	-100	0	230	101300000	1000	0	0	-1	150
15982275	5322	222	0	-100	0	230	101300000	1000	0	0	-1	150
15994835	5329	217	0	-100	0	230	101300000	1000	0	0	-1	150
16007395	5325	224	0	-100	0	230	101300000	1000	0	0	-1	150
16019955	5328	219	0	-100	0	230	101300000	1000	0	0	-1	150
16032515	5325	226	0	-100	0	230	101300000	1000	0	0	-1	150
16045075	5326	217	0	-100	0	230	101300000	1000	0	0	-1	150
16057635	5321	226	0	-100	0	230	101300000	1000	0	0	-1	150
16070195	5329	218	0	-100	0	230	101300000	1000	0	0	-1	150
16082755	5324	223	0	-100	0	230	101300000	1000	0	0	-1	150
16095315	5329	217	0	-100	0	230	101300000	1000	0	0	-1	150
16107875	5324	223	0	-100	0	230	101300000	1000	0	0	-1	150
16120435	5335	219	0	-100	0	230	101300000	1000	0	0	-1	150
16132995	5318	218	0	-100	0	230	101300000	1000	0	0	-1	150
16145555	5323	222	0	-100	0	230	101300000	1000	0	0	-1	150
16158115	5325	219	0	-100	0	230	101300000	1000	0	0	-1	150
16170675	5323	222	0	-100	0	230	101300000	1000	0	0	-1	150
16183235	5321	219	0	-100	0	230	101300000	1000	0	0	-1	150
16195795	5320	223	0	-100	0	230	101300000	1000	0	0	-1	150
16208355	5322	219	0	-100	0	230	101300000	1000	0	0	-1	150
16220915	5317	225	0	-100	0	230	101300000	1000	0	0	-1	150
16233475	5319	218	0	-100	0	230	101300000	1000	0	0	-1	150
16246035	5315	224	0	-100	0	230	101300000	1000	0	0	-1	150
16258595	5319	218	0	-100	0	230	101300000	1000	0	0	-1	150
16271155	5318	220	0	-100	0	230	101300000	1000	0	0	-1	150
16283715	5315	223	0	-100	0	230	101300000	1000	0	0	-1	150
16296275	5321	219	0	-100	0	230	101300000	1000	0	0	-1	150
16308835	5315	224	0	-100	0	230	101300000	1000	0	0	-1	150
16321395	5314	222	0	-100	0	230	101300000	1000	0	0	-1	150
16333955	5320	218	0	-100	0	230	101300000	1000	0	0	-1	150
16346515	5317	226	0	-100	0	230	101300000	1000	0	0	-1	150
16359075	5320	219	0	-100	0	230	101300000	1000	0	0	-1	150
16371635	5320	221	0	-100	0	230	101300000	1000	0	0	-1	150
16384195	5314	223	0	-100	0	230	101300000	1000	0	0	-1	150
16396755	5324	215	0	-100	0	230	101300000	1000	0	0	-1	150
16409315	5317	228	0	-100	0	230	101300000	1000	0	0	-1	150
16421875	5324	219	0	-100	0	230	101300000	1000	0	0	-1	150
16434435	5317	226	0	-100	0	230	101300000	1000	0	0	-1	150
16446995	5320	224	0	-100	0	230	101300000	1000	0	0	-1	150
16459555	5311	226	0	-100	0	230	101300000	1000	0	0	-1	150
16472115	5319	218	0	-100	0	230	101300000	1000	0	0	-1	150
16484675	5314	225	0	-100	0	230	101300000	1000	0	0	-1	150
16497235	5319	219	0	-100	0	230	101300000	1000	0	0	-1	150
16509795	5317	222	0	-100	0	230	101300000	1000	0	0	-1	150
16522355	5314	219	0	-100	0	230	101300000	1000	0	0	-1	150
16534915	5325	220	0	-100	0	230	101300000	1000	0	0	-1	150
16547475	5314	225	0	-100	0	230	101300000	1000	0	0	-1	150
16560035	5317	219	0	-100	0	230	101300000	1000	0	0	-1	150
16572595	5321	220	0	-100	0	230	101300000	1000	0	0	-1	150
16585155	5306	226	0	-100	0	230	101300000	1000	0	0	-1	150
16597715	5321	219	0	-100	0	230	101300000	1000	0	0	-1	150
16610275	5323	219	0	-100	0	230	101300000	1000	0	0	-1	150
16622835	5319	226	0	-100	0	230	101300000	1000	0	0	-1	150
16635395	5319	219	0	-100	0	230	101300000	1000	0	0	-1	150
16647955	5321	219	0	-100	0	230	101300000	1000	0	0	-1	150
16660515	5317	227	0	-100	0	230	101300000	1000	0	0	-1	150
16673075	5321	218	0	-100	0	230	101300000	1000	0	0	-1	150
16685635	5318	223	0	-100	0	230	101300000	1000	0	0	-1	150
16698195	5318	221	0	-100	0	230	101300000	1000	0	0	-1	150
16710755	5325	219	0	-100	0	230	101300000	1000	0	0	-1	150
16723315	5317	223	0	-100	0	230	101300000	1000	0	0	-1	150
16735875	5324	218	0	-100	0	230	101300000	1000	0	0	-1	150
16748435	5317	227	0	-100	0	230	101300000	1000	0	0	-1	150
16760995	5321	223	0	-100	0	230	101300000	1000	0	0	-1	150
16773555	5313	223	0	-100	0	230	101300000	1000	0	0	-1	150
16786115	5317	222	0	-100	0	230	101300000	1000	0	0	-1	150
16798675	5322	218	0	-100	0	230	101300000	1000	0	0	-1	150
16811235	5318	227	0	-100	0	230	101300000	1000	0	0	-1	150
16823795	5315	218	0	-100	0	230	101300000	1000	0	0	-1	150
16836355	5324	219	0	-100	0	230	101300000	1000	0	0	-1	150
16848915	5317	226	0	-100	0	230	101300000	1000	0	0	-1	150
16861475	5322	220	0	-100	0	230	101300000	1000	0	0	-1	150
16874035	5320	224	0	-100	0	230	101300000	1000	0	0	-1	150
16886595	5319	218	0	-100	0	230	101300000	1000	0	0	-1	150
16899155	5318	222	0	-100	0	230	101300000	1000	0	0	-1	150
16911715	5317	223	0	-100	0	230	101300000	1000	0	0	-1	150
16924275	5324	219	0	-100	0	230	101300000	1000	0	0	-1	150
16936835	5313	223	0	-100	0	230	101300000	1000	0	0	-1	150
16949395	5317	223	0	-100	0	230	101300000	1000	0	0	-1	150
16961955	5326	220	0	-100	0	230	101300000	1000	0	0	-1	150
16974515	5319	223	0	-100	0	230	101300000	1000	0	0	-1	150
16987075	5324	220	0	-100	0	230	101300000	1000	0	0	-1	150
16999635	5319	219	0	-100	0	230	101300000	1000	0	0	-1	150
17012195	5318	222	0	-100	0	230	101300000	1000	0	0	-1	150
17024755	5319	219	0	-100	0	230	101300000	1000	0	0	-1	150
17037315	5318	225	0	-100	0	230	101300000	1000	0	0	-1	150
17049875	5317	218	0	-100	0	230	101300000	1000	0	0	-1	150
17062435	5317	226	0	-100	0	230	101300000	1000	0	0	-1	150
17074995	5324	227	0	-100	0	230	101300000	1000	0	0	-1	150
17087555	5317	220	0	-100	0	230	101300000	1000	0	0	-1	150
17100115	5324	223	0	-100	0	230	101300000	1000	0	0	-1	150
17112675	5319	218	0	-100	0	230	101300000	1000	0	0	-1	150
17125235	5315	225	0	-100	0	230	101300000	1000	0	0	-1	150
17137795	5322	220	0	-100	0	230	101300000	1000	0	0	-1	150
17150355	5317	226	0	-100	0	230	101300000	1000	0	0	-1	150
17162915	5322	220	0	-100	0	230	101300000	1000	0	0	-1	150
17175475	5317	221	0	-100	0	230	101300000	1000	0	0	-1	150
17188035	5314	224	0	-100	0	230	101300000	1000	0	0	-1	150
17200595	5325	219	0	-100	0	230	101300000	1000	0	0	-1	150
17213155	5307	224	0	-100	0	230	101300000	1000	0	0	-1	150
17225715	5327	219	0	-100	0	230	101300000	1000	0	0	-1	150
17238275	5320	224	0	-100	0	230	101300000	1000	0	0	-1	150
17250835	5319	219	0	-100	0	230	101300000	1000	0	0	-1	150
17263395	5316	225	0	-100	0	230	101300000	1000	0	0	-1	150
17275955	5322	219	0	-100	0	230	101300000	1000	0	0	-1	150
17288515	5318	221	0	-100	0	230	101300000	1000	0	0	-1	150
17301075	5316	222	0	-100	0	230	101300000	1000	0	0	-1	150
17313635	5324	216	0	-100	0	230	101300000	1000	0	0	-1	150
17326195	5313	225	0	-100	0	230	101300000	1000	0	0	-1	150
17338755	5313	223	0	-100	0	230	101300000	1000	0	0	-1	150
17351315	5323	219	0	-100	0	230	101300000	1000	0	0	-1	150
17363875	5316	223	0	-100	0	230	101300000	1000	0	0	-1	150
17376435	5307	224	0	-100	0	230	101300000	1000	0	0	-1	150
17388995	5319	223	0	-100	0	230	101300000	1000	0	0	-1	150
17401555	5316	223	0	-100	0	230	101300000	1000	0	0	-1	150
17414115	5317	222	0	-100	0	230	101300000	1000	0	0	-1	150
17426675	5321	217	0	-100	0	230	101300000	1000	0	0	-1	150
17439235	5313	227	0	-100	0	230	101300000	1000	0	0	-1	150
17451795	5320	218	0	-100	0	230	101300000	1000	0	0	-1	150
17464355	5318	225	0	-100	0	230	101300000	1000	0	0	-1	150
17476915	5323	219	0	-100	0	230	101300000	1000	0	0	-1	150
17489475	5317	225	0	-100	0	230	101300000	1000	0	0	-1	150
17502035	5321	219	0	-100	0	230	101300000	1000	0	0	-1	150
17514595	5316	222	0	-100	0	230	101300000	1000	0	0	-1	150
17527155	5310	219	0	-100	0	230	101300000	1000	0	0	-1	150
17539715	5317	222	0	-100	0	230	101300000	1000	0	0	-1	150
17552275	5314	220	0	-100	0	230	101300000	1000	0	0	-1	150
17564835	5316	221	0	-100	0	230	101300000	1000	0	0	-1	150
17577395	5313	221	0	-100	0	230	101300000	1000	0	0	-1	150
17589955	5317	221	0	-100	0	230	101300000	1000	0	0	-1	150
17602515	5315	219	0	-100	0	230	101300000	1000	0	0	-1	150
17615075	5324	219	0	-100	0	230	101300000	1000	0	0	-1	150
17627635	5313	222	0	-100	0	230	101300000	1000	0	0	-1	150
17640195	5322	220	0	-100	0	230	101300000	1000	0	0	-1	150
17652755	5314	222	0	-100	0	230	101300000	1000	0	0	-1	150
17665315	5321	219	0	-100	0	230	101300000	1000	0	0	-1	150
17677875	5314	223	0	-100	0	230	101300000	1000	0	0	-1	150
17690435	5320	218	0	-100	0	230	101300000	1000	0	0	-1	150
17702995	5316	219	0	-100	0	230	101300000	1000	0	0	-1	150
17715555	5320	219	0	-100	0	230	101300000	1000	0	0	-1	150
17728115	5313	224	0	-100	0	230	101300000	1000	0	0	-1	150
17740675	5318	219	0	-100	0	230	101300000	1000	0	0	-1	150
17753235	5319	219	0	-100	0	230	101300000	1000	0	0	-1	150
17765795	5315	222	0	-100	0	230	101300000	1000	0	0	-1	150
17778355	5326	217	0	-100	0	230	101300000	1000	0	0	-1	150
17790915	5320	226	0	-100	0	230	101300000	1000	0	0	-1	150
17803475	5332	218	0	-100	0	230	101300000	1000	0	0	-1	150
17816035	5333	226	0	-100	0	230	101300000	1000	0	0	-1	150
17828595	5343	219	0	-100	0	230	101300000	1000	0	0	-1	150
17841155	5333	226	0	-100	0	230	101300000	1000	0	0	-1	150
17853715	5347	219	0	-100	0	230	101300000	1000	0	0	-1	150
17866275	5347	222	0	-100	0	230	101300000	1000	0	0	-1	150
17878835	5341	222	0	-100	0	230	101300000	1000	0	0	-1	150
17891395	5349	217	0	-100	0	230	101300000	1000	0	0	-1	150
17903955	5343	226	0	-100	0	230	101300000	1000	0	0	-1	150
17916515	5348	219	0	-100	0	230	101300000	1000	0	0	-1	150
17929075	5339	226	0	-100	0	230	101300000	1000	0	0	-1	150
17941635	5349	218	0	-100	0	230	101300000	1000	0	0	-1	150
17954195	5343	223	0	-100	0	230	101300000	1000	0	0	-1	150
17966755	5346	220	0	-100	0	230	101300000	1000	0	0	-1	150
17979315	5348	221	0	-100	0	230	101300000	1000	0	0	-1	150
17991875	5349	220	0	-100	0	230	101300000	1000	0	0	-1	150
18004435	5349	225	0	-100	0	230	101300000	1000	0	0	-1	150
18016995	5351	219	0	-100	0	230	101300000	1000	0	0	-1	150
18029555	5353	220	0	-100	0	230	101300000	1000	0	0	-1	150
18042115	5347	224	0	-100	0	230	101300000	1000	0	0	-1	150
18054675	5355	217	0	-100	0	230	101300000	1000	0	0	-1	150
18067235	5347	225	0	-100	0	230	101300000	1000	0	0	-1	150
18079795	5347	217	0	-100	0	230	101300000	1000	0	0	-1	150
18092355	5354	219	0	-100	0	230	101300000	1000	0	0	-1	150
18104915	5350	222	0	-100	0	230	101300000	1000	0	0	-1	150
18117475	5357	219	0	-100	0	230	101300000	1000	0	0	-1	150
18130035	5352	219	0	-100	0	230	101300000	1000	0	0	-1	150
18142595	5350	225	0	-100	0	230	101300000	1000	0	0	-1	150
18155155	5347	222	0	-100	0	230	101300000	1000	0	0	-1	150
18167715	5356	218	0	-100	0	230	101300000	1000	0	0	-1	150
18180275	5348	223	0	-100	0	230	101300000	1000	0	0	-1	150
18192835	5346	222	0	-100	0	230	101300000	1000	0	0	-1	150
18205395	5354	219	0	-100	0	230	101300000	1000	0	0	-1	150
18217955	5355	221	0	-100	0	230	101300000	1000	0	0	-1	150
18230515	5343	223	0	-100	0	230	101300000	1000	0	0	-1	150
18243075	5348	223	0	-100	0	230	101300000	1000	0	0	-1	150
18255635	5355	218	0	-100	0	230	101300000	1000	0	0	-1	150
18268195	5350	224	0	-100	0	230	101300000	1000	0	0	-1	150
18280755	5347	220	0	-100	0	230	101300000	1000	0	0	-1	150
18293315	5352	220	0	-100	0	230	101300000	1000	0	0	-1	150
18305875	5348	228	0	-100	0	230	101300000	1000	0	0	-1	150
18318435	5350	219	0	-100	0	230	101300000	1000	0	0	-1	150
18330995	5357	226	0	-100	0	230	101300000	1000	0	0	-1	150
18343555	5352	224	0	-100	0	230	101300000	1000	0	0	-1	150
18356115	5352	218	0	-100	0	230	101300000	1000	0	0	-1	150
18368675	5351	223	0	-100	0	230	101300000	1000	0	0	-1	150
18381235	5346	220	0	-100	0	230	101300000	1000	0	0	-1	150
18393795	5356	221	0	-100	0	230	101300000	1000	0	0	-1	150
18406355	5347	226	0	-100	0	230	101300000	1000	0	0	-1	150
18418915	5351	218	0	-100	0	230	101300000	1000	0	0	-1	150
18431475	5354	221	0	-100	0	230	101300000	1000	0	0	-1	150
18444035	5348	220	0	-100	0	230	101300000	1000	0	0	-1	150
18456595	5356	219	0	-100	0	230	101300000	1000	0	0	-1	150
18469155	5343	221	0	-100	0	230	101300000	1000	0	0	-1	150
18481715	5359	219	0	-100	0	230	101300000	1000	0	0	-1	150
18494275	5351	226	0	-100	0	230	101300000	1000	0	0	-1	150
18506835	5350	219	0	-100	0	230	101300000	1000	0	0	-1	150
18519395	5352	219	0	-100	0	230	101300000	1000	0	0	-1	150
18531955	5345	222	0	-100	0	230	101300000	1000	0	0	-1	150
18544515	5358	220	0	-100	0	230	101300000	1000	0	0	-1	150
18557075	5350	223	0	-100	0	230	101300000	1000	0	0	-1	150
18569635	5344	224	0	-100	0	230	101300000	1000	0	0	-1	150
18582195	5355	219	0	-100	0	230	101300000	1000	0	0	-1	150
18594755	5353	219	0	-100	0	230	101300000	1000	0	0	-1	150
18607315	5351	228	0	-100	0	230	101300000	1000	0	0	-1	150
18619875	5350	218	0	-100	0	230	101300000	1000	0	0	-1	150
18632435	5352	223	0	-100	0	230	101300000	1000	0	0	-1	150
18644995	5351	219	0	-100	0	230	101300000	1000	0	0	-1	150
18657555	5352	220	0	-100	0	230	101300000	1000	0	0	-1	150
18670115	5348	225	0	-100	0	230	101300000	1000	0	0	-1	150
18682675	5353	220	0	-100	0	230	101300000	1000	0	0	-1	150
18695235	5358	220	0	-100	0	230	101300000	1000	0	0	-1	150
18707795	5351	226	0	-100	0	230	101300000	1000	0	0	-1	150
18720355	5354	218	0	-100	0	230	101300000	1000	0	0	-1	150
18732915	5349	223	0	-100	0	230	101300000	1000	0	0	-1	150
18745475	5354	218	0	-100	0	230	101300000	1000	0	0	-1	150
18758035	5349	222	0	-100	0	230	101300000	1000	0	0	-1	150
18770595	5359	219	0	-100	0	230	101300000	1000	0	0	-1	150
18783155	5344	228	0	-100	0	230	101300000	1000	0	0	-1	150
18795715	5352	218	0	-100	0	230	101300000	1000	0	0	-1	150
18808275	5350	227	0	-100	0	230	101300000	1000	0	0	-1	150
18820835	5355	219	0	-100	0	230	101300000	1000	0	0	-1	150
18833395	5350	225	0	-100	0	230	101300000	1000	0	0	-1	150
18845955	5349	219	0	-100	0	230	101300000	1000	0	0	-1	150
18858515	5348	224	0	-100	0	230	101300000	1000	0	0	-1	150
18871075	5348	222	0	-100	0	230	101300000	1000	0	0	-1	150
18883635	5355	219	0	-100	0	230	101300000	1000	0	0	-1	150
18896195	5350	223	0	-100	0	230	101300000	1000	0	0	-1	150
18908755	5349	227	0	-100	0	230	101300000	1000	0	0	-1	150
18921315	5353	219	0	-100	0	230	101300000	1000	0	0	-1	150
18933875	5347	226	0	-100	0	230	101300000	1000	0	0	-1	150
18946435	5351	219	0	-100	0	230	101300000	1000	0	0	-1	150
18958995	5352	224	0	-100	0	230	101300000	1000	0	0	-1	150
18971555	5347	223	0	-100	0	230	101300000	1000	0	0	-1	150
18984115	5355	219	0	-100	0	230	101300000	1000	0	0	-1	150
18996675	5348	225	0	-100	0	230	101300000	1000	0	0	-1	150
19009235	5354	218	0	-100	0	230	101300000	1000	0	0	-1	150
19021795	5350	225	0	-100	0	230	101300000	1000	0	0	-1	150
19034355	5352	220	0	-100	0	230	101300000	1000	0	0	-1	150
19046915	5348	224	0	-100	0	230	101300000	1000	0	0	-1	150
19059475	5351	218	0	-100	0	230	101300000	1000	0	0	-1	150
19072035	5355	221	0	-100	0	230	101300000	1000	0	0	-1	150
19084595	5351	219	0	-100	0	230	101300000	1000	0	0	-1	150
19097155	5353	220	0	-100	0	230	101300000	1000	0	0	-1	150
19109715	5352	226	0	-100	0	230	101300000	1000	0	0	-1	150
19122275	5359	221	0	-100	0	230	101300000	1000	0	0	-1	150
19134835	5348	224	0	-100	0	230	101300000	1000	0	0	-1	150
19147395	5351	219	0	-100	0	230	101300000	1000	0	0	-1	150
19159955	5357	219	0	-100	0	230	101300000	1000	0	0	-1	150
19172515	5350	226	0	-100	0	230	101300000	1000	0	0	-1	150
19185075	5355	219	0	-100	0	230	101300000	1000	0	0	-1	150
19197635	5352	220	0	-100	0	230	101300000	1000	0	0	-1	150
19210195	5352	227	0	-100	0	230	101300000	1000	0	0	-1	150
19222755	5354	217	0	-100	0	230	101300000	1000	0	0	-1	150
19235315	5352	227	0	-100	0	230	101300000	1000	0	0	-1	150
19247875	5351	219	0	-100	0	230	101300000	1000	0	0	-1	150
19260435	5361	219	0	-100	0	230	101300000	1000	0	0	-1	150
19272995	5347	218	0	-100	0	230	101300000	1000	0	0	-1	150
19285555	5353	215	0	-100	0	230	101300000	1000	0	0	-1	150
19298115	5350	226	0	-100	0	230	101300000	1000	0	0	-1	150
19310675	5356	220	0	-100	0	230	101300000	1000	0	0	-1	150
19323235	5349	225	0	-100	0	230	101300000	1000	0	0	-1	150
19335795	5348	219	0	-100	0	230	101300000	1000	0	0	-1	150
19348355	5352	220	0	-100	0	230	101300000	1000	0	0	-1	150
19360915	5347	227	0	-100	0	230	101300000	1000	0	0	-1	150
19373475	5351	219	0	-100	0	230	101300000	1000	0	0	-1	150
19386035	5353	223	0	-100	0	230	101300000	1000	0	0	-1	150
19398595	5346	224	0	-100	0	230	101300000	1000	0	0	-1	150
19411155	5347	218	0	-100	0	230	101300000	1000	0	0	-1	150
19423715	5348	226	0	-100	0	230	101300000	1000	0	0	-1	150
19436275	5351	219	0	-100	0	230	101300000	1000	0	0	-1	150
19448835	5358	219	0	-100	0	230	101300000	1000	0	0	-1	150
19461395	5356	228	0	-100	0	230	101300000	1000	0	0	-1	150
19473955	5354	218	0	-100	0	230	101300000	1000	0	0	-1	150
19486515	5358	220	0	-100	0	230	101300000	1000	0	0	-1	150
19499075	5348	226	0	-100	0	230	101300000	1000	0	0	-1	150
19511635	5353	219	0	-100	0	230	101300000	1000	0	0	-1	150
19524195	5350	224	0	-100	0	230	101300000	1000	0	0	-1	150
19536755	5348	224	0	-100	0	230	101300000	1000	0	0	-1	150
19549315	5356	215	0	-100	0	230	101300000	1000	0	0	-1	150
19561875	5351	226	0	-100	0	230	101300000	1000	0	0	-1	150
19574435	5352	219	0	-100	0	230	101300000	1000	0	0	-1	150
19586995	5353	219	0	-100	0	230	101300000	1000	0	0	-1	150
19599555	5356	220	0	-100	0	230	101300000	1000	0	0	-1	150
19612115	5350	227	0	-100	0	230	101300000	1000	0	0	-1	150
19624675	5353	219	0	-100	0	230	101300000	1000	0	0	-1	150
19637235	5352	224	0	-100	0	230	101300000	1000	0	0	-1	150
19649795	5352	220	0	-100	0	230	101300000	1000	0	0	-1	150
19662355	5354	220	0	-100	0	230	101300000	1000	0	0	-1	150
19674915	5347	225	0	-100	0	230	101300000	1000	0	0	-1	150
19687475	5350	220	0	-100	0	230	101300000	1000	0	0	-1	150
19700035	5358	221	0	-100	0	230	101300000	1000	0	0	-1	150
19712595	5349	223	0	-100	0	230	101300000	1000	0	0	-1	150
19725155	5350	218	0	-100	0	230	101300000	1000	0	0	-1	150
19737715	5350	227	0	-100	0	230	101300000	1000	0	0	-1	150
19750275	5358	219	0	-100	0	230	101300000	1000	0	0	-1	150
19762835	5352	226	0	-100	0	230	101300000	1000	0	0	-1	150
19775395	5355	216	0	-100	0	230	101300000	1000	0	0	-1	150
19787955	5348	227	0	-100	0	230	101300000	1000	0	0	-1	150
19800515	5358	218	0	-100	0	230	101300000	1000	0	0	-1	150
19813075	5349	227	0	-100	0	230	101300000	1000	0	0	-1	150
19825635	5355	219	0	-100	0	230	101300000	1000	0	0	-1	150
19838195	5351	223	0	-100	0	230	101300000	1000	0	0	-1	150
19850755	5350	223	0	-100	0	230	101300000	1000	0	0	-1	150
19863315	5356	219	0	-100	0	230	101300000	1000	0	0	-1	150
19875875	5359	219	0	-100	0	230	101300000	1000	0	0	-1	150
19888435	5352	224	0	-100	0	230	101300000	1000	0	0	-1	150
19900995	5359	222	0	-100	0	230	101300000	1000	0	0	-1	150
19913555	5350	224	0	-100	0	230	101300000	1000	0	0	-1	150
19926115	5351	218	0	-100	0	230	101300000	1000	0	0	-1	150
19938675	5355	222	0	-100	0	230	101300000	1000	0	0	-1	150
19951235	5348	222	0	-100	0	230	101300000	1000	0	0	-1	150
19963795	5352	217	0	-100	0	230	101300000	1000	0	0	-1	150
19976355	5352	226	0	-100	0	230	101300000	1000	0	0	-1	150
19988915	5352	218	0	-100	0	230	101300000	1000	0	0	-1	150
20001475	5353	222	0	-100	0	230	101300000	1000	0	0	-1	150
20014035	5350	222	0	-100	0	230	101300000	1000	0	0	-1	150
20026595	5352	218	0	-100	0	230	101300000	1000	0	0	-1	150
20039155	5347	227	0	-100	0	230	101300000	1000	0	0	-1	150
20051715	5350	218	0	-100	0	230	101300000	1000	0	0	-1	150
20064275	5351	222	0	-100	0	230	101300000	1000	0	0	-1	150
20076835	5353	221	0	-100	0	230	101300000	1000	0	0	-1	150
20089395	5354	220	0	-100	0	230	101300000	1000	0	0	-1	150
20101955	5352	223	0	-100	0	230	101300000	1000	0	0	-1	150
20114515	5352	218	0	-100	0	230	101300000	1000	0	0	-1	150
20127075	5350	227	0	-100	0	230	101300000	1000	0	0	-1	150
20139635	5358	219	0	-100	0	230	101300000	1000	0	0	-1	150
20152195	5348	224	0	-100	0	230	101300000	1000	0	0	-1	150
20164755	5351	219	0	-100	0	230	101300000	1000	0	0	-1	150
20177315	5356	223	0	-100	0	230	101300000	1000	0	0	-1	150
20189875	5348	221	0	-100	0	230	101300000	1000	0	0	-1	150
20202435	5358	219	0	-100	0	230	101300000	1000	0	0	-1	150
20214995	5352	220	0	-100	0	230	101300000	1000	0	0	-1	150
20227555	5355	220	0	-100	0	230	101300000	1000	0	0	-1	150
20240115	5352	223	0	-100	0	230	101300000	1000	0	0	-1	150
20252675	5351	218	0	-100	0	230	101300000	1000	0	0	-1	150
20265235	5348	222	0	-100	0	230	101300000	1000	0	0	-1	150
20277795	5352	219	0	-100	0	230	101300000	1000	0	0	-1	150
20290355	5348	223	0	-100	0	230	101300000	1000	0	0	-1	150
20302915	5356	219	0	-100	0	230	101300000	1000	0	0	-1	150
20315475	5348	226	0	-100	0	230	101300000	1000	0	0	-1	150
20328035	5357	219	0	-100	0	230	101300000	1000	0	0	-1	150
20340595	5346	223	0	-100	0	230	101300000	1000	0	0	-1	150
20353155	5347	221	0	-100	0	230	101300000	1000	0	0	-1	150
20365715	5348	224	0	-100	0	230	101300000	1000	0	0	-1	150
20378275	5351	218	0	-100	0	230	101300000	1000	0	0	-1	150
20390835	5354	220	0	-100	0	230	101300000	1000	0	0	-1	150
20403395	5348	222	0	-100	0	230	101300000	1000	0	0	-1	150
20415955	5362	220	0	-100	0	230	101300000	1000	0	0	-1	150
20428515	5347	222	0	-100	0	230	101300000	1000	0	0	-1	150
20441075	5355	218	0	-100	0	230	101300000	1000	0	0	-1	150
20453635	5348	227	0	-100	0	230	101300000	1000	0	0	-1	150
20466195	5353	219	0	-100	0	230	101300000	1000	0	0	-1	150
20478755	5351	227	0	-100	0	230	101300000	1000	0	0	-1	150
20491315	5352	219	0	-100	0	230	101300000	1000	0	0	-1	150
20503875	5352	225	0	-100	0	230	101300000	1000	0	0	-1	150
20516435	5352	219	0	-100	0	230	101300000	1000	0	0	-1	150
20528995	5353	221	0	-100	0	230	101300000	1000	0	0	-1	150
20541555	5352	219	0	-100	0	230	101300000	1000	0	0	-1	150
20554115	5351	223	0	-100	0	230	101300000	1000	0	0	-1	150
20566675	5349	222	0	-100	0	230	101300000	1000	0	0	-1	150
20579235	5355	220	0	-100	0	230	101300000	1000	0	0	-1	150
20591795	5348	222	0	-100	0	230	101300000	1000	0	0	-1	150
20604355	5358	220	0	-100	0	230	101300000	1000	0	0	-1	150
20616915	5345	222	0	-100	0	230	101300000	1000	0	0	-1	150
20629475	5356	220	0	-100	0	230	101300000	1000	0	0	-1	150
20642035	5351	225	0	-100	0	230	101300000	1000	0	0	-1	150
20654595	5356	217	0	-100	0	230	101300000	1000	0	0	-1	150
20667155	5347	226	0	-100	0	230	101300000	1000	0	0	-1	150
20679715	5356	219	0	-100	0	230	101300000	1000	0	0	-1	150
20692275	5352	226	0	-100	0	230	101300000	1000	0	0	-1	150
20704835	5355	219	0	-100	0	230	101300000	1000	0	0	-1	150
20717395	5353	223	0	-100	0	230	101300000	1000	0	0	-1	150
20729955	5352	221	0	-100	0	230	101300000	1000	0	0	-1	150
20742515	5355	219	0	-100	0	230	101300000	1000	0	0	-1	150
20755075	5350	226	0	-100	0	230	101300000	1000	0	0	-1	150
20767635	5357	220	0	-100	0	230	101300000	1000	0	0	-1	150
20780195	5351	219	0	-100	0	230	101300000	1000	0	0	-1	150
20792755	5347	226	0	-100	0	230	101300000	1000	0	0	-1	150
20805315	5354	219	0	-100	0	230	101300000	1000	0	0	-1	150
20817875	5348	226	0	-100	0	230	101300000	1000	0	0	-1	150
20830435	5358	216	0	-100	0	230	101300000	1000	0	0	-1	150
20842995	5352	220	0	-100	0	230	101300000	1000	0	0	-1	150
20855555	5360	219	0	-100	0	230	101300000	1000	0	0	-1	150
20868115	5350	219	0	-100	0	230	101300000	1000	0	0	-1	150
20880675	5350	225	0	-100	0	230	101300000	1000	0	0	-1	150
20893235	5356	218	0	-100	0	230	101300000	1000	0	0	-1	150
20905795	5349	218	0	-100	0	230	101300000	1000	0	0	-1	150
20918355	5351	226	0	-100	0	230	101300000	1000	0	0	-1	150
20930915	5355	219	0	-100	0	230	101300000	1000	0	0	-1	150
20943475	5350	226	0	-100	0	230	101300000	1000	0	0	-1	150
20956035	5360	221	0	-100	0	230	101300000	1000	0	0	-1	150
20968595	5349	218	0	-100	0	230	101300000	1000	0	0	-1	150
20981155	5348	229	0	-100	0	230	101300000	1000	0	0	-1	150
20993715	5359	219	0	-100	0	230	101300000	1000	0	0	-1	150
21006275	5350	219	0	-100	0	230	101300000	1000	0	0	-1	150
21018835	5352	226	0	-100	0	230	101300000	1000	0	0	-1	150
21031395	5354	220	0	-100	0	230	101300000	1000	0	0	-1	150
21043955	5354	219	0	-100	0	230	101300000	1000	0	0	-1	150
21056515	5348	225	0	-100	0	230	101300000	1000	0	0	-1	150
21069075	5363	219	0	-100	0	230	101300000	1000	0	0	-1	150
21081635	5352	219	0	-100	0	230	101300000	1000	0	0	-1	150
21094195	5350	226	0	-100	0	230	101300000	1000	0	0	-1	150
21106755	5359	219	0	-100	0	230	101300000	1000	0	0	-1	150
21119315	5349	218	0	-100	0	230	101300000	1000	0	0	-1	150
21131875	5351	226	0	-100	0	230	101300000	1000	0	0	-1	150
21144435	5356	218	0	-100	0	230	101300000	1000	0	0	-1	150
21156995	5351	217	0	-100	0	230	101300000	1000	0	0	-1	150
21169555	5353	222	0	-100	0	230	101300000	1000	0	0	-1	150
21182115	5352	219	0	-100	0	230	101300000	1000	0	0	-1	150
21194675	5351	227	0	-100	0	230	101300000	1000	0	0	-1	150
21207235	5360	216	0	-100	0	230	101300000	1000	0	0	-1	150
21219795	5351	223	0	-100	0	230	101300000	1000	0	0	-1	150
21232355	5353	220	0	-100	0	230	101300000	1000	0	0	-1	150
21244915	5355	219	0	-100	0	230	101300000	1000	0	0	-1	150
21257475	5350	223	0	-100	0	230	101300000	1000	0	0	-1	150
21270035	5355	217	0	-100	0	230	101300000	1000	0	0	-1	150
21282595	5353	221	0	-100	0	230	101300000	1000	0	0	-1	150
21295155	5341	223	0	-100	0	230	101300000	1000	0	0	-1	150
21307715	5354	219	0	-100	0	230	101300000	1000	0	0	-1	150
21320275	5358	218	0	-100	0	230	101300000	1000	0	0	-1	150
21332835	5352	224	0	-100	0	230	101300000	1000	0	0	-1	150
21345395	5355	216	0	-100	0	230	101300000	1000	0	0	-1	150
21357955	5353	226	0	-100	0	230	101300000	1000	0	0	-1	150
21370515	5357	218	0	-100	0	230	101300000	1000	0	0	-1	150
21383075	5354	226	0	-100	0	230	101300000	1000	0	0	-1	150
21395635	5352	218	0	-100	0	230	101300000	1000	0	0	-1	150
21408195	5355	225	0	-100	0	230	101300000	1000	0	0	-1	150
21420755	5355	216	0	-100	0	230	101300000	1000	0	0	-1	150
21433315	5352	225	0	-100	0	230	101300000	1000	0	0	-1	150
21445875	5353	218	0	-100	0	230	101300000	1000	0	0	-1	150
21458435	5353	225	0	-100	0	230	101300000	1000	0	0	-1	150
21470995	5355	225	0	-100	0	230	101300000	1000	0	0	-1	150
21483555	5351	221	0	-100	0	230	101300000	1000	0	0	-1	150
21496115	5354	223	0	-100	0	230	101300000	1000	0	0	-1	150
21508675	5354	219	0	-100	0	230	101300000	1000	0	0	-1	150
21521235	5350	223	0	-100	0	230	101300000	1000	0	0	-1	150
21533795	5351	218	0	-100	0	230	101300000	1000	0	0	-1	150
21546355	5353	223	0	-100	0	230	101300000	1000	0	0	-1	150
21558915	5354	221	0	-100	0	230	101300000	1000	0	0	-1	150
21571475	5355	220	0	-100	0	230	101300000	1000	0	0	-1	150
21584035	5348	222	0	-100	0	230	101300000	1000	0	0	-1	150
21596595	5352	225	0	-100	0	230	101300000	1000	0	0	-1	150
21609155	5356	222	0	-100	0	230	101300000	1000	0	0	-1	150
21621715	5345	218	0	-100	0	230	101300000	1000	0	0	-1	150
21634275	5349	226	0	-100	0	230	101300000	1000	0	0	-1	150
21646835	5357	217	0	-100	0	230	101300000	1000	0	0	-1	150
21659395	5351	223	0	-100	0	230	101300000	1000	0	0	-1	150
21671955	5346	225	0	-100	0	230	101300000	1000	0	0	-1	150
21684515	5355	217	0	-100	0	230	101300000	1000	0	0	-1	150
21697075	5353	219	0	-100	0	230	101300000	1000	0	0	-1	150
21709635	5352	226	0	-100	0	230	101300000	1000	0	0	-1	150
21722195	5352	217	0	-100	0	230	101300000	1000	0	0	-1	150
21734755	5345	222	0	-100	0	230	101300000	1000	0	0	-1	150
21747315	5353	221	0	-100	0	230	101300000	1000	0	0	-1	150
21759875	5358	219	0	-100	0	230	101300000	1000	0	0	-1	150
21772435	5352	227	0	-100	0	230	101300000	1000	0	0	-1	150
21784995	5358	228	0	-100	0	230	101300000	1000	0	0	-1	150
21797555	5354	218	0	-100	0	230	101300000	1000	0	0	-1	150
21810115	5358	225	0	-100	0	230	101300000	1000	0	0	-1	150
21822675	5351	222	0	-100	0	230	101300000	1000	0	0	-1	150
21835235	5354	217	0	-100	0	230	101300000	1000	0	0	-1	150
21847795	5352	218	0	-100	0	230	101300000	1000	0	0	-1	150
21860355	5350	223	0	-100	0	230	101300000	1000	0	0	-1	150
21872915	5351	224	0	-100	0	230	101300000	1000	0	0	-1	150
21885475	5357	219	0	-100	0	230	101300000	1000	0	0	-1	150
21898035	5355	219	0	-100	0	230	101300000	1000	0	0	-1	150
21910595	5350	218	0	-100	0	230	101300000	1000	0	0	-1	150
21923155	5347	227	0	-100	0	230	101300000	1000	0	0	-1	150
21935715	5357	218	0	-100	0	230	101300000	1000	0	0	-1	150
21948275	5345	223	0	-100	0	230	101300000	1000	0	0	-1	150
21960835	5352	220	0	-100	0	230	101300000	1000	0	0	-1	150
21973395	5353	219	0	-100	0	230	101300000	1000	0	0	-1	150
21985955	5354	226	0	-100	0	230	101300000	1000	0	0	-1	150
21998515	5357	217	0	-100	0	230	101300000	1000	0	0	-1	150
22011075	5352	221	0	-100	0	230	101300000	1000	0	0	-1	150
22023635	5348	223	0	-100	0	230	101300000	1000	0	0	-1	150
22036195	5362	219	0	-100	0	230	101300000	1000	0	0	-1	150
22048755	5352	219	0	-100	0	230	101300000	1000	0	0	-1	150
22061315	5356	228	0	-100	0	230	101300000	1000	0	0	-1	150
22073875	5356	219	0	-100	0	230	101300000	1000	0	0	-1	150
22086435	5348	219	0	-100	0	230	101300000	1000	0	0	-1	150
22098995	5351	223	0	-100	0	230	101300000	1000	0	0	-1	150
22111555	5357	219	0	-100	0	230	101300000	1000	0	0	-1	150
22124115	5353	227	0	-100	0	230	101300000	1000	0	0	-1	150
22136675	5355	217	0	-100	0	230	101300000	1000	0	0	-1	150
22149235	5351	223	0	-100	0	230	101300000	1000	0	0	-1	150
22161795	5353	219	0	-100	0	230	101300000	1000	0	0	-1	150
22174355	5355	219	0	-100	0	230	101300000	1000	0	0	-1	150
22186915	5352	226	0	-100	0	230	101300000	1000	0	0	-1	150
22199475	5356	218	0	-100	0	230	101300000	1000	0	0	-1	150
22212035	5351	226	0	-100	0	230	101300000	1000	0	0	-1	150
22224595	5354	218	0	-100	0	230	101300000	1000	0	0	-1	150
22237155	5344	227	0	-100	0	230	101300000	1000	0	0	-1	150
22249715	5359	219	0	-100	0	230	101300000	1000	0	0	-1	150
22262275	5356	225	0	-100	0	230	101300000	1000	0	0	-1	150
22274835	5353	219	0	-100	0	230	101300000	1000	0	0	-1	150
22287395	5352	227	0	-100	0	230	101300000	1000	0	0	-1	150
22299955	5355	219	0	-100	0	230	101300000	1000	0	0	-1	150
22312515	5348	223	0	-100	0	230	101300000	1000	0	0	-1	150
22325075	5353	223	0	-100	0	230	101300000	1000	0	0	-1	150
22337635	5355	218	0	-100	0	230	101300000	1000	0	0	-1	150
22350195	5353	227	0	-100	0	230	101300000	1000	0	0	-1	150
22362755	5358	221	0	-100	0	230	101300000	1000	0	0	-1	150
22375315	5351	219	0	-100	0	230	101300000	1000	0	0	-1	150
22387875	5348	224	0	-100	0	230	101300000	1000	0	0	-1	150
22400435	5355	217	0	-100	0	230	101300000	1000	0	0	-1	150
22412995	5351	222	0	-100	0	230	101300000	1000	0	0	-1	150
22425555	5354	220	0	-100	0	230	101300000	1000	0	0	-1	150
22438115	5353	224	0	-100	0	230	101300000	1000	0	0	-1	150
22450675	5355	219	0	-100	0	230	101300000	1000	0	0	-1	150
22463235	5353	222	0	-100	0	230	101300000	1000	0	0	-1	150
22475795	5352	220	0	-100	0	230	101300000	1000	0	0	-1	150
22488355	5352	223	0	-100	0	230	101300000	1000	0	0	-1	150
22500915	5347	218	0	-100	0	230	101300000	1000	0	0	-1	150
22513475	5362	220	0	-100	0	230	101300000	1000	0	0	-1	150
22526035	5354	223	0	-100	0	230	101300000	1000	0	0	-1	150
22538595	5359	217	0	-100	0	230	101300000	1000	0	0	-1	150
22551155	5345	228	0	-100	0	230	101300000	1000	0	0	-1	150
22563715	5353	219	0	-100	0	230	101300000	1000	0	0	-1	150
22576275	5355	219	0	-100	0	230	101300000	1000	0	0	-1	150
22588835	5353	223	0	-100	0	230	101300000	1000	0	0	-1	150
22601395	5354	218	0	-100	0	230	101300000	1000	0	0	-1	150
22613955	5352	223	0	-100	0	230	101300000	1000	0	0	-1	150
22626515	5348	223	0	-100	0	230	101300000	1000	0	0	-1	150
22639075	5355	219	0	-100	0	230	101300000	1000	0	0	-1	150
22651635	5351	223	0	-100	0	230	101300000	1000	0	0	-1	150
22664195	5351	226	0	-100	0	230	101300000	1000	0	0	-1	150
22676755	5352	218	0	-100	0	230	101300000	1000	0	0	-1	150
22689315	5348	223	0	-100	0	230	101300000	1000	0	0	-1	150
22701875	5348	223	0	-100	0	230	101300000	1000	0	0	-1	150
22714435	5358	220	0	-100	0	230	101300000	1000	0	0	-1	150
22726995	5353	223	0	-100	0	230	101300000	1000	0	0	-1	150
22739555	5351	222	0	-100	0	230	101300000	1000	0	0	-1	150
22752115	5353	218	0	-100	0	230	101300000	1000	0	0	-1	150
22764675	5348	226	0	-100	0	230	101300000	1000	0	0	-1	150
22777235	5354	219	0	-100	0	230	101300000	1000	0	0	-1	150
22789795	5348	224	0	-100	0	230	101300000	1000	0	0	-1	150
22802355	5354	219	0	-100	0	230	101300000	1000	0	0	-1	150
22814915	5350	225	0	-100	0	230	101300000	1000	0	0	-1	150
22827475	5358	219	0	-100	0	230	101300000	1000	0	0	-1	150
22840035	5353	224	0	-100	0	230	101300000	1000	0	0	-1	150
22852595	5359	218	0	-100	0	230	101300000	1000	0	0	-1	150
22865155	5349	221	0	-100	0	230	101300000	1000	0	0	-1	150
22877715	5352	218	0	-100	0	230	101300000	1000	0	0	-1	150
22890275	5354	226	0	-100	0	230	101300000	1000	0	0	-1	150
22902835	5355	218	0	-100	0	230	101300000	1000	0	0	-1	150
22915395	5351	223	0	-100	0	230	101300000	1000	0	0	-1	150
22927955	5358	219	0	-100	0	230	101300000	1000	0	0	-1	150
22940515	5348	218	0	-100	0	230	101300000	1000	0	0	-1	150
22953075	5347	225	0	-100	0	230	101300000	1000	0	0	-1	150
22965635	5359	217	0	-100	0	230	101300000	1000	0	0	-1	150
22978195	5348	224	0	-100	0	230	101300000	1000	0	0	-1	150
22990755	5352	225	0	-100	0	230	101300000	1000	0	0	-1	150
23003315	5359	220	0	-100	0	230	101300000	1000	0	0	-1	150
23015875	5354	219	0	-100	0	230	101300000	1000	0	0	-1	150
23028435	5350	226	0	-100	0	230	101300000	1000	0	0	-1	150
23040995	5358	227	0	-100	0	230	101300000	1000	0	0	-1	150
23053555	5349	219	0	-100	0	230	101300000	1000	0	0	-1	150
23066115	5350	225	0	-100	0	230	101300000	1000	0	0	-1	150
23078675	5356	215	0	-100	0	230	101300000	1000	0	0	-1	150
23091235	5349	223	0	-100	0	230	101300000	1000	0	0	-1	150
23103795	5353	221	0	-100	0	230	101300000	1000	0	0	-1	150
23116355	5358	219	0	-100	0	230	101300000	1000	0	0	-1	150
23128915	5353	228	0	-100	0	230	101300000	1000	0	0	-1	150
23141475	5358	219	0	-100	0	230	101300000	1000	0	0	-1	150
23154035	5354	223	0	-100	0	230	101300000	1000	0	0	-1	150
23166595	5355	218	0	-100	0	230	101300000	1000	0	0	-1	150
23179155	5346	226	0	-100	0	230	101300000	1000	0	0	-1	150
23191715	5349	227	0	-100	0	230	101300000	1000	0	0	-1	150
23204275	5358	221	0	-100	0	230	101300000	1000	0	0	-1	150
23216835	5357	219	0	-100	0	230	101300000	1000	0	0	-1	150
23229395	5351	222	0	-100	0	230	101300000	1000	0	0	-1	150
23241955	5354	219	0	-100	0	230	101300000	1000	0	0	-1	150
23254515	5349	219	0	-100	0	230	101300000	1000	0	0	-1	150
23267075	5348	225	0	-100	0	230	101300000	1000	0	0	-1	150
23279635	5355	219	0	-100	0	230	101300000	1000	0	0	-1	150
23292195	5348	223	0	-100	0	230	101300000	1000	0	0	-1	150
23304755	5352	220	0	-100	0	230	101300000	1000	0	0	-1	150
23317315	5354	219	0	-100	0	230	101300000	1000	0	0	-1	150
23329875	5351	226	0	-100	0	230	101300000	1000	0	0	-1	150
23342435	5354	217	0	-100	0	230	101300000	1000	0	0	-1	150
23354995	5348	219	0	-100	0	230	101300000	1000	0	0	-1	150
23367555	5349	223	0	-100	0	230	101300000	1000	0	0	-1	150
23380115	5357	219	0	-100	0	230	101300000	1000	0	0	-1	150
23392675	5351	226	0	-100	0	230	101300000	1000	0	0	-1	150
23405235	5357	218	0	-100	0	230	101300000	1000	0	0	-1	150
23417795	5352	221	0	-100	0	230	101300000	1000	0	0	-1	150
23430355	5351	225	0	-100	0	230	101300000	1000	0	0	-1	150
23442915	5355	216	0	-100	0	230	101300000	1000	0	0	-1	150
23455475	5354	219	0	-100	0	230	101300000	1000	0	0	-1	150
23468035	5351	225	0	-100	0	230	101300000	1000	0	0	-1	150
23480595	5360	219	0	-100	0	230	101300000	1000	0	0	-1	150
23493155	5346	222	0	-100	0	230	101300000	1000	0	0	-1	150
23505715	5356	223	0	-100	0	230	101300000	1000	0	0	-1	150
23518275	5354	219	0	-100	0	230	101300000	1000	0	0	-1	150
23530835	5353	227	0	-100	0	230	101300000	1000	0	0	-1	150
23543395	5358	219	0	-100	0	230	101300000	1000	0	0	-1	150
23555955	5350	224	0	-100	0	230	101300000	1000	0	0	-1	150
23568515	5359	221	0	-100	0	230	101300000	1000	0	0	-1	150
23581075	5351	223	0	-100	0	230	101300000	1000	0	0	-1	150
23593635	5354	220	0	-100	0	230	101300000	1000	0	0	-1	150
23606195	5352	219	0	-100	0	230	101300000	1000	0	0	-1	150
23618755	5350	224	0	-100	0	230	101300000	1000	0	0	-1	150
23631315	5352	219	0	-100	0	230	101300000	1000	0	0	-1	150
23643875	5352	224	0	-100	0	230	101300000	1000	0	0	-1	150
23656435	5351	220	0	-100	0	230	101300000	1000	0	0	-1	150
23668995	5360	225	0	-100	0	230	101300000	1000	0	0	-1	150
23681555	5354	225	0	-100	0	230	101300000	1000	0	0	-1	150
23694115	5352	217	0	-100	0	230	101300000	1000	0	0	-1	150
23706675	5351	223	0	-100	0	230	101300000	1000	0	0	-1	150
23719235	5355	219	0	-100	0	230	101300000	1000	0	0	-1	150
23731795	5348	222	0	-100	0	230	101300000	1000	0	0	-1	150
23744355	5355	220	0	-100	0	230	101300000	1000	0	0	-1	150
23756915	5352	220	0	-100	0	230	101300000	1000	0	0	-1	150
23769475	5351	221	0	-100	0	230	101300000	1000	0	0	-1	150
23782035	5349	219	0	-100	0	230	101300000	1000	0	0	-1	150
23794595	5354	221	0	-100	0	230	101300000	1000	0	0	-1	150
23807155	5341	224	0	-100	0	230	101300000	1000	0	0	-1	150
23819715	5351	218	0	-100	0	230	101300000	1000	0	0	-1	150
23832275	5352	224	0	-100	0	230	101300000	1000	0	0	-1	150
23844835	5358	219	0	-100	0	230	101300000	1000	0	0	-1	150
23857395	5349	228	0	-100	0	230	101300000	1000	0	0	-1	150
23869955	5352	217	0	-100	0	230	101300000	1000	0	0	-1	150
23882515	5349	223	0	-100	0	230	101300000	1000	0	0	-1	150
23895075	5354	223	0	-100	0	230	101300000	1000	0	0	-1	150
23907635	5355	218	0	-100	0	230	101300000	1000	0	0	-1	150
23920195	5349	224	0	-100	0	230	101300000	1000	0	0	-1	150
23932755	5358	220	0	-100	0	230	101300000	1000	0	0	-1	150
23945315	5349	227	0	-100	0	230	101300000	1000	0	0	-1	150
23957875	5352	218	0	-100	0	230	101300000	1000	0	0	-1	150
23970435	5348	225	0	-100	0	230	101300000	1000	0	0	-1	150
23982995	5355	225	0	-100	0	230	101300000	1000	0	0	-1	150
23995555	5357	224	0	-100	0	230	101300000	1000	0	0	-1	150
24008115	5359	220	0	-100	0	230	101300000	1000	0	0	-1	150
24020675	5348	219	0	-100	0	230	101300000	1000	0	0	-1	150
24033235	5348	226	0	-100	0	230	101300000	1000	0	0	-1	150
24045795	5352	217	0	-100	0	230	101300000	1000	0	0	-1	150
24058355	5351	224	0	-100	0	230	101300000	1000	0	0	-1	150
24070915	5356	218	0	-100	0	230	101300000	1000	0	0	-1	150
24083475	5349	223	0	-100	0	230	101300000	1000	0	0	-1	150
24096035	5352	223	0	-100	0	230	101300000	1000	0	0	-1	150
24108595	5357	218	0	-100	0	230	101300000	1000	0	0	-1	150
24121155	5344	225	0	-100	0	230	101300000	1000	0	0	-1	150
24133715	5355	218	0	-100	0	230	101300000	1000	0	0	-1	150
24146275	5352	224	0	-100	0	230	101300000	1000	0	0	-1	150
24158835	5355	220	0	-100	0	230	101300000	1000	0	0	-1	150
24171395	5348	227	0	-100	0	230	101300000	1000	0	0	-1	150
24183955	5358	218	0	-100	0	230	101300000	1000	0	0	-1	150
24196515	5349	227	0	-100	0	230	101300000	1000	0	0	-1	150
24209075	5358	219	0	-100	0	230	101300000	1000	0	0	-1	150
24221635	5351	222	0	-100	0	230	101300000	1000	0	0	-1	150
24234195	5352	224	0	-100	0	230	101300000	1000	0	0	-1	150
24246755	5356	219	0	-100	0	230	101300000	1000	0	0	-1	150
24259315	5353	226	0	-100	0	230	101300000	1000	0	0	-1	150
24271875	5353	220	0	-100	0	230	101300000	1000	0	0	-1	150
24284435	5348	222	0	-100	0	230	101300000	1000	0	0	-1	150
24296995	5350	223	0	-100	0	230	101300000	1000	0	0	-1	150
24309555	5358	219	0	-100	0	230	101300000	1000	0	0	-1	150
24322115	5352	227	0	-100	0	230	101300000	1000	0	0	-1	150
24334675	5360	219	0	-100	0	230	101300000	1000	0	0	-1	150
24347235	5353	226	0	-100	0	230	101300000	1000	0	0	-1	150
24359795	5355	219	0	-100	0	230	101300000	1000	0	0	-1	150
24372355	5347	224	0	-100	0	230	101300000	1000	0	0	-1	150
24384915	5352	221	0	-100	0	230	101300000	1000	0	0	-1	150
24397475	5355	218	0	-100	0	230	101300000	1000	0	0	-1	150
24410035	5349	224	0	-100	0	230	101300000	1000	0	0	-1	150
24422595	5355	219	0	-100	0	230	101300000	1000	0	0	-1	150
24435155	5342	227	0	-100	0	230	101300000	1000	0	0	-1	150
24447715	5353	217	0	-100	0	230	101300000	1000	0	0	-1	150
24460275	5351	223	0	-100	0	230	101300000	1000	0	0	-1	150
24472835	5352	219	0	-100	0	230	101300000	1000	0	0	-1	150
24485395	5354	220	0	-100	0	230	101300000	1000	0	0	-1	150
24497955	5351	222	0	-100	0	230	101300000	1000	0	0	-1	150
24510515	5362	220	0	-100	0	230	101300000	1000	0	0	-1	150
24523075	5354	227	0	-100	0	230	101300000	1000	0	0	-1	150
24535635	5359	216	0	-100	0	230	101300000	1000	0	0	-1	150
24548195	5354	223	0	-100	0	230	101300000	1000	0	0	-1	150
24560755	5354	215	0	-100	0	230	101300000	1000	0	0	-1	150
24573315	5352	224	0	-100	0	230	101300000	1000	0	0	-1	150
24585875	5355	219	0	-100	0	230	101300000	1000	0	0	-1	150
24598435	5351	219	0	-100	0	230	101300000	1000	0	0	-1	150
24610995	5347	223	0	-100	0	230	101300000	1000	0	0	-1	150
24623555	5354	219	0	-100	0	230	101300000	1000	0	0	-1	150
24636115	5351	224	0	-100	0	230	101300000	1000	0	0	-1	150
24648675	5354	221	0	-100	0	230	101300000	1000	0	0	-1	150
24661235	5352	225	0	-100	0	230	101300000	1000	0	0	-1	150
24673795	5359	218	0	-100	0	230	101300000	1000	0	0	-1	150
24686355	5354	227	0	-100	0	230	101300000	1000	0	0	-1	150
24698915	5356	218	0	-100	0	230	101300000	1000	0	0	-1	150
24711475	5353	227	0	-100	0	230	101300000	1000	0	0	-1	150
24724035	5354	215	0	-100	0	230	101300000	1000	0	0	-1	150
24736595	5348	222	0	-100	0	230	101300000	1000	0	0	-1	150
24749155	5349	222	0	-100	0	230	101300000	1000	0	0	-1	150
24761715	5355	218	0	-100	0	230	101300000	1000	0	0	-1	150
24774275	5354	225	0	-100	0	230	101300000	1000	0	0	-1	150
24786835	5356	217	0	-100	0	230	101300000	1000	0	0	-1	150
24799395	5349	223	0	-100	0	230	101300000	1000	0	0	-1	150
24811955	5353	223	0	-100	0	230	101300000	1000	0	0	-1	150
24824515	5353	218	0	-100	0	230	101300000	1000	0	0	-1	150
24837075	5354	223	0	-100	0	230	101300000	1000	0	0	-1	150
24849635	5354	218	0	-100	0	230	101300000	1000	0	0	-1	150
24862195	5347	223	0	-100	0	230	101300000	1000	0	0	-1	150
24874755	5351	218	0	-100	0	230	101300000	1000	0	0	-1	150
24887315	5352	222	0	-100	0	230	101300000	1000	0	0	-1	150
24899875	5353	219	0	-100	0	230	101300000	1000	0	0	-1	150
24912435	5353	223	0	-100	0	230	101300000	1000	0	0	-1	150
24924995	5352	219	0	-100	0	230	101300000	1000	0	0	-1	150
24937555	5353	223	0	-100	0	230	101300000	1000	0	0	-1	150
24950115	5355	219	0	-100	0	230	101300000	1000	0	0	-1	150
24962675	5352	227	0	-100	0	230	101300000	1000	0	0	-1	150
24975235	5352	219	0	-100	0	230	101300000	1000	0	0	-1	150
24987795	5354	223	0	-100	0	230	101300000	1000	0	0	-1	150
25000355	5358	219	0	-100	0	230	101300000	1000	0	0	-1	150
25012915	5351	222	0	-100	0	230	101300000	1000	0	0	-1	150
25025475	5352	223	0	-100	0	230	101300000	1000	0	0	-1	150
25038035	5350	219	0	-100	0	230	101300000	1000	0	0	-1	150
25050595	5347	224	0	-100	0	230	101300000	1000	0	0	-1	150
25063155	5349	219	0	-100	0	230	101300000	1000	0	0	-1	150
25075715	5349	222	0	-100	0	230	101300000	1000	0	0	-1	150
25088275	5354	223	0	-100	0	230	101300000	1000	0	0	-1	150
25100835	5357	219	0	-100	0	230	101300000	1000	0	0	-1	150
25113395	5353	227	0	-100	0	230	101300000	1000	0	0	-1	150
25125955	5359	218	0	-100	0	230	101300000	1000	0	0	-1	150
25138515	5344	223	0	-100	0	230	101300000	1000	0	0	-1	150
25151075	5355	218	0	-100	0	230	101300000	1000	0	0	-1	150
25163635	5348	220	0	-100	0	230	101300000	1000	0	0	-1	150
25176195	5351	223	0	-100	0	230	101300000	1000	0	0	-1	150
25188755	5352	218	0	-100	0	230	101300000	1000	0	0	-1	150
25201315	5353	225	0	-100	0	230	101300000	1000	0	0	-1	150
25213875	5351	222	0	-100	0	230	101300000	1000	0	0	-1	150
25226435	5358	220	0	-100	0	230	101300000	1000	0	0	-1	150
25238995	5352	219	0	-100	0	230	101300000	1000	0	0	-1	150
25251555	5352	218	0	-100	0	230	101300000	1000	0	0	-1	150
25264115	5348	226	0	-100	0	230	101300000	1000	0	0	-1	150
25276675	5350	218	0	-100	0	230	101300000	1000	0	0	-1	150
25289235	5348	224	0	-100	0	230	101300000	1000	0	0	-1	150
25301795	5352	218	0	-100	0	230	101300000	1000	0	0	-1	150
25314355	5356	219	0	-100	0	230	101300000	1000	0	0	-1	150
25326915	5354	226	0	-100	0	230	101300000	1000	0	0	-1	150
25339475	5356	219	0	-100	0	230	101300000	1000	0	0	-1	150
25352035	5347	225	0	-100	0	230	101300000	1000	0	0	-1	150
25364595	5355	218	0	-100	0	230	101300000	1000	0	0	-1	150
25377155	5340	227	0	-100	0	230	101300000	1000	0	0	-1	150
25389715	5351	217	0	-100	0	230	101300000	1000	0	0	-1	150
25402275	5345	222	0	-100	0	230	101300000	1000	0	0	-1	150
25414835	5354	219	0	-100	0	230	101300000	1000	0	0	-1	150
25427395	5355	219	0	-100	0	230	101300000	1000	0	0	-1	150
25439955	5350	223	0	-100	0	230	101300000	1000	0	0	-1	150
25452515	5348	219	0	-100	0	230	101300000	1000	0	0	-1	150
25465075	5352	221	0	-100	0	230	101300000	1000	0	0	-1	150
25477635	5353	222	0	-100	0	230	101300000	1000	0	0	-1	150
25490195	5355	218	0	-100	0	230	101300000	1000	0	0	-1	150
25502755	5355	236	0	-100	0	230	101300000	1000	0	0	-1	150
25515315	5355	219	0	-100	0	230	101300000	1000	0	0	-1	150
25527875	5345	224	0	-100	0	230	101300000	1000	0	0	-1	150
25540435	5351	219	0	-100	0	230	101300000	1000	0	0	-1	150
25552995	5349	223	0	-100	0	230	101300000	1000	0	0	-1	150
25565555	5351	220	0	-100	0	230	101300000	1000	0	0	-1	150
25578115	5359	221	0	-100	0	230	101300000	1000	0	0	-1	150
25590675	5351	225	0	-100	0	230	101300000	1000	0	0	-1	150
25603235	5355	219	0	-100	0	230	101300000	1000	0	0	-1	150
25615795	5352	226	0	-100	0	230	101300000	1000	0	0	-1	150
25628355	5354	218	0	-100	0	230	101300000	1000	0	0	-1	150
25640915	5352	222	0	-100	0	230	101300000	1000	0	0	-1	150
25653475	5353	219	0	-100	0	230	101300000	1000	0	0	-1	150
25666035	5359	219	0	-100	0	230	101300000	1000	0	0	-1	150
25678595	5351	223	0	-100	0	230	101300000	1000	0	0	-1	150
25691155	5349	218	0	-100	0	230	101300000	1000	0	0	-1	150
25703715	5352	225	0	-100	0	230	101300000	1000	0	0	-1	150
25716275	5358	221	0	-100	0	230	101300000	1000	0	0	-1	150
25728835	5352	222	0	-100	0	230	101300000	1000	0	0	-1	150
25741395	5356	217	0	-100	0	230	101300000	1000	0	0	-1	150
25753955	5349	227	0	-100	0	230	101300000	1000	0	0	-1	150
25766515	5354	219	0	-100	0	230	101300000	1000	0	0	-1	150
25779075	5350	227	0	-100	0	230	101300000	1000	0	0	-1	150
25791635	5357	219	0	-100	0	230	101300000	1000	0	0	-1	150
25804195	5351	224	0	-100	0	230	101300000	1000	0	0	-1	150
25816755	5357	218	0	-100	0	230	101300000	1000	0	0	-1	150
25829315	5354	222	0	-100	0	230	101300000	1000	0	0	-1	150
25841875	5344	223	0	-100	0	230	101300000	1000	0	0	-1	150
25854435	5354	220	0	-100	0	230	101300000	1000	0	0	-1	150
25866995	5353	223	0	-100	0	230	101300000	1000	0	0	-1	150
25879555	5351	227	0	-100	0	230	101300000	1000	0	0	-1	150
25892115	5355	219	0	-100	0	230	101300000	1000	0	0	-1	150
25904675	5356	218	0	-100	0	230	101300000	1000	0	0	-1	150
25917235	5350	227	0	-100	0	230	101300000	1000	0	0	-1	150
25929795	5352	219	0	-100	0	230	101300000	1000	0	0	-1	150
25942355	5354	219	0	-100	0	230	101300000	1000	0	0	-1	150
25954915	5357	227	0	-100	0	230	101300000	1000	0	0	-1	150
25967475	5354	218	0	-100	0	230	101300000	1000	0	0	-1	150
25980035	5353	220	0	-100	0	230	101300000	1000	0	0	-1	150
25992595	5352	224	0	-100	0	230	101300000	1000	0	0	-1	150
26005155	5352	219	0	-100	0	230	101300000	1000	0	0	-1	150
26017715	5352	224	0	-100	0	230	101300000	1000	0	0	-1	150
26030275	5351	218	0	-100	0	230	101300000	1000	0	0	-1	150
26042835	5357	219	0	-100	0	230	101300000	1000	0	0	-1	150
26055395	5352	227	0	-100	0	230	101300000	1000	0	0	-1	150
26067955	5358	219	0	-100	0	230	101300000	1000	0	0	-1	150
26080515	5353	223	0	-100	0	230	101300000	1000	0	0	-1	150
26093075	5351	222	0	-100	0	230	101300000	1000	0	0	-1	150
26105635	5353	219	0	-100	0	230	101300000	1000	0	0	-1	150
26118195	5357	219	0	-100	0	230	101300000	1000	0	0	-1	150
26130755	5352	226	0	-100	0	230	101300000	1000	0	0	-1	150
26143315	5356	219	0	-100	0	230	101300000	1000	0	0	-1	150
26155875	5355	216	0	-100	0	230	101300000	1000	0	0	-1	150
26168435	5346	225	0	-100	0	230	101300000	1000	0	0	-1	150
26180995	5345	218	0	-100	0	230	101300000	1000	0	0	-1	150
26193555	5355	220	0	-100	0	230	101300000	1000	0	0	-1	150
26206115	5351	223	0	-100	0	230	101300000	1000	0	0	-1	150
26218675	5355	218	0	-100	0	230	101300000	1000	0	0	-1	150
26231235	5347	223	0	-100	0	230	101300000	1000	0	0	-1	150
26243795	5345	224	0	-100	0	230	101300000	1000	0	0	-1	150
26256355	5358	218	0	-100	0	230	101300000	1000	0	0	-1	150
26268915	5351	224	0	-100	0	230	101300000	1000	0	0	-1	150
26281475	5345	223	0	-100	0	230	101300000	1000	0	0	-1	150
26294035	5355	217	0	-100	0	230	101300000	1000	0	0	-1	150
26306595	5350	224	0	-100	0	230	101300000	1000	0	0	-1	150
26319155	5345	224	0	-100	0	230	101300000	1000	0	0	-1	150
26331715	5356	217	0	-100	0	230	101300000	1000	0	0	-1	150
26344275	5347	225	0	-100	0	230	101300000	1000	0	0	-1	150
26356835	5344	223	0	-100	0	230	101300000	1000	0	0	-1	150
26369395	5354	218	0	-100	0	230	101300000	1000	0	0	-1	150
26381955	5357	219	0	-100	0	230	101300000	1000	0	0	-1	150
26394515	5356	226	0	-100	0	230	101300000	1000	0	0	-1	150
26407075	5352	218	0	-100	0	230	101300000	1000	0	0	-1	150
26419635	5355	218	0	-100	0	230	101300000	1000	0	0	-1	150
26432195	5350	223	0	-100	0	230	101300000	1000	0	0	-1	150
26444755	5352	223	0	-100	0	230	101300000	1000	0	0	-1	150
26457315	5356	220	0	-100	0	230	101300000	1000	0	0	-1	150
26469875	5347	223	0	-100	0	230	101300000	1000	0	0	-1	150
26482435	5351	223	0	-100	0	230	101300000	1000	0	0	-1	150
26494995	5355	224	0	-100	0	230	101300000	1000	0	0	-1	150
26507555	5353	225	0	-100	0	230	101300000	1000	0	0	-1	150
26520115	5352	219	0	-100	0	230	101300000	1000	0	0	-1	150
26532675	5348	223	0	-100	0	230	101300000	1000	0	0	-1	150
26545235	5355	224	0	-100	0	230	101300000	1000	0	0	-1	150
26557795	5356	220	0	-100	0	230	101300000	1000	0	0	-1	150
26570355	5355	219	0	-100	0	230	101300000	1000	0	0	-1	150
26582915	5350	222	0	-100	0	230	101300000	1000	0	0	-1	150
26595475	5348	225	0	-100	0	230	101300000	1000	0	0	-1	150
26608035	5354	218	0	-100	0	230	101300000	1000	0	0	-1	150
26620595	5355	221	0	-100	0	230	101300000	1000	0	0	-1	150
26633155	5343	227	0	-100	0	230	101300000	1000	0	0	-1	150
26645715	5352	219	0	-100	0	230	101300000	1000	0	0	-1	150
26658275	5355	218	0	-100	0	230	101300000	1000	0	0	-1	150
26670835	5351	224	0	-100	0	230	101300000	1000	0	0	-1	150
26683395	5348	223	0	-100	0	230	101300000	1000	0	0	-1	150
26695955	5353	219	0	-100	0	230	101300000	1000	0	0	-1	150
26708515	5350	223	0	-100	0	230	101300000	1000	0	0	-1	150
26721075	5351	223	0	-100	0	230	101300000	1000	0	0	-1	150
26733635	5359	220	0	-100	0	230	101300000	1000	0	0	-1	150
26746195	5351	222	0	-100	0	230	101300000	1000	0	0	-1	150
26758755	5350	227	0	-100	0	230	101300000	1000	0	0	-1	150
26771315	5349	223	0	-100	0	230	101300000	1000	0	0	-1	150
26783875	5359	219	0	-100	0	230	101300000	1000	0	0	-1	150
26796435	5352	216	0	-100	0	230	101300000	1000	0	0	-1	150
26808995	5353	227	0	-100	0	230	101300000	1000	0	0	-1	150
26821555	5349	225	0	-100	0	230	101300000	1000	0	0	-1	150
26834115	5351	222	0	-100	0	230	101300000	1000	0	0	-1	150
26846675	5352	218	0	-100	0	230	101300000	1000	0	0	-1	150
26859235	5355	220	0	-100	0	230	101300000	1000	0	0	-1	150
26871795	5351	225	0	-100	0	230	101300000	1000	0	0	-1	150
26884355	5351	219	0	-100	0	230	101300000	1000	0	0	-1	150
26896915	5356	219	0	-100	0	230	101300000	1000	0	0	-1	150
26909475	5354	219	0	-100	0	230	101300000	1000	0	0	-1	150
26922035	5351	224	0	-100	0	230	101300000	1000	0	0	-1	150
26934595	5357	222	0	-100	0	230	101300000	1000	0	0	-1	150
26947155	5345	220	0	-100	0	230	101300000	1000	0	0	-1	150
26959715	5353	219	0	-100	0	230	101300000	1000	0	0	-1	150
26972275	5352	224	0	-100	0	230	101300000	1000	0	0	-1	150
26984835	5348	222	0	-100	0	230	101300000	1000	0	0	-1	150
26997395	5354	219	0	-100	0	230	101300000	1000	0	0	-1	150
27009955	5360	220	0	-100	0	230	101300000	1000	0	0	-1	150
27022515	5352	225	0	-100	0	230	101300000	1000	0	0	-1	150
27035075	5348	218	0	-100	0	230	101300000	1000	0	0	-1	150
27047635	5354	219	0	-100	0	230	101300000	1000	0	0	-1	150
27060195	5354	222	0	-100	0	230	101300000	1000	0	0	-1	150
27072755	5352	225	0	-100	0	230	101300000	1000	0	0	-1	150
27085315	5349	220	0	-100	0	230	101300000	1000	0	0	-1	150
27097875	5358	219	0	-100	0	230	101300000	1000	0	0	-1	150
27110435	5352	223	0	-100	0	230	101300000	1000	0	0	-1	150
27122995	5351	219	0	-100	0	230	101300000	1000	0	0	-1	150
27135555	5356	219	0	-100	0	230	101300000	1000	0	0	-1	150
27148115	5359	220	0	-100	0	230	101300000	1000	0	0	-1	150
27160675	5350	225	0	-100	0	230	101300000	1000	0	0	-1	150
27173235	5343	222	0	-100	0	230	101300000	1000	0	0	-1	150
27185795	5354	218	0	-100	0	230	101300000	1000	0	0	-1	150
27198355	5361	219	0	-100	0	230	101300000	1000	0	0	-1	150
27210915	5350	223	0	-100	0	230	101300000	1000	0	0	-1	150
27223475	5353	223	0	-100	0	230	101300000	1000	0	0	-1	150
27236035	5355	218	0	-100	0	230	101300000	1000	0	0	-1	150
27248595	5351	220	0	-100	0	230	101300000	1000	0	0	-1	150
27261155	5340	224	0	-100	0	230	101300000	1000	0	0	-1	150
27273715	5355	220	0	-100	0	230	101300000	1000	0	0	-1	150
27286275	5356	228	0	-100	0	230	101300000	1000	0	0	-1	150
27298835	5354	219	0	-100	0	230	101300000	1000	0	0	-1	150
27311395	5347	226	0	-100	0	230	101300000	1000	0	0	-1	150
27323955	5355	220	0	-100	0	230	101300000	1000	0	0	-1	150
27336515	5347	225	0	-100	0	230	101300000	1000	0	0	-1	150
27349075	5349	218	0	-100	0	230	101300000	1000	0	0	-1	150
27361635	5355	221	0	-100	0	230	101300000	1000	0	0	-1	150
27374195	5352	222	0	-100	0	230	101300000	1000	0	0	-1	150
27386755	5350	219	0	-100	0	230	101300000	1000	0	0	-1	150
27399315	5347	224	0	-100	0	230	101300000	1000	0	0	-1	150
27411875	5352	220	0	-100	0	230	101300000	1000	0	0	-1	150
27424435	5353	219	0	-100	0	230	101300000	1000	0	0	-1	150
27436995	5348	219	0	-100	0	230	101300000	1000	0	0	-1	150
27449555	5355	220	0	-100	0	230	101300000	1000	0	0	-1	150
27462115	5357	218	0	-100	0	230	101300000	1000	0	0	-1	150
27474675	5352	227	0	-100	0	230	101300000	1000	0	0	-1	150
27487235	5355	218	0	-100	0	230	101300000	1000	0	0	-1	150
27499795	5356	220	0	-100	0	230	101300000	1000	0	0	-1	150
27512355	5348	225	0	-100	0	230	101300000	1000	0	0	-1	150
27524915	5349	223	0	-100	0	230	101300000	1000	0	0	-1	150
27537475	5359	219	0	-100	0	230	101300000	1000	0	0	-1	150
27550035	5352	218	0	-100	0	230	101300000	1000	0	0	-1	150
27562595	5349	226	0	-100	0	230	101300000	1000	0	0	-1	150
27575155	5344	222	0	-100	0	230	101300000	1000	0	0	-1	150
27587715	5354	216	0	-100	0	230	101300000	1000	0	0	-1	150
27600275	5348	223	0	-100	0	230	101300000	1000	0	0	-1	150
27612835	5352	219	0	-100	0	230	101300000	1000	0	0	-1	150
27625395	5358	219	0	-100	0	230	101300000	1000	0	0	-1	150
27637955	5347	226	0	-100	0	230	101300000	1000	0	0	-1	150
27650515	5351	219	0	-100	0	230	101300000	1000	0	0	-1	150
27663075	5358	216	0	-100	0	230	101300000	1000	0	0	-1	150
27675635	5347	223	0	-100	0	230	101300000	1000	0	0	-1	150
27688195	5349	223	0	-100	0	230	101300000	1000	0	0	-1	150
27700755	5356	219	0	-100	0	230	101300000	1000	0	0	-1	150
27713315	5348	222	0	-100	0	230	101300000	1000	0	0	-1	150
27725875	5352	223	0	-100	0	230	101300000	1000	0	0	-1	150
27738435	5356	220	0	-100	0	230	101300000	1000	0	0	-1	150
27750995	5348	219	0	-100	0	230	101300000	1000	0	0	-1	150
27763555	5349	221	0	-100	0	230	101300000	1000	0	0	-1	150
27776115	5359	219	0	-100	0	230	101300000	1000	0	0	-1	150
27788675	5352	219	0	-100	0	230	101300000	1000	0	0	-1	150
27801235	5348	227	0	-100	0	230	101300000	1000	0	0	-1	150
27813795	5352	220	0	-100	0	230	101300000	1000	0	0	-1	150
27826355	5358	216	0	-100	0	230	101300000	1000	0	0	-1	150
27838915	5347	222	0	-100	0	230	101300000	1000	0	0	-1	150
27851475	5351	222	0	-100	0	230	101300000	1000	0	0	-1	150
27864035	5352	220	0	-100	0	230	101300000	1000	0	0	-1	150
27876595	5347	224	0	-100	0	230	101300000	1000	0	0	-1	150
27889155	5348	220	0	-100	0	230	101300000	1000	0	0	-1	150
27901715	5359	219	0	-100	0	230	101300000	1000	0	0	-1	150
27914275	5348	223	0	-100	0	230	101300000	1000	0	0	-1	150
27926835	5347	223	0	-100	0	230	101300000	1000	0	0	-1	150
27939395	5359	217	0	-100	0	230	101300000	1000	0	0	-1	150
27951955	5347	224	0	-100	0	230	101300000	1000	0	0	-1	150
27964515	5351	222	0	-100	0	230	101300000	1000	0	0	-1	150
27977075	5359	219	0	-100	0	230	101300000	1000	0	0	-1	150
27989635	5357	220	0	-100	0	230	101300000	1000	0	0	-1	150
28002195	5348	223	0	-100	0	230	101300000	1000	0	0	-1	150
28014755	5352	223	0	-100	0	230	101300000	1000	0	0	-1	150
28027315	5354	218	0	-100	0	230	101300000	1000	0	0	-1	150
28039875	5348	224	0	-100	0	230	101300000	1000	0	0	-1	150
28052435	5351	223	0	-100	0	230	101300000	1000	0	0	-1	150
28064995	5352	222	0	-100	0	230	101300000	1000	0	0	-1	150
28077555	5351	223	0	-100	0	230	101300000	1000	0	0	-1	150
28090115	5353	222	0	-100	0	230	101300000	1000	0	0	-1	150
28102675	5351	219	0	-100	0	230	101300000	1000	0	0	-1	150
28115235	5358	219	0	-100	0	230	101300000	1000	0	0	-1	150
28127795	5347	223	0	-100	0	230	101300000	1000	0	0	-1	150
28140355	5349	222	0	-100	0	230	101300000	1000	0	0	-1	150
28152915	5355	219	0	-100	0	230	101300000	1000	0	0	-1	150
28165475	5354	219	0	-100	0	230	101300000	1000	0	0	-1	150
28178035	5348	227	0	-100	0	230	101300000	1000	0	0	-1	150
28190595	5354	219	0	-100	0	230	101300000	1000	0	0	-1	150
28203155	5352	220	0	-100	0	230	101300000	1000	0	0	-1	150
28215715	5350	225	0	-100	0	230	101300000	1000	0	0	-1	150
28228275	5353	222	0	-100	0	230	101300000	1000	0	0	-1	150
28240835	5349	218	0	-100	0	230	101300000	1000	0	0	-1	150
28253395	5356	218	0	-100	0	230	101300000	1000	0	0	-1	150
28265955	5348	223	0	-100	0	230	101300000	1000	0	0	-1	150
28278515	5347	218	0	-100	0	230	101300000	1000	0	0	-1	150
28291075	5362	221	0	-100	0	230	101300000	1000	0	0	-1	150
28303635	5348	224	0	-100	0	230	101300000	1000	0	0	-1	150
28316195	5353	218	0	-100	0	230	101300000	1000	0	0	-1	150
28328755	5360	221	0	-100	0	230	101300000	1000	0	0	-1	150
28341315	5354	225	0	-100	0	230	101300000	1000	0	0	-1	150
28353875	5355	219	0	-100	0	230	101300000	1000	0	0	-1	150
28366435	5353	227	0	-100	0	230	101300000	1000	0	0	-1	150
28378995	5355	223	0	-100	0	230	101300000	1000	0	0	-1	150
28391555	5348	224	0	-100	0	230	101300000	1000	0	0	-1	150
28404115	5352	219	0	-100	0	230	101300000	1000	0	0	-1	150
28416675	5353	219	0	-100	0	230	101300000	1000	0	0	-1	150
28429235	5353	227	0	-100	0	230	101300000	1000	0	0	-1	150
28441795	5356	220	0	-100	0	230	101300000	1000	0	0	-1	150
28454355	5350	223	0	-100	0	230	101300000	1000	0	0	-1	150
28466915	5349	224	0	-100	0	230	101300000	1000	0	0	-1	150
28479475	5356	216	0	-100	0	230	101300000	1000	0	0	-1	150
28492035	5348	226	0	-100	0	230	101300000	1000	0	0	-1	150
28504595	5354	218	0	-100	0	230	101300000	1000	0	0	-1	150
28517155	5346	220	0	-100	0	230	101300000	1000	0	0	-1	150
28529715	5348	223	0	-100	0	230	101300000	1000	0	0	-1	150
28542275	5359	219	0	-100	0	230	101300000	1000	0	0	-1	150
28554835	5352	223	0	-100	0	230	101300000	1000	0	0	-1	150
28567395	5358	216	0	-100	0	230	101300000	1000	0	0	-1	150
28579955	5351	226	0	-100	0	230	101300000	1000	0	0	-1	150
28592515	5354	219	0	-100	0	230	101300000	1000	0	0	-1	150
28605075	5351	225	0	-100	0	230	101300000	1000	0	0	-1	150
28617635	5353	219	0	-100	0	230	101300000	1000	0	0	-1	150
28630195	5353	221	0	-100	0	230	101300000	1000	0	0	-1	150
28642755	5353	222	0	-100	0	230	101300000	1000	0	0	-1	150
28655315	5355	217	0	-100	0	230	101300000	1000	0	0	-1	150
28667875	5352	225	0	-100	0	230	101300000	1000	0	0	-1	150
28680435	5350	219	0	-100	0	230	101300000	1000	0	0	-1	150
28692995	5357	228	0	-100	0	230	101300000	1000	0	0	-1	150
28705555	5354	227	0	-100	0	230	101300000	1000	0	0	-1	150
28718115	5353	219	0	-100	0	230	101300000	1000	0	0	-1	150
28730675	5352	224	0	-100	0	230	101300000	1000	0	0	-1	150
28743235	5353	218	0	-100	0	230	101300000	1000	0	0	-1	150
28755795	5351	223	0	-100	0	230	101300000	1000	0	0	-1	150
28768355	5358	218	0	-100	0	230	101300000	1000	0	0	-1	150
28780915	5349	225	0	-100	0	230	101300000	1000	0	0	-1	150
28793475	5355	219	0	-100	0	230	101300000	1000	0	0	-1	150
28806035	5352	225	0	-100	0	230	101300000	1000	0	0	-1	150
28818595	5351	219	0	-100	0	230	101300000	1000	0	0	-1	150
28831155	5348	222	0	-100	0	230	101300000	1000	0	0	-1	150
28843715	5351	224	0	-100	0	230	101300000	1000	0	0	-1	150
28856275	5347	223	0	-100	0	230	101300000	1000	0	0	-1	150
28868835	5355	218	0	-100	0	230	101300000	1000	0	0	-1	150
28881395	5354	219	0	-100	0	230	101300000	1000	0	0	-1	150
28893955	5354	222	0	-100	0	230	101300000	1000	0	0	-1	150
28906515	5350	225	0	-100	0	230	101300000	1000	0	0	-1	150
28919075	5348	222	0	-100	0	230	101300000	1000	0	0	-1	150
28931635	5348	221	0	-100	0	230	101300000	1000	0	0	-1	150
28944195	5351	219	0	-100	0	230	101300000	1000	0	0	-1	150
28956755	5352	218	0	-100	0	230	101300000	1000	0	0	-1	150
28969315	5358	219	0	-100	0	230	101300000	1000	0	0	-1	150
28981875	5348	223	0	-100	0	230	101300000	1000	0	0	-1	150
28994435	5352	228	0	-100	0	230	101300000	1000	0	0	-1	150
29006995	5351	221	0	-100	0	230	101300000	1000	0	0	-1	150
29019555	5351	219	0	-100	0	230	101300000	1000	0	0	-1	150
29032115	5353	224	0	-100	0	230	101300000	1000	0	0	-1	150
29044675	5354	218	0	-100	0	230	101300000	1000	0	0	-1	150
29057235	5353	222	0	-100	0	230	101300000	1000	0	0	-1	150
29069795	5350	226	0	-100	0	230	101300000	1000	0	0	-1	150
29082355	5353	219	0	-100	0	230	101300000	1000	0	0	-1	150
29094915	5353	217	0	-100	0	230	101300000	1000	0	0	-1	150
29107475	5358	221	0	-100	0	230	101300000	1000	0	0	-1	150
29120035	5351	225	0	-100	0	230	101300000	1000	0	0	-1	150
29132595	5349	223	0	-100	0	230	101300000	1000	0	0	-1	150
29145155	5346	220	0	-100	0	230	101300000	1000	0	0	-1	150
29157715	5362	220	0	-100	0	230	101300000	1000	0	0	-1	150
29170275	5350	226	0	-100	0	230	101300000	1000	0	0	-1	150
29182835	5354	219	0	-100	0	230	101300000	1000	0	0	-1	150
29195395	5355	218	0	-100	0	230	101300000	1000	0	0	-1	150
29207955	5353	222	0	-100	0	230	101300000	1000	0	0	-1	150
29220515	5348	227	0	-100	0	230	101300000	1000	0	0	-1	150
29233075	5353	219	0	-100	0	230	101300000	1000	0	0	-1	150
29245635	5354	219	0	-100	0	230	101300000	1000	0	0	-1	150
29258195	5348	226	0	-100	0	230	101300000	1000	0	0	-1	150
29270755	5351	222	0	-100	0	230	101300000	1000	0	0	-1	150
29283315	5352	218	0	-100	0	230	101300000	1000	0	0	-1	150
29295875	5355	215	0	-100	0	230	101300000	1000	0	0	-1	150
29308435	5351	222	0	-100	0	230	101300000	1000	0	0	-1	150
29320995	5350	219	0	-100	0	230	101300000	1000	0	0	-1	150
29333555	5353	224	0	-100	0	230	101300000	1000	0	0	-1	150
29346115	5345	219	0	-100	0	230	101300000	1000	0	0	-1	150
29358675	5359	218	0	-100	0	230	101300000	1000	0	0	-1	150
29371235	5354	216	0	-100	0	230	101300000	1000	0	0	-1	150
29383795	5353	222	0	-100	0	230	101300000	1000	0	0	-1	150
29396355	5348	227	0	-100	0	230	101300000	1000	0	0	-1	150
29408915	5353	223	0	-100	0	230	101300000	1000	0	0	-1	150
29421475	5347	218	0	-100	0	230	101300000	1000	0	0	-1	150
29434035	5354	219	0	-100	0	230	101300000	1000	0	0	-1	150
29446595	5356	220	0	-100	0	230	101300000	1000	0	0	-1	150
29459155	5346	221	0	-100	0	230	101300000	1000	0	0	-1	150
29471715	5350	223	0	-100	0	230	101300000	1000	0	0	-1	150
29484275	5351	227	0	-100	0	230	101300000	1000	0	0	-1	150
29496835	5349	218	0	-100	0	230	101300000	1000	0	0	-1	150
29509395	5353	218	0	-100	0	230	101300000	1000	0	0	-1	150
29521955	5355	217	0	-100	0	230	101300000	1000	0	0	-1	150
29534515	5356	221	0	-100	0	230	101300000	1000	0	0	-1	150
29547075	5347	223	0	-100	0	230	101300000	1000	0	0	-1	150
29559635	5348	223	0	-100	0	230	101300000	1000	0	0	-1	150
29572195	5350	224	0	-100	0	230	101300000	1000	0	0	-1	150
29584755	5351	225	0	-100	0	230	101300000	1000	0	0	-1	150
29597315	5347	224	0	-100	0	230	101300000	1000	0	0	-1	150
29609875	5351	227	0	-100	0	230	101300000	1000	0	0	-1	150
29622435	5348	222	0	-100	0	230	101300000	1000	0	0	-1	150
29634995	5354	223	0	-100	0	230	101300000	1000	0	0	-1	150
29647555	5356	218	0	-100	0	230	101300000	1000	0	0	-1	150
29660115	5357	219	0	-100	0	230	101300000	1000	0	0	-1	150
29672675	5359	220	0	-100	0	230	101300000	1000	0	0	-1	150
29685235	5357	219	0	-100	0	230	101300000	1000	0	0	-1	150
29697795	5353	219	0	-100	0	230	101300000	1000	0	0	-1	150
29710355	5356	219	0	-100	0	230	101300000	1000	0	0	-1	150
29722915	5350	223	0	-100	0	230	101300000	1000	0	0	-1	150
29735475	5352	225	0	-100	0	230	101300000	1000	0	0	-1	150
29748035	5351	222	0	-100	0	230	101300000	1000	0	0	-1	150
29760595	5356	218	0	-100	0	230	101300000	1000	0	0	-1	150
29773155	5344	218	0	-100	0	230	101300000	1000	0	0	-1	150
29785715	5355	219	0	-100	0	230	101300000	1000	0	0	-1	150
29798275	5345	224	0	-100	0	230	101300000	1000	0	0	-1	150
29810835	5354	228	0	-100	0	230	101300000	1000	0	0	-1	150
29823395	5351	221	0	-100	0	230	101300000	1000	0	0	-1	150
29835955	5354	219	0	-100	0	230	101300000	1000	0	0	-1	150
29848515	5358	216	0	-100	0	230	101300000	1000	0	0	-1	150
29861075	5354	220	0	-100	0	230	101300000	1000	0	0	-1	150
29873635	5352	223	0	-100	0	230	101300000	1000	0	0	-1	150
29886195	5348	226	0	-100	0	230	101300000	1000	0	0	-1	150
29898755	5353	228	0	-100	0	230	101300000	1000	0	0	-1	150
29911315	5345	222	0	-100	0	230	101300000	1000	0	0	-1	150
29923875	5353	218	0	-100	0	230	101300000	1000	0	0	-1	150
29936435	5356	221	0	-100	0	230	101300000	1000	0	0	-1	150
29948995	5353	227	0	-100	0	230	101300000	1000	0	0	-1	150
29961555	5348	223	0	-100	0	230	101300000	1000	0	0	-1	150
29974115	5347	226	0	-100	0	230	101300000	1000	0	0	-1	150
29986675	5352	218	0	-100	0	230	101300000	1000	0	0	-1	150
29999235	5356	220	0	-100	0	230	101300000	1000	0	0	-1	150
30011795	5357	219	0	-100	0	230	101300000	1000	0	0	-1	150
30024355	5350	226	0	-100	0	230	101300000	1000	0	0	-1	150
30036915	5347	223	0	-100	0	230	101300000	1000	0	0	-1	150
30049475	5351	220	0	-100	0	230	101300000	1000	0	0	-1	150
30062035	5352	218	0	-100	0	230	101300000	1000	0	0	-1	150
30074595	5359	217	0	-100	0	230	101300000	1000	0	0	-1	150
30087155	5350	217	0	-100	0	230	101300000	1000	0	0	-1	150
30099715	5356	218	0	-100	0	230	101300000	1000	0	0	-1	150
30112275	5357	219	0	-100	0	230	101300000	1000	0	0	-1	150
30124835	5353	223	0	-100	0	230	101300000	1000	0	0	-1	150
30137395	5350	223	0	-100	0	230	101300000	1000	0	0	-1	150
30149955	5353	224	0	-100	0	230	101300000	1000	0	0	-1	150
30162515	5347	223	0	-100	0	230	101300000	1000	0	0	-1	150
30175075	5352	225	0	-100	0	230	101300000	1000	0	0	-1	150
30187635	5351	226	0	-100	0	230	101300000	1000	0	0	-1	150
30200195	5351	219	0	-100	0	230	101300000	1000	0	0	-1	150
30212755	5354	215	0	-100	0	230	101300000	1000	0	0	-1	150
30225315	5348	224	0	-100	0	230	101300000	1000	0	0	-1	150
30237875	5349	225	0	-100	0	230	101300000	1000	0	0	-1	150
30250435	5355	219	0	-100	0	230	101300000	1000	0	0	-1	150
30262995	5349	223	0	-100	0	230	101300000	1000	0	0	-1	150
30275555	5357	226	0	-100	0	230	101300000	1000	0	0	-1	150
30288115	5355	219	0	-100	0	230	101300000	1000	0	0	-1	150
30300675	5353	221	0	-100	0	230	101300000	1000	0	0	-1	150
30313235	5349	223	0	-100	0	230	101300000	1000	0	0	-1	150
30325795	5354	218	0	-100	0	230	101300000	1000	0	0	-1	150
30338355	5349	223	0	-100	0	230	101300000	1000	0	0	-1	150
30350915	5347	222	0	-100	0	230	101300000	1000	0	0	-1	150
30363475	5357	219	0	-100	0	230	101300000	1000	0	0	-1	150
30376035	5352	220	0	-100	0	230	101300000	1000	0	0	-1	150
30388595	5351	226	0	-100	0	230	101300000	1000	0	0	-1	150
30401155	5341	225	0	-100	0	230	101300000	1000	0	0	-1	150
30413715	5354	218	0	-100	0	230	101300000	1000	0	0	-1	150
30426275	5355	219	0	-100	0	230	101300000	1000	0	0	-1	150
30438835	5352	224	0	-100	0	230	101300000	1000	0	0	-1	150
30451395	5350	223	0	-100	0	230	101300000	1000	0	0	-1	150
30463955	5352	218	0	-100	0	230	101300000	1000	0	0	-1	150
30476515	5358	219	0	-100	0	230	101300000	1000	0	0	-1	150
30489075	5353	224	0	-100	0	230	101300000	1000	0	0	-1	150
30501635	5348	223	0	-100	0	230	101300000	1000	0	0	-1	150
30514195	5351	219	0	-100	0	230	101300000	1000	0	0	-1	150
30526755	5358	219	0	-100	0	230	101300000	1000	0	0	-1	150
30539315	5354	221	0	-100	0	230	101300000	1000	0	0	-1	150
30551875	5347	226	0	-100	0	230	101300000	1000	0	0	-1	150
30564435	5354	219	0	-100	0	230	101300000	1000	0	0	-1	150
30576995	5350	226	0	-100	0	230	101300000	1000	0	0	-1	150
30589555	5350	224	0	-100	0	230	101300000	1000	0	0	-1	150
30602115	5352	223	0	-100	0	230	101300000	1000	0	0	-1	150
30614675	5357	219	0	-100	0	230	101300000	1000	0	0	-1	150
30627235	5358	221	0	-100	0	230	101300000	1000	0	0	-1	150
30639795	5349	226	0	-100	0	230	101300000	1000	0	0	-1	150
30652355	5345	222	0	-100	0	230	101300000	1000	0	0	-1	150
30664915	5358	218	0	-100	0	230	101300000	1000	0	0	-1	150
30677475	5352	223	0	-100	0	230	101300000	1000	0	0	-1	150
30690035	5351	227	0	-100	0	230	101300000	1000	0	0	-1	150
30702595	5349	218	0	-100	0	230	101300000	1000	0	0	-1	150
30715155	5352	222	0	-100	0	230	101300000	1000	0	0	-1	150
30727715	5352	223	0	-100	0	230	101300000	1000	0	0	-1	150
30740275	5348	227	0	-100	0	230	101300000	1000	0	0	-1	150
30752835	5352	221	0	-100	0	230	101300000	1000	0	0	-1	150
30765395	5356	220	0	-100	0	230	101300000	1000	0	0	-1	150
30777955	5354	219	0	-100	0	230	101300000	1000	0	0	-1	150
30790515	5351	225	0	-100	0	230	101300000	1000	0	0	-1	150
30803075	5349	225	0	-100	0	230	101300000	1000	0	0	-1	150
30815635	5352	218	0	-100	0	230	101300000	1000	0	0	-1	150
30828195	5355	217	0	-100	0	230	101300000	1000	0	0	-1	150
30840755	5347	223	0	-100	0	230	101300000	1000	0	0	-1	150
30853315	5349	227	0	-100	0	230	101300000	1000	0	0	-1	150
30865875	5351	222	0	-100	0	230	101300000	1000	0	0	-1	150
30878435	5351	219	0	-100	0	230	101300000	1000	0	0	-1	150
30890995	5360	227	0	-100	0	230	101300000	1000	0	0	-1	150
30903555	5349	227	0	-100	0	230	101300000	1000	0	0	-1	150
30916115	5348	219	0	-100	0	230	101300000	1000	0	0	-1	150
30928675	5356	218	0	-100	0	230	101300000	1000	0	0	-1	150
30941235	5351	225	0	-100	0	230	101300000	1000	0	0	-1	150
30953795	5348	220	0	-100	0	230	101300000	1000	0	0	-1	150
30966355	5353	218	0	-100	0	230	101300000	1000	0	0	-1	150
30978915	5349	227	0	-100	0	230	101300000	1000	0	0	-1	150
30991475	5357	219	0	-100	0	230	101300000	1000	0	0	-1	150
31004035	5359	219	0	-100	0	230	101300000	1000	0	0	-1	150
31016595	5353	227	0	-100	0	230	101300000	1000	0	0	-1	150
31029155	5349	220	0	-100	0	230	101300000	1000	0	0	-1	150
31041715	5354	222	0	-100	0	230	101300000	1000	0	0	-1	150
31054275	5347	222	0	-100	0	230	101300000	1000	0	0	-1	150
31066835	5354	220	0	-100	0	230	101300000	1000	0	0	-1	150
31079395	5352	222	0	-100	0	230	101300000	1000	0	0	-1	150
31091955	5349	223	0	-100	0	230	101300000	1000	0	0	-1	150
31104515	5358	216	0	-100	0	230	101300000	1000	0	0	-1	150
31117075	5350	226	0	-100	0	230	101300000	1000	0	0	-1	150
31129635	5354	217	0	-100	0	230	101300000	1000	0	0	-1	150
31142195	5351	224	0	-100	0	230	101300000	1000	0	0	-1	150
31154755	5351	219	0	-100	0	230	101300000	1000	0	0	-1	150
31167315	5356	217	0	-100	0	230	101300000	1000	0	0	-1	150
31179875	5350	225	0	-100	0	230	101300000	1000	0	0	-1	150
31192435	5349	220	0	-100	0	230	101300000	1000	0	0	-1	150
31204995	5359	225	0	-100	0	230	101300000	1000	0	0	-1	150
31217555	5350	225	0	-100	0	230	101300000	1000	0	0	-1	150
31230115	5347	218	0	-100	0	230	101300000	1000	0	0	-1	150
31242675	5360	220	0	-100	0	230	101300000	1000	0	0	-1	150
31255235	5349	227	0	-100	0	230	101300000	1000	0	0	-1	150
31267795	5357	219	0	-100	0	230	101300000	1000	0	0	-1	150
31280355	5358	219	0	-100	0	230	101300000	1000	0	0	-1	150
31292915	5348	226	0	-100	0	230	101300000	1000	0	0	-1	150
31305475	5352	221	0	-100	0	230	101300000	1000	0	0	-1	150
31318035	5357	218	0	-100	0	230	101300000	1000	0	0	-1	150
31330595	5351	223	0	-100	0	230	101300000	1000	0	0	-1	150
31343155	5344	228	0	-100	0	230	101300000	1000	0	0	-1	150
31355715	5349	223	0	-100	0	230	101300000	1000	0	0	-1	150
31368275	5352	220	0	-100	0	230	101300000	1000	0	0	-1	150
31380835	5348	223	0	-100	0	230	101300000	1000	0	0	-1	150
31393395	5352	225	0	-100	0	230	101300000	1000	0	0	-1	150
31405955	5353	218	0	-100	0	230	101300000	1000	0	0	-1	150
31418515	5353	218	0	-100	0	230	101300000	1000	0	0	-1	150
31431075	5350	223	0	-100	0	230	101300000	1000	0	0	-1	150
31443635	5345	224	0	-100	0	230	101300000	1000	0	0	-1	150
31456195	5355	219	0	-100	0	230	101300000	1000	0	0	-1	150
31468755	5354	223	0	-100	0	230	101300000	1000	0	0	-1	150
31481315	5354	225	0	-100	0	230	101300000	1000	0	0	-1	150
31493875	5354	218	0	-100	0	230	101300000	1000	0	0	-1	150
31506435	5354	219	0	-100	0	230	101300000	1000	0	0	-1	150
31518995	5352	219	0	-100	0	230	101300000	1000	0	0	-1	150
31531555	5352	219	0	-100	0	230	101300000	1000	0	0	-1	150
31544115	5354	218	0	-100	0	230	101300000	1000	0	0	-1	150
31556675	5348	226	0	-100	0	230	101300000	1000	0	0	-1	150
31569235	5353	219	0	-100	0	230	101300000	1000	0	0	-1	150
31581795	5358	221	0	-100	0	230	101300000	1000	0	0	-1	150
31594355	5352	225	0	-100	0	230	101300000	1000	0	0	-1	150
31606915	5351	219	0	-100	0	230	101300000	1000	0	0	-1	150
31619475	5352	220	0	-100	0	230	101300000	1000	0	0	-1	150
31632035	5352	226	0	-100	0	230	101300000	1000	0	0	-1	150
31644595	5353	219	0	-100	0	230	101300000	1000	0	0	-1	150
31657155	5350	221	0	-100	0	230	101300000	1000	0	0	-1	150
31669715	5348	225	0	-100	0	230	101300000	1000	0	0	-1	150
31682275	5351	218	0	-100	0	230	101300000	1000	0	0	-1	150
31694835	5360	221	0	-100	0	230	101300000	1000	0	0	-1	150
31707395	5351	225	0	-100	0	230	101300000	1000	0	0	-1	150
31719955	5348	221	0	-100	0	230	101300000	1000	0	0	-1	150
31732515	5355	218	0	-100	0	230	101300000	1000	0	0	-1	150
31745075	5352	223	0	-100	0	230	101300000	1000	0	0	-1	150
31757635	5349	223	0	-100	0	230	101300000	1000	0	0	-1	150
31770195	5353	219	0	-100	0	230	101300000	1000	0	0	-1	150
31782755	5352	218	0	-100	0	230	101300000	1000	0	0	-1	150
31795315	5351	227	0	-100	0	230	101300000	1000	0	0	-1	150
31807875	5349	219	0	-100	0	230	101300000	1000	0	0	-1	150
31820435	5352	215	0	-100	0	230	101300000	1000	0	0	-1	150
31832995	5352	223	0	-100	0	230	101300000	1000	0	0	-1	150
31845555	5349	222	0	-100	0	230	101300000	1000	0	0	-1	150
31858115	5355	218	0	-100	0	230	101300000	1000	0	0	-1	150
31870675	5355	219	0	-100	0	230	101300000	1000	0	0	-1	150
31883235	5353	227	0	-100	0	230	101300000	1000	0	0	-1	150
31895795	5354	219	0	-100	0	230	101300000	1000	0	0	-1	150
31908355	5359	219	0	-100	0	230	101300000	1000	0	0	-1	150
31920915	5347	223	0	-100	0	230	101300000	1000	0	0	-1	150
31933475	5352	227	0	-100	0	230	101300000	1000	0	0	-1	150
31946035	5350	221	0	-100	0	230	101300000	1000	0	0	-1	150
31958595	5352	219	0	-100	0	230	101300000	1000	0	0	-1	150
31971155	5349	221	0	-100	0	230	101300000	1000	0	0	-1	150
31983715	5357	219	0	-100	0	230	101300000	1000	0	0	-1	150
31996275	5352	225	0	-100	0	230	101300000	1000	0	0	-1	150
32008835	5348	224	0	-100	0	230	101300000	1000	0	0	-1	150
32021395	5355	219	0	-100	0	230	101300000	1000	0	0	-1	150
32033955	5355	218	0	-100	0	230	101300000	1000	0	0	-1	150
32046515	5347	226	0	-100	0	230	101300000	1000	0	0	-1	150
32059075	5348	222	0	-100	0	230	101300000	1000	0	0	-1	150
32071635	5361	219	0	-100	0	230	101300000	1000	0	0	-1	150
32084195	5351	222	0	-100	0	230	101300000	1000	0	0	-1	150
32096755	5345	223	0	-100	0	230	101300000	1000	0	0	-1	150
32109315	5354	219	0	-100	0	230	101300000	1000	0	0	-1	150
32121875	5352	222	0	-100	0	230	101300000	1000	0	0	-1	150
32134435	5353	223	0	-100	0	230	101300000	1000	0	0	-1	150
32146995	5356	220	0	-100	0	230	101300000	1000	0	0	-1	150
32159555	5352	221	0	-100	0	230	101300000	1000	0	0	-1	150
32172115	5351	223	0	-100	0	230	101300000	1000	0	0	-1	150
32184675	5351	228	0	-100	0	230	101300000	1000	0	0	-1	150
32197235	5344	223	0	-100	0	230	101300000	1000	0	0	-1	150
32209795	5357	219	0	-100	0	230	101300000	1000	0	0	-1	150
32222355	5354	218	0	-100	0	230	101300000	1000	0	0	-1	150
32234915	5352	222	0	-100	0	230	101300000	1000	0	0	-1	150
32247475	5349	225	0	-100	0	230	101300000	1000	0	0	-1	150
32260035	5351	220	0	-100	0	230	101300000	1000	0	0	-1	150
32272595	5355	220	0	-100	0	230	101300000	1000	0	0	-1	150
32285155	5342	224	0	-100	0	230	101300000	1000	0	0	-1	150
32297715	5354	223	0	-100	0	230	101300000	1000	0	0	-1	150
32310275	5349	219	0	-100	0	230	101300000	1000	0	0	-1	150
32322835	5352	218	0	-100	0	230	101300000	1000	0	0	-1	150
32335395	5355	215	0	-100	0	230	101300000	1000	0	0	-1	150
32347955	5348	221	0	-100	0	230	101300000	1000	0	0	-1	150
32360515	5353	225	0	-100	0	230	101300000	1000	0	0	-1	150
32373075	5345	221	0	-100	0	230	101300000	1000	0	0	-1	150
32385635	5353	217	0	-100	0	230	101300000	1000	0	0	-1	150
32398195	5358	217	0	-100	0	230	101300000	1000	0	0	-1	150
32410755	5357	219	0	-100	0	230	101300000	1000	0	0	-1	150
32423315	5349	223	0	-100	0	230	101300000	1000	0	0	-1	150
32435875	5352	224	0	-100	0	230	101300000	1000	0	0	-1	150
32448435	5347	224	0	-100	0	230	101300000	1000	0	0	-1	150
32460995	5349	217	0	-100	0	230	101300000	1000	0	0	-1	150
32473555	5352	219	0	-100	0	230	101300000	1000	0	0	-1	150
32486115	5356	220	0	-100	0	230	101300000	1000	0	0	-1	150
32498675	5361	219	0	-100	0	230	101300000	1000	0	0	-1	150
32511235	5350	223	0	-100	0	230	101300000	1000	0	0	-1	150
32523795	5358	227	0	-100	0	230	101300000	1000	0	0	-1	150
32536355	5347	218	0	-100	0	230	101300000	1000	0	0	-1	150
32548915	5355	218	0	-100	0	230	101300000	1000	0	0	-1	150
32561475	5359	219	0	-100	0	230	101300000	1000	0	0	-1	150
32574035	5353	219	0	-100	0	230	101300000	1000	0	0	-1	150
32586595	5352	222	0	-100	0	230	101300000	1000	0	0	-1	150
32599155	5351	222	0	-100	0	230	101300000	1000	0	0	-1	150
32611715	5354	219	0	-100	0	230	101300000	1000	0	0	-1	150
32624275	5355	219	0	-100	0	230	101300000	1000	0	0	-1	150
32636835	5360	218	0	-100	0	230	101300000	1000	0	0	-1	150
32649395	5359	216	0	-100	0	230	101300000	1000	0	0	-1	150
32661955	5352	219	0	-100	0	230	101300000	1000	0	0	-1	150
32674515	5353	218	0	-100	0	230	101300000	1000	0	0	-1	150
32687075	5354	218	0	-100	0	230	101300000	1000	0	0	-1	150
32699635	5349	218	0	-100	0	230	101300000	1000	0	0	-1	150
32712195	5348	219	0	-100	0	230	101300000	1000	0	0	-1	150
32724755	5348	218	0	-100	0	230	101300000	1000	0	0	-1	150
32737315	5352	219	0	-100	0	230	101300000	1000	0	0	-1	150
32749875	5352	221	0	-100	0	230	101300000	1000	0	0	-1	150
32762435	5344	222	0	-100	0	230	101300000	1000	0	0	-1	150
32774995	5349	221	0	-100	0	230	101300000	1000	0	0	-1	150
32787555	5352	228	0	-100	0	230	101300000	1000	0	0	-1	150
32800115	5353	226	0	-100	0	230	101300000	1000	0	0	-1	150
32812675	5351	223	0	-100	0	230	101300000	1000	0	0	-1	150
32825235	5354	221	0	-100	0	230	101300000	1000	0	0	-1	150
32837795	5356	219	0	-100	0	230	101300000	1000	0	0	-1	150
32850355	5359	219	0	-100	0	230	101300000	1000	0	0	-1	150
32862915	5355	218	0	-100	0	230	101300000	1000	0	0	-1	150
32875475	5354	218	0	-100	0	230	101300000	1000	0	0	-1	150
32888035	5358	219	0	-100	0	230	101300000	1000	0	0	-1	150
32900595	5351	218	0	-100	0	230	101300000	1000	0	0	-1	150
32913155	5338	225	0	-100	0	230	101300000	1000	0	0	-1	150
32925715	5352	223	0	-100	0	230	101300000	1000	0	0	-1	150
32938275	5355	218	0	-100	0	230	101300000	1000	0	0	-1	150
32950835	5354	218	0	-100	0	230	101300000	1000	0	0	-1	150
32963395	5351	223	0	-100	0	230	101300000	1000	0	0	-1	150
32975955	5350	226	0	-100	0	230	101300000	1000	0	0	-1	150
32988515	5350	220	0	-100	0	230	101300000	1000	0	0	-1	150
33001075	5355	219	0	-100	0	230	101300000	1000	0	0	-1	150
33013635	5353	219	0	-100	0	230	101300000	1000	0	0	-1	150
33026195	5353	225	0	-100	0	230	101300000	1000	0	0	-1	150
33038755	5349	222	0	-100	0	230	101300000	1000	0	0	-1	150
33051315	5353	218	0	-100	0	230	101300000	1000	0	0	-1	150
33063875	5359	219	0	-100	0	230	101300000	1000	0	0	-1	150
33076435	5355	217	0	-100	0	230	101300000	1000	0	0	-1	150
33088995	5352	225	0	-100	0	230	101300000	1000	0	0	-1	150
33101555	5358	218	0	-100	0	230	101300000	1000	0	0	-1	150
33114115	5357	219	0	-100	0	230	101300000	1000	0	0	-1	150
33126675	5352	221	0	-100	0	230	101300000	1000	0	0	-1	150
33139235	5351	223	0	-100	0	230	101300000	1000	0	0	-1	150
33151795	5353	224	0	-100	0	230	101300000	1000	0	0	-1	150
33164355	5348	226	0	-100	0	230	101300000	1000	0	0	-1	150
33176915	5350	223	0	-100	0	230	101300000	1000	0	0	-1	150
33189475	5348	222	0	-100	0	230	101300000	1000	0	0	-1	150
33202035	5348	221	0	-100	0	230	101300000	1000	0	0	-1	150
33214595	5352	218	0	-100	0	230	101300000	1000	0	0	-1	150
33227155	5350	221	0	-100	0	230	101300000	1000	0	0	-1	150
33239715	5355	217	0	-100	0	230	101300000	1000	0	0	-1	150
33252275	5359	217	0	-100	0	230	101300000	1000	0	0	-1	150
33264835	5359	219	0	-100	0	230	101300000	1000	0	0	-1	150
33277395	5356	221	0	-100	0	230	101300000	1000	0	0	-1	150
33289955	5347	223	0	-100	0	230	101300000	1000	0	0	-1	150
33302515	5350	223	0	-100	0	230	101300000	1000	0	0	-1	150
33315075	5349	227	0	-100	0	230	101300000	1000	0	0	-1	150
33327635	5345	223	0	-100	0	230	101300000	1000	0	0	-1	150
33340195	5351	217	0	-100	0	230	101300000	1000	0	0	-1	150
33352755	5359	219	0	-100	0	230	101300000	1000	0	0	-1	150
33365315	5356	221	0	-100	0	230	101300000	1000	0	0	-1	150
33377875	5352	218	0	-100	0	230	101300000	1000	0	0	-1	150
33390435	5357	218	0	-100	0	230	101300000	1000	0	0	-1	150
33402995	5352	223	0	-100	0	230	101300000	1000	0	0	-1	150
33415555	5350	225	0	-100	0	230	101300000	1000	0	0	-1	150
33428115	5350	225	0	-100	0	230	101300000	1000	0	0	-1	150
33440675	5349	221	0	-100	0	230	101300000	1000	0	0	-1	150
33453235	5352	221	0	-100	0	230	101300000	1000	0	0	-1	150
33465795	5349	220	0	-100	0	230	101300000	1000	0	0	-1	150
33478355	5345	222	0	-100	0	230	101300000	1000	0	0	-1	150
33490915	5347	222	0	-100	0	230	101300000	1000	0	0	-1	150
33503475	5351	221	0	-100	0	230	101300000	1000	0	0	-1	150
33516035	5353	219	0	-100	0	230	101300000	1000	0	0	-1	150
33528595	5353	220	0	-100	0	230	101300000	1000	0	0	-1	150
33541155	5349	221	0	-100	0	230	101300000	1000	0	0	-1	150
33553715	5355	216	0	-100	0	230	101300000	1000	0	0	-1	150
33566275	5358	218	0	-100	0	230	101300000	1000	0	0	-1	150
33578835	5357	220	0	-100	0	230	101300000	1000	0	0	-1	150
33591395	5358	219	0	-100	0	230	101300000	1000	0	0	-1	150
33603955	5354	219	0	-100	0	230	101300000	1000	0	0	-1	150
33616515	5359	219	0	-100	0	230	101300000	1000	0	0	-1	150
33629075	5354	219	0	-100	0	230	101300000	1000	0	0	-1	150
33641635	5348	223	0	-100	0	230	101300000	1000	0	0	-1	150
33654195	5344	222	0	-100	0	230	101300000	1000	0	0	-1	150
33666755	5352	227	0	-100	0	230	101300000	1000	0	0	-1	150
33679315	5351	226	0	-100	0	230	101300000	1000	0	0	-1	150
33691875	5352	222	0	-100	0	230	101300000	1000	0	0	-1	150
33704435	5357	219	0	-100	0	230	101300000	1000	0	0	-1	150
33716995	5352	225	0	-100	0	230	101300000	1000	0	0	-1	150
33729555	5355	217	0	-100	0	230	101300000	1000	0	0	-1	150
33742115	5360	221	0	-100	0	230	101300000	1000	0	0	-1	150
33754675	5359	218	0	-100	0	230	101300000	1000	0	0	-1	150
33767235	5351	221	0	-100	0	230	101300000	1000	0	0	-1	150
33779795	5353	223	0	-100	0	230	101300000	1000	0	0	-1	150
33792355	5348	223	0	-100	0	230	101300000	1000	0	0	-1	150
33804915	5346	224	0	-100	0	230	101300000	1000	0	0	-1	150
33817475	5347	223	0	-100	0	230	101300000	1000	0	0	-1	150
33830035	5362	219	0	-100	0	230	101300000	1000	0	0	-1	150
33842595	5358	219	0	-100	0	230	101300000	1000	0	0	-1	150
