timestamp	voltage	current	windSpeed	pitchAngle	rpm	temperature	ambientPressure	humidity	accelerationX	accelerationY	accelerationZ	currentSink
7036070	5011	0	0	-100	0	230	101300000	1000	0	0	-1	0
7043523	5015	2	0	-100	0	230	101300000	1000	0	0	-1	0
7056083	5015	0	0	-100	0	230	101300000	1000	0	0	-1	0
7068643	5022	0	0	-100	0	230	101300000	1000	0	0	-1	0
7081203	5016	3	0	-100	0	230	101300000	1000	0	0	-1	0
7093763	5019	0	0	-100	0	230	101300000	1000	0	0	-1	0
7106323	5015	4	0	-100	0	230	101300000	1000	0	0	-1	0
7118883	5018	0	0	-100	0	230	101300000	1000	0	0	-1	0
7131443	5018	0	0	-100	0	230	101300000	1000	0	0	-1	0
7144004	5021	0	0	-100	0	230	101300000	1000	0	0	-1	0
7156563	5017	0	0	-100	0	230	101300000	1000	0	0	-1	0
7169123	5015	0	0	-100	0	230	101300000	1000	0	0	-1	0
7181683	5014	0	0	-100	0	230	101300000	1000	0	0	-1	0
7194243	5021	0	0	-100	0	230	101300000	1000	0	0	-1	0
7206803	5015	3	0	-100	0	230	101300000	1000	0	0	-1	0
7219363	5016	0	0	-100	0	230	101300000	1000	0	0	-1	0
7231923	5016	0	0	-100	0	230	101300000	1000	0	0	-1	0
7244483	5015	0	0	-100	0	230	101300000	1000	0	0	-1	0
7257043	5021	0	0	-100	0	230	101300000	1000	0	0	-1	0
7269603	5016	0	0	-100	0	230	101300000	1000	0	0	-1	0
7282163	5010	0	0	-100	0	230	101300000	1000	0	0	-1	0
7294723	5023	0	0	-100	0	230	101300000	1000	0	0	-1	0
7307283	5015	4	0	-100	0	230	101300000	1000	0	0	-1	0
7319843	5026	0	0	-100	0	230	101300000	1000	0	0	-1	0
7332403	5014	2	0	-100	0	230	101300000	1000	0	0	-1	0
7344963	5017	0	0	-100	0	230	101300000	1000	0	0	-1	0
7690675	6464	299	0	-100	0	230	101300000	1000	0	0	-1	200
7703235	6460	303	0	-100	0	230	101300000	1000	0	0	-1	200
7715795	6468	298	0	-100	0	230	101300000	1000	0	0	-1	200
7728355	6471	303	0	-100	0	230	101300000	1000	0	0	-1	200
7740915	6473	299	0	-100	0	230	101300000	1000	0	0	-1	200
7753475	6472	302	0	-100	0	230	101300000	1000	0	0	-1	200
7766035	6472	301	0	-100	0	230	101300000	1000	0	0	-1	200
7778595	6488	297	0	-100	0	230	101300000	1000	0	0	-1	200
7791155	6479	305	0	-100	0	230	101300000	1000	0	0	-1	200
7803715	6483	303	0	-100	0	230	101300000	1000	0	0	-1	200
7816275	6488	297	0	-100	0	230	101300000	1000	0	0	-1	200
7828835	6483	305	0	-100	0	230	101300000	1000	0	0	-1	200
7841395	6482	303	0	-100	0	230	101300000	1000	0	0	-1	200
7853955	6492	299	0	-100	0	230	101300000	1000	0	0	-1	200
7866515	6491	300	0	-100	0	230	101300000	1000	0	0	-1	200
7879075	6492	304	0	-100	0	230	101300000	1000	0	0	-1	200
7891635	6489	298	0	-100	0	230	101300000	1000	0	0	-1	200
7904195	6479	302	0	-100	0	230	101300000	1000	0	0	-1	200
7916755	6478	302	0	-100	0	230	101300000	1000	0	0	-1	200
7929315	6492	299	0	-100	0	230	101300000	1000	0	0	-1	200
7941875	6485	305	0	-100	0	230	101300000	1000	0	0	-1	200
7954435	6493	298	0	-100	0	230	101300000	1000	0	0	-1	200
7966995	6489	300	0	-100	0	230	101300000	1000	0	0	-1	200
7979555	6487	298	0	-100	0	230	101300000	1000	0	0	-1	200
7992115	6488	303	0	-100	0	230	101300000	1000	0	0	-1	200
8004675	6491	303	0	-100	0	230	101300000	1000	0	0	-1	200
8017235	6496	298	0	-100	0	230	101300000	1000	0	0	-1	200
8029795	6490	307	0	-100	0	230	101300000	1000	0	0	-1	200
8042355	6491	299	0	-100	0	230	101300000	1000	0	0	-1	200
8054915	6488	304	0	-100	0	230	101300000	1000	0	0	-1	200
8067475	6495	300	0	-100	0	230	101300000	1000	0	0	-1	200
8080035	6490	303	0	-100	0	230	101300000	1000	0	0	-1	200
8092595	6492	300	0	-100	0	230	101300000	1000	0	0	-1	200
8105155	6490	299	0	-100	0	230	101300000	1000	0	0	-1	200
8117715	6484	305	0	-100	0	230	101300000	1000	0	0	-1	200
8130275	6493	298	0	-100	0	230	101300000	1000	0	0	-1	200
8142835	6488	306	0	-100	0	230	101300000	1000	0	0	-1	200
8180515	6487	300	0	-100	0	230	101300000	1000	0	0	-1	200
8193075	6491	302	0	-100	0	230	101300000	1000	0	0	-1	200
8205635	6493	305	0	-100	0	230	101300000	1000	0	0	-1	200
8218195	6502	299	0	-100	0	230	101300000	1000	0	0	-1	200
8230755	6499	306	0	-100	0	230	101300000	1000	0	0	-1	200
8243315	6492	298	0	-100	0	230	101300000	1000	0	0	-1	200
8255875	6489	306	0	-100	0	230	101300000	1000	0	0	-1	200
8268435	6489	299	0	-100	0	230	101300000	1000	0	0	-1	200
8280995	6483	300	0	-100	0	230	101300000	1000	0	0	-1	200
8293555	6491	298	0	-100	0	230	101300000	1000	0	0	-1	200
8306115	6482	306	0	-100	0	230	101300000	1000	0	0	-1	200
8318675	6491	300	0	-100	0	230	101300000	1000	0	0	-1	200
8394035	6491	300	0	-100	0	230	101300000	1000	0	0	-1	200
8406595	6489	307	0	-100	0	230	101300000	1000	0	0	-1	200
8419155	6493	299	0	-100	0	230	101300000	1000	0	0	-1	200
8431715	6484	303	0	-100	0	230	101300000	1000	0	0	-1	200
8444275	6495	299	0	-100	0	230	101300000	1000	0	0	-1	200
8456835	6488	307	0	-100	0	230	101300000	1000	0	0	-1	200
8469395	6488	298	0	-100	0	230	101300000	1000	0	0	-1	200
8481955	6489	303	0	-100	0	230	101300000	1000	0	0	-1	200
8494515	6485	299	0	-100	0	230	101300000	1000	0	0	-1	200
8507075	6487	302	0	-100	0	230	101300000	1000	0	0	-1	200
8519635	6486	300	0	-100	0	230	101300000	1000	0	0	-1	200
8532195	6483	302	0	-100	0	230	101300000	1000	0	0	-1	200
8569875	6491	307	0	-100	0	230	101300000	1000	0	0	-1	200
8582435	6484	299	0	-100	0	230	101300000	1000	0	0	-1	200
8594995	6494	306	0	-100	0	230	101300000	1000	0	0	-1	200
8607555	6479	306	0	-100	0	230	101300000	1000	0	0	-1	200
8620115	6486	304	0	-100	0	230	101300000	1000	0	0	-1	200
8632675	6488	298	0	-100	0	230	101300000	1000	0	0	-1	200
8645235	6491	299	0	-100	0	230	101300000	1000	0	0	-1	200
8657795	6487	304	0	-100	0	230	101300000	1000	0	0	-1	200
8670355	6483	299	0	-100	0	230	101300000	1000	0	0	-1	200
8682915	6488	300	0	-100	0	230	101300000	1000	0	0	-1	200
8695475	6481	304	0	-100	0	230	101300000	1000	0	0	-1	200
8708035	6483	298	0	-100	0	230	101300000	1000	0	0	-1	200
8733155	6483	300	0	-100	0	230	101300000	1000	0	0	-1	200
8745715	6492	299	0	-100	0	230	101300000	1000	0	0	-1	200
8758275	6479	304	0	-100	0	230	101300000	1000	0	0	-1	200
8770835	6488	300	0	-100	0	230	101300000	1000	0	0	-1	200
8783395	6492	299	0	-100	0	230	101300000	1000	0	0	-1	200
8795955	6485	305	0	-100	0	230	101300000	1000	0	0	-1	200
8808515	6482	299	0	-100	0	230	101300000	1000	0	0	-1	200
8821075	6486	299	0	-100	0	230	101300000	1000	0	0	-1	200
8833635	6480	306	0	-100	0	230	101300000	1000	0	0	-1	200
8846195	6486	298	0	-100	0	230	101300000	1000	0	0	-1	200
8858755	6483	298	0	-100	0	230	101300000	1000	0	0	-1	200
8871315	6483	306	0	-100	0	230	101300000	1000	0	0	-1	200
8883875	6489	299	0	-100	0	230	101300000	1000	0	0	-1	200
8896435	6494	301	0	-100	0	230	101300000	1000	0	0	-1	200
8908995	6483	297	0	-100	0	230	101300000	1000	0	0	-1	200
8921555	6482	300	0	-100	0	230	101300000	1000	0	0	-1	200
8934115	6487	300	0	-100	0	230	101300000	1000	0	0	-1	200
8946675	6487	306	0	-100	0	230	101300000	1000	0	0	-1	200
8959235	6490	299	0	-100	0	230	101300000	1000	0	0	-1	200
8971795	6485	304	0	-100	0	230	101300000	1000	0	0	-1	200
8984355	6480	300	0	-100	0	230	101300000	1000	0	0	-1	200
8996915	6487	302	0	-100	0	230	101300000	1000	0	0	-1	200
9009475	6485	299	0	-100	0	230	101300000	1000	0	0	-1	200
9022035	6483	303	0	-100	0	230	101300000	1000	0	0	-1	200
9034595	6477	299	0	-100	0	230	101300000	1000	0	0	-1	200
9047155	6480	301	0	-100	0	230	101300000	1000	0	0	-1	200
9059715	6483	302	0	-100	0	230	101300000	1000	0	0	-1	200
9072275	6492	299	0	-100	0	230	101300000	1000	0	0	-1	200
9084835	6481	303	0	-100	0	230	101300000	1000	0	0	-1	200
9097395	6491	299	0	-100	0	230	101300000	1000	0	0	-1	200
9109955	6485	306	0	-100	0	230	101300000	1000	0	0	-1	200
9122515	6488	299	0	-100	0	230	101300000	1000	0	0	-1	200
9135075	6487	306	0	-100	0	230	101300000	1000	0	0	-1	200
9147635	6483	297	0	-100	0	230	101300000	1000	0	0	-1	200
9160195	6483	305	0	-100	0	230	101300000	1000	0	0	-1	200
9172755	6479	299	0	-100	0	230	101300000	1000	0	0	-1	200
9185315	6488	300	0	-100	0	230	101300000	1000	0	0	-1	200
9197875	6478	303	0	-100	0	230	101300000	1000	0	0	-1	200
9210435	6483	299	0	-100	0	230	101300000	1000	0	0	-1	200
9222995	6477	299	0	-100	0	230	101300000	1000	0	0	-1	200
9235555	6488	298	0	-100	0	230	101300000	1000	0	0	-1	200
9248115	6481	305	0	-100	0	230	101300000	1000	0	0	-1	200
9260675	6479	298	0	-100	0	230	101300000	1000	0	0	-1	200
9273235	6486	299	0	-100	0	230	101300000	1000	0	0	-1	200
9285795	6481	302	0	-100	0	230	101300000	1000	0	0	-1	200
9298355	6484	297	0	-100	0	230	101300000	1000	0	0	-1	200
9310915	6483	306	0	-100	0	230	101300000	1000	0	0	-1	200
9323475	6483	298	0	-100	0	230	101300000	1000	0	0	-1	200
9336035	6478	301	0	-100	0	230	101300000	1000	0	0	-1	200
9348595	6479	302	0	-100	0	230	101300000	1000	0	0	-1	200
9361155	6486	296	0	-100	0	230	101300000	1000	0	0	-1	200
9373715	6480	307	0	-100	0	230	101300000	1000	0	0	-1	200
9386275	6475	301	0	-100	0	230	101300000	1000	0	0	-1	200
9398835	6482	298	0	-100	0	230	101300000	1000	0	0	-1	200
9411395	6482	306	0	-100	0	230	101300000	1000	0	0	-1	200
9423955	6474	298	0	-100	0	230	101300000	1000	0	0	-1	200
9436515	6489	300	0	-100	0	230	101300000	1000	0	0	-1	200
9449075	6480	305	0	-100	0	230	101300000	1000	0	0	-1	200
9461635	6485	300	0	-100	0	230	101300000	1000	0	0	-1	200
9474195	6483	302	0	-100	0	230	101300000	1000	0	0	-1	200
9486755	6477	302	0	-100	0	230	101300000	1000	0	0	-1	200
9499315	6487	301	0	-100	0	230	101300000	1000	0	0	-1	200
9511875	6479	307	0	-100	0	230	101300000	1000	0	0	-1	200
9524435	6488	296	0	-100	0	230	101300000	1000	0	0	-1	200
9536995	6482	298	0	-100	0	230	101300000	1000	0	0	-1	200
9549555	6486	296	0	-100	0	230	101300000	1000	0	0	-1	200
9562115	6481	302	0	-100	0	230	101300000	1000	0	0	-1	200
9574675	6483	299	0	-100	0	230	101300000	1000	0	0	-1	200
9587235	6481	298	0	-100	0	230	101300000	1000	0	0	-1	200
9599795	6482	306	0	-100	0	230	101300000	1000	0	0	-1	200
9612355	6488	297	0	-100	0	230	101300000	1000	0	0	-1	200
9624915	6474	303	0	-100	0	230	101300000	1000	0	0	-1	200
9637475	6483	299	0	-100	0	230	101300000	1000	0	0	-1	200
9650035	6488	299	0	-100	0	230	101300000	1000	0	0	-1	200
9662595	6483	303	0	-100	0	230	101300000	1000	0	0	-1	200
9675155	6485	300	0	-100	0	230	101300000	1000	0	0	-1	200
9687715	6482	303	0	-100	0	230	101300000	1000	0	0	-1	200
9700275	6483	299	0	-100	0	230	101300000	1000	0	0	-1	200
9712835	6485	303	0	-100	0	230	101300000	1000	0	0	-1	200
9725395	6482	299	0	-100	0	230	101300000	1000	0	0	-1	200
9737955	6476	302	0	-100	0	230	101300000	1000	0	0	-1	200
9750515	6474	300	0	-100	0	230	101300000	1000	0	0	-1	200
9763075	6479	304	0	-100	0	230	101300000	1000	0	0	-1	200
9775635	6479	298	0	-100	0	230	101300000	1000	0	0	-1	200
9788195	6479	304	0	-100	0	230	101300000	1000	0	0	-1	200
9800755	6480	299	0	-100	0	230	101300000	1000	0	0	-1	200
9813315	6483	306	0	-100	0	230	101300000	1000	0	0	-1	200
9825875	6492	297	0	-100	0	230	101300000	1000	0	0	-1	200
9838435	6481	304	0	-100	0	230	101300000	1000	0	0	-1	200
9850995	6490	306	0	-100	0	230	101300000	1000	0	0	-1	200
9863555	6477	302	0	-100	0	230	101300000	1000	0	0	-1	200
9876115	6481	300	0	-100	0	230	101300000	1000	0	0	-1	200
9888675	6474	304	0	-100	0	230	101300000	1000	0	0	-1	200
9901235	6483	299	0	-100	0	230	101300000	1000	0	0	-1	200
9913795	6483	304	0	-100	0	230	101300000	1000	0	0	-1	200
9926355	6487	300	0	-100	0	230	101300000	1000	0	0	-1	200
9938915	6485	306	0	-100	0	230	101300000	1000	0	0	-1	200
9951475	6485	299	0	-100	0	230	101300000	1000	0	0	-1	200
9964035	6489	299	0	-100	0	230	101300000	1000	0	0	-1	200
9976595	6483	305	0	-100	0	230	101300000	1000	0	0	-1	200
9989155	6480	304	0	-100	0	230	101300000	1000	0	0	-1	200
10001715	6478	300	0	-100	0	230	101300000	1000	0	0	-1	200
10014275	6480	298	0	-100	0	230	101300000	1000	0	0	-1	200
10026835	6488	299	0	-100	0	230	101300000	1000	0	0	-1	200
10039395	6494	300	0	-100	0	230	101300000	1000	0	0	-1	200
10051955	6478	304	0	-100	0	230	101300000	1000	0	0	-1	200
10064515	6483	307	0	-100	0	230	101300000	1000	0	0	-1	200
10077075	6479	299	0	-100	0	230	101300000	1000	0	0	-1	200
10089635	6490	299	0	-100	0	230	101300000	1000	0	0	-1	200
10102195	6483	304	0	-100	0	230	101300000	1000	0	0	-1	200
10114755	6482	307	0	-100	0	230	101300000	1000	0	0	-1	200
10127315	6483	299	0	-100	0	230	101300000	1000	0	0	-1	200
10139875	6486	297	0	-100	0	230	101300000	1000	0	0	-1	200
10152435	6486	304	0	-100	0	230	101300000	1000	0	0	-1	200
10164995	6480	299	0	-100	0	230	101300000	1000	0	0	-1	200
10177555	6478	299	0	-100	0	230	101300000	1000	0	0	-1	200
10190115	6483	300	0	-100	0	230	101300000	1000	0	0	-1	200
10202675	6487	300	0	-100	0	230	101300000	1000	0	0	-1	200
10215235	6480	307	0	-100	0	230	101300000	1000	0	0	-1	200
10227795	6472	303	0	-100	0	230	101300000	1000	0	0	-1	200
10240355	6480	300	0	-100	0	230	101300000	1000	0	0	-1	200
10252915	6480	301	0	-100	0	230	101300000	1000	0	0	-1	200
10265475	6478	304	0	-100	0	230	101300000	1000	0	0	-1	200
10278035	6471	307	0	-100	0	230	101300000	1000	0	0	-1	200
10290595	6473	303	0	-100	0	230	101300000	1000	0	0	-1	200
10303155	6472	298	0	-100	0	230	101300000	1000	0	0	-1	200
10315715	6486	298	0	-100	0	230	101300000	1000	0	0	-1	200
10328275	6489	302	0	-100	0	230	101300000	1000	0	0	-1	200
10340835	6492	307	0	-100	0	230	101300000	1000	0	0	-1	200
10353395	6503	302	0	-100	0	230	101300000	1000	0	0	-1	200
10365955	6526	301	0	-100	0	230	101300000	1000	0	0	-1	200
10378515	6530	301	0	-100	0	230	101300000	1000	0	0	-1	200
10391075	6522	305	0	-100	0	230	101300000	1000	0	0	-1	200
10403635	6533	307	0	-100	0	230	101300000	1000	0	0	-1	200
10416195	6534	304	0	-100	0	230	101300000	1000	0	0	-1	200
10428755	6527	300	0	-100	0	230	101300000	1000	0	0	-1	200
10441315	6534	300	0	-100	0	230	101300000	1000	0	0	-1	200
10453875	6543	299	0	-100	0	230	101300000	1000	0	0	-1	200
10466435	6539	301	0	-100	0	230	101300000	1000	0	0	-1	200
10478995	6532	298	0	-100	0	230	101300000	1000	0	0	-1	200
10491555	6538	305	0	-100	0	230	101300000	1000	0	0	-1	200
10504115	6534	299	0	-100	0	230	101300000	1000	0	0	-1	200
10516675	6534	299	0	-100	0	230	101300000	1000	0	0	-1	200
10529235	6542	300	0	-100	0	230	101300000	1000	0	0	-1	200
10541795	6534	306	0	-100	0	230	101300000	1000	0	0	-1	200
10554355	6532	300	0	-100	0	230	101300000	1000	0	0	-1	200
10566915	6536	300	0	-100	0	230	101300000	1000	0	0	-1	200
10579475	6538	301	0	-100	0	230	101300000	1000	0	0	-1	200
10592035	6532	307	0	-100	0	230	101300000	1000	0	0	-1	200
10604595	6540	299	0	-100	0	230	101300000	1000	0	0	-1	200
10617155	6535	303	0	-100	0	230	101300000	1000	0	0	-1	200
10629715	6533	300	0	-100	0	230	101300000	1000	0	0	-1	200
10642275	6534	303	0	-100	0	230	101300000	1000	0	0	-1	200
10654835	6536	302	0	-100	0	230	101300000	1000	0	0	-1	200
10667395	6540	299	0	-100	0	230	101300000	1000	0	0	-1	200
10679955	6534	306	0	-100	0	230	101300000	1000	0	0	-1	200
10692515	6536	301	0	-100	0	230	101300000	1000	0	0	-1	200
10705075	6543	300	0	-100	0	230	101300000	1000	0	0	-1	200
10717635	6526	305	0	-100	0	230	101300000	1000	0	0	-1	200
10730195	6534	299	0	-100	0	230	101300000	1000	0	0	-1	200
10742755	6547	301	0	-100	0	230	101300000	1000	0	0	-1	200
10755315	6537	305	0	-100	0	230	101300000	1000	0	0	-1	200
10767875	6527	302	0	-100	0	230	101300000	1000	0	0	-1	200
10780435	6530	298	0	-100	0	230	101300000	1000	0	0	-1	200
10792995	6531	301	0	-100	0	230	101300000	1000	0	0	-1	200
10805555	6528	299	0	-100	0	230	101300000	1000	0	0	-1	200
10818115	6540	300	0	-100	0	230	101300000	1000	0	0	-1	200
10830675	6529	306	0	-100	0	230	101300000	1000	0	0	-1	200
10843235	6530	299	0	-100	0	230	101300000	1000	0	0	-1	200
10855795	6534	301	0	-100	0	230	101300000	1000	0	0	-1	200
10868355	6533	307	0	-100	0	230	101300000	1000	0	0	-1	200
10880915	6532	298	0	-100	0	230	101300000	1000	0	0	-1	200
10893475	6533	302	0	-100	0	230	101300000	1000	0	0	-1	200
10906035	6531	303	0	-100	0	230	101300000	1000	0	0	-1	200
10918595	6537	299	0	-100	0	230	101300000	1000	0	0	-1	200
10931155	6531	307	0	-100	0	230	101300000	1000	0	0	-1	200
10943715	6526	299	0	-100	0	230	101300000	1000	0	0	-1	200
10956275	6535	299	0	-100	0	230	101300000	1000	0	0	-1	200
10968835	6525	304	0	-100	0	230	101300000	1000	0	0	-1	200
10981395	6533	297	0	-100	0	230	101300000	1000	0	0	-1	200
10993955	6525	307	0	-100	0	230	101300000	1000	0	0	-1	200
11006515	6533	300	0	-100	0	230	101300000	1000	0	0	-1	200
11019075	6539	300	0	-100	0	230	101300000	1000	0	0	-1	200
11031635	6538	308	0	-100	0	230	101300000	1000	0	0	-1	200
11044195	6537	299	0	-100	0	230	101300000	1000	0	0	-1	200
11056755	6530	304	0	-100	0	230	101300000	1000	0	0	-1	200
11069315	6532	304	0	-100	0	230	101300000	1000	0	0	-1	200
11081875	6539	299	0	-100	0	230	101300000	1000	0	0	-1	200
11094435	6524	303	0	-100	0	230	101300000	1000	0	0	-1	200
11106995	6530	300	0	-100	0	230	101300000	1000	0	0	-1	200
11119555	6545	300	0	-100	0	230	101300000	1000	0	0	-1	200
11132115	6535	307	0	-100	0	230	101300000	1000	0	0	-1	200
11144675	6539	301	0	-100	0	230	101300000	1000	0	0	-1	200
11157235	6531	302	0	-100	0	230	101300000	1000	0	0	-1	200
11169795	6525	305	0	-100	0	230	101300000	1000	0	0	-1	200
11182355	6528	300	0	-100	0	230	101300000	1000	0	0	-1	200
11194915	6529	307	0	-100	0	230	101300000	1000	0	0	-1	200
11207475	6529	299	0	-100	0	230	101300000	1000	0	0	-1	200
11220035	6540	300	0	-100	0	230	101300000	1000	0	0	-1	200
11232595	6529	307	0	-100	0	230	101300000	1000	0	0	-1	200
11245155	6533	299	0	-100	0	230	101300000	1000	0	0	-1	200
11257715	6539	303	0	-100	0	230	101300000	1000	0	0	-1	200
11333075	6531	305	0	-100	0	230	101300000	1000	0	0	-1	200
11345635	6531	301	0	-100	0	230	101300000	1000	0	0	-1	200
11358195	6540	299	0	-100	0	230	101300000	1000	0	0	-1	200
11370755	6534	308	0	-100	0	230	101300000	1000	0	0	-1	200
11383315	6530	302	0	-100	0	230	101300000	1000	0	0	-1	200
11395875	6534	302	0	-100	0	230	101300000	1000	0	0	-1	200
11408435	6536	299	0	-100	0	230	101300000	1000	0	0	-1	200
11420995	6529	305	0	-100	0	230	101300000	1000	0	0	-1	200
11433555	6531	307	0	-100	0	230	101300000	1000	0	0	-1	200
11446115	6525	302	0	-100	0	230	101300000	1000	0	0	-1	200
11458675	6530	298	0	-100	0	230	101300000	1000	0	0	-1	200
11521475	6532	305	0	-100	0	230	101300000	1000	0	0	-1	200
11534035	6540	300	0	-100	0	230	101300000	1000	0	0	-1	200
11546595	6531	303	0	-100	0	230	101300000	1000	0	0	-1	200
11559155	6529	305	0	-100	0	230	101300000	1000	0	0	-1	200
11571715	6530	298	0	-100	0	230	101300000	1000	0	0	-1	200
11584275	6539	301	0	-100	0	230	101300000	1000	0	0	-1	200
11596835	6530	299	0	-100	0	230	101300000	1000	0	0	-1	200
11609395	6527	307	0	-100	0	230	101300000	1000	0	0	-1	200
11621955	6525	303	0	-100	0	230	101300000	1000	0	0	-1	200
11634515	6534	300	0	-100	0	230	101300000	1000	0	0	-1	200
11647075	6532	301	0	-100	0	230	101300000	1000	0	0	-1	200
11659635	6526	307	0	-100	0	230	101300000	1000	0	0	-1	200
11672195	6530	300	0	-100	0	230	101300000	1000	0	0	-1	200
11684755	6531	300	0	-100	0	230	101300000	1000	0	0	-1	200
11697315	6534	307	0	-100	0	230	101300000	1000	0	0	-1	200
11709875	6525	298	0	-100	0	230	101300000	1000	0	0	-1	200
11722435	6531	298	0	-100	0	230	101300000	1000	0	0	-1	200
11734995	6531	300	0	-100	0	230	101300000	1000	0	0	-1	200
11747555	6522	303	0	-100	0	230	101300000	1000	0	0	-1	200
11760115	6534	301	0	-100	0	230	101300000	1000	0	0	-1	200
11772675	6531	302	0	-100	0	230	101300000	1000	0	0	-1	200
11785235	6533	309	0	-100	0	230	101300000	1000	0	0	-1	200
11797795	6532	298	0	-100	0	230	101300000	1000	0	0	-1	200
11810355	6539	300	0	-100	0	230	101300000	1000	0	0	-1	200
11822915	6531	307	0	-100	0	230	101300000	1000	0	0	-1	200
11835475	6526	301	0	-100	0	230	101300000	1000	0	0	-1	200
11848035	6533	299	0	-100	0	230	101300000	1000	0	0	-1	200
11860595	6526	303	0	-100	0	230	101300000	1000	0	0	-1	200
11873155	6527	307	0	-100	0	230	101300000	1000	0	0	-1	200
11885715	6530	298	0	-100	0	230	101300000	1000	0	0	-1	200
11898275	6534	298	0	-100	0	230	101300000	1000	0	0	-1	200
11910835	6526	303	0	-100	0	230	101300000	1000	0	0	-1	200
11923395	6531	307	0	-100	0	230	101300000	1000	0	0	-1	200
11935955	6530	298	0	-100	0	230	101300000	1000	0	0	-1	200
11948515	6531	300	0	-100	0	230	101300000	1000	0	0	-1	200
11961075	6525	306	0	-100	0	230	101300000	1000	0	0	-1	200
11973635	6526	305	0	-100	0	230	101300000	1000	0	0	-1	200
11986195	6530	301	0	-100	0	230	101300000	1000	0	0	-1	200
11998755	6528	301	0	-100	0	230	101300000	1000	0	0	-1	200
12011315	6526	306	0	-100	0	230	101300000	1000	0	0	-1	200
12023875	6525	303	0	-100	0	230	101300000	1000	0	0	-1	200
12036435	6527	298	0	-100	0	230	101300000	1000	0	0	-1	200
12048995	6538	308	0	-100	0	230	101300000	1000	0	0	-1	200
12061555	6519	307	0	-100	0	230	101300000	1000	0	0	-1	200
12074115	6514	302	0	-100	0	230	101300000	1000	0	0	-1	200
12086675	6524	299	0	-100	0	230	101300000	1000	0	0	-1	200
12099235	6523	296	0	-100	0	230	101300000	1000	0	0	-1	200
12111795	6528	299	0	-100	0	230	101300000	1000	0	0	-1	200
12124355	6524	304	0	-100	0	230	101300000	1000	0	0	-1	200
12136915	6522	307	0	-100	0	230	101300000	1000	0	0	-1	200
12149475	6523	304	0	-100	0	230	101300000	1000	0	0	-1	200
12162035	6522	304	0	-100	0	230	101300000	1000	0	0	-1	200
12174595	6528	299	0	-100	0	230	101300000	1000	0	0	-1	200
12187155	6524	300	0	-100	0	230	101300000	1000	0	0	-1	200
12199715	6524	301	0	-100	0	230	101300000	1000	0	0	-1	200
12212275	6517	305	0	-100	0	230	101300000	1000	0	0	-1	200
12224835	6517	308	0	-100	0	230	101300000	1000	0	0	-1	200
12237395	6519	299	0	-100	0	230	101300000	1000	0	0	-1	200
12249955	6521	299	0	-100	0	230	101300000	1000	0	0	-1	200
12262515	6524	304	0	-100	0	230	101300000	1000	0	0	-1	200
12275075	6523	304	0	-100	0	230	101300000	1000	0	0	-1	200
12287635	6525	299	0	-100	0	230	101300000	1000	0	0	-1	200
12300195	6522	297	0	-100	0	230	101300000	1000	0	0	-1	200
12312755	6528	303	0	-100	0	230	101300000	1000	0	0	-1	200
12325315	6525	303	0	-100	0	230	101300000	1000	0	0	-1	200
12337875	6525	300	0	-100	0	230	101300000	1000	0	0	-1	200
12350435	6534	300	0	-100	0	230	101300000	1000	0	0	-1	200
12362995	6529	299	0	-100	0	230	101300000	1000	0	0	-1	200
12375555	6525	302	0	-100	0	230	101300000	1000	0	0	-1	200
12388115	6534	299	0	-100	0	230	101300000	1000	0	0	-1	200
12400675	6539	301	0	-100	0	230	101300000	1000	0	0	-1	200
12413235	6538	307	0	-100	0	230	101300000	1000	0	0	-1	200
12425795	6535	300	0	-100	0	230	101300000	1000	0	0	-1	200
12438355	6533	300	0	-100	0	230	101300000	1000	0	0	-1	200
12450915	6536	300	0	-100	0	230	101300000	1000	0	0	-1	200
12463475	6530	305	0	-100	0	230	101300000	1000	0	0	-1	200
12476035	6534	304	0	-100	0	230	101300000	1000	0	0	-1	200
12488595	6532	299	0	-100	0	230	101300000	1000	0	0	-1	200
12501155	6534	298	0	-100	0	230	101300000	1000	0	0	-1	200
12513715	6541	299	0	-100	0	230	101300000	1000	0	0	-1	200
12526275	6534	302	0	-100	0	230	101300000	1000	0	0	-1	200
12538835	6535	306	0	-100	0	230	101300000	1000	0	0	-1	200
12551395	6530	302	0	-100	0	230	101300000	1000	0	0	-1	200
12563955	6541	300	0	-100	0	230	101300000	1000	0	0	-1	200
12576515	6540	302	0	-100	0	230	101300000	1000	0	0	-1	200
12589075	6535	306	0	-100	0	230	101300000	1000	0	0	-1	200
12601635	6535	308	0	-100	0	230	101300000	1000	0	0	-1	200
12614195	6539	301	0	-100	0	230	101300000	1000	0	0	-1	200
12626755	6531	299	0	-100	0	230	101300000	1000	0	0	-1	200
12639315	6542	302	0	-100	0	230	101300000	1000	0	0	-1	200
12651875	6531	302	0	-100	0	230	101300000	1000	0	0	-1	200
12664435	6530	306	0	-100	0	230	101300000	1000	0	0	-1	200
12676995	6534	299	0	-100	0	230	101300000	1000	0	0	-1	200
12689555	6528	304	0	-100	0	230	101300000	1000	0	0	-1	200
12702115	6530	299	0	-100	0	230	101300000	1000	0	0	-1	200
12714675	6535	299	0	-100	0	230	101300000	1000	0	0	-1	200
12727235	6544	302	0	-100	0	230	101300000	1000	0	0	-1	200
12739795	6534	303	0	-100	0	230	101300000	1000	0	0	-1	200
12752355	6534	307	0	-100	0	230	101300000	1000	0	0	-1	200
12764915	6536	301	0	-100	0	230	101300000	1000	0	0	-1	200
12777475	6537	298	0	-100	0	230	101300000	1000	0	0	-1	200
12790035	6534	302	0	-100	0	230	101300000	1000	0	0	-1	200
12802595	6529	308	0	-100	0	230	101300000	1000	0	0	-1	200
12815155	6533	302	0	-100	0	230	101300000	1000	0	0	-1	200
12827715	6532	299	0	-100	0	230	101300000	1000	0	0	-1	200
12840275	6528	299	0	-100	0	230	101300000	1000	0	0	-1	200
12852835	6523	303	0	-100	0	230	101300000	1000	0	0	-1	200
12865395	6531	303	0	-100	0	230	101300000	1000	0	0	-1	200
12877955	6524	307	0	-100	0	230	101300000	1000	0	0	-1	200
12890515	6519	303	0	-100	0	230	101300000	1000	0	0	-1	200
12903075	6521	300	0	-100	0	230	101300000	1000	0	0	-1	200
12915635	6509	299	0	-100	0	230	101300000	1000	0	0	-1	200
12928195	6473	297	0	-100	0	230	101300000	1000	0	0	-1	200
12940755	6472	299	0	-100	0	230	101300000	1000	0	0	-1	200
12953315	6429	304	0	-100	0	230	101300000	1000	0	0	-1	200
12965875	6363	303	0	-100	0	230	101300000	1000	0	0	-1	200
12978435	6299	298	0	-100	0	230	101300000	1000	0	0	-1	200
12990995	6265	301	0	-100	0	230	101300000	1000	0	0	-1	200
13003555	6247	298	0	-100	0	230	101300000	1000	0	0	-1	200
13016115	6271	302	0	-100	0	230	101300000	1000	0	0	-1	200
13028675	6248	304	0	-100	0	230	101300000	1000	0	0	-1	200
13041235	6295	301	0	-100	0	230	101300000	1000	0	0	-1	200
13053795	6306	299	0	-100	0	230	101300000	1000	0	0	-1	200
13066355	6335	298	0	-100	0	230	101300000	1000	0	0	-1	200
13078915	6311	295	0	-100	0	230	101300000	1000	0	0	-1	200
13091475	6273	302	0	-100	0	230	101300000	1000	0	0	-1	200
13104035	6254	303	0	-100	0	230	101300000	1000	0	0	-1	200
13116595	6273	302	0	-100	0	230	101300000	1000	0	0	-1	200
13129155	6369	299	0	-100	0	230	101300000	1000	0	0	-1	200
13141715	6373	299	0	-100	0	230	101300000	1000	0	0	-1	200
13154275	6354	298	0	-100	0	230	101300000	1000	0	0	-1	200
13166835	6334	304	0	-100	0	230	101300000	1000	0	0	-1	200
13179395	6289	305	0	-100	0	230	101300000	1000	0	0	-1	200
13191955	6249	298	0	-100	0	230	101300000	1000	0	0	-1	200
13204515	6232	299	0	-100	0	230	101300000	1000	0	0	-1	200
13217075	6232	300	0	-100	0	230	101300000	1000	0	0	-1	200
13229635	6235	302	0	-100	0	230	101300000	1000	0	0	-1	200
13242195	6245	305	0	-100	0	230	101300000	1000	0	0	-1	200
13254755	6242	299	0	-100	0	230	101300000	1000	0	0	-1	200
13267315	6235	299	0	-100	0	230	101300000	1000	0	0	-1	200
13279875	6220	298	0	-100	0	230	101300000	1000	0	0	-1	200
13292435	6222	302	0	-100	0	230	101300000	1000	0	0	-1	200
13304995	6220	298	0	-100	0	230	101300000	1000	0	0	-1	200
13317555	6226	298	0	-100	0	230	101300000	1000	0	0	-1	200
13330115	6227	298	0	-100	0	230	101300000	1000	0	0	-1	200
13342675	6216	304	0	-100	0	230	101300000	1000	0	0	-1	200
13355235	6220	300	0	-100	0	230	101300000	1000	0	0	-1	200
13367795	6233	299	0	-100	0	230	101300000	1000	0	0	-1	200
13380355	6229	304	0	-100	0	230	101300000	1000	0	0	-1	200
13392915	6222	302	0	-100	0	230	101300000	1000	0	0	-1	200
13405475	6235	297	0	-100	0	230	101300000	1000	0	0	-1	200
13418035	6231	302	0	-100	0	230	101300000	1000	0	0	-1	200
13430595	6230	304	0	-100	0	230	101300000	1000	0	0	-1	200
13443155	6226	296	0	-100	0	230	101300000	1000	0	0	-1	200
13455715	6223	298	0	-100	0	230	101300000	1000	0	0	-1	200
13468275	6220	302	0	-100	0	230	101300000	1000	0	0	-1	200
13480835	6222	303	0	-100	0	230	101300000	1000	0	0	-1	200
13493395	6239	297	0	-100	0	230	101300000	1000	0	0	-1	200
13505955	6252	299	0	-100	0	230	101300000	1000	0	0	-1	200
13518515	6357	306	0	-100	0	230	101300000	1000	0	0	-1	200
13531075	6422	303	0	-100	0	230	101300000	1000	0	0	-1	200
13543635	6470	298	0	-100	0	230	101300000	1000	0	0	-1	200
13556195	6496	302	0	-100	0	230	101300000	1000	0	0	-1	200
13568755	6502	305	0	-100	0	230	101300000	1000	0	0	-1	200
13581315	6518	307	0	-100	0	230	101300000	1000	0	0	-1	200
13593875	6515	300	0	-100	0	230	101300000	1000	0	0	-1	200
13606435	6522	298	0	-100	0	230	101300000	1000	0	0	-1	200
13618995	6516	305	0	-100	0	230	101300000	1000	0	0	-1	200
13631555	6517	307	0	-100	0	230	101300000	1000	0	0	-1	200
13644115	6513	302	0	-100	0	230	101300000	1000	0	0	-1	200
13656675	6518	299	0	-100	0	230	101300000	1000	0	0	-1	200
13669235	6518	301	0	-100	0	230	101300000	1000	0	0	-1	200
13681795	6519	307	0	-100	0	230	101300000	1000	0	0	-1	200
13694355	6517	306	0	-100	0	230	101300000	1000	0	0	-1	200
13706915	6529	298	0	-100	0	230	101300000	1000	0	0	-1	200
13719475	6525	303	0	-100	0	230	101300000	1000	0	0	-1	200
13732035	6526	308	0	-100	0	230	101300000	1000	0	0	-1	200
13744595	6488	302	0	-100	0	230	101300000	1000	0	0	-1	200
13757155	6366	297	0	-100	0	230	101300000	1000	0	0	-1	200
13769715	6298	298	0	-100	0	230	101300000	1000	0	0	-1	200
13782275	6267	304	0	-100	0	230	101300000	1000	0	0	-1	200
13794835	6258	304	0	-100	0	230	101300000	1000	0	0	-1	200
13807395	6242	298	0	-100	0	230	101300000	1000	0	0	-1	200
13819955	6221	296	0	-100	0	230	101300000	1000	0	0	-1	200
13832515	6262	296	0	-100	0	230	101300000	1000	0	0	-1	200
13845075	6269	298	0	-100	0	230	101300000	1000	0	0	-1	200
13857635	6244	300	0	-100	0	230	101300000	1000	0	0	-1	200
13870195	6228	305	0	-100	0	230	101300000	1000	0	0	-1	200
13882755	6240	301	0	-100	0	230	101300000	1000	0	0	-1	200
13895315	6237	297	0	-100	0	230	101300000	1000	0	0	-1	200
13907875	6237	300	0	-100	0	230	101300000	1000	0	0	-1	200
13920435	6219	302	0	-100	0	230	101300000	1000	0	0	-1	200
13932995	6215	298	0	-100	0	230	101300000	1000	0	0	-1	200
13945555	6200	298	0	-100	0	230	101300000	1000	0	0	-1	200
13958115	6213	296	0	-100	0	230	101300000	1000	0	0	-1	200
13970675	6235	299	0	-100	0	230	101300000	1000	0	0	-1	200
13983235	6240	303	0	-100	0	230	101300000	1000	0	0	-1	200
13995795	6227	307	0	-100	0	230	101300000	1000	0	0	-1	200
14008355	6212	298	0	-100	0	230	101300000	1000	0	0	-1	200
14020915	6203	301	0	-100	0	230	101300000	1000	0	0	-1	200
14033475	6206	299	0	-100	0	230	101300000	1000	0	0	-1	200
14046035	6201	302	0	-100	0	230	101300000	1000	0	0	-1	200
14058595	6203	306	0	-100	0	230	101300000	1000	0	0	-1	200
14071155	6185	300	0	-100	0	230	101300000	1000	0	0	-1	200
14083715	6190	300	0	-100	0	230	101300000	1000	0	0	-1	200
14096275	6223	297	0	-100	0	230	101300000	1000	0	0	-1	200
14108835	6308	299	0	-100	0	230	101300000	1000	0	0	-1	200
14121395	6400	299	0	-100	0	230	101300000	1000	0	0	-1	200
14133955	6451	301	0	-100	0	230	101300000	1000	0	0	-1	200
14146515	6474	302	0	-100	0	230	101300000	1000	0	0	-1	200
14159075	6494	304	0	-100	0	230	101300000	1000	0	0	-1	200
14171635	6505	306	0	-100	0	230	101300000	1000	0	0	-1	200
14184195	6508	308	0	-100	0	230	101300000	1000	0	0	-1	200
14196755	6512	307	0	-100	0	230	101300000	1000	0	0	-1	200
14234435	6524	298	0	-100	0	230	101300000	1000	0	0	-1	200
14246995	6525	306	0	-100	0	230	101300000	1000	0	0	-1	200
14259555	6526	301	0	-100	0	230	101300000	1000	0	0	-1	200
14272115	6522	307	0	-100	0	230	101300000	1000	0	0	-1	200
14284675	6522	308	0	-100	0	230	101300000	1000	0	0	-1	200
14297235	6514	304	0	-100	0	230	101300000	1000	0	0	-1	200
14309795	6522	299	0	-100	0	230	101300000	1000	0	0	-1	200
14322355	6523	299	0	-100	0	230	101300000	1000	0	0	-1	200
14334915	6537	299	0	-100	0	230	101300000	1000	0	0	-1	200
14347475	6526	301	0	-100	0	230	101300000	1000	0	0	-1	200
14360035	6577	303	0	-100	0	230	101300000	1000	0	0	-1	200
14372595	6570	307	0	-100	0	230	101300000	1000	0	0	-1	200
14447955	6355	306	0	-100	0	230	101300000	1000	0	0	-1	200
14460515	6355	307	0	-100	0	230	101300000	1000	0	0	-1	200
14473075	6374	303	0	-100	0	230	101300000	1000	0	0	-1	200
14485635	6444	304	0	-100	0	230	101300000	1000	0	0	-1	200
14498195	6469	302	0	-100	0	230	101300000	1000	0	0	-1	200
14510755	6487	300	0	-100	0	230	101300000	1000	0	0	-1	200
14523315	6502	299	0	-100	0	230	101300000	1000	0	0	-1	200
14535875	6513	302	0	-100	0	230	101300000	1000	0	0	-1	200
14548435	6516	296	0	-100	0	230	101300000	1000	0	0	-1	200
14560995	6520	307	0	-100	0	230	101300000	1000	0	0	-1	200
14573555	6522	301	0	-100	0	230	101300000	1000	0	0	-1	200
14586115	6520	305	0	-100	0	230	101300000	1000	0	0	-1	200
14598675	6524	307	0	-100	0	230	101300000	1000	0	0	-1	200
14611235	6499	306	0	-100	0	230	101300000	1000	0	0	-1	200
14623795	6466	305	0	-100	0	230	101300000	1000	0	0	-1	200
14636355	6409	302	0	-100	0	230	101300000	1000	0	0	-1	200
14648915	6334	302	0	-100	0	230	101300000	1000	0	0	-1	200
14661475	6280	296	0	-100	0	230	101300000	1000	0	0	-1	200
14674035	6268	297	0	-100	0	230	101300000	1000	0	0	-1	200
14686595	6237	300	0	-100	0	230	101300000	1000	0	0	-1	200
14699155	6238	299	0	-100	0	230	101300000	1000	0	0	-1	200
14711715	6257	299	0	-100	0	230	101300000	1000	0	0	-1	200
14724275	6241	302	0	-100	0	230	101300000	1000	0	0	-1	200
14736835	6235	305	0	-100	0	230	101300000	1000	0	0	-1	200
14749395	6227	307	0	-100	0	230	101300000	1000	0	0	-1	200
14761955	6233	305	0	-100	0	230	101300000	1000	0	0	-1	200
14774515	6209	302	0	-100	0	230	101300000	1000	0	0	-1	200
14787075	6208	296	0	-100	0	230	101300000	1000	0	0	-1	200
14799635	6218	298	0	-100	0	230	101300000	1000	0	0	-1	200
14812195	6205	297	0	-100	0	230	101300000	1000	0	0	-1	200
14824755	6276	301	0	-100	0	230	101300000	1000	0	0	-1	200
14837315	6282	305	0	-100	0	230	101300000	1000	0	0	-1	200
14849875	6255	306	0	-100	0	230	101300000	1000	0	0	-1	200
14862435	6252	301	0	-100	0	230	101300000	1000	0	0	-1	200
14874995	6279	300	0	-100	0	230	101300000	1000	0	0	-1	200
14887555	6291	297	0	-100	0	230	101300000	1000	0	0	-1	200
14900115	6289	297	0	-100	0	230	101300000	1000	0	0	-1	200
14912675	6311	298	0	-100	0	230	101300000	1000	0	0	-1	200
14925235	6291	302	0	-100	0	230	101300000	1000	0	0	-1	200
14937795	6294	303	0	-100	0	230	101300000	1000	0	0	-1	200
14950355	6367	307	0	-100	0	230	101300000	1000	0	0	-1	200
14962915	6356	301	0	-100	0	230	101300000	1000	0	0	-1	200
14975475	6340	303	0	-100	0	230	101300000	1000	0	0	-1	200
14988035	6302	299	0	-100	0	230	101300000	1000	0	0	-1	200
15000595	6282	296	0	-100	0	230	101300000	1000	0	0	-1	200
15013155	6260	298	0	-100	0	230	101300000	1000	0	0	-1	200
15025715	6245	298	0	-100	0	230	101300000	1000	0	0	-1	200
15038275	6257	299	0	-100	0	230	101300000	1000	0	0	-1	200
15050835	6302	302	0	-100	0	230	101300000	1000	0	0	-1	200
15063395	6357	299	0	-100	0	230	101300000	1000	0	0	-1	200
15075955	6303	302	0	-100	0	230	101300000	1000	0	0	-1	200
15088515	6265	305	0	-100	0	230	101300000	1000	0	0	-1	200
15101075	6268	302	0	-100	0	230	101300000	1000	0	0	-1	200
15113635	6258	302	0	-100	0	230	101300000	1000	0	0	-1	200
15126195	6248	298	0	-100	0	230	101300000	1000	0	0	-1	200
15138755	6225	298	0	-100	0	230	101300000	1000	0	0	-1	200
15151315	6238	298	0	-100	0	230	101300000	1000	0	0	-1	200
15163875	6220	298	0	-100	0	230	101300000	1000	0	0	-1	200
15176435	6209	297	0	-100	0	230	101300000	1000	0	0	-1	200
15188995	6207	302	0	-100	0	230	101300000	1000	0	0	-1	200
15201555	6215	303	0	-100	0	230	101300000	1000	0	0	-1	200
15214115	6234	306	0	-100	0	230	101300000	1000	0	0	-1	200
15226675	6253	306	0	-100	0	230	101300000	1000	0	0	-1	200
15239235	6227	301	0	-100	0	230	101300000	1000	0	0	-1	200
15251795	6238	299	0	-100	0	230	101300000	1000	0	0	-1	200
15264355	6239	298	0	-100	0	230	101300000	1000	0	0	-1	200
15276915	6234	298	0	-100	0	230	101300000	1000	0	0	-1	200
15289475	6231	303	0	-100	0	230	101300000	1000	0	0	-1	200
15302035	6228	303	0	-100	0	230	101300000	1000	0	0	-1	200
15314595	6225	302	0	-100	0	230	101300000	1000	0	0	-1	200
15327155	6219	296	0	-100	0	230	101300000	1000	0	0	-1	200
15339715	6228	298	0	-100	0	230	101300000	1000	0	0	-1	200
15352275	6231	297	0	-100	0	230	101300000	1000	0	0	-1	200
15364835	6232	298	0	-100	0	230	101300000	1000	0	0	-1	200
15377395	6236	303	0	-100	0	230	101300000	1000	0	0	-1	200
15389955	6244	305	0	-100	0	230	101300000	1000	0	0	-1	200
15402515	6231	299	0	-100	0	230	101300000	1000	0	0	-1	200
15415075	6234	298	0	-100	0	230	101300000	1000	0	0	-1	200
15427635	6233	298	0	-100	0	230	101300000	1000	0	0	-1	200
15440195	6223	304	0	-100	0	230	101300000	1000	0	0	-1	200
15452755	6231	302	0	-100	0	230	101300000	1000	0	0	-1	200
15465315	6214	298	0	-100	0	230	101300000	1000	0	0	-1	200
15477875	6205	297	0	-100	0	230	101300000	1000	0	0	-1	200
15490435	6219	295	0	-100	0	230	101300000	1000	0	0	-1	200
15502995	6235	308	0	-100	0	230	101300000	1000	0	0	-1	200
15515555	6224	302	0	-100	0	230	101300000	1000	0	0	-1	200
15528115	6227	307	0	-100	0	230	101300000	1000	0	0	-1	200
15540675	6235	302	0	-100	0	230	101300000	1000	0	0	-1	200
15553235	6235	301	0	-100	0	230	101300000	1000	0	0	-1	200
15565795	6231	298	0	-100	0	230	101300000	1000	0	0	-1	200
15578355	6233	298	0	-100	0	230	101300000	1000	0	0	-1	200
15590915	6229	298	0	-100	0	230	101300000	1000	0	0	-1	200
15603475	6227	297	0	-100	0	230	101300000	1000	0	0	-1	200
15616035	6222	297	0	-100	0	230	101300000	1000	0	0	-1	200
15628595	6233	298	0	-100	0	230	101300000	1000	0	0	-1	200
15641155	6226	298	0	-100	0	230	101300000	1000	0	0	-1	200
15653715	6240	297	0	-100	0	230	101300000	1000	0	0	-1	200
15666275	6239	297	0	-100	0	230	101300000	1000	0	0	-1	200
15678835	6235	299	0	-100	0	230	101300000	1000	0	0	-1	200
15691395	6225	298	0	-100	0	230	101300000	1000	0	0	-1	200
15703955	6229	299	0	-100	0	230	101300000	1000	0	0	-1	200
15716515	6229	298	0	-100	0	230	101300000	1000	0	0	-1	200
15729075	6217	301	0	-100	0	230	101300000	1000	0	0	-1	200
15741635	6230	304	0	-100	0	230	101300000	1000	0	0	-1	200
15754195	6232	303	0	-100	0	230	101300000	1000	0	0	-1	200
15766755	6222	301	0	-100	0	230	101300000	1000	0	0	-1	200
15779315	6222	298	0	-100	0	230	101300000	1000	0	0	-1	200
15791875	6215	298	0	-100	0	230	101300000	1000	0	0	-1	200
15804435	6219	296	0	-100	0	230	101300000	1000	0	0	-1	200
15816995	6214	301	0	-100	0	230	101300000	1000	0	0	-1	200
15829555	6226	297	0	-100	0	230	101300000	1000	0	0	-1	200
15842115	6220	299	0	-100	0	230	101300000	1000	0	0	-1	200
15854675	6225	299	0	-100	0	230	101300000	1000	0	0	-1	200
15867235	6235	297	0	-100	0	230	101300000	1000	0	0	-1	200
15879795	6232	298	0	-100	0	230	101300000	1000	0	0	-1	200
15892355	6221	297	0	-100	0	230	101300000	1000	0	0	-1	200
15904915	6222	296	0	-100	0	230	101300000	1000	0	0	-1	200
15917475	6233	299	0	-100	0	230	101300000	1000	0	0	-1	200
15930035	6237	299	0	-100	0	230	101300000	1000	0	0	-1	200
15942595	6242	298	0	-100	0	230	101300000	1000	0	0	-1	200
15955155	6221	301	0	-100	0	230	101300000	1000	0	0	-1	200
15967715	6224	302	0	-100	0	230	101300000	1000	0	0	-1	200
15980275	6230	298	0	-100	0	230	101300000	1000	0	0	-1	200
15992835	6229	299	0	-100	0	230	101300000	1000	0	0	-1	200
16005395	6240	297	0	-100	0	230	101300000	1000	0	0	-1	200
16017955	6239	297	0	-100	0	230	101300000	1000	0	0	-1	200
16030515	6244	300	0	-100	0	230	101300000	1000	0	0	-1	200
16043075	6230	300	0	-100	0	230	101300000	1000	0	0	-1	200
16055635	6236	305	0	-100	0	230	101300000	1000	0	0	-1	200
16068195	6231	302	0	-100	0	230	101300000	1000	0	0	-1	200
16080755	6234	297	0	-100	0	230	101300000	1000	0	0	-1	200
16093315	6234	298	0	-100	0	230	101300000	1000	0	0	-1	200
16105875	6219	303	0	-100	0	230	101300000	1000	0	0	-1	200
16118435	6226	303	0	-100	0	230	101300000	1000	0	0	-1	200
16130995	6235	300	0	-100	0	230	101300000	1000	0	0	-1	200
16143555	6351	299	0	-100	0	230	101300000	1000	0	0	-1	200
16156115	6412	305	0	-100	0	230	101300000	1000	0	0	-1	200
16168675	6447	298	0	-100	0	230	101300000	1000	0	0	-1	200
16181235	6480	299	0	-100	0	230	101300000	1000	0	0	-1	200
16193795	6491	309	0	-100	0	230	101300000	1000	0	0	-1	200
16206355	6499	301	0	-100	0	230	101300000	1000	0	0	-1	200
16218915	6508	300	0	-100	0	230	101300000	1000	0	0	-1	200
16231475	6506	306	0	-100	0	230	101300000	1000	0	0	-1	200
16244035	6506	305	0	-100	0	230	101300000	1000	0	0	-1	200
16256595	6513	299	0	-100	0	230	101300000	1000	0	0	-1	200
16269155	6506	303	0	-100	0	230	101300000	1000	0	0	-1	200
16281715	6504	303	0	-100	0	230	101300000	1000	0	0	-1	200
16294275	6510	299	0	-100	0	230	101300000	1000	0	0	-1	200
16306835	6514	299	0	-100	0	230	101300000	1000	0	0	-1	200
16319395	6505	303	0	-100	0	230	101300000	1000	0	0	-1	200
16331955	6505	302	0	-100	0	230	101300000	1000	0	0	-1	200
16344515	6511	302	0	-100	0	230	101300000	1000	0	0	-1	200
16357075	6516	299	0	-100	0	230	101300000	1000	0	0	-1	200
16369635	6514	307	0	-100	0	230	101300000	1000	0	0	-1	200
16382195	6517	302	0	-100	0	230	101300000	1000	0	0	-1	200
16394755	6520	297	0	-100	0	230	101300000	1000	0	0	-1	200
16407315	6514	303	0	-100	0	230	101300000	1000	0	0	-1	200
16419875	6513	309	0	-100	0	230	101300000	1000	0	0	-1	200
16432435	6514	300	0	-100	0	230	101300000	1000	0	0	-1	200
16444995	6515	307	0	-100	0	230	101300000	1000	0	0	-1	200
16457555	6451	302	0	-100	0	230	101300000	1000	0	0	-1	200
16470115	6438	303	0	-100	0	230	101300000	1000	0	0	-1	200
16482675	6460	297	0	-100	0	230	101300000	1000	0	0	-1	200
16495235	6420	304	0	-100	0	230	101300000	1000	0	0	-1	200
16507795	6434	303	0	-100	0	230	101300000	1000	0	0	-1	200
16520355	6466	298	0	-100	0	230	101300000	1000	0	0	-1	200
16532915	6448	303	0	-100	0	230	101300000	1000	0	0	-1	200
16545475	6384	302	0	-100	0	230	101300000	1000	0	0	-1	200
16558035	6382	298	0	-100	0	230	101300000	1000	0	0	-1	200
16570595	6451	299	0	-100	0	230	101300000	1000	0	0	-1	200
16583155	6528	301	0	-100	0	230	101300000	1000	0	0	-1	200
16595715	6616	297	0	-100	0	230	101300000	1000	0	0	-1	200
16608275	6629	302	0	-100	0	230	101300000	1000	0	0	-1	200
16620835	6679	296	0	-100	0	230	101300000	1000	0	0	-1	200
16633395	6572	297	0	-100	0	230	101300000	1000	0	0	-1	200
16645955	6633	299	0	-100	0	230	101300000	1000	0	0	-1	200
16658515	6676	299	0	-100	0	230	101300000	1000	0	0	-1	200
16671075	6716	293	0	-100	0	230	101300000	1000	0	0	-1	200
16683635	6685	299	0	-100	0	230	101300000	1000	0	0	-1	200
16696195	6641	300	0	-100	0	230	101300000	1000	0	0	-1	200
16708755	6613	295	0	-100	0	230	101300000	1000	0	0	-1	200
16721315	6660	298	0	-100	0	230	101300000	1000	0	0	-1	200
16733875	6679	304	0	-100	0	230	101300000	1000	0	0	-1	200
16746435	6702	300	0	-100	0	230	101300000	1000	0	0	-1	200
16758995	6714	301	0	-100	0	230	101300000	1000	0	0	-1	200
16771555	6725	302	0	-100	0	230	101300000	1000	0	0	-1	200
16784115	6688	297	0	-100	0	230	101300000	1000	0	0	-1	200
16796675	6711	296	0	-100	0	230	101300000	1000	0	0	-1	200
16809235	6682	296	0	-100	0	230	101300000	1000	0	0	-1	200
16821795	6295	303	0	-100	0	230	101300000	1000	0	0	-1	200
16834355	6436	298	0	-100	0	230	101300000	1000	0	0	-1	200
16846915	6558	296	0	-100	0	230	101300000	1000	0	0	-1	200
16859475	6617	303	0	-100	0	230	101300000	1000	0	0	-1	200
16872035	6657	295	0	-100	0	230	101300000	1000	0	0	-1	200
16884595	6691	296	0	-100	0	230	101300000	1000	0	0	-1	200
16897155	6696	299	0	-100	0	230	101300000	1000	0	0	-1	200
16909715	6708	295	0	-100	0	230	101300000	1000	0	0	-1	200
16922275	6716	300	0	-100	0	230	101300000	1000	0	0	-1	200
16934835	6720	294	0	-100	0	230	101300000	1000	0	0	-1	200
16947395	6715	300	0	-100	0	230	101300000	1000	0	0	-1	200
16959955	6719	298	0	-100	0	230	101300000	1000	0	0	-1	200
16972515	6732	295	0	-100	0	230	101300000	1000	0	0	-1	200
16985075	6665	295	0	-100	0	230	101300000	1000	0	0	-1	200
16997635	6577	304	0	-100	0	230	101300000	1000	0	0	-1	200
17010195	6602	294	0	-100	0	230	101300000	1000	0	0	-1	200
17022755	6660	297	0	-100	0	230	101300000	1000	0	0	-1	200
17035315	6682	303	0	-100	0	230	101300000	1000	0	0	-1	200
17047875	6704	297	0	-100	0	230	101300000	1000	0	0	-1	200
17060435	6715	295	0	-100	0	230	101300000	1000	0	0	-1	200
17072995	6719	295	0	-100	0	230	101300000	1000	0	0	-1	200
17085555	6714	301	0	-100	0	230	101300000	1000	0	0	-1	200
17098115	6726	298	0	-100	0	230	101300000	1000	0	0	-1	200
17110675	6720	294	0	-100	0	230	101300000	1000	0	0	-1	200
17148355	6719	297	0	-100	0	230	101300000	1000	0	0	-1	200
17160915	6733	296	0	-100	0	230	101300000	1000	0	0	-1	200
17173475	6721	303	0	-100	0	230	101300000	1000	0	0	-1	200
17186035	6722	298	0	-100	0	230	101300000	1000	0	0	-1	200
17198595	6733	295	0	-100	0	230	101300000	1000	0	0	-1	200
17211155	6731	295	0	-100	0	230	101300000	1000	0	0	-1	200
17223715	6725	303	0	-100	0	230	101300000	1000	0	0	-1	200
17236275	6730	296	0	-100	0	230	101300000	1000	0	0	-1	200
17248835	6726	296	0	-100	0	230	101300000	1000	0	0	-1	200
17261395	6724	300	0	-100	0	230	101300000	1000	0	0	-1	200
17273955	6720	302	0	-100	0	230	101300000	1000	0	0	-1	200
17349315	6716	298	0	-100	0	230	101300000	1000	0	0	-1	200
17361875	6723	296	0	-100	0	230	101300000	1000	0	0	-1	200
17374435	6725	298	0	-100	0	230	101300000	1000	0	0	-1	200
17386995	6720	294	0	-100	0	230	101300000	1000	0	0	-1	200
17399555	6728	294	0	-100	0	230	101300000	1000	0	0	-1	200
17412115	6729	295	0	-100	0	230	101300000	1000	0	0	-1	200
17424675	6723	301	0	-100	0	230	101300000	1000	0	0	-1	200
17437235	6730	301	0	-100	0	230	101300000	1000	0	0	-1	200
17449795	6726	295	0	-100	0	230	101300000	1000	0	0	-1	200
17462355	6730	295	0	-100	0	230	101300000	1000	0	0	-1	200
17474915	6727	302	0	-100	0	230	101300000	1000	0	0	-1	200
17525155	6719	303	0	-100	0	230	101300000	1000	0	0	-1	200
17537715	6725	303	0	-100	0	230	101300000	1000	0	0	-1	200
17550275	6725	302	0	-100	0	230	101300000	1000	0	0	-1	200
17562835	6728	303	0	-100	0	230	101300000	1000	0	0	-1	200
17575395	6732	303	0	-100	0	230	101300000	1000	0	0	-1	200
17587955	6725	301	0	-100	0	230	101300000	1000	0	0	-1	200
17600515	6725	303	0	-100	0	230	101300000	1000	0	0	-1	200
17613075	6723	300	0	-100	0	230	101300000	1000	0	0	-1	200
17625635	6728	294	0	-100	0	230	101300000	1000	0	0	-1	200
17638195	6733	295	0	-100	0	230	101300000	1000	0	0	-1	200
17650755	6731	290	0	-100	0	230	101300000	1000	0	0	-1	200
17663315	6734	296	0	-100	0	230	101300000	1000	0	0	-1	200
17675875	6725	302	0	-100	0	230	101300000	1000	0	0	-1	200
17688435	6729	302	0	-100	0	230	101300000	1000	0	0	-1	200
17700995	6723	293	0	-100	0	230	101300000	1000	0	0	-1	200
17713555	6720	299	0	-100	0	230	101300000	1000	0	0	-1	200
17726115	6729	299	0	-100	0	230	101300000	1000	0	0	-1	200
17738675	6730	294	0	-100	0	230	101300000	1000	0	0	-1	200
17751235	6726	295	0	-100	0	230	101300000	1000	0	0	-1	200
17763795	6733	294	0	-100	0	230	101300000	1000	0	0	-1	200
17776355	6728	298	0	-100	0	230	101300000	1000	0	0	-1	200
17788915	6723	303	0	-100	0	230	101300000	1000	0	0	-1	200
17801475	6714	296	0	-100	0	230	101300000	1000	0	0	-1	200
17814035	6724	291	0	-100	0	230	101300000	1000	0	0	-1	200
17826595	6722	299	0	-100	0	230	101300000	1000	0	0	-1	200
17839155	6729	299	0	-100	0	230	101300000	1000	0	0	-1	200
17851715	6735	294	0	-100	0	230	101300000	1000	0	0	-1	200
17864275	6739	295	0	-100	0	230	101300000	1000	0	0	-1	200
17876835	6722	302	0	-100	0	230	101300000	1000	0	0	-1	200
17889395	6728	294	0	-100	0	230	101300000	1000	0	0	-1	200
17901955	6731	296	0	-100	0	230	101300000	1000	0	0	-1	200
17914515	6731	298	0	-100	0	230	101300000	1000	0	0	-1	200
17927075	6720	302	0	-100	0	230	101300000	1000	0	0	-1	200
17939635	6723	303	0	-100	0	230	101300000	1000	0	0	-1	200
17952195	6725	300	0	-100	0	230	101300000	1000	0	0	-1	200
17964755	6721	300	0	-100	0	230	101300000	1000	0	0	-1	200
17977315	6728	298	0	-100	0	230	101300000	1000	0	0	-1	200
17989875	6720	300	0	-100	0	230	101300000	1000	0	0	-1	200
18002435	6721	295	0	-100	0	230	101300000	1000	0	0	-1	200
18014995	6726	297	0	-100	0	230	101300000	1000	0	0	-1	200
18027555	6733	294	0	-100	0	230	101300000	1000	0	0	-1	200
18040115	6731	293	0	-100	0	230	101300000	1000	0	0	-1	200
18052675	6729	296	0	-100	0	230	101300000	1000	0	0	-1	200
18065235	6733	294	0	-100	0	230	101300000	1000	0	0	-1	200
18077795	6729	298	0	-100	0	230	101300000	1000	0	0	-1	200
18090355	6728	300	0	-100	0	230	101300000	1000	0	0	-1	200
18102915	6720	302	0	-100	0	230	101300000	1000	0	0	-1	200
18115475	6721	303	0	-100	0	230	101300000	1000	0	0	-1	200
18128035	6719	298	0	-100	0	230	101300000	1000	0	0	-1	200
18140595	6660	298	0	-100	0	230	101300000	1000	0	0	-1	200
18153155	6626	298	0	-100	0	230	101300000	1000	0	0	-1	200
18165715	6563	300	0	-100	0	230	101300000	1000	0	0	-1	200
18178275	6540	302	0	-100	0	230	101300000	1000	0	0	-1	200
18190835	6522	300	0	-100	0	230	101300000	1000	0	0	-1	200
18203395	6517	301	0	-100	0	230	101300000	1000	0	0	-1	200
18215955	6502	298	0	-100	0	230	101300000	1000	0	0	-1	200
18228515	6501	299	0	-100	0	230	101300000	1000	0	0	-1	200
18241075	6506	298	0	-100	0	230	101300000	1000	0	0	-1	200
18253635	6509	301	0	-100	0	230	101300000	1000	0	0	-1	200
18266195	6511	298	0	-100	0	230	101300000	1000	0	0	-1	200
18278755	6521	302	0	-100	0	230	101300000	1000	0	0	-1	200
18291315	6512	307	0	-100	0	230	101300000	1000	0	0	-1	200
18303875	6513	300	0	-100	0	230	101300000	1000	0	0	-1	200
18316435	6518	295	0	-100	0	230	101300000	1000	0	0	-1	200
18328995	6517	306	0	-100	0	230	101300000	1000	0	0	-1	200
18341555	6517	307	0	-100	0	230	101300000	1000	0	0	-1	200
18354115	6514	301	0	-100	0	230	101300000	1000	0	0	-1	200
18366675	6526	299	0	-100	0	230	101300000	1000	0	0	-1	200
18379235	6523	301	0	-100	0	230	101300000	1000	0	0	-1	200
18391795	6517	303	0	-100	0	230	101300000	1000	0	0	-1	200
18404355	6531	298	0	-100	0	230	101300000	1000	0	0	-1	200
18416915	6528	303	0	-100	0	230	101300000	1000	0	0	-1	200
18429475	6526	304	0	-100	0	230	101300000	1000	0	0	-1	200
18442035	6527	299	0	-100	0	230	101300000	1000	0	0	-1	200
18454595	6531	303	0	-100	0	230	101300000	1000	0	0	-1	200
18467155	6523	304	0	-100	0	230	101300000	1000	0	0	-1	200
18479715	6534	302	0	-100	0	230	101300000	1000	0	0	-1	200
18492275	6524	303	0	-100	0	230	101300000	1000	0	0	-1	200
18504835	6521	299	0	-100	0	230	101300000	1000	0	0	-1	200
18517395	6532	298	0	-100	0	230	101300000	1000	0	0	-1	200
18529955	6523	303	0	-100	0	230	101300000	1000	0	0	-1	200
18542515	6520	308	0	-100	0	230	101300000	1000	0	0	-1	200
18555075	6525	298	0	-100	0	230	101300000	1000	0	0	-1	200
18567635	6518	303	0	-100	0	230	101300000	1000	0	0	-1	200
18580195	6517	303	0	-100	0	230	101300000	1000	0	0	-1	200
18592755	6520	299	0	-100	0	230	101300000	1000	0	0	-1	200
18605315	6520	301	0	-100	0	230	101300000	1000	0	0	-1	200
18617875	6522	307	0	-100	0	230	101300000	1000	0	0	-1	200
18630435	6519	299	0	-100	0	230	101300000	1000	0	0	-1	200
18642995	6524	306	0	-100	0	230	101300000	1000	0	0	-1	200
18655555	6521	307	0	-100	0	230	101300000	1000	0	0	-1	200
18668115	6513	302	0	-100	0	230	101300000	1000	0	0	-1	200
18680675	6520	299	0	-100	0	230	101300000	1000	0	0	-1	200
18693235	6518	309	0	-100	0	230	101300000	1000	0	0	-1	200
18705795	6521	300	0	-100	0	230	101300000	1000	0	0	-1	200
18718355	6516	300	0	-100	0	230	101300000	1000	0	0	-1	200
18730915	6521	306	0	-100	0	230	101300000	1000	0	0	-1	200
18743475	6523	300	0	-100	0	230	101300000	1000	0	0	-1	200
18756035	6520	299	0	-100	0	230	101300000	1000	0	0	-1	200
18768595	6515	304	0	-100	0	230	101300000	1000	0	0	-1	200
18781155	6524	299	0	-100	0	230	101300000	1000	0	0	-1	200
18793715	6517	306	0	-100	0	230	101300000	1000	0	0	-1	200
18806275	6519	307	0	-100	0	230	101300000	1000	0	0	-1	200
18818835	6520	299	0	-100	0	230	101300000	1000	0	0	-1	200
18831395	6525	300	0	-100	0	230	101300000	1000	0	0	-1	200
18843955	6516	307	0	-100	0	230	101300000	1000	0	0	-1	200
18856515	6513	306	0	-100	0	230	101300000	1000	0	0	-1	200
18869075	6522	300	0	-100	0	230	101300000	1000	0	0	-1	200
18881635	6526	301	0	-100	0	230	101300000	1000	0	0	-1	200
18894195	6517	306	0	-100	0	230	101300000	1000	0	0	-1	200
18906755	6513	304	0	-100	0	230	101300000	1000	0	0	-1	200
18919315	6526	299	0	-100	0	230	101300000	1000	0	0	-1	200
18931875	6518	303	0	-100	0	230	101300000	1000	0	0	-1	200
18944435	6526	303	0	-100	0	230	101300000	1000	0	0	-1	200
18956995	6526	303	0	-100	0	230	101300000	1000	0	0	-1	200
18969555	6519	303	0	-100	0	230	101300000	1000	0	0	-1	200
18982115	6518	302	0	-100	0	230	101300000	1000	0	0	-1	200
18994675	6525	298	0	-100	0	230	101300000	1000	0	0	-1	200
19007235	6517	309	0	-100	0	230	101300000	1000	0	0	-1	200
19019795	6525	299	0	-100	0	230	101300000	1000	0	0	-1	200
19032355	6526	304	0	-100	0	230	101300000	1000	0	0	-1	200
19044915	6529	299	0	-100	0	230	101300000	1000	0	0	-1	200
19057475	6528	307	0	-100	0	230	101300000	1000	0	0	-1	200
19070035	6531	301	0	-100	0	230	101300000	1000	0	0	-1	200
19082595	6528	305	0	-100	0	230	101300000	1000	0	0	-1	200
19095155	6527	299	0	-100	0	230	101300000	1000	0	0	-1	200
19107715	6518	307	0	-100	0	230	101300000	1000	0	0	-1	200
19120275	6531	300	0	-100	0	230	101300000	1000	0	0	-1	200
19132835	6524	306	0	-100	0	230	101300000	1000	0	0	-1	200
19145395	6534	298	0	-100	0	230	101300000	1000	0	0	-1	200
19157955	6528	303	0	-100	0	230	101300000	1000	0	0	-1	200
19170515	6525	298	0	-100	0	230	101300000	1000	0	0	-1	200
19183075	6537	301	0	-100	0	230	101300000	1000	0	0	-1	200
19195635	6529	307	0	-100	0	230	101300000	1000	0	0	-1	200
19208195	6526	299	0	-100	0	230	101300000	1000	0	0	-1	200
19220755	6524	304	0	-100	0	230	101300000	1000	0	0	-1	200
19233315	6528	299	0	-100	0	230	101300000	1000	0	0	-1	200
19245875	6535	301	0	-100	0	230	101300000	1000	0	0	-1	200
19258435	6533	303	0	-100	0	230	101300000	1000	0	0	-1	200
19270995	6533	306	0	-100	0	230	101300000	1000	0	0	-1	200
19283555	6525	306	0	-100	0	230	101300000	1000	0	0	-1	200
19296115	6530	299	0	-100	0	230	101300000	1000	0	0	-1	200
19308675	6523	306	0	-100	0	230	101300000	1000	0	0	-1	200
19321235	6530	300	0	-100	0	230	101300000	1000	0	0	-1	200
19333795	6525	306	0	-100	0	230	101300000	1000	0	0	-1	200
19346355	6533	300	0	-100	0	230	101300000	1000	0	0	-1	200
19358915	6526	305	0	-100	0	230	101300000	1000	0	0	-1	200
19371475	6530	301	0	-100	0	230	101300000	1000	0	0	-1	200
19384035	6535	302	0	-100	0	230	101300000	1000	0	0	-1	200
19396595	6529	303	0	-100	0	230	101300000	1000	0	0	-1	200
19409155	6534	300	0	-100	0	230	101300000	1000	0	0	-1	200
19421715	6531	307	0	-100	0	230	101300000	1000	0	0	-1	200
19434275	6535	301	0	-100	0	230	101300000	1000	0	0	-1	200
19446835	6526	306	0	-100	0	230	101300000	1000	0	0	-1	200
19459395	6528	298	0	-100	0	230	101300000	1000	0	0	-1	200
19471955	6526	303	0	-100	0	230	101300000	1000	0	0	-1	200
19484515	6535	301	0	-100	0	230	101300000	1000	0	0	-1	200
19497075	6541	301	0	-100	0	230	101300000	1000	0	0	-1	200
19509635	6528	306	0	-100	0	230	101300000	1000	0	0	-1	200
19522195	6532	301	0	-100	0	230	101300000	1000	0	0	-1	200
19534755	6540	300	0	-100	0	230	101300000	1000	0	0	-1	200
19547315	6531	306	0	-100	0	230	101300000	1000	0	0	-1	200
19559875	6530	301	0	-100	0	230	101300000	1000	0	0	-1	200
19572435	6541	296	0	-100	0	230	101300000	1000	0	0	-1	200
19584995	6531	305	0	-100	0	230	101300000	1000	0	0	-1	200
19597555	6525	304	0	-100	0	230	101300000	1000	0	0	-1	200
19610115	6536	300	0	-100	0	230	101300000	1000	0	0	-1	200
19622675	6530	307	0	-100	0	230	101300000	1000	0	0	-1	200
19635235	6534	299	0	-100	0	230	101300000	1000	0	0	-1	200
19647795	6535	301	0	-100	0	230	101300000	1000	0	0	-1	200
19660355	6533	307	0	-100	0	230	101300000	1000	0	0	-1	200
19672915	6525	306	0	-100	0	230	101300000	1000	0	0	-1	200
19685475	6536	300	0	-100	0	230	101300000	1000	0	0	-1	200
19698035	6534	303	0	-100	0	230	101300000	1000	0	0	-1	200
19710595	6535	307	0	-100	0	230	101300000	1000	0	0	-1	200
19723155	6531	299	0	-100	0	230	101300000	1000	0	0	-1	200
19735715	6539	302	0	-100	0	230	101300000	1000	0	0	-1	200
19748275	6531	309	0	-100	0	230	101300000	1000	0	0	-1	200
19760835	6532	300	0	-100	0	230	101300000	1000	0	0	-1	200
19773395	6531	306	0	-100	0	230	101300000	1000	0	0	-1	200
19785955	6530	298	0	-100	0	230	101300000	1000	0	0	-1	200
19798515	6533	303	0	-100	0	230	101300000	1000	0	0	-1	200
19811075	6528	303	0	-100	0	230	101300000	1000	0	0	-1	200
19823635	6532	298	0	-100	0	230	101300000	1000	0	0	-1	200
19836195	6528	308	0	-100	0	230	101300000	1000	0	0	-1	200
19848755	6534	299	0	-100	0	230	101300000	1000	0	0	-1	200
19861315	6524	305	0	-100	0	230	101300000	1000	0	0	-1	200
19873875	6530	301	0	-100	0	230	101300000	1000	0	0	-1	200
19886435	6530	302	0	-100	0	230	101300000	1000	0	0	-1	200
19898995	6525	300	0	-100	0	230	101300000	1000	0	0	-1	200
19911555	6533	297	0	-100	0	230	101300000	1000	0	0	-1	200
19924115	6531	306	0	-100	0	230	101300000	1000	0	0	-1	200
19936675	6534	301	0	-100	0	230	101300000	1000	0	0	-1	200
19949235	6525	305	0	-100	0	230	101300000	1000	0	0	-1	200
19961795	6529	299	0	-100	0	230	101300000	1000	0	0	-1	200
19974355	6534	297	0	-100	0	230	101300000	1000	0	0	-1	200
19986915	6531	306	0	-100	0	230	101300000	1000	0	0	-1	200
19999475	6528	300	0	-100	0	230	101300000	1000	0	0	-1	200
20012035	6530	301	0	-100	0	230	101300000	1000	0	0	-1	200
20024595	6525	302	0	-100	0	230	101300000	1000	0	0	-1	200
20037155	6535	300	0	-100	0	230	101300000	1000	0	0	-1	200
20049715	6533	307	0	-100	0	230	101300000	1000	0	0	-1	200
20062275	6536	298	0	-100	0	230	101300000	1000	0	0	-1	200
20074835	6529	306	0	-100	0	230	101300000	1000	0	0	-1	200
20087395	6533	300	0	-100	0	230	101300000	1000	0	0	-1	200
20099955	6531	307	0	-100	0	230	101300000	1000	0	0	-1	200
20112515	6536	298	0	-100	0	230	101300000	1000	0	0	-1	200
20125075	6531	306	0	-100	0	230	101300000	1000	0	0	-1	200
20137635	6532	300	0	-100	0	230	101300000	1000	0	0	-1	200
20150195	6522	306	0	-100	0	230	101300000	1000	0	0	-1	200
20162755	6531	301	0	-100	0	230	101300000	1000	0	0	-1	200
20175315	6531	302	0	-100	0	230	101300000	1000	0	0	-1	200
20187875	6529	304	0	-100	0	230	101300000	1000	0	0	-1	200
20200435	6528	296	0	-100	0	230	101300000	1000	0	0	-1	200
20238115	6517	307	0	-100	0	230	101300000	1000	0	0	-1	200
20250675	6529	299	0	-100	0	230	101300000	1000	0	0	-1	200
20263235	6526	306	0	-100	0	230	101300000	1000	0	0	-1	200
20275795	6531	299	0	-100	0	230	101300000	1000	0	0	-1	200
20288355	6522	307	0	-100	0	230	101300000	1000	0	0	-1	200
20300915	6530	299	0	-100	0	230	101300000	1000	0	0	-1	200
20313475	6526	303	0	-100	0	230	101300000	1000	0	0	-1	200
20326035	6525	302	0	-100	0	230	101300000	1000	0	0	-1	200
20338595	6528	299	0	-100	0	230	101300000	1000	0	0	-1	200
20351155	6522	305	0	-100	0	230	101300000	1000	0	0	-1	200
20363715	6523	302	0	-100	0	230	101300000	1000	0	0	-1	200
20376275	6526	297	0	-100	0	230	101300000	1000	0	0	-1	200
20451635	6534	300	0	-100	0	230	101300000	1000	0	0	-1	200
20464195	6535	301	0	-100	0	230	101300000	1000	0	0	-1	200
20476755	6526	307	0	-100	0	230	101300000	1000	0	0	-1	200
20489315	6527	304	0	-100	0	230	101300000	1000	0	0	-1	200
20501875	6534	299	0	-100	0	230	101300000	1000	0	0	-1	200
20514435	6533	301	0	-100	0	230	101300000	1000	0	0	-1	200
20526995	6532	301	0	-100	0	230	101300000	1000	0	0	-1	200
20539555	6521	302	0	-100	0	230	101300000	1000	0	0	-1	200
20552115	6532	299	0	-100	0	230	101300000	1000	0	0	-1	200
20564675	6531	304	0	-100	0	230	101300000	1000	0	0	-1	200
20577235	6524	304	0	-100	0	230	101300000	1000	0	0	-1	200
20589795	6530	300	0	-100	0	230	101300000	1000	0	0	-1	200
20602355	6526	304	0	-100	0	230	101300000	1000	0	0	-1	200
20614915	6519	304	0	-100	0	230	101300000	1000	0	0	-1	200
20627475	6532	300	0	-100	0	230	101300000	1000	0	0	-1	200
20640035	6523	303	0	-100	0	230	101300000	1000	0	0	-1	200
20652595	6516	303	0	-100	0	230	101300000	1000	0	0	-1	200
20665155	6526	300	0	-100	0	230	101300000	1000	0	0	-1	200
20677715	6528	303	0	-100	0	230	101300000	1000	0	0	-1	200
20690275	6528	304	0	-100	0	230	101300000	1000	0	0	-1	200
20702835	6530	298	0	-100	0	230	101300000	1000	0	0	-1	200
20715395	6526	301	0	-100	0	230	101300000	1000	0	0	-1	200
20727955	6525	304	0	-100	0	230	101300000	1000	0	0	-1	200
20740515	6530	298	0	-100	0	230	101300000	1000	0	0	-1	200
20753075	6536	299	0	-100	0	230	101300000	1000	0	0	-1	200
20765635	6525	306	0	-100	0	230	101300000	1000	0	0	-1	200
20778195	6524	301	0	-100	0	230	101300000	1000	0	0	-1	200
20790755	6526	297	0	-100	0	230	101300000	1000	0	0	-1	200
20803315	6528	307	0	-100	0	230	101300000	1000	0	0	-1	200
20815875	6525	299	0	-100	0	230	101300000	1000	0	0	-1	200
20828435	6528	299	0	-100	0	230	101300000	1000	0	0	-1	200
20840995	6526	300	0	-100	0	230	101300000	1000	0	0	-1	200
20853555	6524	303	0	-100	0	230	101300000	1000	0	0	-1	200
20866115	6530	298	0	-100	0	230	101300000	1000	0	0	-1	200
20878675	6521	305	0	-100	0	230	101300000	1000	0	0	-1	200
20891235	6525	303	0	-100	0	230	101300000	1000	0	0	-1	200
20903795	6525	298	0	-100	0	230	101300000	1000	0	0	-1	200
20916355	6540	300	0	-100	0	230	101300000	1000	0	0	-1	200
20928915	6521	307	0	-100	0	230	101300000	1000	0	0	-1	200
20941475	6518	303	0	-100	0	230	101300000	1000	0	0	-1	200
20954035	6526	298	0	-100	0	230	101300000	1000	0	0	-1	200
20966595	6533	300	0	-100	0	230	101300000	1000	0	0	-1	200
20979155	6522	304	0	-100	0	230	101300000	1000	0	0	-1	200
20991715	6522	307	0	-100	0	230	101300000	1000	0	0	-1	200
21004275	6528	298	0	-100	0	230	101300000	1000	0	0	-1	200
21016835	6524	302	0	-100	0	230	101300000	1000	0	0	-1	200
21029395	6525	305	0	-100	0	230	101300000	1000	0	0	-1	200
21041955	6527	299	0	-100	0	230	101300000	1000	0	0	-1	200
21054515	6521	304	0	-100	0	230	101300000	1000	0	0	-1	200
21067075	6529	304	0	-100	0	230	101300000	1000	0	0	-1	200
21079635	6527	301	0	-100	0	230	101300000	1000	0	0	-1	200
21092195	6534	299	0	-100	0	230	101300000	1000	0	0	-1	200
21104755	6528	300	0	-100	0	230	101300000	1000	0	0	-1	200
21117315	6519	303	0	-100	0	230	101300000	1000	0	0	-1	200
21129875	6526	307	0	-100	0	230	101300000	1000	0	0	-1	200
21142435	6526	307	0	-100	0	230	101300000	1000	0	0	-1	200
21154995	6523	299	0	-100	0	230	101300000	1000	0	0	-1	200
21167555	6530	298	0	-100	0	230	101300000	1000	0	0	-1	200
21180115	6526	305	0	-100	0	230	101300000	1000	0	0	-1	200
21192675	6517	305	0	-100	0	230	101300000	1000	0	0	-1	200
21205235	6531	303	0	-100	0	230	101300000	1000	0	0	-1	200
21217795	6529	299	0	-100	0	230	101300000	1000	0	0	-1	200
21230355	6527	297	0	-100	0	230	101300000	1000	0	0	-1	200
21242915	6529	303	0	-100	0	230	101300000	1000	0	0	-1	200
21255475	6526	308	0	-100	0	230	101300000	1000	0	0	-1	200
21268035	6524	299	0	-100	0	230	101300000	1000	0	0	-1	200
21280595	6530	299	0	-100	0	230	101300000	1000	0	0	-1	200
21293155	6531	299	0	-100	0	230	101300000	1000	0	0	-1	200
21305715	6531	301	0	-100	0	230	101300000	1000	0	0	-1	200
21318275	6522	307	0	-100	0	230	101300000	1000	0	0	-1	200
21330835	6523	305	0	-100	0	230	101300000	1000	0	0	-1	200
21343395	6528	298	0	-100	0	230	101300000	1000	0	0	-1	200
21355955	6530	302	0	-100	0	230	101300000	1000	0	0	-1	200
21368515	6528	307	0	-100	0	230	101300000	1000	0	0	-1	200
21381075	6516	305	0	-100	0	230	101300000	1000	0	0	-1	200
21393635	6531	300	0	-100	0	230	101300000	1000	0	0	-1	200
21406195	6528	297	0	-100	0	230	101300000	1000	0	0	-1	200
21418755	6526	303	0	-100	0	230	101300000	1000	0	0	-1	200
21431315	6526	308	0	-100	0	230	101300000	1000	0	0	-1	200
21443875	6525	301	0	-100	0	230	101300000	1000	0	0	-1	200
21456435	6527	297	0	-100	0	230	101300000	1000	0	0	-1	200
21468995	6522	303	0	-100	0	230	101300000	1000	0	0	-1	200
21481555	6521	302	0	-100	0	230	101300000	1000	0	0	-1	200
21494115	6531	300	0	-100	0	230	101300000	1000	0	0	-1	200
21506675	6528	303	0	-100	0	230	101300000	1000	0	0	-1	200
21519235	6528	308	0	-100	0	230	101300000	1000	0	0	-1	200
21531795	6528	298	0	-100	0	230	101300000	1000	0	0	-1	200
21544355	6532	299	0	-100	0	230	101300000	1000	0	0	-1	200
21556915	6524	306	0	-100	0	230	101300000	1000	0	0	-1	200
21569475	6520	303	0	-100	0	230	101300000	1000	0	0	-1	200
21582035	6528	300	0	-100	0	230	101300000	1000	0	0	-1	200
21594595	6527	302	0	-100	0	230	101300000	1000	0	0	-1	200
21607155	6527	308	0	-100	0	230	101300000	1000	0	0	-1	200
21619715	6530	298	0	-100	0	230	101300000	1000	0	0	-1	200
21632275	6536	299	0	-100	0	230	101300000	1000	0	0	-1	200
21644835	6527	307	0	-100	0	230	101300000	1000	0	0	-1	200
21657395	6531	301	0	-100	0	230	101300000	1000	0	0	-1	200
21669955	6528	300	0	-100	0	230	101300000	1000	0	0	-1	200
21682515	6524	303	0	-100	0	230	101300000	1000	0	0	-1	200
21695075	6521	302	0	-100	0	230	101300000	1000	0	0	-1	200
21707635	6530	299	0	-100	0	230	101300000	1000	0	0	-1	200
21720195	6535	299	0	-100	0	230	101300000	1000	0	0	-1	200
21732755	6531	305	0	-100	0	230	101300000	1000	0	0	-1	200
21745315	6531	301	0	-100	0	230	101300000	1000	0	0	-1	200
21757875	6529	303	0	-100	0	230	101300000	1000	0	0	-1	200
21770435	6522	305	0	-100	0	230	101300000	1000	0	0	-1	200
21782995	6525	302	0	-100	0	230	101300000	1000	0	0	-1	200
21795555	6528	301	0	-100	0	230	101300000	1000	0	0	-1	200
21808115	6522	307	0	-100	0	230	101300000	1000	0	0	-1	200
21820675	6521	302	0	-100	0	230	101300000	1000	0	0	-1	200
21833235	6530	301	0	-100	0	230	101300000	1000	0	0	-1	200
21845795	6534	303	0	-100	0	230	101300000	1000	0	0	-1	200
21858355	6520	306	0	-100	0	230	101300000	1000	0	0	-1	200
21870915	6518	304	0	-100	0	230	101300000	1000	0	0	-1	200
21883475	6530	301	0	-100	0	230	101300000	1000	0	0	-1	200
21896035	6529	300	0	-100	0	230	101300000	1000	0	0	-1	200
21908595	6519	302	0	-100	0	230	101300000	1000	0	0	-1	200
21921155	6529	299	0	-100	0	230	101300000	1000	0	0	-1	200
21933715	6522	305	0	-100	0	230	101300000	1000	0	0	-1	200
21946275	6520	306	0	-100	0	230	101300000	1000	0	0	-1	200
21958835	6530	298	0	-100	0	230	101300000	1000	0	0	-1	200
21971395	6525	306	0	-100	0	230	101300000	1000	0	0	-1	200
21983955	6523	299	0	-100	0	230	101300000	1000	0	0	-1	200
21996515	6534	300	0	-100	0	230	101300000	1000	0	0	-1	200
22009075	6531	309	0	-100	0	230	101300000	1000	0	0	-1	200
22021635	6533	299	0	-100	0	230	101300000	1000	0	0	-1	200
22034195	6523	306	0	-100	0	230	101300000	1000	0	0	-1	200
22046755	6528	300	0	-100	0	230	101300000	1000	0	0	-1	200
22059315	6532	303	0	-100	0	230	101300000	1000	0	0	-1	200
22071875	6521	304	0	-100	0	230	101300000	1000	0	0	-1	200
22084435	6530	297	0	-100	0	230	101300000	1000	0	0	-1	200
22096995	6530	304	0	-100	0	230	101300000	1000	0	0	-1	200
22109555	6525	305	0	-100	0	230	101300000	1000	0	0	-1	200
22122115	6527	307	0	-100	0	230	101300000	1000	0	0	-1	200
22134675	6521	302	0	-100	0	230	101300000	1000	0	0	-1	200
22147235	6528	300	0	-100	0	230	101300000	1000	0	0	-1	200
22159795	6533	300	0	-100	0	230	101300000	1000	0	0	-1	200
22172355	6520	305	0	-100	0	230	101300000	1000	0	0	-1	200
22184915	6526	306	0	-100	0	230	101300000	1000	0	0	-1	200
22197475	6524	303	0	-100	0	230	101300000	1000	0	0	-1	200
22210035	6530	299	0	-100	0	230	101300000	1000	0	0	-1	200
22222595	6532	301	0	-100	0	230	101300000	1000	0	0	-1	200
22235155	6528	298	0	-100	0	230	101300000	1000	0	0	-1	200
22247715	6527	302	0	-100	0	230	101300000	1000	0	0	-1	200
22260275	6522	305	0	-100	0	230	101300000	1000	0	0	-1	200
22272835	6533	308	0	-100	0	230	101300000	1000	0	0	-1	200
22285395	6528	300	0	-100	0	230	101300000	1000	0	0	-1	200
22297955	6531	299	0	-100	0	230	101300000	1000	0	0	-1	200
22310515	6532	301	0	-100	0	230	101300000	1000	0	0	-1	200
22323075	6525	305	0	-100	0	230	101300000	1000	0	0	-1	200
22335635	6533	309	0	-100	0	230	101300000	1000	0	0	-1	200
22348195	6519	303	0	-100	0	230	101300000	1000	0	0	-1	200
22360755	6528	299	0	-100	0	230	101300000	1000	0	0	-1	200
22373315	6532	300	0	-100	0	230	101300000	1000	0	0	-1	200
22385875	6534	299	0	-100	0	230	101300000	1000	0	0	-1	200
22398435	6536	299	0	-100	0	230	101300000	1000	0	0	-1	200
22410995	6530	302	0	-100	0	230	101300000	1000	0	0	-1	200
22423555	6529	303	0	-100	0	230	101300000	1000	0	0	-1	200
22436115	6528	301	0	-100	0	230	101300000	1000	0	0	-1	200
22448675	6534	299	0	-100	0	230	101300000	1000	0	0	-1	200
22461235	6530	300	0	-100	0	230	101300000	1000	0	0	-1	200
22473795	6531	307	0	-100	0	230	101300000	1000	0	0	-1	200
22486355	6525	304	0	-100	0	230	101300000	1000	0	0	-1	200
22498915	6521	300	0	-100	0	230	101300000	1000	0	0	-1	200
22511475	6528	298	0	-100	0	230	101300000	1000	0	0	-1	200
22524035	6531	301	0	-100	0	230	101300000	1000	0	0	-1	200
22536595	6524	305	0	-100	0	230	101300000	1000	0	0	-1	200
22549155	6527	303	0	-100	0	230	101300000	1000	0	0	-1	200
22561715	6525	300	0	-100	0	230	101300000	1000	0	0	-1	200
22574275	6530	300	0	-100	0	230	101300000	1000	0	0	-1	200
22586835	6530	298	0	-100	0	230	101300000	1000	0	0	-1	200
22599395	6530	300	0	-100	0	230	101300000	1000	0	0	-1	200
22611955	6525	302	0	-100	0	230	101300000	1000	0	0	-1	200
22624515	6531	305	0	-100	0	230	101300000	1000	0	0	-1	200
22637075	6528	308	0	-100	0	230	101300000	1000	0	0	-1	200
22649635	6525	304	0	-100	0	230	101300000	1000	0	0	-1	200
22662195	6530	299	0	-100	0	230	101300000	1000	0	0	-1	200
22674755	6530	299	0	-100	0	230	101300000	1000	0	0	-1	200
22687315	6530	302	0	-100	0	230	101300000	1000	0	0	-1	200
22699875	6525	307	0	-100	0	230	101300000	1000	0	0	-1	200
22712435	6522	307	0	-100	0	230	101300000	1000	0	0	-1	200
22724995	6533	300	0	-100	0	230	101300000	1000	0	0	-1	200
22737555	6524	303	0	-100	0	230	101300000	1000	0	0	-1	200
22750115	6531	299	0	-100	0	230	101300000	1000	0	0	-1	200
22762675	6528	300	0	-100	0	230	101300000	1000	0	0	-1	200
22775235	6530	298	0	-100	0	230	101300000	1000	0	0	-1	200
22787795	6529	303	0	-100	0	230	101300000	1000	0	0	-1	200
22800355	6526	307	0	-100	0	230	101300000	1000	0	0	-1	200
22812915	6526	300	0	-100	0	230	101300000	1000	0	0	-1	200
22825475	6531	299	0	-100	0	230	101300000	1000	0	0	-1	200
22838035	6528	301	0	-100	0	230	101300000	1000	0	0	-1	200
22850595	6523	302	0	-100	0	230	101300000	1000	0	0	-1	200
22863155	6529	307	0	-100	0	230	101300000	1000	0	0	-1	200
22875715	6524	301	0	-100	0	230	101300000	1000	0	0	-1	200
22888275	6534	299	0	-100	0	230	101300000	1000	0	0	-1	200
22900835	6531	299	0	-100	0	230	101300000	1000	0	0	-1	200
22913395	6524	306	0	-100	0	230	101300000	1000	0	0	-1	200
22925955	6526	306	0	-100	0	230	101300000	1000	0	0	-1	200
22938515	6520	302	0	-100	0	230	101300000	1000	0	0	-1	200
22951075	6525	299	0	-100	0	230	101300000	1000	0	0	-1	200
22963635	6530	302	0	-100	0	230	101300000	1000	0	0	-1	200
22976195	6528	303	0	-100	0	230	101300000	1000	0	0	-1	200
22988755	6522	305	0	-100	0	230	101300000	1000	0	0	-1	200
23001315	6526	307	0	-100	0	230	101300000	1000	0	0	-1	200
23013875	6525	300	0	-100	0	230	101300000	1000	0	0	-1	200
23026435	6530	297	0	-100	0	230	101300000	1000	0	0	-1	200
23038995	6528	304	0	-100	0	230	101300000	1000	0	0	-1	200
23051555	6525	307	0	-100	0	230	101300000	1000	0	0	-1	200
23064115	6533	301	0	-100	0	230	101300000	1000	0	0	-1	200
23076675	6527	295	0	-100	0	230	101300000	1000	0	0	-1	200
23089235	6525	304	0	-100	0	230	101300000	1000	0	0	-1	200
23101795	6531	304	0	-100	0	230	101300000	1000	0	0	-1	200
23114355	6529	299	0	-100	0	230	101300000	1000	0	0	-1	200
23126915	6530	295	0	-100	0	230	101300000	1000	0	0	-1	200
23152035	6524	305	0	-100	0	230	101300000	1000	0	0	-1	200
23164595	6525	308	0	-100	0	230	101300000	1000	0	0	-1	200
23177155	6523	299	0	-100	0	230	101300000	1000	0	0	-1	200
23189715	6532	297	0	-100	0	230	101300000	1000	0	0	-1	200
23202275	6524	304	0	-100	0	230	101300000	1000	0	0	-1	200
23214835	6524	299	0	-100	0	230	101300000	1000	0	0	-1	200
23227395	6531	299	0	-100	0	230	101300000	1000	0	0	-1	200
23239955	6526	304	0	-100	0	230	101300000	1000	0	0	-1	200
23252515	6530	307	0	-100	0	230	101300000	1000	0	0	-1	200
23265075	6530	299	0	-100	0	230	101300000	1000	0	0	-1	200
23277635	6530	298	0	-100	0	230	101300000	1000	0	0	-1	200
23290195	6528	303	0	-100	0	230	101300000	1000	0	0	-1	200
23352995	6524	299	0	-100	0	230	101300000	1000	0	0	-1	200
23365555	6520	303	0	-100	0	230	101300000	1000	0	0	-1	200
23378115	6530	297	0	-100	0	230	101300000	1000	0	0	-1	200
23390675	6524	302	0	-100	0	230	101300000	1000	0	0	-1	200
23403235	6519	304	0	-100	0	230	101300000	1000	0	0	-1	200
23415795	6530	298	0	-100	0	230	101300000	1000	0	0	-1	200
23428355	6528	303	0	-100	0	230	101300000	1000	0	0	-1	200
23440915	6529	307	0	-100	0	230	101300000	1000	0	0	-1	200
23453475	6527	301	0	-100	0	230	101300000	1000	0	0	-1	200
23466035	6529	299	0	-100	0	230	101300000	1000	0	0	-1	200
23478595	6524	306	0	-100	0	230	101300000	1000	0	0	-1	200
23491155	6534	297	0	-100	0	230	101300000	1000	0	0	-1	200
23516275	6518	304	0	-100	0	230	101300000	1000	0	0	-1	200
23528835	6528	298	0	-100	0	230	101300000	1000	0	0	-1	200
23541395	6528	306	0	-100	0	230	101300000	1000	0	0	-1	200
23553955	6521	300	0	-100	0	230	101300000	1000	0	0	-1	200
23566515	6532	300	0	-100	0	230	101300000	1000	0	0	-1	200
23579075	6525	307	0	-100	0	230	101300000	1000	0	0	-1	200
23591635	6528	299	0	-100	0	230	101300000	1000	0	0	-1	200
23604195	6525	297	0	-100	0	230	101300000	1000	0	0	-1	200
23616755	6526	304	0	-100	0	230	101300000	1000	0	0	-1	200
23629315	6531	303	0	-100	0	230	101300000	1000	0	0	-1	200
23641875	6534	301	0	-100	0	230	101300000	1000	0	0	-1	200
23654435	6540	300	0	-100	0	230	101300000	1000	0	0	-1	200
23666995	6526	301	0	-100	0	230	101300000	1000	0	0	-1	200
23679555	6522	302	0	-100	0	230	101300000	1000	0	0	-1	200
23692115	6525	299	0	-100	0	230	101300000	1000	0	0	-1	200
23704675	6530	298	0	-100	0	230	101300000	1000	0	0	-1	200
23717235	6532	299	0	-100	0	230	101300000	1000	0	0	-1	200
23729795	6531	303	0	-100	0	230	101300000	1000	0	0	-1	200
23742355	6528	308	0	-100	0	230	101300000	1000	0	0	-1	200
23754915	6526	299	0	-100	0	230	101300000	1000	0	0	-1	200
23767475	6531	301	0	-100	0	230	101300000	1000	0	0	-1	200
23780035	6527	307	0	-100	0	230	101300000	1000	0	0	-1	200
23792595	6535	299	0	-100	0	230	101300000	1000	0	0	-1	200
23805155	6525	302	0	-100	0	230	101300000	1000	0	0	-1	200
23817715	6521	306	0	-100	0	230	101300000	1000	0	0	-1	200
23830275	6525	298	0	-100	0	230	101300000	1000	0	0	-1	200
23842835	6526	303	0	-100	0	230	101300000	1000	0	0	-1	200
23855395	6522	304	0	-100	0	230	101300000	1000	0	0	-1	200
23867955	6531	299	0	-100	0	230	101300000	1000	0	0	-1	200
23880515	6526	304	0	-100	0	230	101300000	1000	0	0	-1	200
23893075	6531	296	0	-100	0	230	101300000	1000	0	0	-1	200
23905635	6522	305	0	-100	0	230	101300000	1000	0	0	-1	200
23918195	6522	299	0	-100	0	230	101300000	1000	0	0	-1	200
23930755	6528	303	0	-100	0	230	101300000	1000	0	0	-1	200
23943315	6529	299	0	-100	0	230	101300000	1000	0	0	-1	200
23955875	6531	302	0	-100	0	230	101300000	1000	0	0	-1	200
23968435	6525	300	0	-100	0	230	101300000	1000	0	0	-1	200
23980995	6537	308	0	-100	0	230	101300000	1000	0	0	-1	200
23993555	6526	304	0	-100	0	230	101300000	1000	0	0	-1	200
24006115	6528	298	0	-100	0	230	101300000	1000	0	0	-1	200
24018675	6522	306	0	-100	0	230	101300000	1000	0	0	-1	200
24031235	6530	299	0	-100	0	230	101300000	1000	0	0	-1	200
24043795	6528	304	0	-100	0	230	101300000	1000	0	0	-1	200
24056355	6528	299	0	-100	0	230	101300000	1000	0	0	-1	200
24068915	6533	300	0	-100	0	230	101300000	1000	0	0	-1	200
24081475	6525	304	0	-100	0	230	101300000	1000	0	0	-1	200
24094035	6530	298	0	-100	0	230	101300000	1000	0	0	-1	200
24106595	6524	307	0	-100	0	230	101300000	1000	0	0	-1	200
24119155	6524	300	0	-100	0	230	101300000	1000	0	0	-1	200
24131715	6529	300	0	-100	0	230	101300000	1000	0	0	-1	200
24144275	6524	306	0	-100	0	230	101300000	1000	0	0	-1	200
24156835	6522	298	0	-100	0	230	101300000	1000	0	0	-1	200
24169395	6531	301	0	-100	0	230	101300000	1000	0	0	-1	200
24181955	6520	301	0	-100	0	230	101300000	1000	0	0	-1	200
24194515	6529	302	0	-100	0	230	101300000	1000	0	0	-1	200
24207075	6523	303	0	-100	0	230	101300000	1000	0	0	-1	200
24219635	6534	297	0	-100	0	230	101300000	1000	0	0	-1	200
24232195	6523	307	0	-100	0	230	101300000	1000	0	0	-1	200
24244755	6525	299	0	-100	0	230	101300000	1000	0	0	-1	200
24257315	6526	303	0	-100	0	230	101300000	1000	0	0	-1	200
24269875	6521	304	0	-100	0	230	101300000	1000	0	0	-1	200
24282435	6530	299	0	-100	0	230	101300000	1000	0	0	-1	200
24294995	6526	300	0	-100	0	230	101300000	1000	0	0	-1	200
24307555	6526	301	0	-100	0	230	101300000	1000	0	0	-1	200
24320115	6524	303	0	-100	0	230	101300000	1000	0	0	-1	200
24332675	6522	300	0	-100	0	230	101300000	1000	0	0	-1	200
24345235	6531	300	0	-100	0	230	101300000	1000	0	0	-1	200
24357795	6521	305	0	-100	0	230	101300000	1000	0	0	-1	200
24370355	6530	298	0	-100	0	230	101300000	1000	0	0	-1	200
24382915	6528	306	0	-100	0	230	101300000	1000	0	0	-1	200
24395475	6533	298	0	-100	0	230	101300000	1000	0	0	-1	200
24408035	6527	302	0	-100	0	230	101300000	1000	0	0	-1	200
24420595	6522	303	0	-100	0	230	101300000	1000	0	0	-1	200
24433155	6534	300	0	-100	0	230	101300000	1000	0	0	-1	200
24445715	6527	302	0	-100	0	230	101300000	1000	0	0	-1	200
24458275	6530	298	0	-100	0	230	101300000	1000	0	0	-1	200
24470835	6522	304	0	-100	0	230	101300000	1000	0	0	-1	200
24483395	6520	302	0	-100	0	230	101300000	1000	0	0	-1	200
24495955	6529	299	0	-100	0	230	101300000	1000	0	0	-1	200
24508515	6532	304	0	-100	0	230	101300000	1000	0	0	-1	200
24521075	6521	304	0	-100	0	230	101300000	1000	0	0	-1	200
24533635	6530	298	0	-100	0	230	101300000	1000	0	0	-1	200
24546195	6533	300	0	-100	0	230	101300000	1000	0	0	-1	200
24558755	6526	307	0	-100	0	230	101300000	1000	0	0	-1	200
24571315	6532	301	0	-100	0	230	101300000	1000	0	0	-1	200
24583875	6530	303	0	-100	0	230	101300000	1000	0	0	-1	200
24596435	6519	306	0	-100	0	230	101300000	1000	0	0	-1	200
24608995	6517	298	0	-100	0	230	101300000	1000	0	0	-1	200
24621555	6525	298	0	-100	0	230	101300000	1000	0	0	-1	200
24634115	6527	299	0	-100	0	230	101300000	1000	0	0	-1	200
24646675	6517	305	0	-100	0	230	101300000	1000	0	0	-1	200
24659235	6522	307	0	-100	0	230	101300000	1000	0	0	-1	200
24671795	6526	299	0	-100	0	230	101300000	1000	0	0	-1	200
24684355	6535	299	0	-100	0	230	101300000	1000	0	0	-1	200
24696915	6528	307	0	-100	0	230	101300000	1000	0	0	-1	200
24709475	6522	300	0	-100	0	230	101300000	1000	0	0	-1	200
24722035	6534	301	0	-100	0	230	101300000	1000	0	0	-1	200
24734595	6529	308	0	-100	0	230	101300000	1000	0	0	-1	200
24747155	6531	299	0	-100	0	230	101300000	1000	0	0	-1	200
24759715	6524	303	0	-100	0	230	101300000	1000	0	0	-1	200
24772275	6527	299	0	-100	0	230	101300000	1000	0	0	-1	200
24784835	6538	299	0	-100	0	230	101300000	1000	0	0	-1	200
24797395	6530	308	0	-100	0	230	101300000	1000	0	0	-1	200
24809955	6526	299	0	-100	0	230	101300000	1000	0	0	-1	200
24822515	6528	302	0	-100	0	230	101300000	1000	0	0	-1	200
24835075	6531	303	0	-100	0	230	101300000	1000	0	0	-1	200
24847635	6530	300	0	-100	0	230	101300000	1000	0	0	-1	200
24860195	6526	305	0	-100	0	230	101300000	1000	0	0	-1	200
24872755	6536	300	0	-100	0	230	101300000	1000	0	0	-1	200
24885315	6521	304	0	-100	0	230	101300000	1000	0	0	-1	200
24897875	6534	301	0	-100	0	230	101300000	1000	0	0	-1	200
24910435	6521	303	0	-100	0	230	101300000	1000	0	0	-1	200
24922995	6527	307	0	-100	0	230	101300000	1000	0	0	-1	200
24935555	6526	309	0	-100	0	230	101300000	1000	0	0	-1	200
24948115	6525	298	0	-100	0	230	101300000	1000	0	0	-1	200
24960675	6528	308	0	-100	0	230	101300000	1000	0	0	-1	200
24973235	6527	298	0	-100	0	230	101300000	1000	0	0	-1	200
24985795	6519	306	0	-100	0	230	101300000	1000	0	0	-1	200
24998355	6524	299	0	-100	0	230	101300000	1000	0	0	-1	200
25010915	6522	303	0	-100	0	230	101300000	1000	0	0	-1	200
25023475	6529	299	0	-100	0	230	101300000	1000	0	0	-1	200
25036035	6530	300	0	-100	0	230	101300000	1000	0	0	-1	200
25048595	6525	302	0	-100	0	230	101300000	1000	0	0	-1	200
25061155	6532	301	0	-100	0	230	101300000	1000	0	0	-1	200
25073715	6526	307	0	-100	0	230	101300000	1000	0	0	-1	200
25086275	6523	300	0	-100	0	230	101300000	1000	0	0	-1	200
25098835	6529	301	0	-100	0	230	101300000	1000	0	0	-1	200
25111395	6522	305	0	-100	0	230	101300000	1000	0	0	-1	200
25123955	6529	301	0	-100	0	230	101300000	1000	0	0	-1	200
25136515	6534	302	0	-100	0	230	101300000	1000	0	0	-1	200
25149075	6525	308	0	-100	0	230	101300000	1000	0	0	-1	200
25161635	6525	310	0	-100	0	230	101300000	1000	0	0	-1	200
25174195	6526	302	0	-100	0	230	101300000	1000	0	0	-1	200
25186755	6528	304	0	-100	0	230	101300000	1000	0	0	-1	200
25199315	6532	299	0	-100	0	230	101300000	1000	0	0	-1	200
25211875	6530	308	0	-100	0	230	101300000	1000	0	0	-1	200
25224435	6525	298	0	-100	0	230	101300000	1000	0	0	-1	200
25236995	6528	305	0	-100	0	230	101300000	1000	0	0	-1	200
25249555	6523	304	0	-100	0	230	101300000	1000	0	0	-1	200
25262115	6532	296	0	-100	0	230	101300000	1000	0	0	-1	200
25274675	6526	305	0	-100	0	230	101300000	1000	0	0	-1	200
25287235	6527	299	0	-100	0	230	101300000	1000	0	0	-1	200
25299795	6533	300	0	-100	0	230	101300000	1000	0	0	-1	200
25312355	6528	304	0	-100	0	230	101300000	1000	0	0	-1	200
25324915	6523	304	0	-100	0	230	101300000	1000	0	0	-1	200
25337475	6530	299	0	-100	0	230	101300000	1000	0	0	-1	200
25350035	6527	299	0	-100	0	230	101300000	1000	0	0	-1	200
25362595	6523	310	0	-100	0	230	101300000	1000	0	0	-1	200
25375155	6525	298	0	-100	0	230	101300000	1000	0	0	-1	200
25387715	6533	299	0	-100	0	230	101300000	1000	0	0	-1	200
25400275	6520	307	0	-100	0	230	101300000	1000	0	0	-1	200
25412835	6524	299	0	-100	0	230	101300000	1000	0	0	-1	200
25425395	6525	295	0	-100	0	230	101300000	1000	0	0	-1	200
25437955	6522	305	0	-100	0	230	101300000	1000	0	0	-1	200
25450515	6516	302	0	-100	0	230	101300000	1000	0	0	-1	200
25463075	6527	301	0	-100	0	230	101300000	1000	0	0	-1	200
25475635	6531	303	0	-100	0	230	101300000	1000	0	0	-1	200
25488195	6525	304	0	-100	0	230	101300000	1000	0	0	-1	200
25500755	6530	298	0	-100	0	230	101300000	1000	0	0	-1	200
25513315	6526	306	0	-100	0	230	101300000	1000	0	0	-1	200
25525875	6526	299	0	-100	0	230	101300000	1000	0	0	-1	200
25538435	6528	301	0	-100	0	230	101300000	1000	0	0	-1	200
25550995	6525	300	0	-100	0	230	101300000	1000	0	0	-1	200
25563555	6525	298	0	-100	0	230	101300000	1000	0	0	-1	200
25576115	6529	299	0	-100	0	230	101300000	1000	0	0	-1	200
25588675	6522	306	0	-100	0	230	101300000	1000	0	0	-1	200
25601235	6531	300	0	-100	0	230	101300000	1000	0	0	-1	200
25613795	6526	302	0	-100	0	230	101300000	1000	0	0	-1	200
25626355	6525	308	0	-100	0	230	101300000	1000	0	0	-1	200
25638915	6522	298	0	-100	0	230	101300000	1000	0	0	-1	200
25651475	6536	300	0	-100	0	230	101300000	1000	0	0	-1	200
25664035	6534	300	0	-100	0	230	101300000	1000	0	0	-1	200
25676595	6525	302	0	-100	0	230	101300000	1000	0	0	-1	200
25689155	6524	307	0	-100	0	230	101300000	1000	0	0	-1	200
25701715	6525	300	0	-100	0	230	101300000	1000	0	0	-1	200
25714275	6525	298	0	-100	0	230	101300000	1000	0	0	-1	200
25726835	6522	303	0	-100	0	230	101300000	1000	0	0	-1	200
25739395	6525	304	0	-100	0	230	101300000	1000	0	0	-1	200
25751955	6531	301	0	-100	0	230	101300000	1000	0	0	-1	200
25764515	6532	300	0	-100	0	230	101300000	1000	0	0	-1	200
25777075	6531	306	0	-100	0	230	101300000	1000	0	0	-1	200
25789635	6526	303	0	-100	0	230	101300000	1000	0	0	-1	200
25802195	6530	297	0	-100	0	230	101300000	1000	0	0	-1	200
25814755	6525	304	0	-100	0	230	101300000	1000	0	0	-1	200
25827315	6523	307	0	-100	0	230	101300000	1000	0	0	-1	200
25839875	6527	300	0	-100	0	230	101300000	1000	0	0	-1	200
25852435	6530	300	0	-100	0	230	101300000	1000	0	0	-1	200
25864995	6526	299	0	-100	0	230	101300000	1000	0	0	-1	200
25877555	6531	300	0	-100	0	230	101300000	1000	0	0	-1	200
25890115	6530	298	0	-100	0	230	101300000	1000	0	0	-1	200
25902675	6523	305	0	-100	0	230	101300000	1000	0	0	-1	200
25915235	6518	302	0	-100	0	230	101300000	1000	0	0	-1	200
25927795	6526	299	0	-100	0	230	101300000	1000	0	0	-1	200
25940355	6530	304	0	-100	0	230	101300000	1000	0	0	-1	200
25952915	6527	302	0	-100	0	230	101300000	1000	0	0	-1	200
25965475	6530	298	0	-100	0	230	101300000	1000	0	0	-1	200
25978035	6531	300	0	-100	0	230	101300000	1000	0	0	-1	200
25990595	6526	307	0	-100	0	230	101300000	1000	0	0	-1	200
26003155	6526	299	0	-100	0	230	101300000	1000	0	0	-1	200
26015715	6531	299	0	-100	0	230	101300000	1000	0	0	-1	200
26028275	6528	303	0	-100	0	230	101300000	1000	0	0	-1	200
26040835	6522	307	0	-100	0	230	101300000	1000	0	0	-1	200
26053395	6525	300	0	-100	0	230	101300000	1000	0	0	-1	200
26065955	6528	298	0	-100	0	230	101300000	1000	0	0	-1	200
26078515	6526	304	0	-100	0	230	101300000	1000	0	0	-1	200
26091075	6522	298	0	-100	0	230	101300000	1000	0	0	-1	200
26103635	6525	302	0	-100	0	230	101300000	1000	0	0	-1	200
26116195	6522	302	0	-100	0	230	101300000	1000	0	0	-1	200
26128755	6530	300	0	-100	0	230	101300000	1000	0	0	-1	200
26141315	6528	306	0	-100	0	230	101300000	1000	0	0	-1	200
26153875	6529	299	0	-100	0	230	101300000	1000	0	0	-1	200
26166435	6530	298	0	-100	0	230	101300000	1000	0	0	-1	200
26178995	6517	305	0	-100	0	230	101300000	1000	0	0	-1	200
26191555	6523	303	0	-100	0	230	101300000	1000	0	0	-1	200
26229235	6528	306	0	-100	0	230	101300000	1000	0	0	-1	200
26241795	6528	307	0	-100	0	230	101300000	1000	0	0	-1	200
26254355	6521	300	0	-100	0	230	101300000	1000	0	0	-1	200
26266915	6526	301	0	-100	0	230	101300000	1000	0	0	-1	200
26279475	6529	299	0	-100	0	230	101300000	1000	0	0	-1	200
26292035	6523	303	0	-100	0	230	101300000	1000	0	0	-1	200
26304595	6520	307	0	-100	0	230	101300000	1000	0	0	-1	200
26317155	6520	300	0	-100	0	230	101300000	1000	0	0	-1	200
26329715	6525	297	0	-100	0	230	101300000	1000	0	0	-1	200
26342275	6524	302	0	-100	0	230	101300000	1000	0	0	-1	200
26354835	6524	305	0	-100	0	230	101300000	1000	0	0	-1	200
26367395	6528	301	0	-100	0	230	101300000	1000	0	0	-1	200
26442755	6531	300	0	-100	0	230	101300000	1000	0	0	-1	200
26455315	6520	303	0	-100	0	230	101300000	1000	0	0	-1	200
26467875	6521	304	0	-100	0	230	101300000	1000	0	0	-1	200
26480435	6524	299	0	-100	0	230	101300000	1000	0	0	-1	200
26492995	6528	307	0	-100	0	230	101300000	1000	0	0	-1	200
26505555	6518	306	0	-100	0	230	101300000	1000	0	0	-1	200
26518115	6521	308	0	-100	0	230	101300000	1000	0	0	-1	200
26530675	6526	303	0	-100	0	230	101300000	1000	0	0	-1	200
26543235	6528	300	0	-100	0	230	101300000	1000	0	0	-1	200
26555795	6533	302	0	-100	0	230	101300000	1000	0	0	-1	200
26568355	6526	304	0	-100	0	230	101300000	1000	0	0	-1	200
26593475	6528	300	0	-100	0	230	101300000	1000	0	0	-1	200
26606035	6528	303	0	-100	0	230	101300000	1000	0	0	-1	200
26618595	6522	299	0	-100	0	230	101300000	1000	0	0	-1	200
26631155	6523	301	0	-100	0	230	101300000	1000	0	0	-1	200
26643715	6524	303	0	-100	0	230	101300000	1000	0	0	-1	200
26656275	6535	300	0	-100	0	230	101300000	1000	0	0	-1	200
26668835	6528	300	0	-100	0	230	101300000	1000	0	0	-1	200
26681395	6533	299	0	-100	0	230	101300000	1000	0	0	-1	200
26693955	6527	305	0	-100	0	230	101300000	1000	0	0	-1	200
26706515	6534	298	0	-100	0	230	101300000	1000	0	0	-1	200
26719075	6528	308	0	-100	0	230	101300000	1000	0	0	-1	200
26731635	6529	299	0	-100	0	230	101300000	1000	0	0	-1	200
26744195	6522	303	0	-100	0	230	101300000	1000	0	0	-1	200
26756755	6523	302	0	-100	0	230	101300000	1000	0	0	-1	200
26769315	6528	297	0	-100	0	230	101300000	1000	0	0	-1	200
26781875	6528	303	0	-100	0	230	101300000	1000	0	0	-1	200
26794435	6519	307	0	-100	0	230	101300000	1000	0	0	-1	200
26806995	6527	302	0	-100	0	230	101300000	1000	0	0	-1	200
26819555	6534	301	0	-100	0	230	101300000	1000	0	0	-1	200
26832115	6528	304	0	-100	0	230	101300000	1000	0	0	-1	200
26844675	6526	305	0	-100	0	230	101300000	1000	0	0	-1	200
26857235	6526	298	0	-100	0	230	101300000	1000	0	0	-1	200
26869795	6538	301	0	-100	0	230	101300000	1000	0	0	-1	200
26882355	6524	305	0	-100	0	230	101300000	1000	0	0	-1	200
26894915	6519	302	0	-100	0	230	101300000	1000	0	0	-1	200
26907475	6532	298	0	-100	0	230	101300000	1000	0	0	-1	200
26920035	6528	305	0	-100	0	230	101300000	1000	0	0	-1	200
26932595	6531	300	0	-100	0	230	101300000	1000	0	0	-1	200
26945155	6529	301	0	-100	0	230	101300000	1000	0	0	-1	200
26957715	6524	306	0	-100	0	230	101300000	1000	0	0	-1	200
26970275	6525	302	0	-100	0	230	101300000	1000	0	0	-1	200
26982835	6534	299	0	-100	0	230	101300000	1000	0	0	-1	200
26995395	6529	301	0	-100	0	230	101300000	1000	0	0	-1	200
27007955	6526	308	0	-100	0	230	101300000	1000	0	0	-1	200
27020515	6525	299	0	-100	0	230	101300000	1000	0	0	-1	200
27033075	6530	299	0	-100	0	230	101300000	1000	0	0	-1	200
27045635	6522	307	0	-100	0	230	101300000	1000	0	0	-1	200
27058195	6524	299	0	-100	0	230	101300000	1000	0	0	-1	200
27070755	6532	298	0	-100	0	230	101300000	1000	0	0	-1	200
27083315	6524	304	0	-100	0	230	101300000	1000	0	0	-1	200
27095875	6520	303	0	-100	0	230	101300000	1000	0	0	-1	200
27108435	6531	297	0	-100	0	230	101300000	1000	0	0	-1	200
27120995	6524	304	0	-100	0	230	101300000	1000	0	0	-1	200
27133555	6522	304	0	-100	0	230	101300000	1000	0	0	-1	200
27146115	6531	299	0	-100	0	230	101300000	1000	0	0	-1	200
27158675	6536	299	0	-100	0	230	101300000	1000	0	0	-1	200
27171235	6522	302	0	-100	0	230	101300000	1000	0	0	-1	200
27183795	6526	306	0	-100	0	230	101300000	1000	0	0	-1	200
27196355	6526	307	0	-100	0	230	101300000	1000	0	0	-1	200
27208915	6521	305	0	-100	0	230	101300000	1000	0	0	-1	200
27221475	6527	301	0	-100	0	230	101300000	1000	0	0	-1	200
27234035	6527	298	0	-100	0	230	101300000	1000	0	0	-1	200
27246595	6534	302	0	-100	0	230	101300000	1000	0	0	-1	200
27259155	6524	304	0	-100	0	230	101300000	1000	0	0	-1	200
27271715	6523	305	0	-100	0	230	101300000	1000	0	0	-1	200
27284275	6526	306	0	-100	0	230	101300000	1000	0	0	-1	200
27296835	6526	309	0	-100	0	230	101300000	1000	0	0	-1	200
27309395	6521	304	0	-100	0	230	101300000	1000	0	0	-1	200
27321955	6527	301	0	-100	0	230	101300000	1000	0	0	-1	200
27334515	6525	298	0	-100	0	230	101300000	1000	0	0	-1	200
27347075	6533	299	0	-100	0	230	101300000	1000	0	0	-1	200
27359635	6528	308	0	-100	0	230	101300000	1000	0	0	-1	200
27372195	6521	306	0	-100	0	230	101300000	1000	0	0	-1	200
27384755	6525	298	0	-100	0	230	101300000	1000	0	0	-1	200
27397315	6531	297	0	-100	0	230	101300000	1000	0	0	-1	200
27409875	6524	303	0	-100	0	230	101300000	1000	0	0	-1	200
27422435	6520	307	0	-100	0	230	101300000	1000	0	0	-1	200
27434995	6526	301	0	-100	0	230	101300000	1000	0	0	-1	200
27447555	6531	300	0	-100	0	230	101300000	1000	0	0	-1	200
27460115	6529	300	0	-100	0	230	101300000	1000	0	0	-1	200
27472675	6526	307	0	-100	0	230	101300000	1000	0	0	-1	200
27485235	6529	300	0	-100	0	230	101300000	1000	0	0	-1	200
27497795	6530	299	0	-100	0	230	101300000	1000	0	0	-1	200
27510355	6536	299	0	-100	0	230	101300000	1000	0	0	-1	200
27522915	6522	307	0	-100	0	230	101300000	1000	0	0	-1	200
27535475	6523	307	0	-100	0	230	101300000	1000	0	0	-1	200
27548035	6521	300	0	-100	0	230	101300000	1000	0	0	-1	200
27560595	6527	297	0	-100	0	230	101300000	1000	0	0	-1	200
27573155	6522	305	0	-100	0	230	101300000	1000	0	0	-1	200
27585715	6521	304	0	-100	0	230	101300000	1000	0	0	-1	200
27598275	6526	301	0	-100	0	230	101300000	1000	0	0	-1	200
27610835	6533	299	0	-100	0	230	101300000	1000	0	0	-1	200
27623395	6522	306	0	-100	0	230	101300000	1000	0	0	-1	200
27635955	6525	307	0	-100	0	230	101300000	1000	0	0	-1	200
27648515	6525	302	0	-100	0	230	101300000	1000	0	0	-1	200
27661075	6528	299	0	-100	0	230	101300000	1000	0	0	-1	200
27673635	6522	305	0	-100	0	230	101300000	1000	0	0	-1	200
27686195	6518	302	0	-100	0	230	101300000	1000	0	0	-1	200
27698755	6526	298	0	-100	0	230	101300000	1000	0	0	-1	200
27711315	6526	305	0	-100	0	230	101300000	1000	0	0	-1	200
27723875	6524	305	0	-100	0	230	101300000	1000	0	0	-1	200
27736435	6531	299	0	-100	0	230	101300000	1000	0	0	-1	200
27748995	6532	304	0	-100	0	230	101300000	1000	0	0	-1	200
27761555	6528	307	0	-100	0	230	101300000	1000	0	0	-1	200
27774115	6531	298	0	-100	0	230	101300000	1000	0	0	-1	200
27786675	6529	302	0	-100	0	230	101300000	1000	0	0	-1	200
27799235	6523	304	0	-100	0	230	101300000	1000	0	0	-1	200
27811795	6527	298	0	-100	0	230	101300000	1000	0	0	-1	200
27824355	6522	303	0	-100	0	230	101300000	1000	0	0	-1	200
27836915	6522	303	0	-100	0	230	101300000	1000	0	0	-1	200
27849475	6529	298	0	-100	0	230	101300000	1000	0	0	-1	200
27862035	6524	306	0	-100	0	230	101300000	1000	0	0	-1	200
27874595	6526	299	0	-100	0	230	101300000	1000	0	0	-1	200
27887155	6524	302	0	-100	0	230	101300000	1000	0	0	-1	200
27899715	6525	302	0	-100	0	230	101300000	1000	0	0	-1	200
27912275	6532	300	0	-100	0	230	101300000	1000	0	0	-1	200
27924835	6524	305	0	-100	0	230	101300000	1000	0	0	-1	200
27937395	6529	299	0	-100	0	230	101300000	1000	0	0	-1	200
27949955	6522	306	0	-100	0	230	101300000	1000	0	0	-1	200
27962515	6525	299	0	-100	0	230	101300000	1000	0	0	-1	200
27975075	6528	297	0	-100	0	230	101300000	1000	0	0	-1	200
27987635	6523	303	0	-100	0	230	101300000	1000	0	0	-1	200
28000195	6520	302	0	-100	0	230	101300000	1000	0	0	-1	200
28012755	6525	301	0	-100	0	230	101300000	1000	0	0	-1	200
28025315	6522	302	0	-100	0	230	101300000	1000	0	0	-1	200
28037875	6518	304	0	-100	0	230	101300000	1000	0	0	-1	200
28050435	6524	302	0	-100	0	230	101300000	1000	0	0	-1	200
28062995	6524	299	0	-100	0	230	101300000	1000	0	0	-1	200
28075555	6531	300	0	-100	0	230	101300000	1000	0	0	-1	200
28088115	6531	307	0	-100	0	230	101300000	1000	0	0	-1	200
28100675	6531	301	0	-100	0	230	101300000	1000	0	0	-1	200
28113235	6522	305	0	-100	0	230	101300000	1000	0	0	-1	200
28125795	6521	305	0	-100	0	230	101300000	1000	0	0	-1	200
28138355	6528	300	0	-100	0	230	101300000	1000	0	0	-1	200
28150915	6526	299	0	-100	0	230	101300000	1000	0	0	-1	200
28163475	6526	306	0	-100	0	230	101300000	1000	0	0	-1	200
28176035	6520	302	0	-100	0	230	101300000	1000	0	0	-1	200
28188595	6528	299	0	-100	0	230	101300000	1000	0	0	-1	200
28201155	6529	299	0	-100	0	230	101300000	1000	0	0	-1	200
28213715	6525	302	0	-100	0	230	101300000	1000	0	0	-1	200
28226275	6524	307	0	-100	0	230	101300000	1000	0	0	-1	200
28238835	6525	300	0	-100	0	230	101300000	1000	0	0	-1	200
28251395	6530	300	0	-100	0	230	101300000	1000	0	0	-1	200
28263955	6526	303	0	-100	0	230	101300000	1000	0	0	-1	200
28276515	6526	308	0	-100	0	230	101300000	1000	0	0	-1	200
28289075	6520	300	0	-100	0	230	101300000	1000	0	0	-1	200
28301635	6525	299	0	-100	0	230	101300000	1000	0	0	-1	200
28314195	6527	299	0	-100	0	230	101300000	1000	0	0	-1	200
28326755	6526	303	0	-100	0	230	101300000	1000	0	0	-1	200
28339315	6526	308	0	-100	0	230	101300000	1000	0	0	-1	200
28351875	6526	300	0	-100	0	230	101300000	1000	0	0	-1	200
28364435	6528	300	0	-100	0	230	101300000	1000	0	0	-1	200
28376995	6531	307	0	-100	0	230	101300000	1000	0	0	-1	200
28389555	6528	306	0	-100	0	230	101300000	1000	0	0	-1	200
28402115	6525	298	0	-100	0	230	101300000	1000	0	0	-1	200
28414675	6530	302	0	-100	0	230	101300000	1000	0	0	-1	200
28427235	6531	306	0	-100	0	230	101300000	1000	0	0	-1	200
28439795	6527	304	0	-100	0	230	101300000	1000	0	0	-1	200
28452355	6522	300	0	-100	0	230	101300000	1000	0	0	-1	200
28464915	6525	307	0	-100	0	230	101300000	1000	0	0	-1	200
28477475	6531	298	0	-100	0	230	101300000	1000	0	0	-1	200
28490035	6525	300	0	-100	0	230	101300000	1000	0	0	-1	200
28502595	6528	305	0	-100	0	230	101300000	1000	0	0	-1	200
28515155	6526	307	0	-100	0	230	101300000	1000	0	0	-1	200
28527715	6518	303	0	-100	0	230	101300000	1000	0	0	-1	200
28540275	6530	300	0	-100	0	230	101300000	1000	0	0	-1	200
28552835	6527	302	0	-100	0	230	101300000	1000	0	0	-1	200
28565395	6526	307	0	-100	0	230	101300000	1000	0	0	-1	200
28577955	6519	303	0	-100	0	230	101300000	1000	0	0	-1	200
28590515	6527	300	0	-100	0	230	101300000	1000	0	0	-1	200
28603075	6527	301	0	-100	0	230	101300000	1000	0	0	-1	200
28615635	6520	303	0	-100	0	230	101300000	1000	0	0	-1	200
28628195	6526	307	0	-100	0	230	101300000	1000	0	0	-1	200
28640755	6522	301	0	-100	0	230	101300000	1000	0	0	-1	200
28653315	6530	299	0	-100	0	230	101300000	1000	0	0	-1	200
28665875	6522	307	0	-100	0	230	101300000	1000	0	0	-1	200
28678435	6526	299	0	-100	0	230	101300000	1000	0	0	-1	200
28690995	6531	309	0	-100	0	230	101300000	1000	0	0	-1	200
28703555	6524	309	0	-100	0	230	101300000	1000	0	0	-1	200
28716115	6525	298	0	-100	0	230	101300000	1000	0	0	-1	200
28728675	6526	302	0	-100	0	230	101300000	1000	0	0	-1	200
28741235	6518	301	0	-100	0	230	101300000	1000	0	0	-1	200
28753795	6531	299	0	-100	0	230	101300000	1000	0	0	-1	200
28766355	6522	303	0	-100	0	230	101300000	1000	0	0	-1	200
28778915	6531	297	0	-100	0	230	101300000	1000	0	0	-1	200
28791475	6524	307	0	-100	0	230	101300000	1000	0	0	-1	200
28804035	6525	298	0	-100	0	230	101300000	1000	0	0	-1	200
28816595	6526	303	0	-100	0	230	101300000	1000	0	0	-1	200
28829155	6522	300	0	-100	0	230	101300000	1000	0	0	-1	200
28841715	6526	296	0	-100	0	230	101300000	1000	0	0	-1	200
28854275	6523	304	0	-100	0	230	101300000	1000	0	0	-1	200
28866835	6519	304	0	-100	0	230	101300000	1000	0	0	-1	200
28879395	6525	299	0	-100	0	230	101300000	1000	0	0	-1	200
28891955	6527	297	0	-100	0	230	101300000	1000	0	0	-1	200
28904515	6520	305	0	-100	0	230	101300000	1000	0	0	-1	200
28917075	6523	307	0	-100	0	230	101300000	1000	0	0	-1	200
28929635	6522	301	0	-100	0	230	101300000	1000	0	0	-1	200
28942195	6527	300	0	-100	0	230	101300000	1000	0	0	-1	200
28954755	6533	299	0	-100	0	230	101300000	1000	0	0	-1	200
28967315	6528	305	0	-100	0	230	101300000	1000	0	0	-1	200
28979875	6520	302	0	-100	0	230	101300000	1000	0	0	-1	200
28992435	6524	300	0	-100	0	230	101300000	1000	0	0	-1	200
29004995	6525	302	0	-100	0	230	101300000	1000	0	0	-1	200
29017555	6528	298	0	-100	0	230	101300000	1000	0	0	-1	200
29030115	6537	301	0	-100	0	230	101300000	1000	0	0	-1	200
29042675	6528	299	0	-100	0	230	101300000	1000	0	0	-1	200
29055235	6522	302	0	-100	0	230	101300000	1000	0	0	-1	200
29067795	6520	304	0	-100	0	230	101300000	1000	0	0	-1	200
29080355	6522	306	0	-100	0	230	101300000	1000	0	0	-1	200
29092915	6523	307	0	-100	0	230	101300000	1000	0	0	-1	200
29105475	6520	308	0	-100	0	230	101300000	1000	0	0	-1	200
29143155	6525	298	0	-100	0	230	101300000	1000	0	0	-1	200
29155715	6526	300	0	-100	0	230	101300000	1000	0	0	-1	200
29168275	6528	305	0	-100	0	230	101300000	1000	0	0	-1	200
29180835	6525	308	0	-100	0	230	101300000	1000	0	0	-1	200
29193395	6523	300	0	-100	0	230	101300000	1000	0	0	-1	200
29205955	6528	301	0	-100	0	230	101300000	1000	0	0	-1	200
29218515	6531	296	0	-100	0	230	101300000	1000	0	0	-1	200
29231075	6534	299	0	-100	0	230	101300000	1000	0	0	-1	200
29243635	6524	303	0	-100	0	230	101300000	1000	0	0	-1	200
29256195	6523	302	0	-100	0	230	101300000	1000	0	0	-1	200
29268755	6528	306	0	-100	0	230	101300000	1000	0	0	-1	200
29344115	6521	302	0	-100	0	230	101300000	1000	0	0	-1	200
29356675	6524	299	0	-100	0	230	101300000	1000	0	0	-1	200
29369235	6527	298	0	-100	0	230	101300000	1000	0	0	-1	200
29381795	6528	298	0	-100	0	230	101300000	1000	0	0	-1	200
29394355	6525	303	0	-100	0	230	101300000	1000	0	0	-1	200
29406915	6528	306	0	-100	0	230	101300000	1000	0	0	-1	200
29419475	6524	304	0	-100	0	230	101300000	1000	0	0	-1	200
29432035	6521	299	0	-100	0	230	101300000	1000	0	0	-1	200
29444595	6529	300	0	-100	0	230	101300000	1000	0	0	-1	200
29457155	6528	302	0	-100	0	230	101300000	1000	0	0	-1	200
29469715	6520	307	0	-100	0	230	101300000	1000	0	0	-1	200
29532515	6522	307	0	-100	0	230	101300000	1000	0	0	-1	200
29545075	6520	304	0	-100	0	230	101300000	1000	0	0	-1	200
29557635	6520	299	0	-100	0	230	101300000	1000	0	0	-1	200
29570195	6531	299	0	-100	0	230	101300000	1000	0	0	-1	200
29582755	6526	298	0	-100	0	230	101300000	1000	0	0	-1	200
29595315	6526	301	0	-100	0	230	101300000	1000	0	0	-1	200
29607875	6533	299	0	-100	0	230	101300000	1000	0	0	-1	200
29620435	6524	305	0	-100	0	230	101300000	1000	0	0	-1	200
29632995	6523	300	0	-100	0	230	101300000	1000	0	0	-1	200
29645555	6522	304	0	-100	0	230	101300000	1000	0	0	-1	200
29658115	6524	299	0	-100	0	230	101300000	1000	0	0	-1	200
29670675	6525	299	0	-100	0	230	101300000	1000	0	0	-1	200
29683235	6527	299	0	-100	0	230	101300000	1000	0	0	-1	200
29695795	6522	304	0	-100	0	230	101300000	1000	0	0	-1	200
29708355	6522	304	0	-100	0	230	101300000	1000	0	0	-1	200
29720915	6522	298	0	-100	0	230	101300000	1000	0	0	-1	200
29733475	6530	299	0	-100	0	230	101300000	1000	0	0	-1	200
29746035	6524	303	0	-100	0	230	101300000	1000	0	0	-1	200
29758595	6521	308	0	-100	0	230	101300000	1000	0	0	-1	200
29771155	6521	300	0	-100	0	230	101300000	1000	0	0	-1	200
29783715	6529	297	0	-100	0	230	101300000	1000	0	0	-1	200
29796275	6521	303	0	-100	0	230	101300000	1000	0	0	-1	200
29808835	6526	307	0	-100	0	230	101300000	1000	0	0	-1	200
29821395	6523	302	0	-100	0	230	101300000	1000	0	0	-1	200
29833955	6525	298	0	-100	0	230	101300000	1000	0	0	-1	200
29846515	6531	298	0	-100	0	230	101300000	1000	0	0	-1	200
29859075	6526	300	0	-100	0	230	101300000	1000	0	0	-1	200
29871635	6519	304	0	-100	0	230	101300000	1000	0	0	-1	200
29884195	6522	307	0	-100	0	230	101300000	1000	0	0	-1	200
29896755	6522	300	0	-100	0	230	101300000	1000	0	0	-1	200
29909315	6529	299	0	-100	0	230	101300000	1000	0	0	-1	200
29921875	6527	302	0	-100	0	230	101300000	1000	0	0	-1	200
29934435	6528	307	0	-100	0	230	101300000	1000	0	0	-1	200
29946995	6525	300	0	-100	0	230	101300000	1000	0	0	-1	200
29959555	6529	299	0	-100	0	230	101300000	1000	0	0	-1	200
29972115	6528	297	0	-100	0	230	101300000	1000	0	0	-1	200
29984675	6529	299	0	-100	0	230	101300000	1000	0	0	-1	200
29997235	6526	306	0	-100	0	230	101300000	1000	0	0	-1	200
30009795	6520	302	0	-100	0	230	101300000	1000	0	0	-1	200
30022355	6530	301	0	-100	0	230	101300000	1000	0	0	-1	200
30034915	6531	299	0	-100	0	230	101300000	1000	0	0	-1	200
30047475	6528	304	0	-100	0	230	101300000	1000	0	0	-1	200
30060035	6524	307	0	-100	0	230	101300000	1000	0	0	-1	200
30072595	6521	302	0	-100	0	230	101300000	1000	0	0	-1	200
30085155	6524	298	0	-100	0	230	101300000	1000	0	0	-1	200
30097715	6530	300	0	-100	0	230	101300000	1000	0	0	-1	200
30110275	6534	300	0	-100	0	230	101300000	1000	0	0	-1	200
30122835	6525	298	0	-100	0	230	101300000	1000	0	0	-1	200
30135395	6529	301	0	-100	0	230	101300000	1000	0	0	-1	200
30147955	6519	306	0	-100	0	230	101300000	1000	0	0	-1	200
30160515	6523	308	0	-100	0	230	101300000	1000	0	0	-1	200
30173075	6526	299	0	-100	0	230	101300000	1000	0	0	-1	200
30185635	6525	298	0	-100	0	230	101300000	1000	0	0	-1	200
30198195	6526	301	0	-100	0	230	101300000	1000	0	0	-1	200
30210755	6535	303	0	-100	0	230	101300000	1000	0	0	-1	200
30223315	6528	303	0	-100	0	230	101300000	1000	0	0	-1	200
30235875	6532	306	0	-100	0	230	101300000	1000	0	0	-1	200
30248435	6526	303	0	-100	0	230	101300000	1000	0	0	-1	200
30260995	6527	301	0	-100	0	230	101300000	1000	0	0	-1	200
30273555	6526	299	0	-100	0	230	101300000	1000	0	0	-1	200
30286115	6521	302	0	-100	0	230	101300000	1000	0	0	-1	200
30298675	6522	307	0	-100	0	230	101300000	1000	0	0	-1	200
30311235	6528	306	0	-100	0	230	101300000	1000	0	0	-1	200
30323795	6526	298	0	-100	0	230	101300000	1000	0	0	-1	200
30336355	6531	299	0	-100	0	230	101300000	1000	0	0	-1	200
30348915	6524	306	0	-100	0	230	101300000	1000	0	0	-1	200
30361475	6526	304	0	-100	0	230	101300000	1000	0	0	-1	200
30374035	6531	299	0	-100	0	230	101300000	1000	0	0	-1	200
30386595	6527	299	0	-100	0	230	101300000	1000	0	0	-1	200
30399155	6522	300	0	-100	0	230	101300000	1000	0	0	-1	200
30411715	6524	299	0	-100	0	230	101300000	1000	0	0	-1	200
30424275	6530	297	0	-100	0	230	101300000	1000	0	0	-1	200
30436835	6533	300	0	-100	0	230	101300000	1000	0	0	-1	200
30449395	6524	303	0	-100	0	230	101300000	1000	0	0	-1	200
30461955	6520	307	0	-100	0	230	101300000	1000	0	0	-1	200
30474515	6524	303	0	-100	0	230	101300000	1000	0	0	-1	200
30487075	6529	298	0	-100	0	230	101300000	1000	0	0	-1	200
30499635	6526	300	0	-100	0	230	101300000	1000	0	0	-1	200
30512195	6520	307	0	-100	0	230	101300000	1000	0	0	-1	200
30524755	6522	298	0	-100	0	230	101300000	1000	0	0	-1	200
30537315	6533	300	0	-100	0	230	101300000	1000	0	0	-1	200
30549875	6530	300	0	-100	0	230	101300000	1000	0	0	-1	200
30562435	6519	306	0	-100	0	230	101300000	1000	0	0	-1	200
30574995	6524	300	0	-100	0	230	101300000	1000	0	0	-1	200
30587555	6523	298	0	-100	0	230	101300000	1000	0	0	-1	200
30600115	6531	299	0	-100	0	230	101300000	1000	0	0	-1	200
30612675	6531	300	0	-100	0	230	101300000	1000	0	0	-1	200
30625235	6517	304	0	-100	0	230	101300000	1000	0	0	-1	200
30637795	6522	307	0	-100	0	230	101300000	1000	0	0	-1	200
30650355	6522	298	0	-100	0	230	101300000	1000	0	0	-1	200
30662915	6521	297	0	-100	0	230	101300000	1000	0	0	-1	200
30675475	6520	303	0	-100	0	230	101300000	1000	0	0	-1	200
30688035	6518	308	0	-100	0	230	101300000	1000	0	0	-1	200
30700595	6517	303	0	-100	0	230	101300000	1000	0	0	-1	200
30713155	6523	299	0	-100	0	230	101300000	1000	0	0	-1	200
30725715	6526	299	0	-100	0	230	101300000	1000	0	0	-1	200
30738275	6527	300	0	-100	0	230	101300000	1000	0	0	-1	200
30750835	6522	308	0	-100	0	230	101300000	1000	0	0	-1	200
30763395	6526	300	0	-100	0	230	101300000	1000	0	0	-1	200
30775955	6527	299	0	-100	0	230	101300000	1000	0	0	-1	200
30788515	6519	302	0	-100	0	230	101300000	1000	0	0	-1	200
30801075	6520	307	0	-100	0	230	101300000	1000	0	0	-1	200
30813635	6517	302	0	-100	0	230	101300000	1000	0	0	-1	200
30826195	6527	299	0	-100	0	230	101300000	1000	0	0	-1	200
30838755	6526	303	0	-100	0	230	101300000	1000	0	0	-1	200
30851315	6522	306	0	-100	0	230	101300000	1000	0	0	-1	200
30863875	6525	299	0	-100	0	230	101300000	1000	0	0	-1	200
30876435	6524	302	0	-100	0	230	101300000	1000	0	0	-1	200
30888995	6518	298	0	-100	0	230	101300000	1000	0	0	-1	200
30901555	6524	299	0	-100	0	230	101300000	1000	0	0	-1	200
30914115	6517	304	0	-100	0	230	101300000	1000	0	0	-1	200
30926675	6521	305	0	-100	0	230	101300000	1000	0	0	-1	200
30939235	6526	297	0	-100	0	230	101300000	1000	0	0	-1	200
30951795	6526	307	0	-100	0	230	101300000	1000	0	0	-1	200
30964355	6522	298	0	-100	0	230	101300000	1000	0	0	-1	200
30976915	6529	299	0	-100	0	230	101300000	1000	0	0	-1	200
30989475	6524	308	0	-100	0	230	101300000	1000	0	0	-1	200
31002035	6520	298	0	-100	0	230	101300000	1000	0	0	-1	200
31014595	6531	300	0	-100	0	230	101300000	1000	0	0	-1	200
31027155	6523	308	0	-100	0	230	101300000	1000	0	0	-1	200
31039715	6525	298	0	-100	0	230	101300000	1000	0	0	-1	200
31052275	6523	303	0	-100	0	230	101300000	1000	0	0	-1	200
31064835	6514	305	0	-100	0	230	101300000	1000	0	0	-1	200
31077395	6529	301	0	-100	0	230	101300000	1000	0	0	-1	200
31089955	6519	304	0	-100	0	230	101300000	1000	0	0	-1	200
31102515	6517	302	0	-100	0	230	101300000	1000	0	0	-1	200
31115075	6522	296	0	-100	0	230	101300000	1000	0	0	-1	200
31127635	6519	306	0	-100	0	230	101300000	1000	0	0	-1	200
31140195	6522	303	0	-100	0	230	101300000	1000	0	0	-1	200
31152755	6530	300	0	-100	0	230	101300000	1000	0	0	-1	200
31165315	6524	308	0	-100	0	230	101300000	1000	0	0	-1	200
31177875	6530	302	0	-100	0	230	101300000	1000	0	0	-1	200
31190435	6521	304	0	-100	0	230	101300000	1000	0	0	-1	200
31202995	6522	299	0	-100	0	230	101300000	1000	0	0	-1	200
31215555	6531	302	0	-100	0	230	101300000	1000	0	0	-1	200
31228115	6526	308	0	-100	0	230	101300000	1000	0	0	-1	200
31240675	6516	301	0	-100	0	230	101300000	1000	0	0	-1	200
31253235	6534	301	0	-100	0	230	101300000	1000	0	0	-1	200
31265795	6528	308	0	-100	0	230	101300000	1000	0	0	-1	200
31278355	6516	300	0	-100	0	230	101300000	1000	0	0	-1	200
31290915	6530	301	0	-100	0	230	101300000	1000	0	0	-1	200
31303475	6526	307	0	-100	0	230	101300000	1000	0	0	-1	200
31316035	6525	298	0	-100	0	230	101300000	1000	0	0	-1	200
31328595	6525	301	0	-100	0	230	101300000	1000	0	0	-1	200
31341155	6516	305	0	-100	0	230	101300000	1000	0	0	-1	200
31353715	6527	300	0	-100	0	230	101300000	1000	0	0	-1	200
31366275	6523	305	0	-100	0	230	101300000	1000	0	0	-1	200
31378835	6521	303	0	-100	0	230	101300000	1000	0	0	-1	200
31391395	6528	300	0	-100	0	230	101300000	1000	0	0	-1	200
31403955	6519	303	0	-100	0	230	101300000	1000	0	0	-1	200
31416515	6520	299	0	-100	0	230	101300000	1000	0	0	-1	200
31429075	6518	303	0	-100	0	230	101300000	1000	0	0	-1	200
31441635	6521	304	0	-100	0	230	101300000	1000	0	0	-1	200
31454195	6528	297	0	-100	0	230	101300000	1000	0	0	-1	200
31466755	6522	305	0	-100	0	230	101300000	1000	0	0	-1	200
31479315	6526	306	0	-100	0	230	101300000	1000	0	0	-1	200
31491875	6521	299	0	-100	0	230	101300000	1000	0	0	-1	200
31504435	6528	295	0	-100	0	230	101300000	1000	0	0	-1	200
31516995	6524	303	0	-100	0	230	101300000	1000	0	0	-1	200
31529555	6521	303	0	-100	0	230	101300000	1000	0	0	-1	200
31542115	6525	300	0	-100	0	230	101300000	1000	0	0	-1	200
31554675	6525	301	0	-100	0	230	101300000	1000	0	0	-1	200
31567235	6518	306	0	-100	0	230	101300000	1000	0	0	-1	200
31579795	6521	301	0	-100	0	230	101300000	1000	0	0	-1	200
31592355	6532	302	0	-100	0	230	101300000	1000	0	0	-1	200
31604915	6520	307	0	-100	0	230	101300000	1000	0	0	-1	200
31617475	6526	299	0	-100	0	230	101300000	1000	0	0	-1	200
31630035	6530	301	0	-100	0	230	101300000	1000	0	0	-1	200
31642595	6522	307	0	-100	0	230	101300000	1000	0	0	-1	200
31655155	6527	299	0	-100	0	230	101300000	1000	0	0	-1	200
31667715	6533	302	0	-100	0	230	101300000	1000	0	0	-1	200
31680275	6522	307	0	-100	0	230	101300000	1000	0	0	-1	200
31692835	6531	299	0	-100	0	230	101300000	1000	0	0	-1	200
31705395	6522	302	0	-100	0	230	101300000	1000	0	0	-1	200
31717955	6529	303	0	-100	0	230	101300000	1000	0	0	-1	200
31730515	6532	300	0	-100	0	230	101300000	1000	0	0	-1	200
31743075	6526	301	0	-100	0	230	101300000	1000	0	0	-1	200
31755635	6523	307	0	-100	0	230	101300000	1000	0	0	-1	200
31768195	6517	304	0	-100	0	230	101300000	1000	0	0	-1	200
31780755	6523	299	0	-100	0	230	101300000	1000	0	0	-1	200
31793315	6525	300	0	-100	0	230	101300000	1000	0	0	-1	200
31805875	6525	307	0	-100	0	230	101300000	1000	0	0	-1	200
31818435	6520	302	0	-100	0	230	101300000	1000	0	0	-1	200
31830995	6520	306	0	-100	0	230	101300000	1000	0	0	-1	200
31843555	6517	304	0	-100	0	230	101300000	1000	0	0	-1	200
31856115	6518	303	0	-100	0	230	101300000	1000	0	0	-1	200
31868675	6528	301	0	-100	0	230	101300000	1000	0	0	-1	200
31881235	6524	303	0	-100	0	230	101300000	1000	0	0	-1	200
31893795	6528	307	0	-100	0	230	101300000	1000	0	0	-1	200
31906355	6525	299	0	-100	0	230	101300000	1000	0	0	-1	200
31918915	6525	299	0	-100	0	230	101300000	1000	0	0	-1	200
31931475	6528	308	0	-100	0	230	101300000	1000	0	0	-1	200
31944035	6517	305	0	-100	0	230	101300000	1000	0	0	-1	200
31956595	6526	299	0	-100	0	230	101300000	1000	0	0	-1	200
31969155	6527	299	0	-100	0	230	101300000	1000	0	0	-1	200
31981715	6529	301	0	-100	0	230	101300000	1000	0	0	-1	200
31994275	6528	301	0	-100	0	230	101300000	1000	0	0	-1	200
32006835	6522	305	0	-100	0	230	101300000	1000	0	0	-1	200
32019395	6526	304	0	-100	0	230	101300000	1000	0	0	-1	200
32031955	6520	303	0	-100	0	230	101300000	1000	0	0	-1	200
32044515	6521	298	0	-100	0	230	101300000	1000	0	0	-1	200
32057075	6521	297	0	-100	0	230	101300000	1000	0	0	-1	200
32069635	6533	299	0	-100	0	230	101300000	1000	0	0	-1	200
32082195	6526	305	0	-100	0	230	101300000	1000	0	0	-1	200
32094755	6522	307	0	-100	0	230	101300000	1000	0	0	-1	200
32107315	6523	308	0	-100	0	230	101300000	1000	0	0	-1	200
32119875	6522	302	0	-100	0	230	101300000	1000	0	0	-1	200
32132435	6517	298	0	-100	0	230	101300000	1000	0	0	-1	200
32144995	6526	303	0	-100	0	230	101300000	1000	0	0	-1	200
32157555	6531	299	0	-100	0	230	101300000	1000	0	0	-1	200
32170115	6519	305	0	-100	0	230	101300000	1000	0	0	-1	200
32182675	6519	304	0	-100	0	230	101300000	1000	0	0	-1	200
32195235	6522	298	0	-100	0	230	101300000	1000	0	0	-1	200
32220355	6533	300	0	-100	0	230	101300000	1000	0	0	-1	200
32232915	6518	303	0	-100	0	230	101300000	1000	0	0	-1	200
32245475	6528	298	0	-100	0	230	101300000	1000	0	0	-1	200
32258035	6526	301	0	-100	0	230	101300000	1000	0	0	-1	200
32270595	6518	299	0	-100	0	230	101300000	1000	0	0	-1	200
32283155	6521	303	0	-100	0	230	101300000	1000	0	0	-1	200
32295715	6521	306	0	-100	0	230	101300000	1000	0	0	-1	200
32308275	6518	302	0	-100	0	230	101300000	1000	0	0	-1	200
32320835	6529	299	0	-100	0	230	101300000	1000	0	0	-1	200
32333395	6524	296	0	-100	0	230	101300000	1000	0	0	-1	200
32345955	6528	304	0	-100	0	230	101300000	1000	0	0	-1	200
32358515	6517	306	0	-100	0	230	101300000	1000	0	0	-1	200
32433875	6521	306	0	-100	0	230	101300000	1000	0	0	-1	200
32446435	6518	303	0	-100	0	230	101300000	1000	0	0	-1	200
32458995	6523	302	0	-100	0	230	101300000	1000	0	0	-1	200
32471555	6526	301	0	-100	0	230	101300000	1000	0	0	-1	200
32484115	6523	303	0	-100	0	230	101300000	1000	0	0	-1	200
32496675	6521	306	0	-100	0	230	101300000	1000	0	0	-1	200
32509235	6522	304	0	-100	0	230	101300000	1000	0	0	-1	200
32521795	6525	298	0	-100	0	230	101300000	1000	0	0	-1	200
32534355	6527	296	0	-100	0	230	101300000	1000	0	0	-1	200
32546915	6530	302	0	-100	0	230	101300000	1000	0	0	-1	200
32559475	6519	307	0	-100	0	230	101300000	1000	0	0	-1	200
32572035	6526	299	0	-100	0	230	101300000	1000	0	0	-1	200
32597155	6533	301	0	-100	0	230	101300000	1000	0	0	-1	200
32609715	6520	303	0	-100	0	230	101300000	1000	0	0	-1	200
32622275	6523	308	0	-100	0	230	101300000	1000	0	0	-1	200
32634835	6522	299	0	-100	0	230	101300000	1000	0	0	-1	200
32647395	6529	298	0	-100	0	230	101300000	1000	0	0	-1	200
32659955	6523	303	0	-100	0	230	101300000	1000	0	0	-1	200
32672515	6516	303	0	-100	0	230	101300000	1000	0	0	-1	200
32685075	6526	299	0	-100	0	230	101300000	1000	0	0	-1	200
32697635	6526	303	0	-100	0	230	101300000	1000	0	0	-1	200
32710195	6517	308	0	-100	0	230	101300000	1000	0	0	-1	200
32722755	6524	301	0	-100	0	230	101300000	1000	0	0	-1	200
32735315	6532	301	0	-100	0	230	101300000	1000	0	0	-1	200
32747875	6518	306	0	-100	0	230	101300000	1000	0	0	-1	200
32760435	6518	304	0	-100	0	230	101300000	1000	0	0	-1	200
32772995	6528	301	0	-100	0	230	101300000	1000	0	0	-1	200
32785555	6525	298	0	-100	0	230	101300000	1000	0	0	-1	200
32798115	6519	303	0	-100	0	230	101300000	1000	0	0	-1	200
32810675	6517	302	0	-100	0	230	101300000	1000	0	0	-1	200
32823235	6521	298	0	-100	0	230	101300000	1000	0	0	-1	200
32835795	6531	300	0	-100	0	230	101300000	1000	0	0	-1	200
32848355	6522	307	0	-100	0	230	101300000	1000	0	0	-1	200
32860915	6522	300	0	-100	0	230	101300000	1000	0	0	-1	200
32873475	6525	298	0	-100	0	230	101300000	1000	0	0	-1	200
32886035	6519	304	0	-100	0	230	101300000	1000	0	0	-1	200
32898595	6515	305	0	-100	0	230	101300000	1000	0	0	-1	200
32911155	6528	300	0	-100	0	230	101300000	1000	0	0	-1	200
32923715	6523	303	0	-100	0	230	101300000	1000	0	0	-1	200
32936275	6518	303	0	-100	0	230	101300000	1000	0	0	-1	200
32948835	6525	299	0	-100	0	230	101300000	1000	0	0	-1	200
32961395	6522	302	0	-100	0	230	101300000	1000	0	0	-1	200
32973955	6522	302	0	-100	0	230	101300000	1000	0	0	-1	200
32986515	6527	299	0	-100	0	230	101300000	1000	0	0	-1	200
32999075	6528	303	0	-100	0	230	101300000	1000	0	0	-1	200
33011635	6528	308	0	-100	0	230	101300000	1000	0	0	-1	200
33024195	6526	299	0	-100	0	230	101300000	1000	0	0	-1	200
33036755	6525	300	0	-100	0	230	101300000	1000	0	0	-1	200
33049315	6521	306	0	-100	0	230	101300000	1000	0	0	-1	200
33061875	6517	304	0	-100	0	230	101300000	1000	0	0	-1	200
33074435	6534	299	0	-100	0	230	101300000	1000	0	0	-1	200
33086995	6522	302	0	-100	0	230	101300000	1000	0	0	-1	200
33099555	6524	304	0	-100	0	230	101300000	1000	0	0	-1	200
33112115	6526	299	0	-100	0	230	101300000	1000	0	0	-1	200
33124675	6524	304	0	-100	0	230	101300000	1000	0	0	-1	200
33137235	6524	310	0	-100	0	230	101300000	1000	0	0	-1	200
33149795	6522	302	0	-100	0	230	101300000	1000	0	0	-1	200
33162355	6525	299	0	-100	0	230	101300000	1000	0	0	-1	200
33174915	6526	300	0	-100	0	230	101300000	1000	0	0	-1	200
33187475	6523	307	0	-100	0	230	101300000	1000	0	0	-1	200
33200035	6520	304	0	-100	0	230	101300000	1000	0	0	-1	200
33212595	6528	298	0	-100	0	230	101300000	1000	0	0	-1	200
33225155	6529	300	0	-100	0	230	101300000	1000	0	0	-1	200
33237715	6519	307	0	-100	0	230	101300000	1000	0	0	-1	200
33250275	6515	305	0	-100	0	230	101300000	1000	0	0	-1	200
33262835	6520	297	0	-100	0	230	101300000	1000	0	0	-1	200
33275395	6521	300	0	-100	0	230	101300000	1000	0	0	-1	200
33287955	6531	299	0	-100	0	230	101300000	1000	0	0	-1	200
33300515	6525	307	0	-100	0	230	101300000	1000	0	0	-1	200
33313075	6525	299	0	-100	0	230	101300000	1000	0	0	-1	200
33325635	6516	306	0	-100	0	230	101300000	1000	0	0	-1	200
33338195	6519	299	0	-100	0	230	101300000	1000	0	0	-1	200
33350755	6526	302	0	-100	0	230	101300000	1000	0	0	-1	200
33363315	6517	306	0	-100	0	230	101300000	1000	0	0	-1	200
33375875	6528	301	0	-100	0	230	101300000	1000	0	0	-1	200
33388435	6515	305	0	-100	0	230	101300000	1000	0	0	-1	200
33400995	6519	299	0	-100	0	230	101300000	1000	0	0	-1	200
33413555	6533	301	0	-100	0	230	101300000	1000	0	0	-1	200
33426115	6520	302	0	-100	0	230	101300000	1000	0	0	-1	200
33438675	6527	300	0	-100	0	230	101300000	1000	0	0	-1	200
33451235	6514	303	0	-100	0	230	101300000	1000	0	0	-1	200
33463795	6521	300	0	-100	0	230	101300000	1000	0	0	-1	200
33476355	6523	302	0	-100	0	230	101300000	1000	0	0	-1	200
33488915	6524	303	0	-100	0	230	101300000	1000	0	0	-1	200
33501475	6530	298	0	-100	0	230	101300000	1000	0	0	-1	200
33514035	6524	302	0	-100	0	230	101300000	1000	0	0	-1	200
33526595	6526	308	0	-100	0	230	101300000	1000	0	0	-1	200
33539155	6520	298	0	-100	0	230	101300000	1000	0	0	-1	200
33551715	6521	299	0	-100	0	230	101300000	1000	0	0	-1	200
33564275	6520	305	0	-100	0	230	101300000	1000	0	0	-1	200
33576835	6523	306	0	-100	0	230	101300000	1000	0	0	-1	200
33589395	6524	299	0	-100	0	230	101300000	1000	0	0	-1	200
33601955	6526	299	0	-100	0	230	101300000	1000	0	0	-1	200
33614515	6526	299	0	-100	0	230	101300000	1000	0	0	-1	200
33627075	6522	307	0	-100	0	230	101300000	1000	0	0	-1	200
33639635	6520	305	0	-100	0	230	101300000	1000	0	0	-1	200
33652195	6522	298	0	-100	0	230	101300000	1000	0	0	-1	200
33664755	6529	300	0	-100	0	230	101300000	1000	0	0	-1	200
33677315	6513	307	0	-100	0	230	101300000	1000	0	0	-1	200
33689875	6516	304	0	-100	0	230	101300000	1000	0	0	-1	200
33702435	6517	300	0	-100	0	230	101300000	1000	0	0	-1	200
33714995	6526	307	0	-100	0	230	101300000	1000	0	0	-1	200
33727555	6517	307	0	-100	0	230	101300000	1000	0	0	-1	200
33740115	6518	301	0	-100	0	230	101300000	1000	0	0	-1	200
33752675	6525	297	0	-100	0	230	101300000	1000	0	0	-1	200
33765235	6523	303	0	-100	0	230	101300000	1000	0	0	-1	200
33777795	6518	305	0	-100	0	230	101300000	1000	0	0	-1	200
33790355	6525	300	0	-100	0	230	101300000	1000	0	0	-1	200
33802915	6527	301	0	-100	0	230	101300000	1000	0	0	-1	200
33815475	6527	307	0	-100	0	230	101300000	1000	0	0	-1	200
33828035	6525	302	0	-100	0	230	101300000	1000	0	0	-1	200
33840595	6524	299	0	-100	0	230	101300000	1000	0	0	-1	200
33853155	6521	302	0	-100	0	230	101300000	1000	0	0	-1	200
33865715	6522	307	0	-100	0	230	101300000	1000	0	0	-1	200
33878275	6522	300	0	-100	0	230	101300000	1000	0	0	-1	200
33890835	6523	299	0	-100	0	230	101300000	1000	0	0	-1	200
33903395	6519	306	0	-100	0	230	101300000	1000	0	0	-1	200
33915955	6528	299	0	-100	0	230	101300000	1000	0	0	-1	200
33928515	6529	301	0	-100	0	230	101300000	1000	0	0	-1	200
33941075	6522	307	0	-100	0	230	101300000	1000	0	0	-1	200
33953635	6521	305	0	-100	0	230	101300000	1000	0	0	-1	200
33966195	6524	297	0	-100	0	230	101300000	1000	0	0	-1	200
33978755	6521	300	0	-100	0	230	101300000	1000	0	0	-1	200
33991315	6523	303	0	-100	0	230	101300000	1000	0	0	-1	200
34003875	6519	307	0	-100	0	230	101300000	1000	0	0	-1	200
34016435	6520	302	0	-100	0	230	101300000	1000	0	0	-1	200
34028995	6522	304	0	-100	0	230	101300000	1000	0	0	-1	200
34041555	6523	300	0	-100	0	230	101300000	1000	0	0	-1	200
34054115	6517	302	0	-100	0	230	101300000	1000	0	0	-1	200
34066675	6526	308	0	-100	0	230	101300000	1000	0	0	-1	200
34079235	6519	302	0	-100	0	230	101300000	1000	0	0	-1	200
34091795	6531	299	0	-100	0	230	101300000	1000	0	0	-1	200
34104355	6518	305	0	-100	0	230	101300000	1000	0	0	-1	200
34116915	6523	303	0	-100	0	230	101300000	1000	0	0	-1	200
34129475	6525	299	0	-100	0	230	101300000	1000	0	0	-1	200
34142035	6522	303	0	-100	0	230	101300000	1000	0	0	-1	200
34154595	6521	302	0	-100	0	230	101300000	1000	0	0	-1	200
34167155	6529	301	0	-100	0	230	101300000	1000	0	0	-1	200
34179715	6528	302	0	-100	0	230	101300000	1000	0	0	-1	200
34192275	6525	304	0	-100	0	230	101300000	1000	0	0	-1	200
34204835	6525	300	0	-100	0	230	101300000	1000	0	0	-1	200
34217395	6519	302	0	-100	0	230	101300000	1000	0	0	-1	200
34229955	6520	308	0	-100	0	230	101300000	1000	0	0	-1	200
34242515	6522	301	0	-100	0	230	101300000	1000	0	0	-1	200
34255075	6531	299	0	-100	0	230	101300000	1000	0	0	-1	200
34267635	6523	306	0	-100	0	230	101300000	1000	0	0	-1	200
34280195	6522	302	0	-100	0	230	101300000	1000	0	0	-1	200
34292755	6525	299	0	-100	0	230	101300000	1000	0	0	-1	200
34305315	6527	299	0	-100	0	230	101300000	1000	0	0	-1	200
34317875	6525	303	0	-100	0	230	101300000	1000	0	0	-1	200
34330435	6523	307	0	-100	0	230	101300000	1000	0	0	-1	200
34342995	6523	298	0	-100	0	230	101300000	1000	0	0	-1	200
34355555	6527	299	0	-100	0	230	101300000	1000	0	0	-1	200
34368115	6528	302	0	-100	0	230	101300000	1000	0	0	-1	200
34380675	6523	308	0	-100	0	230	101300000	1000	0	0	-1	200
34393235	6519	303	0	-100	0	230	101300000	1000	0	0	-1	200
34405795	6525	301	0	-100	0	230	101300000	1000	0	0	-1	200
34418355	6528	301	0	-100	0	230	101300000	1000	0	0	-1	200
34430915	6519	305	0	-100	0	230	101300000	1000	0	0	-1	200
34443475	6520	307	0	-100	0	230	101300000	1000	0	0	-1	200
34456035	6522	299	0	-100	0	230	101300000	1000	0	0	-1	200
34468595	6528	298	0	-100	0	230	101300000	1000	0	0	-1	200
34481155	6521	305	0	-100	0	230	101300000	1000	0	0	-1	200
34493715	6520	302	0	-100	0	230	101300000	1000	0	0	-1	200
34506275	6521	296	0	-100	0	230	101300000	1000	0	0	-1	200
34518835	6517	305	0	-100	0	230	101300000	1000	0	0	-1	200
34531395	6518	304	0	-100	0	230	101300000	1000	0	0	-1	200
34543955	6521	298	0	-100	0	230	101300000	1000	0	0	-1	200
34556515	6526	297	0	-100	0	230	101300000	1000	0	0	-1	200
34569075	6526	303	0	-100	0	230	101300000	1000	0	0	-1	200
34581635	6523	307	0	-100	0	230	101300000	1000	0	0	-1	200
34594195	6516	300	0	-100	0	230	101300000	1000	0	0	-1	200
34606755	6527	298	0	-100	0	230	101300000	1000	0	0	-1	200
34619315	6517	307	0	-100	0	230	101300000	1000	0	0	-1	200
34631875	6516	302	0	-100	0	230	101300000	1000	0	0	-1	200
34644435	6525	298	0	-100	0	230	101300000	1000	0	0	-1	200
34656995	6522	300	0	-100	0	230	101300000	1000	0	0	-1	200
34669555	6518	306	0	-100	0	230	101300000	1000	0	0	-1	200
34682115	6529	301	0	-100	0	230	101300000	1000	0	0	-1	200
34694675	6521	306	0	-100	0	230	101300000	1000	0	0	-1	200
34707235	6523	298	0	-100	0	230	101300000	1000	0	0	-1	200
34719795	6519	304	0	-100	0	230	101300000	1000	0	0	-1	200
34732355	6514	303	0	-100	0	230	101300000	1000	0	0	-1	200
34744915	6532	297	0	-100	0	230	101300000	1000	0	0	-1	200
34757475	6526	307	0	-100	0	230	101300000	1000	0	0	-1	200
34770035	6521	299	0	-100	0	230	101300000	1000	0	0	-1	200
