timestamp	voltage	current	windSpeed	pitchAngle	rpm	temperature	ambientPressure	humidity	accelerationX	accelerationY	accelerationZ	currentSink
7037070	5011	3	0	-100	0	230	101300000	1000	0	0	-1	0
7044523	5021	0	0	-100	0	230	101300000	1000	0	0	-1	0
7057083	5019	0	0	-100	0	230	101300000	1000	0	0	-1	0
7069643	5019	0	0	-100	0	230	101300000	1000	0	0	-1	0
7082203	5022	0	0	-100	0	230	101300000	1000	0	0	-1	0
7094763	5021	0	0	-100	0	230	101300000	1000	0	0	-1	0
7107323	5023	0	0	-100	0	230	101300000	1000	0	0	-1	0
7119883	5019	0	0	-100	0	230	101300000	1000	0	0	-1	0
7132443	5022	0	0	-100	0	230	101300000	1000	0	0	-1	0
7145004	5014	4	0	-100	0	230	101300000	1000	0	0	-1	0
7157563	5017	0	0	-100	0	230	101300000	1000	0	0	-1	0
7170123	5014	0	0	-100	0	230	101300000	1000	0	0	-1	0
7182683	5014	2	0	-100	0	230	101300000	1000	0	0	-1	0
7195243	5016	2	0	-100	0	230	101300000	1000	0	0	-1	0
7207803	5015	3	0	-100	0	230	101300000	1000	0	0	-1	0
7220363	5011	0	0	-100	0	230	101300000	1000	0	0	-1	0
7232923	5018	0	0	-100	0	230	101300000	1000	0	0	-1	0
7245483	5016	0	0	-100	0	230	101300000	1000	0	0	-1	0
7258043	5015	4	0	-100	0	230	101300000	1000	0	0	-1	0
7270603	5019	0	0	-100	0	230	101300000	1000	0	0	-1	0
7283163	5017	0	0	-100	0	230	101300000	1000	0	0	-1	0
7295723	5012	3	0	-100	0	230	101300000	1000	0	0	-1	0
7308283	5012	0	0	-100	0	230	101300000	1000	0	0	-1	0
7320843	5017	0	0	-100	0	230	101300000	1000	0	0	-1	0
7333403	5021	0	0	-100	0	230	101300000	1000	0	0	-1	0
7345963	5014	0	0	-100	0	230	101300000	1000	0	0	-1	0
7704235	7001	386	0	-100	0	230	101300000	1000	0	0	-1	250
7716795	6994	379	0	-100	0	230	101300000	1000	0	0	-1	250
7729355	6994	379	0	-100	0	230	101300000	1000	0	0	-1	250
7741915	7001	387	0	-100	0	230	101300000	1000	0	0	-1	250
7754475	7006	379	0	-100	0	230	101300000	1000	0	0	-1	250
7767035	6999	380	0	-100	0	230	101300000	1000	0	0	-1	250
7779595	6999	383	0	-100	0	230	101300000	1000	0	0	-1	250
7792155	7002	381	0	-100	0	230	101300000	1000	0	0	-1	250
7804715	6991	386	0	-100	0	230	101300000	1000	0	0	-1	250
7817275	6995	378	0	-100	0	230	101300000	1000	0	0	-1	250
7829835	7002	379	0	-100	0	230	101300000	1000	0	0	-1	250
7842395	6994	388	0	-100	0	230	101300000	1000	0	0	-1	250
7854955	6991	380	0	-100	0	230	101300000	1000	0	0	-1	250
7867515	6992	378	0	-100	0	230	101300000	1000	0	0	-1	250
7880075	6994	385	0	-100	0	230	101300000	1000	0	0	-1	250
7892635	6994	378	0	-100	0	230	101300000	1000	0	0	-1	250
7905195	7005	380	0	-100	0	230	101300000	1000	0	0	-1	250
7917755	6983	386	0	-100	0	230	101300000	1000	0	0	-1	250
7930315	6992	379	0	-100	0	230	101300000	1000	0	0	-1	250
7942875	6999	382	0	-100	0	230	101300000	1000	0	0	-1	250
7955435	6991	387	0	-100	0	230	101300000	1000	0	0	-1	250
7967995	6994	379	0	-100	0	230	101300000	1000	0	0	-1	250
7980555	6994	379	0	-100	0	230	101300000	1000	0	0	-1	250
7993115	6995	382	0	-100	0	230	101300000	1000	0	0	-1	250
8005675	6995	378	0	-100	0	230	101300000	1000	0	0	-1	250
8018235	6991	384	0	-100	0	230	101300000	1000	0	0	-1	250
8030795	6992	379	0	-100	0	230	101300000	1000	0	0	-1	250
8043355	7003	378	0	-100	0	230	101300000	1000	0	0	-1	250
8055915	6992	387	0	-100	0	230	101300000	1000	0	0	-1	250
8068475	6993	379	0	-100	0	230	101300000	1000	0	0	-1	250
8081035	7000	381	0	-100	0	230	101300000	1000	0	0	-1	250
8093595	6987	383	0	-100	0	230	101300000	1000	0	0	-1	250
8106155	6985	382	0	-100	0	230	101300000	1000	0	0	-1	250
8118715	6992	379	0	-100	0	230	101300000	1000	0	0	-1	250
8131275	6995	378	0	-100	0	230	101300000	1000	0	0	-1	250
8143835	6992	383	0	-100	0	230	101300000	1000	0	0	-1	250
8156395	6999	388	0	-100	0	230	101300000	1000	0	0	-1	250
8168955	6995	378	0	-100	0	230	101300000	1000	0	0	-1	250
8181515	6989	377	0	-100	0	230	101300000	1000	0	0	-1	250
8194075	6998	380	0	-100	0	230	101300000	1000	0	0	-1	250
8206635	6990	382	0	-100	0	230	101300000	1000	0	0	-1	250
8219195	6985	387	0	-100	0	230	101300000	1000	0	0	-1	250
8231755	6983	384	0	-100	0	230	101300000	1000	0	0	-1	250
8244315	6999	378	0	-100	0	230	101300000	1000	0	0	-1	250
8256875	6994	382	0	-100	0	230	101300000	1000	0	0	-1	250
8269435	6992	384	0	-100	0	230	101300000	1000	0	0	-1	250
8281995	6997	380	0	-100	0	230	101300000	1000	0	0	-1	250
8294555	6987	382	0	-100	0	230	101300000	1000	0	0	-1	250
8307115	6990	383	0	-100	0	230	101300000	1000	0	0	-1	250
8319675	6991	378	0	-100	0	230	101300000	1000	0	0	-1	250
8332235	6996	385	0	-100	0	230	101300000	1000	0	0	-1	250
8344795	6983	380	0	-100	0	230	101300000	1000	0	0	-1	250
8357355	6999	379	0	-100	0	230	101300000	1000	0	0	-1	250
8369915	6987	382	0	-100	0	230	101300000	1000	0	0	-1	250
8382475	6989	383	0	-100	0	230	101300000	1000	0	0	-1	250
8395035	6992	376	0	-100	0	230	101300000	1000	0	0	-1	250
8407595	6992	385	0	-100	0	230	101300000	1000	0	0	-1	250
8420155	6987	379	0	-100	0	230	101300000	1000	0	0	-1	250
8432715	6995	378	0	-100	0	230	101300000	1000	0	0	-1	250
8445275	6990	381	0	-100	0	230	101300000	1000	0	0	-1	250
8457835	6990	382	0	-100	0	230	101300000	1000	0	0	-1	250
8470395	6992	378	0	-100	0	230	101300000	1000	0	0	-1	250
8482955	6990	380	0	-100	0	230	101300000	1000	0	0	-1	250
8495515	6993	384	0	-100	0	230	101300000	1000	0	0	-1	250
8508075	6983	380	0	-100	0	230	101300000	1000	0	0	-1	250
8520635	6993	377	0	-100	0	230	101300000	1000	0	0	-1	250
8533195	6997	378	0	-100	0	230	101300000	1000	0	0	-1	250
8545755	6983	384	0	-100	0	230	101300000	1000	0	0	-1	250
8558315	6988	383	0	-100	0	230	101300000	1000	0	0	-1	250
8570875	6997	378	0	-100	0	230	101300000	1000	0	0	-1	250
8583435	6990	380	0	-100	0	230	101300000	1000	0	0	-1	250
8595995	6985	379	0	-100	0	230	101300000	1000	0	0	-1	250
8608555	6980	381	0	-100	0	230	101300000	1000	0	0	-1	250
8621115	6995	379	0	-100	0	230	101300000	1000	0	0	-1	250
8633675	6989	382	0	-100	0	230	101300000	1000	0	0	-1	250
8646235	6984	382	0	-100	0	230	101300000	1000	0	0	-1	250
8658795	6995	380	0	-100	0	230	101300000	1000	0	0	-1	250
8671355	6991	381	0	-100	0	230	101300000	1000	0	0	-1	250
8683915	6978	383	0	-100	0	230	101300000	1000	0	0	-1	250
8696475	6985	378	0	-100	0	230	101300000	1000	0	0	-1	250
8709035	6988	376	0	-100	0	230	101300000	1000	0	0	-1	250
8721595	6990	383	0	-100	0	230	101300000	1000	0	0	-1	250
8734155	6991	387	0	-100	0	230	101300000	1000	0	0	-1	250
8746715	6981	382	0	-100	0	230	101300000	1000	0	0	-1	250
8759275	6988	378	0	-100	0	230	101300000	1000	0	0	-1	250
8771835	6992	375	0	-100	0	230	101300000	1000	0	0	-1	250
8784395	6997	380	0	-100	0	230	101300000	1000	0	0	-1	250
8796955	6986	386	0	-100	0	230	101300000	1000	0	0	-1	250
8809515	6990	384	0	-100	0	230	101300000	1000	0	0	-1	250
8822075	6987	379	0	-100	0	230	101300000	1000	0	0	-1	250
8834635	6988	377	0	-100	0	230	101300000	1000	0	0	-1	250
8847195	6991	378	0	-100	0	230	101300000	1000	0	0	-1	250
8859755	6994	384	0	-100	0	230	101300000	1000	0	0	-1	250
8872315	6981	386	0	-100	0	230	101300000	1000	0	0	-1	250
8884875	6987	383	0	-100	0	230	101300000	1000	0	0	-1	250
8897435	6990	377	0	-100	0	230	101300000	1000	0	0	-1	250
8909995	6991	382	0	-100	0	230	101300000	1000	0	0	-1	250
8922555	6999	379	0	-100	0	230	101300000	1000	0	0	-1	250
8935115	6985	384	0	-100	0	230	101300000	1000	0	0	-1	250
8947675	6988	386	0	-100	0	230	101300000	1000	0	0	-1	250
8960235	6987	387	0	-100	0	230	101300000	1000	0	0	-1	250
8972795	6992	386	0	-100	0	230	101300000	1000	0	0	-1	250
8985355	6991	385	0	-100	0	230	101300000	1000	0	0	-1	250
8997915	6993	385	0	-100	0	230	101300000	1000	0	0	-1	250
9010475	6990	387	0	-100	0	230	101300000	1000	0	0	-1	250
9023035	6987	385	0	-100	0	230	101300000	1000	0	0	-1	250
9035595	6983	385	0	-100	0	230	101300000	1000	0	0	-1	250
9048155	6991	384	0	-100	0	230	101300000	1000	0	0	-1	250
9060715	6987	384	0	-100	0	230	101300000	1000	0	0	-1	250
9073275	6989	386	0	-100	0	230	101300000	1000	0	0	-1	250
9085835	6990	387	0	-100	0	230	101300000	1000	0	0	-1	250
9098395	6980	387	0	-100	0	230	101300000	1000	0	0	-1	250
9110955	6988	387	0	-100	0	230	101300000	1000	0	0	-1	250
9123515	6990	383	0	-100	0	230	101300000	1000	0	0	-1	250
9136075	6978	382	0	-100	0	230	101300000	1000	0	0	-1	250
9148635	6986	382	0	-100	0	230	101300000	1000	0	0	-1	250
9161195	6989	384	0	-100	0	230	101300000	1000	0	0	-1	250
9173755	6988	382	0	-100	0	230	101300000	1000	0	0	-1	250
9186315	6990	383	0	-100	0	230	101300000	1000	0	0	-1	250
9198875	6984	382	0	-100	0	230	101300000	1000	0	0	-1	250
9211435	6994	381	0	-100	0	230	101300000	1000	0	0	-1	250
9223995	7053	376	0	-100	0	230	101300000	1000	0	0	-1	250
9236555	7077	379	0	-100	0	230	101300000	1000	0	0	-1	250
9249115	7087	379	0	-100	0	230	101300000	1000	0	0	-1	250
9261675	7087	379	0	-100	0	230	101300000	1000	0	0	-1	250
9274235	7088	379	0	-100	0	230	101300000	1000	0	0	-1	250
9286795	7087	377	0	-100	0	230	101300000	1000	0	0	-1	250
9299355	7085	378	0	-100	0	230	101300000	1000	0	0	-1	250
9311915	7080	380	0	-100	0	230	101300000	1000	0	0	-1	250
9324475	7087	379	0	-100	0	230	101300000	1000	0	0	-1	250
9337035	7073	383	0	-100	0	230	101300000	1000	0	0	-1	250
9349595	7074	383	0	-100	0	230	101300000	1000	0	0	-1	250
9362155	7081	385	0	-100	0	230	101300000	1000	0	0	-1	250
9374715	7082	384	0	-100	0	230	101300000	1000	0	0	-1	250
9387275	7080	382	0	-100	0	230	101300000	1000	0	0	-1	250
9399835	7082	383	0	-100	0	230	101300000	1000	0	0	-1	250
9412395	7071	382	0	-100	0	230	101300000	1000	0	0	-1	250
9424955	7077	383	0	-100	0	230	101300000	1000	0	0	-1	250
9437515	7074	382	0	-100	0	230	101300000	1000	0	0	-1	250
9450075	7068	383	0	-100	0	230	101300000	1000	0	0	-1	250
9462635	7077	379	0	-100	0	230	101300000	1000	0	0	-1	250
9475195	7077	379	0	-100	0	230	101300000	1000	0	0	-1	250
9487755	7084	377	0	-100	0	230	101300000	1000	0	0	-1	250
9500315	7078	379	0	-100	0	230	101300000	1000	0	0	-1	250
9512875	7078	376	0	-100	0	230	101300000	1000	0	0	-1	250
9525435	7070	381	0	-100	0	230	101300000	1000	0	0	-1	250
9537995	7069	379	0	-100	0	230	101300000	1000	0	0	-1	250
9550555	7080	379	0	-100	0	230	101300000	1000	0	0	-1	250
9563115	7079	381	0	-100	0	230	101300000	1000	0	0	-1	250
9575675	7084	387	0	-100	0	230	101300000	1000	0	0	-1	250
9588235	7077	379	0	-100	0	230	101300000	1000	0	0	-1	250
9600795	7080	378	0	-100	0	230	101300000	1000	0	0	-1	250
9613355	7076	379	0	-100	0	230	101300000	1000	0	0	-1	250
9625915	7075	378	0	-100	0	230	101300000	1000	0	0	-1	250
9638475	7082	380	0	-100	0	230	101300000	1000	0	0	-1	250
9651035	7079	386	0	-100	0	230	101300000	1000	0	0	-1	250
9663595	7077	383	0	-100	0	230	101300000	1000	0	0	-1	250
9676155	7078	378	0	-100	0	230	101300000	1000	0	0	-1	250
9688715	7080	377	0	-100	0	230	101300000	1000	0	0	-1	250
9701275	7084	379	0	-100	0	230	101300000	1000	0	0	-1	250
9713835	7079	384	0	-100	0	230	101300000	1000	0	0	-1	250
9726395	7079	384	0	-100	0	230	101300000	1000	0	0	-1	250
9738955	7080	381	0	-100	0	230	101300000	1000	0	0	-1	250
9751515	7074	378	0	-100	0	230	101300000	1000	0	0	-1	250
9764075	7091	379	0	-100	0	230	101300000	1000	0	0	-1	250
9776635	7077	385	0	-100	0	230	101300000	1000	0	0	-1	250
9789195	7080	384	0	-100	0	230	101300000	1000	0	0	-1	250
9801755	7082	383	0	-100	0	230	101300000	1000	0	0	-1	250
9814315	7085	379	0	-100	0	230	101300000	1000	0	0	-1	250
9826875	7087	379	0	-100	0	230	101300000	1000	0	0	-1	250
9839435	7080	376	0	-100	0	230	101300000	1000	0	0	-1	250
9851995	7087	387	0	-100	0	230	101300000	1000	0	0	-1	250
9864555	7077	383	0	-100	0	230	101300000	1000	0	0	-1	250
9877115	7079	382	0	-100	0	230	101300000	1000	0	0	-1	250
9889675	7075	380	0	-100	0	230	101300000	1000	0	0	-1	250
9902235	7080	378	0	-100	0	230	101300000	1000	0	0	-1	250
9914795	7082	380	0	-100	0	230	101300000	1000	0	0	-1	250
9927355	7077	386	0	-100	0	230	101300000	1000	0	0	-1	250
9939915	7073	383	0	-100	0	230	101300000	1000	0	0	-1	250
9952475	7077	378	0	-100	0	230	101300000	1000	0	0	-1	250
9965035	7077	376	0	-100	0	230	101300000	1000	0	0	-1	250
9977595	7081	379	0	-100	0	230	101300000	1000	0	0	-1	250
9990155	7068	382	0	-100	0	230	101300000	1000	0	0	-1	250
10002715	7080	387	0	-100	0	230	101300000	1000	0	0	-1	250
10015275	7068	379	0	-100	0	230	101300000	1000	0	0	-1	250
10027835	7084	379	0	-100	0	230	101300000	1000	0	0	-1	250
10040395	7085	379	0	-100	0	230	101300000	1000	0	0	-1	250
10052955	7081	379	0	-100	0	230	101300000	1000	0	0	-1	250
10065515	7086	383	0	-100	0	230	101300000	1000	0	0	-1	250
10078075	7071	383	0	-100	0	230	101300000	1000	0	0	-1	250
10090635	7081	379	0	-100	0	230	101300000	1000	0	0	-1	250
10103195	7075	382	0	-100	0	230	101300000	1000	0	0	-1	250
10115755	7080	383	0	-100	0	230	101300000	1000	0	0	-1	250
10128315	7087	380	0	-100	0	230	101300000	1000	0	0	-1	250
10140875	7084	383	0	-100	0	230	101300000	1000	0	0	-1	250
10153435	7075	382	0	-100	0	230	101300000	1000	0	0	-1	250
10165995	7081	383	0	-100	0	230	101300000	1000	0	0	-1	250
10178555	7081	381	0	-100	0	230	101300000	1000	0	0	-1	250
10191115	7069	383	0	-100	0	230	101300000	1000	0	0	-1	250
10203675	7078	378	0	-100	0	230	101300000	1000	0	0	-1	250
10216235	7086	379	0	-100	0	230	101300000	1000	0	0	-1	250
10228795	7083	384	0	-100	0	230	101300000	1000	0	0	-1	250
10241355	7082	380	0	-100	0	230	101300000	1000	0	0	-1	250
10253915	7085	377	0	-100	0	230	101300000	1000	0	0	-1	250
10266475	7079	381	0	-100	0	230	101300000	1000	0	0	-1	250
10279035	7072	385	0	-100	0	230	101300000	1000	0	0	-1	250
10291595	7066	384	0	-100	0	230	101300000	1000	0	0	-1	250
10304155	7071	379	0	-100	0	230	101300000	1000	0	0	-1	250
10316715	7082	379	0	-100	0	230	101300000	1000	0	0	-1	250
10329275	7082	378	0	-100	0	230	101300000	1000	0	0	-1	250
10341835	7081	380	0	-100	0	230	101300000	1000	0	0	-1	250
10354395	7080	380	0	-100	0	230	101300000	1000	0	0	-1	250
10366955	7074	384	0	-100	0	230	101300000	1000	0	0	-1	250
10379515	7077	385	0	-100	0	230	101300000	1000	0	0	-1	250
10392075	7075	382	0	-100	0	230	101300000	1000	0	0	-1	250
10404635	7072	379	0	-100	0	230	101300000	1000	0	0	-1	250
10417195	7078	380	0	-100	0	230	101300000	1000	0	0	-1	250
10429755	7084	379	0	-100	0	230	101300000	1000	0	0	-1	250
10442315	7078	384	0	-100	0	230	101300000	1000	0	0	-1	250
10454875	7079	383	0	-100	0	230	101300000	1000	0	0	-1	250
10467435	7077	378	0	-100	0	230	101300000	1000	0	0	-1	250
10479995	7087	384	0	-100	0	230	101300000	1000	0	0	-1	250
10492555	7093	380	0	-100	0	230	101300000	1000	0	0	-1	250
10505115	7077	384	0	-100	0	230	101300000	1000	0	0	-1	250
10517675	7081	384	0	-100	0	230	101300000	1000	0	0	-1	250
10530235	7079	386	0	-100	0	230	101300000	1000	0	0	-1	250
10542795	7077	381	0	-100	0	230	101300000	1000	0	0	-1	250
10555355	7072	379	0	-100	0	230	101300000	1000	0	0	-1	250
10567915	7077	378	0	-100	0	230	101300000	1000	0	0	-1	250
10580475	7080	380	0	-100	0	230	101300000	1000	0	0	-1	250
10593035	7078	377	0	-100	0	230	101300000	1000	0	0	-1	250
10605595	7084	380	0	-100	0	230	101300000	1000	0	0	-1	250
10618155	7086	383	0	-100	0	230	101300000	1000	0	0	-1	250
10630715	7079	384	0	-100	0	230	101300000	1000	0	0	-1	250
10643275	7077	387	0	-100	0	230	101300000	1000	0	0	-1	250
10655835	7077	381	0	-100	0	230	101300000	1000	0	0	-1	250
10668395	7077	382	0	-100	0	230	101300000	1000	0	0	-1	250
10680955	7071	382	0	-100	0	230	101300000	1000	0	0	-1	250
10693515	7075	382	0	-100	0	230	101300000	1000	0	0	-1	250
10706075	7077	379	0	-100	0	230	101300000	1000	0	0	-1	250
10718635	7073	378	0	-100	0	230	101300000	1000	0	0	-1	250
10731195	7080	378	0	-100	0	230	101300000	1000	0	0	-1	250
10743755	7075	379	0	-100	0	230	101300000	1000	0	0	-1	250
10756315	7074	380	0	-100	0	230	101300000	1000	0	0	-1	250
10768875	7070	382	0	-100	0	230	101300000	1000	0	0	-1	250
10781435	7079	379	0	-100	0	230	101300000	1000	0	0	-1	250
10793995	7084	379	0	-100	0	230	101300000	1000	0	0	-1	250
10806555	7077	378	0	-100	0	230	101300000	1000	0	0	-1	250
10819115	7086	379	0	-100	0	230	101300000	1000	0	0	-1	250
10831675	7073	382	0	-100	0	230	101300000	1000	0	0	-1	250
10844235	7076	383	0	-100	0	230	101300000	1000	0	0	-1	250
10856795	7074	386	0	-100	0	230	101300000	1000	0	0	-1	250
10869355	7070	385	0	-100	0	230	101300000	1000	0	0	-1	250
10881915	7076	386	0	-100	0	230	101300000	1000	0	0	-1	250
10894475	7071	388	0	-100	0	230	101300000	1000	0	0	-1	250
10907035	7076	384	0	-100	0	230	101300000	1000	0	0	-1	250
10919595	6997	380	0	-100	0	230	101300000	1000	0	0	-1	250
10932155	6922	380	0	-100	0	230	101300000	1000	0	0	-1	250
10944715	6929	376	0	-100	0	230	101300000	1000	0	0	-1	250
10957275	6929	377	0	-100	0	230	101300000	1000	0	0	-1	250
10969835	6901	377	0	-100	0	230	101300000	1000	0	0	-1	250
10982395	6913	377	0	-100	0	230	101300000	1000	0	0	-1	250
10994955	6902	375	0	-100	0	230	101300000	1000	0	0	-1	250
11007515	6917	376	0	-100	0	230	101300000	1000	0	0	-1	250
11020075	6913	376	0	-100	0	230	101300000	1000	0	0	-1	250
11032635	6914	373	0	-100	0	230	101300000	1000	0	0	-1	250
11045195	6910	375	0	-100	0	230	101300000	1000	0	0	-1	250
11057755	6924	378	0	-100	0	230	101300000	1000	0	0	-1	250
11070315	6943	379	0	-100	0	230	101300000	1000	0	0	-1	250
11082875	6922	378	0	-100	0	230	101300000	1000	0	0	-1	250
11095435	6976	382	0	-100	0	230	101300000	1000	0	0	-1	250
11107995	7008	379	0	-100	0	230	101300000	1000	0	0	-1	250
11120555	6959	384	0	-100	0	230	101300000	1000	0	0	-1	250
11133115	6953	386	0	-100	0	230	101300000	1000	0	0	-1	250
11145675	6921	383	0	-100	0	230	101300000	1000	0	0	-1	250
11158235	6921	379	0	-100	0	230	101300000	1000	0	0	-1	250
11170795	6910	375	0	-100	0	230	101300000	1000	0	0	-1	250
11183355	6912	376	0	-100	0	230	101300000	1000	0	0	-1	250
11195915	6900	376	0	-100	0	230	101300000	1000	0	0	-1	250
11208475	6908	378	0	-100	0	230	101300000	1000	0	0	-1	250
11221035	6919	378	0	-100	0	230	101300000	1000	0	0	-1	250
11233595	6979	380	0	-100	0	230	101300000	1000	0	0	-1	250
11246155	6917	384	0	-100	0	230	101300000	1000	0	0	-1	250
11258715	6862	381	0	-100	0	230	101300000	1000	0	0	-1	250
11271275	6886	382	0	-100	0	230	101300000	1000	0	0	-1	250
11283835	6915	377	0	-100	0	230	101300000	1000	0	0	-1	250
11296395	6910	375	0	-100	0	230	101300000	1000	0	0	-1	250
11308955	6915	374	0	-100	0	230	101300000	1000	0	0	-1	250
11321515	6939	377	0	-100	0	230	101300000	1000	0	0	-1	250
11334075	6922	383	0	-100	0	230	101300000	1000	0	0	-1	250
11346635	6878	383	0	-100	0	230	101300000	1000	0	0	-1	250
11359195	6859	383	0	-100	0	230	101300000	1000	0	0	-1	250
11371755	6910	379	0	-100	0	230	101300000	1000	0	0	-1	250
11384315	6923	376	0	-100	0	230	101300000	1000	0	0	-1	250
11396875	6929	375	0	-100	0	230	101300000	1000	0	0	-1	250
11409435	6916	379	0	-100	0	230	101300000	1000	0	0	-1	250
11421995	6971	378	0	-100	0	230	101300000	1000	0	0	-1	250
11434555	6919	377	0	-100	0	230	101300000	1000	0	0	-1	250
11447115	6969	378	0	-100	0	230	101300000	1000	0	0	-1	250
11459675	6889	384	0	-100	0	230	101300000	1000	0	0	-1	250
11472235	6891	380	0	-100	0	230	101300000	1000	0	0	-1	250
11484795	6917	376	0	-100	0	230	101300000	1000	0	0	-1	250
11497355	6924	378	0	-100	0	230	101300000	1000	0	0	-1	250
11509915	6902	383	0	-100	0	230	101300000	1000	0	0	-1	250
11522475	6910	379	0	-100	0	230	101300000	1000	0	0	-1	250
11535035	6949	379	0	-100	0	230	101300000	1000	0	0	-1	250
11547595	6919	383	0	-100	0	230	101300000	1000	0	0	-1	250
11560155	6908	382	0	-100	0	230	101300000	1000	0	0	-1	250
11572715	6973	376	0	-100	0	230	101300000	1000	0	0	-1	250
11585275	6936	378	0	-100	0	230	101300000	1000	0	0	-1	250
11597835	6903	383	0	-100	0	230	101300000	1000	0	0	-1	250
11610395	6891	382	0	-100	0	230	101300000	1000	0	0	-1	250
11622955	6905	377	0	-100	0	230	101300000	1000	0	0	-1	250
11635515	6899	378	0	-100	0	230	101300000	1000	0	0	-1	250
11648075	6952	384	0	-100	0	230	101300000	1000	0	0	-1	250
11660635	6905	378	0	-100	0	230	101300000	1000	0	0	-1	250
11673195	6889	378	0	-100	0	230	101300000	1000	0	0	-1	250
11685755	6907	379	0	-100	0	230	101300000	1000	0	0	-1	250
11698315	6915	386	0	-100	0	230	101300000	1000	0	0	-1	250
11710875	6902	376	0	-100	0	230	101300000	1000	0	0	-1	250
11723435	6868	377	0	-100	0	230	101300000	1000	0	0	-1	250
11735995	6906	376	0	-100	0	230	101300000	1000	0	0	-1	250
11748555	6924	384	0	-100	0	230	101300000	1000	0	0	-1	250
11761115	6911	378	0	-100	0	230	101300000	1000	0	0	-1	250
11773675	6917	376	0	-100	0	230	101300000	1000	0	0	-1	250
11786235	6934	379	0	-100	0	230	101300000	1000	0	0	-1	250
11798795	6921	385	0	-100	0	230	101300000	1000	0	0	-1	250
11811355	6906	382	0	-100	0	230	101300000	1000	0	0	-1	250
11823915	6935	377	0	-100	0	230	101300000	1000	0	0	-1	250
11836475	6942	379	0	-100	0	230	101300000	1000	0	0	-1	250
11849035	6919	384	0	-100	0	230	101300000	1000	0	0	-1	250
11861595	6913	380	0	-100	0	230	101300000	1000	0	0	-1	250
11874155	6893	376	0	-100	0	230	101300000	1000	0	0	-1	250
11886715	6910	375	0	-100	0	230	101300000	1000	0	0	-1	250
11899275	6922	375	0	-100	0	230	101300000	1000	0	0	-1	250
11911835	6914	375	0	-100	0	230	101300000	1000	0	0	-1	250
11924395	6942	379	0	-100	0	230	101300000	1000	0	0	-1	250
11936955	6880	383	0	-100	0	230	101300000	1000	0	0	-1	250
11949515	6921	386	0	-100	0	230	101300000	1000	0	0	-1	250
11962075	6904	381	0	-100	0	230	101300000	1000	0	0	-1	250
11974635	6897	378	0	-100	0	230	101300000	1000	0	0	-1	250
11987195	6896	375	0	-100	0	230	101300000	1000	0	0	-1	250
11999755	6880	381	0	-100	0	230	101300000	1000	0	0	-1	250
12012315	6914	386	0	-100	0	230	101300000	1000	0	0	-1	250
12024875	6919	383	0	-100	0	230	101300000	1000	0	0	-1	250
12037435	6920	379	0	-100	0	230	101300000	1000	0	0	-1	250
12049995	6908	377	0	-100	0	230	101300000	1000	0	0	-1	250
12062555	6884	378	0	-100	0	230	101300000	1000	0	0	-1	250
12075115	6918	378	0	-100	0	230	101300000	1000	0	0	-1	250
12087675	6924	378	0	-100	0	230	101300000	1000	0	0	-1	250
12100235	6947	375	0	-100	0	230	101300000	1000	0	0	-1	250
12112795	6897	377	0	-100	0	230	101300000	1000	0	0	-1	250
12125355	6920	379	0	-100	0	230	101300000	1000	0	0	-1	250
12137915	6922	379	0	-100	0	230	101300000	1000	0	0	-1	250
12150475	6925	380	0	-100	0	230	101300000	1000	0	0	-1	250
12163035	6909	382	0	-100	0	230	101300000	1000	0	0	-1	250
12175595	6913	384	0	-100	0	230	101300000	1000	0	0	-1	250
12188155	6909	383	0	-100	0	230	101300000	1000	0	0	-1	250
12200715	6903	382	0	-100	0	230	101300000	1000	0	0	-1	250
12213275	6919	379	0	-100	0	230	101300000	1000	0	0	-1	250
12225835	6936	379	0	-100	0	230	101300000	1000	0	0	-1	250
12238395	6931	377	0	-100	0	230	101300000	1000	0	0	-1	250
12250955	6910	376	0	-100	0	230	101300000	1000	0	0	-1	250
12263515	6960	377	0	-100	0	230	101300000	1000	0	0	-1	250
12276075	6898	378	0	-100	0	230	101300000	1000	0	0	-1	250
12288635	6918	377	0	-100	0	230	101300000	1000	0	0	-1	250
12301195	6902	374	0	-100	0	230	101300000	1000	0	0	-1	250
12313755	6892	377	0	-100	0	230	101300000	1000	0	0	-1	250
12326315	6899	379	0	-100	0	230	101300000	1000	0	0	-1	250
12338875	6892	383	0	-100	0	230	101300000	1000	0	0	-1	250
12351435	6908	381	0	-100	0	230	101300000	1000	0	0	-1	250
12363995	6920	380	0	-100	0	230	101300000	1000	0	0	-1	250
12376555	6907	376	0	-100	0	230	101300000	1000	0	0	-1	250
12389115	6922	374	0	-100	0	230	101300000	1000	0	0	-1	250
12401675	6913	378	0	-100	0	230	101300000	1000	0	0	-1	250
12414235	6929	381	0	-100	0	230	101300000	1000	0	0	-1	250
12426795	6917	384	0	-100	0	230	101300000	1000	0	0	-1	250
12439355	6868	384	0	-100	0	230	101300000	1000	0	0	-1	250
12451915	6905	380	0	-100	0	230	101300000	1000	0	0	-1	250
12464475	6903	378	0	-100	0	230	101300000	1000	0	0	-1	250
12477035	6928	375	0	-100	0	230	101300000	1000	0	0	-1	250
12489595	6908	382	0	-100	0	230	101300000	1000	0	0	-1	250
12502155	6928	385	0	-100	0	230	101300000	1000	0	0	-1	250
12514715	6942	378	0	-100	0	230	101300000	1000	0	0	-1	250
12527275	6999	378	0	-100	0	230	101300000	1000	0	0	-1	250
12539835	7059	381	0	-100	0	230	101300000	1000	0	0	-1	250
12552395	7072	387	0	-100	0	230	101300000	1000	0	0	-1	250
12564955	7066	377	0	-100	0	230	101300000	1000	0	0	-1	250
12577515	7079	380	0	-100	0	230	101300000	1000	0	0	-1	250
12590075	7074	385	0	-100	0	230	101300000	1000	0	0	-1	250
12602635	7078	379	0	-100	0	230	101300000	1000	0	0	-1	250
12615195	7081	381	0	-100	0	230	101300000	1000	0	0	-1	250
12627755	7072	385	0	-100	0	230	101300000	1000	0	0	-1	250
12640315	7072	378	0	-100	0	230	101300000	1000	0	0	-1	250
12652875	7079	383	0	-100	0	230	101300000	1000	0	0	-1	250
12665435	7075	387	0	-100	0	230	101300000	1000	0	0	-1	250
12677995	7077	379	0	-100	0	230	101300000	1000	0	0	-1	250
12690555	7082	379	0	-100	0	230	101300000	1000	0	0	-1	250
12703115	7074	385	0	-100	0	230	101300000	1000	0	0	-1	250
12715675	7070	380	0	-100	0	230	101300000	1000	0	0	-1	250
12728235	7077	376	0	-100	0	230	101300000	1000	0	0	-1	250
12740795	7068	384	0	-100	0	230	101300000	1000	0	0	-1	250
12753355	7071	379	0	-100	0	230	101300000	1000	0	0	-1	250
12765915	7075	376	0	-100	0	230	101300000	1000	0	0	-1	250
12778475	7068	384	0	-100	0	230	101300000	1000	0	0	-1	250
12791035	7068	382	0	-100	0	230	101300000	1000	0	0	-1	250
12803595	7079	379	0	-100	0	230	101300000	1000	0	0	-1	250
12816155	7076	380	0	-100	0	230	101300000	1000	0	0	-1	250
12828715	7071	383	0	-100	0	230	101300000	1000	0	0	-1	250
12841275	7077	379	0	-100	0	230	101300000	1000	0	0	-1	250
12853835	7072	383	0	-100	0	230	101300000	1000	0	0	-1	250
12866395	7076	386	0	-100	0	230	101300000	1000	0	0	-1	250
12878955	7075	378	0	-100	0	230	101300000	1000	0	0	-1	250
12891515	7076	377	0	-100	0	230	101300000	1000	0	0	-1	250
12904075	7068	383	0	-100	0	230	101300000	1000	0	0	-1	250
12916635	7066	378	0	-100	0	230	101300000	1000	0	0	-1	250
12929195	7074	381	0	-100	0	230	101300000	1000	0	0	-1	250
12941755	7077	384	0	-100	0	230	101300000	1000	0	0	-1	250
12954315	7068	383	0	-100	0	230	101300000	1000	0	0	-1	250
12966875	7080	379	0	-100	0	230	101300000	1000	0	0	-1	250
12979435	7080	378	0	-100	0	230	101300000	1000	0	0	-1	250
12991995	7070	382	0	-100	0	230	101300000	1000	0	0	-1	250
13004555	7075	383	0	-100	0	230	101300000	1000	0	0	-1	250
13017115	7080	377	0	-100	0	230	101300000	1000	0	0	-1	250
13029675	7068	382	0	-100	0	230	101300000	1000	0	0	-1	250
13042235	7075	382	0	-100	0	230	101300000	1000	0	0	-1	250
13054795	7077	379	0	-100	0	230	101300000	1000	0	0	-1	250
13067355	7075	378	0	-100	0	230	101300000	1000	0	0	-1	250
13079915	7074	384	0	-100	0	230	101300000	1000	0	0	-1	250
13092475	7076	385	0	-100	0	230	101300000	1000	0	0	-1	250
13105035	7081	384	0	-100	0	230	101300000	1000	0	0	-1	250
13117595	7079	383	0	-100	0	230	101300000	1000	0	0	-1	250
13130155	7072	378	0	-100	0	230	101300000	1000	0	0	-1	250
13142715	7082	380	0	-100	0	230	101300000	1000	0	0	-1	250
13155275	7088	380	0	-100	0	230	101300000	1000	0	0	-1	250
13167835	7072	382	0	-100	0	230	101300000	1000	0	0	-1	250
13180395	7074	386	0	-100	0	230	101300000	1000	0	0	-1	250
13192955	7071	382	0	-100	0	230	101300000	1000	0	0	-1	250
13205515	7077	379	0	-100	0	230	101300000	1000	0	0	-1	250
13218075	7085	380	0	-100	0	230	101300000	1000	0	0	-1	250
13230635	7070	383	0	-100	0	230	101300000	1000	0	0	-1	250
13243195	7076	384	0	-100	0	230	101300000	1000	0	0	-1	250
13255755	7076	379	0	-100	0	230	101300000	1000	0	0	-1	250
13268315	7080	376	0	-100	0	230	101300000	1000	0	0	-1	250
13280875	7070	383	0	-100	0	230	101300000	1000	0	0	-1	250
13293435	7074	387	0	-100	0	230	101300000	1000	0	0	-1	250
13305995	7079	384	0	-100	0	230	101300000	1000	0	0	-1	250
13318555	7078	379	0	-100	0	230	101300000	1000	0	0	-1	250
13331115	7084	379	0	-100	0	230	101300000	1000	0	0	-1	250
13343675	7076	383	0	-100	0	230	101300000	1000	0	0	-1	250
13356235	7078	384	0	-100	0	230	101300000	1000	0	0	-1	250
13368795	7079	379	0	-100	0	230	101300000	1000	0	0	-1	250
13381355	7076	379	0	-100	0	230	101300000	1000	0	0	-1	250
13393915	7072	385	0	-100	0	230	101300000	1000	0	0	-1	250
13406475	7070	382	0	-100	0	230	101300000	1000	0	0	-1	250
13419035	7078	378	0	-100	0	230	101300000	1000	0	0	-1	250
13431595	7072	387	0	-100	0	230	101300000	1000	0	0	-1	250
13444155	7070	378	0	-100	0	230	101300000	1000	0	0	-1	250
13456715	7080	377	0	-100	0	230	101300000	1000	0	0	-1	250
13469275	7074	383	0	-100	0	230	101300000	1000	0	0	-1	250
13481835	7079	387	0	-100	0	230	101300000	1000	0	0	-1	250
13494395	7071	379	0	-100	0	230	101300000	1000	0	0	-1	250
13506955	7082	378	0	-100	0	230	101300000	1000	0	0	-1	250
13519515	7067	386	0	-100	0	230	101300000	1000	0	0	-1	250
13532075	7065	379	0	-100	0	230	101300000	1000	0	0	-1	250
13544635	7077	376	0	-100	0	230	101300000	1000	0	0	-1	250
13557195	7070	384	0	-100	0	230	101300000	1000	0	0	-1	250
13569755	7069	383	0	-100	0	230	101300000	1000	0	0	-1	250
13582315	7077	380	0	-100	0	230	101300000	1000	0	0	-1	250
13594875	7081	380	0	-100	0	230	101300000	1000	0	0	-1	250
13607435	7082	382	0	-100	0	230	101300000	1000	0	0	-1	250
13619995	7074	382	0	-100	0	230	101300000	1000	0	0	-1	250
13632555	7074	383	0	-100	0	230	101300000	1000	0	0	-1	250
13645115	7075	383	0	-100	0	230	101300000	1000	0	0	-1	250
13657675	7074	380	0	-100	0	230	101300000	1000	0	0	-1	250
13670235	7082	378	0	-100	0	230	101300000	1000	0	0	-1	250
13682795	7088	382	0	-100	0	230	101300000	1000	0	0	-1	250
13695355	7074	387	0	-100	0	230	101300000	1000	0	0	-1	250
13707915	7077	378	0	-100	0	230	101300000	1000	0	0	-1	250
13720475	7080	376	0	-100	0	230	101300000	1000	0	0	-1	250
13733035	7074	387	0	-100	0	230	101300000	1000	0	0	-1	250
13745595	7075	378	0	-100	0	230	101300000	1000	0	0	-1	250
13758155	7069	384	0	-100	0	230	101300000	1000	0	0	-1	250
13770715	7074	379	0	-100	0	230	101300000	1000	0	0	-1	250
13783275	7076	379	0	-100	0	230	101300000	1000	0	0	-1	250
13795835	7069	382	0	-100	0	230	101300000	1000	0	0	-1	250
13808395	7078	377	0	-100	0	230	101300000	1000	0	0	-1	250
13820955	7072	387	0	-100	0	230	101300000	1000	0	0	-1	250
13833515	7071	379	0	-100	0	230	101300000	1000	0	0	-1	250
13846075	7069	387	0	-100	0	230	101300000	1000	0	0	-1	250
13858635	7071	378	0	-100	0	230	101300000	1000	0	0	-1	250
13871195	7076	386	0	-100	0	230	101300000	1000	0	0	-1	250
13883755	7072	378	0	-100	0	230	101300000	1000	0	0	-1	250
13896315	7070	381	0	-100	0	230	101300000	1000	0	0	-1	250
13908875	7068	382	0	-100	0	230	101300000	1000	0	0	-1	250
13921435	7079	377	0	-100	0	230	101300000	1000	0	0	-1	250
13933995	7070	377	0	-100	0	230	101300000	1000	0	0	-1	250
13946555	7077	379	0	-100	0	230	101300000	1000	0	0	-1	250
13959115	7077	378	0	-100	0	230	101300000	1000	0	0	-1	250
13971675	7068	385	0	-100	0	230	101300000	1000	0	0	-1	250
13984235	7070	383	0	-100	0	230	101300000	1000	0	0	-1	250
13996795	7084	379	0	-100	0	230	101300000	1000	0	0	-1	250
14009355	7075	385	0	-100	0	230	101300000	1000	0	0	-1	250
14021915	7074	382	0	-100	0	230	101300000	1000	0	0	-1	250
14034475	7075	375	0	-100	0	230	101300000	1000	0	0	-1	250
14047035	7079	385	0	-100	0	230	101300000	1000	0	0	-1	250
14059595	7072	378	0	-100	0	230	101300000	1000	0	0	-1	250
14072155	7072	378	0	-100	0	230	101300000	1000	0	0	-1	250
14084715	7076	383	0	-100	0	230	101300000	1000	0	0	-1	250
14097275	7074	382	0	-100	0	230	101300000	1000	0	0	-1	250
14109835	7077	377	0	-100	0	230	101300000	1000	0	0	-1	250
14122395	7082	380	0	-100	0	230	101300000	1000	0	0	-1	250
14134955	7077	381	0	-100	0	230	101300000	1000	0	0	-1	250
14147515	7067	383	0	-100	0	230	101300000	1000	0	0	-1	250
14160075	7079	386	0	-100	0	230	101300000	1000	0	0	-1	250
14172635	7076	382	0	-100	0	230	101300000	1000	0	0	-1	250
14185195	7071	381	0	-100	0	230	101300000	1000	0	0	-1	250
14197755	7072	379	0	-100	0	230	101300000	1000	0	0	-1	250
14210315	7071	378	0	-100	0	230	101300000	1000	0	0	-1	250
14222875	7080	378	0	-100	0	230	101300000	1000	0	0	-1	250
14235435	7076	381	0	-100	0	230	101300000	1000	0	0	-1	250
14247995	7071	378	0	-100	0	230	101300000	1000	0	0	-1	250
14260555	7071	385	0	-100	0	230	101300000	1000	0	0	-1	250
14273115	7074	385	0	-100	0	230	101300000	1000	0	0	-1	250
14285675	7071	383	0	-100	0	230	101300000	1000	0	0	-1	250
14298235	7077	378	0	-100	0	230	101300000	1000	0	0	-1	250
14310795	7082	380	0	-100	0	230	101300000	1000	0	0	-1	250
14323355	7080	378	0	-100	0	230	101300000	1000	0	0	-1	250
14335915	7080	381	0	-100	0	230	101300000	1000	0	0	-1	250
14348475	7074	383	0	-100	0	230	101300000	1000	0	0	-1	250
14361035	7074	386	0	-100	0	230	101300000	1000	0	0	-1	250
14373595	7067	383	0	-100	0	230	101300000	1000	0	0	-1	250
14386155	7076	379	0	-100	0	230	101300000	1000	0	0	-1	250
14398715	7086	380	0	-100	0	230	101300000	1000	0	0	-1	250
14411275	7079	375	0	-100	0	230	101300000	1000	0	0	-1	250
14423835	7075	377	0	-100	0	230	101300000	1000	0	0	-1	250
14436395	7077	381	0	-100	0	230	101300000	1000	0	0	-1	250
14448955	7074	382	0	-100	0	230	101300000	1000	0	0	-1	250
14461515	7075	383	0	-100	0	230	101300000	1000	0	0	-1	250
14474075	7072	386	0	-100	0	230	101300000	1000	0	0	-1	250
14486635	7060	383	0	-100	0	230	101300000	1000	0	0	-1	250
14499195	7079	378	0	-100	0	230	101300000	1000	0	0	-1	250
14511755	7084	379	0	-100	0	230	101300000	1000	0	0	-1	250
14524315	7084	379	0	-100	0	230	101300000	1000	0	0	-1	250
14536875	7075	383	0	-100	0	230	101300000	1000	0	0	-1	250
14549435	7074	386	0	-100	0	230	101300000	1000	0	0	-1	250
14561995	7061	377	0	-100	0	230	101300000	1000	0	0	-1	250
14574555	7072	379	0	-100	0	230	101300000	1000	0	0	-1	250
14587115	7084	378	0	-100	0	230	101300000	1000	0	0	-1	250
14599675	7072	382	0	-100	0	230	101300000	1000	0	0	-1	250
14612235	7075	386	0	-100	0	230	101300000	1000	0	0	-1	250
14624795	7068	382	0	-100	0	230	101300000	1000	0	0	-1	250
14637355	7075	378	0	-100	0	230	101300000	1000	0	0	-1	250
14649915	7077	377	0	-100	0	230	101300000	1000	0	0	-1	250
14662475	7074	382	0	-100	0	230	101300000	1000	0	0	-1	250
14675035	7072	386	0	-100	0	230	101300000	1000	0	0	-1	250
14687595	7073	387	0	-100	0	230	101300000	1000	0	0	-1	250
14700155	7070	383	0	-100	0	230	101300000	1000	0	0	-1	250
14712715	7073	378	0	-100	0	230	101300000	1000	0	0	-1	250
14725275	7078	377	0	-100	0	230	101300000	1000	0	0	-1	250
14737835	7074	382	0	-100	0	230	101300000	1000	0	0	-1	250
14750395	7081	387	0	-100	0	230	101300000	1000	0	0	-1	250
14762955	7077	379	0	-100	0	230	101300000	1000	0	0	-1	250
14775515	7069	378	0	-100	0	230	101300000	1000	0	0	-1	250
14788075	7076	383	0	-100	0	230	101300000	1000	0	0	-1	250
14800635	7072	382	0	-100	0	230	101300000	1000	0	0	-1	250
14813195	7082	379	0	-100	0	230	101300000	1000	0	0	-1	250
14825755	7079	380	0	-100	0	230	101300000	1000	0	0	-1	250
14838315	7071	387	0	-100	0	230	101300000	1000	0	0	-1	250
14850875	7072	380	0	-100	0	230	101300000	1000	0	0	-1	250
14863435	7084	377	0	-100	0	230	101300000	1000	0	0	-1	250
14875995	7080	385	0	-100	0	230	101300000	1000	0	0	-1	250
14888555	7074	386	0	-100	0	230	101300000	1000	0	0	-1	250
14901115	7077	380	0	-100	0	230	101300000	1000	0	0	-1	250
14913675	7076	378	0	-100	0	230	101300000	1000	0	0	-1	250
14926235	7080	380	0	-100	0	230	101300000	1000	0	0	-1	250
14938795	7072	383	0	-100	0	230	101300000	1000	0	0	-1	250
14951355	7061	382	0	-100	0	230	101300000	1000	0	0	-1	250
14963915	7074	379	0	-100	0	230	101300000	1000	0	0	-1	250
14976475	7084	380	0	-100	0	230	101300000	1000	0	0	-1	250
14989035	7079	383	0	-100	0	230	101300000	1000	0	0	-1	250
15001595	7068	382	0	-100	0	230	101300000	1000	0	0	-1	250
15014155	7080	380	0	-100	0	230	101300000	1000	0	0	-1	250
15026715	7082	380	0	-100	0	230	101300000	1000	0	0	-1	250
15039275	7074	381	0	-100	0	230	101300000	1000	0	0	-1	250
15051835	7072	385	0	-100	0	230	101300000	1000	0	0	-1	250
15064395	7065	382	0	-100	0	230	101300000	1000	0	0	-1	250
15076955	7072	378	0	-100	0	230	101300000	1000	0	0	-1	250
15089515	7078	378	0	-100	0	230	101300000	1000	0	0	-1	250
15102075	7074	383	0	-100	0	230	101300000	1000	0	0	-1	250
15114635	7069	383	0	-100	0	230	101300000	1000	0	0	-1	250
15127195	7079	378	0	-100	0	230	101300000	1000	0	0	-1	250
15139755	7082	378	0	-100	0	230	101300000	1000	0	0	-1	250
15152315	7076	381	0	-100	0	230	101300000	1000	0	0	-1	250
15164875	7072	383	0	-100	0	230	101300000	1000	0	0	-1	250
15177435	7074	386	0	-100	0	230	101300000	1000	0	0	-1	250
15189995	7069	378	0	-100	0	230	101300000	1000	0	0	-1	250
15202555	7070	378	0	-100	0	230	101300000	1000	0	0	-1	250
15215115	7072	375	0	-100	0	230	101300000	1000	0	0	-1	250
15227675	7082	379	0	-100	0	230	101300000	1000	0	0	-1	250
15240235	7075	383	0	-100	0	230	101300000	1000	0	0	-1	250
15252795	7083	387	0	-100	0	230	101300000	1000	0	0	-1	250
15265355	7077	379	0	-100	0	230	101300000	1000	0	0	-1	250
15277915	7072	379	0	-100	0	230	101300000	1000	0	0	-1	250
15290475	7077	385	0	-100	0	230	101300000	1000	0	0	-1	250
15303035	7073	377	0	-100	0	230	101300000	1000	0	0	-1	250
15315595	7084	379	0	-100	0	230	101300000	1000	0	0	-1	250
15328155	7072	386	0	-100	0	230	101300000	1000	0	0	-1	250
15340715	7074	378	0	-100	0	230	101300000	1000	0	0	-1	250
15353275	7082	380	0	-100	0	230	101300000	1000	0	0	-1	250
15365835	7074	384	0	-100	0	230	101300000	1000	0	0	-1	250
15378395	7067	383	0	-100	0	230	101300000	1000	0	0	-1	250
15390955	7073	379	0	-100	0	230	101300000	1000	0	0	-1	250
15403515	7075	382	0	-100	0	230	101300000	1000	0	0	-1	250
15416075	7072	382	0	-100	0	230	101300000	1000	0	0	-1	250
15428635	7075	378	0	-100	0	230	101300000	1000	0	0	-1	250
15441195	7079	377	0	-100	0	230	101300000	1000	0	0	-1	250
15453755	7074	386	0	-100	0	230	101300000	1000	0	0	-1	250
15466315	7066	382	0	-100	0	230	101300000	1000	0	0	-1	250
15478875	7075	378	0	-100	0	230	101300000	1000	0	0	-1	250
15491435	7082	378	0	-100	0	230	101300000	1000	0	0	-1	250
15503995	7067	379	0	-100	0	230	101300000	1000	0	0	-1	250
15516555	7072	381	0	-100	0	230	101300000	1000	0	0	-1	250
15529115	7078	376	0	-100	0	230	101300000	1000	0	0	-1	250
15541675	7073	385	0	-100	0	230	101300000	1000	0	0	-1	250
15554235	7068	383	0	-100	0	230	101300000	1000	0	0	-1	250
15566795	7073	377	0	-100	0	230	101300000	1000	0	0	-1	250
15579355	7070	383	0	-100	0	230	101300000	1000	0	0	-1	250
15591915	7066	383	0	-100	0	230	101300000	1000	0	0	-1	250
15604475	7075	378	0	-100	0	230	101300000	1000	0	0	-1	250
15617035	7068	384	0	-100	0	230	101300000	1000	0	0	-1	250
15629595	7070	381	0	-100	0	230	101300000	1000	0	0	-1	250
15642155	7075	376	0	-100	0	230	101300000	1000	0	0	-1	250
15654715	7065	382	0	-100	0	230	101300000	1000	0	0	-1	250
15667275	7073	381	0	-100	0	230	101300000	1000	0	0	-1	250
15679835	7077	378	0	-100	0	230	101300000	1000	0	0	-1	250
15692395	7082	379	0	-100	0	230	101300000	1000	0	0	-1	250
15704955	7078	386	0	-100	0	230	101300000	1000	0	0	-1	250
15717515	7077	382	0	-100	0	230	101300000	1000	0	0	-1	250
15730075	7086	378	0	-100	0	230	101300000	1000	0	0	-1	250
15742635	7079	382	0	-100	0	230	101300000	1000	0	0	-1	250
15755195	7077	382	0	-100	0	230	101300000	1000	0	0	-1	250
15767755	7072	378	0	-100	0	230	101300000	1000	0	0	-1	250
15780315	7073	378	0	-100	0	230	101300000	1000	0	0	-1	250
15792875	7072	381	0	-100	0	230	101300000	1000	0	0	-1	250
15805435	7077	385	0	-100	0	230	101300000	1000	0	0	-1	250
15817995	7072	378	0	-100	0	230	101300000	1000	0	0	-1	250
15830555	7081	378	0	-100	0	230	101300000	1000	0	0	-1	250
15843115	7075	386	0	-100	0	230	101300000	1000	0	0	-1	250
15855675	7078	378	0	-100	0	230	101300000	1000	0	0	-1	250
15868235	7070	382	0	-100	0	230	101300000	1000	0	0	-1	250
15880795	7074	383	0	-100	0	230	101300000	1000	0	0	-1	250
15893355	7075	379	0	-100	0	230	101300000	1000	0	0	-1	250
15905915	7071	384	0	-100	0	230	101300000	1000	0	0	-1	250
15918475	7075	382	0	-100	0	230	101300000	1000	0	0	-1	250
15931035	7082	378	0	-100	0	230	101300000	1000	0	0	-1	250
15943595	7072	383	0	-100	0	230	101300000	1000	0	0	-1	250
15956155	7068	382	0	-100	0	230	101300000	1000	0	0	-1	250
15968715	7080	378	0	-100	0	230	101300000	1000	0	0	-1	250
15981275	7078	381	0	-100	0	230	101300000	1000	0	0	-1	250
15993835	7068	382	0	-100	0	230	101300000	1000	0	0	-1	250
16006395	7075	376	0	-100	0	230	101300000	1000	0	0	-1	250
16018955	7066	384	0	-100	0	230	101300000	1000	0	0	-1	250
16031515	7072	379	0	-100	0	230	101300000	1000	0	0	-1	250
16044075	7082	379	0	-100	0	230	101300000	1000	0	0	-1	250
16056635	7085	380	0	-100	0	230	101300000	1000	0	0	-1	250
16069195	7068	385	0	-100	0	230	101300000	1000	0	0	-1	250
16081755	7074	381	0	-100	0	230	101300000	1000	0	0	-1	250
16094315	7077	378	0	-100	0	230	101300000	1000	0	0	-1	250
16106875	7079	379	0	-100	0	230	101300000	1000	0	0	-1	250
16119435	7082	376	0	-100	0	230	101300000	1000	0	0	-1	250
16131995	7080	383	0	-100	0	230	101300000	1000	0	0	-1	250
16144555	7076	385	0	-100	0	230	101300000	1000	0	0	-1	250
16157115	7077	378	0	-100	0	230	101300000	1000	0	0	-1	250
16169675	7079	380	0	-100	0	230	101300000	1000	0	0	-1	250
16182235	7071	379	0	-100	0	230	101300000	1000	0	0	-1	250
16194795	7080	379	0	-100	0	230	101300000	1000	0	0	-1	250
16207355	7078	377	0	-100	0	230	101300000	1000	0	0	-1	250
16219915	7082	381	0	-100	0	230	101300000	1000	0	0	-1	250
16232475	7084	380	0	-100	0	230	101300000	1000	0	0	-1	250
16245035	7086	378	0	-100	0	230	101300000	1000	0	0	-1	250
16257595	7070	383	0	-100	0	230	101300000	1000	0	0	-1	250
16270155	7073	383	0	-100	0	230	101300000	1000	0	0	-1	250
16282715	7074	384	0	-100	0	230	101300000	1000	0	0	-1	250
16295275	7074	384	0	-100	0	230	101300000	1000	0	0	-1	250
16307835	7079	388	0	-100	0	230	101300000	1000	0	0	-1	250
16320395	7072	382	0	-100	0	230	101300000	1000	0	0	-1	250
16332955	7074	378	0	-100	0	230	101300000	1000	0	0	-1	250
16345515	7072	378	0	-100	0	230	101300000	1000	0	0	-1	250
16358075	7074	379	0	-100	0	230	101300000	1000	0	0	-1	250
16370635	7075	375	0	-100	0	230	101300000	1000	0	0	-1	250
16383195	7084	378	0	-100	0	230	101300000	1000	0	0	-1	250
16395755	7076	383	0	-100	0	230	101300000	1000	0	0	-1	250
16408315	7072	386	0	-100	0	230	101300000	1000	0	0	-1	250
16420875	7070	383	0	-100	0	230	101300000	1000	0	0	-1	250
16433435	7072	379	0	-100	0	230	101300000	1000	0	0	-1	250
16445995	7075	382	0	-100	0	230	101300000	1000	0	0	-1	250
16458555	7075	378	0	-100	0	230	101300000	1000	0	0	-1	250
16471115	7079	381	0	-100	0	230	101300000	1000	0	0	-1	250
16483675	7076	383	0	-100	0	230	101300000	1000	0	0	-1	250
16496235	7083	386	0	-100	0	230	101300000	1000	0	0	-1	250
16508795	7077	387	0	-100	0	230	101300000	1000	0	0	-1	250
16521355	7071	382	0	-100	0	230	101300000	1000	0	0	-1	250
16533915	7071	380	0	-100	0	230	101300000	1000	0	0	-1	250
16546475	7070	378	0	-100	0	230	101300000	1000	0	0	-1	250
16559035	7074	378	0	-100	0	230	101300000	1000	0	0	-1	250
16571595	7072	378	0	-100	0	230	101300000	1000	0	0	-1	250
16584155	7068	378	0	-100	0	230	101300000	1000	0	0	-1	250
16596715	7077	378	0	-100	0	230	101300000	1000	0	0	-1	250
16609275	7082	379	0	-100	0	230	101300000	1000	0	0	-1	250
16621835	7081	377	0	-100	0	230	101300000	1000	0	0	-1	250
16634395	7080	379	0	-100	0	230	101300000	1000	0	0	-1	250
16646955	7081	381	0	-100	0	230	101300000	1000	0	0	-1	250
16659515	7084	381	0	-100	0	230	101300000	1000	0	0	-1	250
16672075	7070	383	0	-100	0	230	101300000	1000	0	0	-1	250
16684635	7071	383	0	-100	0	230	101300000	1000	0	0	-1	250
16697195	7072	381	0	-100	0	230	101300000	1000	0	0	-1	250
16709755	7072	382	0	-100	0	230	101300000	1000	0	0	-1	250
16722315	7077	379	0	-100	0	230	101300000	1000	0	0	-1	250
16734875	7070	380	0	-100	0	230	101300000	1000	0	0	-1	250
16747435	7072	384	0	-100	0	230	101300000	1000	0	0	-1	250
16759995	7078	384	0	-100	0	230	101300000	1000	0	0	-1	250
16772555	7070	387	0	-100	0	230	101300000	1000	0	0	-1	250
16785115	7076	385	0	-100	0	230	101300000	1000	0	0	-1	250
16797675	7072	386	0	-100	0	230	101300000	1000	0	0	-1	250
16810235	7076	384	0	-100	0	230	101300000	1000	0	0	-1	250
16822795	7081	386	0	-100	0	230	101300000	1000	0	0	-1	250
16835355	7072	385	0	-100	0	230	101300000	1000	0	0	-1	250
16847915	7070	381	0	-100	0	230	101300000	1000	0	0	-1	250
16860475	7081	381	0	-100	0	230	101300000	1000	0	0	-1	250
16873035	7075	381	0	-100	0	230	101300000	1000	0	0	-1	250
16885595	7081	381	0	-100	0	230	101300000	1000	0	0	-1	250
16898155	7072	380	0	-100	0	230	101300000	1000	0	0	-1	250
16910715	7074	381	0	-100	0	230	101300000	1000	0	0	-1	250
16923275	7072	383	0	-100	0	230	101300000	1000	0	0	-1	250
16935835	7084	387	0	-100	0	230	101300000	1000	0	0	-1	250
16948395	7079	386	0	-100	0	230	101300000	1000	0	0	-1	250
16960955	7065	387	0	-100	0	230	101300000	1000	0	0	-1	250
16973515	7077	384	0	-100	0	230	101300000	1000	0	0	-1	250
16986075	7072	382	0	-100	0	230	101300000	1000	0	0	-1	250
16998635	7065	382	0	-100	0	230	101300000	1000	0	0	-1	250
17011195	7070	382	0	-100	0	230	101300000	1000	0	0	-1	250
17023755	7074	387	0	-100	0	230	101300000	1000	0	0	-1	250
17036315	7072	385	0	-100	0	230	101300000	1000	0	0	-1	250
17048875	7067	381	0	-100	0	230	101300000	1000	0	0	-1	250
17061435	7075	382	0	-100	0	230	101300000	1000	0	0	-1	250
17073995	7074	383	0	-100	0	230	101300000	1000	0	0	-1	250
17086555	7071	383	0	-100	0	230	101300000	1000	0	0	-1	250
17099115	7077	385	0	-100	0	230	101300000	1000	0	0	-1	250
17111675	7073	385	0	-100	0	230	101300000	1000	0	0	-1	250
17124235	7077	384	0	-100	0	230	101300000	1000	0	0	-1	250
17136795	7072	380	0	-100	0	230	101300000	1000	0	0	-1	250
17149355	7075	375	0	-100	0	230	101300000	1000	0	0	-1	250
17161915	7075	378	0	-100	0	230	101300000	1000	0	0	-1	250
17174475	7085	378	0	-100	0	230	101300000	1000	0	0	-1	250
17187035	7072	377	0	-100	0	230	101300000	1000	0	0	-1	250
17199595	7075	379	0	-100	0	230	101300000	1000	0	0	-1	250
17212155	7072	379	0	-100	0	230	101300000	1000	0	0	-1	250
17224715	7079	386	0	-100	0	230	101300000	1000	0	0	-1	250
17237275	7081	386	0	-100	0	230	101300000	1000	0	0	-1	250
17249835	7072	384	0	-100	0	230	101300000	1000	0	0	-1	250
17262395	7082	380	0	-100	0	230	101300000	1000	0	0	-1	250
17274955	7077	381	0	-100	0	230	101300000	1000	0	0	-1	250
17287515	7072	385	0	-100	0	230	101300000	1000	0	0	-1	250
17300075	7068	386	0	-100	0	230	101300000	1000	0	0	-1	250
17312635	7068	388	0	-100	0	230	101300000	1000	0	0	-1	250
17325195	7072	385	0	-100	0	230	101300000	1000	0	0	-1	250
17337755	7076	385	0	-100	0	230	101300000	1000	0	0	-1	250
17350315	7081	384	0	-100	0	230	101300000	1000	0	0	-1	250
17362875	7077	384	0	-100	0	230	101300000	1000	0	0	-1	250
17375435	7073	386	0	-100	0	230	101300000	1000	0	0	-1	250
17387995	7079	379	0	-100	0	230	101300000	1000	0	0	-1	250
17400555	7078	384	0	-100	0	230	101300000	1000	0	0	-1	250
17413115	7077	383	0	-100	0	230	101300000	1000	0	0	-1	250
17425675	7082	379	0	-100	0	230	101300000	1000	0	0	-1	250
17438235	7080	378	0	-100	0	230	101300000	1000	0	0	-1	250
17450795	7075	378	0	-100	0	230	101300000	1000	0	0	-1	250
17463355	7080	378	0	-100	0	230	101300000	1000	0	0	-1	250
17475915	7082	378	0	-100	0	230	101300000	1000	0	0	-1	250
17488475	7080	375	0	-100	0	230	101300000	1000	0	0	-1	250
17501035	7076	377	0	-100	0	230	101300000	1000	0	0	-1	250
17513595	7075	380	0	-100	0	230	101300000	1000	0	0	-1	250
17526155	7087	380	0	-100	0	230	101300000	1000	0	0	-1	250
17538715	7079	378	0	-100	0	230	101300000	1000	0	0	-1	250
17551275	7081	380	0	-100	0	230	101300000	1000	0	0	-1	250
17563835	7085	383	0	-100	0	230	101300000	1000	0	0	-1	250
17576395	7066	382	0	-100	0	230	101300000	1000	0	0	-1	250
17588955	7074	383	0	-100	0	230	101300000	1000	0	0	-1	250
17601515	7070	385	0	-100	0	230	101300000	1000	0	0	-1	250
17614075	7074	385	0	-100	0	230	101300000	1000	0	0	-1	250
17626635	7072	381	0	-100	0	230	101300000	1000	0	0	-1	250
17639195	7088	379	0	-100	0	230	101300000	1000	0	0	-1	250
17651755	7080	378	0	-100	0	230	101300000	1000	0	0	-1	250
17664315	7074	379	0	-100	0	230	101300000	1000	0	0	-1	250
17676875	7077	379	0	-100	0	230	101300000	1000	0	0	-1	250
17689435	7077	378	0	-100	0	230	101300000	1000	0	0	-1	250
17701995	7071	378	0	-100	0	230	101300000	1000	0	0	-1	250
17714555	7072	383	0	-100	0	230	101300000	1000	0	0	-1	250
17727115	7068	382	0	-100	0	230	101300000	1000	0	0	-1	250
17739675	7076	385	0	-100	0	230	101300000	1000	0	0	-1	250
17752235	7074	385	0	-100	0	230	101300000	1000	0	0	-1	250
17764795	7081	380	0	-100	0	230	101300000	1000	0	0	-1	250
17777355	7081	379	0	-100	0	230	101300000	1000	0	0	-1	250
17789915	7080	378	0	-100	0	230	101300000	1000	0	0	-1	250
17802475	7085	378	0	-100	0	230	101300000	1000	0	0	-1	250
17815035	7075	378	0	-100	0	230	101300000	1000	0	0	-1	250
17827595	7074	379	0	-100	0	230	101300000	1000	0	0	-1	250
17840155	7071	379	0	-100	0	230	101300000	1000	0	0	-1	250
17852715	7076	383	0	-100	0	230	101300000	1000	0	0	-1	250
17865275	7070	386	0	-100	0	230	101300000	1000	0	0	-1	250
17877835	7074	383	0	-100	0	230	101300000	1000	0	0	-1	250
17890395	7080	380	0	-100	0	230	101300000	1000	0	0	-1	250
17902955	7078	377	0	-100	0	230	101300000	1000	0	0	-1	250
17915515	7077	378	0	-100	0	230	101300000	1000	0	0	-1	250
17928075	7075	378	0	-100	0	230	101300000	1000	0	0	-1	250
17940635	7074	382	0	-100	0	230	101300000	1000	0	0	-1	250
17953195	7074	382	0	-100	0	230	101300000	1000	0	0	-1	250
17965755	7078	378	0	-100	0	230	101300000	1000	0	0	-1	250
17978315	7068	379	0	-100	0	230	101300000	1000	0	0	-1	250
17990875	7072	387	0	-100	0	230	101300000	1000	0	0	-1	250
18003435	7082	379	0	-100	0	230	101300000	1000	0	0	-1	250
18015995	7082	382	0	-100	0	230	101300000	1000	0	0	-1	250
18028555	7070	380	0	-100	0	230	101300000	1000	0	0	-1	250
18041115	7072	387	0	-100	0	230	101300000	1000	0	0	-1	250
18053675	7072	383	0	-100	0	230	101300000	1000	0	0	-1	250
18066235	7079	379	0	-100	0	230	101300000	1000	0	0	-1	250
18078795	7084	379	0	-100	0	230	101300000	1000	0	0	-1	250
18091355	7079	378	0	-100	0	230	101300000	1000	0	0	-1	250
18103915	7068	383	0	-100	0	230	101300000	1000	0	0	-1	250
18116475	7072	387	0	-100	0	230	101300000	1000	0	0	-1	250
18129035	7071	383	0	-100	0	230	101300000	1000	0	0	-1	250
18141595	7081	379	0	-100	0	230	101300000	1000	0	0	-1	250
18154155	7079	378	0	-100	0	230	101300000	1000	0	0	-1	250
18166715	7072	378	0	-100	0	230	101300000	1000	0	0	-1	250
18179275	7079	385	0	-100	0	230	101300000	1000	0	0	-1	250
18191835	7081	383	0	-100	0	230	101300000	1000	0	0	-1	250
18204395	7073	376	0	-100	0	230	101300000	1000	0	0	-1	250
18216955	7065	378	0	-100	0	230	101300000	1000	0	0	-1	250
18229515	7074	386	0	-100	0	230	101300000	1000	0	0	-1	250
18242075	7074	383	0	-100	0	230	101300000	1000	0	0	-1	250
18254635	7080	379	0	-100	0	230	101300000	1000	0	0	-1	250
18267195	7070	382	0	-100	0	230	101300000	1000	0	0	-1	250
18279755	7074	385	0	-100	0	230	101300000	1000	0	0	-1	250
18292315	7079	379	0	-100	0	230	101300000	1000	0	0	-1	250
18304875	7066	382	0	-100	0	230	101300000	1000	0	0	-1	250
18317435	7075	387	0	-100	0	230	101300000	1000	0	0	-1	250
18329995	7073	385	0	-100	0	230	101300000	1000	0	0	-1	250
18342555	7064	378	0	-100	0	230	101300000	1000	0	0	-1	250
18355115	7072	387	0	-100	0	230	101300000	1000	0	0	-1	250
18367675	7079	379	0	-100	0	230	101300000	1000	0	0	-1	250
18380235	7073	378	0	-100	0	230	101300000	1000	0	0	-1	250
18392795	7077	381	0	-100	0	230	101300000	1000	0	0	-1	250
18405355	7077	383	0	-100	0	230	101300000	1000	0	0	-1	250
18417915	7077	375	0	-100	0	230	101300000	1000	0	0	-1	250
18430475	7079	378	0	-100	0	230	101300000	1000	0	0	-1	250
18443035	7068	382	0	-100	0	230	101300000	1000	0	0	-1	250
18455595	7074	384	0	-100	0	230	101300000	1000	0	0	-1	250
18468155	7087	376	0	-100	0	230	101300000	1000	0	0	-1	250
18480715	7070	379	0	-100	0	230	101300000	1000	0	0	-1	250
18493275	7076	387	0	-100	0	230	101300000	1000	0	0	-1	250
18505835	7077	385	0	-100	0	230	101300000	1000	0	0	-1	250
18518395	7079	379	0	-100	0	230	101300000	1000	0	0	-1	250
18530955	7080	379	0	-100	0	230	101300000	1000	0	0	-1	250
18543515	7077	378	0	-100	0	230	101300000	1000	0	0	-1	250
18556075	7072	379	0	-100	0	230	101300000	1000	0	0	-1	250
18568635	7079	388	0	-100	0	230	101300000	1000	0	0	-1	250
18581195	7075	385	0	-100	0	230	101300000	1000	0	0	-1	250
18593755	7077	381	0	-100	0	230	101300000	1000	0	0	-1	250
18606315	7080	379	0	-100	0	230	101300000	1000	0	0	-1	250
18618875	7072	378	0	-100	0	230	101300000	1000	0	0	-1	250
18631435	7065	382	0	-100	0	230	101300000	1000	0	0	-1	250
18643995	7066	377	0	-100	0	230	101300000	1000	0	0	-1	250
18656555	7068	386	0	-100	0	230	101300000	1000	0	0	-1	250
18669115	7072	384	0	-100	0	230	101300000	1000	0	0	-1	250
18681675	7083	380	0	-100	0	230	101300000	1000	0	0	-1	250
18694235	7086	380	0	-100	0	230	101300000	1000	0	0	-1	250
18706795	7073	377	0	-100	0	230	101300000	1000	0	0	-1	250
18719355	7078	376	0	-100	0	230	101300000	1000	0	0	-1	250
18731915	7087	380	0	-100	0	230	101300000	1000	0	0	-1	250
18744475	7080	378	0	-100	0	230	101300000	1000	0	0	-1	250
18757035	7078	379	0	-100	0	230	101300000	1000	0	0	-1	250
18769595	7074	379	0	-100	0	230	101300000	1000	0	0	-1	250
18782155	7077	378	0	-100	0	230	101300000	1000	0	0	-1	250
18794715	7066	382	0	-100	0	230	101300000	1000	0	0	-1	250
18807275	7074	384	0	-100	0	230	101300000	1000	0	0	-1	250
18819835	7081	383	0	-100	0	230	101300000	1000	0	0	-1	250
18832395	7075	380	0	-100	0	230	101300000	1000	0	0	-1	250
18844955	7075	377	0	-100	0	230	101300000	1000	0	0	-1	250
18857515	7064	382	0	-100	0	230	101300000	1000	0	0	-1	250
18870075	7068	386	0	-100	0	230	101300000	1000	0	0	-1	250
18882635	7074	379	0	-100	0	230	101300000	1000	0	0	-1	250
18895195	7078	376	0	-100	0	230	101300000	1000	0	0	-1	250
18907755	7084	379	0	-100	0	230	101300000	1000	0	0	-1	250
18920315	7068	384	0	-100	0	230	101300000	1000	0	0	-1	250
18932875	7063	385	0	-100	0	230	101300000	1000	0	0	-1	250
18945435	7084	379	0	-100	0	230	101300000	1000	0	0	-1	250
18957995	7078	381	0	-100	0	230	101300000	1000	0	0	-1	250
18970555	7076	379	0	-100	0	230	101300000	1000	0	0	-1	250
18983115	7074	384	0	-100	0	230	101300000	1000	0	0	-1	250
18995675	7073	386	0	-100	0	230	101300000	1000	0	0	-1	250
19008235	7070	383	0	-100	0	230	101300000	1000	0	0	-1	250
19020795	7076	381	0	-100	0	230	101300000	1000	0	0	-1	250
19033355	7077	379	0	-100	0	230	101300000	1000	0	0	-1	250
19045915	7080	377	0	-100	0	230	101300000	1000	0	0	-1	250
19058475	7079	379	0	-100	0	230	101300000	1000	0	0	-1	250
19071035	7071	378	0	-100	0	230	101300000	1000	0	0	-1	250
19083595	7079	378	0	-100	0	230	101300000	1000	0	0	-1	250
19096155	7070	378	0	-100	0	230	101300000	1000	0	0	-1	250
19108715	7077	379	0	-100	0	230	101300000	1000	0	0	-1	250
19121275	7072	384	0	-100	0	230	101300000	1000	0	0	-1	250
19133835	7078	383	0	-100	0	230	101300000	1000	0	0	-1	250
19146395	7075	387	0	-100	0	230	101300000	1000	0	0	-1	250
19158955	7074	387	0	-100	0	230	101300000	1000	0	0	-1	250
19171515	7074	383	0	-100	0	230	101300000	1000	0	0	-1	250
19184075	7068	380	0	-100	0	230	101300000	1000	0	0	-1	250
19196635	7077	376	0	-100	0	230	101300000	1000	0	0	-1	250
19209195	7080	378	0	-100	0	230	101300000	1000	0	0	-1	250
19221755	7078	378	0	-100	0	230	101300000	1000	0	0	-1	250
19234315	7072	381	0	-100	0	230	101300000	1000	0	0	-1	250
19246875	7072	384	0	-100	0	230	101300000	1000	0	0	-1	250
19259435	7068	382	0	-100	0	230	101300000	1000	0	0	-1	250
19271995	7079	386	0	-100	0	230	101300000	1000	0	0	-1	250
19284555	7079	377	0	-100	0	230	101300000	1000	0	0	-1	250
19297115	7075	378	0	-100	0	230	101300000	1000	0	0	-1	250
19309675	7062	383	0	-100	0	230	101300000	1000	0	0	-1	250
19322235	7077	383	0	-100	0	230	101300000	1000	0	0	-1	250
19334795	7079	380	0	-100	0	230	101300000	1000	0	0	-1	250
19347355	7075	378	0	-100	0	230	101300000	1000	0	0	-1	250
19359915	7070	383	0	-100	0	230	101300000	1000	0	0	-1	250
19372475	7070	385	0	-100	0	230	101300000	1000	0	0	-1	250
19385035	7082	379	0	-100	0	230	101300000	1000	0	0	-1	250
19397595	7074	379	0	-100	0	230	101300000	1000	0	0	-1	250
19410155	7068	377	0	-100	0	230	101300000	1000	0	0	-1	250
19422715	7070	386	0	-100	0	230	101300000	1000	0	0	-1	250
19435275	7075	381	0	-100	0	230	101300000	1000	0	0	-1	250
19447835	7082	378	0	-100	0	230	101300000	1000	0	0	-1	250
19460395	7080	378	0	-100	0	230	101300000	1000	0	0	-1	250
19472955	7077	384	0	-100	0	230	101300000	1000	0	0	-1	250
19485515	7078	384	0	-100	0	230	101300000	1000	0	0	-1	250
19498075	7076	379	0	-100	0	230	101300000	1000	0	0	-1	250
19510635	7066	377	0	-100	0	230	101300000	1000	0	0	-1	250
19523195	7065	383	0	-100	0	230	101300000	1000	0	0	-1	250
19535755	7065	381	0	-100	0	230	101300000	1000	0	0	-1	250
19548315	7073	377	0	-100	0	230	101300000	1000	0	0	-1	250
19560875	7071	378	0	-100	0	230	101300000	1000	0	0	-1	250
19573435	7075	381	0	-100	0	230	101300000	1000	0	0	-1	250
19585995	7070	378	0	-100	0	230	101300000	1000	0	0	-1	250
19598555	7081	383	0	-100	0	230	101300000	1000	0	0	-1	250
19611115	7081	379	0	-100	0	230	101300000	1000	0	0	-1	250
19623675	7075	376	0	-100	0	230	101300000	1000	0	0	-1	250
19636235	7066	381	0	-100	0	230	101300000	1000	0	0	-1	250
19648795	7070	384	0	-100	0	230	101300000	1000	0	0	-1	250
19661355	7072	378	0	-100	0	230	101300000	1000	0	0	-1	250
19673915	7070	378	0	-100	0	230	101300000	1000	0	0	-1	250
19686475	7067	382	0	-100	0	230	101300000	1000	0	0	-1	250
19699035	7074	383	0	-100	0	230	101300000	1000	0	0	-1	250
19711595	7071	379	0	-100	0	230	101300000	1000	0	0	-1	250
19724155	7069	377	0	-100	0	230	101300000	1000	0	0	-1	250
19736715	7072	379	0	-100	0	230	101300000	1000	0	0	-1	250
19749275	7066	382	0	-100	0	230	101300000	1000	0	0	-1	250
19761835	7072	383	0	-100	0	230	101300000	1000	0	0	-1	250
19774395	7075	378	0	-100	0	230	101300000	1000	0	0	-1	250
19786955	7069	379	0	-100	0	230	101300000	1000	0	0	-1	250
19799515	7076	383	0	-100	0	230	101300000	1000	0	0	-1	250
19812075	7080	375	0	-100	0	230	101300000	1000	0	0	-1	250
19824635	7071	383	0	-100	0	230	101300000	1000	0	0	-1	250
19837195	7067	381	0	-100	0	230	101300000	1000	0	0	-1	250
19849755	7068	377	0	-100	0	230	101300000	1000	0	0	-1	250
19862315	7063	382	0	-100	0	230	101300000	1000	0	0	-1	250
19874875	7074	384	0	-100	0	230	101300000	1000	0	0	-1	250
19887435	7075	378	0	-100	0	230	101300000	1000	0	0	-1	250
19899995	7069	377	0	-100	0	230	101300000	1000	0	0	-1	250
19912555	7064	386	0	-100	0	230	101300000	1000	0	0	-1	250
19925115	7081	378	0	-100	0	230	101300000	1000	0	0	-1	250
19937675	7077	378	0	-100	0	230	101300000	1000	0	0	-1	250
19950235	7070	382	0	-100	0	230	101300000	1000	0	0	-1	250
19962795	7066	384	0	-100	0	230	101300000	1000	0	0	-1	250
19975355	7071	378	0	-100	0	230	101300000	1000	0	0	-1	250
19987915	7072	378	0	-100	0	230	101300000	1000	0	0	-1	250
20000475	7070	386	0	-100	0	230	101300000	1000	0	0	-1	250
20013035	7068	380	0	-100	0	230	101300000	1000	0	0	-1	250
20025595	7075	378	0	-100	0	230	101300000	1000	0	0	-1	250
20038155	7074	385	0	-100	0	230	101300000	1000	0	0	-1	250
20050715	7080	377	0	-100	0	230	101300000	1000	0	0	-1	250
20063275	7066	378	0	-100	0	230	101300000	1000	0	0	-1	250
20075835	7079	388	0	-100	0	230	101300000	1000	0	0	-1	250
20088395	7072	382	0	-100	0	230	101300000	1000	0	0	-1	250
20100955	7066	377	0	-100	0	230	101300000	1000	0	0	-1	250
20113515	7072	378	0	-100	0	230	101300000	1000	0	0	-1	250
20126075	7066	386	0	-100	0	230	101300000	1000	0	0	-1	250
20138635	7068	379	0	-100	0	230	101300000	1000	0	0	-1	250
20151195	7070	376	0	-100	0	230	101300000	1000	0	0	-1	250
20163755	7074	385	0	-100	0	230	101300000	1000	0	0	-1	250
20176315	7079	376	0	-100	0	230	101300000	1000	0	0	-1	250
20188875	7065	378	0	-100	0	230	101300000	1000	0	0	-1	250
20201435	7070	383	0	-100	0	230	101300000	1000	0	0	-1	250
20213995	7079	381	0	-100	0	230	101300000	1000	0	0	-1	250
20226555	7072	386	0	-100	0	230	101300000	1000	0	0	-1	250
20239115	7077	379	0	-100	0	230	101300000	1000	0	0	-1	250
20251675	7077	378	0	-100	0	230	101300000	1000	0	0	-1	250
20264235	7070	383	0	-100	0	230	101300000	1000	0	0	-1	250
20276795	7065	384	0	-100	0	230	101300000	1000	0	0	-1	250
20289355	7077	380	0	-100	0	230	101300000	1000	0	0	-1	250
20301915	7068	378	0	-100	0	230	101300000	1000	0	0	-1	250
20314475	7074	387	0	-100	0	230	101300000	1000	0	0	-1	250
20327035	7068	382	0	-100	0	230	101300000	1000	0	0	-1	250
20339595	7077	378	0	-100	0	230	101300000	1000	0	0	-1	250
20352155	7075	378	0	-100	0	230	101300000	1000	0	0	-1	250
20364715	7070	378	0	-100	0	230	101300000	1000	0	0	-1	250
20377275	7066	381	0	-100	0	230	101300000	1000	0	0	-1	250
20389835	7068	387	0	-100	0	230	101300000	1000	0	0	-1	250
20402395	7072	383	0	-100	0	230	101300000	1000	0	0	-1	250
20414955	7078	381	0	-100	0	230	101300000	1000	0	0	-1	250
20427515	7077	379	0	-100	0	230	101300000	1000	0	0	-1	250
20440075	7074	377	0	-100	0	230	101300000	1000	0	0	-1	250
20452635	7077	378	0	-100	0	230	101300000	1000	0	0	-1	250
20465195	7070	380	0	-100	0	230	101300000	1000	0	0	-1	250
20477755	7077	382	0	-100	0	230	101300000	1000	0	0	-1	250
20490315	7077	376	0	-100	0	230	101300000	1000	0	0	-1	250
20502875	7070	378	0	-100	0	230	101300000	1000	0	0	-1	250
20515435	7067	377	0	-100	0	230	101300000	1000	0	0	-1	250
20527995	7077	384	0	-100	0	230	101300000	1000	0	0	-1	250
20540555	7075	378	0	-100	0	230	101300000	1000	0	0	-1	250
20553115	7069	382	0	-100	0	230	101300000	1000	0	0	-1	250
20565675	7074	385	0	-100	0	230	101300000	1000	0	0	-1	250
20578235	7088	385	0	-100	0	230	101300000	1000	0	0	-1	250
20590795	7064	382	0	-100	0	230	101300000	1000	0	0	-1	250
20603355	7080	378	0	-100	0	230	101300000	1000	0	0	-1	250
20615915	7075	379	0	-100	0	230	101300000	1000	0	0	-1	250
20628475	7075	376	0	-100	0	230	101300000	1000	0	0	-1	250
20641035	7084	379	0	-100	0	230	101300000	1000	0	0	-1	250
20653595	7081	381	0	-100	0	230	101300000	1000	0	0	-1	250
20666155	7079	385	0	-100	0	230	101300000	1000	0	0	-1	250
20678715	7072	385	0	-100	0	230	101300000	1000	0	0	-1	250
20691275	7072	382	0	-100	0	230	101300000	1000	0	0	-1	250
20703835	7070	378	0	-100	0	230	101300000	1000	0	0	-1	250
20716395	7074	377	0	-100	0	230	101300000	1000	0	0	-1	250
20728955	7071	376	0	-100	0	230	101300000	1000	0	0	-1	250
20741515	7074	378	0	-100	0	230	101300000	1000	0	0	-1	250
20754075	7072	381	0	-100	0	230	101300000	1000	0	0	-1	250
20766635	7074	382	0	-100	0	230	101300000	1000	0	0	-1	250
20779195	7073	386	0	-100	0	230	101300000	1000	0	0	-1	250
20791755	7069	387	0	-100	0	230	101300000	1000	0	0	-1	250
20804315	7068	385	0	-100	0	230	101300000	1000	0	0	-1	250
20816875	7071	386	0	-100	0	230	101300000	1000	0	0	-1	250
20829435	7074	385	0	-100	0	230	101300000	1000	0	0	-1	250
20841995	7074	378	0	-100	0	230	101300000	1000	0	0	-1	250
20854555	7072	385	0	-100	0	230	101300000	1000	0	0	-1	250
20867115	7071	383	0	-100	0	230	101300000	1000	0	0	-1	250
20879675	7073	384	0	-100	0	230	101300000	1000	0	0	-1	250
20892235	7070	384	0	-100	0	230	101300000	1000	0	0	-1	250
20904795	7072	384	0	-100	0	230	101300000	1000	0	0	-1	250
20917355	7069	383	0	-100	0	230	101300000	1000	0	0	-1	250
20929915	7065	386	0	-100	0	230	101300000	1000	0	0	-1	250
20942475	7069	385	0	-100	0	230	101300000	1000	0	0	-1	250
20955035	7070	384	0	-100	0	230	101300000	1000	0	0	-1	250
20967595	7074	385	0	-100	0	230	101300000	1000	0	0	-1	250
20980155	7070	387	0	-100	0	230	101300000	1000	0	0	-1	250
20992715	7074	385	0	-100	0	230	101300000	1000	0	0	-1	250
21005275	7075	386	0	-100	0	230	101300000	1000	0	0	-1	250
21017835	7070	383	0	-100	0	230	101300000	1000	0	0	-1	250
21030395	7074	387	0	-100	0	230	101300000	1000	0	0	-1	250
21042955	7065	385	0	-100	0	230	101300000	1000	0	0	-1	250
21055515	7065	383	0	-100	0	230	101300000	1000	0	0	-1	250
21068075	7066	382	0	-100	0	230	101300000	1000	0	0	-1	250
21080635	7073	384	0	-100	0	230	101300000	1000	0	0	-1	250
21093195	7077	385	0	-100	0	230	101300000	1000	0	0	-1	250
21105755	7072	384	0	-100	0	230	101300000	1000	0	0	-1	250
21118315	7076	384	0	-100	0	230	101300000	1000	0	0	-1	250
21130875	7069	384	0	-100	0	230	101300000	1000	0	0	-1	250
21143435	7071	385	0	-100	0	230	101300000	1000	0	0	-1	250
21155995	7074	380	0	-100	0	230	101300000	1000	0	0	-1	250
21168555	7071	383	0	-100	0	230	101300000	1000	0	0	-1	250
21181115	7071	387	0	-100	0	230	101300000	1000	0	0	-1	250
21193675	7074	385	0	-100	0	230	101300000	1000	0	0	-1	250
21206235	7072	386	0	-100	0	230	101300000	1000	0	0	-1	250
21218795	7074	388	0	-100	0	230	101300000	1000	0	0	-1	250
21231355	7071	387	0	-100	0	230	101300000	1000	0	0	-1	250
21243915	7074	388	0	-100	0	230	101300000	1000	0	0	-1	250
21256475	7063	382	0	-100	0	230	101300000	1000	0	0	-1	250
21269035	7075	380	0	-100	0	230	101300000	1000	0	0	-1	250
21281595	7074	379	0	-100	0	230	101300000	1000	0	0	-1	250
21294155	7071	378	0	-100	0	230	101300000	1000	0	0	-1	250
21306715	7084	380	0	-100	0	230	101300000	1000	0	0	-1	250
21319275	7079	380	0	-100	0	230	101300000	1000	0	0	-1	250
21331835	7065	386	0	-100	0	230	101300000	1000	0	0	-1	250
21344395	7062	382	0	-100	0	230	101300000	1000	0	0	-1	250
21356955	7073	378	0	-100	0	230	101300000	1000	0	0	-1	250
21369515	7078	377	0	-100	0	230	101300000	1000	0	0	-1	250
21382075	7077	378	0	-100	0	230	101300000	1000	0	0	-1	250
21394635	7083	383	0	-100	0	230	101300000	1000	0	0	-1	250
21407195	7081	385	0	-100	0	230	101300000	1000	0	0	-1	250
21419755	7077	383	0	-100	0	230	101300000	1000	0	0	-1	250
21432315	7077	377	0	-100	0	230	101300000	1000	0	0	-1	250
21444875	7087	378	0	-100	0	230	101300000	1000	0	0	-1	250
21457435	7087	378	0	-100	0	230	101300000	1000	0	0	-1	250
21469995	7079	379	0	-100	0	230	101300000	1000	0	0	-1	250
21482555	7075	386	0	-100	0	230	101300000	1000	0	0	-1	250
21495115	7083	382	0	-100	0	230	101300000	1000	0	0	-1	250
21507675	7087	378	0	-100	0	230	101300000	1000	0	0	-1	250
21520235	7083	377	0	-100	0	230	101300000	1000	0	0	-1	250
21532795	7087	375	0	-100	0	230	101300000	1000	0	0	-1	250
21545355	7078	379	0	-100	0	230	101300000	1000	0	0	-1	250
21557915	7081	382	0	-100	0	230	101300000	1000	0	0	-1	250
21570475	7068	383	0	-100	0	230	101300000	1000	0	0	-1	250
21583035	7068	384	0	-100	0	230	101300000	1000	0	0	-1	250
21595595	7081	383	0	-100	0	230	101300000	1000	0	0	-1	250
21608155	7072	381	0	-100	0	230	101300000	1000	0	0	-1	250
21620715	7071	378	0	-100	0	230	101300000	1000	0	0	-1	250
21633275	7068	378	0	-100	0	230	101300000	1000	0	0	-1	250
21645835	7075	378	0	-100	0	230	101300000	1000	0	0	-1	250
21658395	7077	379	0	-100	0	230	101300000	1000	0	0	-1	250
21670955	7075	378	0	-100	0	230	101300000	1000	0	0	-1	250
21683515	7080	380	0	-100	0	230	101300000	1000	0	0	-1	250
21696075	7072	380	0	-100	0	230	101300000	1000	0	0	-1	250
21708635	7081	379	0	-100	0	230	101300000	1000	0	0	-1	250
21721195	7079	382	0	-100	0	230	101300000	1000	0	0	-1	250
21733755	7072	383	0	-100	0	230	101300000	1000	0	0	-1	250
21746315	7081	385	0	-100	0	230	101300000	1000	0	0	-1	250
21758875	7073	382	0	-100	0	230	101300000	1000	0	0	-1	250
21771435	7070	379	0	-100	0	230	101300000	1000	0	0	-1	250
21783995	7072	382	0	-100	0	230	101300000	1000	0	0	-1	250
21796555	7075	376	0	-100	0	230	101300000	1000	0	0	-1	250
21809115	7082	381	0	-100	0	230	101300000	1000	0	0	-1	250
21821675	7081	381	0	-100	0	230	101300000	1000	0	0	-1	250
21834235	7068	382	0	-100	0	230	101300000	1000	0	0	-1	250
21846795	7072	384	0	-100	0	230	101300000	1000	0	0	-1	250
21859355	7072	383	0	-100	0	230	101300000	1000	0	0	-1	250
21871915	7072	379	0	-100	0	230	101300000	1000	0	0	-1	250
21884475	7072	379	0	-100	0	230	101300000	1000	0	0	-1	250
21897035	7073	377	0	-100	0	230	101300000	1000	0	0	-1	250
21909595	7075	378	0	-100	0	230	101300000	1000	0	0	-1	250
21922155	7085	380	0	-100	0	230	101300000	1000	0	0	-1	250
21934715	7081	382	0	-100	0	230	101300000	1000	0	0	-1	250
21947275	7072	383	0	-100	0	230	101300000	1000	0	0	-1	250
21959835	7076	386	0	-100	0	230	101300000	1000	0	0	-1	250
21972395	7067	384	0	-100	0	230	101300000	1000	0	0	-1	250
21984955	7070	383	0	-100	0	230	101300000	1000	0	0	-1	250
21997515	7066	378	0	-100	0	230	101300000	1000	0	0	-1	250
22010075	7079	377	0	-100	0	230	101300000	1000	0	0	-1	250
22022635	7073	379	0	-100	0	230	101300000	1000	0	0	-1	250
22035195	7079	378	0	-100	0	230	101300000	1000	0	0	-1	250
22047755	7077	378	0	-100	0	230	101300000	1000	0	0	-1	250
22060315	7075	377	0	-100	0	230	101300000	1000	0	0	-1	250
22072875	7084	379	0	-100	0	230	101300000	1000	0	0	-1	250
22085435	7077	381	0	-100	0	230	101300000	1000	0	0	-1	250
22097995	7081	379	0	-100	0	230	101300000	1000	0	0	-1	250
22110555	7074	385	0	-100	0	230	101300000	1000	0	0	-1	250
22123115	7065	383	0	-100	0	230	101300000	1000	0	0	-1	250
22135675	7071	382	0	-100	0	230	101300000	1000	0	0	-1	250
22148235	7075	379	0	-100	0	230	101300000	1000	0	0	-1	250
22160795	7075	378	0	-100	0	230	101300000	1000	0	0	-1	250
22173355	7079	378	0	-100	0	230	101300000	1000	0	0	-1	250
22185915	7081	378	0	-100	0	230	101300000	1000	0	0	-1	250
22198475	7082	379	0	-100	0	230	101300000	1000	0	0	-1	250
22211035	7074	375	0	-100	0	230	101300000	1000	0	0	-1	250
22223595	7085	380	0	-100	0	230	101300000	1000	0	0	-1	250
22236155	7066	381	0	-100	0	230	101300000	1000	0	0	-1	250
22248715	7058	379	0	-100	0	230	101300000	1000	0	0	-1	250
22261275	7058	378	0	-100	0	230	101300000	1000	0	0	-1	250
22273835	7070	376	0	-100	0	230	101300000	1000	0	0	-1	250
22286395	7075	378	0	-100	0	230	101300000	1000	0	0	-1	250
22298955	7081	379	0	-100	0	230	101300000	1000	0	0	-1	250
22311515	7072	380	0	-100	0	230	101300000	1000	0	0	-1	250
22324075	7059	380	0	-100	0	230	101300000	1000	0	0	-1	250
22336635	7044	376	0	-100	0	230	101300000	1000	0	0	-1	250
22349195	7047	372	0	-100	0	230	101300000	1000	0	0	-1	250
22361755	7051	371	0	-100	0	230	101300000	1000	0	0	-1	250
22374315	7056	368	0	-100	0	230	101300000	1000	0	0	-1	250
22386875	7053	372	0	-100	0	230	101300000	1000	0	0	-1	250
22399435	7051	370	0	-100	0	230	101300000	1000	0	0	-1	250
22411995	7048	375	0	-100	0	230	101300000	1000	0	0	-1	250
22424555	7053	380	0	-100	0	230	101300000	1000	0	0	-1	250
22437115	7036	378	0	-100	0	230	101300000	1000	0	0	-1	250
22449675	7041	371	0	-100	0	230	101300000	1000	0	0	-1	250
22462235	7060	372	0	-100	0	230	101300000	1000	0	0	-1	250
22474795	7053	377	0	-100	0	230	101300000	1000	0	0	-1	250
22487355	7034	375	0	-100	0	230	101300000	1000	0	0	-1	250
22499915	7051	370	0	-100	0	230	101300000	1000	0	0	-1	250
22512475	7043	372	0	-100	0	230	101300000	1000	0	0	-1	250
22525035	7036	377	0	-100	0	230	101300000	1000	0	0	-1	250
22537595	7039	380	0	-100	0	230	101300000	1000	0	0	-1	250
22550155	7036	383	0	-100	0	230	101300000	1000	0	0	-1	250
22562715	7055	380	0	-100	0	230	101300000	1000	0	0	-1	250
22575275	7032	372	0	-100	0	230	101300000	1000	0	0	-1	250
22587835	7050	370	0	-100	0	230	101300000	1000	0	0	-1	250
22600395	7038	375	0	-100	0	230	101300000	1000	0	0	-1	250
22612955	7056	383	0	-100	0	230	101300000	1000	0	0	-1	250
22625515	7029	373	0	-100	0	230	101300000	1000	0	0	-1	250
22638075	7048	375	0	-100	0	230	101300000	1000	0	0	-1	250
22650635	7032	379	0	-100	0	230	101300000	1000	0	0	-1	250
22663195	7051	372	0	-100	0	230	101300000	1000	0	0	-1	250
22675755	7053	370	0	-100	0	230	101300000	1000	0	0	-1	250
22688315	7054	376	0	-100	0	230	101300000	1000	0	0	-1	250
22700875	7047	372	0	-100	0	230	101300000	1000	0	0	-1	250
22713435	7063	374	0	-100	0	230	101300000	1000	0	0	-1	250
22725995	7040	374	0	-100	0	230	101300000	1000	0	0	-1	250
22738555	7047	377	0	-100	0	230	101300000	1000	0	0	-1	250
22751115	7053	370	0	-100	0	230	101300000	1000	0	0	-1	250
22763675	7053	383	0	-100	0	230	101300000	1000	0	0	-1	250
22776235	7055	375	0	-100	0	230	101300000	1000	0	0	-1	250
22788795	7057	370	0	-100	0	230	101300000	1000	0	0	-1	250
22801355	7059	375	0	-100	0	230	101300000	1000	0	0	-1	250
22813915	7051	375	0	-100	0	230	101300000	1000	0	0	-1	250
22826475	7065	371	0	-100	0	230	101300000	1000	0	0	-1	250
22839035	7067	371	0	-100	0	230	101300000	1000	0	0	-1	250
22851595	7054	376	0	-100	0	230	101300000	1000	0	0	-1	250
22864155	7058	380	0	-100	0	230	101300000	1000	0	0	-1	250
22876715	7053	375	0	-100	0	230	101300000	1000	0	0	-1	250
22889275	7053	371	0	-100	0	230	101300000	1000	0	0	-1	250
22901835	7058	367	0	-100	0	230	101300000	1000	0	0	-1	250
22914395	7057	374	0	-100	0	230	101300000	1000	0	0	-1	250
22926955	7053	378	0	-100	0	230	101300000	1000	0	0	-1	250
22939515	7051	370	0	-100	0	230	101300000	1000	0	0	-1	250
22952075	7060	374	0	-100	0	230	101300000	1000	0	0	-1	250
22964635	7048	378	0	-100	0	230	101300000	1000	0	0	-1	250
22977195	7057	373	0	-100	0	230	101300000	1000	0	0	-1	250
22989755	7059	373	0	-100	0	230	101300000	1000	0	0	-1	250
23002315	7062	372	0	-100	0	230	101300000	1000	0	0	-1	250
23014875	7049	375	0	-100	0	230	101300000	1000	0	0	-1	250
23027435	7055	378	0	-100	0	230	101300000	1000	0	0	-1	250
23039995	7062	371	0	-100	0	230	101300000	1000	0	0	-1	250
23052555	7046	377	0	-100	0	230	101300000	1000	0	0	-1	250
23065115	7050	371	0	-100	0	230	101300000	1000	0	0	-1	250
23077675	7047	372	0	-100	0	230	101300000	1000	0	0	-1	250
23090235	7054	368	0	-100	0	230	101300000	1000	0	0	-1	250
23102795	7059	373	0	-100	0	230	101300000	1000	0	0	-1	250
23115355	7055	378	0	-100	0	230	101300000	1000	0	0	-1	250
23127915	7048	377	0	-100	0	230	101300000	1000	0	0	-1	250
23140475	7044	371	0	-100	0	230	101300000	1000	0	0	-1	250
23153035	7058	369	0	-100	0	230	101300000	1000	0	0	-1	250
23165595	7053	370	0	-100	0	230	101300000	1000	0	0	-1	250
23178155	7053	372	0	-100	0	230	101300000	1000	0	0	-1	250
23190715	7053	376	0	-100	0	230	101300000	1000	0	0	-1	250
23203275	7057	381	0	-100	0	230	101300000	1000	0	0	-1	250
23215835	7043	373	0	-100	0	230	101300000	1000	0	0	-1	250
23228395	7057	371	0	-100	0	230	101300000	1000	0	0	-1	250
23240955	7057	371	0	-100	0	230	101300000	1000	0	0	-1	250
23253515	7050	377	0	-100	0	230	101300000	1000	0	0	-1	250
23266075	7051	377	0	-100	0	230	101300000	1000	0	0	-1	250
23278635	7053	372	0	-100	0	230	101300000	1000	0	0	-1	250
23291195	7065	369	0	-100	0	230	101300000	1000	0	0	-1	250
23303755	7061	373	0	-100	0	230	101300000	1000	0	0	-1	250
23316315	7050	375	0	-100	0	230	101300000	1000	0	0	-1	250
23328875	7060	379	0	-100	0	230	101300000	1000	0	0	-1	250
23341435	7054	373	0	-100	0	230	101300000	1000	0	0	-1	250
23353995	7052	370	0	-100	0	230	101300000	1000	0	0	-1	250
23366555	7053	373	0	-100	0	230	101300000	1000	0	0	-1	250
23379115	7056	371	0	-100	0	230	101300000	1000	0	0	-1	250
23391675	7052	378	0	-100	0	230	101300000	1000	0	0	-1	250
23404235	7055	375	0	-100	0	230	101300000	1000	0	0	-1	250
23416795	7051	371	0	-100	0	230	101300000	1000	0	0	-1	250
23429355	7058	369	0	-100	0	230	101300000	1000	0	0	-1	250
23441915	7049	372	0	-100	0	230	101300000	1000	0	0	-1	250
23454475	7057	374	0	-100	0	230	101300000	1000	0	0	-1	250
23467035	7061	379	0	-100	0	230	101300000	1000	0	0	-1	250
23479595	7047	376	0	-100	0	230	101300000	1000	0	0	-1	250
23492155	7053	373	0	-100	0	230	101300000	1000	0	0	-1	250
23504715	7056	370	0	-100	0	230	101300000	1000	0	0	-1	250
23517275	7061	369	0	-100	0	230	101300000	1000	0	0	-1	250
23529835	7062	374	0	-100	0	230	101300000	1000	0	0	-1	250
23542395	7057	374	0	-100	0	230	101300000	1000	0	0	-1	250
23554955	7053	377	0	-100	0	230	101300000	1000	0	0	-1	250
23567515	7054	381	0	-100	0	230	101300000	1000	0	0	-1	250
23580075	7042	373	0	-100	0	230	101300000	1000	0	0	-1	250
23592635	7051	371	0	-100	0	230	101300000	1000	0	0	-1	250
23605195	7067	370	0	-100	0	230	101300000	1000	0	0	-1	250
23617755	7053	376	0	-100	0	230	101300000	1000	0	0	-1	250
23630315	7053	372	0	-100	0	230	101300000	1000	0	0	-1	250
23642875	7062	370	0	-100	0	230	101300000	1000	0	0	-1	250
23655435	7059	377	0	-100	0	230	101300000	1000	0	0	-1	250
23667995	7053	370	0	-100	0	230	101300000	1000	0	0	-1	250
23680555	7059	371	0	-100	0	230	101300000	1000	0	0	-1	250
23693115	7058	379	0	-100	0	230	101300000	1000	0	0	-1	250
23705675	7046	376	0	-100	0	230	101300000	1000	0	0	-1	250
23718235	7056	370	0	-100	0	230	101300000	1000	0	0	-1	250
23730795	7062	375	0	-100	0	230	101300000	1000	0	0	-1	250
23743355	7053	376	0	-100	0	230	101300000	1000	0	0	-1	250
23755915	7057	370	0	-100	0	230	101300000	1000	0	0	-1	250
23768475	7060	374	0	-100	0	230	101300000	1000	0	0	-1	250
23781035	7061	381	0	-100	0	230	101300000	1000	0	0	-1	250
23793595	7054	371	0	-100	0	230	101300000	1000	0	0	-1	250
23806155	7057	371	0	-100	0	230	101300000	1000	0	0	-1	250
23818715	7048	378	0	-100	0	230	101300000	1000	0	0	-1	250
23831275	7055	373	0	-100	0	230	101300000	1000	0	0	-1	250
23843835	7060	372	0	-100	0	230	101300000	1000	0	0	-1	250
23856395	7047	377	0	-100	0	230	101300000	1000	0	0	-1	250
23868955	7050	373	0	-100	0	230	101300000	1000	0	0	-1	250
23881515	7061	369	0	-100	0	230	101300000	1000	0	0	-1	250
23894075	7057	378	0	-100	0	230	101300000	1000	0	0	-1	250
23906635	7058	373	0	-100	0	230	101300000	1000	0	0	-1	250
23919195	7060	370	0	-100	0	230	101300000	1000	0	0	-1	250
23931755	7057	378	0	-100	0	230	101300000	1000	0	0	-1	250
23944315	7056	373	0	-100	0	230	101300000	1000	0	0	-1	250
23956875	7065	371	0	-100	0	230	101300000	1000	0	0	-1	250
23969435	7051	380	0	-100	0	230	101300000	1000	0	0	-1	250
23981995	7058	375	0	-100	0	230	101300000	1000	0	0	-1	250
23994555	7058	376	0	-100	0	230	101300000	1000	0	0	-1	250
24007115	7056	378	0	-100	0	230	101300000	1000	0	0	-1	250
24019675	7059	373	0	-100	0	230	101300000	1000	0	0	-1	250
24032235	7054	371	0	-100	0	230	101300000	1000	0	0	-1	250
24044795	7053	372	0	-100	0	230	101300000	1000	0	0	-1	250
24057355	7064	375	0	-100	0	230	101300000	1000	0	0	-1	250
24069915	7054	379	0	-100	0	230	101300000	1000	0	0	-1	250
24082475	7054	375	0	-100	0	230	101300000	1000	0	0	-1	250
24095035	7050	372	0	-100	0	230	101300000	1000	0	0	-1	250
24107595	7057	371	0	-100	0	230	101300000	1000	0	0	-1	250
24120155	7060	370	0	-100	0	230	101300000	1000	0	0	-1	250
24132715	7074	377	0	-100	0	230	101300000	1000	0	0	-1	250
24145275	7076	383	0	-100	0	230	101300000	1000	0	0	-1	250
24157835	7076	383	0	-100	0	230	101300000	1000	0	0	-1	250
24170395	7068	386	0	-100	0	230	101300000	1000	0	0	-1	250
24182955	7074	388	0	-100	0	230	101300000	1000	0	0	-1	250
24195515	7068	382	0	-100	0	230	101300000	1000	0	0	-1	250
24208075	7074	379	0	-100	0	230	101300000	1000	0	0	-1	250
24220635	7075	379	0	-100	0	230	101300000	1000	0	0	-1	250
24233195	7079	379	0	-100	0	230	101300000	1000	0	0	-1	250
24245755	7076	383	0	-100	0	230	101300000	1000	0	0	-1	250
24258315	7067	385	0	-100	0	230	101300000	1000	0	0	-1	250
24270875	7079	383	0	-100	0	230	101300000	1000	0	0	-1	250
24283435	7076	382	0	-100	0	230	101300000	1000	0	0	-1	250
24295995	7075	382	0	-100	0	230	101300000	1000	0	0	-1	250
24308555	7074	379	0	-100	0	230	101300000	1000	0	0	-1	250
24321115	7074	386	0	-100	0	230	101300000	1000	0	0	-1	250
24333675	7064	379	0	-100	0	230	101300000	1000	0	0	-1	250
24346235	7072	375	0	-100	0	230	101300000	1000	0	0	-1	250
24358795	7074	383	0	-100	0	230	101300000	1000	0	0	-1	250
24371355	7070	382	0	-100	0	230	101300000	1000	0	0	-1	250
24383915	7073	378	0	-100	0	230	101300000	1000	0	0	-1	250
24396475	7085	379	0	-100	0	230	101300000	1000	0	0	-1	250
24409035	7072	386	0	-100	0	230	101300000	1000	0	0	-1	250
24421595	7069	378	0	-100	0	230	101300000	1000	0	0	-1	250
24434155	7076	377	0	-100	0	230	101300000	1000	0	0	-1	250
24446715	7065	386	0	-100	0	230	101300000	1000	0	0	-1	250
24459275	7072	381	0	-100	0	230	101300000	1000	0	0	-1	250
24471835	7072	379	0	-100	0	230	101300000	1000	0	0	-1	250
24484395	7078	380	0	-100	0	230	101300000	1000	0	0	-1	250
24496955	7074	384	0	-100	0	230	101300000	1000	0	0	-1	250
24509515	7071	378	0	-100	0	230	101300000	1000	0	0	-1	250
24522075	7077	380	0	-100	0	230	101300000	1000	0	0	-1	250
24534635	7079	386	0	-100	0	230	101300000	1000	0	0	-1	250
24547195	7076	380	0	-100	0	230	101300000	1000	0	0	-1	250
24559755	7075	378	0	-100	0	230	101300000	1000	0	0	-1	250
24572315	7069	383	0	-100	0	230	101300000	1000	0	0	-1	250
24584875	7072	383	0	-100	0	230	101300000	1000	0	0	-1	250
24597435	7073	378	0	-100	0	230	101300000	1000	0	0	-1	250
24609995	7079	382	0	-100	0	230	101300000	1000	0	0	-1	250
24622555	7069	383	0	-100	0	230	101300000	1000	0	0	-1	250
24635115	7068	378	0	-100	0	230	101300000	1000	0	0	-1	250
24647675	7079	379	0	-100	0	230	101300000	1000	0	0	-1	250
24660235	7068	385	0	-100	0	230	101300000	1000	0	0	-1	250
24672795	7073	383	0	-100	0	230	101300000	1000	0	0	-1	250
24685355	7071	379	0	-100	0	230	101300000	1000	0	0	-1	250
24697915	7075	378	0	-100	0	230	101300000	1000	0	0	-1	250
24710475	7072	386	0	-100	0	230	101300000	1000	0	0	-1	250
24723035	7068	382	0	-100	0	230	101300000	1000	0	0	-1	250
24735595	7072	377	0	-100	0	230	101300000	1000	0	0	-1	250
24748155	7077	380	0	-100	0	230	101300000	1000	0	0	-1	250
24760715	7076	379	0	-100	0	230	101300000	1000	0	0	-1	250
24773275	7070	386	0	-100	0	230	101300000	1000	0	0	-1	250
24785835	7070	385	0	-100	0	230	101300000	1000	0	0	-1	250
24798395	7073	378	0	-100	0	230	101300000	1000	0	0	-1	250
24810955	7072	378	0	-100	0	230	101300000	1000	0	0	-1	250
24823515	7082	376	0	-100	0	230	101300000	1000	0	0	-1	250
24861195	7070	383	0	-100	0	230	101300000	1000	0	0	-1	250
24873755	7071	386	0	-100	0	230	101300000	1000	0	0	-1	250
24886315	7070	383	0	-100	0	230	101300000	1000	0	0	-1	250
24898875	7068	383	0	-100	0	230	101300000	1000	0	0	-1	250
24911435	7068	378	0	-100	0	230	101300000	1000	0	0	-1	250
24923995	7075	382	0	-100	0	230	101300000	1000	0	0	-1	250
24936555	7079	379	0	-100	0	230	101300000	1000	0	0	-1	250
24949115	7074	383	0	-100	0	230	101300000	1000	0	0	-1	250
24961675	7068	385	0	-100	0	230	101300000	1000	0	0	-1	250
24974235	7072	380	0	-100	0	230	101300000	1000	0	0	-1	250
24986795	7086	379	0	-100	0	230	101300000	1000	0	0	-1	250
24999355	7077	383	0	-100	0	230	101300000	1000	0	0	-1	250
25037035	7075	379	0	-100	0	230	101300000	1000	0	0	-1	250
25049595	7078	380	0	-100	0	230	101300000	1000	0	0	-1	250
25062155	7078	385	0	-100	0	230	101300000	1000	0	0	-1	250
25074715	7073	378	0	-100	0	230	101300000	1000	0	0	-1	250
25087275	7075	379	0	-100	0	230	101300000	1000	0	0	-1	250
25099835	7074	387	0	-100	0	230	101300000	1000	0	0	-1	250
25112395	7074	379	0	-100	0	230	101300000	1000	0	0	-1	250
25124955	7082	379	0	-100	0	230	101300000	1000	0	0	-1	250
25137515	7087	379	0	-100	0	230	101300000	1000	0	0	-1	250
25150075	7078	386	0	-100	0	230	101300000	1000	0	0	-1	250
25162635	7068	382	0	-100	0	230	101300000	1000	0	0	-1	250
25175195	7070	378	0	-100	0	230	101300000	1000	0	0	-1	250
25187755	7077	379	0	-100	0	230	101300000	1000	0	0	-1	250
25200315	7078	376	0	-100	0	230	101300000	1000	0	0	-1	250
25212875	7076	383	0	-100	0	230	101300000	1000	0	0	-1	250
25225435	7070	382	0	-100	0	230	101300000	1000	0	0	-1	250
25237995	7062	380	0	-100	0	230	101300000	1000	0	0	-1	250
25250555	7079	378	0	-100	0	230	101300000	1000	0	0	-1	250
25263115	7077	385	0	-100	0	230	101300000	1000	0	0	-1	250
25275675	7071	383	0	-100	0	230	101300000	1000	0	0	-1	250
25288235	7077	377	0	-100	0	230	101300000	1000	0	0	-1	250
25300795	7082	379	0	-100	0	230	101300000	1000	0	0	-1	250
25313355	7079	385	0	-100	0	230	101300000	1000	0	0	-1	250
25325915	7077	382	0	-100	0	230	101300000	1000	0	0	-1	250
25338475	7082	378	0	-100	0	230	101300000	1000	0	0	-1	250
25351035	7077	377	0	-100	0	230	101300000	1000	0	0	-1	250
25363595	7074	379	0	-100	0	230	101300000	1000	0	0	-1	250
25376155	7074	385	0	-100	0	230	101300000	1000	0	0	-1	250
25388715	7061	382	0	-100	0	230	101300000	1000	0	0	-1	250
25401275	7077	379	0	-100	0	230	101300000	1000	0	0	-1	250
25413835	7073	376	0	-100	0	230	101300000	1000	0	0	-1	250
25426395	7065	382	0	-100	0	230	101300000	1000	0	0	-1	250
25438955	7070	383	0	-100	0	230	101300000	1000	0	0	-1	250
25451515	7077	377	0	-100	0	230	101300000	1000	0	0	-1	250
25464075	7085	380	0	-100	0	230	101300000	1000	0	0	-1	250
25476635	7072	384	0	-100	0	230	101300000	1000	0	0	-1	250
25489195	7070	379	0	-100	0	230	101300000	1000	0	0	-1	250
25501755	7078	380	0	-100	0	230	101300000	1000	0	0	-1	250
25514315	7074	385	0	-100	0	230	101300000	1000	0	0	-1	250
25526875	7081	379	0	-100	0	230	101300000	1000	0	0	-1	250
25539435	7079	379	0	-100	0	230	101300000	1000	0	0	-1	250
25551995	7077	379	0	-100	0	230	101300000	1000	0	0	-1	250
25564555	7076	381	0	-100	0	230	101300000	1000	0	0	-1	250
25577115	7071	378	0	-100	0	230	101300000	1000	0	0	-1	250
25589675	7081	379	0	-100	0	230	101300000	1000	0	0	-1	250
25602235	7071	383	0	-100	0	230	101300000	1000	0	0	-1	250
25614795	7074	381	0	-100	0	230	101300000	1000	0	0	-1	250
25627355	7082	379	0	-100	0	230	101300000	1000	0	0	-1	250
25639915	7068	385	0	-100	0	230	101300000	1000	0	0	-1	250
25652475	7079	378	0	-100	0	230	101300000	1000	0	0	-1	250
25665035	7075	377	0	-100	0	230	101300000	1000	0	0	-1	250
25677595	7065	384	0	-100	0	230	101300000	1000	0	0	-1	250
25690155	7070	378	0	-100	0	230	101300000	1000	0	0	-1	250
25702715	7079	379	0	-100	0	230	101300000	1000	0	0	-1	250
25715275	7070	386	0	-100	0	230	101300000	1000	0	0	-1	250
25727835	7071	379	0	-100	0	230	101300000	1000	0	0	-1	250
25740395	7072	381	0	-100	0	230	101300000	1000	0	0	-1	250
25752955	7065	383	0	-100	0	230	101300000	1000	0	0	-1	250
25765515	7075	375	0	-100	0	230	101300000	1000	0	0	-1	250
25778075	7072	384	0	-100	0	230	101300000	1000	0	0	-1	250
25790635	7077	379	0	-100	0	230	101300000	1000	0	0	-1	250
25803195	7076	383	0	-100	0	230	101300000	1000	0	0	-1	250
25815755	7075	379	0	-100	0	230	101300000	1000	0	0	-1	250
25828315	7080	380	0	-100	0	230	101300000	1000	0	0	-1	250
25840875	7064	382	0	-100	0	230	101300000	1000	0	0	-1	250
25853435	7075	379	0	-100	0	230	101300000	1000	0	0	-1	250
25865995	7074	379	0	-100	0	230	101300000	1000	0	0	-1	250
25878555	7077	378	0	-100	0	230	101300000	1000	0	0	-1	250
25891115	7070	383	0	-100	0	230	101300000	1000	0	0	-1	250
25903675	7068	382	0	-100	0	230	101300000	1000	0	0	-1	250
25916235	7079	378	0	-100	0	230	101300000	1000	0	0	-1	250
25928795	7071	383	0	-100	0	230	101300000	1000	0	0	-1	250
25941355	7075	378	0	-100	0	230	101300000	1000	0	0	-1	250
25953915	7079	379	0	-100	0	230	101300000	1000	0	0	-1	250
25966475	7073	381	0	-100	0	230	101300000	1000	0	0	-1	250
25979035	7081	380	0	-100	0	230	101300000	1000	0	0	-1	250
25991595	7066	382	0	-100	0	230	101300000	1000	0	0	-1	250
26004155	7077	375	0	-100	0	230	101300000	1000	0	0	-1	250
26016715	7072	386	0	-100	0	230	101300000	1000	0	0	-1	250
26029275	7072	378	0	-100	0	230	101300000	1000	0	0	-1	250
26041835	7075	383	0	-100	0	230	101300000	1000	0	0	-1	250
26054395	7080	379	0	-100	0	230	101300000	1000	0	0	-1	250
26066955	7072	383	0	-100	0	230	101300000	1000	0	0	-1	250
26079515	7067	379	0	-100	0	230	101300000	1000	0	0	-1	250
26092075	7083	380	0	-100	0	230	101300000	1000	0	0	-1	250
26104635	7070	382	0	-100	0	230	101300000	1000	0	0	-1	250
26117195	7074	377	0	-100	0	230	101300000	1000	0	0	-1	250
26129755	7072	386	0	-100	0	230	101300000	1000	0	0	-1	250
26142315	7069	378	0	-100	0	230	101300000	1000	0	0	-1	250
26154875	7076	378	0	-100	0	230	101300000	1000	0	0	-1	250
26167435	7077	387	0	-100	0	230	101300000	1000	0	0	-1	250
26179995	7076	384	0	-100	0	230	101300000	1000	0	0	-1	250
26192555	7081	383	0	-100	0	230	101300000	1000	0	0	-1	250
26205115	7081	381	0	-100	0	230	101300000	1000	0	0	-1	250
26217675	7064	382	0	-100	0	230	101300000	1000	0	0	-1	250
26230235	7070	379	0	-100	0	230	101300000	1000	0	0	-1	250
26242795	7068	382	0	-100	0	230	101300000	1000	0	0	-1	250
26255355	7081	378	0	-100	0	230	101300000	1000	0	0	-1	250
26267915	7064	382	0	-100	0	230	101300000	1000	0	0	-1	250
26280475	7079	378	0	-100	0	230	101300000	1000	0	0	-1	250
26293035	7072	382	0	-100	0	230	101300000	1000	0	0	-1	250
26305595	7084	380	0	-100	0	230	101300000	1000	0	0	-1	250
26318155	7077	384	0	-100	0	230	101300000	1000	0	0	-1	250
26330715	7075	378	0	-100	0	230	101300000	1000	0	0	-1	250
26343275	7069	387	0	-100	0	230	101300000	1000	0	0	-1	250
26355835	7075	375	0	-100	0	230	101300000	1000	0	0	-1	250
26368395	7074	387	0	-100	0	230	101300000	1000	0	0	-1	250
26380955	7074	379	0	-100	0	230	101300000	1000	0	0	-1	250
26393515	7074	386	0	-100	0	230	101300000	1000	0	0	-1	250
26406075	7077	379	0	-100	0	230	101300000	1000	0	0	-1	250
26418635	7072	386	0	-100	0	230	101300000	1000	0	0	-1	250
26431195	7064	378	0	-100	0	230	101300000	1000	0	0	-1	250
26443755	7078	382	0	-100	0	230	101300000	1000	0	0	-1	250
26456315	7065	378	0	-100	0	230	101300000	1000	0	0	-1	250
26468875	7077	379	0	-100	0	230	101300000	1000	0	0	-1	250
26481435	7074	383	0	-100	0	230	101300000	1000	0	0	-1	250
26493995	7084	386	0	-100	0	230	101300000	1000	0	0	-1	250
26506555	7070	384	0	-100	0	230	101300000	1000	0	0	-1	250
26519115	7075	378	0	-100	0	230	101300000	1000	0	0	-1	250
26531675	7066	384	0	-100	0	230	101300000	1000	0	0	-1	250
26544235	7067	381	0	-100	0	230	101300000	1000	0	0	-1	250
26556795	7075	379	0	-100	0	230	101300000	1000	0	0	-1	250
26569355	7072	385	0	-100	0	230	101300000	1000	0	0	-1	250
26581915	7069	374	0	-100	0	230	101300000	1000	0	0	-1	250
26594475	7076	385	0	-100	0	230	101300000	1000	0	0	-1	250
26607035	7073	379	0	-100	0	230	101300000	1000	0	0	-1	250
26619595	7070	385	0	-100	0	230	101300000	1000	0	0	-1	250
26632155	7078	377	0	-100	0	230	101300000	1000	0	0	-1	250
26644715	7068	384	0	-100	0	230	101300000	1000	0	0	-1	250
26657275	7068	379	0	-100	0	230	101300000	1000	0	0	-1	250
26669835	7083	381	0	-100	0	230	101300000	1000	0	0	-1	250
26682395	7073	383	0	-100	0	230	101300000	1000	0	0	-1	250
26694955	7078	378	0	-100	0	230	101300000	1000	0	0	-1	250
26707515	7071	383	0	-100	0	230	101300000	1000	0	0	-1	250
26720075	7072	387	0	-100	0	230	101300000	1000	0	0	-1	250
26732635	7074	380	0	-100	0	230	101300000	1000	0	0	-1	250
26745195	7077	379	0	-100	0	230	101300000	1000	0	0	-1	250
26757755	7079	381	0	-100	0	230	101300000	1000	0	0	-1	250
26770315	7074	386	0	-100	0	230	101300000	1000	0	0	-1	250
26782875	7077	379	0	-100	0	230	101300000	1000	0	0	-1	250
26795435	7080	378	0	-100	0	230	101300000	1000	0	0	-1	250
26807995	7072	379	0	-100	0	230	101300000	1000	0	0	-1	250
26820555	7068	379	0	-100	0	230	101300000	1000	0	0	-1	250
26833115	7077	379	0	-100	0	230	101300000	1000	0	0	-1	250
26845675	7065	385	0	-100	0	230	101300000	1000	0	0	-1	250
26858235	7063	382	0	-100	0	230	101300000	1000	0	0	-1	250
26870795	7078	378	0	-100	0	230	101300000	1000	0	0	-1	250
26883355	7082	378	0	-100	0	230	101300000	1000	0	0	-1	250
26895915	7068	386	0	-100	0	230	101300000	1000	0	0	-1	250
26908475	7074	382	0	-100	0	230	101300000	1000	0	0	-1	250
26921035	7073	377	0	-100	0	230	101300000	1000	0	0	-1	250
26933595	7073	378	0	-100	0	230	101300000	1000	0	0	-1	250
26946155	7078	378	0	-100	0	230	101300000	1000	0	0	-1	250
26958715	7075	380	0	-100	0	230	101300000	1000	0	0	-1	250
26971275	7077	384	0	-100	0	230	101300000	1000	0	0	-1	250
26983835	7079	385	0	-100	0	230	101300000	1000	0	0	-1	250
26996395	7071	382	0	-100	0	230	101300000	1000	0	0	-1	250
27008955	7077	378	0	-100	0	230	101300000	1000	0	0	-1	250
27021515	7077	378	0	-100	0	230	101300000	1000	0	0	-1	250
27034075	7081	379	0	-100	0	230	101300000	1000	0	0	-1	250
27046635	7065	383	0	-100	0	230	101300000	1000	0	0	-1	250
27059195	7074	385	0	-100	0	230	101300000	1000	0	0	-1	250
27071755	7068	378	0	-100	0	230	101300000	1000	0	0	-1	250
27084315	7078	379	0	-100	0	230	101300000	1000	0	0	-1	250
27096875	7079	379	0	-100	0	230	101300000	1000	0	0	-1	250
27109435	7076	383	0	-100	0	230	101300000	1000	0	0	-1	250
27121995	7068	380	0	-100	0	230	101300000	1000	0	0	-1	250
27134555	7075	377	0	-100	0	230	101300000	1000	0	0	-1	250
27147115	7084	379	0	-100	0	230	101300000	1000	0	0	-1	250
27159675	7075	384	0	-100	0	230	101300000	1000	0	0	-1	250
27172235	7077	382	0	-100	0	230	101300000	1000	0	0	-1	250
27184795	7079	382	0	-100	0	230	101300000	1000	0	0	-1	250
27197355	7068	378	0	-100	0	230	101300000	1000	0	0	-1	250
27209915	7074	379	0	-100	0	230	101300000	1000	0	0	-1	250
27222475	7080	379	0	-100	0	230	101300000	1000	0	0	-1	250
27235035	7072	383	0	-100	0	230	101300000	1000	0	0	-1	250
27247595	7070	380	0	-100	0	230	101300000	1000	0	0	-1	250
27260155	7072	376	0	-100	0	230	101300000	1000	0	0	-1	250
27272715	7077	379	0	-100	0	230	101300000	1000	0	0	-1	250
27285275	7072	384	0	-100	0	230	101300000	1000	0	0	-1	250
27297835	7079	381	0	-100	0	230	101300000	1000	0	0	-1	250
27310395	7072	378	0	-100	0	230	101300000	1000	0	0	-1	250
27322955	7077	378	0	-100	0	230	101300000	1000	0	0	-1	250
27335515	7081	384	0	-100	0	230	101300000	1000	0	0	-1	250
27348075	7069	381	0	-100	0	230	101300000	1000	0	0	-1	250
27360635	7075	378	0	-100	0	230	101300000	1000	0	0	-1	250
27373195	7076	381	0	-100	0	230	101300000	1000	0	0	-1	250
27385755	7065	383	0	-100	0	230	101300000	1000	0	0	-1	250
27398315	7075	377	0	-100	0	230	101300000	1000	0	0	-1	250
27410875	7072	385	0	-100	0	230	101300000	1000	0	0	-1	250
27423435	7068	380	0	-100	0	230	101300000	1000	0	0	-1	250
27435995	7077	386	0	-100	0	230	101300000	1000	0	0	-1	250
27448555	7077	386	0	-100	0	230	101300000	1000	0	0	-1	250
27461115	7074	383	0	-100	0	230	101300000	1000	0	0	-1	250
27473675	7077	378	0	-100	0	230	101300000	1000	0	0	-1	250
27486235	7079	379	0	-100	0	230	101300000	1000	0	0	-1	250
27498795	7072	383	0	-100	0	230	101300000	1000	0	0	-1	250
27511355	7077	384	0	-100	0	230	101300000	1000	0	0	-1	250
27523915	7070	382	0	-100	0	230	101300000	1000	0	0	-1	250
27536475	7075	377	0	-100	0	230	101300000	1000	0	0	-1	250
27549035	7080	375	0	-100	0	230	101300000	1000	0	0	-1	250
27561595	7074	382	0	-100	0	230	101300000	1000	0	0	-1	250
27574155	7070	386	0	-100	0	230	101300000	1000	0	0	-1	250
27586715	7081	378	0	-100	0	230	101300000	1000	0	0	-1	250
27599275	7080	377	0	-100	0	230	101300000	1000	0	0	-1	250
27611835	7081	382	0	-100	0	230	101300000	1000	0	0	-1	250
27624395	7074	383	0	-100	0	230	101300000	1000	0	0	-1	250
27636955	7077	378	0	-100	0	230	101300000	1000	0	0	-1	250
27649515	7072	381	0	-100	0	230	101300000	1000	0	0	-1	250
27662075	7063	385	0	-100	0	230	101300000	1000	0	0	-1	250
27674635	7081	383	0	-100	0	230	101300000	1000	0	0	-1	250
27687195	7079	379	0	-100	0	230	101300000	1000	0	0	-1	250
27699755	7084	379	0	-100	0	230	101300000	1000	0	0	-1	250
27712315	7072	385	0	-100	0	230	101300000	1000	0	0	-1	250
27724875	7074	383	0	-100	0	230	101300000	1000	0	0	-1	250
27737435	7068	378	0	-100	0	230	101300000	1000	0	0	-1	250
27749995	7084	384	0	-100	0	230	101300000	1000	0	0	-1	250
27762555	7076	382	0	-100	0	230	101300000	1000	0	0	-1	250
27775115	7081	384	0	-100	0	230	101300000	1000	0	0	-1	250
27787675	7072	386	0	-100	0	230	101300000	1000	0	0	-1	250
27800235	7074	383	0	-100	0	230	101300000	1000	0	0	-1	250
27812795	7066	380	0	-100	0	230	101300000	1000	0	0	-1	250
27825355	7075	378	0	-100	0	230	101300000	1000	0	0	-1	250
27837915	7081	379	0	-100	0	230	101300000	1000	0	0	-1	250
27850475	7068	382	0	-100	0	230	101300000	1000	0	0	-1	250
27863035	7072	385	0	-100	0	230	101300000	1000	0	0	-1	250
27925835	7068	385	0	-100	0	230	101300000	1000	0	0	-1	250
27938395	7064	383	0	-100	0	230	101300000	1000	0	0	-1	250
27950955	7082	378	0	-100	0	230	101300000	1000	0	0	-1	250
27963515	7076	385	0	-100	0	230	101300000	1000	0	0	-1	250
27976075	7077	377	0	-100	0	230	101300000	1000	0	0	-1	250
27988635	7072	384	0	-100	0	230	101300000	1000	0	0	-1	250
28001195	7075	378	0	-100	0	230	101300000	1000	0	0	-1	250
28013755	7079	383	0	-100	0	230	101300000	1000	0	0	-1	250
28026315	7068	378	0	-100	0	230	101300000	1000	0	0	-1	250
28038875	7070	382	0	-100	0	230	101300000	1000	0	0	-1	250
28051435	7079	378	0	-100	0	230	101300000	1000	0	0	-1	250
28063995	7075	385	0	-100	0	230	101300000	1000	0	0	-1	250
28076555	7070	381	0	-100	0	230	101300000	1000	0	0	-1	250
28089115	7081	381	0	-100	0	230	101300000	1000	0	0	-1	250
28101675	7072	383	0	-100	0	230	101300000	1000	0	0	-1	250
28114235	7066	382	0	-100	0	230	101300000	1000	0	0	-1	250
28126795	7075	377	0	-100	0	230	101300000	1000	0	0	-1	250
28139355	7075	377	0	-100	0	230	101300000	1000	0	0	-1	250
28151915	7084	379	0	-100	0	230	101300000	1000	0	0	-1	250
28164475	7074	385	0	-100	0	230	101300000	1000	0	0	-1	250
28177035	7064	384	0	-100	0	230	101300000	1000	0	0	-1	250
28189595	7071	379	0	-100	0	230	101300000	1000	0	0	-1	250
28202155	7068	382	0	-100	0	230	101300000	1000	0	0	-1	250
28214715	7068	383	0	-100	0	230	101300000	1000	0	0	-1	250
28227275	7075	378	0	-100	0	230	101300000	1000	0	0	-1	250
28239835	7067	383	0	-100	0	230	101300000	1000	0	0	-1	250
28252395	7068	382	0	-100	0	230	101300000	1000	0	0	-1	250
28264955	7077	378	0	-100	0	230	101300000	1000	0	0	-1	250
28277515	7076	378	0	-100	0	230	101300000	1000	0	0	-1	250
28290075	7076	384	0	-100	0	230	101300000	1000	0	0	-1	250
28302635	7074	380	0	-100	0	230	101300000	1000	0	0	-1	250
28315195	7071	383	0	-100	0	230	101300000	1000	0	0	-1	250
28327755	7080	378	0	-100	0	230	101300000	1000	0	0	-1	250
28340315	7076	385	0	-100	0	230	101300000	1000	0	0	-1	250
28352875	7077	378	0	-100	0	230	101300000	1000	0	0	-1	250
28365435	7075	385	0	-100	0	230	101300000	1000	0	0	-1	250
28377995	7091	386	0	-100	0	230	101300000	1000	0	0	-1	250
28390555	7068	382	0	-100	0	230	101300000	1000	0	0	-1	250
28403115	7084	379	0	-100	0	230	101300000	1000	0	0	-1	250
28415675	7070	381	0	-100	0	230	101300000	1000	0	0	-1	250
28428235	7080	378	0	-100	0	230	101300000	1000	0	0	-1	250
28440795	7072	379	0	-100	0	230	101300000	1000	0	0	-1	250
28453355	7066	382	0	-100	0	230	101300000	1000	0	0	-1	250
28465915	7074	378	0	-100	0	230	101300000	1000	0	0	-1	250
28478475	7065	383	0	-100	0	230	101300000	1000	0	0	-1	250
28491035	7082	376	0	-100	0	230	101300000	1000	0	0	-1	250
28503595	7065	384	0	-100	0	230	101300000	1000	0	0	-1	250
28516155	7076	375	0	-100	0	230	101300000	1000	0	0	-1	250
28528715	7076	386	0	-100	0	230	101300000	1000	0	0	-1	250
28541275	7071	376	0	-100	0	230	101300000	1000	0	0	-1	250
28553835	7076	386	0	-100	0	230	101300000	1000	0	0	-1	250
28566395	7077	378	0	-100	0	230	101300000	1000	0	0	-1	250
28578955	7070	380	0	-100	0	230	101300000	1000	0	0	-1	250
28591515	7066	384	0	-100	0	230	101300000	1000	0	0	-1	250
28604075	7080	379	0	-100	0	230	101300000	1000	0	0	-1	250
28616635	7072	387	0	-100	0	230	101300000	1000	0	0	-1	250
28629195	7071	376	0	-100	0	230	101300000	1000	0	0	-1	250
28641755	7072	385	0	-100	0	230	101300000	1000	0	0	-1	250
28654315	7075	379	0	-100	0	230	101300000	1000	0	0	-1	250
28666875	7070	384	0	-100	0	230	101300000	1000	0	0	-1	250
28679435	7079	378	0	-100	0	230	101300000	1000	0	0	-1	250
28691995	7063	378	0	-100	0	230	101300000	1000	0	0	-1	250
28704555	7075	378	0	-100	0	230	101300000	1000	0	0	-1	250
28717115	7074	381	0	-100	0	230	101300000	1000	0	0	-1	250
28729675	7079	380	0	-100	0	230	101300000	1000	0	0	-1	250
28742235	7071	383	0	-100	0	230	101300000	1000	0	0	-1	250
28754795	7080	375	0	-100	0	230	101300000	1000	0	0	-1	250
28767355	7068	387	0	-100	0	230	101300000	1000	0	0	-1	250
28779915	7082	378	0	-100	0	230	101300000	1000	0	0	-1	250
28792475	7074	384	0	-100	0	230	101300000	1000	0	0	-1	250
28805035	7077	377	0	-100	0	230	101300000	1000	0	0	-1	250
28817595	7074	384	0	-100	0	230	101300000	1000	0	0	-1	250
28830155	7074	379	0	-100	0	230	101300000	1000	0	0	-1	250
28842715	7068	382	0	-100	0	230	101300000	1000	0	0	-1	250
28855275	7077	379	0	-100	0	230	101300000	1000	0	0	-1	250
28867835	7070	380	0	-100	0	230	101300000	1000	0	0	-1	250
28880395	7071	383	0	-100	0	230	101300000	1000	0	0	-1	250
28892955	7075	375	0	-100	0	230	101300000	1000	0	0	-1	250
28905515	7081	385	0	-100	0	230	101300000	1000	0	0	-1	250
28918075	7075	379	0	-100	0	230	101300000	1000	0	0	-1	250
28930635	7082	379	0	-100	0	230	101300000	1000	0	0	-1	250
28943195	7070	387	0	-100	0	230	101300000	1000	0	0	-1	250
28955755	7079	379	0	-100	0	230	101300000	1000	0	0	-1	250
28968315	7077	382	0	-100	0	230	101300000	1000	0	0	-1	250
28980875	7075	378	0	-100	0	230	101300000	1000	0	0	-1	250
28993435	7079	383	0	-100	0	230	101300000	1000	0	0	-1	250
29005995	7072	377	0	-100	0	230	101300000	1000	0	0	-1	250
29018555	7073	380	0	-100	0	230	101300000	1000	0	0	-1	250
29031115	7076	386	0	-100	0	230	101300000	1000	0	0	-1	250
29043675	7076	379	0	-100	0	230	101300000	1000	0	0	-1	250
29056235	7080	374	0	-100	0	230	101300000	1000	0	0	-1	250
29068795	7077	383	0	-100	0	230	101300000	1000	0	0	-1	250
29081355	7068	382	0	-100	0	230	101300000	1000	0	0	-1	250
29093915	7068	376	0	-100	0	230	101300000	1000	0	0	-1	250
29106475	7079	385	0	-100	0	230	101300000	1000	0	0	-1	250
29119035	7070	383	0	-100	0	230	101300000	1000	0	0	-1	250
29131595	7077	378	0	-100	0	230	101300000	1000	0	0	-1	250
29144155	7067	384	0	-100	0	230	101300000	1000	0	0	-1	250
29156715	7072	378	0	-100	0	230	101300000	1000	0	0	-1	250
29169275	7076	382	0	-100	0	230	101300000	1000	0	0	-1	250
29181835	7074	383	0	-100	0	230	101300000	1000	0	0	-1	250
29194395	7075	381	0	-100	0	230	101300000	1000	0	0	-1	250
29206955	7074	386	0	-100	0	230	101300000	1000	0	0	-1	250
29219515	7072	375	0	-100	0	230	101300000	1000	0	0	-1	250
29232075	7077	379	0	-100	0	230	101300000	1000	0	0	-1	250
29244635	7074	387	0	-100	0	230	101300000	1000	0	0	-1	250
29257195	7075	378	0	-100	0	230	101300000	1000	0	0	-1	250
29269755	7076	379	0	-100	0	230	101300000	1000	0	0	-1	250
29282315	7074	382	0	-100	0	230	101300000	1000	0	0	-1	250
29294875	7074	378	0	-100	0	230	101300000	1000	0	0	-1	250
29307435	7079	379	0	-100	0	230	101300000	1000	0	0	-1	250
29319995	7075	378	0	-100	0	230	101300000	1000	0	0	-1	250
29332555	7069	382	0	-100	0	230	101300000	1000	0	0	-1	250
29345115	7068	378	0	-100	0	230	101300000	1000	0	0	-1	250
29357675	7075	382	0	-100	0	230	101300000	1000	0	0	-1	250
29370235	7066	385	0	-100	0	230	101300000	1000	0	0	-1	250
29382795	7074	380	0	-100	0	230	101300000	1000	0	0	-1	250
29395355	7080	379	0	-100	0	230	101300000	1000	0	0	-1	250
29407915	7067	384	0	-100	0	230	101300000	1000	0	0	-1	250
29420475	7074	378	0	-100	0	230	101300000	1000	0	0	-1	250
29433035	7071	377	0	-100	0	230	101300000	1000	0	0	-1	250
29445595	7070	382	0	-100	0	230	101300000	1000	0	0	-1	250
29458155	7067	382	0	-100	0	230	101300000	1000	0	0	-1	250
29470715	7080	378	0	-100	0	230	101300000	1000	0	0	-1	250
29483275	7068	384	0	-100	0	230	101300000	1000	0	0	-1	250
29495835	7070	382	0	-100	0	230	101300000	1000	0	0	-1	250
29508395	7076	377	0	-100	0	230	101300000	1000	0	0	-1	250
29520955	7074	384	0	-100	0	230	101300000	1000	0	0	-1	250
29533515	7080	376	0	-100	0	230	101300000	1000	0	0	-1	250
29546075	7076	381	0	-100	0	230	101300000	1000	0	0	-1	250
29558635	7071	382	0	-100	0	230	101300000	1000	0	0	-1	250
29571195	7079	375	0	-100	0	230	101300000	1000	0	0	-1	250
29583755	7072	382	0	-100	0	230	101300000	1000	0	0	-1	250
29596315	7080	385	0	-100	0	230	101300000	1000	0	0	-1	250
29608875	7079	388	0	-100	0	230	101300000	1000	0	0	-1	250
29621435	7076	383	0	-100	0	230	101300000	1000	0	0	-1	250
29633995	7074	379	0	-100	0	230	101300000	1000	0	0	-1	250
29646555	7080	380	0	-100	0	230	101300000	1000	0	0	-1	250
29659115	7078	381	0	-100	0	230	101300000	1000	0	0	-1	250
29671675	7077	383	0	-100	0	230	101300000	1000	0	0	-1	250
29684235	7076	386	0	-100	0	230	101300000	1000	0	0	-1	250
29696795	7064	382	0	-100	0	230	101300000	1000	0	0	-1	250
29709355	7066	377	0	-100	0	230	101300000	1000	0	0	-1	250
29721915	7080	379	0	-100	0	230	101300000	1000	0	0	-1	250
29734475	7079	383	0	-100	0	230	101300000	1000	0	0	-1	250
29747035	7070	382	0	-100	0	230	101300000	1000	0	0	-1	250
29759595	7068	378	0	-100	0	230	101300000	1000	0	0	-1	250
29772155	7077	378	0	-100	0	230	101300000	1000	0	0	-1	250
29784715	7074	379	0	-100	0	230	101300000	1000	0	0	-1	250
29797275	7066	387	0	-100	0	230	101300000	1000	0	0	-1	250
29809835	7074	381	0	-100	0	230	101300000	1000	0	0	-1	250
29822395	7072	377	0	-100	0	230	101300000	1000	0	0	-1	250
29834955	7070	382	0	-100	0	230	101300000	1000	0	0	-1	250
29847515	7072	386	0	-100	0	230	101300000	1000	0	0	-1	250
29860075	7073	378	0	-100	0	230	101300000	1000	0	0	-1	250
29872635	7086	379	0	-100	0	230	101300000	1000	0	0	-1	250
29885195	7070	386	0	-100	0	230	101300000	1000	0	0	-1	250
29897755	7075	382	0	-100	0	230	101300000	1000	0	0	-1	250
29910315	7077	377	0	-100	0	230	101300000	1000	0	0	-1	250
29922875	7082	379	0	-100	0	230	101300000	1000	0	0	-1	250
29935435	7070	383	0	-100	0	230	101300000	1000	0	0	-1	250
29947995	7070	379	0	-100	0	230	101300000	1000	0	0	-1	250
29960555	7059	379	0	-100	0	230	101300000	1000	0	0	-1	250
29973115	7076	376	0	-100	0	230	101300000	1000	0	0	-1	250
29985675	7075	382	0	-100	0	230	101300000	1000	0	0	-1	250
29998235	7066	383	0	-100	0	230	101300000	1000	0	0	-1	250
30010795	7069	378	0	-100	0	230	101300000	1000	0	0	-1	250
30023355	7082	379	0	-100	0	230	101300000	1000	0	0	-1	250
30035915	7071	383	0	-100	0	230	101300000	1000	0	0	-1	250
30048475	7077	383	0	-100	0	230	101300000	1000	0	0	-1	250
30061035	7066	377	0	-100	0	230	101300000	1000	0	0	-1	250
30073595	7075	379	0	-100	0	230	101300000	1000	0	0	-1	250
30086155	7072	379	0	-100	0	230	101300000	1000	0	0	-1	250
30098715	7077	379	0	-100	0	230	101300000	1000	0	0	-1	250
30111275	7085	378	0	-100	0	230	101300000	1000	0	0	-1	250
30123835	7076	380	0	-100	0	230	101300000	1000	0	0	-1	250
30136395	7072	385	0	-100	0	230	101300000	1000	0	0	-1	250
30148955	7068	382	0	-100	0	230	101300000	1000	0	0	-1	250
30161515	7073	378	0	-100	0	230	101300000	1000	0	0	-1	250
30174075	7071	377	0	-100	0	230	101300000	1000	0	0	-1	250
30186635	7085	379	0	-100	0	230	101300000	1000	0	0	-1	250
30199195	7072	383	0	-100	0	230	101300000	1000	0	0	-1	250
30211755	7068	384	0	-100	0	230	101300000	1000	0	0	-1	250
30224315	7074	385	0	-100	0	230	101300000	1000	0	0	-1	250
30236875	7070	385	0	-100	0	230	101300000	1000	0	0	-1	250
30249435	7068	382	0	-100	0	230	101300000	1000	0	0	-1	250
30261995	7067	380	0	-100	0	230	101300000	1000	0	0	-1	250
30274555	7077	379	0	-100	0	230	101300000	1000	0	0	-1	250
30287115	7077	379	0	-100	0	230	101300000	1000	0	0	-1	250
30299675	7071	382	0	-100	0	230	101300000	1000	0	0	-1	250
30312235	7067	386	0	-100	0	230	101300000	1000	0	0	-1	250
30324795	7065	382	0	-100	0	230	101300000	1000	0	0	-1	250
30337355	7065	378	0	-100	0	230	101300000	1000	0	0	-1	250
30349915	7084	379	0	-100	0	230	101300000	1000	0	0	-1	250
30362475	7071	384	0	-100	0	230	101300000	1000	0	0	-1	250
30375035	7072	387	0	-100	0	230	101300000	1000	0	0	-1	250
30387595	7074	379	0	-100	0	230	101300000	1000	0	0	-1	250
30400155	7065	378	0	-100	0	230	101300000	1000	0	0	-1	250
30412715	7078	380	0	-100	0	230	101300000	1000	0	0	-1	250
30425275	7070	387	0	-100	0	230	101300000	1000	0	0	-1	250
30437835	7072	378	0	-100	0	230	101300000	1000	0	0	-1	250
30450395	7068	376	0	-100	0	230	101300000	1000	0	0	-1	250
30462955	7064	385	0	-100	0	230	101300000	1000	0	0	-1	250
30475515	7071	378	0	-100	0	230	101300000	1000	0	0	-1	250
30488075	7071	378	0	-100	0	230	101300000	1000	0	0	-1	250
30500635	7069	384	0	-100	0	230	101300000	1000	0	0	-1	250
30513195	7069	378	0	-100	0	230	101300000	1000	0	0	-1	250
30525755	7068	381	0	-100	0	230	101300000	1000	0	0	-1	250
30538315	7072	384	0	-100	0	230	101300000	1000	0	0	-1	250
30550875	7072	378	0	-100	0	230	101300000	1000	0	0	-1	250
30563435	7075	379	0	-100	0	230	101300000	1000	0	0	-1	250
30575995	7081	378	0	-100	0	230	101300000	1000	0	0	-1	250
30588555	7087	378	0	-100	0	230	101300000	1000	0	0	-1	250
30601115	7084	379	0	-100	0	230	101300000	1000	0	0	-1	250
30626235	7073	384	0	-100	0	230	101300000	1000	0	0	-1	250
30638795	7084	377	0	-100	0	230	101300000	1000	0	0	-1	250
30651355	7070	380	0	-100	0	230	101300000	1000	0	0	-1	250
30663915	7072	384	0	-100	0	230	101300000	1000	0	0	-1	250
30676475	7070	377	0	-100	0	230	101300000	1000	0	0	-1	250
30689035	7077	375	0	-100	0	230	101300000	1000	0	0	-1	250
30701595	7070	382	0	-100	0	230	101300000	1000	0	0	-1	250
30714155	7065	383	0	-100	0	230	101300000	1000	0	0	-1	250
30726715	7080	379	0	-100	0	230	101300000	1000	0	0	-1	250
30739275	7072	384	0	-100	0	230	101300000	1000	0	0	-1	250
30751835	7066	379	0	-100	0	230	101300000	1000	0	0	-1	250
30764395	7077	379	0	-100	0	230	101300000	1000	0	0	-1	250
30776955	7069	386	0	-100	0	230	101300000	1000	0	0	-1	250
30839755	7070	384	0	-100	0	230	101300000	1000	0	0	-1	250
30852315	7072	385	0	-100	0	230	101300000	1000	0	0	-1	250
30864875	7081	388	0	-100	0	230	101300000	1000	0	0	-1	250
30877435	7063	379	0	-100	0	230	101300000	1000	0	0	-1	250
30889995	7072	379	0	-100	0	230	101300000	1000	0	0	-1	250
30902555	7068	379	0	-100	0	230	101300000	1000	0	0	-1	250
30915115	7067	377	0	-100	0	230	101300000	1000	0	0	-1	250
30927675	7070	385	0	-100	0	230	101300000	1000	0	0	-1	250
30940235	7063	382	0	-100	0	230	101300000	1000	0	0	-1	250
30952795	7057	378	0	-100	0	230	101300000	1000	0	0	-1	250
30965355	7063	377	0	-100	0	230	101300000	1000	0	0	-1	250
30977915	7069	382	0	-100	0	230	101300000	1000	0	0	-1	250
31015595	7072	379	0	-100	0	230	101300000	1000	0	0	-1	250
31028155	7065	386	0	-100	0	230	101300000	1000	0	0	-1	250
31040715	7063	379	0	-100	0	230	101300000	1000	0	0	-1	250
31053275	7072	374	0	-100	0	230	101300000	1000	0	0	-1	250
31065835	7067	382	0	-100	0	230	101300000	1000	0	0	-1	250
31078395	7065	386	0	-100	0	230	101300000	1000	0	0	-1	250
31090955	7072	377	0	-100	0	230	101300000	1000	0	0	-1	250
31103515	7067	379	0	-100	0	230	101300000	1000	0	0	-1	250
31116075	7069	384	0	-100	0	230	101300000	1000	0	0	-1	250
31128635	7060	378	0	-100	0	230	101300000	1000	0	0	-1	250
31141195	7070	378	0	-100	0	230	101300000	1000	0	0	-1	250
31153755	7069	384	0	-100	0	230	101300000	1000	0	0	-1	250
31166315	7059	381	0	-100	0	230	101300000	1000	0	0	-1	250
31178875	7070	380	0	-100	0	230	101300000	1000	0	0	-1	250
31191435	7060	384	0	-100	0	230	101300000	1000	0	0	-1	250
31203995	7058	378	0	-100	0	230	101300000	1000	0	0	-1	250
31216555	7075	377	0	-100	0	230	101300000	1000	0	0	-1	250
31229115	7067	384	0	-100	0	230	101300000	1000	0	0	-1	250
31241675	7065	378	0	-100	0	230	101300000	1000	0	0	-1	250
31254235	7077	378	0	-100	0	230	101300000	1000	0	0	-1	250
31266795	7063	384	0	-100	0	230	101300000	1000	0	0	-1	250
31279355	7067	379	0	-100	0	230	101300000	1000	0	0	-1	250
31291915	7072	378	0	-100	0	230	101300000	1000	0	0	-1	250
31304475	7067	385	0	-100	0	230	101300000	1000	0	0	-1	250
31317035	7070	378	0	-100	0	230	101300000	1000	0	0	-1	250
31329595	7062	383	0	-100	0	230	101300000	1000	0	0	-1	250
31342155	7067	381	0	-100	0	230	101300000	1000	0	0	-1	250
31354715	7077	376	0	-100	0	230	101300000	1000	0	0	-1	250
31367275	7065	384	0	-100	0	230	101300000	1000	0	0	-1	250
31379835	7067	378	0	-100	0	230	101300000	1000	0	0	-1	250
31392395	7077	378	0	-100	0	230	101300000	1000	0	0	-1	250
31404955	7077	384	0	-100	0	230	101300000	1000	0	0	-1	250
31417515	7074	379	0	-100	0	230	101300000	1000	0	0	-1	250
31430075	7063	382	0	-100	0	230	101300000	1000	0	0	-1	250
31442635	7074	379	0	-100	0	230	101300000	1000	0	0	-1	250
31455195	7076	379	0	-100	0	230	101300000	1000	0	0	-1	250
31467755	7062	384	0	-100	0	230	101300000	1000	0	0	-1	250
31480315	7068	378	0	-100	0	230	101300000	1000	0	0	-1	250
31492875	7063	383	0	-100	0	230	101300000	1000	0	0	-1	250
31505435	7059	383	0	-100	0	230	101300000	1000	0	0	-1	250
31517995	7070	385	0	-100	0	230	101300000	1000	0	0	-1	250
31530555	7063	386	0	-100	0	230	101300000	1000	0	0	-1	250
31543115	7066	377	0	-100	0	230	101300000	1000	0	0	-1	250
31555675	7069	381	0	-100	0	230	101300000	1000	0	0	-1	250
31568235	7062	387	0	-100	0	230	101300000	1000	0	0	-1	250
31580795	7068	377	0	-100	0	230	101300000	1000	0	0	-1	250
31593355	7067	379	0	-100	0	230	101300000	1000	0	0	-1	250
31605915	7073	386	0	-100	0	230	101300000	1000	0	0	-1	250
31618475	7074	379	0	-100	0	230	101300000	1000	0	0	-1	250
31631035	7074	381	0	-100	0	230	101300000	1000	0	0	-1	250
31643595	7064	383	0	-100	0	230	101300000	1000	0	0	-1	250
31656155	7070	375	0	-100	0	230	101300000	1000	0	0	-1	250
31668715	7068	383	0	-100	0	230	101300000	1000	0	0	-1	250
31681275	7070	380	0	-100	0	230	101300000	1000	0	0	-1	250
31693835	7081	378	0	-100	0	230	101300000	1000	0	0	-1	250
31706395	7068	386	0	-100	0	230	101300000	1000	0	0	-1	250
31718955	7070	377	0	-100	0	230	101300000	1000	0	0	-1	250
31731515	7061	382	0	-100	0	230	101300000	1000	0	0	-1	250
31744075	7068	377	0	-100	0	230	101300000	1000	0	0	-1	250
31756635	7067	380	0	-100	0	230	101300000	1000	0	0	-1	250
31769195	7068	380	0	-100	0	230	101300000	1000	0	0	-1	250
31781755	7065	382	0	-100	0	230	101300000	1000	0	0	-1	250
31794315	7067	377	0	-100	0	230	101300000	1000	0	0	-1	250
31806875	7065	380	0	-100	0	230	101300000	1000	0	0	-1	250
31819435	7058	381	0	-100	0	230	101300000	1000	0	0	-1	250
31831995	7070	384	0	-100	0	230	101300000	1000	0	0	-1	250
31844555	7076	383	0	-100	0	230	101300000	1000	0	0	-1	250
31857115	7067	378	0	-100	0	230	101300000	1000	0	0	-1	250
31869675	7071	374	0	-100	0	230	101300000	1000	0	0	-1	250
31882235	7070	386	0	-100	0	230	101300000	1000	0	0	-1	250
31894795	7070	377	0	-100	0	230	101300000	1000	0	0	-1	250
31907355	7060	382	0	-100	0	230	101300000	1000	0	0	-1	250
31919915	7070	380	0	-100	0	230	101300000	1000	0	0	-1	250
31932475	7076	378	0	-100	0	230	101300000	1000	0	0	-1	250
31945035	7067	384	0	-100	0	230	101300000	1000	0	0	-1	250
31957595	7071	380	0	-100	0	230	101300000	1000	0	0	-1	250
31970155	7067	382	0	-100	0	230	101300000	1000	0	0	-1	250
31982715	7070	382	0	-100	0	230	101300000	1000	0	0	-1	250
31995275	7067	378	0	-100	0	230	101300000	1000	0	0	-1	250
32007835	7069	379	0	-100	0	230	101300000	1000	0	0	-1	250
32020395	7070	384	0	-100	0	230	101300000	1000	0	0	-1	250
32032955	7077	378	0	-100	0	230	101300000	1000	0	0	-1	250
32045515	7077	379	0	-100	0	230	101300000	1000	0	0	-1	250
32058075	7065	383	0	-100	0	230	101300000	1000	0	0	-1	250
32070635	7070	382	0	-100	0	230	101300000	1000	0	0	-1	250
32083195	7071	379	0	-100	0	230	101300000	1000	0	0	-1	250
32095755	7069	377	0	-100	0	230	101300000	1000	0	0	-1	250
32108315	7070	384	0	-100	0	230	101300000	1000	0	0	-1	250
32120875	7075	378	0	-100	0	230	101300000	1000	0	0	-1	250
32133435	7070	380	0	-100	0	230	101300000	1000	0	0	-1	250
32145995	7066	376	0	-100	0	230	101300000	1000	0	0	-1	250
32158555	7071	380	0	-100	0	230	101300000	1000	0	0	-1	250
32171115	7071	381	0	-100	0	230	101300000	1000	0	0	-1	250
32183675	7068	376	0	-100	0	230	101300000	1000	0	0	-1	250
32196235	7072	385	0	-100	0	230	101300000	1000	0	0	-1	250
32208795	7085	377	0	-100	0	230	101300000	1000	0	0	-1	250
32221355	7074	387	0	-100	0	230	101300000	1000	0	0	-1	250
32233915	7077	379	0	-100	0	230	101300000	1000	0	0	-1	250
32246475	7067	383	0	-100	0	230	101300000	1000	0	0	-1	250
32259035	7068	378	0	-100	0	230	101300000	1000	0	0	-1	250
32271595	7076	377	0	-100	0	230	101300000	1000	0	0	-1	250
32284155	7070	382	0	-100	0	230	101300000	1000	0	0	-1	250
32296715	7077	378	0	-100	0	230	101300000	1000	0	0	-1	250
32309275	7073	385	0	-100	0	230	101300000	1000	0	0	-1	250
32321835	7072	379	0	-100	0	230	101300000	1000	0	0	-1	250
32334395	7070	378	0	-100	0	230	101300000	1000	0	0	-1	250
32346955	7067	383	0	-100	0	230	101300000	1000	0	0	-1	250
32359515	7071	381	0	-100	0	230	101300000	1000	0	0	-1	250
32372075	7067	383	0	-100	0	230	101300000	1000	0	0	-1	250
32384635	7068	380	0	-100	0	230	101300000	1000	0	0	-1	250
32397195	7070	383	0	-100	0	230	101300000	1000	0	0	-1	250
32409755	7068	377	0	-100	0	230	101300000	1000	0	0	-1	250
32422315	7065	385	0	-100	0	230	101300000	1000	0	0	-1	250
32434875	7072	379	0	-100	0	230	101300000	1000	0	0	-1	250
32447435	7065	385	0	-100	0	230	101300000	1000	0	0	-1	250
32459995	7061	380	0	-100	0	230	101300000	1000	0	0	-1	250
32472555	7067	385	0	-100	0	230	101300000	1000	0	0	-1	250
32485115	7071	377	0	-100	0	230	101300000	1000	0	0	-1	250
32497675	7069	384	0	-100	0	230	101300000	1000	0	0	-1	250
32510235	7065	378	0	-100	0	230	101300000	1000	0	0	-1	250
32522795	7072	378	0	-100	0	230	101300000	1000	0	0	-1	250
32535355	7072	383	0	-100	0	230	101300000	1000	0	0	-1	250
32547915	7068	378	0	-100	0	230	101300000	1000	0	0	-1	250
32560475	7067	386	0	-100	0	230	101300000	1000	0	0	-1	250
32573035	7075	379	0	-100	0	230	101300000	1000	0	0	-1	250
32585595	7079	379	0	-100	0	230	101300000	1000	0	0	-1	250
32598155	7072	384	0	-100	0	230	101300000	1000	0	0	-1	250
32610715	7077	378	0	-100	0	230	101300000	1000	0	0	-1	250
32623275	7077	379	0	-100	0	230	101300000	1000	0	0	-1	250
32635835	7063	384	0	-100	0	230	101300000	1000	0	0	-1	250
32648395	7066	382	0	-100	0	230	101300000	1000	0	0	-1	250
32660955	7079	379	0	-100	0	230	101300000	1000	0	0	-1	250
32673515	7062	386	0	-100	0	230	101300000	1000	0	0	-1	250
32686075	7074	378	0	-100	0	230	101300000	1000	0	0	-1	250
32698635	7075	378	0	-100	0	230	101300000	1000	0	0	-1	250
32711195	7068	382	0	-100	0	230	101300000	1000	0	0	-1	250
32723755	7081	386	0	-100	0	230	101300000	1000	0	0	-1	250
32736315	7064	380	0	-100	0	230	101300000	1000	0	0	-1	250
32748875	7077	380	0	-100	0	230	101300000	1000	0	0	-1	250
32761435	7073	380	0	-100	0	230	101300000	1000	0	0	-1	250
32773995	7070	379	0	-100	0	230	101300000	1000	0	0	-1	250
32786555	7072	383	0	-100	0	230	101300000	1000	0	0	-1	250
32799115	7077	380	0	-100	0	230	101300000	1000	0	0	-1	250
32811675	7079	379	0	-100	0	230	101300000	1000	0	0	-1	250
32824235	7067	385	0	-100	0	230	101300000	1000	0	0	-1	250
32836795	7074	379	0	-100	0	230	101300000	1000	0	0	-1	250
32849355	7074	380	0	-100	0	230	101300000	1000	0	0	-1	250
32861915	7074	380	0	-100	0	230	101300000	1000	0	0	-1	250
32874475	7070	385	0	-100	0	230	101300000	1000	0	0	-1	250
32887035	7071	379	0	-100	0	230	101300000	1000	0	0	-1	250
32899595	7069	382	0	-100	0	230	101300000	1000	0	0	-1	250
32912155	7063	386	0	-100	0	230	101300000	1000	0	0	-1	250
32924715	7075	378	0	-100	0	230	101300000	1000	0	0	-1	250
32937275	7077	377	0	-100	0	230	101300000	1000	0	0	-1	250
32949835	7074	387	0	-100	0	230	101300000	1000	0	0	-1	250
32962395	7068	378	0	-100	0	230	101300000	1000	0	0	-1	250
32974955	7077	379	0	-100	0	230	101300000	1000	0	0	-1	250
32987515	7068	385	0	-100	0	230	101300000	1000	0	0	-1	250
33000075	7066	379	0	-100	0	230	101300000	1000	0	0	-1	250
33012635	7082	381	0	-100	0	230	101300000	1000	0	0	-1	250
33025195	7067	384	0	-100	0	230	101300000	1000	0	0	-1	250
33037755	7070	382	0	-100	0	230	101300000	1000	0	0	-1	250
33050315	7074	376	0	-100	0	230	101300000	1000	0	0	-1	250
33062875	7065	385	0	-100	0	230	101300000	1000	0	0	-1	250
33075435	7064	379	0	-100	0	230	101300000	1000	0	0	-1	250
33087995	7077	382	0	-100	0	230	101300000	1000	0	0	-1	250
33100555	7084	378	0	-100	0	230	101300000	1000	0	0	-1	250
33113115	7070	386	0	-100	0	230	101300000	1000	0	0	-1	250
33125675	7073	378	0	-100	0	230	101300000	1000	0	0	-1	250
33138235	7074	382	0	-100	0	230	101300000	1000	0	0	-1	250
33150795	7066	378	0	-100	0	230	101300000	1000	0	0	-1	250
33163355	7074	379	0	-100	0	230	101300000	1000	0	0	-1	250
33175915	7072	385	0	-100	0	230	101300000	1000	0	0	-1	250
33188475	7075	382	0	-100	0	230	101300000	1000	0	0	-1	250
33201035	7082	379	0	-100	0	230	101300000	1000	0	0	-1	250
33213595	7090	379	0	-100	0	230	101300000	1000	0	0	-1	250
33226155	7064	384	0	-100	0	230	101300000	1000	0	0	-1	250
33238715	7063	379	0	-100	0	230	101300000	1000	0	0	-1	250
33251275	7073	377	0	-100	0	230	101300000	1000	0	0	-1	250
33263835	7079	379	0	-100	0	230	101300000	1000	0	0	-1	250
33276395	7072	385	0	-100	0	230	101300000	1000	0	0	-1	250
33288955	7070	384	0	-100	0	230	101300000	1000	0	0	-1	250
33301515	7076	378	0	-100	0	230	101300000	1000	0	0	-1	250
33314075	7081	378	0	-100	0	230	101300000	1000	0	0	-1	250
33326635	7068	381	0	-100	0	230	101300000	1000	0	0	-1	250
33339195	7066	385	0	-100	0	230	101300000	1000	0	0	-1	250
33351755	7072	382	0	-100	0	230	101300000	1000	0	0	-1	250
33364315	7069	378	0	-100	0	230	101300000	1000	0	0	-1	250
33376875	7085	378	0	-100	0	230	101300000	1000	0	0	-1	250
33389435	7074	384	0	-100	0	230	101300000	1000	0	0	-1	250
33401995	7070	378	0	-100	0	230	101300000	1000	0	0	-1	250
33414555	7068	378	0	-100	0	230	101300000	1000	0	0	-1	250
33427115	7077	379	0	-100	0	230	101300000	1000	0	0	-1	250
33439675	7076	381	0	-100	0	230	101300000	1000	0	0	-1	250
33452235	7068	387	0	-100	0	230	101300000	1000	0	0	-1	250
33464795	7071	379	0	-100	0	230	101300000	1000	0	0	-1	250
33477355	7074	376	0	-100	0	230	101300000	1000	0	0	-1	250
33489915	7077	382	0	-100	0	230	101300000	1000	0	0	-1	250
33502475	7072	383	0	-100	0	230	101300000	1000	0	0	-1	250
33515035	7077	378	0	-100	0	230	101300000	1000	0	0	-1	250
33527595	7074	379	0	-100	0	230	101300000	1000	0	0	-1	250
33540155	7065	385	0	-100	0	230	101300000	1000	0	0	-1	250
33552715	7074	379	0	-100	0	230	101300000	1000	0	0	-1	250
33565275	7075	375	0	-100	0	230	101300000	1000	0	0	-1	250
33577835	7072	379	0	-100	0	230	101300000	1000	0	0	-1	250
33590395	7074	385	0	-100	0	230	101300000	1000	0	0	-1	250
33602955	7077	386	0	-100	0	230	101300000	1000	0	0	-1	250
33615515	7061	382	0	-100	0	230	101300000	1000	0	0	-1	250
33628075	7073	377	0	-100	0	230	101300000	1000	0	0	-1	250
33640635	7081	377	0	-100	0	230	101300000	1000	0	0	-1	250
33653195	7079	381	0	-100	0	230	101300000	1000	0	0	-1	250
33665755	7077	386	0	-100	0	230	101300000	1000	0	0	-1	250
33678315	7066	381	0	-100	0	230	101300000	1000	0	0	-1	250
33690875	7072	380	0	-100	0	230	101300000	1000	0	0	-1	250
33703435	7072	377	0	-100	0	230	101300000	1000	0	0	-1	250
33715995	7065	382	0	-100	0	230	101300000	1000	0	0	-1	250
33728555	7070	383	0	-100	0	230	101300000	1000	0	0	-1	250
33741115	7074	380	0	-100	0	230	101300000	1000	0	0	-1	250
33753675	7079	375	0	-100	0	230	101300000	1000	0	0	-1	250
33766235	7070	382	0	-100	0	230	101300000	1000	0	0	-1	250
33778795	7070	388	0	-100	0	230	101300000	1000	0	0	-1	250
33791355	7063	382	0	-100	0	230	101300000	1000	0	0	-1	250
33803915	7066	377	0	-100	0	230	101300000	1000	0	0	-1	250
33816475	7074	377	0	-100	0	230	101300000	1000	0	0	-1	250
33829035	7070	382	0	-100	0	230	101300000	1000	0	0	-1	250
33841595	7072	384	0	-100	0	230	101300000	1000	0	0	-1	250
33854155	7066	377	0	-100	0	230	101300000	1000	0	0	-1	250
33879275	7069	381	0	-100	0	230	101300000	1000	0	0	-1	250
33891835	7061	386	0	-100	0	230	101300000	1000	0	0	-1	250
33904395	7072	380	0	-100	0	230	101300000	1000	0	0	-1	250
33916955	7058	378	0	-100	0	230	101300000	1000	0	0	-1	250
33929515	7072	377	0	-100	0	230	101300000	1000	0	0	-1	250
33942075	7074	378	0	-100	0	230	101300000	1000	0	0	-1	250
33954635	7074	376	0	-100	0	230	101300000	1000	0	0	-1	250
33967195	7071	379	0	-100	0	230	101300000	1000	0	0	-1	250
33979755	7070	387	0	-100	0	230	101300000	1000	0	0	-1	250
33992315	7066	382	0	-100	0	230	101300000	1000	0	0	-1	250
34004875	7070	378	0	-100	0	230	101300000	1000	0	0	-1	250
34017435	7072	378	0	-100	0	230	101300000	1000	0	0	-1	250
34029995	7074	379	0	-100	0	230	101300000	1000	0	0	-1	250
34042555	7067	383	0	-100	0	230	101300000	1000	0	0	-1	250
