timestamp	voltage	current	windSpeed	pitchAngle	rpm	temperature	ambientPressure	humidity	accelerationX	accelerationY	accelerationZ	currentSink
7037070	5017	0	0	-100	0	230	101300000	1000	0	0	-1	0
7044523	5009	4	0	-100	0	230	101300000	1000	0	0	-1	0
7057083	5007	2	0	-100	0	230	101300000	1000	0	0	-1	0
7069643	5010	0	0	-100	0	230	101300000	1000	0	0	-1	0
7082203	5008	0	0	-100	0	230	101300000	1000	0	0	-1	0
7094763	5010	0	0	-100	0	230	101300000	1000	0	0	-1	0
7107323	5011	0	0	-100	0	230	101300000	1000	0	0	-1	0
7119883	5016	0	0	-100	0	230	101300000	1000	0	0	-1	0
7132443	5011	0	0	-100	0	230	101300000	1000	0	0	-1	0
7145004	5012	0	0	-100	0	230	101300000	1000	0	0	-1	0
7157563	5006	1	0	-100	0	230	101300000	1000	0	0	-1	0
7170123	5007	3	0	-100	0	230	101300000	1000	0	0	-1	0
7182683	5009	3	0	-100	0	230	101300000	1000	0	0	-1	0
7195243	5007	4	0	-100	0	230	101300000	1000	0	0	-1	0
7207803	5007	3	0	-100	0	230	101300000	1000	0	0	-1	0
7220363	5008	4	0	-100	0	230	101300000	1000	0	0	-1	0
7232923	5010	4	0	-100	0	230	101300000	1000	0	0	-1	0
7245483	5008	5	0	-100	0	230	101300000	1000	0	0	-1	0
7258043	5007	4	0	-100	0	230	101300000	1000	0	0	-1	0
7270603	5009	3	0	-100	0	230	101300000	1000	0	0	-1	0
7283163	5014	3	0	-100	0	230	101300000	1000	0	0	-1	0
7295723	5007	5	0	-100	0	230	101300000	1000	0	0	-1	0
7308283	5007	4	0	-100	0	230	101300000	1000	0	0	-1	0
7320843	5008	0	0	-100	0	230	101300000	1000	0	0	-1	0
7333403	5003	0	0	-100	0	230	101300000	1000	0	0	-1	0
7345963	5003	0	0	-100	0	230	101300000	1000	0	0	-1	0
7679115	7140	500	0	-100	0	230	101300000	1000	0	0	-1	300
7691675	7155	499	0	-100	0	230	101300000	1000	0	0	-1	300
7704235	7148	499	0	-100	0	230	101300000	1000	0	0	-1	300
7716795	7141	499	0	-100	0	230	101300000	1000	0	0	-1	300
7729355	7141	500	0	-100	0	230	101300000	1000	0	0	-1	300
7741915	7145	500	0	-100	0	230	101300000	1000	0	0	-1	300
7754475	7143	500	0	-100	0	230	101300000	1000	0	0	-1	300
7767035	7149	502	0	-100	0	230	101300000	1000	0	0	-1	300
7779595	7147	505	0	-100	0	230	101300000	1000	0	0	-1	300
7792155	7149	502	0	-100	0	230	101300000	1000	0	0	-1	300
7804715	7150	501	0	-100	0	230	101300000	1000	0	0	-1	300
7817275	7145	504	0	-100	0	230	101300000	1000	0	0	-1	300
7829835	7152	502	0	-100	0	230	101300000	1000	0	0	-1	300
7842395	7152	503	0	-100	0	230	101300000	1000	0	0	-1	300
7854955	7143	501	0	-100	0	230	101300000	1000	0	0	-1	300
7867515	7159	500	0	-100	0	230	101300000	1000	0	0	-1	300
7880075	7150	494	0	-100	0	230	101300000	1000	0	0	-1	300
7892635	7152	494	0	-100	0	230	101300000	1000	0	0	-1	300
7905195	7146	495	0	-100	0	230	101300000	1000	0	0	-1	300
7917755	7150	495	0	-100	0	230	101300000	1000	0	0	-1	300
7930315	7150	496	0	-100	0	230	101300000	1000	0	0	-1	300
7942875	7148	500	0	-100	0	230	101300000	1000	0	0	-1	300
7955435	7148	504	0	-100	0	230	101300000	1000	0	0	-1	300
7967995	7138	497	0	-100	0	230	101300000	1000	0	0	-1	300
7980555	7152	496	0	-100	0	230	101300000	1000	0	0	-1	300
7993115	7153	496	0	-100	0	230	101300000	1000	0	0	-1	300
8005675	7145	497	0	-100	0	230	101300000	1000	0	0	-1	300
8018235	7150	501	0	-100	0	230	101300000	1000	0	0	-1	300
8030795	7141	502	0	-100	0	230	101300000	1000	0	0	-1	300
8043355	7147	502	0	-100	0	230	101300000	1000	0	0	-1	300
8055915	7143	502	0	-100	0	230	101300000	1000	0	0	-1	300
8068475	7138	504	0	-100	0	230	101300000	1000	0	0	-1	300
8081035	7145	498	0	-100	0	230	101300000	1000	0	0	-1	300
8093595	7149	495	0	-100	0	230	101300000	1000	0	0	-1	300
8106155	7158	494	0	-100	0	230	101300000	1000	0	0	-1	300
8118715	7148	496	0	-100	0	230	101300000	1000	0	0	-1	300
8131275	7154	502	0	-100	0	230	101300000	1000	0	0	-1	300
8143835	7152	503	0	-100	0	230	101300000	1000	0	0	-1	300
8156395	7146	499	0	-100	0	230	101300000	1000	0	0	-1	300
8168955	7157	494	0	-100	0	230	101300000	1000	0	0	-1	300
8181515	7149	496	0	-100	0	230	101300000	1000	0	0	-1	300
8194075	7151	495	0	-100	0	230	101300000	1000	0	0	-1	300
8206635	7144	492	0	-100	0	230	101300000	1000	0	0	-1	300
8219195	7152	496	0	-100	0	230	101300000	1000	0	0	-1	300
8231755	7157	496	0	-100	0	230	101300000	1000	0	0	-1	300
8244315	7140	500	0	-100	0	230	101300000	1000	0	0	-1	300
8256875	7145	501	0	-100	0	230	101300000	1000	0	0	-1	300
8269435	7144	504	0	-100	0	230	101300000	1000	0	0	-1	300
8281995	7132	495	0	-100	0	230	101300000	1000	0	0	-1	300
8294555	7139	496	0	-100	0	230	101300000	1000	0	0	-1	300
8307115	7145	496	0	-100	0	230	101300000	1000	0	0	-1	300
8319675	7141	493	0	-100	0	230	101300000	1000	0	0	-1	300
8332235	7159	497	0	-100	0	230	101300000	1000	0	0	-1	300
8344795	7138	496	0	-100	0	230	101300000	1000	0	0	-1	300
8357355	7134	499	0	-100	0	230	101300000	1000	0	0	-1	300
8369915	7143	503	0	-100	0	230	101300000	1000	0	0	-1	300
8382475	7155	503	0	-100	0	230	101300000	1000	0	0	-1	300
8395035	7145	500	0	-100	0	230	101300000	1000	0	0	-1	300
8407595	7153	497	0	-100	0	230	101300000	1000	0	0	-1	300
8420155	7147	499	0	-100	0	230	101300000	1000	0	0	-1	300
8432715	7138	499	0	-100	0	230	101300000	1000	0	0	-1	300
8445275	7143	496	0	-100	0	230	101300000	1000	0	0	-1	300
8457835	7134	495	0	-100	0	230	101300000	1000	0	0	-1	300
8470395	7134	495	0	-100	0	230	101300000	1000	0	0	-1	300
8482955	7153	495	0	-100	0	230	101300000	1000	0	0	-1	300
8495515	7146	494	0	-100	0	230	101300000	1000	0	0	-1	300
8508075	7145	496	0	-100	0	230	101300000	1000	0	0	-1	300
8520635	7137	496	0	-100	0	230	101300000	1000	0	0	-1	300
8533195	7151	493	0	-100	0	230	101300000	1000	0	0	-1	300
8545755	7148	494	0	-100	0	230	101300000	1000	0	0	-1	300
8558315	7138	496	0	-100	0	230	101300000	1000	0	0	-1	300
8570875	7145	497	0	-100	0	230	101300000	1000	0	0	-1	300
8583435	7148	497	0	-100	0	230	101300000	1000	0	0	-1	300
8595995	7134	493	0	-100	0	230	101300000	1000	0	0	-1	300
8608555	7144	498	0	-100	0	230	101300000	1000	0	0	-1	300
8621115	7150	501	0	-100	0	230	101300000	1000	0	0	-1	300
8633675	7144	502	0	-100	0	230	101300000	1000	0	0	-1	300
8646235	7143	500	0	-100	0	230	101300000	1000	0	0	-1	300
8658795	7127	503	0	-100	0	230	101300000	1000	0	0	-1	300
8671355	7145	501	0	-100	0	230	101300000	1000	0	0	-1	300
8683915	7143	503	0	-100	0	230	101300000	1000	0	0	-1	300
8696475	7146	499	0	-100	0	230	101300000	1000	0	0	-1	300
8709035	7138	499	0	-100	0	230	101300000	1000	0	0	-1	300
8721595	7140	496	0	-100	0	230	101300000	1000	0	0	-1	300
8734155	7152	492	0	-100	0	230	101300000	1000	0	0	-1	300
8746715	7147	492	0	-100	0	230	101300000	1000	0	0	-1	300
8759275	7146	495	0	-100	0	230	101300000	1000	0	0	-1	300
8771835	7141	494	0	-100	0	230	101300000	1000	0	0	-1	300
8784395	7138	493	0	-100	0	230	101300000	1000	0	0	-1	300
8796955	7146	493	0	-100	0	230	101300000	1000	0	0	-1	300
8809515	7144	495	0	-100	0	230	101300000	1000	0	0	-1	300
8822075	7145	494	0	-100	0	230	101300000	1000	0	0	-1	300
8834635	7150	495	0	-100	0	230	101300000	1000	0	0	-1	300
8847195	7137	491	0	-100	0	230	101300000	1000	0	0	-1	300
8859755	7138	491	0	-100	0	230	101300000	1000	0	0	-1	300
8872315	7151	493	0	-100	0	230	101300000	1000	0	0	-1	300
8884875	7143	495	0	-100	0	230	101300000	1000	0	0	-1	300
8897435	7148	495	0	-100	0	230	101300000	1000	0	0	-1	300
8909995	7188	495	0	-100	0	230	101300000	1000	0	0	-1	300
8922555	7231	499	0	-100	0	230	101300000	1000	0	0	-1	300
8935115	7242	496	0	-100	0	230	101300000	1000	0	0	-1	300
8947675	7245	494	0	-100	0	230	101300000	1000	0	0	-1	300
8960235	7255	491	0	-100	0	230	101300000	1000	0	0	-1	300
8972795	7250	490	0	-100	0	230	101300000	1000	0	0	-1	300
8985355	7247	492	0	-100	0	230	101300000	1000	0	0	-1	300
8997915	7249	497	0	-100	0	230	101300000	1000	0	0	-1	300
9010475	7250	498	0	-100	0	230	101300000	1000	0	0	-1	300
9023035	7252	500	0	-100	0	230	101300000	1000	0	0	-1	300
9035595	7250	498	0	-100	0	230	101300000	1000	0	0	-1	300
9048155	7248	494	0	-100	0	230	101300000	1000	0	0	-1	300
9060715	7247	497	0	-100	0	230	101300000	1000	0	0	-1	300
9073275	7240	496	0	-100	0	230	101300000	1000	0	0	-1	300
9085835	7254	492	0	-100	0	230	101300000	1000	0	0	-1	300
9098395	7255	489	0	-100	0	230	101300000	1000	0	0	-1	300
9110955	7254	492	0	-100	0	230	101300000	1000	0	0	-1	300
9123515	7253	492	0	-100	0	230	101300000	1000	0	0	-1	300
9136075	7252	493	0	-100	0	230	101300000	1000	0	0	-1	300
9148635	7252	492	0	-100	0	230	101300000	1000	0	0	-1	300
9161195	7254	493	0	-100	0	230	101300000	1000	0	0	-1	300
9173755	7252	495	0	-100	0	230	101300000	1000	0	0	-1	300
9186315	7241	498	0	-100	0	230	101300000	1000	0	0	-1	300
9198875	7249	497	0	-100	0	230	101300000	1000	0	0	-1	300
9211435	7242	499	0	-100	0	230	101300000	1000	0	0	-1	300
9223995	7253	499	0	-100	0	230	101300000	1000	0	0	-1	300
9236555	7251	492	0	-100	0	230	101300000	1000	0	0	-1	300
9249115	7247	494	0	-100	0	230	101300000	1000	0	0	-1	300
9261675	7249	497	0	-100	0	230	101300000	1000	0	0	-1	300
9274235	7250	501	0	-100	0	230	101300000	1000	0	0	-1	300
9286795	7248	497	0	-100	0	230	101300000	1000	0	0	-1	300
9299355	7254	496	0	-100	0	230	101300000	1000	0	0	-1	300
9311915	7231	495	0	-100	0	230	101300000	1000	0	0	-1	300
9324475	7254	494	0	-100	0	230	101300000	1000	0	0	-1	300
9337035	7243	495	0	-100	0	230	101300000	1000	0	0	-1	300
9349595	7248	499	0	-100	0	230	101300000	1000	0	0	-1	300
9362155	7251	496	0	-100	0	230	101300000	1000	0	0	-1	300
9374715	7247	499	0	-100	0	230	101300000	1000	0	0	-1	300
9387275	7242	498	0	-100	0	230	101300000	1000	0	0	-1	300
9399835	7243	494	0	-100	0	230	101300000	1000	0	0	-1	300
9412395	7244	498	0	-100	0	230	101300000	1000	0	0	-1	300
9424955	7252	499	0	-100	0	230	101300000	1000	0	0	-1	300
9437515	7252	496	0	-100	0	230	101300000	1000	0	0	-1	300
9450075	7253	493	0	-100	0	230	101300000	1000	0	0	-1	300
9462635	7247	492	0	-100	0	230	101300000	1000	0	0	-1	300
9475195	7241	497	0	-100	0	230	101300000	1000	0	0	-1	300
9487755	7249	501	0	-100	0	230	101300000	1000	0	0	-1	300
9500315	7238	498	0	-100	0	230	101300000	1000	0	0	-1	300
9512875	7254	496	0	-100	0	230	101300000	1000	0	0	-1	300
9525435	7252	491	0	-100	0	230	101300000	1000	0	0	-1	300
9537995	7246	497	0	-100	0	230	101300000	1000	0	0	-1	300
9550555	7243	493	0	-100	0	230	101300000	1000	0	0	-1	300
9563115	7243	495	0	-100	0	230	101300000	1000	0	0	-1	300
9575675	7248	500	0	-100	0	230	101300000	1000	0	0	-1	300
9588235	7243	499	0	-100	0	230	101300000	1000	0	0	-1	300
9600795	7244	497	0	-100	0	230	101300000	1000	0	0	-1	300
9613355	7252	491	0	-100	0	230	101300000	1000	0	0	-1	300
9625915	7252	494	0	-100	0	230	101300000	1000	0	0	-1	300
9638475	7253	493	0	-100	0	230	101300000	1000	0	0	-1	300
9651035	7236	499	0	-100	0	230	101300000	1000	0	0	-1	300
9663595	7247	496	0	-100	0	230	101300000	1000	0	0	-1	300
9676155	7260	489	0	-100	0	230	101300000	1000	0	0	-1	300
9688715	7261	492	0	-100	0	230	101300000	1000	0	0	-1	300
9701275	7234	494	0	-100	0	230	101300000	1000	0	0	-1	300
9713835	7249	500	0	-100	0	230	101300000	1000	0	0	-1	300
9726395	7252	495	0	-100	0	230	101300000	1000	0	0	-1	300
9738955	7253	491	0	-100	0	230	101300000	1000	0	0	-1	300
9751515	7243	499	0	-100	0	230	101300000	1000	0	0	-1	300
9764075	7240	492	0	-100	0	230	101300000	1000	0	0	-1	300
9776635	7248	490	0	-100	0	230	101300000	1000	0	0	-1	300
9789195	7245	500	0	-100	0	230	101300000	1000	0	0	-1	300
9801755	7247	495	0	-100	0	230	101300000	1000	0	0	-1	300
9814315	7249	492	0	-100	0	230	101300000	1000	0	0	-1	300
9826875	7238	494	0	-100	0	230	101300000	1000	0	0	-1	300
9839435	7240	499	0	-100	0	230	101300000	1000	0	0	-1	300
9851995	7240	501	0	-100	0	230	101300000	1000	0	0	-1	300
9864555	7243	491	0	-100	0	230	101300000	1000	0	0	-1	300
9877115	7244	498	0	-100	0	230	101300000	1000	0	0	-1	300
9889675	7254	492	0	-100	0	230	101300000	1000	0	0	-1	300
9902235	7254	491	0	-100	0	230	101300000	1000	0	0	-1	300
9914795	7259	498	0	-100	0	230	101300000	1000	0	0	-1	300
9927355	7240	496	0	-100	0	230	101300000	1000	0	0	-1	300
9939915	7248	492	0	-100	0	230	101300000	1000	0	0	-1	300
9952475	7253	493	0	-100	0	230	101300000	1000	0	0	-1	300
9965035	7236	497	0	-100	0	230	101300000	1000	0	0	-1	300
9977595	7244	498	0	-100	0	230	101300000	1000	0	0	-1	300
9990155	7262	492	0	-100	0	230	101300000	1000	0	0	-1	300
10002715	7247	494	0	-100	0	230	101300000	1000	0	0	-1	300
10015275	7249	493	0	-100	0	230	101300000	1000	0	0	-1	300
10027835	7245	500	0	-100	0	230	101300000	1000	0	0	-1	300
10040395	7247	496	0	-100	0	230	101300000	1000	0	0	-1	300
10052955	7250	491	0	-100	0	230	101300000	1000	0	0	-1	300
10065515	7245	495	0	-100	0	230	101300000	1000	0	0	-1	300
10078075	7247	496	0	-100	0	230	101300000	1000	0	0	-1	300
10090635	7246	490	0	-100	0	230	101300000	1000	0	0	-1	300
10103195	7252	493	0	-100	0	230	101300000	1000	0	0	-1	300
10115755	7247	500	0	-100	0	230	101300000	1000	0	0	-1	300
10128315	7238	495	0	-100	0	230	101300000	1000	0	0	-1	300
10140875	7243	492	0	-100	0	230	101300000	1000	0	0	-1	300
10153435	7233	491	0	-100	0	230	101300000	1000	0	0	-1	300
10165995	7241	491	0	-100	0	230	101300000	1000	0	0	-1	300
10178555	7249	500	0	-100	0	230	101300000	1000	0	0	-1	300
10191115	7245	496	0	-100	0	230	101300000	1000	0	0	-1	300
10203675	7252	490	0	-100	0	230	101300000	1000	0	0	-1	300
10216235	7250	492	0	-100	0	230	101300000	1000	0	0	-1	300
10228795	7243	498	0	-100	0	230	101300000	1000	0	0	-1	300
10241355	7244	494	0	-100	0	230	101300000	1000	0	0	-1	300
10253915	7238	491	0	-100	0	230	101300000	1000	0	0	-1	300
10266475	7251	492	0	-100	0	230	101300000	1000	0	0	-1	300
10279035	7243	496	0	-100	0	230	101300000	1000	0	0	-1	300
10291595	7253	497	0	-100	0	230	101300000	1000	0	0	-1	300
10304155	7254	490	0	-100	0	230	101300000	1000	0	0	-1	300
10316715	7252	493	0	-100	0	230	101300000	1000	0	0	-1	300
10329275	7241	496	0	-100	0	230	101300000	1000	0	0	-1	300
10341835	7252	499	0	-100	0	230	101300000	1000	0	0	-1	300
10354395	7247	500	0	-100	0	230	101300000	1000	0	0	-1	300
10366955	7257	493	0	-100	0	230	101300000	1000	0	0	-1	300
10379515	7255	492	0	-100	0	230	101300000	1000	0	0	-1	300
10392075	7249	492	0	-100	0	230	101300000	1000	0	0	-1	300
10404635	7246	495	0	-100	0	230	101300000	1000	0	0	-1	300
10417195	7269	499	0	-100	0	230	101300000	1000	0	0	-1	300
10429755	7264	489	0	-100	0	230	101300000	1000	0	0	-1	300
10442315	7238	487	0	-100	0	230	101300000	1000	0	0	-1	300
10454875	7253	483	0	-100	0	230	101300000	1000	0	0	-1	300
10467435	7286	494	0	-100	0	230	101300000	1000	0	0	-1	300
10479995	7178	482	0	-100	0	230	101300000	1000	0	0	-1	300
10492555	7150	478	0	-100	0	230	101300000	1000	0	0	-1	300
10505115	7131	479	0	-100	0	230	101300000	1000	0	0	-1	300
10517675	7153	470	0	-100	0	230	101300000	1000	0	0	-1	300
10530235	7165	478	0	-100	0	230	101300000	1000	0	0	-1	300
10542795	7176	480	0	-100	0	230	101300000	1000	0	0	-1	300
10555355	7163	475	0	-100	0	230	101300000	1000	0	0	-1	300
10567915	7165	475	0	-100	0	230	101300000	1000	0	0	-1	300
10580475	7169	484	0	-100	0	230	101300000	1000	0	0	-1	300
10593035	7155	476	0	-100	0	230	101300000	1000	0	0	-1	300
10605595	7160	471	0	-100	0	230	101300000	1000	0	0	-1	300
10618155	7176	481	0	-100	0	230	101300000	1000	0	0	-1	300
10630715	7174	479	0	-100	0	230	101300000	1000	0	0	-1	300
10643275	7155	473	0	-100	0	230	101300000	1000	0	0	-1	300
10655835	7158	478	0	-100	0	230	101300000	1000	0	0	-1	300
10668395	7164	479	0	-100	0	230	101300000	1000	0	0	-1	300
10680955	7172	475	0	-100	0	230	101300000	1000	0	0	-1	300
10693515	7174	482	0	-100	0	230	101300000	1000	0	0	-1	300
10706075	7200	477	0	-100	0	230	101300000	1000	0	0	-1	300
10718635	7189	476	0	-100	0	230	101300000	1000	0	0	-1	300
10731195	7186	481	0	-100	0	230	101300000	1000	0	0	-1	300
10743755	7168	475	0	-100	0	230	101300000	1000	0	0	-1	300
10756315	7175	474	0	-100	0	230	101300000	1000	0	0	-1	300
10768875	7171	480	0	-100	0	230	101300000	1000	0	0	-1	300
10781435	7177	475	0	-100	0	230	101300000	1000	0	0	-1	300
10793995	7169	477	0	-100	0	230	101300000	1000	0	0	-1	300
10806555	7168	476	0	-100	0	230	101300000	1000	0	0	-1	300
10819115	7176	481	0	-100	0	230	101300000	1000	0	0	-1	300
10831675	7165	475	0	-100	0	230	101300000	1000	0	0	-1	300
10844235	7182	473	0	-100	0	230	101300000	1000	0	0	-1	300
10856795	7169	483	0	-100	0	230	101300000	1000	0	0	-1	300
10869355	7170	480	0	-100	0	230	101300000	1000	0	0	-1	300
10881915	7165	471	0	-100	0	230	101300000	1000	0	0	-1	300
10894475	7184	474	0	-100	0	230	101300000	1000	0	0	-1	300
10907035	7153	483	0	-100	0	230	101300000	1000	0	0	-1	300
10919595	7184	478	0	-100	0	230	101300000	1000	0	0	-1	300
10932155	7191	473	0	-100	0	230	101300000	1000	0	0	-1	300
10944715	7160	477	0	-100	0	230	101300000	1000	0	0	-1	300
10957275	7165	481	0	-100	0	230	101300000	1000	0	0	-1	300
10969835	7162	477	0	-100	0	230	101300000	1000	0	0	-1	300
10982395	7180	471	0	-100	0	230	101300000	1000	0	0	-1	300
10994955	7175	476	0	-100	0	230	101300000	1000	0	0	-1	300
11007515	7162	480	0	-100	0	230	101300000	1000	0	0	-1	300
11020075	7170	475	0	-100	0	230	101300000	1000	0	0	-1	300
11032635	7160	474	0	-100	0	230	101300000	1000	0	0	-1	300
11045195	7172	483	0	-100	0	230	101300000	1000	0	0	-1	300
11057755	7172	477	0	-100	0	230	101300000	1000	0	0	-1	300
11070315	7163	474	0	-100	0	230	101300000	1000	0	0	-1	300
11082875	7175	480	0	-100	0	230	101300000	1000	0	0	-1	300
11095435	7180	475	0	-100	0	230	101300000	1000	0	0	-1	300
11107995	7185	478	0	-100	0	230	101300000	1000	0	0	-1	300
11120555	7168	478	0	-100	0	230	101300000	1000	0	0	-1	300
11133115	7176	478	0	-100	0	230	101300000	1000	0	0	-1	300
11145675	7172	474	0	-100	0	230	101300000	1000	0	0	-1	300
11158235	7158	478	0	-100	0	230	101300000	1000	0	0	-1	300
11170795	7150	478	0	-100	0	230	101300000	1000	0	0	-1	300
11183355	7166	472	0	-100	0	230	101300000	1000	0	0	-1	300
11195915	7160	477	0	-100	0	230	101300000	1000	0	0	-1	300
11208475	7185	479	0	-100	0	230	101300000	1000	0	0	-1	300
11221035	7175	474	0	-100	0	230	101300000	1000	0	0	-1	300
11233595	7163	477	0	-100	0	230	101300000	1000	0	0	-1	300
11246155	7186	475	0	-100	0	230	101300000	1000	0	0	-1	300
11258715	7160	474	0	-100	0	230	101300000	1000	0	0	-1	300
11271275	7160	482	0	-100	0	230	101300000	1000	0	0	-1	300
11283835	7156	473	0	-100	0	230	101300000	1000	0	0	-1	300
11296395	7187	477	0	-100	0	230	101300000	1000	0	0	-1	300
11308955	7150	476	0	-100	0	230	101300000	1000	0	0	-1	300
11321515	7162	478	0	-100	0	230	101300000	1000	0	0	-1	300
11334075	7167	476	0	-100	0	230	101300000	1000	0	0	-1	300
11346635	7153	474	0	-100	0	230	101300000	1000	0	0	-1	300
11359195	7169	483	0	-100	0	230	101300000	1000	0	0	-1	300
11371755	7165	472	0	-100	0	230	101300000	1000	0	0	-1	300
11384315	7159	478	0	-100	0	230	101300000	1000	0	0	-1	300
11396875	7172	475	0	-100	0	230	101300000	1000	0	0	-1	300
11409435	7165	478	0	-100	0	230	101300000	1000	0	0	-1	300
11421995	7169	483	0	-100	0	230	101300000	1000	0	0	-1	300
11434555	7164	481	0	-100	0	230	101300000	1000	0	0	-1	300
11447115	7163	473	0	-100	0	230	101300000	1000	0	0	-1	300
11459675	7167	478	0	-100	0	230	101300000	1000	0	0	-1	300
11472235	7165	475	0	-100	0	230	101300000	1000	0	0	-1	300
11484795	7159	476	0	-100	0	230	101300000	1000	0	0	-1	300
11497355	7149	473	0	-100	0	230	101300000	1000	0	0	-1	300
11509915	7160	479	0	-100	0	230	101300000	1000	0	0	-1	300
11522475	7152	473	0	-100	0	230	101300000	1000	0	0	-1	300
11535035	7161	480	0	-100	0	230	101300000	1000	0	0	-1	300
11547595	7175	474	0	-100	0	230	101300000	1000	0	0	-1	300
11560155	7179	482	0	-100	0	230	101300000	1000	0	0	-1	300
11572715	7174	475	0	-100	0	230	101300000	1000	0	0	-1	300
11585275	7182	483	0	-100	0	230	101300000	1000	0	0	-1	300
11597835	7174	475	0	-100	0	230	101300000	1000	0	0	-1	300
11610395	7162	479	0	-100	0	230	101300000	1000	0	0	-1	300
11622955	7177	474	0	-100	0	230	101300000	1000	0	0	-1	300
11635515	7171	473	0	-100	0	230	101300000	1000	0	0	-1	300
11648075	7163	482	0	-100	0	230	101300000	1000	0	0	-1	300
11660635	7198	484	0	-100	0	230	101300000	1000	0	0	-1	300
11673195	7244	492	0	-100	0	230	101300000	1000	0	0	-1	300
11685755	7243	495	0	-100	0	230	101300000	1000	0	0	-1	300
11698315	7246	492	0	-100	0	230	101300000	1000	0	0	-1	300
11710875	7244	501	0	-100	0	230	101300000	1000	0	0	-1	300
11723435	7248	494	0	-100	0	230	101300000	1000	0	0	-1	300
11735995	7245	492	0	-100	0	230	101300000	1000	0	0	-1	300
11748555	7247	492	0	-100	0	230	101300000	1000	0	0	-1	300
11761115	7233	499	0	-100	0	230	101300000	1000	0	0	-1	300
11773675	7241	494	0	-100	0	230	101300000	1000	0	0	-1	300
11786235	7245	498	0	-100	0	230	101300000	1000	0	0	-1	300
11798795	7247	495	0	-100	0	230	101300000	1000	0	0	-1	300
11811355	7240	491	0	-100	0	230	101300000	1000	0	0	-1	300
11823915	7240	493	0	-100	0	230	101300000	1000	0	0	-1	300
11836475	7236	497	0	-100	0	230	101300000	1000	0	0	-1	300
11849035	7234	493	0	-100	0	230	101300000	1000	0	0	-1	300
11861595	7246	497	0	-100	0	230	101300000	1000	0	0	-1	300
11874155	7251	497	0	-100	0	230	101300000	1000	0	0	-1	300
11886715	7255	490	0	-100	0	230	101300000	1000	0	0	-1	300
11899275	7240	499	0	-100	0	230	101300000	1000	0	0	-1	300
11911835	7257	492	0	-100	0	230	101300000	1000	0	0	-1	300
11924395	7246	496	0	-100	0	230	101300000	1000	0	0	-1	300
11936955	7249	492	0	-100	0	230	101300000	1000	0	0	-1	300
11949515	7245	493	0	-100	0	230	101300000	1000	0	0	-1	300
11962075	7231	496	0	-100	0	230	101300000	1000	0	0	-1	300
11974635	7242	491	0	-100	0	230	101300000	1000	0	0	-1	300
11987195	7242	498	0	-100	0	230	101300000	1000	0	0	-1	300
11999755	7238	489	0	-100	0	230	101300000	1000	0	0	-1	300
12012315	7243	495	0	-100	0	230	101300000	1000	0	0	-1	300
12024875	7247	494	0	-100	0	230	101300000	1000	0	0	-1	300
12037435	7240	491	0	-100	0	230	101300000	1000	0	0	-1	300
12049995	7240	492	0	-100	0	230	101300000	1000	0	0	-1	300
12062555	7254	488	0	-100	0	230	101300000	1000	0	0	-1	300
12075115	7243	496	0	-100	0	230	101300000	1000	0	0	-1	300
12087675	7243	497	0	-100	0	230	101300000	1000	0	0	-1	300
12100235	7247	490	0	-100	0	230	101300000	1000	0	0	-1	300
12112795	7242	492	0	-100	0	230	101300000	1000	0	0	-1	300
12125355	7244	500	0	-100	0	230	101300000	1000	0	0	-1	300
12137915	7248	494	0	-100	0	230	101300000	1000	0	0	-1	300
12150475	7243	495	0	-100	0	230	101300000	1000	0	0	-1	300
12163035	7245	498	0	-100	0	230	101300000	1000	0	0	-1	300
12175595	7246	494	0	-100	0	230	101300000	1000	0	0	-1	300
12188155	7245	494	0	-100	0	230	101300000	1000	0	0	-1	300
12200715	7244	495	0	-100	0	230	101300000	1000	0	0	-1	300
12213275	7241	491	0	-100	0	230	101300000	1000	0	0	-1	300
12225835	7238	491	0	-100	0	230	101300000	1000	0	0	-1	300
12238395	7242	500	0	-100	0	230	101300000	1000	0	0	-1	300
12250955	7238	495	0	-100	0	230	101300000	1000	0	0	-1	300
12263515	7240	491	0	-100	0	230	101300000	1000	0	0	-1	300
12276075	7245	494	0	-100	0	230	101300000	1000	0	0	-1	300
12288635	7253	490	0	-100	0	230	101300000	1000	0	0	-1	300
12301195	7246	495	0	-100	0	230	101300000	1000	0	0	-1	300
12313755	7247	497	0	-100	0	230	101300000	1000	0	0	-1	300
12326315	7247	493	0	-100	0	230	101300000	1000	0	0	-1	300
12338875	7250	492	0	-100	0	230	101300000	1000	0	0	-1	300
12351435	7233	495	0	-100	0	230	101300000	1000	0	0	-1	300
12363995	7249	492	0	-100	0	230	101300000	1000	0	0	-1	300
12376555	7243	495	0	-100	0	230	101300000	1000	0	0	-1	300
12389115	7247	491	0	-100	0	230	101300000	1000	0	0	-1	300
12401675	7238	491	0	-100	0	230	101300000	1000	0	0	-1	300
12414235	7238	497	0	-100	0	230	101300000	1000	0	0	-1	300
12426795	7249	500	0	-100	0	230	101300000	1000	0	0	-1	300
12439355	7247	494	0	-100	0	230	101300000	1000	0	0	-1	300
12451915	7248	490	0	-100	0	230	101300000	1000	0	0	-1	300
12464475	7247	492	0	-100	0	230	101300000	1000	0	0	-1	300
12477035	7252	498	0	-100	0	230	101300000	1000	0	0	-1	300
12489595	7235	493	0	-100	0	230	101300000	1000	0	0	-1	300
12502155	7252	489	0	-100	0	230	101300000	1000	0	0	-1	300
12514715	7238	497	0	-100	0	230	101300000	1000	0	0	-1	300
12527275	7233	497	0	-100	0	230	101300000	1000	0	0	-1	300
12539835	7235	491	0	-100	0	230	101300000	1000	0	0	-1	300
12552395	7247	497	0	-100	0	230	101300000	1000	0	0	-1	300
12564955	7247	493	0	-100	0	230	101300000	1000	0	0	-1	300
12577515	7246	493	0	-100	0	230	101300000	1000	0	0	-1	300
12590075	7233	500	0	-100	0	230	101300000	1000	0	0	-1	300
12602635	7238	495	0	-100	0	230	101300000	1000	0	0	-1	300
12615195	7252	492	0	-100	0	230	101300000	1000	0	0	-1	300
12627755	7250	492	0	-100	0	230	101300000	1000	0	0	-1	300
12640315	7248	497	0	-100	0	230	101300000	1000	0	0	-1	300
12652875	7249	499	0	-100	0	230	101300000	1000	0	0	-1	300
12665435	7243	495	0	-100	0	230	101300000	1000	0	0	-1	300
12677995	7249	500	0	-100	0	230	101300000	1000	0	0	-1	300
12690555	7243	491	0	-100	0	230	101300000	1000	0	0	-1	300
12703115	7242	492	0	-100	0	230	101300000	1000	0	0	-1	300
12715675	7245	496	0	-100	0	230	101300000	1000	0	0	-1	300
12728235	7237	496	0	-100	0	230	101300000	1000	0	0	-1	300
12740795	7243	491	0	-100	0	230	101300000	1000	0	0	-1	300
12753355	7236	494	0	-100	0	230	101300000	1000	0	0	-1	300
12765915	7247	493	0	-100	0	230	101300000	1000	0	0	-1	300
12778475	7247	491	0	-100	0	230	101300000	1000	0	0	-1	300
12791035	7245	499	0	-100	0	230	101300000	1000	0	0	-1	300
12803595	7254	492	0	-100	0	230	101300000	1000	0	0	-1	300
12816155	7254	490	0	-100	0	230	101300000	1000	0	0	-1	300
12828715	7249	492	0	-100	0	230	101300000	1000	0	0	-1	300
12841275	7243	496	0	-100	0	230	101300000	1000	0	0	-1	300
12853835	7253	497	0	-100	0	230	101300000	1000	0	0	-1	300
12866395	7250	493	0	-100	0	230	101300000	1000	0	0	-1	300
12878955	7251	492	0	-100	0	230	101300000	1000	0	0	-1	300
12891515	7243	499	0	-100	0	230	101300000	1000	0	0	-1	300
12904075	7244	490	0	-100	0	230	101300000	1000	0	0	-1	300
12916635	7240	495	0	-100	0	230	101300000	1000	0	0	-1	300
12929195	7256	493	0	-100	0	230	101300000	1000	0	0	-1	300
12941755	7243	492	0	-100	0	230	101300000	1000	0	0	-1	300
12954315	7242	500	0	-100	0	230	101300000	1000	0	0	-1	300
12966875	7243	493	0	-100	0	230	101300000	1000	0	0	-1	300
12979435	7247	499	0	-100	0	230	101300000	1000	0	0	-1	300
12991995	7235	498	0	-100	0	230	101300000	1000	0	0	-1	300
13004555	7242	496	0	-100	0	230	101300000	1000	0	0	-1	300
13017115	7247	492	0	-100	0	230	101300000	1000	0	0	-1	300
13029675	7243	496	0	-100	0	230	101300000	1000	0	0	-1	300
13042235	7247	492	0	-100	0	230	101300000	1000	0	0	-1	300
13054795	7236	495	0	-100	0	230	101300000	1000	0	0	-1	300
13067355	7247	492	0	-100	0	230	101300000	1000	0	0	-1	300
13079915	7231	496	0	-100	0	230	101300000	1000	0	0	-1	300
13092475	7249	493	0	-100	0	230	101300000	1000	0	0	-1	300
13105035	7250	500	0	-100	0	230	101300000	1000	0	0	-1	300
13117595	7249	489	0	-100	0	230	101300000	1000	0	0	-1	300
13130155	7250	498	0	-100	0	230	101300000	1000	0	0	-1	300
13142715	7252	494	0	-100	0	230	101300000	1000	0	0	-1	300
13155275	7248	492	0	-100	0	230	101300000	1000	0	0	-1	300
13167835	7243	495	0	-100	0	230	101300000	1000	0	0	-1	300
13180395	7247	491	0	-100	0	230	101300000	1000	0	0	-1	300
13192955	7242	499	0	-100	0	230	101300000	1000	0	0	-1	300
13205515	7247	493	0	-100	0	230	101300000	1000	0	0	-1	300
13218075	7244	492	0	-100	0	230	101300000	1000	0	0	-1	300
13230635	7240	496	0	-100	0	230	101300000	1000	0	0	-1	300
13243195	7246	490	0	-100	0	230	101300000	1000	0	0	-1	300
13255755	7235	496	0	-100	0	230	101300000	1000	0	0	-1	300
13268315	7245	495	0	-100	0	230	101300000	1000	0	0	-1	300
13280875	7243	490	0	-100	0	230	101300000	1000	0	0	-1	300
13293435	7245	498	0	-100	0	230	101300000	1000	0	0	-1	300
13305995	7247	497	0	-100	0	230	101300000	1000	0	0	-1	300
13318555	7249	492	0	-100	0	230	101300000	1000	0	0	-1	300
13331115	7236	498	0	-100	0	230	101300000	1000	0	0	-1	300
13343675	7238	491	0	-100	0	230	101300000	1000	0	0	-1	300
13356235	7227	497	0	-100	0	230	101300000	1000	0	0	-1	300
13368795	7252	491	0	-100	0	230	101300000	1000	0	0	-1	300
13381355	7247	493	0	-100	0	230	101300000	1000	0	0	-1	300
13393915	7249	498	0	-100	0	230	101300000	1000	0	0	-1	300
13406475	7252	493	0	-100	0	230	101300000	1000	0	0	-1	300
13419035	7242	499	0	-100	0	230	101300000	1000	0	0	-1	300
13431595	7250	491	0	-100	0	230	101300000	1000	0	0	-1	300
13444155	7251	492	0	-100	0	230	101300000	1000	0	0	-1	300
13456715	7242	499	0	-100	0	230	101300000	1000	0	0	-1	300
13469275	7248	492	0	-100	0	230	101300000	1000	0	0	-1	300
13481835	7236	498	0	-100	0	230	101300000	1000	0	0	-1	300
13494395	7252	493	0	-100	0	230	101300000	1000	0	0	-1	300
13506955	7245	496	0	-100	0	230	101300000	1000	0	0	-1	300
13519515	7248	495	0	-100	0	230	101300000	1000	0	0	-1	300
13532075	7251	492	0	-100	0	230	101300000	1000	0	0	-1	300
13544635	7247	497	0	-100	0	230	101300000	1000	0	0	-1	300
13557195	7242	492	0	-100	0	230	101300000	1000	0	0	-1	300
13569755	7248	499	0	-100	0	230	101300000	1000	0	0	-1	300
13582315	7250	489	0	-100	0	230	101300000	1000	0	0	-1	300
13594875	7243	495	0	-100	0	230	101300000	1000	0	0	-1	300
13607435	7233	490	0	-100	0	230	101300000	1000	0	0	-1	300
13619995	7247	491	0	-100	0	230	101300000	1000	0	0	-1	300
13632555	7249	493	0	-100	0	230	101300000	1000	0	0	-1	300
13645115	7243	495	0	-100	0	230	101300000	1000	0	0	-1	300
13657675	7238	495	0	-100	0	230	101300000	1000	0	0	-1	300
13670235	7248	490	0	-100	0	230	101300000	1000	0	0	-1	300
13682795	7245	497	0	-100	0	230	101300000	1000	0	0	-1	300
13695355	7257	492	0	-100	0	230	101300000	1000	0	0	-1	300
13707915	7235	499	0	-100	0	230	101300000	1000	0	0	-1	300
13720475	7252	489	0	-100	0	230	101300000	1000	0	0	-1	300
13733035	7236	500	0	-100	0	230	101300000	1000	0	0	-1	300
13745595	7248	490	0	-100	0	230	101300000	1000	0	0	-1	300
13758155	7255	495	0	-100	0	230	101300000	1000	0	0	-1	300
13770715	7247	490	0	-100	0	230	101300000	1000	0	0	-1	300
13783275	7245	496	0	-100	0	230	101300000	1000	0	0	-1	300
13795835	7249	493	0	-100	0	230	101300000	1000	0	0	-1	300
13808395	7247	494	0	-100	0	230	101300000	1000	0	0	-1	300
13820955	7243	493	0	-100	0	230	101300000	1000	0	0	-1	300
13833515	7238	493	0	-100	0	230	101300000	1000	0	0	-1	300
13846075	7247	494	0	-100	0	230	101300000	1000	0	0	-1	300
13858635	7244	495	0	-100	0	230	101300000	1000	0	0	-1	300
13871195	7250	493	0	-100	0	230	101300000	1000	0	0	-1	300
13883755	7240	495	0	-100	0	230	101300000	1000	0	0	-1	300
13896315	7243	495	0	-100	0	230	101300000	1000	0	0	-1	300
13908875	7236	491	0	-100	0	230	101300000	1000	0	0	-1	300
13921435	7235	495	0	-100	0	230	101300000	1000	0	0	-1	300
13933995	7241	494	0	-100	0	230	101300000	1000	0	0	-1	300
13946555	7251	497	0	-100	0	230	101300000	1000	0	0	-1	300
13959115	7240	491	0	-100	0	230	101300000	1000	0	0	-1	300
13971675	7254	494	0	-100	0	230	101300000	1000	0	0	-1	300
13984235	7243	495	0	-100	0	230	101300000	1000	0	0	-1	300
13996795	7247	493	0	-100	0	230	101300000	1000	0	0	-1	300
14009355	7245	493	0	-100	0	230	101300000	1000	0	0	-1	300
14021915	7247	496	0	-100	0	230	101300000	1000	0	0	-1	300
14034475	7253	493	0	-100	0	230	101300000	1000	0	0	-1	300
14047035	7249	499	0	-100	0	230	101300000	1000	0	0	-1	300
14059595	7245	493	0	-100	0	230	101300000	1000	0	0	-1	300
14072155	7253	497	0	-100	0	230	101300000	1000	0	0	-1	300
14084715	7250	491	0	-100	0	230	101300000	1000	0	0	-1	300
14097275	7239	494	0	-100	0	230	101300000	1000	0	0	-1	300
14109835	7254	493	0	-100	0	230	101300000	1000	0	0	-1	300
14122395	7247	496	0	-100	0	230	101300000	1000	0	0	-1	300
14134955	7249	492	0	-100	0	230	101300000	1000	0	0	-1	300
14147515	7241	490	0	-100	0	230	101300000	1000	0	0	-1	300
14160075	7238	497	0	-100	0	230	101300000	1000	0	0	-1	300
14172635	7249	489	0	-100	0	230	101300000	1000	0	0	-1	300
14185195	7240	494	0	-100	0	230	101300000	1000	0	0	-1	300
14197755	7252	494	0	-100	0	230	101300000	1000	0	0	-1	300
14210315	7238	492	0	-100	0	230	101300000	1000	0	0	-1	300
14222875	7249	497	0	-100	0	230	101300000	1000	0	0	-1	300
14235435	7246	491	0	-100	0	230	101300000	1000	0	0	-1	300
14247995	7240	494	0	-100	0	230	101300000	1000	0	0	-1	300
14260555	7247	492	0	-100	0	230	101300000	1000	0	0	-1	300
14273115	7238	498	0	-100	0	230	101300000	1000	0	0	-1	300
14285675	7254	491	0	-100	0	230	101300000	1000	0	0	-1	300
14298235	7245	500	0	-100	0	230	101300000	1000	0	0	-1	300
14310795	7252	492	0	-100	0	230	101300000	1000	0	0	-1	300
14323355	7250	496	0	-100	0	230	101300000	1000	0	0	-1	300
14335915	7250	496	0	-100	0	230	101300000	1000	0	0	-1	300
14348475	7252	488	0	-100	0	230	101300000	1000	0	0	-1	300
14361035	7243	496	0	-100	0	230	101300000	1000	0	0	-1	300
14373595	7242	496	0	-100	0	230	101300000	1000	0	0	-1	300
14386155	7255	491	0	-100	0	230	101300000	1000	0	0	-1	300
14398715	7245	495	0	-100	0	230	101300000	1000	0	0	-1	300
14411275	7252	495	0	-100	0	230	101300000	1000	0	0	-1	300
14423835	7251	492	0	-100	0	230	101300000	1000	0	0	-1	300
14436395	7247	499	0	-100	0	230	101300000	1000	0	0	-1	300
14448955	7251	493	0	-100	0	230	101300000	1000	0	0	-1	300
14461515	7254	492	0	-100	0	230	101300000	1000	0	0	-1	300
14474075	7244	498	0	-100	0	230	101300000	1000	0	0	-1	300
14486635	7255	492	0	-100	0	230	101300000	1000	0	0	-1	300
14499195	7241	496	0	-100	0	230	101300000	1000	0	0	-1	300
14511755	7250	496	0	-100	0	230	101300000	1000	0	0	-1	300
14524315	7247	491	0	-100	0	230	101300000	1000	0	0	-1	300
14536875	7252	495	0	-100	0	230	101300000	1000	0	0	-1	300
14549435	7245	492	0	-100	0	230	101300000	1000	0	0	-1	300
14561995	7249	494	0	-100	0	230	101300000	1000	0	0	-1	300
14574555	7252	497	0	-100	0	230	101300000	1000	0	0	-1	300
14587115	7246	492	0	-100	0	230	101300000	1000	0	0	-1	300
14599675	7235	495	0	-100	0	230	101300000	1000	0	0	-1	300
14612235	7244	496	0	-100	0	230	101300000	1000	0	0	-1	300
14624795	7250	490	0	-100	0	230	101300000	1000	0	0	-1	300
14637355	7244	499	0	-100	0	230	101300000	1000	0	0	-1	300
14649915	7249	491	0	-100	0	230	101300000	1000	0	0	-1	300
14662475	7244	497	0	-100	0	230	101300000	1000	0	0	-1	300
14675035	7255	493	0	-100	0	230	101300000	1000	0	0	-1	300
14687595	7247	492	0	-100	0	230	101300000	1000	0	0	-1	300
14700155	7258	497	0	-100	0	230	101300000	1000	0	0	-1	300
14712715	7257	488	0	-100	0	230	101300000	1000	0	0	-1	300
14725275	7235	496	0	-100	0	230	101300000	1000	0	0	-1	300
14737835	7243	496	0	-100	0	230	101300000	1000	0	0	-1	300
14750395	7245	490	0	-100	0	230	101300000	1000	0	0	-1	300
14762955	7235	491	0	-100	0	230	101300000	1000	0	0	-1	300
14775515	7244	500	0	-100	0	230	101300000	1000	0	0	-1	300
14788075	7243	497	0	-100	0	230	101300000	1000	0	0	-1	300
14800635	7255	494	0	-100	0	230	101300000	1000	0	0	-1	300
14813195	7243	495	0	-100	0	230	101300000	1000	0	0	-1	300
14825755	7240	501	0	-100	0	230	101300000	1000	0	0	-1	300
14838315	7252	492	0	-100	0	230	101300000	1000	0	0	-1	300
14850875	7242	493	0	-100	0	230	101300000	1000	0	0	-1	300
14863435	7243	496	0	-100	0	230	101300000	1000	0	0	-1	300
14875995	7243	496	0	-100	0	230	101300000	1000	0	0	-1	300
14888555	7247	497	0	-100	0	230	101300000	1000	0	0	-1	300
14901115	7244	491	0	-100	0	230	101300000	1000	0	0	-1	300
14913675	7228	496	0	-100	0	230	101300000	1000	0	0	-1	300
14926235	7252	492	0	-100	0	230	101300000	1000	0	0	-1	300
14938795	7247	493	0	-100	0	230	101300000	1000	0	0	-1	300
14951355	7254	495	0	-100	0	230	101300000	1000	0	0	-1	300
14963915	7241	491	0	-100	0	230	101300000	1000	0	0	-1	300
14976475	7248	498	0	-100	0	230	101300000	1000	0	0	-1	300
14989035	7250	491	0	-100	0	230	101300000	1000	0	0	-1	300
15001595	7252	500	0	-100	0	230	101300000	1000	0	0	-1	300
15014155	7250	490	0	-100	0	230	101300000	1000	0	0	-1	300
15026715	7250	495	0	-100	0	230	101300000	1000	0	0	-1	300
15039275	7249	492	0	-100	0	230	101300000	1000	0	0	-1	300
15051835	7238	494	0	-100	0	230	101300000	1000	0	0	-1	300
15064395	7241	497	0	-100	0	230	101300000	1000	0	0	-1	300
15076955	7250	494	0	-100	0	230	101300000	1000	0	0	-1	300
15089515	7251	499	0	-100	0	230	101300000	1000	0	0	-1	300
15102075	7245	492	0	-100	0	230	101300000	1000	0	0	-1	300
15114635	7243	494	0	-100	0	230	101300000	1000	0	0	-1	300
15127195	7249	492	0	-100	0	230	101300000	1000	0	0	-1	300
15139755	7247	495	0	-100	0	230	101300000	1000	0	0	-1	300
15152315	7247	492	0	-100	0	230	101300000	1000	0	0	-1	300
15164875	7256	492	0	-100	0	230	101300000	1000	0	0	-1	300
15177435	7245	497	0	-100	0	230	101300000	1000	0	0	-1	300
15189995	7247	495	0	-100	0	230	101300000	1000	0	0	-1	300
15202555	7237	496	0	-100	0	230	101300000	1000	0	0	-1	300
15215115	7253	494	0	-100	0	230	101300000	1000	0	0	-1	300
15227675	7251	491	0	-100	0	230	101300000	1000	0	0	-1	300
15240235	7249	498	0	-100	0	230	101300000	1000	0	0	-1	300
15252795	7256	493	0	-100	0	230	101300000	1000	0	0	-1	300
15265355	7248	494	0	-100	0	230	101300000	1000	0	0	-1	300
15277915	7243	495	0	-100	0	230	101300000	1000	0	0	-1	300
15290475	7245	499	0	-100	0	230	101300000	1000	0	0	-1	300
15303035	7251	493	0	-100	0	230	101300000	1000	0	0	-1	300
15315595	7250	491	0	-100	0	230	101300000	1000	0	0	-1	300
15328155	7250	494	0	-100	0	230	101300000	1000	0	0	-1	300
15340715	7244	495	0	-100	0	230	101300000	1000	0	0	-1	300
15353275	7254	491	0	-100	0	230	101300000	1000	0	0	-1	300
15365835	7247	492	0	-100	0	230	101300000	1000	0	0	-1	300
15378395	7240	497	0	-100	0	230	101300000	1000	0	0	-1	300
15390955	7241	491	0	-100	0	230	101300000	1000	0	0	-1	300
15403515	7247	500	0	-100	0	230	101300000	1000	0	0	-1	300
15416075	7251	492	0	-100	0	230	101300000	1000	0	0	-1	300
15428635	7245	491	0	-100	0	230	101300000	1000	0	0	-1	300
15441195	7251	501	0	-100	0	230	101300000	1000	0	0	-1	300
15453755	7254	494	0	-100	0	230	101300000	1000	0	0	-1	300
15466315	7256	490	0	-100	0	230	101300000	1000	0	0	-1	300
15478875	7247	500	0	-100	0	230	101300000	1000	0	0	-1	300
15491435	7247	494	0	-100	0	230	101300000	1000	0	0	-1	300
15503995	7248	492	0	-100	0	230	101300000	1000	0	0	-1	300
15516555	7243	498	0	-100	0	230	101300000	1000	0	0	-1	300
15529115	7247	493	0	-100	0	230	101300000	1000	0	0	-1	300
15541675	7246	490	0	-100	0	230	101300000	1000	0	0	-1	300
15554235	7238	495	0	-100	0	230	101300000	1000	0	0	-1	300
15566795	7247	496	0	-100	0	230	101300000	1000	0	0	-1	300
15579355	7248	492	0	-100	0	230	101300000	1000	0	0	-1	300
15591915	7242	494	0	-100	0	230	101300000	1000	0	0	-1	300
15604475	7251	495	0	-100	0	230	101300000	1000	0	0	-1	300
15617035	7252	489	0	-100	0	230	101300000	1000	0	0	-1	300
15629595	7245	495	0	-100	0	230	101300000	1000	0	0	-1	300
15642155	7244	497	0	-100	0	230	101300000	1000	0	0	-1	300
15654715	7246	490	0	-100	0	230	101300000	1000	0	0	-1	300
15667275	7246	495	0	-100	0	230	101300000	1000	0	0	-1	300
15679835	7237	496	0	-100	0	230	101300000	1000	0	0	-1	300
15692395	7255	492	0	-100	0	230	101300000	1000	0	0	-1	300
15704955	7252	495	0	-100	0	230	101300000	1000	0	0	-1	300
15717515	7249	495	0	-100	0	230	101300000	1000	0	0	-1	300
15730075	7240	493	0	-100	0	230	101300000	1000	0	0	-1	300
15742635	7247	499	0	-100	0	230	101300000	1000	0	0	-1	300
15755195	7252	491	0	-100	0	230	101300000	1000	0	0	-1	300
15767755	7243	492	0	-100	0	230	101300000	1000	0	0	-1	300
15780315	7249	500	0	-100	0	230	101300000	1000	0	0	-1	300
15792875	7252	495	0	-100	0	230	101300000	1000	0	0	-1	300
15805435	7259	492	0	-100	0	230	101300000	1000	0	0	-1	300
15817995	7245	492	0	-100	0	230	101300000	1000	0	0	-1	300
15830555	7261	492	0	-100	0	230	101300000	1000	0	0	-1	300
15843115	7243	490	0	-100	0	230	101300000	1000	0	0	-1	300
15855675	7243	499	0	-100	0	230	101300000	1000	0	0	-1	300
15868235	7253	491	0	-100	0	230	101300000	1000	0	0	-1	300
15880795	7248	496	0	-100	0	230	101300000	1000	0	0	-1	300
15893355	7250	492	0	-100	0	230	101300000	1000	0	0	-1	300
15905915	7236	495	0	-100	0	230	101300000	1000	0	0	-1	300
15918475	7249	497	0	-100	0	230	101300000	1000	0	0	-1	300
15931035	7250	491	0	-100	0	230	101300000	1000	0	0	-1	300
15943595	7254	498	0	-100	0	230	101300000	1000	0	0	-1	300
15956155	7261	491	0	-100	0	230	101300000	1000	0	0	-1	300
15968715	7254	491	0	-100	0	230	101300000	1000	0	0	-1	300
15981275	7256	498	0	-100	0	230	101300000	1000	0	0	-1	300
15993835	7254	494	0	-100	0	230	101300000	1000	0	0	-1	300
16006395	7251	491	0	-100	0	230	101300000	1000	0	0	-1	300
16018955	7251	500	0	-100	0	230	101300000	1000	0	0	-1	300
16031515	7243	495	0	-100	0	230	101300000	1000	0	0	-1	300
16044075	7258	493	0	-100	0	230	101300000	1000	0	0	-1	300
16056635	7245	491	0	-100	0	230	101300000	1000	0	0	-1	300
16069195	7248	500	0	-100	0	230	101300000	1000	0	0	-1	300
16081755	7257	492	0	-100	0	230	101300000	1000	0	0	-1	300
16094315	7253	492	0	-100	0	230	101300000	1000	0	0	-1	300
16106875	7251	496	0	-100	0	230	101300000	1000	0	0	-1	300
16119435	7241	489	0	-100	0	230	101300000	1000	0	0	-1	300
16131995	7242	492	0	-100	0	230	101300000	1000	0	0	-1	300
16144555	7257	497	0	-100	0	230	101300000	1000	0	0	-1	300
16157115	7255	488	0	-100	0	230	101300000	1000	0	0	-1	300
16169675	7247	501	0	-100	0	230	101300000	1000	0	0	-1	300
16182235	7255	493	0	-100	0	230	101300000	1000	0	0	-1	300
16194795	7240	495	0	-100	0	230	101300000	1000	0	0	-1	300
16207355	7247	492	0	-100	0	230	101300000	1000	0	0	-1	300
16219915	7249	494	0	-100	0	230	101300000	1000	0	0	-1	300
16232475	7236	495	0	-100	0	230	101300000	1000	0	0	-1	300
16245035	7257	492	0	-100	0	230	101300000	1000	0	0	-1	300
16257595	7242	497	0	-100	0	230	101300000	1000	0	0	-1	300
16270155	7252	490	0	-100	0	230	101300000	1000	0	0	-1	300
16282715	7249	500	0	-100	0	230	101300000	1000	0	0	-1	300
16295275	7246	488	0	-100	0	230	101300000	1000	0	0	-1	300
16307835	7252	500	0	-100	0	230	101300000	1000	0	0	-1	300
16320395	7251	491	0	-100	0	230	101300000	1000	0	0	-1	300
16332955	7241	492	0	-100	0	230	101300000	1000	0	0	-1	300
16345515	7247	500	0	-100	0	230	101300000	1000	0	0	-1	300
16358075	7256	490	0	-100	0	230	101300000	1000	0	0	-1	300
16370635	7256	493	0	-100	0	230	101300000	1000	0	0	-1	300
16383195	7249	497	0	-100	0	230	101300000	1000	0	0	-1	300
16395755	7246	493	0	-100	0	230	101300000	1000	0	0	-1	300
16408315	7240	495	0	-100	0	230	101300000	1000	0	0	-1	300
16420875	7238	499	0	-100	0	230	101300000	1000	0	0	-1	300
16433435	7249	491	0	-100	0	230	101300000	1000	0	0	-1	300
16445995	7249	492	0	-100	0	230	101300000	1000	0	0	-1	300
16458555	7247	491	0	-100	0	230	101300000	1000	0	0	-1	300
16471115	7253	494	0	-100	0	230	101300000	1000	0	0	-1	300
16483675	7256	498	0	-100	0	230	101300000	1000	0	0	-1	300
16496235	7250	492	0	-100	0	230	101300000	1000	0	0	-1	300
16508795	7250	490	0	-100	0	230	101300000	1000	0	0	-1	300
16521355	7254	497	0	-100	0	230	101300000	1000	0	0	-1	300
16533915	7254	490	0	-100	0	230	101300000	1000	0	0	-1	300
16546475	7245	495	0	-100	0	230	101300000	1000	0	0	-1	300
16559035	7241	496	0	-100	0	230	101300000	1000	0	0	-1	300
16571595	7241	490	0	-100	0	230	101300000	1000	0	0	-1	300
16584155	7254	497	0	-100	0	230	101300000	1000	0	0	-1	300
16596715	7243	491	0	-100	0	230	101300000	1000	0	0	-1	300
16609275	7248	490	0	-100	0	230	101300000	1000	0	0	-1	300
16621835	7245	498	0	-100	0	230	101300000	1000	0	0	-1	300
16634395	7247	495	0	-100	0	230	101300000	1000	0	0	-1	300
16646955	7249	492	0	-100	0	230	101300000	1000	0	0	-1	300
16659515	7247	497	0	-100	0	230	101300000	1000	0	0	-1	300
16672075	7245	491	0	-100	0	230	101300000	1000	0	0	-1	300
16684635	7245	495	0	-100	0	230	101300000	1000	0	0	-1	300
16697195	7246	491	0	-100	0	230	101300000	1000	0	0	-1	300
16709755	7245	494	0	-100	0	230	101300000	1000	0	0	-1	300
16722315	7239	499	0	-100	0	230	101300000	1000	0	0	-1	300
16734875	7252	491	0	-100	0	230	101300000	1000	0	0	-1	300
16747435	7245	492	0	-100	0	230	101300000	1000	0	0	-1	300
16759995	7259	493	0	-100	0	230	101300000	1000	0	0	-1	300
16772555	7248	491	0	-100	0	230	101300000	1000	0	0	-1	300
16785115	7247	491	0	-100	0	230	101300000	1000	0	0	-1	300
16797675	7253	497	0	-100	0	230	101300000	1000	0	0	-1	300
16810235	7259	498	0	-100	0	230	101300000	1000	0	0	-1	300
16822795	7254	492	0	-100	0	230	101300000	1000	0	0	-1	300
16835355	7252	493	0	-100	0	230	101300000	1000	0	0	-1	300
16847915	7246	499	0	-100	0	230	101300000	1000	0	0	-1	300
16860475	7254	492	0	-100	0	230	101300000	1000	0	0	-1	300
16873035	7253	492	0	-100	0	230	101300000	1000	0	0	-1	300
16885595	7238	499	0	-100	0	230	101300000	1000	0	0	-1	300
16898155	7256	492	0	-100	0	230	101300000	1000	0	0	-1	300
16910715	7248	490	0	-100	0	230	101300000	1000	0	0	-1	300
16923275	7245	495	0	-100	0	230	101300000	1000	0	0	-1	300
16935835	7252	497	0	-100	0	230	101300000	1000	0	0	-1	300
16948395	7240	491	0	-100	0	230	101300000	1000	0	0	-1	300
16960955	7244	492	0	-100	0	230	101300000	1000	0	0	-1	300
16973515	7242	498	0	-100	0	230	101300000	1000	0	0	-1	300
16986075	7243	493	0	-100	0	230	101300000	1000	0	0	-1	300
16998635	7247	489	0	-100	0	230	101300000	1000	0	0	-1	300
17011195	7236	495	0	-100	0	230	101300000	1000	0	0	-1	300
17023755	7256	497	0	-100	0	230	101300000	1000	0	0	-1	300
17036315	7247	491	0	-100	0	230	101300000	1000	0	0	-1	300
17048875	7256	492	0	-100	0	230	101300000	1000	0	0	-1	300
17061435	7251	498	0	-100	0	230	101300000	1000	0	0	-1	300
17073995	7252	491	0	-100	0	230	101300000	1000	0	0	-1	300
17086555	7259	490	0	-100	0	230	101300000	1000	0	0	-1	300
17099115	7245	497	0	-100	0	230	101300000	1000	0	0	-1	300
17111675	7247	499	0	-100	0	230	101300000	1000	0	0	-1	300
17124235	7245	492	0	-100	0	230	101300000	1000	0	0	-1	300
17136795	7255	491	0	-100	0	230	101300000	1000	0	0	-1	300
17149355	7255	490	0	-100	0	230	101300000	1000	0	0	-1	300
17161915	7247	496	0	-100	0	230	101300000	1000	0	0	-1	300
17174475	7245	495	0	-100	0	230	101300000	1000	0	0	-1	300
17187035	7255	492	0	-100	0	230	101300000	1000	0	0	-1	300
17199595	7243	497	0	-100	0	230	101300000	1000	0	0	-1	300
17212155	7258	497	0	-100	0	230	101300000	1000	0	0	-1	300
17224715	7241	492	0	-100	0	230	101300000	1000	0	0	-1	300
17237275	7255	493	0	-100	0	230	101300000	1000	0	0	-1	300
17249835	7261	498	0	-100	0	230	101300000	1000	0	0	-1	300
17262395	7250	492	0	-100	0	230	101300000	1000	0	0	-1	300
17274955	7251	492	0	-100	0	230	101300000	1000	0	0	-1	300
17287515	7243	496	0	-100	0	230	101300000	1000	0	0	-1	300
17300075	7245	490	0	-100	0	230	101300000	1000	0	0	-1	300
17312635	7242	497	0	-100	0	230	101300000	1000	0	0	-1	300
17325195	7250	491	0	-100	0	230	101300000	1000	0	0	-1	300
17337755	7259	492	0	-100	0	230	101300000	1000	0	0	-1	300
17350315	7245	500	0	-100	0	230	101300000	1000	0	0	-1	300
17362875	7257	491	0	-100	0	230	101300000	1000	0	0	-1	300
17375435	7247	497	0	-100	0	230	101300000	1000	0	0	-1	300
17387995	7246	496	0	-100	0	230	101300000	1000	0	0	-1	300
17400555	7247	496	0	-100	0	230	101300000	1000	0	0	-1	300
17413115	7245	496	0	-100	0	230	101300000	1000	0	0	-1	300
17425675	7252	489	0	-100	0	230	101300000	1000	0	0	-1	300
17438235	7245	497	0	-100	0	230	101300000	1000	0	0	-1	300
17450795	7246	492	0	-100	0	230	101300000	1000	0	0	-1	300
17463355	7247	495	0	-100	0	230	101300000	1000	0	0	-1	300
17475915	7233	492	0	-100	0	230	101300000	1000	0	0	-1	300
17488475	7250	493	0	-100	0	230	101300000	1000	0	0	-1	300
17501035	7242	492	0	-100	0	230	101300000	1000	0	0	-1	300
17513595	7240	492	0	-100	0	230	101300000	1000	0	0	-1	300
17526155	7260	491	0	-100	0	230	101300000	1000	0	0	-1	300
17538715	7241	498	0	-100	0	230	101300000	1000	0	0	-1	300
17551275	7245	492	0	-100	0	230	101300000	1000	0	0	-1	300
17563835	7247	499	0	-100	0	230	101300000	1000	0	0	-1	300
17576395	7256	491	0	-100	0	230	101300000	1000	0	0	-1	300
17588955	7245	495	0	-100	0	230	101300000	1000	0	0	-1	300
17601515	7252	490	0	-100	0	230	101300000	1000	0	0	-1	300
17614075	7247	497	0	-100	0	230	101300000	1000	0	0	-1	300
17626635	7248	490	0	-100	0	230	101300000	1000	0	0	-1	300
17639195	7254	498	0	-100	0	230	101300000	1000	0	0	-1	300
17651755	7259	488	0	-100	0	230	101300000	1000	0	0	-1	300
17664315	7241	494	0	-100	0	230	101300000	1000	0	0	-1	300
17676875	7238	492	0	-100	0	230	101300000	1000	0	0	-1	300
17689435	7234	491	0	-100	0	230	101300000	1000	0	0	-1	300
17701995	7238	493	0	-100	0	230	101300000	1000	0	0	-1	300
17714555	7257	492	0	-100	0	230	101300000	1000	0	0	-1	300
17727115	7257	498	0	-100	0	230	101300000	1000	0	0	-1	300
17739675	7261	492	0	-100	0	230	101300000	1000	0	0	-1	300
17752235	7256	491	0	-100	0	230	101300000	1000	0	0	-1	300
17764795	7242	494	0	-100	0	230	101300000	1000	0	0	-1	300
17777355	7248	492	0	-100	0	230	101300000	1000	0	0	-1	300
17789915	7249	496	0	-100	0	230	101300000	1000	0	0	-1	300
17802475	7247	490	0	-100	0	230	101300000	1000	0	0	-1	300
17815035	7252	496	0	-100	0	230	101300000	1000	0	0	-1	300
17827595	7248	492	0	-100	0	230	101300000	1000	0	0	-1	300
17840155	7258	496	0	-100	0	230	101300000	1000	0	0	-1	300
17852715	7248	492	0	-100	0	230	101300000	1000	0	0	-1	300
17865275	7250	495	0	-100	0	230	101300000	1000	0	0	-1	300
17877835	7241	491	0	-100	0	230	101300000	1000	0	0	-1	300
17890395	7243	495	0	-100	0	230	101300000	1000	0	0	-1	300
17902955	7243	495	0	-100	0	230	101300000	1000	0	0	-1	300
17915515	7249	494	0	-100	0	230	101300000	1000	0	0	-1	300
17928075	7248	492	0	-100	0	230	101300000	1000	0	0	-1	300
17940635	7248	497	0	-100	0	230	101300000	1000	0	0	-1	300
17953195	7250	491	0	-100	0	230	101300000	1000	0	0	-1	300
17965755	7251	499	0	-100	0	230	101300000	1000	0	0	-1	300
17978315	7257	492	0	-100	0	230	101300000	1000	0	0	-1	300
17990875	7243	493	0	-100	0	230	101300000	1000	0	0	-1	300
18003435	7250	493	0	-100	0	230	101300000	1000	0	0	-1	300
18015995	7249	492	0	-100	0	230	101300000	1000	0	0	-1	300
18028555	7249	493	0	-100	0	230	101300000	1000	0	0	-1	300
18041115	7261	492	0	-100	0	230	101300000	1000	0	0	-1	300
18053675	7249	492	0	-100	0	230	101300000	1000	0	0	-1	300
18066235	7253	499	0	-100	0	230	101300000	1000	0	0	-1	300
18078795	7249	492	0	-100	0	230	101300000	1000	0	0	-1	300
18091355	7249	491	0	-100	0	230	101300000	1000	0	0	-1	300
18103915	7243	499	0	-100	0	230	101300000	1000	0	0	-1	300
18116475	7252	495	0	-100	0	230	101300000	1000	0	0	-1	300
18129035	7253	492	0	-100	0	230	101300000	1000	0	0	-1	300
18141595	7248	493	0	-100	0	230	101300000	1000	0	0	-1	300
18154155	7254	498	0	-100	0	230	101300000	1000	0	0	-1	300
18166715	7245	497	0	-100	0	230	101300000	1000	0	0	-1	300
18179275	7249	494	0	-100	0	230	101300000	1000	0	0	-1	300
18191835	7244	489	0	-100	0	230	101300000	1000	0	0	-1	300
18204395	7253	490	0	-100	0	230	101300000	1000	0	0	-1	300
18216955	7252	497	0	-100	0	230	101300000	1000	0	0	-1	300
18229515	7254	497	0	-100	0	230	101300000	1000	0	0	-1	300
18242075	7260	491	0	-100	0	230	101300000	1000	0	0	-1	300
18254635	7241	491	0	-100	0	230	101300000	1000	0	0	-1	300
18267195	7245	494	0	-100	0	230	101300000	1000	0	0	-1	300
18279755	7247	497	0	-100	0	230	101300000	1000	0	0	-1	300
18292315	7257	494	0	-100	0	230	101300000	1000	0	0	-1	300
18304875	7257	491	0	-100	0	230	101300000	1000	0	0	-1	300
18317435	7249	494	0	-100	0	230	101300000	1000	0	0	-1	300
18329995	7256	493	0	-100	0	230	101300000	1000	0	0	-1	300
18342555	7245	496	0	-100	0	230	101300000	1000	0	0	-1	300
18355115	7252	491	0	-100	0	230	101300000	1000	0	0	-1	300
18367675	7249	495	0	-100	0	230	101300000	1000	0	0	-1	300
18380235	7241	500	0	-100	0	230	101300000	1000	0	0	-1	300
18392795	7248	497	0	-100	0	230	101300000	1000	0	0	-1	300
18405355	7251	495	0	-100	0	230	101300000	1000	0	0	-1	300
18417915	7250	489	0	-100	0	230	101300000	1000	0	0	-1	300
18430475	7249	493	0	-100	0	230	101300000	1000	0	0	-1	300
18443035	7245	497	0	-100	0	230	101300000	1000	0	0	-1	300
18455595	7251	495	0	-100	0	230	101300000	1000	0	0	-1	300
18468155	7265	492	0	-100	0	230	101300000	1000	0	0	-1	300
18480715	7245	491	0	-100	0	230	101300000	1000	0	0	-1	300
18493275	7242	499	0	-100	0	230	101300000	1000	0	0	-1	300
18505835	7252	492	0	-100	0	230	101300000	1000	0	0	-1	300
18518395	7243	490	0	-100	0	230	101300000	1000	0	0	-1	300
18530955	7243	499	0	-100	0	230	101300000	1000	0	0	-1	300
18543515	7241	495	0	-100	0	230	101300000	1000	0	0	-1	300
18556075	7244	488	0	-100	0	230	101300000	1000	0	0	-1	300
18568635	7252	492	0	-100	0	230	101300000	1000	0	0	-1	300
18581195	7248	495	0	-100	0	230	101300000	1000	0	0	-1	300
18593755	7254	500	0	-100	0	230	101300000	1000	0	0	-1	300
18606315	7247	495	0	-100	0	230	101300000	1000	0	0	-1	300
18618875	7256	489	0	-100	0	230	101300000	1000	0	0	-1	300
18631435	7250	491	0	-100	0	230	101300000	1000	0	0	-1	300
18643995	7247	492	0	-100	0	230	101300000	1000	0	0	-1	300
18656555	7252	496	0	-100	0	230	101300000	1000	0	0	-1	300
18669115	7257	492	0	-100	0	230	101300000	1000	0	0	-1	300
18681675	7260	492	0	-100	0	230	101300000	1000	0	0	-1	300
18694235	7255	494	0	-100	0	230	101300000	1000	0	0	-1	300
18706795	7256	499	0	-100	0	230	101300000	1000	0	0	-1	300
18719355	7251	494	0	-100	0	230	101300000	1000	0	0	-1	300
18731915	7250	491	0	-100	0	230	101300000	1000	0	0	-1	300
18744475	7234	494	0	-100	0	230	101300000	1000	0	0	-1	300
18757035	7249	498	0	-100	0	230	101300000	1000	0	0	-1	300
18769595	7259	493	0	-100	0	230	101300000	1000	0	0	-1	300
18782155	7257	489	0	-100	0	230	101300000	1000	0	0	-1	300
18794715	7254	500	0	-100	0	230	101300000	1000	0	0	-1	300
18807275	7247	491	0	-100	0	230	101300000	1000	0	0	-1	300
18819835	7248	490	0	-100	0	230	101300000	1000	0	0	-1	300
18832395	7253	499	0	-100	0	230	101300000	1000	0	0	-1	300
18844955	7255	488	0	-100	0	230	101300000	1000	0	0	-1	300
18857515	7245	497	0	-100	0	230	101300000	1000	0	0	-1	300
18870075	7243	495	0	-100	0	230	101300000	1000	0	0	-1	300
18882635	7251	493	0	-100	0	230	101300000	1000	0	0	-1	300
18895195	7245	493	0	-100	0	230	101300000	1000	0	0	-1	300
18907755	7252	499	0	-100	0	230	101300000	1000	0	0	-1	300
18920315	7245	496	0	-100	0	230	101300000	1000	0	0	-1	300
18932875	7252	490	0	-100	0	230	101300000	1000	0	0	-1	300
18945435	7250	491	0	-100	0	230	101300000	1000	0	0	-1	300
18957995	7249	494	0	-100	0	230	101300000	1000	0	0	-1	300
18970555	7249	496	0	-100	0	230	101300000	1000	0	0	-1	300
18983115	7232	499	0	-100	0	230	101300000	1000	0	0	-1	300
18995675	7254	495	0	-100	0	230	101300000	1000	0	0	-1	300
19008235	7255	491	0	-100	0	230	101300000	1000	0	0	-1	300
19020795	7256	490	0	-100	0	230	101300000	1000	0	0	-1	300
19033355	7243	495	0	-100	0	230	101300000	1000	0	0	-1	300
19045915	7238	497	0	-100	0	230	101300000	1000	0	0	-1	300
19058475	7249	493	0	-100	0	230	101300000	1000	0	0	-1	300
19071035	7257	491	0	-100	0	230	101300000	1000	0	0	-1	300
19083595	7242	495	0	-100	0	230	101300000	1000	0	0	-1	300
19096155	7252	500	0	-100	0	230	101300000	1000	0	0	-1	300
19108715	7255	491	0	-100	0	230	101300000	1000	0	0	-1	300
19121275	7232	491	0	-100	0	230	101300000	1000	0	0	-1	300
19133835	7253	500	0	-100	0	230	101300000	1000	0	0	-1	300
19146395	7249	488	0	-100	0	230	101300000	1000	0	0	-1	300
19158955	7247	493	0	-100	0	230	101300000	1000	0	0	-1	300
19171515	7242	496	0	-100	0	230	101300000	1000	0	0	-1	300
19184075	7252	490	0	-100	0	230	101300000	1000	0	0	-1	300
19196635	7242	499	0	-100	0	230	101300000	1000	0	0	-1	300
19209195	7254	492	0	-100	0	230	101300000	1000	0	0	-1	300
19221755	7249	492	0	-100	0	230	101300000	1000	0	0	-1	300
19234315	7245	496	0	-100	0	230	101300000	1000	0	0	-1	300
19246875	7264	492	0	-100	0	230	101300000	1000	0	0	-1	300
19259435	7249	496	0	-100	0	230	101300000	1000	0	0	-1	300
19271995	7240	496	0	-100	0	230	101300000	1000	0	0	-1	300
19284555	7248	491	0	-100	0	230	101300000	1000	0	0	-1	300
19297115	7234	492	0	-100	0	230	101300000	1000	0	0	-1	300
19309675	7317	483	0	-100	0	230	101300000	1000	0	0	-1	300
19322235	7405	468	0	-100	0	230	101300000	1000	0	0	-1	300
19334795	7426	465	0	-100	0	230	101300000	1000	0	0	-1	300
19347355	7427	472	0	-100	0	230	101300000	1000	0	0	-1	300
19359915	7420	462	0	-100	0	230	101300000	1000	0	0	-1	300
19372475	7436	467	0	-100	0	230	101300000	1000	0	0	-1	300
19385035	7425	470	0	-100	0	230	101300000	1000	0	0	-1	300
19397595	7428	462	0	-100	0	230	101300000	1000	0	0	-1	300
19410155	7434	464	0	-100	0	230	101300000	1000	0	0	-1	300
19422715	7438	471	0	-100	0	230	101300000	1000	0	0	-1	300
19435275	7439	462	0	-100	0	230	101300000	1000	0	0	-1	300
19447835	7427	466	0	-100	0	230	101300000	1000	0	0	-1	300
19460395	7434	469	0	-100	0	230	101300000	1000	0	0	-1	300
19472955	7432	464	0	-100	0	230	101300000	1000	0	0	-1	300
19485515	7396	477	0	-100	0	230	101300000	1000	0	0	-1	300
19498075	7245	487	0	-100	0	230	101300000	1000	0	0	-1	300
19510635	7332	474	0	-100	0	230	101300000	1000	0	0	-1	300
19523195	7383	475	0	-100	0	230	101300000	1000	0	0	-1	300
19535755	7415	468	0	-100	0	230	101300000	1000	0	0	-1	300
19548315	7427	465	0	-100	0	230	101300000	1000	0	0	-1	300
19560875	7433	471	0	-100	0	230	101300000	1000	0	0	-1	300
19573435	7438	465	0	-100	0	230	101300000	1000	0	0	-1	300
19585995	7420	465	0	-100	0	230	101300000	1000	0	0	-1	300
19598555	7424	471	0	-100	0	230	101300000	1000	0	0	-1	300
19611115	7436	467	0	-100	0	230	101300000	1000	0	0	-1	300
19623675	7439	464	0	-100	0	230	101300000	1000	0	0	-1	300
19636235	7444	468	0	-100	0	230	101300000	1000	0	0	-1	300
19648795	7434	465	0	-100	0	230	101300000	1000	0	0	-1	300
19661355	7436	465	0	-100	0	230	101300000	1000	0	0	-1	300
19673915	7428	473	0	-100	0	230	101300000	1000	0	0	-1	300
19686475	7430	467	0	-100	0	230	101300000	1000	0	0	-1	300
19699035	7448	464	0	-100	0	230	101300000	1000	0	0	-1	300
19711595	7444	473	0	-100	0	230	101300000	1000	0	0	-1	300
19724155	7438	468	0	-100	0	230	101300000	1000	0	0	-1	300
19736715	7440	462	0	-100	0	230	101300000	1000	0	0	-1	300
19749275	7436	465	0	-100	0	230	101300000	1000	0	0	-1	300
19761835	7434	473	0	-100	0	230	101300000	1000	0	0	-1	300
19774395	7419	470	0	-100	0	230	101300000	1000	0	0	-1	300
19786955	7426	465	0	-100	0	230	101300000	1000	0	0	-1	300
19799515	7451	464	0	-100	0	230	101300000	1000	0	0	-1	300
19812075	7418	469	0	-100	0	230	101300000	1000	0	0	-1	300
19824635	7432	470	0	-100	0	230	101300000	1000	0	0	-1	300
19837195	7441	465	0	-100	0	230	101300000	1000	0	0	-1	300
19849755	7434	465	0	-100	0	230	101300000	1000	0	0	-1	300
19862315	7436	474	0	-100	0	230	101300000	1000	0	0	-1	300
19874875	7445	471	0	-100	0	230	101300000	1000	0	0	-1	300
19887435	7441	465	0	-100	0	230	101300000	1000	0	0	-1	300
19899995	7441	468	0	-100	0	230	101300000	1000	0	0	-1	300
19912555	7436	474	0	-100	0	230	101300000	1000	0	0	-1	300
19925115	7429	467	0	-100	0	230	101300000	1000	0	0	-1	300
19937675	7439	465	0	-100	0	230	101300000	1000	0	0	-1	300
19950235	7434	470	0	-100	0	230	101300000	1000	0	0	-1	300
19962795	7439	468	0	-100	0	230	101300000	1000	0	0	-1	300
19975355	7435	465	0	-100	0	230	101300000	1000	0	0	-1	300
19987915	7441	472	0	-100	0	230	101300000	1000	0	0	-1	300
20000475	7425	467	0	-100	0	230	101300000	1000	0	0	-1	300
20013035	7446	463	0	-100	0	230	101300000	1000	0	0	-1	300
20025595	7430	470	0	-100	0	230	101300000	1000	0	0	-1	300
20038155	7440	469	0	-100	0	230	101300000	1000	0	0	-1	300
20050715	7444	459	0	-100	0	230	101300000	1000	0	0	-1	300
20063275	7436	468	0	-100	0	230	101300000	1000	0	0	-1	300
20075835	7435	473	0	-100	0	230	101300000	1000	0	0	-1	300
20088395	7434	468	0	-100	0	230	101300000	1000	0	0	-1	300
20100955	7440	460	0	-100	0	230	101300000	1000	0	0	-1	300
20113515	7426	468	0	-100	0	230	101300000	1000	0	0	-1	300
20126075	7426	472	0	-100	0	230	101300000	1000	0	0	-1	300
20138635	7437	462	0	-100	0	230	101300000	1000	0	0	-1	300
20151195	7434	464	0	-100	0	230	101300000	1000	0	0	-1	300
20163755	7431	471	0	-100	0	230	101300000	1000	0	0	-1	300
20176315	7428	463	0	-100	0	230	101300000	1000	0	0	-1	300
20188875	7441	463	0	-100	0	230	101300000	1000	0	0	-1	300
20201435	7430	465	0	-100	0	230	101300000	1000	0	0	-1	300
20213995	7449	463	0	-100	0	230	101300000	1000	0	0	-1	300
20226555	7427	466	0	-100	0	230	101300000	1000	0	0	-1	300
20239115	7439	463	0	-100	0	230	101300000	1000	0	0	-1	300
20251675	7441	466	0	-100	0	230	101300000	1000	0	0	-1	300
20264235	7441	470	0	-100	0	230	101300000	1000	0	0	-1	300
20276795	7435	465	0	-100	0	230	101300000	1000	0	0	-1	300
20289355	7439	465	0	-100	0	230	101300000	1000	0	0	-1	300
20301915	7422	470	0	-100	0	230	101300000	1000	0	0	-1	300
20314475	7430	473	0	-100	0	230	101300000	1000	0	0	-1	300
20327035	7441	467	0	-100	0	230	101300000	1000	0	0	-1	300
20339595	7442	467	0	-100	0	230	101300000	1000	0	0	-1	300
20352155	7441	468	0	-100	0	230	101300000	1000	0	0	-1	300
20364715	7434	473	0	-100	0	230	101300000	1000	0	0	-1	300
20377275	7443	467	0	-100	0	230	101300000	1000	0	0	-1	300
20389835	7436	468	0	-100	0	230	101300000	1000	0	0	-1	300
20402395	7425	466	0	-100	0	230	101300000	1000	0	0	-1	300
20414955	7431	475	0	-100	0	230	101300000	1000	0	0	-1	300
20427515	7443	472	0	-100	0	230	101300000	1000	0	0	-1	300
20440075	7437	461	0	-100	0	230	101300000	1000	0	0	-1	300
20452635	7438	467	0	-100	0	230	101300000	1000	0	0	-1	300
20465195	7429	470	0	-100	0	230	101300000	1000	0	0	-1	300
20477755	7441	472	0	-100	0	230	101300000	1000	0	0	-1	300
20490315	7441	465	0	-100	0	230	101300000	1000	0	0	-1	300
20502875	7430	467	0	-100	0	230	101300000	1000	0	0	-1	300
20515435	7430	472	0	-100	0	230	101300000	1000	0	0	-1	300
20527995	7445	472	0	-100	0	230	101300000	1000	0	0	-1	300
20540555	7439	466	0	-100	0	230	101300000	1000	0	0	-1	300
20553115	7438	470	0	-100	0	230	101300000	1000	0	0	-1	300
20565675	7429	467	0	-100	0	230	101300000	1000	0	0	-1	300
20578235	7434	468	0	-100	0	230	101300000	1000	0	0	-1	300
20590795	7434	470	0	-100	0	230	101300000	1000	0	0	-1	300
20603355	7437	465	0	-100	0	230	101300000	1000	0	0	-1	300
20615915	7434	472	0	-100	0	230	101300000	1000	0	0	-1	300
20628475	7451	467	0	-100	0	230	101300000	1000	0	0	-1	300
20641035	7427	469	0	-100	0	230	101300000	1000	0	0	-1	300
20653595	7434	471	0	-100	0	230	101300000	1000	0	0	-1	300
20666155	7438	464	0	-100	0	230	101300000	1000	0	0	-1	300
20678715	7429	470	0	-100	0	230	101300000	1000	0	0	-1	300
20691275	7441	468	0	-100	0	230	101300000	1000	0	0	-1	300
20703835	7450	465	0	-100	0	230	101300000	1000	0	0	-1	300
20716395	7446	475	0	-100	0	230	101300000	1000	0	0	-1	300
20728955	7455	468	0	-100	0	230	101300000	1000	0	0	-1	300
20741515	7431	468	0	-100	0	230	101300000	1000	0	0	-1	300
20754075	7448	467	0	-100	0	230	101300000	1000	0	0	-1	300
20766635	7441	467	0	-100	0	230	101300000	1000	0	0	-1	300
20779195	7355	479	0	-100	0	230	101300000	1000	0	0	-1	300
20791755	7424	470	0	-100	0	230	101300000	1000	0	0	-1	300
20804315	7439	474	0	-100	0	230	101300000	1000	0	0	-1	300
20816875	7446	466	0	-100	0	230	101300000	1000	0	0	-1	300
20829435	7262	489	0	-100	0	230	101300000	1000	0	0	-1	300
20841995	7254	498	0	-100	0	230	101300000	1000	0	0	-1	300
20854555	7234	492	0	-100	0	230	101300000	1000	0	0	-1	300
20867115	7242	496	0	-100	0	230	101300000	1000	0	0	-1	300
20879675	7257	491	0	-100	0	230	101300000	1000	0	0	-1	300
20892235	7245	497	0	-100	0	230	101300000	1000	0	0	-1	300
20904795	7243	491	0	-100	0	230	101300000	1000	0	0	-1	300
20917355	7245	495	0	-100	0	230	101300000	1000	0	0	-1	300
20929915	7254	491	0	-100	0	230	101300000	1000	0	0	-1	300
20942475	7254	491	0	-100	0	230	101300000	1000	0	0	-1	300
20955035	7253	498	0	-100	0	230	101300000	1000	0	0	-1	300
20967595	7258	491	0	-100	0	230	101300000	1000	0	0	-1	300
20980155	7251	492	0	-100	0	230	101300000	1000	0	0	-1	300
21017835	7245	496	0	-100	0	230	101300000	1000	0	0	-1	300
21030395	7247	495	0	-100	0	230	101300000	1000	0	0	-1	300
21042955	7258	491	0	-100	0	230	101300000	1000	0	0	-1	300
21055515	7251	491	0	-100	0	230	101300000	1000	0	0	-1	300
21068075	7252	499	0	-100	0	230	101300000	1000	0	0	-1	300
21080635	7250	491	0	-100	0	230	101300000	1000	0	0	-1	300
21093195	7243	492	0	-100	0	230	101300000	1000	0	0	-1	300
21105755	7245	495	0	-100	0	230	101300000	1000	0	0	-1	300
21118315	7235	497	0	-100	0	230	101300000	1000	0	0	-1	300
21130875	7243	493	0	-100	0	230	101300000	1000	0	0	-1	300
21143435	7238	490	0	-100	0	230	101300000	1000	0	0	-1	300
21155995	7248	491	0	-100	0	230	101300000	1000	0	0	-1	300
21218795	7254	496	0	-100	0	230	101300000	1000	0	0	-1	300
21231355	7255	491	0	-100	0	230	101300000	1000	0	0	-1	300
21243915	7241	495	0	-100	0	230	101300000	1000	0	0	-1	300
21256475	7245	496	0	-100	0	230	101300000	1000	0	0	-1	300
21269035	7257	490	0	-100	0	230	101300000	1000	0	0	-1	300
21281595	7246	490	0	-100	0	230	101300000	1000	0	0	-1	300
21294155	7251	493	0	-100	0	230	101300000	1000	0	0	-1	300
21306715	7249	498	0	-100	0	230	101300000	1000	0	0	-1	300
21319275	7251	490	0	-100	0	230	101300000	1000	0	0	-1	300
21331835	7259	492	0	-100	0	230	101300000	1000	0	0	-1	300
21344395	7241	495	0	-100	0	230	101300000	1000	0	0	-1	300
21356955	7233	496	0	-100	0	230	101300000	1000	0	0	-1	300
21382075	7257	493	0	-100	0	230	101300000	1000	0	0	-1	300
21394635	7241	494	0	-100	0	230	101300000	1000	0	0	-1	300
21407195	7247	495	0	-100	0	230	101300000	1000	0	0	-1	300
21419755	7254	490	0	-100	0	230	101300000	1000	0	0	-1	300
21432315	7243	495	0	-100	0	230	101300000	1000	0	0	-1	300
21444875	7251	493	0	-100	0	230	101300000	1000	0	0	-1	300
21457435	7251	492	0	-100	0	230	101300000	1000	0	0	-1	300
21469995	7249	492	0	-100	0	230	101300000	1000	0	0	-1	300
21482555	7260	490	0	-100	0	230	101300000	1000	0	0	-1	300
21495115	7241	500	0	-100	0	230	101300000	1000	0	0	-1	300
21507675	7254	491	0	-100	0	230	101300000	1000	0	0	-1	300
21520235	7250	490	0	-100	0	230	101300000	1000	0	0	-1	300
21532795	7251	501	0	-100	0	230	101300000	1000	0	0	-1	300
21545355	7258	492	0	-100	0	230	101300000	1000	0	0	-1	300
21557915	7250	489	0	-100	0	230	101300000	1000	0	0	-1	300
21570475	7249	499	0	-100	0	230	101300000	1000	0	0	-1	300
21583035	7257	491	0	-100	0	230	101300000	1000	0	0	-1	300
21595595	7243	494	0	-100	0	230	101300000	1000	0	0	-1	300
21608155	7255	495	0	-100	0	230	101300000	1000	0	0	-1	300
21620715	7252	492	0	-100	0	230	101300000	1000	0	0	-1	300
21633275	7241	496	0	-100	0	230	101300000	1000	0	0	-1	300
21645835	7248	495	0	-100	0	230	101300000	1000	0	0	-1	300
21658395	7252	490	0	-100	0	230	101300000	1000	0	0	-1	300
21670955	7249	499	0	-100	0	230	101300000	1000	0	0	-1	300
21683515	7262	492	0	-100	0	230	101300000	1000	0	0	-1	300
21696075	7247	491	0	-100	0	230	101300000	1000	0	0	-1	300
21708635	7256	498	0	-100	0	230	101300000	1000	0	0	-1	300
21721195	7261	492	0	-100	0	230	101300000	1000	0	0	-1	300
21733755	7257	489	0	-100	0	230	101300000	1000	0	0	-1	300
21746315	7240	498	0	-100	0	230	101300000	1000	0	0	-1	300
21758875	7252	492	0	-100	0	230	101300000	1000	0	0	-1	300
21771435	7249	490	0	-100	0	230	101300000	1000	0	0	-1	300
21783995	7250	491	0	-100	0	230	101300000	1000	0	0	-1	300
21796555	7251	498	0	-100	0	230	101300000	1000	0	0	-1	300
21809115	7250	491	0	-100	0	230	101300000	1000	0	0	-1	300
21821675	7250	491	0	-100	0	230	101300000	1000	0	0	-1	300
21834235	7252	500	0	-100	0	230	101300000	1000	0	0	-1	300
21846795	7258	493	0	-100	0	230	101300000	1000	0	0	-1	300
21859355	7253	490	0	-100	0	230	101300000	1000	0	0	-1	300
21871915	7247	495	0	-100	0	230	101300000	1000	0	0	-1	300
21884475	7249	493	0	-100	0	230	101300000	1000	0	0	-1	300
21897035	7257	489	0	-100	0	230	101300000	1000	0	0	-1	300
21909595	7252	494	0	-100	0	230	101300000	1000	0	0	-1	300
21922155	7258	497	0	-100	0	230	101300000	1000	0	0	-1	300
21934715	7252	490	0	-100	0	230	101300000	1000	0	0	-1	300
21947275	7250	498	0	-100	0	230	101300000	1000	0	0	-1	300
21959835	7252	490	0	-100	0	230	101300000	1000	0	0	-1	300
21972395	7256	489	0	-100	0	230	101300000	1000	0	0	-1	300
21984955	7254	497	0	-100	0	230	101300000	1000	0	0	-1	300
21997515	7268	491	0	-100	0	230	101300000	1000	0	0	-1	300
22010075	7248	488	0	-100	0	230	101300000	1000	0	0	-1	300
22022635	7254	500	0	-100	0	230	101300000	1000	0	0	-1	300
22035195	7261	489	0	-100	0	230	101300000	1000	0	0	-1	300
22047755	7256	490	0	-100	0	230	101300000	1000	0	0	-1	300
22060315	7245	495	0	-100	0	230	101300000	1000	0	0	-1	300
22072875	7257	488	0	-100	0	230	101300000	1000	0	0	-1	300
22085435	7255	492	0	-100	0	230	101300000	1000	0	0	-1	300
22097995	7250	491	0	-100	0	230	101300000	1000	0	0	-1	300
22110555	7255	492	0	-100	0	230	101300000	1000	0	0	-1	300
22123115	7259	490	0	-100	0	230	101300000	1000	0	0	-1	300
22135675	7249	492	0	-100	0	230	101300000	1000	0	0	-1	300
22148235	7250	498	0	-100	0	230	101300000	1000	0	0	-1	300
22160795	7264	489	0	-100	0	230	101300000	1000	0	0	-1	300
22173355	7257	488	0	-100	0	230	101300000	1000	0	0	-1	300
22185915	7252	493	0	-100	0	230	101300000	1000	0	0	-1	300
22198475	7245	495	0	-100	0	230	101300000	1000	0	0	-1	300
22211035	7253	490	0	-100	0	230	101300000	1000	0	0	-1	300
22223595	7248	495	0	-100	0	230	101300000	1000	0	0	-1	300
22236155	7259	492	0	-100	0	230	101300000	1000	0	0	-1	300
22248715	7250	490	0	-100	0	230	101300000	1000	0	0	-1	300
22261275	7264	498	0	-100	0	230	101300000	1000	0	0	-1	300
22273835	7261	490	0	-100	0	230	101300000	1000	0	0	-1	300
22286395	7255	489	0	-100	0	230	101300000	1000	0	0	-1	300
22298955	7246	492	0	-100	0	230	101300000	1000	0	0	-1	300
22311515	7247	495	0	-100	0	230	101300000	1000	0	0	-1	300
22324075	7262	490	0	-100	0	230	101300000	1000	0	0	-1	300
22336635	7250	491	0	-100	0	230	101300000	1000	0	0	-1	300
22349195	7252	494	0	-100	0	230	101300000	1000	0	0	-1	300
22361755	7257	491	0	-100	0	230	101300000	1000	0	0	-1	300
22374315	7250	495	0	-100	0	230	101300000	1000	0	0	-1	300
22386875	7251	497	0	-100	0	230	101300000	1000	0	0	-1	300
22399435	7262	488	0	-100	0	230	101300000	1000	0	0	-1	300
22411995	7255	491	0	-100	0	230	101300000	1000	0	0	-1	300
22424555	7252	495	0	-100	0	230	101300000	1000	0	0	-1	300
22437115	7261	493	0	-100	0	230	101300000	1000	0	0	-1	300
22449675	7266	491	0	-100	0	230	101300000	1000	0	0	-1	300
22462235	7252	491	0	-100	0	230	101300000	1000	0	0	-1	300
22474795	7253	495	0	-100	0	230	101300000	1000	0	0	-1	300
22487355	7262	491	0	-100	0	230	101300000	1000	0	0	-1	300
22499915	7257	489	0	-100	0	230	101300000	1000	0	0	-1	300
22512475	7248	494	0	-100	0	230	101300000	1000	0	0	-1	300
22525035	7258	493	0	-100	0	230	101300000	1000	0	0	-1	300
22537595	7255	489	0	-100	0	230	101300000	1000	0	0	-1	300
22550155	7268	491	0	-100	0	230	101300000	1000	0	0	-1	300
22562715	7252	495	0	-100	0	230	101300000	1000	0	0	-1	300
22575275	7252	498	0	-100	0	230	101300000	1000	0	0	-1	300
22587835	7245	494	0	-100	0	230	101300000	1000	0	0	-1	300
22600395	7260	491	0	-100	0	230	101300000	1000	0	0	-1	300
22612955	7269	488	0	-100	0	230	101300000	1000	0	0	-1	300
22625515	7262	491	0	-100	0	230	101300000	1000	0	0	-1	300
22638075	7264	493	0	-100	0	230	101300000	1000	0	0	-1	300
22650635	7257	496	0	-100	0	230	101300000	1000	0	0	-1	300
22663195	7262	498	0	-100	0	230	101300000	1000	0	0	-1	300
22675755	7262	493	0	-100	0	230	101300000	1000	0	0	-1	300
22688315	7262	490	0	-100	0	230	101300000	1000	0	0	-1	300
22700875	7255	489	0	-100	0	230	101300000	1000	0	0	-1	300
22713435	7259	490	0	-100	0	230	101300000	1000	0	0	-1	300
22725995	7248	490	0	-100	0	230	101300000	1000	0	0	-1	300
22738555	7255	497	0	-100	0	230	101300000	1000	0	0	-1	300
22751115	7265	496	0	-100	0	230	101300000	1000	0	0	-1	300
22763675	7260	491	0	-100	0	230	101300000	1000	0	0	-1	300
22776235	7259	489	0	-100	0	230	101300000	1000	0	0	-1	300
22788795	7252	496	0	-100	0	230	101300000	1000	0	0	-1	300
22801355	7261	495	0	-100	0	230	101300000	1000	0	0	-1	300
22813915	7252	489	0	-100	0	230	101300000	1000	0	0	-1	300
22826475	7260	488	0	-100	0	230	101300000	1000	0	0	-1	300
22839035	7250	493	0	-100	0	230	101300000	1000	0	0	-1	300
22851595	7262	498	0	-100	0	230	101300000	1000	0	0	-1	300
22864155	7264	494	0	-100	0	230	101300000	1000	0	0	-1	300
22876715	7260	491	0	-100	0	230	101300000	1000	0	0	-1	300
22889275	7274	488	0	-100	0	230	101300000	1000	0	0	-1	300
22901835	7258	489	0	-100	0	230	101300000	1000	0	0	-1	300
22914395	7262	494	0	-100	0	230	101300000	1000	0	0	-1	300
22926955	7262	498	0	-100	0	230	101300000	1000	0	0	-1	300
22939515	7252	491	0	-100	0	230	101300000	1000	0	0	-1	300
22952075	7262	487	0	-100	0	230	101300000	1000	0	0	-1	300
22964635	7266	490	0	-100	0	230	101300000	1000	0	0	-1	300
22977195	7266	489	0	-100	0	230	101300000	1000	0	0	-1	300
22989755	7259	489	0	-100	0	230	101300000	1000	0	0	-1	300
23002315	7254	491	0	-100	0	230	101300000	1000	0	0	-1	300
23014875	7255	495	0	-100	0	230	101300000	1000	0	0	-1	300
23027435	7262	495	0	-100	0	230	101300000	1000	0	0	-1	300
23039995	7257	490	0	-100	0	230	101300000	1000	0	0	-1	300
23052555	7257	494	0	-100	0	230	101300000	1000	0	0	-1	300
23065115	7257	487	0	-100	0	230	101300000	1000	0	0	-1	300
23077675	7262	491	0	-100	0	230	101300000	1000	0	0	-1	300
23090235	7264	491	0	-100	0	230	101300000	1000	0	0	-1	300
23102795	7262	494	0	-100	0	230	101300000	1000	0	0	-1	300
23115355	7257	498	0	-100	0	230	101300000	1000	0	0	-1	300
23127915	7259	494	0	-100	0	230	101300000	1000	0	0	-1	300
23140475	7258	490	0	-100	0	230	101300000	1000	0	0	-1	300
23153035	7253	489	0	-100	0	230	101300000	1000	0	0	-1	300
23165595	7257	495	0	-100	0	230	101300000	1000	0	0	-1	300
23178155	7270	496	0	-100	0	230	101300000	1000	0	0	-1	300
23190715	7252	494	0	-100	0	230	101300000	1000	0	0	-1	300
23203275	7268	492	0	-100	0	230	101300000	1000	0	0	-1	300
23215835	7260	492	0	-100	0	230	101300000	1000	0	0	-1	300
23228395	7255	490	0	-100	0	230	101300000	1000	0	0	-1	300
23240955	7258	485	0	-100	0	230	101300000	1000	0	0	-1	300
23253515	7259	488	0	-100	0	230	101300000	1000	0	0	-1	300
23266075	7264	489	0	-100	0	230	101300000	1000	0	0	-1	300
23278635	7253	490	0	-100	0	230	101300000	1000	0	0	-1	300
23291195	7260	494	0	-100	0	230	101300000	1000	0	0	-1	300
23303755	7262	498	0	-100	0	230	101300000	1000	0	0	-1	300
23316315	7258	498	0	-100	0	230	101300000	1000	0	0	-1	300
23328875	7269	495	0	-100	0	230	101300000	1000	0	0	-1	300
23341435	7256	491	0	-100	0	230	101300000	1000	0	0	-1	300
23353995	7258	496	0	-100	0	230	101300000	1000	0	0	-1	300
23366555	7260	490	0	-100	0	230	101300000	1000	0	0	-1	300
23379115	7268	494	0	-100	0	230	101300000	1000	0	0	-1	300
23391675	7259	499	0	-100	0	230	101300000	1000	0	0	-1	300
23404235	7258	495	0	-100	0	230	101300000	1000	0	0	-1	300
23416795	7276	490	0	-100	0	230	101300000	1000	0	0	-1	300
23429355	7266	492	0	-100	0	230	101300000	1000	0	0	-1	300
23441915	7258	491	0	-100	0	230	101300000	1000	0	0	-1	300
23454475	7258	493	0	-100	0	230	101300000	1000	0	0	-1	300
23467035	7256	497	0	-100	0	230	101300000	1000	0	0	-1	300
23479595	7257	495	0	-100	0	230	101300000	1000	0	0	-1	300
23492155	7274	490	0	-100	0	230	101300000	1000	0	0	-1	300
23504715	7269	488	0	-100	0	230	101300000	1000	0	0	-1	300
23517275	7255	489	0	-100	0	230	101300000	1000	0	0	-1	300
23529835	7260	491	0	-100	0	230	101300000	1000	0	0	-1	300
23542395	7248	493	0	-100	0	230	101300000	1000	0	0	-1	300
23554955	7257	495	0	-100	0	230	101300000	1000	0	0	-1	300
23567515	7253	494	0	-100	0	230	101300000	1000	0	0	-1	300
23580075	7247	492	0	-100	0	230	101300000	1000	0	0	-1	300
23592635	7252	495	0	-100	0	230	101300000	1000	0	0	-1	300
23605195	7264	495	0	-100	0	230	101300000	1000	0	0	-1	300
23617755	7262	495	0	-100	0	230	101300000	1000	0	0	-1	300
23630315	7268	495	0	-100	0	230	101300000	1000	0	0	-1	300
23642875	7259	497	0	-100	0	230	101300000	1000	0	0	-1	300
23655435	7255	495	0	-100	0	230	101300000	1000	0	0	-1	300
23667995	7260	497	0	-100	0	230	101300000	1000	0	0	-1	300
23680555	7262	490	0	-100	0	230	101300000	1000	0	0	-1	300
23693115	7258	490	0	-100	0	230	101300000	1000	0	0	-1	300
23705675	7260	490	0	-100	0	230	101300000	1000	0	0	-1	300
23718235	7259	492	0	-100	0	230	101300000	1000	0	0	-1	300
23730795	7255	497	0	-100	0	230	101300000	1000	0	0	-1	300
23743355	7252	496	0	-100	0	230	101300000	1000	0	0	-1	300
23755915	7259	496	0	-100	0	230	101300000	1000	0	0	-1	300
23768475	7252	493	0	-100	0	230	101300000	1000	0	0	-1	300
23781035	7260	492	0	-100	0	230	101300000	1000	0	0	-1	300
23793595	7261	491	0	-100	0	230	101300000	1000	0	0	-1	300
23806155	7271	488	0	-100	0	230	101300000	1000	0	0	-1	300
23818715	7264	490	0	-100	0	230	101300000	1000	0	0	-1	300
23831275	7253	490	0	-100	0	230	101300000	1000	0	0	-1	300
23843835	7262	495	0	-100	0	230	101300000	1000	0	0	-1	300
23856395	7254	495	0	-100	0	230	101300000	1000	0	0	-1	300
23868955	7264	492	0	-100	0	230	101300000	1000	0	0	-1	300
23881515	7268	491	0	-100	0	230	101300000	1000	0	0	-1	300
23894075	7254	490	0	-100	0	230	101300000	1000	0	0	-1	300
23906635	7251	494	0	-100	0	230	101300000	1000	0	0	-1	300
23919195	7249	497	0	-100	0	230	101300000	1000	0	0	-1	300
23931755	7257	491	0	-100	0	230	101300000	1000	0	0	-1	300
23944315	7252	491	0	-100	0	230	101300000	1000	0	0	-1	300
23956875	7238	495	0	-100	0	230	101300000	1000	0	0	-1	300
23969435	7251	498	0	-100	0	230	101300000	1000	0	0	-1	300
23981995	7252	496	0	-100	0	230	101300000	1000	0	0	-1	300
23994555	7250	492	0	-100	0	230	101300000	1000	0	0	-1	300
24007115	7241	495	0	-100	0	230	101300000	1000	0	0	-1	300
24019675	7244	494	0	-100	0	230	101300000	1000	0	0	-1	300
24032235	7257	492	0	-100	0	230	101300000	1000	0	0	-1	300
24044795	7252	491	0	-100	0	230	101300000	1000	0	0	-1	300
24095035	7259	493	0	-100	0	230	101300000	1000	0	0	-1	300
24107595	7250	495	0	-100	0	230	101300000	1000	0	0	-1	300
24120155	7254	497	0	-100	0	230	101300000	1000	0	0	-1	300
24132715	7248	491	0	-100	0	230	101300000	1000	0	0	-1	300
24145275	7252	490	0	-100	0	230	101300000	1000	0	0	-1	300
24157835	7250	490	0	-100	0	230	101300000	1000	0	0	-1	300
24170395	7245	491	0	-100	0	230	101300000	1000	0	0	-1	300
24182955	7257	496	0	-100	0	230	101300000	1000	0	0	-1	300
24195515	7251	498	0	-100	0	230	101300000	1000	0	0	-1	300
24208075	7261	491	0	-100	0	230	101300000	1000	0	0	-1	300
24220635	7244	491	0	-100	0	230	101300000	1000	0	0	-1	300
24233195	7244	496	0	-100	0	230	101300000	1000	0	0	-1	300
24283435	7250	494	0	-100	0	230	101300000	1000	0	0	-1	300
24295995	7247	492	0	-100	0	230	101300000	1000	0	0	-1	300
24308555	7247	496	0	-100	0	230	101300000	1000	0	0	-1	300
24321115	7254	490	0	-100	0	230	101300000	1000	0	0	-1	300
24333675	7252	490	0	-100	0	230	101300000	1000	0	0	-1	300
24346235	7250	491	0	-100	0	230	101300000	1000	0	0	-1	300
24358795	7249	494	0	-100	0	230	101300000	1000	0	0	-1	300
24371355	7250	495	0	-100	0	230	101300000	1000	0	0	-1	300
24383915	7250	497	0	-100	0	230	101300000	1000	0	0	-1	300
24396475	7249	497	0	-100	0	230	101300000	1000	0	0	-1	300
24409035	7247	496	0	-100	0	230	101300000	1000	0	0	-1	300
24421595	7250	495	0	-100	0	230	101300000	1000	0	0	-1	300
24434155	7257	495	0	-100	0	230	101300000	1000	0	0	-1	300
24446715	7251	493	0	-100	0	230	101300000	1000	0	0	-1	300
24459275	7249	494	0	-100	0	230	101300000	1000	0	0	-1	300
24471835	7252	491	0	-100	0	230	101300000	1000	0	0	-1	300
24484395	7257	487	0	-100	0	230	101300000	1000	0	0	-1	300
24496955	7259	492	0	-100	0	230	101300000	1000	0	0	-1	300
24509515	7249	490	0	-100	0	230	101300000	1000	0	0	-1	300
24522075	7256	491	0	-100	0	230	101300000	1000	0	0	-1	300
24534635	7250	495	0	-100	0	230	101300000	1000	0	0	-1	300
24547195	7246	494	0	-100	0	230	101300000	1000	0	0	-1	300
24559755	7236	494	0	-100	0	230	101300000	1000	0	0	-1	300
24572315	7259	498	0	-100	0	230	101300000	1000	0	0	-1	300
24584875	7249	499	0	-100	0	230	101300000	1000	0	0	-1	300
24597435	7257	499	0	-100	0	230	101300000	1000	0	0	-1	300
24609995	7249	492	0	-100	0	230	101300000	1000	0	0	-1	300
24622555	7255	499	0	-100	0	230	101300000	1000	0	0	-1	300
24635115	7251	496	0	-100	0	230	101300000	1000	0	0	-1	300
24647675	7245	494	0	-100	0	230	101300000	1000	0	0	-1	300
24660235	7251	492	0	-100	0	230	101300000	1000	0	0	-1	300
24672795	7256	493	0	-100	0	230	101300000	1000	0	0	-1	300
24685355	7249	492	0	-100	0	230	101300000	1000	0	0	-1	300
24697915	7259	494	0	-100	0	230	101300000	1000	0	0	-1	300
24710475	7256	492	0	-100	0	230	101300000	1000	0	0	-1	300
24723035	7257	491	0	-100	0	230	101300000	1000	0	0	-1	300
24735595	7251	490	0	-100	0	230	101300000	1000	0	0	-1	300
24748155	7264	489	0	-100	0	230	101300000	1000	0	0	-1	300
24760715	7254	493	0	-100	0	230	101300000	1000	0	0	-1	300
24773275	7255	491	0	-100	0	230	101300000	1000	0	0	-1	300
24785835	7255	491	0	-100	0	230	101300000	1000	0	0	-1	300
24798395	7254	488	0	-100	0	230	101300000	1000	0	0	-1	300
24810955	7257	491	0	-100	0	230	101300000	1000	0	0	-1	300
24823515	7255	489	0	-100	0	230	101300000	1000	0	0	-1	300
24836075	7255	492	0	-100	0	230	101300000	1000	0	0	-1	300
24848635	7248	490	0	-100	0	230	101300000	1000	0	0	-1	300
24861195	7248	490	0	-100	0	230	101300000	1000	0	0	-1	300
24873755	7249	491	0	-100	0	230	101300000	1000	0	0	-1	300
24886315	7246	491	0	-100	0	230	101300000	1000	0	0	-1	300
24898875	7252	496	0	-100	0	230	101300000	1000	0	0	-1	300
24911435	7257	497	0	-100	0	230	101300000	1000	0	0	-1	300
24923995	7240	495	0	-100	0	230	101300000	1000	0	0	-1	300
24936555	7266	492	0	-100	0	230	101300000	1000	0	0	-1	300
24949115	7257	490	0	-100	0	230	101300000	1000	0	0	-1	300
24961675	7246	491	0	-100	0	230	101300000	1000	0	0	-1	300
24974235	7255	491	0	-100	0	230	101300000	1000	0	0	-1	300
24986795	7262	498	0	-100	0	230	101300000	1000	0	0	-1	300
24999355	7248	497	0	-100	0	230	101300000	1000	0	0	-1	300
25011915	7243	495	0	-100	0	230	101300000	1000	0	0	-1	300
25024475	7259	489	0	-100	0	230	101300000	1000	0	0	-1	300
25037035	7257	492	0	-100	0	230	101300000	1000	0	0	-1	300
25049595	7254	497	0	-100	0	230	101300000	1000	0	0	-1	300
25062155	7256	498	0	-100	0	230	101300000	1000	0	0	-1	300
25074715	7252	495	0	-100	0	230	101300000	1000	0	0	-1	300
25087275	7250	491	0	-100	0	230	101300000	1000	0	0	-1	300
25099835	7257	492	0	-100	0	230	101300000	1000	0	0	-1	300
25112395	7250	492	0	-100	0	230	101300000	1000	0	0	-1	300
25124955	7248	492	0	-100	0	230	101300000	1000	0	0	-1	300
25137515	7243	500	0	-100	0	230	101300000	1000	0	0	-1	300
25150075	7240	496	0	-100	0	230	101300000	1000	0	0	-1	300
25162635	7249	491	0	-100	0	230	101300000	1000	0	0	-1	300
25175195	7252	489	0	-100	0	230	101300000	1000	0	0	-1	300
25187755	7248	491	0	-100	0	230	101300000	1000	0	0	-1	300
25200315	7245	490	0	-100	0	230	101300000	1000	0	0	-1	300
25212875	7247	495	0	-100	0	230	101300000	1000	0	0	-1	300
25225435	7251	497	0	-100	0	230	101300000	1000	0	0	-1	300
25237995	7252	492	0	-100	0	230	101300000	1000	0	0	-1	300
25250555	7354	486	0	-100	0	230	101300000	1000	0	0	-1	300
25263115	7388	472	0	-100	0	230	101300000	1000	0	0	-1	300
25275675	7419	466	0	-100	0	230	101300000	1000	0	0	-1	300
25288235	7424	462	0	-100	0	230	101300000	1000	0	0	-1	300
25300795	7432	464	0	-100	0	230	101300000	1000	0	0	-1	300
25313355	7425	466	0	-100	0	230	101300000	1000	0	0	-1	300
25325915	7405	466	0	-100	0	230	101300000	1000	0	0	-1	300
25338475	7410	465	0	-100	0	230	101300000	1000	0	0	-1	300
25351035	7410	469	0	-100	0	230	101300000	1000	0	0	-1	300
25363595	7425	467	0	-100	0	230	101300000	1000	0	0	-1	300
25376155	7428	471	0	-100	0	230	101300000	1000	0	0	-1	300
25388715	7415	470	0	-100	0	230	101300000	1000	0	0	-1	300
25401275	7419	471	0	-100	0	230	101300000	1000	0	0	-1	300
25413835	7427	469	0	-100	0	230	101300000	1000	0	0	-1	300
25426395	7427	468	0	-100	0	230	101300000	1000	0	0	-1	300
25438955	7422	468	0	-100	0	230	101300000	1000	0	0	-1	300
25451515	7424	465	0	-100	0	230	101300000	1000	0	0	-1	300
25464075	7420	466	0	-100	0	230	101300000	1000	0	0	-1	300
25476635	7425	461	0	-100	0	230	101300000	1000	0	0	-1	300
25489195	7424	465	0	-100	0	230	101300000	1000	0	0	-1	300
25501755	7426	467	0	-100	0	230	101300000	1000	0	0	-1	300
25514315	7434	465	0	-100	0	230	101300000	1000	0	0	-1	300
25526875	7429	462	0	-100	0	230	101300000	1000	0	0	-1	300
25539435	7422	470	0	-100	0	230	101300000	1000	0	0	-1	300
25551995	7439	471	0	-100	0	230	101300000	1000	0	0	-1	300
25564555	7429	468	0	-100	0	230	101300000	1000	0	0	-1	300
25577115	7417	469	0	-100	0	230	101300000	1000	0	0	-1	300
25589675	7431	463	0	-100	0	230	101300000	1000	0	0	-1	300
25602235	7431	468	0	-100	0	230	101300000	1000	0	0	-1	300
25614795	7435	464	0	-100	0	230	101300000	1000	0	0	-1	300
25627355	7427	462	0	-100	0	230	101300000	1000	0	0	-1	300
25639915	7426	471	0	-100	0	230	101300000	1000	0	0	-1	300
25652475	7427	461	0	-100	0	230	101300000	1000	0	0	-1	300
25665035	7413	466	0	-100	0	230	101300000	1000	0	0	-1	300
25677595	7422	468	0	-100	0	230	101300000	1000	0	0	-1	300
25690155	7436	463	0	-100	0	230	101300000	1000	0	0	-1	300
25702715	7425	469	0	-100	0	230	101300000	1000	0	0	-1	300
25715275	7427	465	0	-100	0	230	101300000	1000	0	0	-1	300
25727835	7418	472	0	-100	0	230	101300000	1000	0	0	-1	300
25740395	7426	461	0	-100	0	230	101300000	1000	0	0	-1	300
25752955	7422	468	0	-100	0	230	101300000	1000	0	0	-1	300
25765515	7429	465	0	-100	0	230	101300000	1000	0	0	-1	300
25778075	7417	468	0	-100	0	230	101300000	1000	0	0	-1	300
25790635	7429	468	0	-100	0	230	101300000	1000	0	0	-1	300
25803195	7432	464	0	-100	0	230	101300000	1000	0	0	-1	300
25815755	7426	471	0	-100	0	230	101300000	1000	0	0	-1	300
25828315	7420	463	0	-100	0	230	101300000	1000	0	0	-1	300
25840875	7426	469	0	-100	0	230	101300000	1000	0	0	-1	300
25853435	7426	468	0	-100	0	230	101300000	1000	0	0	-1	300
25865995	7434	472	0	-100	0	230	101300000	1000	0	0	-1	300
25878555	7431	472	0	-100	0	230	101300000	1000	0	0	-1	300
25891115	7441	464	0	-100	0	230	101300000	1000	0	0	-1	300
25903675	7429	470	0	-100	0	230	101300000	1000	0	0	-1	300
25916235	7436	464	0	-100	0	230	101300000	1000	0	0	-1	300
25928795	7431	468	0	-100	0	230	101300000	1000	0	0	-1	300
25941355	7425	466	0	-100	0	230	101300000	1000	0	0	-1	300
25953915	7435	466	0	-100	0	230	101300000	1000	0	0	-1	300
25966475	7428	471	0	-100	0	230	101300000	1000	0	0	-1	300
25979035	7423	465	0	-100	0	230	101300000	1000	0	0	-1	300
25991595	7431	469	0	-100	0	230	101300000	1000	0	0	-1	300
26004155	7425	463	0	-100	0	230	101300000	1000	0	0	-1	300
26016715	7425	466	0	-100	0	230	101300000	1000	0	0	-1	300
26029275	7415	469	0	-100	0	230	101300000	1000	0	0	-1	300
26041835	7427	466	0	-100	0	230	101300000	1000	0	0	-1	300
26054395	7429	473	0	-100	0	230	101300000	1000	0	0	-1	300
26066955	7436	461	0	-100	0	230	101300000	1000	0	0	-1	300
26079515	7432	472	0	-100	0	230	101300000	1000	0	0	-1	300
26092075	7436	466	0	-100	0	230	101300000	1000	0	0	-1	300
26104635	7426	471	0	-100	0	230	101300000	1000	0	0	-1	300
26117195	7434	466	0	-100	0	230	101300000	1000	0	0	-1	300
26129755	7419	472	0	-100	0	230	101300000	1000	0	0	-1	300
26142315	7407	466	0	-100	0	230	101300000	1000	0	0	-1	300
26154875	7418	469	0	-100	0	230	101300000	1000	0	0	-1	300
26167435	7426	465	0	-100	0	230	101300000	1000	0	0	-1	300
26179995	7438	466	0	-100	0	230	101300000	1000	0	0	-1	300
26192555	7431	470	0	-100	0	230	101300000	1000	0	0	-1	300
26205115	7434	465	0	-100	0	230	101300000	1000	0	0	-1	300
26217675	7425	469	0	-100	0	230	101300000	1000	0	0	-1	300
26230235	7422	470	0	-100	0	230	101300000	1000	0	0	-1	300
26242795	7431	466	0	-100	0	230	101300000	1000	0	0	-1	300
26255355	7426	465	0	-100	0	230	101300000	1000	0	0	-1	300
26267915	7411	469	0	-100	0	230	101300000	1000	0	0	-1	300
26280475	7437	463	0	-100	0	230	101300000	1000	0	0	-1	300
26293035	7427	471	0	-100	0	230	101300000	1000	0	0	-1	300
26305595	7429	464	0	-100	0	230	101300000	1000	0	0	-1	300
26318155	7433	463	0	-100	0	230	101300000	1000	0	0	-1	300
26330715	7422	471	0	-100	0	230	101300000	1000	0	0	-1	300
26343275	7432	463	0	-100	0	230	101300000	1000	0	0	-1	300
26355835	7438	473	0	-100	0	230	101300000	1000	0	0	-1	300
26368395	7426	465	0	-100	0	230	101300000	1000	0	0	-1	300
26380955	7428	464	0	-100	0	230	101300000	1000	0	0	-1	300
26393515	7426	471	0	-100	0	230	101300000	1000	0	0	-1	300
26406075	7434	464	0	-100	0	230	101300000	1000	0	0	-1	300
26418635	7422	464	0	-100	0	230	101300000	1000	0	0	-1	300
26431195	7421	470	0	-100	0	230	101300000	1000	0	0	-1	300
26443755	7426	462	0	-100	0	230	101300000	1000	0	0	-1	300
26456315	7429	469	0	-100	0	230	101300000	1000	0	0	-1	300
26468875	7418	468	0	-100	0	230	101300000	1000	0	0	-1	300
26481435	7434	464	0	-100	0	230	101300000	1000	0	0	-1	300
26493995	7424	464	0	-100	0	230	101300000	1000	0	0	-1	300
26506555	7426	472	0	-100	0	230	101300000	1000	0	0	-1	300
26519115	7425	466	0	-100	0	230	101300000	1000	0	0	-1	300
26531675	7416	469	0	-100	0	230	101300000	1000	0	0	-1	300
26544235	7421	468	0	-100	0	230	101300000	1000	0	0	-1	300
26556795	7282	482	0	-100	0	230	101300000	1000	0	0	-1	300
26569355	7277	485	0	-100	0	230	101300000	1000	0	0	-1	300
26581915	7249	492	0	-100	0	230	101300000	1000	0	0	-1	300
26594475	7259	488	0	-100	0	230	101300000	1000	0	0	-1	300
26607035	7246	493	0	-100	0	230	101300000	1000	0	0	-1	300
26619595	7241	500	0	-100	0	230	101300000	1000	0	0	-1	300
26632155	7261	493	0	-100	0	230	101300000	1000	0	0	-1	300
26644715	7256	491	0	-100	0	230	101300000	1000	0	0	-1	300
26657275	7247	491	0	-100	0	230	101300000	1000	0	0	-1	300
26669835	7244	494	0	-100	0	230	101300000	1000	0	0	-1	300
26682395	7256	498	0	-100	0	230	101300000	1000	0	0	-1	300
26694955	7256	491	0	-100	0	230	101300000	1000	0	0	-1	300
26707515	7255	490	0	-100	0	230	101300000	1000	0	0	-1	300
26720075	7252	499	0	-100	0	230	101300000	1000	0	0	-1	300
26732635	7259	492	0	-100	0	230	101300000	1000	0	0	-1	300
26745195	7255	490	0	-100	0	230	101300000	1000	0	0	-1	300
26757755	7250	491	0	-100	0	230	101300000	1000	0	0	-1	300
26770315	7245	495	0	-100	0	230	101300000	1000	0	0	-1	300
26782875	7254	497	0	-100	0	230	101300000	1000	0	0	-1	300
26795435	7245	498	0	-100	0	230	101300000	1000	0	0	-1	300
26807995	7261	500	0	-100	0	230	101300000	1000	0	0	-1	300
26820555	7255	490	0	-100	0	230	101300000	1000	0	0	-1	300
26833115	7257	491	0	-100	0	230	101300000	1000	0	0	-1	300
26845675	7259	497	0	-100	0	230	101300000	1000	0	0	-1	300
26858235	7253	488	0	-100	0	230	101300000	1000	0	0	-1	300
26870795	7260	491	0	-100	0	230	101300000	1000	0	0	-1	300
26883355	7251	498	0	-100	0	230	101300000	1000	0	0	-1	300
26895915	7252	496	0	-100	0	230	101300000	1000	0	0	-1	300
26908475	7260	491	0	-100	0	230	101300000	1000	0	0	-1	300
26921035	7246	490	0	-100	0	230	101300000	1000	0	0	-1	300
26933595	7255	491	0	-100	0	230	101300000	1000	0	0	-1	300
26946155	7261	496	0	-100	0	230	101300000	1000	0	0	-1	300
26958715	7256	495	0	-100	0	230	101300000	1000	0	0	-1	300
26971275	7258	490	0	-100	0	230	101300000	1000	0	0	-1	300
26983835	7252	490	0	-100	0	230	101300000	1000	0	0	-1	300
26996395	7245	496	0	-100	0	230	101300000	1000	0	0	-1	300
27008955	7245	496	0	-100	0	230	101300000	1000	0	0	-1	300
27021515	7249	493	0	-100	0	230	101300000	1000	0	0	-1	300
27034075	7248	492	0	-100	0	230	101300000	1000	0	0	-1	300
27046635	7249	498	0	-100	0	230	101300000	1000	0	0	-1	300
27059195	7254	496	0	-100	0	230	101300000	1000	0	0	-1	300
27071755	7258	491	0	-100	0	230	101300000	1000	0	0	-1	300
27084315	7255	493	0	-100	0	230	101300000	1000	0	0	-1	300
27096875	7244	497	0	-100	0	230	101300000	1000	0	0	-1	300
27109435	7259	492	0	-100	0	230	101300000	1000	0	0	-1	300
27121995	7259	496	0	-100	0	230	101300000	1000	0	0	-1	300
27184795	7250	499	0	-100	0	230	101300000	1000	0	0	-1	300
27197355	7247	495	0	-100	0	230	101300000	1000	0	0	-1	300
27209915	7255	492	0	-100	0	230	101300000	1000	0	0	-1	300
27222475	7252	494	0	-100	0	230	101300000	1000	0	0	-1	300
27235035	7252	499	0	-100	0	230	101300000	1000	0	0	-1	300
27247595	7263	491	0	-100	0	230	101300000	1000	0	0	-1	300
27260155	7269	489	0	-100	0	230	101300000	1000	0	0	-1	300
27272715	7261	498	0	-100	0	230	101300000	1000	0	0	-1	300
27285275	7255	488	0	-100	0	230	101300000	1000	0	0	-1	300
27297835	7237	495	0	-100	0	230	101300000	1000	0	0	-1	300
27310395	7252	494	0	-100	0	230	101300000	1000	0	0	-1	300
27373195	7248	492	0	-100	0	230	101300000	1000	0	0	-1	300
27385755	7258	498	0	-100	0	230	101300000	1000	0	0	-1	300
27398315	7253	492	0	-100	0	230	101300000	1000	0	0	-1	300
27410875	7255	491	0	-100	0	230	101300000	1000	0	0	-1	300
27423435	7257	500	0	-100	0	230	101300000	1000	0	0	-1	300
27435995	7251	497	0	-100	0	230	101300000	1000	0	0	-1	300
27448555	7246	495	0	-100	0	230	101300000	1000	0	0	-1	300
27461115	7261	490	0	-100	0	230	101300000	1000	0	0	-1	300
27473675	7246	493	0	-100	0	230	101300000	1000	0	0	-1	300
27486235	7255	500	0	-100	0	230	101300000	1000	0	0	-1	300
27498795	7257	495	0	-100	0	230	101300000	1000	0	0	-1	300
27511355	7255	491	0	-100	0	230	101300000	1000	0	0	-1	300
27523915	7253	491	0	-100	0	230	101300000	1000	0	0	-1	300
27536475	7247	498	0	-100	0	230	101300000	1000	0	0	-1	300
27549035	7251	490	0	-100	0	230	101300000	1000	0	0	-1	300
27561595	7249	494	0	-100	0	230	101300000	1000	0	0	-1	300
27574155	7254	497	0	-100	0	230	101300000	1000	0	0	-1	300
27586715	7255	489	0	-100	0	230	101300000	1000	0	0	-1	300
27599275	7238	494	0	-100	0	230	101300000	1000	0	0	-1	300
27611835	7249	495	0	-100	0	230	101300000	1000	0	0	-1	300
27624395	7262	490	0	-100	0	230	101300000	1000	0	0	-1	300
27636955	7248	492	0	-100	0	230	101300000	1000	0	0	-1	300
27649515	7254	499	0	-100	0	230	101300000	1000	0	0	-1	300
27662075	7260	495	0	-100	0	230	101300000	1000	0	0	-1	300
27674635	7246	489	0	-100	0	230	101300000	1000	0	0	-1	300
27687195	7257	492	0	-100	0	230	101300000	1000	0	0	-1	300
27699755	7249	497	0	-100	0	230	101300000	1000	0	0	-1	300
27712315	7251	498	0	-100	0	230	101300000	1000	0	0	-1	300
27724875	7247	495	0	-100	0	230	101300000	1000	0	0	-1	300
27737435	7262	492	0	-100	0	230	101300000	1000	0	0	-1	300
27749995	7252	497	0	-100	0	230	101300000	1000	0	0	-1	300
27762555	7248	494	0	-100	0	230	101300000	1000	0	0	-1	300
27775115	7250	499	0	-100	0	230	101300000	1000	0	0	-1	300
27787675	7257	494	0	-100	0	230	101300000	1000	0	0	-1	300
27800235	7242	492	0	-100	0	230	101300000	1000	0	0	-1	300
27812795	7251	497	0	-100	0	230	101300000	1000	0	0	-1	300
27825355	7266	493	0	-100	0	230	101300000	1000	0	0	-1	300
27837915	7259	490	0	-100	0	230	101300000	1000	0	0	-1	300
27850475	7260	495	0	-100	0	230	101300000	1000	0	0	-1	300
27863035	7252	498	0	-100	0	230	101300000	1000	0	0	-1	300
27875595	7252	488	0	-100	0	230	101300000	1000	0	0	-1	300
27888155	7255	491	0	-100	0	230	101300000	1000	0	0	-1	300
27900715	7253	497	0	-100	0	230	101300000	1000	0	0	-1	300
27913275	7254	491	0	-100	0	230	101300000	1000	0	0	-1	300
27925835	7247	490	0	-100	0	230	101300000	1000	0	0	-1	300
27938395	7255	496	0	-100	0	230	101300000	1000	0	0	-1	300
27950955	7254	492	0	-100	0	230	101300000	1000	0	0	-1	300
27963515	7259	489	0	-100	0	230	101300000	1000	0	0	-1	300
27976075	7244	496	0	-100	0	230	101300000	1000	0	0	-1	300
27988635	7250	492	0	-100	0	230	101300000	1000	0	0	-1	300
28001195	7262	491	0	-100	0	230	101300000	1000	0	0	-1	300
28013755	7264	497	0	-100	0	230	101300000	1000	0	0	-1	300
28026315	7264	491	0	-100	0	230	101300000	1000	0	0	-1	300
28038875	7254	493	0	-100	0	230	101300000	1000	0	0	-1	300
28051435	7246	498	0	-100	0	230	101300000	1000	0	0	-1	300
28063995	7264	501	0	-100	0	230	101300000	1000	0	0	-1	300
28076555	7253	490	0	-100	0	230	101300000	1000	0	0	-1	300
28089115	7245	495	0	-100	0	230	101300000	1000	0	0	-1	300
28101675	7256	496	0	-100	0	230	101300000	1000	0	0	-1	300
28114235	7255	491	0	-100	0	230	101300000	1000	0	0	-1	300
28126795	7257	499	0	-100	0	230	101300000	1000	0	0	-1	300
28139355	7269	492	0	-100	0	230	101300000	1000	0	0	-1	300
28151915	7255	491	0	-100	0	230	101300000	1000	0	0	-1	300
28164475	7254	498	0	-100	0	230	101300000	1000	0	0	-1	300
28177035	7261	493	0	-100	0	230	101300000	1000	0	0	-1	300
28189595	7266	492	0	-100	0	230	101300000	1000	0	0	-1	300
28202155	7261	497	0	-100	0	230	101300000	1000	0	0	-1	300
28214715	7257	491	0	-100	0	230	101300000	1000	0	0	-1	300
28227275	7254	491	0	-100	0	230	101300000	1000	0	0	-1	300
28239835	7269	492	0	-100	0	230	101300000	1000	0	0	-1	300
28252395	7259	497	0	-100	0	230	101300000	1000	0	0	-1	300
28264955	7249	497	0	-100	0	230	101300000	1000	0	0	-1	300
28277515	7243	492	0	-100	0	230	101300000	1000	0	0	-1	300
28290075	7253	489	0	-100	0	230	101300000	1000	0	0	-1	300
28302635	7241	497	0	-100	0	230	101300000	1000	0	0	-1	300
28315195	7250	499	0	-100	0	230	101300000	1000	0	0	-1	300
28327755	7260	487	0	-100	0	230	101300000	1000	0	0	-1	300
28340315	7259	494	0	-100	0	230	101300000	1000	0	0	-1	300
28352875	7248	498	0	-100	0	230	101300000	1000	0	0	-1	300
28365435	7259	489	0	-100	0	230	101300000	1000	0	0	-1	300
28377995	7255	497	0	-100	0	230	101300000	1000	0	0	-1	300
28390555	7240	496	0	-100	0	230	101300000	1000	0	0	-1	300
28403115	7254	496	0	-100	0	230	101300000	1000	0	0	-1	300
28415675	7257	492	0	-100	0	230	101300000	1000	0	0	-1	300
28428235	7255	491	0	-100	0	230	101300000	1000	0	0	-1	300
28440795	7254	492	0	-100	0	230	101300000	1000	0	0	-1	300
28453355	7261	498	0	-100	0	230	101300000	1000	0	0	-1	300
28465915	7249	494	0	-100	0	230	101300000	1000	0	0	-1	300
28478475	7262	489	0	-100	0	230	101300000	1000	0	0	-1	300
28491035	7248	491	0	-100	0	230	101300000	1000	0	0	-1	300
28503595	7261	499	0	-100	0	230	101300000	1000	0	0	-1	300
28516155	7258	496	0	-100	0	230	101300000	1000	0	0	-1	300
28528715	7254	491	0	-100	0	230	101300000	1000	0	0	-1	300
28541275	7254	492	0	-100	0	230	101300000	1000	0	0	-1	300
28553835	7249	492	0	-100	0	230	101300000	1000	0	0	-1	300
28566395	7254	498	0	-100	0	230	101300000	1000	0	0	-1	300
28578955	7247	497	0	-100	0	230	101300000	1000	0	0	-1	300
28591515	7252	494	0	-100	0	230	101300000	1000	0	0	-1	300
28604075	7256	493	0	-100	0	230	101300000	1000	0	0	-1	300
28616635	7257	490	0	-100	0	230	101300000	1000	0	0	-1	300
28629195	7260	492	0	-100	0	230	101300000	1000	0	0	-1	300
28641755	7264	492	0	-100	0	230	101300000	1000	0	0	-1	300
28654315	7260	498	0	-100	0	230	101300000	1000	0	0	-1	300
28666875	7252	498	0	-100	0	230	101300000	1000	0	0	-1	300
28679435	7262	491	0	-100	0	230	101300000	1000	0	0	-1	300
28691995	7262	497	0	-100	0	230	101300000	1000	0	0	-1	300
28704555	7250	491	0	-100	0	230	101300000	1000	0	0	-1	300
28717115	7241	496	0	-100	0	230	101300000	1000	0	0	-1	300
28729675	7254	497	0	-100	0	230	101300000	1000	0	0	-1	300
28742235	7255	497	0	-100	0	230	101300000	1000	0	0	-1	300
28754795	7254	493	0	-100	0	230	101300000	1000	0	0	-1	300
28767355	7262	491	0	-100	0	230	101300000	1000	0	0	-1	300
28779915	7247	492	0	-100	0	230	101300000	1000	0	0	-1	300
28792475	7251	499	0	-100	0	230	101300000	1000	0	0	-1	300
28805035	7251	497	0	-100	0	230	101300000	1000	0	0	-1	300
28817595	7259	492	0	-100	0	230	101300000	1000	0	0	-1	300
28830155	7275	492	0	-100	0	230	101300000	1000	0	0	-1	300
28842715	7261	490	0	-100	0	230	101300000	1000	0	0	-1	300
28855275	7257	492	0	-100	0	230	101300000	1000	0	0	-1	300
28867835	7259	490	0	-100	0	230	101300000	1000	0	0	-1	300
28880395	7256	491	0	-100	0	230	101300000	1000	0	0	-1	300
28892955	7252	489	0	-100	0	230	101300000	1000	0	0	-1	300
28905515	7247	494	0	-100	0	230	101300000	1000	0	0	-1	300
28918075	7249	498	0	-100	0	230	101300000	1000	0	0	-1	300
28930635	7255	496	0	-100	0	230	101300000	1000	0	0	-1	300
28943195	7252	495	0	-100	0	230	101300000	1000	0	0	-1	300
28955755	7257	493	0	-100	0	230	101300000	1000	0	0	-1	300
28968315	7245	494	0	-100	0	230	101300000	1000	0	0	-1	300
28980875	7252	490	0	-100	0	230	101300000	1000	0	0	-1	300
28993435	7257	490	0	-100	0	230	101300000	1000	0	0	-1	300
29005995	7256	496	0	-100	0	230	101300000	1000	0	0	-1	300
29018555	7259	492	0	-100	0	230	101300000	1000	0	0	-1	300
29031115	7248	494	0	-100	0	230	101300000	1000	0	0	-1	300
29043675	7259	498	0	-100	0	230	101300000	1000	0	0	-1	300
29056235	7258	496	0	-100	0	230	101300000	1000	0	0	-1	300
29068795	7256	492	0	-100	0	230	101300000	1000	0	0	-1	300
29081355	7257	491	0	-100	0	230	101300000	1000	0	0	-1	300
29093915	7262	489	0	-100	0	230	101300000	1000	0	0	-1	300
29106475	7250	495	0	-100	0	230	101300000	1000	0	0	-1	300
29119035	7256	496	0	-100	0	230	101300000	1000	0	0	-1	300
29131595	7248	490	0	-100	0	230	101300000	1000	0	0	-1	300
29144155	7259	488	0	-100	0	230	101300000	1000	0	0	-1	300
29156715	7245	499	0	-100	0	230	101300000	1000	0	0	-1	300
29169275	7254	495	0	-100	0	230	101300000	1000	0	0	-1	300
29181835	7255	490	0	-100	0	230	101300000	1000	0	0	-1	300
29194395	7250	492	0	-100	0	230	101300000	1000	0	0	-1	300
29206955	7249	497	0	-100	0	230	101300000	1000	0	0	-1	300
29219515	7248	496	0	-100	0	230	101300000	1000	0	0	-1	300
29232075	7257	490	0	-100	0	230	101300000	1000	0	0	-1	300
29244635	7259	489	0	-100	0	230	101300000	1000	0	0	-1	300
29257195	7252	492	0	-100	0	230	101300000	1000	0	0	-1	300
29269755	7258	498	0	-100	0	230	101300000	1000	0	0	-1	300
29282315	7261	496	0	-100	0	230	101300000	1000	0	0	-1	300
29294875	7258	495	0	-100	0	230	101300000	1000	0	0	-1	300
29307435	7248	490	0	-100	0	230	101300000	1000	0	0	-1	300
29319995	7257	492	0	-100	0	230	101300000	1000	0	0	-1	300
29332555	7256	498	0	-100	0	230	101300000	1000	0	0	-1	300
29345115	7251	492	0	-100	0	230	101300000	1000	0	0	-1	300
29357675	7259	492	0	-100	0	230	101300000	1000	0	0	-1	300
29370235	7249	494	0	-100	0	230	101300000	1000	0	0	-1	300
29382795	7257	497	0	-100	0	230	101300000	1000	0	0	-1	300
29395355	7250	493	0	-100	0	230	101300000	1000	0	0	-1	300
29407915	7244	488	0	-100	0	230	101300000	1000	0	0	-1	300
29420475	7256	490	0	-100	0	230	101300000	1000	0	0	-1	300
29433035	7254	497	0	-100	0	230	101300000	1000	0	0	-1	300
29445595	7249	499	0	-100	0	230	101300000	1000	0	0	-1	300
29458155	7272	490	0	-100	0	230	101300000	1000	0	0	-1	300
29470715	7259	492	0	-100	0	230	101300000	1000	0	0	-1	300
29483275	7257	490	0	-100	0	230	101300000	1000	0	0	-1	300
29495835	7254	497	0	-100	0	230	101300000	1000	0	0	-1	300
29508395	7259	498	0	-100	0	230	101300000	1000	0	0	-1	300
29520955	7255	489	0	-100	0	230	101300000	1000	0	0	-1	300
29533515	7249	492	0	-100	0	230	101300000	1000	0	0	-1	300
29546075	7261	499	0	-100	0	230	101300000	1000	0	0	-1	300
29558635	7266	492	0	-100	0	230	101300000	1000	0	0	-1	300
29571195	7262	492	0	-100	0	230	101300000	1000	0	0	-1	300
29583755	7253	495	0	-100	0	230	101300000	1000	0	0	-1	300
29596315	7247	496	0	-100	0	230	101300000	1000	0	0	-1	300
29608875	7255	490	0	-100	0	230	101300000	1000	0	0	-1	300
29621435	7250	493	0	-100	0	230	101300000	1000	0	0	-1	300
29633995	7245	492	0	-100	0	230	101300000	1000	0	0	-1	300
29646555	7262	492	0	-100	0	230	101300000	1000	0	0	-1	300
29659115	7255	489	0	-100	0	230	101300000	1000	0	0	-1	300
29671675	7256	496	0	-100	0	230	101300000	1000	0	0	-1	300
29684235	7256	497	0	-100	0	230	101300000	1000	0	0	-1	300
29696795	7259	491	0	-100	0	230	101300000	1000	0	0	-1	300
29709355	7248	490	0	-100	0	230	101300000	1000	0	0	-1	300
29721915	7257	492	0	-100	0	230	101300000	1000	0	0	-1	300
29734475	7259	499	0	-100	0	230	101300000	1000	0	0	-1	300
29747035	7254	492	0	-100	0	230	101300000	1000	0	0	-1	300
29759595	7262	492	0	-100	0	230	101300000	1000	0	0	-1	300
29772155	7264	492	0	-100	0	230	101300000	1000	0	0	-1	300
29784715	7257	498	0	-100	0	230	101300000	1000	0	0	-1	300
29797275	7252	496	0	-100	0	230	101300000	1000	0	0	-1	300
29809835	7259	489	0	-100	0	230	101300000	1000	0	0	-1	300
29822395	7262	491	0	-100	0	230	101300000	1000	0	0	-1	300
29834955	7261	500	0	-100	0	230	101300000	1000	0	0	-1	300
29847515	7261	492	0	-100	0	230	101300000	1000	0	0	-1	300
29860075	7257	490	0	-100	0	230	101300000	1000	0	0	-1	300
29872635	7260	494	0	-100	0	230	101300000	1000	0	0	-1	300
29885195	7249	496	0	-100	0	230	101300000	1000	0	0	-1	300
29897755	7266	492	0	-100	0	230	101300000	1000	0	0	-1	300
29910315	7257	490	0	-100	0	230	101300000	1000	0	0	-1	300
29922875	7259	496	0	-100	0	230	101300000	1000	0	0	-1	300
29935435	7256	499	0	-100	0	230	101300000	1000	0	0	-1	300
29947995	7252	496	0	-100	0	230	101300000	1000	0	0	-1	300
29960555	7257	491	0	-100	0	230	101300000	1000	0	0	-1	300
29973115	7247	495	0	-100	0	230	101300000	1000	0	0	-1	300
29985675	7253	499	0	-100	0	230	101300000	1000	0	0	-1	300
29998235	7257	491	0	-100	0	230	101300000	1000	0	0	-1	300
30010795	7260	492	0	-100	0	230	101300000	1000	0	0	-1	300
30023355	7262	490	0	-100	0	230	101300000	1000	0	0	-1	300
30035915	7252	494	0	-100	0	230	101300000	1000	0	0	-1	300
30073595	7257	495	0	-100	0	230	101300000	1000	0	0	-1	300
30086155	7261	492	0	-100	0	230	101300000	1000	0	0	-1	300
30098715	7259	489	0	-100	0	230	101300000	1000	0	0	-1	300
30111275	7249	494	0	-100	0	230	101300000	1000	0	0	-1	300
30123835	7254	497	0	-100	0	230	101300000	1000	0	0	-1	300
30136395	7249	496	0	-100	0	230	101300000	1000	0	0	-1	300
30148955	7264	491	0	-100	0	230	101300000	1000	0	0	-1	300
30161515	7253	490	0	-100	0	230	101300000	1000	0	0	-1	300
30174075	7248	494	0	-100	0	230	101300000	1000	0	0	-1	300
30186635	7245	495	0	-100	0	230	101300000	1000	0	0	-1	300
30199195	7257	492	0	-100	0	230	101300000	1000	0	0	-1	300
30274555	7254	492	0	-100	0	230	101300000	1000	0	0	-1	300
30287115	7253	491	0	-100	0	230	101300000	1000	0	0	-1	300
30299675	7259	495	0	-100	0	230	101300000	1000	0	0	-1	300
30312235	7258	497	0	-100	0	230	101300000	1000	0	0	-1	300
30324795	7260	491	0	-100	0	230	101300000	1000	0	0	-1	300
30337355	7257	491	0	-100	0	230	101300000	1000	0	0	-1	300
30349915	7250	495	0	-100	0	230	101300000	1000	0	0	-1	300
30362475	7251	497	0	-100	0	230	101300000	1000	0	0	-1	300
30375035	7256	493	0	-100	0	230	101300000	1000	0	0	-1	300
30387595	7259	492	0	-100	0	230	101300000	1000	0	0	-1	300
30400155	7253	494	0	-100	0	230	101300000	1000	0	0	-1	300
30412715	7264	500	0	-100	0	230	101300000	1000	0	0	-1	300
30425275	7254	492	0	-100	0	230	101300000	1000	0	0	-1	300
30437835	7258	491	0	-100	0	230	101300000	1000	0	0	-1	300
30450395	7254	496	0	-100	0	230	101300000	1000	0	0	-1	300
30462955	7255	498	0	-100	0	230	101300000	1000	0	0	-1	300
30475515	7266	495	0	-100	0	230	101300000	1000	0	0	-1	300
30488075	7257	493	0	-100	0	230	101300000	1000	0	0	-1	300
30500635	7252	487	0	-100	0	230	101300000	1000	0	0	-1	300
30513195	7262	491	0	-100	0	230	101300000	1000	0	0	-1	300
30525755	7259	498	0	-100	0	230	101300000	1000	0	0	-1	300
30538315	7255	496	0	-100	0	230	101300000	1000	0	0	-1	300
30550875	7260	487	0	-100	0	230	101300000	1000	0	0	-1	300
30563435	7259	492	0	-100	0	230	101300000	1000	0	0	-1	300
30575995	7256	492	0	-100	0	230	101300000	1000	0	0	-1	300
30588555	7255	492	0	-100	0	230	101300000	1000	0	0	-1	300
30601115	7247	492	0	-100	0	230	101300000	1000	0	0	-1	300
30613675	7252	496	0	-100	0	230	101300000	1000	0	0	-1	300
30626235	7252	497	0	-100	0	230	101300000	1000	0	0	-1	300
30638795	7262	491	0	-100	0	230	101300000	1000	0	0	-1	300
30651355	7259	492	0	-100	0	230	101300000	1000	0	0	-1	300
30663915	7261	499	0	-100	0	230	101300000	1000	0	0	-1	300
30676475	7253	496	0	-100	0	230	101300000	1000	0	0	-1	300
30689035	7253	489	0	-100	0	230	101300000	1000	0	0	-1	300
30701595	7262	493	0	-100	0	230	101300000	1000	0	0	-1	300
30714155	7269	500	0	-100	0	230	101300000	1000	0	0	-1	300
30726715	7255	497	0	-100	0	230	101300000	1000	0	0	-1	300
30739275	7252	492	0	-100	0	230	101300000	1000	0	0	-1	300
30751835	7258	491	0	-100	0	230	101300000	1000	0	0	-1	300
30764395	7260	489	0	-100	0	230	101300000	1000	0	0	-1	300
30776955	7264	492	0	-100	0	230	101300000	1000	0	0	-1	300
30789515	7260	495	0	-100	0	230	101300000	1000	0	0	-1	300
30802075	7265	497	0	-100	0	230	101300000	1000	0	0	-1	300
30814635	7259	494	0	-100	0	230	101300000	1000	0	0	-1	300
30827195	7266	493	0	-100	0	230	101300000	1000	0	0	-1	300
30839755	7253	490	0	-100	0	230	101300000	1000	0	0	-1	300
30852315	7260	496	0	-100	0	230	101300000	1000	0	0	-1	300
30864875	7245	499	0	-100	0	230	101300000	1000	0	0	-1	300
30877435	7256	495	0	-100	0	230	101300000	1000	0	0	-1	300
30889995	7257	496	0	-100	0	230	101300000	1000	0	0	-1	300
30902555	7254	497	0	-100	0	230	101300000	1000	0	0	-1	300
30915115	7252	496	0	-100	0	230	101300000	1000	0	0	-1	300
30927675	7262	492	0	-100	0	230	101300000	1000	0	0	-1	300
30940235	7266	490	0	-100	0	230	101300000	1000	0	0	-1	300
30952795	7255	495	0	-100	0	230	101300000	1000	0	0	-1	300
30965355	7255	496	0	-100	0	230	101300000	1000	0	0	-1	300
30977915	7259	492	0	-100	0	230	101300000	1000	0	0	-1	300
30990475	7247	492	0	-100	0	230	101300000	1000	0	0	-1	300
31003035	7259	498	0	-100	0	230	101300000	1000	0	0	-1	300
31015595	7262	489	0	-100	0	230	101300000	1000	0	0	-1	300
31028155	7262	494	0	-100	0	230	101300000	1000	0	0	-1	300
31040715	7254	494	0	-100	0	230	101300000	1000	0	0	-1	300
31053275	7258	491	0	-100	0	230	101300000	1000	0	0	-1	300
31065835	7257	497	0	-100	0	230	101300000	1000	0	0	-1	300
31078395	7256	492	0	-100	0	230	101300000	1000	0	0	-1	300
31090955	7257	491	0	-100	0	230	101300000	1000	0	0	-1	300
31103515	7268	496	0	-100	0	230	101300000	1000	0	0	-1	300
31116075	7254	497	0	-100	0	230	101300000	1000	0	0	-1	300
31128635	7263	493	0	-100	0	230	101300000	1000	0	0	-1	300
31141195	7260	487	0	-100	0	230	101300000	1000	0	0	-1	300
31153755	7247	491	0	-100	0	230	101300000	1000	0	0	-1	300
31166315	7261	499	0	-100	0	230	101300000	1000	0	0	-1	300
31178875	7254	496	0	-100	0	230	101300000	1000	0	0	-1	300
31191435	7258	493	0	-100	0	230	101300000	1000	0	0	-1	300
31203995	7260	495	0	-100	0	230	101300000	1000	0	0	-1	300
31216555	7252	494	0	-100	0	230	101300000	1000	0	0	-1	300
31229115	7247	499	0	-100	0	230	101300000	1000	0	0	-1	300
31241675	7262	493	0	-100	0	230	101300000	1000	0	0	-1	300
31254235	7259	491	0	-100	0	230	101300000	1000	0	0	-1	300
31266795	7251	494	0	-100	0	230	101300000	1000	0	0	-1	300
31279355	7256	499	0	-100	0	230	101300000	1000	0	0	-1	300
31291915	7260	491	0	-100	0	230	101300000	1000	0	0	-1	300
31304475	7265	492	0	-100	0	230	101300000	1000	0	0	-1	300
31317035	7255	493	0	-100	0	230	101300000	1000	0	0	-1	300
31329595	7258	497	0	-100	0	230	101300000	1000	0	0	-1	300
31342155	7270	494	0	-100	0	230	101300000	1000	0	0	-1	300
31354715	7266	491	0	-100	0	230	101300000	1000	0	0	-1	300
31367275	7252	493	0	-100	0	230	101300000	1000	0	0	-1	300
31379835	7261	494	0	-100	0	230	101300000	1000	0	0	-1	300
31392395	7258	493	0	-100	0	230	101300000	1000	0	0	-1	300
31404955	7253	495	0	-100	0	230	101300000	1000	0	0	-1	300
31417515	7250	498	0	-100	0	230	101300000	1000	0	0	-1	300
31430075	7261	492	0	-100	0	230	101300000	1000	0	0	-1	300
31442635	7271	490	0	-100	0	230	101300000	1000	0	0	-1	300
31455195	7250	489	0	-100	0	230	101300000	1000	0	0	-1	300
31467755	7255	494	0	-100	0	230	101300000	1000	0	0	-1	300
31480315	7252	496	0	-100	0	230	101300000	1000	0	0	-1	300
31492875	7252	495	0	-100	0	230	101300000	1000	0	0	-1	300
31505435	7256	491	0	-100	0	230	101300000	1000	0	0	-1	300
31517995	7255	495	0	-100	0	230	101300000	1000	0	0	-1	300
31530555	7251	493	0	-100	0	230	101300000	1000	0	0	-1	300
31543115	7257	499	0	-100	0	230	101300000	1000	0	0	-1	300
31555675	7249	497	0	-100	0	230	101300000	1000	0	0	-1	300
31568235	7251	494	0	-100	0	230	101300000	1000	0	0	-1	300
31580795	7259	492	0	-100	0	230	101300000	1000	0	0	-1	300
31593355	7256	492	0	-100	0	230	101300000	1000	0	0	-1	300
31605915	7257	491	0	-100	0	230	101300000	1000	0	0	-1	300
31618475	7250	497	0	-100	0	230	101300000	1000	0	0	-1	300
31631035	7252	500	0	-100	0	230	101300000	1000	0	0	-1	300
31643595	7249	494	0	-100	0	230	101300000	1000	0	0	-1	300
31656155	7278	492	0	-100	0	230	101300000	1000	0	0	-1	300
31668715	7258	489	0	-100	0	230	101300000	1000	0	0	-1	300
31681275	7254	492	0	-100	0	230	101300000	1000	0	0	-1	300
31693835	7257	491	0	-100	0	230	101300000	1000	0	0	-1	300
31706395	7252	495	0	-100	0	230	101300000	1000	0	0	-1	300
31718955	7252	496	0	-100	0	230	101300000	1000	0	0	-1	300
31731515	7250	490	0	-100	0	230	101300000	1000	0	0	-1	300
31744075	7255	491	0	-100	0	230	101300000	1000	0	0	-1	300
31756635	7268	497	0	-100	0	230	101300000	1000	0	0	-1	300
31769195	7263	497	0	-100	0	230	101300000	1000	0	0	-1	300
31781755	7255	491	0	-100	0	230	101300000	1000	0	0	-1	300
31794315	7264	492	0	-100	0	230	101300000	1000	0	0	-1	300
31806875	7259	492	0	-100	0	230	101300000	1000	0	0	-1	300
31819435	7256	499	0	-100	0	230	101300000	1000	0	0	-1	300
31831995	7248	494	0	-100	0	230	101300000	1000	0	0	-1	300
31844555	7252	493	0	-100	0	230	101300000	1000	0	0	-1	300
31857115	7254	492	0	-100	0	230	101300000	1000	0	0	-1	300
31869675	7264	490	0	-100	0	230	101300000	1000	0	0	-1	300
31882235	7255	492	0	-100	0	230	101300000	1000	0	0	-1	300
31894795	7258	497	0	-100	0	230	101300000	1000	0	0	-1	300
31907355	7248	495	0	-100	0	230	101300000	1000	0	0	-1	300
31919915	7257	499	0	-100	0	230	101300000	1000	0	0	-1	300
31932475	7250	497	0	-100	0	230	101300000	1000	0	0	-1	300
31945035	7261	492	0	-100	0	230	101300000	1000	0	0	-1	300
31957595	7253	487	0	-100	0	230	101300000	1000	0	0	-1	300
31970155	7266	489	0	-100	0	230	101300000	1000	0	0	-1	300
31982715	7262	491	0	-100	0	230	101300000	1000	0	0	-1	300
31995275	7251	490	0	-100	0	230	101300000	1000	0	0	-1	300
32007835	7257	491	0	-100	0	230	101300000	1000	0	0	-1	300
32020395	7247	493	0	-100	0	230	101300000	1000	0	0	-1	300
32032955	7248	496	0	-100	0	230	101300000	1000	0	0	-1	300
32045515	7262	494	0	-100	0	230	101300000	1000	0	0	-1	300
32058075	7248	499	0	-100	0	230	101300000	1000	0	0	-1	300
32070635	7262	494	0	-100	0	230	101300000	1000	0	0	-1	300
32083195	7252	490	0	-100	0	230	101300000	1000	0	0	-1	300
32095755	7260	490	0	-100	0	230	101300000	1000	0	0	-1	300
32108315	7247	492	0	-100	0	230	101300000	1000	0	0	-1	300
32120875	7257	499	0	-100	0	230	101300000	1000	0	0	-1	300
32133435	7254	496	0	-100	0	230	101300000	1000	0	0	-1	300
32145995	7269	500	0	-100	0	230	101300000	1000	0	0	-1	300
32158555	7257	489	0	-100	0	230	101300000	1000	0	0	-1	300
32171115	7250	491	0	-100	0	230	101300000	1000	0	0	-1	300
32183675	7258	491	0	-100	0	230	101300000	1000	0	0	-1	300
32196235	7253	495	0	-100	0	230	101300000	1000	0	0	-1	300
32208795	7253	495	0	-100	0	230	101300000	1000	0	0	-1	300
32221355	7255	500	0	-100	0	230	101300000	1000	0	0	-1	300
32233915	7249	497	0	-100	0	230	101300000	1000	0	0	-1	300
32246475	7262	492	0	-100	0	230	101300000	1000	0	0	-1	300
32259035	7258	490	0	-100	0	230	101300000	1000	0	0	-1	300
32271595	7255	491	0	-100	0	230	101300000	1000	0	0	-1	300
32284155	7266	490	0	-100	0	230	101300000	1000	0	0	-1	300
32296715	7255	491	0	-100	0	230	101300000	1000	0	0	-1	300
32309275	7257	495	0	-100	0	230	101300000	1000	0	0	-1	300
32321835	7252	495	0	-100	0	230	101300000	1000	0	0	-1	300
32334395	7257	499	0	-100	0	230	101300000	1000	0	0	-1	300
32346955	7262	498	0	-100	0	230	101300000	1000	0	0	-1	300
32359515	7264	494	0	-100	0	230	101300000	1000	0	0	-1	300
32372075	7250	494	0	-100	0	230	101300000	1000	0	0	-1	300
32384635	7258	489	0	-100	0	230	101300000	1000	0	0	-1	300
32397195	7259	490	0	-100	0	230	101300000	1000	0	0	-1	300
32409755	7251	491	0	-100	0	230	101300000	1000	0	0	-1	300
32422315	7250	497	0	-100	0	230	101300000	1000	0	0	-1	300
32434875	7257	500	0	-100	0	230	101300000	1000	0	0	-1	300
32447435	7250	498	0	-100	0	230	101300000	1000	0	0	-1	300
32459995	7257	492	0	-100	0	230	101300000	1000	0	0	-1	300
32472555	7257	498	0	-100	0	230	101300000	1000	0	0	-1	300
32485115	7259	500	0	-100	0	230	101300000	1000	0	0	-1	300
32497675	7250	495	0	-100	0	230	101300000	1000	0	0	-1	300
32510235	7243	494	0	-100	0	230	101300000	1000	0	0	-1	300
32522795	7254	496	0	-100	0	230	101300000	1000	0	0	-1	300
32535355	7247	493	0	-100	0	230	101300000	1000	0	0	-1	300
32547915	7250	491	0	-100	0	230	101300000	1000	0	0	-1	300
32560475	7257	491	0	-100	0	230	101300000	1000	0	0	-1	300
32573035	7252	491	0	-100	0	230	101300000	1000	0	0	-1	300
32585595	7245	490	0	-100	0	230	101300000	1000	0	0	-1	300
32598155	7278	490	0	-100	0	230	101300000	1000	0	0	-1	300
32610715	7262	492	0	-100	0	230	101300000	1000	0	0	-1	300
32623275	7264	490	0	-100	0	230	101300000	1000	0	0	-1	300
32635835	7260	492	0	-100	0	230	101300000	1000	0	0	-1	300
32648395	7256	490	0	-100	0	230	101300000	1000	0	0	-1	300
32660955	7254	490	0	-100	0	230	101300000	1000	0	0	-1	300
32673515	7261	492	0	-100	0	230	101300000	1000	0	0	-1	300
32686075	7248	494	0	-100	0	230	101300000	1000	0	0	-1	300
32698635	7254	495	0	-100	0	230	101300000	1000	0	0	-1	300
32711195	7249	494	0	-100	0	230	101300000	1000	0	0	-1	300
32723755	7254	491	0	-100	0	230	101300000	1000	0	0	-1	300
32736315	7257	491	0	-100	0	230	101300000	1000	0	0	-1	300
32748875	7254	492	0	-100	0	230	101300000	1000	0	0	-1	300
32761435	7258	490	0	-100	0	230	101300000	1000	0	0	-1	300
32773995	7268	499	0	-100	0	230	101300000	1000	0	0	-1	300
32786555	7266	496	0	-100	0	230	101300000	1000	0	0	-1	300
32799115	7258	494	0	-100	0	230	101300000	1000	0	0	-1	300
32811675	7252	494	0	-100	0	230	101300000	1000	0	0	-1	300
32824235	7257	496	0	-100	0	230	101300000	1000	0	0	-1	300
32836795	7252	496	0	-100	0	230	101300000	1000	0	0	-1	300
32849355	7254	498	0	-100	0	230	101300000	1000	0	0	-1	300
32861915	7256	499	0	-100	0	230	101300000	1000	0	0	-1	300
32874475	7254	498	0	-100	0	230	101300000	1000	0	0	-1	300
32887035	7266	499	0	-100	0	230	101300000	1000	0	0	-1	300
32899595	7254	500	0	-100	0	230	101300000	1000	0	0	-1	300
32912155	7262	496	0	-100	0	230	101300000	1000	0	0	-1	300
32924715	7250	494	0	-100	0	230	101300000	1000	0	0	-1	300
32937275	7244	494	0	-100	0	230	101300000	1000	0	0	-1	300
32949835	7253	495	0	-100	0	230	101300000	1000	0	0	-1	300
32962395	7247	493	0	-100	0	230	101300000	1000	0	0	-1	300
32974955	7255	491	0	-100	0	230	101300000	1000	0	0	-1	300
32987515	7253	490	0	-100	0	230	101300000	1000	0	0	-1	300
33000075	7264	489	0	-100	0	230	101300000	1000	0	0	-1	300
33012635	7252	491	0	-100	0	230	101300000	1000	0	0	-1	300
33025195	7257	490	0	-100	0	230	101300000	1000	0	0	-1	300
33037755	7269	489	0	-100	0	230	101300000	1000	0	0	-1	300
33050315	7252	490	0	-100	0	230	101300000	1000	0	0	-1	300
33062875	7249	492	0	-100	0	230	101300000	1000	0	0	-1	300
33075435	7255	497	0	-100	0	230	101300000	1000	0	0	-1	300
33087995	7254	492	0	-100	0	230	101300000	1000	0	0	-1	300
33100555	7251	498	0	-100	0	230	101300000	1000	0	0	-1	300
33150795	7264	490	0	-100	0	230	101300000	1000	0	0	-1	300
33163355	7257	491	0	-100	0	230	101300000	1000	0	0	-1	300
33175915	7259	491	0	-100	0	230	101300000	1000	0	0	-1	300
33188475	7257	493	0	-100	0	230	101300000	1000	0	0	-1	300
33201035	7259	494	0	-100	0	230	101300000	1000	0	0	-1	300
33213595	7258	500	0	-100	0	230	101300000	1000	0	0	-1	300
33226155	7263	498	0	-100	0	230	101300000	1000	0	0	-1	300
33238715	7254	496	0	-100	0	230	101300000	1000	0	0	-1	300
33251275	7264	490	0	-100	0	230	101300000	1000	0	0	-1	300
33263835	7262	491	0	-100	0	230	101300000	1000	0	0	-1	300
33276395	7253	495	0	-100	0	230	101300000	1000	0	0	-1	300
33288955	7241	497	0	-100	0	230	101300000	1000	0	0	-1	300
33326635	7248	495	0	-100	0	230	101300000	1000	0	0	-1	300
33339195	7257	498	0	-100	0	230	101300000	1000	0	0	-1	300
33351755	7270	493	0	-100	0	230	101300000	1000	0	0	-1	300
33364315	7262	490	0	-100	0	230	101300000	1000	0	0	-1	300
33376875	7250	492	0	-100	0	230	101300000	1000	0	0	-1	300
33389435	7257	498	0	-100	0	230	101300000	1000	0	0	-1	300
33401995	7259	497	0	-100	0	230	101300000	1000	0	0	-1	300
33414555	7260	494	0	-100	0	230	101300000	1000	0	0	-1	300
33427115	7260	491	0	-100	0	230	101300000	1000	0	0	-1	300
33439675	7260	492	0	-100	0	230	101300000	1000	0	0	-1	300
33452235	7252	495	0	-100	0	230	101300000	1000	0	0	-1	300
33464795	7250	499	0	-100	0	230	101300000	1000	0	0	-1	300
33477355	7264	494	0	-100	0	230	101300000	1000	0	0	-1	300
33489915	7258	490	0	-100	0	230	101300000	1000	0	0	-1	300
33502475	7261	490	0	-100	0	230	101300000	1000	0	0	-1	300
33515035	7259	492	0	-100	0	230	101300000	1000	0	0	-1	300
33527595	7248	495	0	-100	0	230	101300000	1000	0	0	-1	300
33540155	7270	498	0	-100	0	230	101300000	1000	0	0	-1	300
33552715	7256	495	0	-100	0	230	101300000	1000	0	0	-1	300
33565275	7272	490	0	-100	0	230	101300000	1000	0	0	-1	300
33577835	7267	491	0	-100	0	230	101300000	1000	0	0	-1	300
33590395	7259	493	0	-100	0	230	101300000	1000	0	0	-1	300
33602955	7264	501	0	-100	0	230	101300000	1000	0	0	-1	300
33615515	7255	497	0	-100	0	230	101300000	1000	0	0	-1	300
33628075	7261	494	0	-100	0	230	101300000	1000	0	0	-1	300
33640635	7264	492	0	-100	0	230	101300000	1000	0	0	-1	300
33653195	7264	491	0	-100	0	230	101300000	1000	0	0	-1	300
33665755	7266	491	0	-100	0	230	101300000	1000	0	0	-1	300
33678315	7266	491	0	-100	0	230	101300000	1000	0	0	-1	300
33690875	7246	496	0	-100	0	230	101300000	1000	0	0	-1	300
33703435	7265	498	0	-100	0	230	101300000	1000	0	0	-1	300
33715995	7259	496	0	-100	0	230	101300000	1000	0	0	-1	300
33728555	7256	491	0	-100	0	230	101300000	1000	0	0	-1	300
33741115	7257	495	0	-100	0	230	101300000	1000	0	0	-1	300
33753675	7257	503	0	-100	0	230	101300000	1000	0	0	-1	300
33766235	7247	496	0	-100	0	230	101300000	1000	0	0	-1	300
33778795	7252	491	0	-100	0	230	101300000	1000	0	0	-1	300
33791355	7266	491	0	-100	0	230	101300000	1000	0	0	-1	300
33803915	7248	490	0	-100	0	230	101300000	1000	0	0	-1	300
33816475	7250	496	0	-100	0	230	101300000	1000	0	0	-1	300
33829035	7252	499	0	-100	0	230	101300000	1000	0	0	-1	300
33841595	7250	495	0	-100	0	230	101300000	1000	0	0	-1	300
33854155	7273	492	0	-100	0	230	101300000	1000	0	0	-1	300
33866715	7267	491	0	-100	0	230	101300000	1000	0	0	-1	300
33879275	7262	492	0	-100	0	230	101300000	1000	0	0	-1	300
33891835	7254	492	0	-100	0	230	101300000	1000	0	0	-1	300
33904395	7248	496	0	-100	0	230	101300000	1000	0	0	-1	300
33916955	7256	498	0	-100	0	230	101300000	1000	0	0	-1	300
33929515	7253	494	0	-100	0	230	101300000	1000	0	0	-1	300
33942075	7264	490	0	-100	0	230	101300000	1000	0	0	-1	300
33954635	7257	492	0	-100	0	230	101300000	1000	0	0	-1	300
33967195	7254	496	0	-100	0	230	101300000	1000	0	0	-1	300
33979755	7261	497	0	-100	0	230	101300000	1000	0	0	-1	300
33992315	7265	495	0	-100	0	230	101300000	1000	0	0	-1	300
34004875	7264	491	0	-100	0	230	101300000	1000	0	0	-1	300
34017435	7260	491	0	-100	0	230	101300000	1000	0	0	-1	300
34029995	7251	490	0	-100	0	230	101300000	1000	0	0	-1	300
34042555	7261	495	0	-100	0	230	101300000	1000	0	0	-1	300
34055115	7254	492	0	-100	0	230	101300000	1000	0	0	-1	300
34067675	7266	492	0	-100	0	230	101300000	1000	0	0	-1	300
34080235	7244	489	0	-100	0	230	101300000	1000	0	0	-1	300
34092795	7247	495	0	-100	0	230	101300000	1000	0	0	-1	300
34105355	7252	499	0	-100	0	230	101300000	1000	0	0	-1	300
34117915	7249	496	0	-100	0	230	101300000	1000	0	0	-1	300
34130475	7266	492	0	-100	0	230	101300000	1000	0	0	-1	300
34143035	7266	493	0	-100	0	230	101300000	1000	0	0	-1	300
34155595	7251	492	0	-100	0	230	101300000	1000	0	0	-1	300
34168155	7252	494	0	-100	0	230	101300000	1000	0	0	-1	300
34180715	7254	494	0	-100	0	230	101300000	1000	0	0	-1	300
34193275	7255	493	0	-100	0	230	101300000	1000	0	0	-1	300
34205835	7257	491	0	-100	0	230	101300000	1000	0	0	-1	300
34218395	7265	490	0	-100	0	230	101300000	1000	0	0	-1	300
34230955	7264	491	0	-100	0	230	101300000	1000	0	0	-1	300
