timestamp	voltage	current	windSpeed	pitchAngle	rpm	temperature	ambientPressure	humidity	accelerationX	accelerationY	accelerationZ	currentSink
7038070	5022	0	0	-100	0	230	101300000	1000	0	0	-1	0
7045523	5010	4	0	-100	0	230	101300000	1000	0	0	-1	0
7058083	5010	4	0	-100	0	230	101300000	1000	0	0	-1	0
7070643	5007	1	0	-100	0	230	101300000	1000	0	0	-1	0
7083203	5014	0	0	-100	0	230	101300000	1000	0	0	-1	0
7095763	5011	0	0	-100	0	230	101300000	1000	0	0	-1	0
7108323	5008	2	0	-100	0	230	101300000	1000	0	0	-1	0
7120883	5007	4	0	-100	0	230	101300000	1000	0	0	-1	0
7133443	5009	0	0	-100	0	230	101300000	1000	0	0	-1	0
7146004	5006	2	0	-100	0	230	101300000	1000	0	0	-1	0
7158563	5011	0	0	-100	0	230	101300000	1000	0	0	-1	0
7171123	5012	0	0	-100	0	230	101300000	1000	0	0	-1	0
7183683	5008	0	0	-100	0	230	101300000	1000	0	0	-1	0
7196243	5007	0	0	-100	0	230	101300000	1000	0	0	-1	0
7208803	5003	0	0	-100	0	230	101300000	1000	0	0	-1	0
7221363	5001	0	0	-100	0	230	101300000	1000	0	0	-1	0
7233923	5007	1	0	-100	0	230	101300000	1000	0	0	-1	0
7246483	5007	4	0	-100	0	230	101300000	1000	0	0	-1	0
7259043	5010	0	0	-100	0	230	101300000	1000	0	0	-1	0
7271603	5014	0	0	-100	0	230	101300000	1000	0	0	-1	0
7284163	5012	0	0	-100	0	230	101300000	1000	0	0	-1	0
7296723	5008	0	0	-100	0	230	101300000	1000	0	0	-1	0
7309283	5007	0	0	-100	0	230	101300000	1000	0	0	-1	0
7321843	5008	4	0	-100	0	230	101300000	1000	0	0	-1	0
7334403	5012	0	0	-100	0	230	101300000	1000	0	0	-1	0
7346963	5013	0	0	-100	0	230	101300000	1000	0	0	-1	0
7667555	7335	616	0	-100	0	230	101300000	1000	0	0	-1	350
7680115	7335	621	0	-100	0	230	101300000	1000	0	0	-1	350
7692675	7349	614	0	-100	0	230	101300000	1000	0	0	-1	350
7705235	7338	612	0	-100	0	230	101300000	1000	0	0	-1	350
7717795	7345	611	0	-100	0	230	101300000	1000	0	0	-1	350
7730355	7337	614	0	-100	0	230	101300000	1000	0	0	-1	350
7742915	7338	620	0	-100	0	230	101300000	1000	0	0	-1	350
7755475	7335	623	0	-100	0	230	101300000	1000	0	0	-1	350
7768035	7342	621	0	-100	0	230	101300000	1000	0	0	-1	350
7780595	7343	618	0	-100	0	230	101300000	1000	0	0	-1	350
7793155	7341	612	0	-100	0	230	101300000	1000	0	0	-1	350
7805715	7342	612	0	-100	0	230	101300000	1000	0	0	-1	350
7818275	7321	617	0	-100	0	230	101300000	1000	0	0	-1	350
7830835	7341	616	0	-100	0	230	101300000	1000	0	0	-1	350
7843395	7327	611	0	-100	0	230	101300000	1000	0	0	-1	350
7855955	7330	618	0	-100	0	230	101300000	1000	0	0	-1	350
7868515	7333	622	0	-100	0	230	101300000	1000	0	0	-1	350
7881075	7333	613	0	-100	0	230	101300000	1000	0	0	-1	350
7893635	7337	614	0	-100	0	230	101300000	1000	0	0	-1	350
7906195	7340	613	0	-100	0	230	101300000	1000	0	0	-1	350
7918755	7330	620	0	-100	0	230	101300000	1000	0	0	-1	350
7931315	7331	621	0	-100	0	230	101300000	1000	0	0	-1	350
7943875	7326	617	0	-100	0	230	101300000	1000	0	0	-1	350
7956435	7332	614	0	-100	0	230	101300000	1000	0	0	-1	350
7968995	7333	619	0	-100	0	230	101300000	1000	0	0	-1	350
7981555	7333	612	0	-100	0	230	101300000	1000	0	0	-1	350
7994115	7328	611	0	-100	0	230	101300000	1000	0	0	-1	350
8006675	7331	616	0	-100	0	230	101300000	1000	0	0	-1	350
8019235	7339	621	0	-100	0	230	101300000	1000	0	0	-1	350
8031795	7316	620	0	-100	0	230	101300000	1000	0	0	-1	350
8044355	7331	616	0	-100	0	230	101300000	1000	0	0	-1	350
8056915	7330	613	0	-100	0	230	101300000	1000	0	0	-1	350
8069475	7337	614	0	-100	0	230	101300000	1000	0	0	-1	350
8082035	7330	614	0	-100	0	230	101300000	1000	0	0	-1	350
8094595	7330	633	0	-100	0	230	101300000	1000	0	0	-1	350
8107155	7318	619	0	-100	0	230	101300000	1000	0	0	-1	350
8119715	7342	617	0	-100	0	230	101300000	1000	0	0	-1	350
8132275	7326	615	0	-100	0	230	101300000	1000	0	0	-1	350
8144835	7335	613	0	-100	0	230	101300000	1000	0	0	-1	350
8157395	7323	621	0	-100	0	230	101300000	1000	0	0	-1	350
8169955	7317	620	0	-100	0	230	101300000	1000	0	0	-1	350
8182515	7335	613	0	-100	0	230	101300000	1000	0	0	-1	350
8195075	7325	615	0	-100	0	230	101300000	1000	0	0	-1	350
8207635	7334	623	0	-100	0	230	101300000	1000	0	0	-1	350
8220195	7337	614	0	-100	0	230	101300000	1000	0	0	-1	350
8232755	7331	615	0	-100	0	230	101300000	1000	0	0	-1	350
8245315	7332	622	0	-100	0	230	101300000	1000	0	0	-1	350
8257875	7328	617	0	-100	0	230	101300000	1000	0	0	-1	350
8270435	7330	613	0	-100	0	230	101300000	1000	0	0	-1	350
8282995	7341	613	0	-100	0	230	101300000	1000	0	0	-1	350
8295555	7325	613	0	-100	0	230	101300000	1000	0	0	-1	350
8308115	7337	614	0	-100	0	230	101300000	1000	0	0	-1	350
8320675	7326	619	0	-100	0	230	101300000	1000	0	0	-1	350
8333235	7324	623	0	-100	0	230	101300000	1000	0	0	-1	350
8345795	7320	615	0	-100	0	230	101300000	1000	0	0	-1	350
8358355	7329	613	0	-100	0	230	101300000	1000	0	0	-1	350
8370915	7329	617	0	-100	0	230	101300000	1000	0	0	-1	350
8383475	7325	619	0	-100	0	230	101300000	1000	0	0	-1	350
8396035	7333	616	0	-100	0	230	101300000	1000	0	0	-1	350
8408595	7327	618	0	-100	0	230	101300000	1000	0	0	-1	350
8421155	7322	619	0	-100	0	230	101300000	1000	0	0	-1	350
8433715	7330	613	0	-100	0	230	101300000	1000	0	0	-1	350
8446275	7329	622	0	-100	0	230	101300000	1000	0	0	-1	350
8458835	7319	611	0	-100	0	230	101300000	1000	0	0	-1	350
8471395	7316	619	0	-100	0	230	101300000	1000	0	0	-1	350
8483955	7328	611	0	-100	0	230	101300000	1000	0	0	-1	350
8496515	7325	621	0	-100	0	230	101300000	1000	0	0	-1	350
8509075	7319	611	0	-100	0	230	101300000	1000	0	0	-1	350
8521635	7317	618	0	-100	0	230	101300000	1000	0	0	-1	350
8534195	7334	616	0	-100	0	230	101300000	1000	0	0	-1	350
8546755	7333	618	0	-100	0	230	101300000	1000	0	0	-1	350
8559315	7328	617	0	-100	0	230	101300000	1000	0	0	-1	350
8571875	7330	616	0	-100	0	230	101300000	1000	0	0	-1	350
8584435	7331	619	0	-100	0	230	101300000	1000	0	0	-1	350
8596995	7332	621	0	-100	0	230	101300000	1000	0	0	-1	350
8609555	7338	617	0	-100	0	230	101300000	1000	0	0	-1	350
8622115	7329	614	0	-100	0	230	101300000	1000	0	0	-1	350
8634675	7331	614	0	-100	0	230	101300000	1000	0	0	-1	350
8647235	7325	618	0	-100	0	230	101300000	1000	0	0	-1	350
8659795	7323	613	0	-100	0	230	101300000	1000	0	0	-1	350
8672355	7319	619	0	-100	0	230	101300000	1000	0	0	-1	350
8684915	7337	619	0	-100	0	230	101300000	1000	0	0	-1	350
8697475	7328	611	0	-100	0	230	101300000	1000	0	0	-1	350
8710035	7329	620	0	-100	0	230	101300000	1000	0	0	-1	350
8722595	7340	613	0	-100	0	230	101300000	1000	0	0	-1	350
8735155	7335	612	0	-100	0	230	101300000	1000	0	0	-1	350
8747715	7320	621	0	-100	0	230	101300000	1000	0	0	-1	350
8760275	7320	616	0	-100	0	230	101300000	1000	0	0	-1	350
8772835	7312	610	0	-100	0	230	101300000	1000	0	0	-1	350
8785395	7330	613	0	-100	0	230	101300000	1000	0	0	-1	350
8797955	7327	620	0	-100	0	230	101300000	1000	0	0	-1	350
8810515	7335	611	0	-100	0	230	101300000	1000	0	0	-1	350
8823075	7314	615	0	-100	0	230	101300000	1000	0	0	-1	350
8835635	7311	617	0	-100	0	230	101300000	1000	0	0	-1	350
8848195	7330	613	0	-100	0	230	101300000	1000	0	0	-1	350
8860755	7320	619	0	-100	0	230	101300000	1000	0	0	-1	350
8873315	7313	614	0	-100	0	230	101300000	1000	0	0	-1	350
8885875	7334	611	0	-100	0	230	101300000	1000	0	0	-1	350
8898435	7325	620	0	-100	0	230	101300000	1000	0	0	-1	350
8910995	7332	621	0	-100	0	230	101300000	1000	0	0	-1	350
8923555	7327	614	0	-100	0	230	101300000	1000	0	0	-1	350
8936115	7327	620	0	-100	0	230	101300000	1000	0	0	-1	350
8948675	7318	614	0	-100	0	230	101300000	1000	0	0	-1	350
8961235	7328	619	0	-100	0	230	101300000	1000	0	0	-1	350
8973795	7342	616	0	-100	0	230	101300000	1000	0	0	-1	350
8986355	7311	611	0	-100	0	230	101300000	1000	0	0	-1	350
8998915	7332	619	0	-100	0	230	101300000	1000	0	0	-1	350
9011475	7330	618	0	-100	0	230	101300000	1000	0	0	-1	350
9024035	7326	620	0	-100	0	230	101300000	1000	0	0	-1	350
9036595	7327	619	0	-100	0	230	101300000	1000	0	0	-1	350
9049155	7325	615	0	-100	0	230	101300000	1000	0	0	-1	350
9061715	7309	618	0	-100	0	230	101300000	1000	0	0	-1	350
9074275	7318	616	0	-100	0	230	101300000	1000	0	0	-1	350
9086835	7330	613	0	-100	0	230	101300000	1000	0	0	-1	350
9099395	7320	621	0	-100	0	230	101300000	1000	0	0	-1	350
9111955	7322	611	0	-100	0	230	101300000	1000	0	0	-1	350
9124515	7316	619	0	-100	0	230	101300000	1000	0	0	-1	350
9137075	7321	618	0	-100	0	230	101300000	1000	0	0	-1	350
9149635	7332	612	0	-100	0	230	101300000	1000	0	0	-1	350
9162195	7325	622	0	-100	0	230	101300000	1000	0	0	-1	350
9174755	7330	610	0	-100	0	230	101300000	1000	0	0	-1	350
9187315	7323	615	0	-100	0	230	101300000	1000	0	0	-1	350
9199875	7312	619	0	-100	0	230	101300000	1000	0	0	-1	350
9212435	7319	611	0	-100	0	230	101300000	1000	0	0	-1	350
9224995	7325	612	0	-100	0	230	101300000	1000	0	0	-1	350
9237555	7313	618	0	-100	0	230	101300000	1000	0	0	-1	350
9250115	7333	613	0	-100	0	230	101300000	1000	0	0	-1	350
9262675	7332	622	0	-100	0	230	101300000	1000	0	0	-1	350
9275235	7331	614	0	-100	0	230	101300000	1000	0	0	-1	350
9287795	7320	620	0	-100	0	230	101300000	1000	0	0	-1	350
9300355	7321	612	0	-100	0	230	101300000	1000	0	0	-1	350
9312915	7326	623	0	-100	0	230	101300000	1000	0	0	-1	350
9325475	7331	611	0	-100	0	230	101300000	1000	0	0	-1	350
9338035	7317	615	0	-100	0	230	101300000	1000	0	0	-1	350
9350595	7320	616	0	-100	0	230	101300000	1000	0	0	-1	350
9363155	7334	614	0	-100	0	230	101300000	1000	0	0	-1	350
9375715	7323	617	0	-100	0	230	101300000	1000	0	0	-1	350
9388275	7321	614	0	-100	0	230	101300000	1000	0	0	-1	350
9400835	7327	622	0	-100	0	230	101300000	1000	0	0	-1	350
9413395	7325	615	0	-100	0	230	101300000	1000	0	0	-1	350
9425955	7315	615	0	-100	0	230	101300000	1000	0	0	-1	350
9438515	7319	614	0	-100	0	230	101300000	1000	0	0	-1	350
9451075	7318	617	0	-100	0	230	101300000	1000	0	0	-1	350
9463635	7315	617	0	-100	0	230	101300000	1000	0	0	-1	350
9476195	7328	613	0	-100	0	230	101300000	1000	0	0	-1	350
9488755	7320	621	0	-100	0	230	101300000	1000	0	0	-1	350
9501315	7325	615	0	-100	0	230	101300000	1000	0	0	-1	350
9513875	7316	620	0	-100	0	230	101300000	1000	0	0	-1	350
9526435	7334	612	0	-100	0	230	101300000	1000	0	0	-1	350
9538995	7318	616	0	-100	0	230	101300000	1000	0	0	-1	350
9551555	7323	614	0	-100	0	230	101300000	1000	0	0	-1	350
9564115	7327	613	0	-100	0	230	101300000	1000	0	0	-1	350
9576675	7330	617	0	-100	0	230	101300000	1000	0	0	-1	350
9589235	7325	616	0	-100	0	230	101300000	1000	0	0	-1	350
9601795	7323	621	0	-100	0	230	101300000	1000	0	0	-1	350
9614355	7328	611	0	-100	0	230	101300000	1000	0	0	-1	350
9626915	7324	617	0	-100	0	230	101300000	1000	0	0	-1	350
9639475	7320	614	0	-100	0	230	101300000	1000	0	0	-1	350
9652035	7318	610	0	-100	0	230	101300000	1000	0	0	-1	350
9664595	7340	619	0	-100	0	230	101300000	1000	0	0	-1	350
9677155	7330	613	0	-100	0	230	101300000	1000	0	0	-1	350
9689715	7323	612	0	-100	0	230	101300000	1000	0	0	-1	350
9702275	7325	617	0	-100	0	230	101300000	1000	0	0	-1	350
9714835	7340	610	0	-100	0	230	101300000	1000	0	0	-1	350
9727395	7330	618	0	-100	0	230	101300000	1000	0	0	-1	350
9739955	7333	616	0	-100	0	230	101300000	1000	0	0	-1	350
9752515	7325	620	0	-100	0	230	101300000	1000	0	0	-1	350
9765075	7327	614	0	-100	0	230	101300000	1000	0	0	-1	350
9777635	7325	625	0	-100	0	230	101300000	1000	0	0	-1	350
9790195	7323	615	0	-100	0	230	101300000	1000	0	0	-1	350
9802755	7328	613	0	-100	0	230	101300000	1000	0	0	-1	350
9815315	7321	622	0	-100	0	230	101300000	1000	0	0	-1	350
9827875	7325	615	0	-100	0	230	101300000	1000	0	0	-1	350
9840435	7322	613	0	-100	0	230	101300000	1000	0	0	-1	350
9852995	7319	612	0	-100	0	230	101300000	1000	0	0	-1	350
9865555	7335	615	0	-100	0	230	101300000	1000	0	0	-1	350
9878115	7321	618	0	-100	0	230	101300000	1000	0	0	-1	350
9890675	7323	618	0	-100	0	230	101300000	1000	0	0	-1	350
9903235	7328	612	0	-100	0	230	101300000	1000	0	0	-1	350
9915795	7328	620	0	-100	0	230	101300000	1000	0	0	-1	350
9928355	7333	613	0	-100	0	230	101300000	1000	0	0	-1	350
9940915	7324	614	0	-100	0	230	101300000	1000	0	0	-1	350
9953475	7320	620	0	-100	0	230	101300000	1000	0	0	-1	350
9966035	7328	615	0	-100	0	230	101300000	1000	0	0	-1	350
9978595	7325	621	0	-100	0	230	101300000	1000	0	0	-1	350
9991155	7322	616	0	-100	0	230	101300000	1000	0	0	-1	350
10003715	7332	613	0	-100	0	230	101300000	1000	0	0	-1	350
10016275	7324	620	0	-100	0	230	101300000	1000	0	0	-1	350
10028835	7330	613	0	-100	0	230	101300000	1000	0	0	-1	350
10041395	7316	616	0	-100	0	230	101300000	1000	0	0	-1	350
10053955	7323	619	0	-100	0	230	101300000	1000	0	0	-1	350
10066515	7317	610	0	-100	0	230	101300000	1000	0	0	-1	350
10079075	7312	614	0	-100	0	230	101300000	1000	0	0	-1	350
10091635	7337	623	0	-100	0	230	101300000	1000	0	0	-1	350
10104195	7329	614	0	-100	0	230	101300000	1000	0	0	-1	350
10116755	7319	615	0	-100	0	230	101300000	1000	0	0	-1	350
10129315	7315	617	0	-100	0	230	101300000	1000	0	0	-1	350
10141875	7327	616	0	-100	0	230	101300000	1000	0	0	-1	350
10154435	7329	622	0	-100	0	230	101300000	1000	0	0	-1	350
10166995	7318	621	0	-100	0	230	101300000	1000	0	0	-1	350
10179555	7332	612	0	-100	0	230	101300000	1000	0	0	-1	350
10192115	7323	622	0	-100	0	230	101300000	1000	0	0	-1	350
10204675	7323	614	0	-100	0	230	101300000	1000	0	0	-1	350
10217235	7325	615	0	-100	0	230	101300000	1000	0	0	-1	350
10229795	7323	619	0	-100	0	230	101300000	1000	0	0	-1	350
10242355	7321	612	0	-100	0	230	101300000	1000	0	0	-1	350
10254915	7324	619	0	-100	0	230	101300000	1000	0	0	-1	350
10267475	7321	617	0	-100	0	230	101300000	1000	0	0	-1	350
10280035	7320	614	0	-100	0	230	101300000	1000	0	0	-1	350
10292595	7313	620	0	-100	0	230	101300000	1000	0	0	-1	350
10305155	7323	613	0	-100	0	230	101300000	1000	0	0	-1	350
10317715	7327	612	0	-100	0	230	101300000	1000	0	0	-1	350
10330275	7316	620	0	-100	0	230	101300000	1000	0	0	-1	350
10342835	7328	613	0	-100	0	230	101300000	1000	0	0	-1	350
10355395	7323	617	0	-100	0	230	101300000	1000	0	0	-1	350
10367955	7327	615	0	-100	0	230	101300000	1000	0	0	-1	350
10380515	7327	615	0	-100	0	230	101300000	1000	0	0	-1	350
10393075	7316	620	0	-100	0	230	101300000	1000	0	0	-1	350
10405635	7322	615	0	-100	0	230	101300000	1000	0	0	-1	350
10418195	7323	618	0	-100	0	230	101300000	1000	0	0	-1	350
10430755	7323	613	0	-100	0	230	101300000	1000	0	0	-1	350
10443315	7325	618	0	-100	0	230	101300000	1000	0	0	-1	350
10455875	7334	612	0	-100	0	230	101300000	1000	0	0	-1	350
10468435	7332	621	0	-100	0	230	101300000	1000	0	0	-1	350
10480995	7321	614	0	-100	0	230	101300000	1000	0	0	-1	350
10493555	7316	621	0	-100	0	230	101300000	1000	0	0	-1	350
10506115	7342	614	0	-100	0	230	101300000	1000	0	0	-1	350
10518675	7329	619	0	-100	0	230	101300000	1000	0	0	-1	350
10531235	7329	613	0	-100	0	230	101300000	1000	0	0	-1	350
10543795	7323	613	0	-100	0	230	101300000	1000	0	0	-1	350
10556355	7318	620	0	-100	0	230	101300000	1000	0	0	-1	350
10568915	7318	613	0	-100	0	230	101300000	1000	0	0	-1	350
10581475	7322	620	0	-100	0	230	101300000	1000	0	0	-1	350
10594035	7338	616	0	-100	0	230	101300000	1000	0	0	-1	350
10606595	7330	617	0	-100	0	230	101300000	1000	0	0	-1	350
10619155	7320	615	0	-100	0	230	101300000	1000	0	0	-1	350
10631715	7318	611	0	-100	0	230	101300000	1000	0	0	-1	350
10644275	7318	618	0	-100	0	230	101300000	1000	0	0	-1	350
10656835	7331	613	0	-100	0	230	101300000	1000	0	0	-1	350
10669395	7316	620	0	-100	0	230	101300000	1000	0	0	-1	350
10681955	7326	616	0	-100	0	230	101300000	1000	0	0	-1	350
10694515	7330	613	0	-100	0	230	101300000	1000	0	0	-1	350
10707075	7321	620	0	-100	0	230	101300000	1000	0	0	-1	350
10719635	7321	616	0	-100	0	230	101300000	1000	0	0	-1	350
10732195	7323	614	0	-100	0	230	101300000	1000	0	0	-1	350
10744755	7322	623	0	-100	0	230	101300000	1000	0	0	-1	350
10757315	7327	613	0	-100	0	230	101300000	1000	0	0	-1	350
10769875	7311	612	0	-100	0	230	101300000	1000	0	0	-1	350
10782435	7323	622	0	-100	0	230	101300000	1000	0	0	-1	350
10794995	7335	621	0	-100	0	230	101300000	1000	0	0	-1	350
10807555	7310	613	0	-100	0	230	101300000	1000	0	0	-1	350
10820115	7311	620	0	-100	0	230	101300000	1000	0	0	-1	350
10832675	7325	613	0	-100	0	230	101300000	1000	0	0	-1	350
10845235	7318	617	0	-100	0	230	101300000	1000	0	0	-1	350
10857795	7325	617	0	-100	0	230	101300000	1000	0	0	-1	350
10870355	7323	613	0	-100	0	230	101300000	1000	0	0	-1	350
10882915	7309	620	0	-100	0	230	101300000	1000	0	0	-1	350
10895475	7336	615	0	-100	0	230	101300000	1000	0	0	-1	350
10908035	7324	613	0	-100	0	230	101300000	1000	0	0	-1	350
10920595	7325	621	0	-100	0	230	101300000	1000	0	0	-1	350
10933155	7327	615	0	-100	0	230	101300000	1000	0	0	-1	350
10945715	7327	614	0	-100	0	230	101300000	1000	0	0	-1	350
10958275	7325	622	0	-100	0	230	101300000	1000	0	0	-1	350
10970835	7329	614	0	-100	0	230	101300000	1000	0	0	-1	350
10983395	7325	618	0	-100	0	230	101300000	1000	0	0	-1	350
10995955	7315	620	0	-100	0	230	101300000	1000	0	0	-1	350
11008515	7310	617	0	-100	0	230	101300000	1000	0	0	-1	350
11021075	7320	613	0	-100	0	230	101300000	1000	0	0	-1	350
11033635	7318	616	0	-100	0	230	101300000	1000	0	0	-1	350
11046195	7330	620	0	-100	0	230	101300000	1000	0	0	-1	350
11058755	7322	617	0	-100	0	230	101300000	1000	0	0	-1	350
11071315	7328	614	0	-100	0	230	101300000	1000	0	0	-1	350
11083875	7331	612	0	-100	0	230	101300000	1000	0	0	-1	350
11096435	7303	616	0	-100	0	230	101300000	1000	0	0	-1	350
11108995	7320	616	0	-100	0	230	101300000	1000	0	0	-1	350
11121555	7332	617	0	-100	0	230	101300000	1000	0	0	-1	350
11134115	7321	618	0	-100	0	230	101300000	1000	0	0	-1	350
11146675	7322	616	0	-100	0	230	101300000	1000	0	0	-1	350
11159235	7340	613	0	-100	0	230	101300000	1000	0	0	-1	350
11171795	7333	612	0	-100	0	230	101300000	1000	0	0	-1	350
11184355	7318	615	0	-100	0	230	101300000	1000	0	0	-1	350
11196915	7325	614	0	-100	0	230	101300000	1000	0	0	-1	350
11209475	7330	614	0	-100	0	230	101300000	1000	0	0	-1	350
11222035	7323	626	0	-100	0	230	101300000	1000	0	0	-1	350
11234595	7319	614	0	-100	0	230	101300000	1000	0	0	-1	350
11247155	7337	618	0	-100	0	230	101300000	1000	0	0	-1	350
11259715	7330	612	0	-100	0	230	101300000	1000	0	0	-1	350
11272275	7318	616	0	-100	0	230	101300000	1000	0	0	-1	350
11284835	7329	619	0	-100	0	230	101300000	1000	0	0	-1	350
11297395	7332	613	0	-100	0	230	101300000	1000	0	0	-1	350
11309955	7310	621	0	-100	0	230	101300000	1000	0	0	-1	350
11322515	7322	614	0	-100	0	230	101300000	1000	0	0	-1	350
11335075	7326	616	0	-100	0	230	101300000	1000	0	0	-1	350
11347635	7327	619	0	-100	0	230	101300000	1000	0	0	-1	350
11360195	7327	615	0	-100	0	230	101300000	1000	0	0	-1	350
11372755	7330	616	0	-100	0	230	101300000	1000	0	0	-1	350
11385315	7319	619	0	-100	0	230	101300000	1000	0	0	-1	350
11397875	7328	614	0	-100	0	230	101300000	1000	0	0	-1	350
11410435	7335	620	0	-100	0	230	101300000	1000	0	0	-1	350
11422995	7342	617	0	-100	0	230	101300000	1000	0	0	-1	350
11435555	7297	615	0	-100	0	230	101300000	1000	0	0	-1	350
11448115	7320	616	0	-100	0	230	101300000	1000	0	0	-1	350
11460675	7332	614	0	-100	0	230	101300000	1000	0	0	-1	350
11473235	7317	623	0	-100	0	230	101300000	1000	0	0	-1	350
11485795	7336	611	0	-100	0	230	101300000	1000	0	0	-1	350
11498355	7320	615	0	-100	0	230	101300000	1000	0	0	-1	350
11510915	7324	617	0	-100	0	230	101300000	1000	0	0	-1	350
11523475	7318	615	0	-100	0	230	101300000	1000	0	0	-1	350
11536035	7324	620	0	-100	0	230	101300000	1000	0	0	-1	350
11548595	7324	611	0	-100	0	230	101300000	1000	0	0	-1	350
11561155	7314	618	0	-100	0	230	101300000	1000	0	0	-1	350
11573715	7316	616	0	-100	0	230	101300000	1000	0	0	-1	350
11586275	7318	617	0	-100	0	230	101300000	1000	0	0	-1	350
11598835	7326	618	0	-100	0	230	101300000	1000	0	0	-1	350
11611395	7321	613	0	-100	0	230	101300000	1000	0	0	-1	350
11623955	7323	620	0	-100	0	230	101300000	1000	0	0	-1	350
11636515	7328	614	0	-100	0	230	101300000	1000	0	0	-1	350
11649075	7351	618	0	-100	0	230	101300000	1000	0	0	-1	350
11661635	7329	620	0	-100	0	230	101300000	1000	0	0	-1	350
11674195	7325	614	0	-100	0	230	101300000	1000	0	0	-1	350
11686755	7323	620	0	-100	0	230	101300000	1000	0	0	-1	350
11699315	7336	609	0	-100	0	230	101300000	1000	0	0	-1	350
11711875	7344	622	0	-100	0	230	101300000	1000	0	0	-1	350
11724435	7334	612	0	-100	0	230	101300000	1000	0	0	-1	350
11736995	7313	612	0	-100	0	230	101300000	1000	0	0	-1	350
11749555	7317	617	0	-100	0	230	101300000	1000	0	0	-1	350
11762115	7326	612	0	-100	0	230	101300000	1000	0	0	-1	350
11774675	7327	621	0	-100	0	230	101300000	1000	0	0	-1	350
11787235	7327	615	0	-100	0	230	101300000	1000	0	0	-1	350
11799795	7330	613	0	-100	0	230	101300000	1000	0	0	-1	350
11812355	7325	622	0	-100	0	230	101300000	1000	0	0	-1	350
11824915	7325	620	0	-100	0	230	101300000	1000	0	0	-1	350
11837475	7333	616	0	-100	0	230	101300000	1000	0	0	-1	350
11850035	7351	625	0	-100	0	230	101300000	1000	0	0	-1	350
11862595	7371	622	0	-100	0	230	101300000	1000	0	0	-1	350
11875155	7400	624	0	-100	0	230	101300000	1000	0	0	-1	350
11887715	7396	633	0	-100	0	230	101300000	1000	0	0	-1	350
11900275	7395	627	0	-100	0	230	101300000	1000	0	0	-1	350
11912835	7405	625	0	-100	0	230	101300000	1000	0	0	-1	350
11925395	7393	629	0	-100	0	230	101300000	1000	0	0	-1	350
11937955	7396	628	0	-100	0	230	101300000	1000	0	0	-1	350
11950515	7405	624	0	-100	0	230	101300000	1000	0	0	-1	350
11963075	7386	628	0	-100	0	230	101300000	1000	0	0	-1	350
11975635	7400	630	0	-100	0	230	101300000	1000	0	0	-1	350
11988195	7408	626	0	-100	0	230	101300000	1000	0	0	-1	350
12000755	7405	632	0	-100	0	230	101300000	1000	0	0	-1	350
12013315	7403	627	0	-100	0	230	101300000	1000	0	0	-1	350
12025875	7405	626	0	-100	0	230	101300000	1000	0	0	-1	350
12038435	7404	627	0	-100	0	230	101300000	1000	0	0	-1	350
12050995	7400	628	0	-100	0	230	101300000	1000	0	0	-1	350
12063555	7414	631	0	-100	0	230	101300000	1000	0	0	-1	350
12076115	7413	624	0	-100	0	230	101300000	1000	0	0	-1	350
12088675	7393	633	0	-100	0	230	101300000	1000	0	0	-1	350
12101235	7405	627	0	-100	0	230	101300000	1000	0	0	-1	350
12113795	7407	625	0	-100	0	230	101300000	1000	0	0	-1	350
12126355	7402	630	0	-100	0	230	101300000	1000	0	0	-1	350
12138915	7410	628	0	-100	0	230	101300000	1000	0	0	-1	350
12151475	7388	632	0	-100	0	230	101300000	1000	0	0	-1	350
12164035	7405	626	0	-100	0	230	101300000	1000	0	0	-1	350
12176595	7395	624	0	-100	0	230	101300000	1000	0	0	-1	350
12189155	7402	634	0	-100	0	230	101300000	1000	0	0	-1	350
12201715	7408	629	0	-100	0	230	101300000	1000	0	0	-1	350
12214275	7401	628	0	-100	0	230	101300000	1000	0	0	-1	350
12226835	7407	633	0	-100	0	230	101300000	1000	0	0	-1	350
12239395	7412	625	0	-100	0	230	101300000	1000	0	0	-1	350
12251955	7399	624	0	-100	0	230	101300000	1000	0	0	-1	350
12264515	7400	632	0	-100	0	230	101300000	1000	0	0	-1	350
12277075	7408	624	0	-100	0	230	101300000	1000	0	0	-1	350
12289635	7396	625	0	-100	0	230	101300000	1000	0	0	-1	350
12302195	7399	629	0	-100	0	230	101300000	1000	0	0	-1	350
12314755	7401	626	0	-100	0	230	101300000	1000	0	0	-1	350
12327315	7405	635	0	-100	0	230	101300000	1000	0	0	-1	350
12339875	7395	624	0	-100	0	230	101300000	1000	0	0	-1	350
12352435	7403	625	0	-100	0	230	101300000	1000	0	0	-1	350
12364995	7404	625	0	-100	0	230	101300000	1000	0	0	-1	350
12377555	7398	627	0	-100	0	230	101300000	1000	0	0	-1	350
12390115	7393	624	0	-100	0	230	101300000	1000	0	0	-1	350
12402675	7405	633	0	-100	0	230	101300000	1000	0	0	-1	350
12415235	7415	627	0	-100	0	230	101300000	1000	0	0	-1	350
12427795	7404	625	0	-100	0	230	101300000	1000	0	0	-1	350
12440355	7401	633	0	-100	0	230	101300000	1000	0	0	-1	350
12452915	7412	628	0	-100	0	230	101300000	1000	0	0	-1	350
12465475	7410	627	0	-100	0	230	101300000	1000	0	0	-1	350
12478035	7403	634	0	-100	0	230	101300000	1000	0	0	-1	350
12490595	7409	626	0	-100	0	230	101300000	1000	0	0	-1	350
12503155	7390	624	0	-100	0	230	101300000	1000	0	0	-1	350
12515715	7391	631	0	-100	0	230	101300000	1000	0	0	-1	350
12528275	7405	625	0	-100	0	230	101300000	1000	0	0	-1	350
12540835	7398	631	0	-100	0	230	101300000	1000	0	0	-1	350
12553395	7403	623	0	-100	0	230	101300000	1000	0	0	-1	350
12565955	7407	631	0	-100	0	230	101300000	1000	0	0	-1	350
12578515	7407	632	0	-100	0	230	101300000	1000	0	0	-1	350
12591075	7412	622	0	-100	0	230	101300000	1000	0	0	-1	350
12603635	7394	626	0	-100	0	230	101300000	1000	0	0	-1	350
12616195	7408	634	0	-100	0	230	101300000	1000	0	0	-1	350
12628755	7409	627	0	-100	0	230	101300000	1000	0	0	-1	350
12641315	7407	626	0	-100	0	230	101300000	1000	0	0	-1	350
12653875	7397	631	0	-100	0	230	101300000	1000	0	0	-1	350
12666435	7398	628	0	-100	0	230	101300000	1000	0	0	-1	350
12678995	7400	632	0	-100	0	230	101300000	1000	0	0	-1	350
12691555	7399	629	0	-100	0	230	101300000	1000	0	0	-1	350
12704115	7405	634	0	-100	0	230	101300000	1000	0	0	-1	350
12716675	7401	626	0	-100	0	230	101300000	1000	0	0	-1	350
12729235	7389	629	0	-100	0	230	101300000	1000	0	0	-1	350
12741795	7400	628	0	-100	0	230	101300000	1000	0	0	-1	350
12754355	7403	624	0	-100	0	230	101300000	1000	0	0	-1	350
12766915	7407	634	0	-100	0	230	101300000	1000	0	0	-1	350
12779475	7412	625	0	-100	0	230	101300000	1000	0	0	-1	350
12792035	7389	624	0	-100	0	230	101300000	1000	0	0	-1	350
12804595	7399	632	0	-100	0	230	101300000	1000	0	0	-1	350
12817155	7422	626	0	-100	0	230	101300000	1000	0	0	-1	350
12829715	7401	629	0	-100	0	230	101300000	1000	0	0	-1	350
12842275	7396	629	0	-100	0	230	101300000	1000	0	0	-1	350
12854835	7403	625	0	-100	0	230	101300000	1000	0	0	-1	350
12867395	7393	632	0	-100	0	230	101300000	1000	0	0	-1	350
12879955	7403	625	0	-100	0	230	101300000	1000	0	0	-1	350
12892515	7403	633	0	-100	0	230	101300000	1000	0	0	-1	350
12905075	7409	624	0	-100	0	230	101300000	1000	0	0	-1	350
12917635	7407	630	0	-100	0	230	101300000	1000	0	0	-1	350
12930195	7398	633	0	-100	0	230	101300000	1000	0	0	-1	350
12942755	7405	626	0	-100	0	230	101300000	1000	0	0	-1	350
12955315	7403	628	0	-100	0	230	101300000	1000	0	0	-1	350
12967875	7407	634	0	-100	0	230	101300000	1000	0	0	-1	350
12980435	7407	630	0	-100	0	230	101300000	1000	0	0	-1	350
12992995	7401	632	0	-100	0	230	101300000	1000	0	0	-1	350
13005555	7403	627	0	-100	0	230	101300000	1000	0	0	-1	350
13018115	7396	632	0	-100	0	230	101300000	1000	0	0	-1	350
13030675	7403	624	0	-100	0	230	101300000	1000	0	0	-1	350
13043235	7391	625	0	-100	0	230	101300000	1000	0	0	-1	350
13055795	7400	635	0	-100	0	230	101300000	1000	0	0	-1	350
13068355	7411	632	0	-100	0	230	101300000	1000	0	0	-1	350
13080915	7403	623	0	-100	0	230	101300000	1000	0	0	-1	350
13093475	7401	629	0	-100	0	230	101300000	1000	0	0	-1	350
13106035	7403	633	0	-100	0	230	101300000	1000	0	0	-1	350
13118595	7405	627	0	-100	0	230	101300000	1000	0	0	-1	350
13131155	7394	626	0	-100	0	230	101300000	1000	0	0	-1	350
13143715	7397	632	0	-100	0	230	101300000	1000	0	0	-1	350
13156275	7407	623	0	-100	0	230	101300000	1000	0	0	-1	350
13168835	7417	631	0	-100	0	230	101300000	1000	0	0	-1	350
13181395	7400	624	0	-100	0	230	101300000	1000	0	0	-1	350
13193955	7396	624	0	-100	0	230	101300000	1000	0	0	-1	350
13206515	7401	632	0	-100	0	230	101300000	1000	0	0	-1	350
13219075	7408	626	0	-100	0	230	101300000	1000	0	0	-1	350
13231635	7401	632	0	-100	0	230	101300000	1000	0	0	-1	350
13244195	7412	632	0	-100	0	230	101300000	1000	0	0	-1	350
13256755	7400	625	0	-100	0	230	101300000	1000	0	0	-1	350
13269315	7395	630	0	-100	0	230	101300000	1000	0	0	-1	350
13281875	7403	626	0	-100	0	230	101300000	1000	0	0	-1	350
13294435	7405	624	0	-100	0	230	101300000	1000	0	0	-1	350
13306995	7402	623	0	-100	0	230	101300000	1000	0	0	-1	350
13319555	7401	624	0	-100	0	230	101300000	1000	0	0	-1	350
13332115	7400	630	0	-100	0	230	101300000	1000	0	0	-1	350
13344675	7403	626	0	-100	0	230	101300000	1000	0	0	-1	350
13357235	7393	627	0	-100	0	230	101300000	1000	0	0	-1	350
13369795	7395	630	0	-100	0	230	101300000	1000	0	0	-1	350
13382355	7409	622	0	-100	0	230	101300000	1000	0	0	-1	350
13394915	7391	624	0	-100	0	230	101300000	1000	0	0	-1	350
13407475	7398	633	0	-100	0	230	101300000	1000	0	0	-1	350
13420035	7400	629	0	-100	0	230	101300000	1000	0	0	-1	350
13432595	7412	627	0	-100	0	230	101300000	1000	0	0	-1	350
13445155	7405	630	0	-100	0	230	101300000	1000	0	0	-1	350
13457715	7397	627	0	-100	0	230	101300000	1000	0	0	-1	350
13470275	7413	627	0	-100	0	230	101300000	1000	0	0	-1	350
13482835	7402	634	0	-100	0	230	101300000	1000	0	0	-1	350
13495395	7402	626	0	-100	0	230	101300000	1000	0	0	-1	350
13507955	7405	625	0	-100	0	230	101300000	1000	0	0	-1	350
13520515	7389	629	0	-100	0	230	101300000	1000	0	0	-1	350
13533075	7392	630	0	-100	0	230	101300000	1000	0	0	-1	350
13545635	7401	625	0	-100	0	230	101300000	1000	0	0	-1	350
13558195	7405	625	0	-100	0	230	101300000	1000	0	0	-1	350
13570755	7398	628	0	-100	0	230	101300000	1000	0	0	-1	350
13583315	7396	635	0	-100	0	230	101300000	1000	0	0	-1	350
13595875	7410	625	0	-100	0	230	101300000	1000	0	0	-1	350
13608435	7409	627	0	-100	0	230	101300000	1000	0	0	-1	350
13620995	7395	624	0	-100	0	230	101300000	1000	0	0	-1	350
13633555	7405	633	0	-100	0	230	101300000	1000	0	0	-1	350
13646115	7412	626	0	-100	0	230	101300000	1000	0	0	-1	350
13658675	7403	627	0	-100	0	230	101300000	1000	0	0	-1	350
13671235	7395	634	0	-100	0	230	101300000	1000	0	0	-1	350
13683795	7401	625	0	-100	0	230	101300000	1000	0	0	-1	350
13696355	7403	627	0	-100	0	230	101300000	1000	0	0	-1	350
13708915	7397	633	0	-100	0	230	101300000	1000	0	0	-1	350
13721475	7405	625	0	-100	0	230	101300000	1000	0	0	-1	350
13734035	7412	627	0	-100	0	230	101300000	1000	0	0	-1	350
13746595	7396	632	0	-100	0	230	101300000	1000	0	0	-1	350
13759155	7403	622	0	-100	0	230	101300000	1000	0	0	-1	350
13771715	7400	630	0	-100	0	230	101300000	1000	0	0	-1	350
13784275	7393	629	0	-100	0	230	101300000	1000	0	0	-1	350
13796835	7405	623	0	-100	0	230	101300000	1000	0	0	-1	350
13809395	7397	625	0	-100	0	230	101300000	1000	0	0	-1	350
13821955	7402	632	0	-100	0	230	101300000	1000	0	0	-1	350
13834515	7400	626	0	-100	0	230	101300000	1000	0	0	-1	350
13847075	7403	624	0	-100	0	230	101300000	1000	0	0	-1	350
13859635	7398	625	0	-100	0	230	101300000	1000	0	0	-1	350
13872195	7395	630	0	-100	0	230	101300000	1000	0	0	-1	350
13884755	7413	628	0	-100	0	230	101300000	1000	0	0	-1	350
13897315	7403	626	0	-100	0	230	101300000	1000	0	0	-1	350
13909875	7393	629	0	-100	0	230	101300000	1000	0	0	-1	350
13922435	7398	632	0	-100	0	230	101300000	1000	0	0	-1	350
13934995	7414	632	0	-100	0	230	101300000	1000	0	0	-1	350
13947555	7401	625	0	-100	0	230	101300000	1000	0	0	-1	350
13960115	7401	631	0	-100	0	230	101300000	1000	0	0	-1	350
13972675	7402	629	0	-100	0	230	101300000	1000	0	0	-1	350
13985235	7408	628	0	-100	0	230	101300000	1000	0	0	-1	350
13997795	7407	630	0	-100	0	230	101300000	1000	0	0	-1	350
14010355	7405	630	0	-100	0	230	101300000	1000	0	0	-1	350
14022915	7399	625	0	-100	0	230	101300000	1000	0	0	-1	350
14035475	7405	633	0	-100	0	230	101300000	1000	0	0	-1	350
14048035	7407	626	0	-100	0	230	101300000	1000	0	0	-1	350
14060595	7404	627	0	-100	0	230	101300000	1000	0	0	-1	350
14073155	7397	633	0	-100	0	230	101300000	1000	0	0	-1	350
14085715	7408	625	0	-100	0	230	101300000	1000	0	0	-1	350
14098275	7397	623	0	-100	0	230	101300000	1000	0	0	-1	350
14110835	7401	630	0	-100	0	230	101300000	1000	0	0	-1	350
14123395	7396	630	0	-100	0	230	101300000	1000	0	0	-1	350
14135955	7410	623	0	-100	0	230	101300000	1000	0	0	-1	350
14148515	7404	626	0	-100	0	230	101300000	1000	0	0	-1	350
14161075	7405	632	0	-100	0	230	101300000	1000	0	0	-1	350
14173635	7414	627	0	-100	0	230	101300000	1000	0	0	-1	350
14186195	7405	626	0	-100	0	230	101300000	1000	0	0	-1	350
14198755	7401	629	0	-100	0	230	101300000	1000	0	0	-1	350
14211315	7402	634	0	-100	0	230	101300000	1000	0	0	-1	350
14223875	7398	627	0	-100	0	230	101300000	1000	0	0	-1	350
14236435	7408	622	0	-100	0	230	101300000	1000	0	0	-1	350
14248995	7399	630	0	-100	0	230	101300000	1000	0	0	-1	350
14261555	7400	634	0	-100	0	230	101300000	1000	0	0	-1	350
14274115	7402	633	0	-100	0	230	101300000	1000	0	0	-1	350
14286675	7399	624	0	-100	0	230	101300000	1000	0	0	-1	350
14299235	7405	626	0	-100	0	230	101300000	1000	0	0	-1	350
14311795	7405	634	0	-100	0	230	101300000	1000	0	0	-1	350
14324355	7421	629	0	-100	0	230	101300000	1000	0	0	-1	350
14336915	7405	627	0	-100	0	230	101300000	1000	0	0	-1	350
14349475	7398	625	0	-100	0	230	101300000	1000	0	0	-1	350
14362035	7399	629	0	-100	0	230	101300000	1000	0	0	-1	350
14374595	7405	631	0	-100	0	230	101300000	1000	0	0	-1	350
14387155	7405	624	0	-100	0	230	101300000	1000	0	0	-1	350
14399715	7405	627	0	-100	0	230	101300000	1000	0	0	-1	350
14412275	7406	629	0	-100	0	230	101300000	1000	0	0	-1	350
14424835	7411	623	0	-100	0	230	101300000	1000	0	0	-1	350
14437395	7398	629	0	-100	0	230	101300000	1000	0	0	-1	350
14449955	7411	628	0	-100	0	230	101300000	1000	0	0	-1	350
14462515	7408	625	0	-100	0	230	101300000	1000	0	0	-1	350
14475075	7399	631	0	-100	0	230	101300000	1000	0	0	-1	350
14487635	7407	626	0	-100	0	230	101300000	1000	0	0	-1	350
14500195	7398	632	0	-100	0	230	101300000	1000	0	0	-1	350
14512755	7412	626	0	-100	0	230	101300000	1000	0	0	-1	350
14525315	7399	630	0	-100	0	230	101300000	1000	0	0	-1	350
14537875	7407	626	0	-100	0	230	101300000	1000	0	0	-1	350
14550435	7405	627	0	-100	0	230	101300000	1000	0	0	-1	350
14562995	7407	627	0	-100	0	230	101300000	1000	0	0	-1	350
14575555	7407	622	0	-100	0	230	101300000	1000	0	0	-1	350
14588115	7391	629	0	-100	0	230	101300000	1000	0	0	-1	350
14600675	7401	632	0	-100	0	230	101300000	1000	0	0	-1	350
14613235	7417	626	0	-100	0	230	101300000	1000	0	0	-1	350
14625795	7403	624	0	-100	0	230	101300000	1000	0	0	-1	350
14638355	7402	632	0	-100	0	230	101300000	1000	0	0	-1	350
14650915	7416	627	0	-100	0	230	101300000	1000	0	0	-1	350
14663475	7407	626	0	-100	0	230	101300000	1000	0	0	-1	350
14676035	7413	629	0	-100	0	230	101300000	1000	0	0	-1	350
14688595	7405	628	0	-100	0	230	101300000	1000	0	0	-1	350
14701155	7398	631	0	-100	0	230	101300000	1000	0	0	-1	350
14713715	7405	632	0	-100	0	230	101300000	1000	0	0	-1	350
14726275	7398	630	0	-100	0	230	101300000	1000	0	0	-1	350
14738835	7405	629	0	-100	0	230	101300000	1000	0	0	-1	350
14751395	7410	628	0	-100	0	230	101300000	1000	0	0	-1	350
14763955	7403	625	0	-100	0	230	101300000	1000	0	0	-1	350
14776515	7401	625	0	-100	0	230	101300000	1000	0	0	-1	350
14789075	7398	630	0	-100	0	230	101300000	1000	0	0	-1	350
14801635	7396	625	0	-100	0	230	101300000	1000	0	0	-1	350
14814195	7401	627	0	-100	0	230	101300000	1000	0	0	-1	350
14826755	7410	634	0	-100	0	230	101300000	1000	0	0	-1	350
14839315	7414	626	0	-100	0	230	101300000	1000	0	0	-1	350
14851875	7410	626	0	-100	0	230	101300000	1000	0	0	-1	350
14864435	7403	629	0	-100	0	230	101300000	1000	0	0	-1	350
14876995	7397	628	0	-100	0	230	101300000	1000	0	0	-1	350
14889555	7405	622	0	-100	0	230	101300000	1000	0	0	-1	350
14902115	7394	626	0	-100	0	230	101300000	1000	0	0	-1	350
14914675	7400	630	0	-100	0	230	101300000	1000	0	0	-1	350
14927235	7412	629	0	-100	0	230	101300000	1000	0	0	-1	350
14939795	7408	620	0	-100	0	230	101300000	1000	0	0	-1	350
14952355	7408	627	0	-100	0	230	101300000	1000	0	0	-1	350
14964915	7403	632	0	-100	0	230	101300000	1000	0	0	-1	350
14977475	7407	626	0	-100	0	230	101300000	1000	0	0	-1	350
14990035	7407	627	0	-100	0	230	101300000	1000	0	0	-1	350
15002595	7393	627	0	-100	0	230	101300000	1000	0	0	-1	350
15015155	7410	634	0	-100	0	230	101300000	1000	0	0	-1	350
15027715	7407	629	0	-100	0	230	101300000	1000	0	0	-1	350
15040275	7400	629	0	-100	0	230	101300000	1000	0	0	-1	350
15052835	7400	624	0	-100	0	230	101300000	1000	0	0	-1	350
15065395	7400	631	0	-100	0	230	101300000	1000	0	0	-1	350
15077955	7400	630	0	-100	0	230	101300000	1000	0	0	-1	350
15090515	7407	623	0	-100	0	230	101300000	1000	0	0	-1	350
15103075	7389	623	0	-100	0	230	101300000	1000	0	0	-1	350
15115635	7410	633	0	-100	0	230	101300000	1000	0	0	-1	350
15128195	7407	632	0	-100	0	230	101300000	1000	0	0	-1	350
15140755	7416	627	0	-100	0	230	101300000	1000	0	0	-1	350
15153315	7408	625	0	-100	0	230	101300000	1000	0	0	-1	350
15165875	7410	625	0	-100	0	230	101300000	1000	0	0	-1	350
15178435	7401	627	0	-100	0	230	101300000	1000	0	0	-1	350
15190995	7396	627	0	-100	0	230	101300000	1000	0	0	-1	350
15203555	7399	635	0	-100	0	230	101300000	1000	0	0	-1	350
15216115	7405	631	0	-100	0	230	101300000	1000	0	0	-1	350
15228675	7404	627	0	-100	0	230	101300000	1000	0	0	-1	350
15241235	7406	625	0	-100	0	230	101300000	1000	0	0	-1	350
15253795	7404	626	0	-100	0	230	101300000	1000	0	0	-1	350
15266355	7407	626	0	-100	0	230	101300000	1000	0	0	-1	350
15278915	7417	633	0	-100	0	230	101300000	1000	0	0	-1	350
15291475	7405	633	0	-100	0	230	101300000	1000	0	0	-1	350
15304035	7402	624	0	-100	0	230	101300000	1000	0	0	-1	350
15316595	7409	627	0	-100	0	230	101300000	1000	0	0	-1	350
15329155	7402	626	0	-100	0	230	101300000	1000	0	0	-1	350
15341715	7391	629	0	-100	0	230	101300000	1000	0	0	-1	350
15354275	7393	634	0	-100	0	230	101300000	1000	0	0	-1	350
15366835	7405	626	0	-100	0	230	101300000	1000	0	0	-1	350
15379395	7405	625	0	-100	0	230	101300000	1000	0	0	-1	350
15391955	7399	631	0	-100	0	230	101300000	1000	0	0	-1	350
15404515	7405	635	0	-100	0	230	101300000	1000	0	0	-1	350
15417075	7408	627	0	-100	0	230	101300000	1000	0	0	-1	350
15429635	7408	624	0	-100	0	230	101300000	1000	0	0	-1	350
15442195	7408	625	0	-100	0	230	101300000	1000	0	0	-1	350
15454755	7403	625	0	-100	0	230	101300000	1000	0	0	-1	350
15467315	7398	626	0	-100	0	230	101300000	1000	0	0	-1	350
15479875	7398	629	0	-100	0	230	101300000	1000	0	0	-1	350
15492435	7403	633	0	-100	0	230	101300000	1000	0	0	-1	350
15504995	7408	625	0	-100	0	230	101300000	1000	0	0	-1	350
15517555	7407	631	0	-100	0	230	101300000	1000	0	0	-1	350
15530115	7396	631	0	-100	0	230	101300000	1000	0	0	-1	350
15542675	7396	628	0	-100	0	230	101300000	1000	0	0	-1	350
15555235	7402	626	0	-100	0	230	101300000	1000	0	0	-1	350
15567795	7416	624	0	-100	0	230	101300000	1000	0	0	-1	350
15580355	7403	626	0	-100	0	230	101300000	1000	0	0	-1	350
15592915	7392	624	0	-100	0	230	101300000	1000	0	0	-1	350
15605475	7396	630	0	-100	0	230	101300000	1000	0	0	-1	350
15618035	7406	630	0	-100	0	230	101300000	1000	0	0	-1	350
15630595	7412	629	0	-100	0	230	101300000	1000	0	0	-1	350
15643155	7409	628	0	-100	0	230	101300000	1000	0	0	-1	350
15655715	7399	624	0	-100	0	230	101300000	1000	0	0	-1	350
15668275	7407	623	0	-100	0	230	101300000	1000	0	0	-1	350
15680835	7390	630	0	-100	0	230	101300000	1000	0	0	-1	350
15693395	7398	634	0	-100	0	230	101300000	1000	0	0	-1	350
15705955	7400	634	0	-100	0	230	101300000	1000	0	0	-1	350
15718515	7411	626	0	-100	0	230	101300000	1000	0	0	-1	350
15731075	7412	626	0	-100	0	230	101300000	1000	0	0	-1	350
15743635	7410	626	0	-100	0	230	101300000	1000	0	0	-1	350
15756195	7407	633	0	-100	0	230	101300000	1000	0	0	-1	350
15768755	7403	626	0	-100	0	230	101300000	1000	0	0	-1	350
15781315	7405	626	0	-100	0	230	101300000	1000	0	0	-1	350
15793875	7402	630	0	-100	0	230	101300000	1000	0	0	-1	350
15806435	7403	630	0	-100	0	230	101300000	1000	0	0	-1	350
15818995	7409	633	0	-100	0	230	101300000	1000	0	0	-1	350
15831555	7405	621	0	-100	0	230	101300000	1000	0	0	-1	350
15844115	7405	623	0	-100	0	230	101300000	1000	0	0	-1	350
15856675	7405	629	0	-100	0	230	101300000	1000	0	0	-1	350
15869235	7390	631	0	-100	0	230	101300000	1000	0	0	-1	350
15881795	7407	625	0	-100	0	230	101300000	1000	0	0	-1	350
15894355	7407	626	0	-100	0	230	101300000	1000	0	0	-1	350
15906915	7400	629	0	-100	0	230	101300000	1000	0	0	-1	350
15919475	7388	635	0	-100	0	230	101300000	1000	0	0	-1	350
15932035	7402	626	0	-100	0	230	101300000	1000	0	0	-1	350
15944595	7410	626	0	-100	0	230	101300000	1000	0	0	-1	350
15957155	7404	633	0	-100	0	230	101300000	1000	0	0	-1	350
15969715	7405	626	0	-100	0	230	101300000	1000	0	0	-1	350
15982275	7403	625	0	-100	0	230	101300000	1000	0	0	-1	350
15994835	7400	630	0	-100	0	230	101300000	1000	0	0	-1	350
16007395	7409	626	0	-100	0	230	101300000	1000	0	0	-1	350
16019955	7408	628	0	-100	0	230	101300000	1000	0	0	-1	350
16032515	7407	629	0	-100	0	230	101300000	1000	0	0	-1	350
16045075	7394	624	0	-100	0	230	101300000	1000	0	0	-1	350
16057635	7401	632	0	-100	0	230	101300000	1000	0	0	-1	350
16070195	7406	623	0	-100	0	230	101300000	1000	0	0	-1	350
16082755	7405	631	0	-100	0	230	101300000	1000	0	0	-1	350
16095315	7400	631	0	-100	0	230	101300000	1000	0	0	-1	350
16107875	7403	621	0	-100	0	230	101300000	1000	0	0	-1	350
16120435	7398	625	0	-100	0	230	101300000	1000	0	0	-1	350
16132995	7396	624	0	-100	0	230	101300000	1000	0	0	-1	350
16145555	7410	627	0	-100	0	230	101300000	1000	0	0	-1	350
16158115	7410	627	0	-100	0	230	101300000	1000	0	0	-1	350
16170675	7407	631	0	-100	0	230	101300000	1000	0	0	-1	350
16183235	7408	624	0	-100	0	230	101300000	1000	0	0	-1	350
16195795	7409	630	0	-100	0	230	101300000	1000	0	0	-1	350
16208355	7400	631	0	-100	0	230	101300000	1000	0	0	-1	350
16220915	7408	626	0	-100	0	230	101300000	1000	0	0	-1	350
16233475	7398	629	0	-100	0	230	101300000	1000	0	0	-1	350
16246035	7410	629	0	-100	0	230	101300000	1000	0	0	-1	350
16258595	7403	629	0	-100	0	230	101300000	1000	0	0	-1	350
16271155	7401	629	0	-100	0	230	101300000	1000	0	0	-1	350
16283715	7400	626	0	-100	0	230	101300000	1000	0	0	-1	350
16296275	7413	624	0	-100	0	230	101300000	1000	0	0	-1	350
16308835	7411	635	0	-100	0	230	101300000	1000	0	0	-1	350
16321395	7403	625	0	-100	0	230	101300000	1000	0	0	-1	350
16333955	7395	631	0	-100	0	230	101300000	1000	0	0	-1	350
16346515	7409	626	0	-100	0	230	101300000	1000	0	0	-1	350
16359075	7396	632	0	-100	0	230	101300000	1000	0	0	-1	350
16371635	7395	626	0	-100	0	230	101300000	1000	0	0	-1	350
16384195	7404	624	0	-100	0	230	101300000	1000	0	0	-1	350
16396755	7398	634	0	-100	0	230	101300000	1000	0	0	-1	350
16409315	7407	629	0	-100	0	230	101300000	1000	0	0	-1	350
16421875	7403	626	0	-100	0	230	101300000	1000	0	0	-1	350
16434435	7407	632	0	-100	0	230	101300000	1000	0	0	-1	350
16446995	7405	626	0	-100	0	230	101300000	1000	0	0	-1	350
16459555	7407	626	0	-100	0	230	101300000	1000	0	0	-1	350
16472115	7392	629	0	-100	0	230	101300000	1000	0	0	-1	350
16484675	7412	625	0	-100	0	230	101300000	1000	0	0	-1	350
16497235	7400	633	0	-100	0	230	101300000	1000	0	0	-1	350
16509795	7408	626	0	-100	0	230	101300000	1000	0	0	-1	350
16522355	7401	632	0	-100	0	230	101300000	1000	0	0	-1	350
16534915	7401	629	0	-100	0	230	101300000	1000	0	0	-1	350
16547475	7419	628	0	-100	0	230	101300000	1000	0	0	-1	350
16560035	7407	632	0	-100	0	230	101300000	1000	0	0	-1	350
16572595	7411	628	0	-100	0	230	101300000	1000	0	0	-1	350
16585155	7399	629	0	-100	0	230	101300000	1000	0	0	-1	350
16597715	7401	632	0	-100	0	230	101300000	1000	0	0	-1	350
16610275	7397	622	0	-100	0	230	101300000	1000	0	0	-1	350
16622835	7398	630	0	-100	0	230	101300000	1000	0	0	-1	350
16635395	7403	629	0	-100	0	230	101300000	1000	0	0	-1	350
16647955	7414	626	0	-100	0	230	101300000	1000	0	0	-1	350
16660515	7400	626	0	-100	0	230	101300000	1000	0	0	-1	350
16673075	7402	636	0	-100	0	230	101300000	1000	0	0	-1	350
16685635	7404	626	0	-100	0	230	101300000	1000	0	0	-1	350
16698195	7402	633	0	-100	0	230	101300000	1000	0	0	-1	350
16710755	7409	626	0	-100	0	230	101300000	1000	0	0	-1	350
16723315	7415	629	0	-100	0	230	101300000	1000	0	0	-1	350
16735875	7398	629	0	-100	0	230	101300000	1000	0	0	-1	350
16748435	7403	624	0	-100	0	230	101300000	1000	0	0	-1	350
16760995	7398	625	0	-100	0	230	101300000	1000	0	0	-1	350
16773555	7400	624	0	-100	0	230	101300000	1000	0	0	-1	350
16786115	7398	627	0	-100	0	230	101300000	1000	0	0	-1	350
16798675	7396	630	0	-100	0	230	101300000	1000	0	0	-1	350
16811235	7416	626	0	-100	0	230	101300000	1000	0	0	-1	350
16823795	7382	599	0	-100	0	230	101300000	1000	0	0	-1	350
16836355	7343	569	0	-100	0	230	101300000	1000	0	0	-1	350
16848915	7348	588	0	-100	0	230	101300000	1000	0	0	-1	350
16861475	7395	615	0	-100	0	230	101300000	1000	0	0	-1	350
16874035	7410	630	0	-100	0	230	101300000	1000	0	0	-1	350
16886595	7411	624	0	-100	0	230	101300000	1000	0	0	-1	350
16899155	7407	634	0	-100	0	230	101300000	1000	0	0	-1	350
16911715	7412	625	0	-100	0	230	101300000	1000	0	0	-1	350
16924275	7399	629	0	-100	0	230	101300000	1000	0	0	-1	350
16936835	7409	624	0	-100	0	230	101300000	1000	0	0	-1	350
16949395	7408	609	0	-100	0	230	101300000	1000	0	0	-1	350
16961955	7390	609	0	-100	0	230	101300000	1000	0	0	-1	350
16974515	7413	623	0	-100	0	230	101300000	1000	0	0	-1	350
16987075	7409	631	0	-100	0	230	101300000	1000	0	0	-1	350
16999635	7413	628	0	-100	0	230	101300000	1000	0	0	-1	350
17012195	7400	630	0	-100	0	230	101300000	1000	0	0	-1	350
17024755	7403	625	0	-100	0	230	101300000	1000	0	0	-1	350
17037315	7417	597	0	-100	0	230	101300000	1000	0	0	-1	350
17049875	7416	572	0	-100	0	230	101300000	1000	0	0	-1	350
17062435	7388	568	0	-100	0	230	101300000	1000	0	0	-1	350
17074995	7405	568	0	-100	0	230	101300000	1000	0	0	-1	350
17087555	7375	563	0	-100	0	230	101300000	1000	0	0	-1	350
17100115	7411	561	0	-100	0	230	101300000	1000	0	0	-1	350
17112675	7393	564	0	-100	0	230	101300000	1000	0	0	-1	350
17125235	7386	556	0	-100	0	230	101300000	1000	0	0	-1	350
17137795	7375	565	0	-100	0	230	101300000	1000	0	0	-1	350
17150355	7390	562	0	-100	0	230	101300000	1000	0	0	-1	350
17162915	7389	565	0	-100	0	230	101300000	1000	0	0	-1	350
17175475	7401	559	0	-100	0	230	101300000	1000	0	0	-1	350
17188035	7403	560	0	-100	0	230	101300000	1000	0	0	-1	350
17200595	7413	567	0	-100	0	230	101300000	1000	0	0	-1	350
17213155	7412	561	0	-100	0	230	101300000	1000	0	0	-1	350
17225715	7408	563	0	-100	0	230	101300000	1000	0	0	-1	350
17238275	7424	558	0	-100	0	230	101300000	1000	0	0	-1	350
17250835	7403	564	0	-100	0	230	101300000	1000	0	0	-1	350
17263395	7388	563	0	-100	0	230	101300000	1000	0	0	-1	350
17275955	7401	559	0	-100	0	230	101300000	1000	0	0	-1	350
17288515	7385	568	0	-100	0	230	101300000	1000	0	0	-1	350
17301075	7398	561	0	-100	0	230	101300000	1000	0	0	-1	350
17313635	7385	566	0	-100	0	230	101300000	1000	0	0	-1	350
17326195	7407	558	0	-100	0	230	101300000	1000	0	0	-1	350
17338755	7392	565	0	-100	0	230	101300000	1000	0	0	-1	350
17351315	7393	561	0	-100	0	230	101300000	1000	0	0	-1	350
17363875	7403	566	0	-100	0	230	101300000	1000	0	0	-1	350
17376435	7383	564	0	-100	0	230	101300000	1000	0	0	-1	350
17388995	7421	568	0	-100	0	230	101300000	1000	0	0	-1	350
17401555	7400	570	0	-100	0	230	101300000	1000	0	0	-1	350
17414115	7405	561	0	-100	0	230	101300000	1000	0	0	-1	350
17426675	7411	567	0	-100	0	230	101300000	1000	0	0	-1	350
17439235	7395	559	0	-100	0	230	101300000	1000	0	0	-1	350
17451795	7405	561	0	-100	0	230	101300000	1000	0	0	-1	350
17464355	7391	566	0	-100	0	230	101300000	1000	0	0	-1	350
17476915	7410	560	0	-100	0	230	101300000	1000	0	0	-1	350
17489475	7395	566	0	-100	0	230	101300000	1000	0	0	-1	350
17502035	7410	561	0	-100	0	230	101300000	1000	0	0	-1	350
17514595	7405	562	0	-100	0	230	101300000	1000	0	0	-1	350
17527155	7410	562	0	-100	0	230	101300000	1000	0	0	-1	350
17539715	7397	561	0	-100	0	230	101300000	1000	0	0	-1	350
17552275	7382	565	0	-100	0	230	101300000	1000	0	0	-1	350
17564835	7413	562	0	-100	0	230	101300000	1000	0	0	-1	350
17577395	7417	568	0	-100	0	230	101300000	1000	0	0	-1	350
17589955	7401	560	0	-100	0	230	101300000	1000	0	0	-1	350
17602515	7420	559	0	-100	0	230	101300000	1000	0	0	-1	350
17615075	7398	564	0	-100	0	230	101300000	1000	0	0	-1	350
17627635	7399	558	0	-100	0	230	101300000	1000	0	0	-1	350
17640195	7401	569	0	-100	0	230	101300000	1000	0	0	-1	350
17652755	7408	560	0	-100	0	230	101300000	1000	0	0	-1	350
17665315	7417	563	0	-100	0	230	101300000	1000	0	0	-1	350
17677875	7395	566	0	-100	0	230	101300000	1000	0	0	-1	350
17690435	7392	556	0	-100	0	230	101300000	1000	0	0	-1	350
17702995	7390	561	0	-100	0	230	101300000	1000	0	0	-1	350
17715555	7415	561	0	-100	0	230	101300000	1000	0	0	-1	350
17728115	7422	563	0	-100	0	230	101300000	1000	0	0	-1	350
17740675	7415	565	0	-100	0	230	101300000	1000	0	0	-1	350
17753235	7410	560	0	-100	0	230	101300000	1000	0	0	-1	350
17765795	7431	565	0	-100	0	230	101300000	1000	0	0	-1	350
17778355	7407	559	0	-100	0	230	101300000	1000	0	0	-1	350
17790915	7409	564	0	-100	0	230	101300000	1000	0	0	-1	350
17803475	7397	566	0	-100	0	230	101300000	1000	0	0	-1	350
17816035	7409	560	0	-100	0	230	101300000	1000	0	0	-1	350
17828595	7399	568	0	-100	0	230	101300000	1000	0	0	-1	350
17841155	7393	558	0	-100	0	230	101300000	1000	0	0	-1	350
17853715	7401	562	0	-100	0	230	101300000	1000	0	0	-1	350
17866275	7392	566	0	-100	0	230	101300000	1000	0	0	-1	350
17878835	7415	559	0	-100	0	230	101300000	1000	0	0	-1	350
17891395	7392	562	0	-100	0	230	101300000	1000	0	0	-1	350
17903955	7405	564	0	-100	0	230	101300000	1000	0	0	-1	350
17916515	7418	562	0	-100	0	230	101300000	1000	0	0	-1	350
17929075	7417	562	0	-100	0	230	101300000	1000	0	0	-1	350
17941635	7397	563	0	-100	0	230	101300000	1000	0	0	-1	350
17954195	7405	561	0	-100	0	230	101300000	1000	0	0	-1	350
17966755	7410	566	0	-100	0	230	101300000	1000	0	0	-1	350
17979315	7410	563	0	-100	0	230	101300000	1000	0	0	-1	350
17991875	7426	559	0	-100	0	230	101300000	1000	0	0	-1	350
18004435	7414	567	0	-100	0	230	101300000	1000	0	0	-1	350
18016995	7410	564	0	-100	0	230	101300000	1000	0	0	-1	350
18029555	7417	568	0	-100	0	230	101300000	1000	0	0	-1	350
18042115	7410	561	0	-100	0	230	101300000	1000	0	0	-1	350
18054675	7399	565	0	-100	0	230	101300000	1000	0	0	-1	350
18067235	7398	560	0	-100	0	230	101300000	1000	0	0	-1	350
18079795	7419	561	0	-100	0	230	101300000	1000	0	0	-1	350
18092355	7414	567	0	-100	0	230	101300000	1000	0	0	-1	350
18104915	7391	559	0	-100	0	230	101300000	1000	0	0	-1	350
18117475	7412	558	0	-100	0	230	101300000	1000	0	0	-1	350
18130035	7424	566	0	-100	0	230	101300000	1000	0	0	-1	350
18142595	7404	559	0	-100	0	230	101300000	1000	0	0	-1	350
18155155	7434	559	0	-100	0	230	101300000	1000	0	0	-1	350
18167715	7419	567	0	-100	0	230	101300000	1000	0	0	-1	350
18180275	7410	558	0	-100	0	230	101300000	1000	0	0	-1	350
18192835	7392	564	0	-100	0	230	101300000	1000	0	0	-1	350
18205395	7407	563	0	-100	0	230	101300000	1000	0	0	-1	350
18217955	7425	559	0	-100	0	230	101300000	1000	0	0	-1	350
18230515	7405	568	0	-100	0	230	101300000	1000	0	0	-1	350
18243075	7413	559	0	-100	0	230	101300000	1000	0	0	-1	350
18255635	7393	559	0	-100	0	230	101300000	1000	0	0	-1	350
18268195	7419	569	0	-100	0	230	101300000	1000	0	0	-1	350
18280755	7421	562	0	-100	0	230	101300000	1000	0	0	-1	350
18293315	7392	564	0	-100	0	230	101300000	1000	0	0	-1	350
18305875	7403	558	0	-100	0	230	101300000	1000	0	0	-1	350
18318435	7421	559	0	-100	0	230	101300000	1000	0	0	-1	350
18330995	7406	559	0	-100	0	230	101300000	1000	0	0	-1	350
18343555	7430	562	0	-100	0	230	101300000	1000	0	0	-1	350
18356115	7407	563	0	-100	0	230	101300000	1000	0	0	-1	350
18368675	7426	556	0	-100	0	230	101300000	1000	0	0	-1	350
18381235	7413	568	0	-100	0	230	101300000	1000	0	0	-1	350
18393795	7405	562	0	-100	0	230	101300000	1000	0	0	-1	350
18406355	7400	566	0	-100	0	230	101300000	1000	0	0	-1	350
18418915	7395	558	0	-100	0	230	101300000	1000	0	0	-1	350
18431475	7392	560	0	-100	0	230	101300000	1000	0	0	-1	350
18444035	7412	568	0	-100	0	230	101300000	1000	0	0	-1	350
18456595	7418	560	0	-100	0	230	101300000	1000	0	0	-1	350
18469155	7410	558	0	-100	0	230	101300000	1000	0	0	-1	350
18481715	7384	566	0	-100	0	230	101300000	1000	0	0	-1	350
18494275	7400	559	0	-100	0	230	101300000	1000	0	0	-1	350
18506835	7409	561	0	-100	0	230	101300000	1000	0	0	-1	350
18519395	7409	589	0	-100	0	230	101300000	1000	0	0	-1	350
18531955	7403	614	0	-100	0	230	101300000	1000	0	0	-1	350
18544515	7419	621	0	-100	0	230	101300000	1000	0	0	-1	350
18557075	7412	631	0	-100	0	230	101300000	1000	0	0	-1	350
18569635	7415	626	0	-100	0	230	101300000	1000	0	0	-1	350
18582195	7409	631	0	-100	0	230	101300000	1000	0	0	-1	350
18594755	7403	628	0	-100	0	230	101300000	1000	0	0	-1	350
18607315	7401	625	0	-100	0	230	101300000	1000	0	0	-1	350
18619875	7404	636	0	-100	0	230	101300000	1000	0	0	-1	350
18632435	7408	629	0	-100	0	230	101300000	1000	0	0	-1	350
18644995	7398	627	0	-100	0	230	101300000	1000	0	0	-1	350
18657555	7405	625	0	-100	0	230	101300000	1000	0	0	-1	350
18670115	7413	627	0	-100	0	230	101300000	1000	0	0	-1	350
18682675	7404	632	0	-100	0	230	101300000	1000	0	0	-1	350
18695235	7408	625	0	-100	0	230	101300000	1000	0	0	-1	350
18707795	7394	631	0	-100	0	230	101300000	1000	0	0	-1	350
18720355	7403	624	0	-100	0	230	101300000	1000	0	0	-1	350
18732915	7412	630	0	-100	0	230	101300000	1000	0	0	-1	350
18745475	7401	630	0	-100	0	230	101300000	1000	0	0	-1	350
18758035	7420	626	0	-100	0	230	101300000	1000	0	0	-1	350
18770595	7411	632	0	-100	0	230	101300000	1000	0	0	-1	350
18783155	7403	625	0	-100	0	230	101300000	1000	0	0	-1	350
18795715	7412	627	0	-100	0	230	101300000	1000	0	0	-1	350
18808275	7408	632	0	-100	0	230	101300000	1000	0	0	-1	350
18820835	7410	628	0	-100	0	230	101300000	1000	0	0	-1	350
18833395	7401	631	0	-100	0	230	101300000	1000	0	0	-1	350
18845955	7392	625	0	-100	0	230	101300000	1000	0	0	-1	350
18858515	7419	626	0	-100	0	230	101300000	1000	0	0	-1	350
18871075	7409	631	0	-100	0	230	101300000	1000	0	0	-1	350
18883635	7396	623	0	-100	0	230	101300000	1000	0	0	-1	350
18896195	7410	626	0	-100	0	230	101300000	1000	0	0	-1	350
18908755	7400	626	0	-100	0	230	101300000	1000	0	0	-1	350
18921315	7400	629	0	-100	0	230	101300000	1000	0	0	-1	350
18933875	7400	625	0	-100	0	230	101300000	1000	0	0	-1	350
18946435	7397	631	0	-100	0	230	101300000	1000	0	0	-1	350
18958995	7403	625	0	-100	0	230	101300000	1000	0	0	-1	350
18971555	7399	629	0	-100	0	230	101300000	1000	0	0	-1	350
18984115	7402	626	0	-100	0	230	101300000	1000	0	0	-1	350
18996675	7409	628	0	-100	0	230	101300000	1000	0	0	-1	350
19009235	7406	624	0	-100	0	230	101300000	1000	0	0	-1	350
19021795	7407	630	0	-100	0	230	101300000	1000	0	0	-1	350
19034355	7410	626	0	-100	0	230	101300000	1000	0	0	-1	350
19046915	7407	631	0	-100	0	230	101300000	1000	0	0	-1	350
19059475	7403	624	0	-100	0	230	101300000	1000	0	0	-1	350
19072035	7403	634	0	-100	0	230	101300000	1000	0	0	-1	350
19084595	7410	621	0	-100	0	230	101300000	1000	0	0	-1	350
19097155	7403	628	0	-100	0	230	101300000	1000	0	0	-1	350
19109715	7408	624	0	-100	0	230	101300000	1000	0	0	-1	350
19122275	7403	630	0	-100	0	230	101300000	1000	0	0	-1	350
19134835	7408	624	0	-100	0	230	101300000	1000	0	0	-1	350
19147395	7410	630	0	-100	0	230	101300000	1000	0	0	-1	350
19159955	7412	625	0	-100	0	230	101300000	1000	0	0	-1	350
19172515	7409	632	0	-100	0	230	101300000	1000	0	0	-1	350
19185075	7417	625	0	-100	0	230	101300000	1000	0	0	-1	350
19197635	7402	631	0	-100	0	230	101300000	1000	0	0	-1	350
19210195	7399	629	0	-100	0	230	101300000	1000	0	0	-1	350
19222755	7406	627	0	-100	0	230	101300000	1000	0	0	-1	350
19235315	7407	635	0	-100	0	230	101300000	1000	0	0	-1	350
19247875	7398	626	0	-100	0	230	101300000	1000	0	0	-1	350
19260435	7403	628	0	-100	0	230	101300000	1000	0	0	-1	350
19272995	7403	624	0	-100	0	230	101300000	1000	0	0	-1	350
19285555	7406	624	0	-100	0	230	101300000	1000	0	0	-1	350
19298115	7400	630	0	-100	0	230	101300000	1000	0	0	-1	350
19310675	7400	626	0	-100	0	230	101300000	1000	0	0	-1	350
19323235	7398	625	0	-100	0	230	101300000	1000	0	0	-1	350
19335795	7394	627	0	-100	0	230	101300000	1000	0	0	-1	350
19348355	7414	627	0	-100	0	230	101300000	1000	0	0	-1	350
19360915	7400	627	0	-100	0	230	101300000	1000	0	0	-1	350
19373475	7406	627	0	-100	0	230	101300000	1000	0	0	-1	350
19386035	7391	628	0	-100	0	230	101300000	1000	0	0	-1	350
19398595	7426	628	0	-100	0	230	101300000	1000	0	0	-1	350
19411155	7401	632	0	-100	0	230	101300000	1000	0	0	-1	350
19423715	7416	623	0	-100	0	230	101300000	1000	0	0	-1	350
19436275	7409	632	0	-100	0	230	101300000	1000	0	0	-1	350
19448835	7405	626	0	-100	0	230	101300000	1000	0	0	-1	350
19461395	7398	628	0	-100	0	230	101300000	1000	0	0	-1	350
19473955	7405	627	0	-100	0	230	101300000	1000	0	0	-1	350
19486515	7394	631	0	-100	0	230	101300000	1000	0	0	-1	350
19499075	7410	623	0	-100	0	230	101300000	1000	0	0	-1	350
19511635	7400	630	0	-100	0	230	101300000	1000	0	0	-1	350
19524195	7405	624	0	-100	0	230	101300000	1000	0	0	-1	350
19536755	7400	630	0	-100	0	230	101300000	1000	0	0	-1	350
19549315	7407	626	0	-100	0	230	101300000	1000	0	0	-1	350
19561875	7402	626	0	-100	0	230	101300000	1000	0	0	-1	350
19574435	7410	631	0	-100	0	230	101300000	1000	0	0	-1	350
19586995	7404	627	0	-100	0	230	101300000	1000	0	0	-1	350
19599555	7407	629	0	-100	0	230	101300000	1000	0	0	-1	350
19612115	7401	631	0	-100	0	230	101300000	1000	0	0	-1	350
19624675	7415	627	0	-100	0	230	101300000	1000	0	0	-1	350
19637235	7405	633	0	-100	0	230	101300000	1000	0	0	-1	350
19649795	7405	626	0	-100	0	230	101300000	1000	0	0	-1	350
19662355	7409	628	0	-100	0	230	101300000	1000	0	0	-1	350
19674915	7403	628	0	-100	0	230	101300000	1000	0	0	-1	350
19687475	7406	626	0	-100	0	230	101300000	1000	0	0	-1	350
19700035	7392	630	0	-100	0	230	101300000	1000	0	0	-1	350
19712595	7408	626	0	-100	0	230	101300000	1000	0	0	-1	350
19725155	7409	632	0	-100	0	230	101300000	1000	0	0	-1	350
19737715	7403	626	0	-100	0	230	101300000	1000	0	0	-1	350
19750275	7404	631	0	-100	0	230	101300000	1000	0	0	-1	350
19762835	7407	626	0	-100	0	230	101300000	1000	0	0	-1	350
19775395	7410	627	0	-100	0	230	101300000	1000	0	0	-1	350
19787955	7403	628	0	-100	0	230	101300000	1000	0	0	-1	350
19800515	7411	626	0	-100	0	230	101300000	1000	0	0	-1	350
19813075	7397	630	0	-100	0	230	101300000	1000	0	0	-1	350
19825635	7410	628	0	-100	0	230	101300000	1000	0	0	-1	350
19838195	7403	628	0	-100	0	230	101300000	1000	0	0	-1	350
19850755	7407	624	0	-100	0	230	101300000	1000	0	0	-1	350
19863315	7400	628	0	-100	0	230	101300000	1000	0	0	-1	350
19875875	7416	627	0	-100	0	230	101300000	1000	0	0	-1	350
19888435	7401	629	0	-100	0	230	101300000	1000	0	0	-1	350
19900995	7400	633	0	-100	0	230	101300000	1000	0	0	-1	350
19913555	7394	626	0	-100	0	230	101300000	1000	0	0	-1	350
19926115	7396	631	0	-100	0	230	101300000	1000	0	0	-1	350
19938675	7397	633	0	-100	0	230	101300000	1000	0	0	-1	350
19951235	7396	628	0	-100	0	230	101300000	1000	0	0	-1	350
19963795	7415	624	0	-100	0	230	101300000	1000	0	0	-1	350
19976355	7412	626	0	-100	0	230	101300000	1000	0	0	-1	350
19988915	7410	630	0	-100	0	230	101300000	1000	0	0	-1	350
20001475	7407	634	0	-100	0	230	101300000	1000	0	0	-1	350
20014035	7407	628	0	-100	0	230	101300000	1000	0	0	-1	350
20026595	7406	625	0	-100	0	230	101300000	1000	0	0	-1	350
20039155	7398	626	0	-100	0	230	101300000	1000	0	0	-1	350
20051715	7399	632	0	-100	0	230	101300000	1000	0	0	-1	350
20064275	7398	629	0	-100	0	230	101300000	1000	0	0	-1	350
20076835	7408	626	0	-100	0	230	101300000	1000	0	0	-1	350
20089395	7412	625	0	-100	0	230	101300000	1000	0	0	-1	350
20101955	7405	631	0	-100	0	230	101300000	1000	0	0	-1	350
20114515	7407	631	0	-100	0	230	101300000	1000	0	0	-1	350
20127075	7399	626	0	-100	0	230	101300000	1000	0	0	-1	350
20139635	7403	625	0	-100	0	230	101300000	1000	0	0	-1	350
20152195	7405	625	0	-100	0	230	101300000	1000	0	0	-1	350
20164755	7403	629	0	-100	0	230	101300000	1000	0	0	-1	350
20177315	7410	630	0	-100	0	230	101300000	1000	0	0	-1	350
20189875	7403	624	0	-100	0	230	101300000	1000	0	0	-1	350
20202435	7405	622	0	-100	0	230	101300000	1000	0	0	-1	350
20214995	7411	625	0	-100	0	230	101300000	1000	0	0	-1	350
20227555	7405	628	0	-100	0	230	101300000	1000	0	0	-1	350
20240115	7407	625	0	-100	0	230	101300000	1000	0	0	-1	350
20252675	7398	630	0	-100	0	230	101300000	1000	0	0	-1	350
20265235	7401	629	0	-100	0	230	101300000	1000	0	0	-1	350
20277795	7400	633	0	-100	0	230	101300000	1000	0	0	-1	350
20290355	7395	631	0	-100	0	230	101300000	1000	0	0	-1	350
20302915	7394	628	0	-100	0	230	101300000	1000	0	0	-1	350
20315475	7409	627	0	-100	0	230	101300000	1000	0	0	-1	350
20328035	7401	625	0	-100	0	230	101300000	1000	0	0	-1	350
20340595	7407	632	0	-100	0	230	101300000	1000	0	0	-1	350
20353155	7414	636	0	-100	0	230	101300000	1000	0	0	-1	350
20365715	7409	627	0	-100	0	230	101300000	1000	0	0	-1	350
20378275	7410	622	0	-100	0	230	101300000	1000	0	0	-1	350
20390835	7410	625	0	-100	0	230	101300000	1000	0	0	-1	350
20403395	7402	629	0	-100	0	230	101300000	1000	0	0	-1	350
20415955	7398	629	0	-100	0	230	101300000	1000	0	0	-1	350
20428515	7424	628	0	-100	0	230	101300000	1000	0	0	-1	350
20441075	7410	624	0	-100	0	230	101300000	1000	0	0	-1	350
20453635	7401	633	0	-100	0	230	101300000	1000	0	0	-1	350
20466195	7408	625	0	-100	0	230	101300000	1000	0	0	-1	350
20478755	7394	627	0	-100	0	230	101300000	1000	0	0	-1	350
20491315	7396	629	0	-100	0	230	101300000	1000	0	0	-1	350
20503875	7412	626	0	-100	0	230	101300000	1000	0	0	-1	350
20516435	7413	632	0	-100	0	230	101300000	1000	0	0	-1	350
20528995	7408	628	0	-100	0	230	101300000	1000	0	0	-1	350
20541555	7410	626	0	-100	0	230	101300000	1000	0	0	-1	350
20554115	7398	633	0	-100	0	230	101300000	1000	0	0	-1	350
20566675	7419	628	0	-100	0	230	101300000	1000	0	0	-1	350
20579235	7399	628	0	-100	0	230	101300000	1000	0	0	-1	350
20591795	7399	634	0	-100	0	230	101300000	1000	0	0	-1	350
20604355	7411	624	0	-100	0	230	101300000	1000	0	0	-1	350
20616915	7399	628	0	-100	0	230	101300000	1000	0	0	-1	350
20629475	7407	627	0	-100	0	230	101300000	1000	0	0	-1	350
20642035	7391	625	0	-100	0	230	101300000	1000	0	0	-1	350
20654595	7403	631	0	-100	0	230	101300000	1000	0	0	-1	350
20667155	7403	625	0	-100	0	230	101300000	1000	0	0	-1	350
20679715	7398	630	0	-100	0	230	101300000	1000	0	0	-1	350
20692275	7413	630	0	-100	0	230	101300000	1000	0	0	-1	350
20704835	7406	625	0	-100	0	230	101300000	1000	0	0	-1	350
20717395	7403	632	0	-100	0	230	101300000	1000	0	0	-1	350
20729955	7407	627	0	-100	0	230	101300000	1000	0	0	-1	350
20742515	7408	633	0	-100	0	230	101300000	1000	0	0	-1	350
20755075	7398	620	0	-100	0	230	101300000	1000	0	0	-1	350
20767635	7403	628	0	-100	0	230	101300000	1000	0	0	-1	350
20780195	7407	628	0	-100	0	230	101300000	1000	0	0	-1	350
20792755	7410	626	0	-100	0	230	101300000	1000	0	0	-1	350
20805315	7412	629	0	-100	0	230	101300000	1000	0	0	-1	350
20817875	7407	624	0	-100	0	230	101300000	1000	0	0	-1	350
20830435	7406	628	0	-100	0	230	101300000	1000	0	0	-1	350
20842995	7407	626	0	-100	0	230	101300000	1000	0	0	-1	350
20855555	7405	627	0	-100	0	230	101300000	1000	0	0	-1	350
20868115	7401	626	0	-100	0	230	101300000	1000	0	0	-1	350
20880675	7401	626	0	-100	0	230	101300000	1000	0	0	-1	350
20893235	7399	628	0	-100	0	230	101300000	1000	0	0	-1	350
20905795	7405	627	0	-100	0	230	101300000	1000	0	0	-1	350
20918355	7410	625	0	-100	0	230	101300000	1000	0	0	-1	350
20930915	7407	633	0	-100	0	230	101300000	1000	0	0	-1	350
20943475	7409	625	0	-100	0	230	101300000	1000	0	0	-1	350
20956035	7406	636	0	-100	0	230	101300000	1000	0	0	-1	350
20968595	7406	627	0	-100	0	230	101300000	1000	0	0	-1	350
20981155	7398	630	0	-100	0	230	101300000	1000	0	0	-1	350
20993715	7411	627	0	-100	0	230	101300000	1000	0	0	-1	350
21006275	7413	625	0	-100	0	230	101300000	1000	0	0	-1	350
21018835	7409	627	0	-100	0	230	101300000	1000	0	0	-1	350
21031395	7394	624	0	-100	0	230	101300000	1000	0	0	-1	350
21043955	7411	632	0	-100	0	230	101300000	1000	0	0	-1	350
21056515	7424	624	0	-100	0	230	101300000	1000	0	0	-1	350
21069075	7393	630	0	-100	0	230	101300000	1000	0	0	-1	350
21081635	7405	629	0	-100	0	230	101300000	1000	0	0	-1	350
21094195	7408	624	0	-100	0	230	101300000	1000	0	0	-1	350
21106755	7401	633	0	-100	0	230	101300000	1000	0	0	-1	350
21119315	7420	626	0	-100	0	230	101300000	1000	0	0	-1	350
21131875	7401	632	0	-100	0	230	101300000	1000	0	0	-1	350
21144435	7412	622	0	-100	0	230	101300000	1000	0	0	-1	350
21156995	7405	624	0	-100	0	230	101300000	1000	0	0	-1	350
21169555	7407	625	0	-100	0	230	101300000	1000	0	0	-1	350
21182115	7389	628	0	-100	0	230	101300000	1000	0	0	-1	350
21194675	7411	629	0	-100	0	230	101300000	1000	0	0	-1	350
21207235	7399	621	0	-100	0	230	101300000	1000	0	0	-1	350
21219795	7405	626	0	-100	0	230	101300000	1000	0	0	-1	350
21232355	7402	631	0	-100	0	230	101300000	1000	0	0	-1	350
21244915	7407	626	0	-100	0	230	101300000	1000	0	0	-1	350
21257475	7408	630	0	-100	0	230	101300000	1000	0	0	-1	350
21270035	7409	629	0	-100	0	230	101300000	1000	0	0	-1	350
21282595	7408	624	0	-100	0	230	101300000	1000	0	0	-1	350
21295155	7403	633	0	-100	0	230	101300000	1000	0	0	-1	350
21307715	7407	626	0	-100	0	230	101300000	1000	0	0	-1	350
21320275	7407	632	0	-100	0	230	101300000	1000	0	0	-1	350
21332835	7409	624	0	-100	0	230	101300000	1000	0	0	-1	350
21345395	7414	632	0	-100	0	230	101300000	1000	0	0	-1	350
21357955	7405	625	0	-100	0	230	101300000	1000	0	0	-1	350
21370515	7402	626	0	-100	0	230	101300000	1000	0	0	-1	350
21383075	7403	626	0	-100	0	230	101300000	1000	0	0	-1	350
21395635	7405	628	0	-100	0	230	101300000	1000	0	0	-1	350
21408195	7399	628	0	-100	0	230	101300000	1000	0	0	-1	350
21420755	7405	627	0	-100	0	230	101300000	1000	0	0	-1	350
21433315	7401	625	0	-100	0	230	101300000	1000	0	0	-1	350
21445875	7405	630	0	-100	0	230	101300000	1000	0	0	-1	350
21458435	7415	626	0	-100	0	230	101300000	1000	0	0	-1	350
21470995	7400	631	0	-100	0	230	101300000	1000	0	0	-1	350
21483555	7403	626	0	-100	0	230	101300000	1000	0	0	-1	350
21496115	7411	633	0	-100	0	230	101300000	1000	0	0	-1	350
21508675	7414	626	0	-100	0	230	101300000	1000	0	0	-1	350
21521235	7399	629	0	-100	0	230	101300000	1000	0	0	-1	350
21533795	7410	625	0	-100	0	230	101300000	1000	0	0	-1	350
21546355	7407	630	0	-100	0	230	101300000	1000	0	0	-1	350
21558915	7408	624	0	-100	0	230	101300000	1000	0	0	-1	350
21571475	7395	630	0	-100	0	230	101300000	1000	0	0	-1	350
21584035	7411	625	0	-100	0	230	101300000	1000	0	0	-1	350
21596595	7407	634	0	-100	0	230	101300000	1000	0	0	-1	350
21609155	7417	626	0	-100	0	230	101300000	1000	0	0	-1	350
21621715	7410	626	0	-100	0	230	101300000	1000	0	0	-1	350
21634275	7408	625	0	-100	0	230	101300000	1000	0	0	-1	350
21646835	7402	631	0	-100	0	230	101300000	1000	0	0	-1	350
21659395	7404	625	0	-100	0	230	101300000	1000	0	0	-1	350
21671955	7400	634	0	-100	0	230	101300000	1000	0	0	-1	350
21684515	7412	621	0	-100	0	230	101300000	1000	0	0	-1	350
21697075	7409	630	0	-100	0	230	101300000	1000	0	0	-1	350
21709635	7412	625	0	-100	0	230	101300000	1000	0	0	-1	350
21722195	7400	629	0	-100	0	230	101300000	1000	0	0	-1	350
21734755	7413	629	0	-100	0	230	101300000	1000	0	0	-1	350
21747315	7413	625	0	-100	0	230	101300000	1000	0	0	-1	350
21759875	7397	631	0	-100	0	230	101300000	1000	0	0	-1	350
21772435	7422	627	0	-100	0	230	101300000	1000	0	0	-1	350
21784995	7419	628	0	-100	0	230	101300000	1000	0	0	-1	350
21797555	7414	629	0	-100	0	230	101300000	1000	0	0	-1	350
21810115	7408	625	0	-100	0	230	101300000	1000	0	0	-1	350
21822675	7405	633	0	-100	0	230	101300000	1000	0	0	-1	350
21835235	7403	626	0	-100	0	230	101300000	1000	0	0	-1	350
21847795	7412	634	0	-100	0	230	101300000	1000	0	0	-1	350
21860355	7406	626	0	-100	0	230	101300000	1000	0	0	-1	350
21872915	7414	633	0	-100	0	230	101300000	1000	0	0	-1	350
21885475	7413	624	0	-100	0	230	101300000	1000	0	0	-1	350
21898035	7412	630	0	-100	0	230	101300000	1000	0	0	-1	350
21910595	7398	624	0	-100	0	230	101300000	1000	0	0	-1	350
21923155	7398	632	0	-100	0	230	101300000	1000	0	0	-1	350
21935715	7417	624	0	-100	0	230	101300000	1000	0	0	-1	350
21948275	7410	629	0	-100	0	230	101300000	1000	0	0	-1	350
21960835	7405	626	0	-100	0	230	101300000	1000	0	0	-1	350
21973395	7408	625	0	-100	0	230	101300000	1000	0	0	-1	350
21985955	7401	631	0	-100	0	230	101300000	1000	0	0	-1	350
21998515	7410	635	0	-100	0	230	101300000	1000	0	0	-1	350
22011075	7403	626	0	-100	0	230	101300000	1000	0	0	-1	350
22023635	7400	625	0	-100	0	230	101300000	1000	0	0	-1	350
22036195	7403	626	0	-100	0	230	101300000	1000	0	0	-1	350
22048755	7407	634	0	-100	0	230	101300000	1000	0	0	-1	350
22061315	7397	631	0	-100	0	230	101300000	1000	0	0	-1	350
22073875	7406	623	0	-100	0	230	101300000	1000	0	0	-1	350
22086435	7410	625	0	-100	0	230	101300000	1000	0	0	-1	350
22098995	7405	623	0	-100	0	230	101300000	1000	0	0	-1	350
22111555	7396	634	0	-100	0	230	101300000	1000	0	0	-1	350
22124115	7407	632	0	-100	0	230	101300000	1000	0	0	-1	350
22136675	7401	623	0	-100	0	230	101300000	1000	0	0	-1	350
22149235	7405	626	0	-100	0	230	101300000	1000	0	0	-1	350
22161795	7395	634	0	-100	0	230	101300000	1000	0	0	-1	350
22174355	7400	626	0	-100	0	230	101300000	1000	0	0	-1	350
22186915	7410	626	0	-100	0	230	101300000	1000	0	0	-1	350
22199475	7400	630	0	-100	0	230	101300000	1000	0	0	-1	350
22212035	7403	631	0	-100	0	230	101300000	1000	0	0	-1	350
22224595	7411	626	0	-100	0	230	101300000	1000	0	0	-1	350
22237155	7402	622	0	-100	0	230	101300000	1000	0	0	-1	350
22249715	7403	630	0	-100	0	230	101300000	1000	0	0	-1	350
22262275	7398	631	0	-100	0	230	101300000	1000	0	0	-1	350
22274835	7410	624	0	-100	0	230	101300000	1000	0	0	-1	350
22287395	7414	623	0	-100	0	230	101300000	1000	0	0	-1	350
22299955	7405	629	0	-100	0	230	101300000	1000	0	0	-1	350
22312515	7402	634	0	-100	0	230	101300000	1000	0	0	-1	350
22325075	7408	627	0	-100	0	230	101300000	1000	0	0	-1	350
22337635	7400	624	0	-100	0	230	101300000	1000	0	0	-1	350
22350195	7410	630	0	-100	0	230	101300000	1000	0	0	-1	350
22362755	7405	629	0	-100	0	230	101300000	1000	0	0	-1	350
22375315	7403	625	0	-100	0	230	101300000	1000	0	0	-1	350
22387875	7410	626	0	-100	0	230	101300000	1000	0	0	-1	350
22400435	7426	633	0	-100	0	230	101300000	1000	0	0	-1	350
22412995	7415	626	0	-100	0	230	101300000	1000	0	0	-1	350
22425555	7405	632	0	-100	0	230	101300000	1000	0	0	-1	350
22438115	7414	634	0	-100	0	230	101300000	1000	0	0	-1	350
22450675	7417	625	0	-100	0	230	101300000	1000	0	0	-1	350
22463235	7410	623	0	-100	0	230	101300000	1000	0	0	-1	350
22475795	7413	624	0	-100	0	230	101300000	1000	0	0	-1	350
22488355	7410	626	0	-100	0	230	101300000	1000	0	0	-1	350
22500915	7419	632	0	-100	0	230	101300000	1000	0	0	-1	350
22513475	7405	633	0	-100	0	230	101300000	1000	0	0	-1	350
22526035	7405	632	0	-100	0	230	101300000	1000	0	0	-1	350
22538595	7393	630	0	-100	0	230	101300000	1000	0	0	-1	350
22551155	7413	626	0	-100	0	230	101300000	1000	0	0	-1	350
22563715	7410	626	0	-100	0	230	101300000	1000	0	0	-1	350
22576275	7397	627	0	-100	0	230	101300000	1000	0	0	-1	350
22588835	7407	632	0	-100	0	230	101300000	1000	0	0	-1	350
22601395	7413	632	0	-100	0	230	101300000	1000	0	0	-1	350
22613955	7415	627	0	-100	0	230	101300000	1000	0	0	-1	350
22626515	7395	623	0	-100	0	230	101300000	1000	0	0	-1	350
22639075	7411	624	0	-100	0	230	101300000	1000	0	0	-1	350
22651635	7408	626	0	-100	0	230	101300000	1000	0	0	-1	350
22664195	7403	626	0	-100	0	230	101300000	1000	0	0	-1	350
22676755	7411	628	0	-100	0	230	101300000	1000	0	0	-1	350
22689315	7410	634	0	-100	0	230	101300000	1000	0	0	-1	350
22701875	7403	632	0	-100	0	230	101300000	1000	0	0	-1	350
22714435	7401	630	0	-100	0	230	101300000	1000	0	0	-1	350
22726995	7401	632	0	-100	0	230	101300000	1000	0	0	-1	350
22739555	7426	625	0	-100	0	230	101300000	1000	0	0	-1	350
22752115	7403	624	0	-100	0	230	101300000	1000	0	0	-1	350
22764675	7410	625	0	-100	0	230	101300000	1000	0	0	-1	350
22777235	7412	625	0	-100	0	230	101300000	1000	0	0	-1	350
22789795	7403	629	0	-100	0	230	101300000	1000	0	0	-1	350
22802355	7400	629	0	-100	0	230	101300000	1000	0	0	-1	350
22814915	7407	630	0	-100	0	230	101300000	1000	0	0	-1	350
22827475	7407	634	0	-100	0	230	101300000	1000	0	0	-1	350
22840035	7409	633	0	-100	0	230	101300000	1000	0	0	-1	350
22852595	7415	626	0	-100	0	230	101300000	1000	0	0	-1	350
22865155	7403	624	0	-100	0	230	101300000	1000	0	0	-1	350
22877715	7416	626	0	-100	0	230	101300000	1000	0	0	-1	350
22890275	7403	631	0	-100	0	230	101300000	1000	0	0	-1	350
22902835	7407	632	0	-100	0	230	101300000	1000	0	0	-1	350
22915395	7415	631	0	-100	0	230	101300000	1000	0	0	-1	350
22927955	7409	626	0	-100	0	230	101300000	1000	0	0	-1	350
22940515	7415	627	0	-100	0	230	101300000	1000	0	0	-1	350
22953075	7408	629	0	-100	0	230	101300000	1000	0	0	-1	350
22965635	7405	635	0	-100	0	230	101300000	1000	0	0	-1	350
22978195	7419	632	0	-100	0	230	101300000	1000	0	0	-1	350
22990755	7408	625	0	-100	0	230	101300000	1000	0	0	-1	350
23003315	7406	626	0	-100	0	230	101300000	1000	0	0	-1	350
23015875	7405	629	0	-100	0	230	101300000	1000	0	0	-1	350
23028435	7409	633	0	-100	0	230	101300000	1000	0	0	-1	350
23040995	7403	635	0	-100	0	230	101300000	1000	0	0	-1	350
23053555	7408	625	0	-100	0	230	101300000	1000	0	0	-1	350
23066115	7401	625	0	-100	0	230	101300000	1000	0	0	-1	350
23078675	7403	634	0	-100	0	230	101300000	1000	0	0	-1	350
23091235	7407	632	0	-100	0	230	101300000	1000	0	0	-1	350
23103795	7416	624	0	-100	0	230	101300000	1000	0	0	-1	350
23116355	7413	625	0	-100	0	230	101300000	1000	0	0	-1	350
23128915	7406	627	0	-100	0	230	101300000	1000	0	0	-1	350
23141475	7410	629	0	-100	0	230	101300000	1000	0	0	-1	350
23154035	7407	632	0	-100	0	230	101300000	1000	0	0	-1	350
23166595	7402	627	0	-100	0	230	101300000	1000	0	0	-1	350
23179155	7421	627	0	-100	0	230	101300000	1000	0	0	-1	350
23191715	7405	630	0	-100	0	230	101300000	1000	0	0	-1	350
23204275	7405	631	0	-100	0	230	101300000	1000	0	0	-1	350
23216835	7416	625	0	-100	0	230	101300000	1000	0	0	-1	350
23229395	7413	627	0	-100	0	230	101300000	1000	0	0	-1	350
23241955	7407	635	0	-100	0	230	101300000	1000	0	0	-1	350
23254515	7418	630	0	-100	0	230	101300000	1000	0	0	-1	350
23267075	7419	624	0	-100	0	230	101300000	1000	0	0	-1	350
23279635	7403	622	0	-100	0	230	101300000	1000	0	0	-1	350
23292195	7404	629	0	-100	0	230	101300000	1000	0	0	-1	350
23304755	7407	632	0	-100	0	230	101300000	1000	0	0	-1	350
23317315	7412	626	0	-100	0	230	101300000	1000	0	0	-1	350
23329875	7422	625	0	-100	0	230	101300000	1000	0	0	-1	350
23342435	7414	624	0	-100	0	230	101300000	1000	0	0	-1	350
23354995	7411	625	0	-100	0	230	101300000	1000	0	0	-1	350
23367555	7403	629	0	-100	0	230	101300000	1000	0	0	-1	350
23380115	7406	624	0	-100	0	230	101300000	1000	0	0	-1	350
23392675	7410	627	0	-100	0	230	101300000	1000	0	0	-1	350
23405235	7404	625	0	-100	0	230	101300000	1000	0	0	-1	350
23417795	7405	631	0	-100	0	230	101300000	1000	0	0	-1	350
23430355	7406	632	0	-100	0	230	101300000	1000	0	0	-1	350
23442915	7408	630	0	-100	0	230	101300000	1000	0	0	-1	350
23455475	7410	629	0	-100	0	230	101300000	1000	0	0	-1	350
23468035	7407	624	0	-100	0	230	101300000	1000	0	0	-1	350
23480595	7397	623	0	-100	0	230	101300000	1000	0	0	-1	350
23493155	7407	629	0	-100	0	230	101300000	1000	0	0	-1	350
23505715	7517	621	0	-100	0	230	101300000	1000	0	0	-1	350
23518275	7584	604	0	-100	0	230	101300000	1000	0	0	-1	350
23530835	7769	570	0	-100	0	230	101300000	1000	0	0	-1	350
23543395	7846	570	0	-100	0	230	101300000	1000	0	0	-1	350
23555955	7822	572	0	-100	0	230	101300000	1000	0	0	-1	350
23568515	7846	565	0	-100	0	230	101300000	1000	0	0	-1	350
23581075	7880	560	0	-100	0	230	101300000	1000	0	0	-1	350
23593635	7815	567	0	-100	0	230	101300000	1000	0	0	-1	350
23606195	7839	562	0	-100	0	230	101300000	1000	0	0	-1	350
23618755	7870	563	0	-100	0	230	101300000	1000	0	0	-1	350
23631315	7875	560	0	-100	0	230	101300000	1000	0	0	-1	350
23643875	7889	559	0	-100	0	230	101300000	1000	0	0	-1	350
23656435	7883	557	0	-100	0	230	101300000	1000	0	0	-1	350
23668995	7887	563	0	-100	0	230	101300000	1000	0	0	-1	350
23681555	7873	563	0	-100	0	230	101300000	1000	0	0	-1	350
23694115	7882	564	0	-100	0	230	101300000	1000	0	0	-1	350
23706675	7887	560	0	-100	0	230	101300000	1000	0	0	-1	350
23719235	7899	558	0	-100	0	230	101300000	1000	0	0	-1	350
23731795	7885	562	0	-100	0	230	101300000	1000	0	0	-1	350
23744355	7878	563	0	-100	0	230	101300000	1000	0	0	-1	350
23756915	7873	557	0	-100	0	230	101300000	1000	0	0	-1	350
23769475	7880	564	0	-100	0	230	101300000	1000	0	0	-1	350
23782035	7877	559	0	-100	0	230	101300000	1000	0	0	-1	350
23794595	7868	556	0	-100	0	230	101300000	1000	0	0	-1	350
23807155	7865	559	0	-100	0	230	101300000	1000	0	0	-1	350
23819715	7871	562	0	-100	0	230	101300000	1000	0	0	-1	350
23832275	7890	553	0	-100	0	230	101300000	1000	0	0	-1	350
23844835	7894	558	0	-100	0	230	101300000	1000	0	0	-1	350
23857395	7894	564	0	-100	0	230	101300000	1000	0	0	-1	350
23869955	7894	557	0	-100	0	230	101300000	1000	0	0	-1	350
23882515	7899	560	0	-100	0	230	101300000	1000	0	0	-1	350
23895075	7897	562	0	-100	0	230	101300000	1000	0	0	-1	350
23907635	7887	563	0	-100	0	230	101300000	1000	0	0	-1	350
23920195	7881	557	0	-100	0	230	101300000	1000	0	0	-1	350
23932755	7887	555	0	-100	0	230	101300000	1000	0	0	-1	350
23945315	7890	558	0	-100	0	230	101300000	1000	0	0	-1	350
23957875	7896	559	0	-100	0	230	101300000	1000	0	0	-1	350
23970435	7892	557	0	-100	0	230	101300000	1000	0	0	-1	350
23982995	7900	555	0	-100	0	230	101300000	1000	0	0	-1	350
23995555	7881	557	0	-100	0	230	101300000	1000	0	0	-1	350
24008115	7899	562	0	-100	0	230	101300000	1000	0	0	-1	350
24020675	7904	557	0	-100	0	230	101300000	1000	0	0	-1	350
24033235	7890	555	0	-100	0	230	101300000	1000	0	0	-1	350
24045795	7886	560	0	-100	0	230	101300000	1000	0	0	-1	350
24058355	7880	562	0	-100	0	230	101300000	1000	0	0	-1	350
24070915	7885	558	0	-100	0	230	101300000	1000	0	0	-1	350
24083475	7880	555	0	-100	0	230	101300000	1000	0	0	-1	350
24096035	7857	561	0	-100	0	230	101300000	1000	0	0	-1	350
24108595	7887	559	0	-100	0	230	101300000	1000	0	0	-1	350
24121155	7887	552	0	-100	0	230	101300000	1000	0	0	-1	350
24133715	7875	556	0	-100	0	230	101300000	1000	0	0	-1	350
24146275	7887	563	0	-100	0	230	101300000	1000	0	0	-1	350
24158835	7871	561	0	-100	0	230	101300000	1000	0	0	-1	350
24171395	7881	558	0	-100	0	230	101300000	1000	0	0	-1	350
24183955	7873	557	0	-100	0	230	101300000	1000	0	0	-1	350
24196515	7864	562	0	-100	0	230	101300000	1000	0	0	-1	350
24209075	7877	560	0	-100	0	230	101300000	1000	0	0	-1	350
24221635	7880	551	0	-100	0	230	101300000	1000	0	0	-1	350
24234195	7871	556	0	-100	0	230	101300000	1000	0	0	-1	350
24246755	7892	563	0	-100	0	230	101300000	1000	0	0	-1	350
24259315	7887	562	0	-100	0	230	101300000	1000	0	0	-1	350
24271875	7894	558	0	-100	0	230	101300000	1000	0	0	-1	350
24284435	7883	558	0	-100	0	230	101300000	1000	0	0	-1	350
24296995	7871	555	0	-100	0	230	101300000	1000	0	0	-1	350
24309555	7899	564	0	-100	0	230	101300000	1000	0	0	-1	350
24322115	7884	567	0	-100	0	230	101300000	1000	0	0	-1	350
24334675	7870	561	0	-100	0	230	101300000	1000	0	0	-1	350
24347235	7882	556	0	-100	0	230	101300000	1000	0	0	-1	350
24359795	7876	557	0	-100	0	230	101300000	1000	0	0	-1	350
24372355	7878	555	0	-100	0	230	101300000	1000	0	0	-1	350
24384915	7871	558	0	-100	0	230	101300000	1000	0	0	-1	350
24397475	7875	563	0	-100	0	230	101300000	1000	0	0	-1	350
24410035	7878	554	0	-100	0	230	101300000	1000	0	0	-1	350
24422595	7911	554	0	-100	0	230	101300000	1000	0	0	-1	350
24435155	7889	555	0	-100	0	230	101300000	1000	0	0	-1	350
24447715	7887	555	0	-100	0	230	101300000	1000	0	0	-1	350
24460275	7874	558	0	-100	0	230	101300000	1000	0	0	-1	350
24472835	7872	561	0	-100	0	230	101300000	1000	0	0	-1	350
24485395	7871	557	0	-100	0	230	101300000	1000	0	0	-1	350
24497955	7878	553	0	-100	0	230	101300000	1000	0	0	-1	350
24510515	7873	551	0	-100	0	230	101300000	1000	0	0	-1	350
24523075	7882	554	0	-100	0	230	101300000	1000	0	0	-1	350
24535635	7875	558	0	-100	0	230	101300000	1000	0	0	-1	350
24548195	7865	554	0	-100	0	230	101300000	1000	0	0	-1	350
24560755	7873	549	0	-100	0	230	101300000	1000	0	0	-1	350
24573315	7871	555	0	-100	0	230	101300000	1000	0	0	-1	350
24585875	7871	556	0	-100	0	230	101300000	1000	0	0	-1	350
24598435	7872	563	0	-100	0	230	101300000	1000	0	0	-1	350
24610995	7875	554	0	-100	0	230	101300000	1000	0	0	-1	350
24623555	7872	562	0	-100	0	230	101300000	1000	0	0	-1	350
24636115	7865	558	0	-100	0	230	101300000	1000	0	0	-1	350
24648675	7875	558	0	-100	0	230	101300000	1000	0	0	-1	350
24661235	7885	556	0	-100	0	230	101300000	1000	0	0	-1	350
24673795	7882	557	0	-100	0	230	101300000	1000	0	0	-1	350
24686355	7866	562	0	-100	0	230	101300000	1000	0	0	-1	350
24698915	7885	563	0	-100	0	230	101300000	1000	0	0	-1	350
24711475	7887	559	0	-100	0	230	101300000	1000	0	0	-1	350
24724035	7875	558	0	-100	0	230	101300000	1000	0	0	-1	350
24736595	7863	563	0	-100	0	230	101300000	1000	0	0	-1	350
24749155	7891	552	0	-100	0	230	101300000	1000	0	0	-1	350
24761715	7859	563	0	-100	0	230	101300000	1000	0	0	-1	350
24774275	7873	560	0	-100	0	230	101300000	1000	0	0	-1	350
24786835	7889	551	0	-100	0	230	101300000	1000	0	0	-1	350
24799395	7882	555	0	-100	0	230	101300000	1000	0	0	-1	350
24811955	7878	565	0	-100	0	230	101300000	1000	0	0	-1	350
24824515	7882	556	0	-100	0	230	101300000	1000	0	0	-1	350
24837075	7899	557	0	-100	0	230	101300000	1000	0	0	-1	350
24849635	7672	575	0	-100	0	230	101300000	1000	0	0	-1	350
24862195	7463	616	0	-100	0	230	101300000	1000	0	0	-1	350
24874755	7436	630	0	-100	0	230	101300000	1000	0	0	-1	350
24887315	7428	625	0	-100	0	230	101300000	1000	0	0	-1	350
24899875	7412	634	0	-100	0	230	101300000	1000	0	0	-1	350
24912435	7415	628	0	-100	0	230	101300000	1000	0	0	-1	350
24924995	7425	627	0	-100	0	230	101300000	1000	0	0	-1	350
24937555	7417	634	0	-100	0	230	101300000	1000	0	0	-1	350
24950115	7407	629	0	-100	0	230	101300000	1000	0	0	-1	350
24962675	7415	622	0	-100	0	230	101300000	1000	0	0	-1	350
24975235	7410	624	0	-100	0	230	101300000	1000	0	0	-1	350
24987795	7420	633	0	-100	0	230	101300000	1000	0	0	-1	350
25000355	7409	633	0	-100	0	230	101300000	1000	0	0	-1	350
25012915	7411	628	0	-100	0	230	101300000	1000	0	0	-1	350
25025475	7405	625	0	-100	0	230	101300000	1000	0	0	-1	350
25038035	7412	630	0	-100	0	230	101300000	1000	0	0	-1	350
25050595	7403	629	0	-100	0	230	101300000	1000	0	0	-1	350
25063155	7414	624	0	-100	0	230	101300000	1000	0	0	-1	350
25075715	7408	626	0	-100	0	230	101300000	1000	0	0	-1	350
25088275	7412	632	0	-100	0	230	101300000	1000	0	0	-1	350
25100835	7412	635	0	-100	0	230	101300000	1000	0	0	-1	350
25113395	7403	635	0	-100	0	230	101300000	1000	0	0	-1	350
25125955	7409	632	0	-100	0	230	101300000	1000	0	0	-1	350
25138515	7411	628	0	-100	0	230	101300000	1000	0	0	-1	350
25151075	7408	628	0	-100	0	230	101300000	1000	0	0	-1	350
25163635	7410	627	0	-100	0	230	101300000	1000	0	0	-1	350
25176195	7405	629	0	-100	0	230	101300000	1000	0	0	-1	350
25188755	7405	632	0	-100	0	230	101300000	1000	0	0	-1	350
25201315	7401	632	0	-100	0	230	101300000	1000	0	0	-1	350
25213875	7407	635	0	-100	0	230	101300000	1000	0	0	-1	350
25226435	7406	636	0	-100	0	230	101300000	1000	0	0	-1	350
25238995	7407	629	0	-100	0	230	101300000	1000	0	0	-1	350
25251555	7409	631	0	-100	0	230	101300000	1000	0	0	-1	350
25264115	7420	628	0	-100	0	230	101300000	1000	0	0	-1	350
25276675	7416	626	0	-100	0	230	101300000	1000	0	0	-1	350
25289235	7413	624	0	-100	0	230	101300000	1000	0	0	-1	350
25301795	7405	625	0	-100	0	230	101300000	1000	0	0	-1	350
25314355	7395	627	0	-100	0	230	101300000	1000	0	0	-1	350
25326915	7397	630	0	-100	0	230	101300000	1000	0	0	-1	350
25339475	7416	632	0	-100	0	230	101300000	1000	0	0	-1	350
25352035	7403	636	0	-100	0	230	101300000	1000	0	0	-1	350
25364595	7405	633	0	-100	0	230	101300000	1000	0	0	-1	350
25377155	7418	630	0	-100	0	230	101300000	1000	0	0	-1	350
25389715	7412	628	0	-100	0	230	101300000	1000	0	0	-1	350
25402275	7417	625	0	-100	0	230	101300000	1000	0	0	-1	350
25414835	7419	627	0	-100	0	230	101300000	1000	0	0	-1	350
25427395	7418	629	0	-100	0	230	101300000	1000	0	0	-1	350
25439955	7414	629	0	-100	0	230	101300000	1000	0	0	-1	350
25452515	7407	630	0	-100	0	230	101300000	1000	0	0	-1	350
25465075	7401	632	0	-100	0	230	101300000	1000	0	0	-1	350
25477635	7405	631	0	-100	0	230	101300000	1000	0	0	-1	350
25490195	7408	631	0	-100	0	230	101300000	1000	0	0	-1	350
25502755	7400	629	0	-100	0	230	101300000	1000	0	0	-1	350
25515315	7407	628	0	-100	0	230	101300000	1000	0	0	-1	350
25527875	7415	627	0	-100	0	230	101300000	1000	0	0	-1	350
25540435	7420	625	0	-100	0	230	101300000	1000	0	0	-1	350
25552995	7434	631	0	-100	0	230	101300000	1000	0	0	-1	350
25565555	7422	624	0	-100	0	230	101300000	1000	0	0	-1	350
25578115	7418	624	0	-100	0	230	101300000	1000	0	0	-1	350
25590675	7418	624	0	-100	0	230	101300000	1000	0	0	-1	350
25603235	7420	624	0	-100	0	230	101300000	1000	0	0	-1	350
25615795	7413	624	0	-100	0	230	101300000	1000	0	0	-1	350
25628355	7417	621	0	-100	0	230	101300000	1000	0	0	-1	350
25640915	7416	628	0	-100	0	230	101300000	1000	0	0	-1	350
25653475	7409	624	0	-100	0	230	101300000	1000	0	0	-1	350
25666035	7410	623	0	-100	0	230	101300000	1000	0	0	-1	350
25678595	7416	628	0	-100	0	230	101300000	1000	0	0	-1	350
25691155	7418	624	0	-100	0	230	101300000	1000	0	0	-1	350
25703715	7413	627	0	-100	0	230	101300000	1000	0	0	-1	350
25716275	7424	628	0	-100	0	230	101300000	1000	0	0	-1	350
25728835	7418	629	0	-100	0	230	101300000	1000	0	0	-1	350
25741395	7420	627	0	-100	0	230	101300000	1000	0	0	-1	350
25753955	7413	620	0	-100	0	230	101300000	1000	0	0	-1	350
25766515	7411	623	0	-100	0	230	101300000	1000	0	0	-1	350
25779075	7409	622	0	-100	0	230	101300000	1000	0	0	-1	350
25791635	7406	622	0	-100	0	230	101300000	1000	0	0	-1	350
25804195	7413	625	0	-100	0	230	101300000	1000	0	0	-1	350
25816755	7409	622	0	-100	0	230	101300000	1000	0	0	-1	350
25829315	7414	626	0	-100	0	230	101300000	1000	0	0	-1	350
25841875	7422	626	0	-100	0	230	101300000	1000	0	0	-1	350
25854435	7421	627	0	-100	0	230	101300000	1000	0	0	-1	350
25866995	7421	628	0	-100	0	230	101300000	1000	0	0	-1	350
25879555	7415	626	0	-100	0	230	101300000	1000	0	0	-1	350
25892115	7413	630	0	-100	0	230	101300000	1000	0	0	-1	350
25904675	7409	632	0	-100	0	230	101300000	1000	0	0	-1	350
25917235	7420	632	0	-100	0	230	101300000	1000	0	0	-1	350
25929795	7413	633	0	-100	0	230	101300000	1000	0	0	-1	350
25942355	7409	632	0	-100	0	230	101300000	1000	0	0	-1	350
25954915	7401	627	0	-100	0	230	101300000	1000	0	0	-1	350
25967475	7415	621	0	-100	0	230	101300000	1000	0	0	-1	350
25980035	7414	623	0	-100	0	230	101300000	1000	0	0	-1	350
25992595	7417	630	0	-100	0	230	101300000	1000	0	0	-1	350
26005155	7411	633	0	-100	0	230	101300000	1000	0	0	-1	350
26017715	7408	629	0	-100	0	230	101300000	1000	0	0	-1	350
26030275	7413	624	0	-100	0	230	101300000	1000	0	0	-1	350
26042835	7408	625	0	-100	0	230	101300000	1000	0	0	-1	350
26055395	7408	628	0	-100	0	230	101300000	1000	0	0	-1	350
26067955	7414	631	0	-100	0	230	101300000	1000	0	0	-1	350
26080515	7415	626	0	-100	0	230	101300000	1000	0	0	-1	350
26093075	7420	623	0	-100	0	230	101300000	1000	0	0	-1	350
26105635	7410	624	0	-100	0	230	101300000	1000	0	0	-1	350
26118195	7397	628	0	-100	0	230	101300000	1000	0	0	-1	350
26130755	7416	629	0	-100	0	230	101300000	1000	0	0	-1	350
26143315	7412	622	0	-100	0	230	101300000	1000	0	0	-1	350
26155875	7424	623	0	-100	0	230	101300000	1000	0	0	-1	350
26168435	7410	623	0	-100	0	230	101300000	1000	0	0	-1	350
26180995	7407	624	0	-100	0	230	101300000	1000	0	0	-1	350
26193555	7416	628	0	-100	0	230	101300000	1000	0	0	-1	350
26206115	7419	623	0	-100	0	230	101300000	1000	0	0	-1	350
26218675	7405	623	0	-100	0	230	101300000	1000	0	0	-1	350
26231235	7406	628	0	-100	0	230	101300000	1000	0	0	-1	350
26243795	7405	631	0	-100	0	230	101300000	1000	0	0	-1	350
26256355	7408	630	0	-100	0	230	101300000	1000	0	0	-1	350
26268915	7414	629	0	-100	0	230	101300000	1000	0	0	-1	350
26281475	7412	623	0	-100	0	230	101300000	1000	0	0	-1	350
26294035	7413	623	0	-100	0	230	101300000	1000	0	0	-1	350
26306595	7413	625	0	-100	0	230	101300000	1000	0	0	-1	350
26319155	7408	625	0	-100	0	230	101300000	1000	0	0	-1	350
26331715	7412	626	0	-100	0	230	101300000	1000	0	0	-1	350
26344275	7403	629	0	-100	0	230	101300000	1000	0	0	-1	350
26356835	7407	632	0	-100	0	230	101300000	1000	0	0	-1	350
26369395	7400	630	0	-100	0	230	101300000	1000	0	0	-1	350
26381955	7412	631	0	-100	0	230	101300000	1000	0	0	-1	350
26394515	7416	631	0	-100	0	230	101300000	1000	0	0	-1	350
26407075	7411	632	0	-100	0	230	101300000	1000	0	0	-1	350
26419635	7400	631	0	-100	0	230	101300000	1000	0	0	-1	350
26432195	7413	628	0	-100	0	230	101300000	1000	0	0	-1	350
26444755	7408	621	0	-100	0	230	101300000	1000	0	0	-1	350
26457315	7412	628	0	-100	0	230	101300000	1000	0	0	-1	350
26469875	7403	621	0	-100	0	230	101300000	1000	0	0	-1	350
26482435	7405	630	0	-100	0	230	101300000	1000	0	0	-1	350
26494995	7405	625	0	-100	0	230	101300000	1000	0	0	-1	350
26507555	7403	627	0	-100	0	230	101300000	1000	0	0	-1	350
26520115	7414	624	0	-100	0	230	101300000	1000	0	0	-1	350
26532675	7415	622	0	-100	0	230	101300000	1000	0	0	-1	350
26545235	7414	625	0	-100	0	230	101300000	1000	0	0	-1	350
26557795	7407	628	0	-100	0	230	101300000	1000	0	0	-1	350
26570355	7398	633	0	-100	0	230	101300000	1000	0	0	-1	350
26582915	7412	628	0	-100	0	230	101300000	1000	0	0	-1	350
26595475	7406	623	0	-100	0	230	101300000	1000	0	0	-1	350
26608035	7415	625	0	-100	0	230	101300000	1000	0	0	-1	350
26620595	7408	629	0	-100	0	230	101300000	1000	0	0	-1	350
26633155	7421	633	0	-100	0	230	101300000	1000	0	0	-1	350
26645715	7410	622	0	-100	0	230	101300000	1000	0	0	-1	350
26658275	7409	622	0	-100	0	230	101300000	1000	0	0	-1	350
26670835	7410	626	0	-100	0	230	101300000	1000	0	0	-1	350
26683395	7410	625	0	-100	0	230	101300000	1000	0	0	-1	350
26695955	7417	626	0	-100	0	230	101300000	1000	0	0	-1	350
26708515	7401	626	0	-100	0	230	101300000	1000	0	0	-1	350
26721075	7410	622	0	-100	0	230	101300000	1000	0	0	-1	350
26733635	7412	625	0	-100	0	230	101300000	1000	0	0	-1	350
26746195	7421	624	0	-100	0	230	101300000	1000	0	0	-1	350
26758755	7413	624	0	-100	0	230	101300000	1000	0	0	-1	350
26771315	7408	624	0	-100	0	230	101300000	1000	0	0	-1	350
26783875	7405	623	0	-100	0	230	101300000	1000	0	0	-1	350
26796435	7412	623	0	-100	0	230	101300000	1000	0	0	-1	350
26808995	7415	626	0	-100	0	230	101300000	1000	0	0	-1	350
26821555	7405	626	0	-100	0	230	101300000	1000	0	0	-1	350
26834115	7416	627	0	-100	0	230	101300000	1000	0	0	-1	350
26846675	7410	627	0	-100	0	230	101300000	1000	0	0	-1	350
26859235	7416	627	0	-100	0	230	101300000	1000	0	0	-1	350
26871795	7406	626	0	-100	0	230	101300000	1000	0	0	-1	350
26884355	7412	627	0	-100	0	230	101300000	1000	0	0	-1	350
26896915	7410	625	0	-100	0	230	101300000	1000	0	0	-1	350
26909475	7404	625	0	-100	0	230	101300000	1000	0	0	-1	350
26922035	7403	628	0	-100	0	230	101300000	1000	0	0	-1	350
26934595	7417	635	0	-100	0	230	101300000	1000	0	0	-1	350
26947155	7420	633	0	-100	0	230	101300000	1000	0	0	-1	350
26959715	7417	627	0	-100	0	230	101300000	1000	0	0	-1	350
26972275	7418	624	0	-100	0	230	101300000	1000	0	0	-1	350
26984835	7412	628	0	-100	0	230	101300000	1000	0	0	-1	350
26997395	7414	630	0	-100	0	230	101300000	1000	0	0	-1	350
27009955	7410	631	0	-100	0	230	101300000	1000	0	0	-1	350
27022515	7417	627	0	-100	0	230	101300000	1000	0	0	-1	350
27035075	7413	625	0	-100	0	230	101300000	1000	0	0	-1	350
27047635	7417	626	0	-100	0	230	101300000	1000	0	0	-1	350
27060195	7396	627	0	-100	0	230	101300000	1000	0	0	-1	350
27072755	7412	636	0	-100	0	230	101300000	1000	0	0	-1	350
27085315	7403	632	0	-100	0	230	101300000	1000	0	0	-1	350
27097875	7422	627	0	-100	0	230	101300000	1000	0	0	-1	350
27110435	7420	628	0	-100	0	230	101300000	1000	0	0	-1	350
27122995	7413	627	0	-100	0	230	101300000	1000	0	0	-1	350
27135555	7401	629	0	-100	0	230	101300000	1000	0	0	-1	350
27148115	7404	631	0	-100	0	230	101300000	1000	0	0	-1	350
27160675	7406	633	0	-100	0	230	101300000	1000	0	0	-1	350
27173235	7414	631	0	-100	0	230	101300000	1000	0	0	-1	350
27185795	7420	629	0	-100	0	230	101300000	1000	0	0	-1	350
27198355	7411	624	0	-100	0	230	101300000	1000	0	0	-1	350
27210915	7417	626	0	-100	0	230	101300000	1000	0	0	-1	350
27223475	7410	627	0	-100	0	230	101300000	1000	0	0	-1	350
27236035	7410	630	0	-100	0	230	101300000	1000	0	0	-1	350
27248595	7422	632	0	-100	0	230	101300000	1000	0	0	-1	350
27261155	7408	634	0	-100	0	230	101300000	1000	0	0	-1	350
27273715	7398	630	0	-100	0	230	101300000	1000	0	0	-1	350
27286275	7407	633	0	-100	0	230	101300000	1000	0	0	-1	350
27298835	7410	628	0	-100	0	230	101300000	1000	0	0	-1	350
27311395	7416	627	0	-100	0	230	101300000	1000	0	0	-1	350
27323955	7411	624	0	-100	0	230	101300000	1000	0	0	-1	350
27336515	7418	628	0	-100	0	230	101300000	1000	0	0	-1	350
27349075	7415	625	0	-100	0	230	101300000	1000	0	0	-1	350
27361635	7410	625	0	-100	0	230	101300000	1000	0	0	-1	350
27374195	7419	628	0	-100	0	230	101300000	1000	0	0	-1	350
27386755	7416	627	0	-100	0	230	101300000	1000	0	0	-1	350
27399315	7405	632	0	-100	0	230	101300000	1000	0	0	-1	350
27411875	7403	633	0	-100	0	230	101300000	1000	0	0	-1	350
27424435	7405	631	0	-100	0	230	101300000	1000	0	0	-1	350
27436995	7407	625	0	-100	0	230	101300000	1000	0	0	-1	350
27449555	7414	631	0	-100	0	230	101300000	1000	0	0	-1	350
27462115	7407	625	0	-100	0	230	101300000	1000	0	0	-1	350
27474675	7413	624	0	-100	0	230	101300000	1000	0	0	-1	350
27487235	7415	624	0	-100	0	230	101300000	1000	0	0	-1	350
27499795	7417	627	0	-100	0	230	101300000	1000	0	0	-1	350
27512355	7415	626	0	-100	0	230	101300000	1000	0	0	-1	350
27524915	7415	623	0	-100	0	230	101300000	1000	0	0	-1	350
27537475	7422	629	0	-100	0	230	101300000	1000	0	0	-1	350
27550035	7419	628	0	-100	0	230	101300000	1000	0	0	-1	350
27562595	7410	627	0	-100	0	230	101300000	1000	0	0	-1	350
27575155	7412	626	0	-100	0	230	101300000	1000	0	0	-1	350
27587715	7414	627	0	-100	0	230	101300000	1000	0	0	-1	350
27600275	7428	630	0	-100	0	230	101300000	1000	0	0	-1	350
27612835	7418	628	0	-100	0	230	101300000	1000	0	0	-1	350
27625395	7424	628	0	-100	0	230	101300000	1000	0	0	-1	350
27637955	7420	624	0	-100	0	230	101300000	1000	0	0	-1	350
27650515	7430	624	0	-100	0	230	101300000	1000	0	0	-1	350
27663075	7417	625	0	-100	0	230	101300000	1000	0	0	-1	350
27675635	7417	627	0	-100	0	230	101300000	1000	0	0	-1	350
27688195	7419	627	0	-100	0	230	101300000	1000	0	0	-1	350
27700755	7420	626	0	-100	0	230	101300000	1000	0	0	-1	350
27713315	7420	625	0	-100	0	230	101300000	1000	0	0	-1	350
27725875	7418	627	0	-100	0	230	101300000	1000	0	0	-1	350
27738435	7408	629	0	-100	0	230	101300000	1000	0	0	-1	350
27750995	7410	629	0	-100	0	230	101300000	1000	0	0	-1	350
27763555	7412	636	0	-100	0	230	101300000	1000	0	0	-1	350
27776115	7403	629	0	-100	0	230	101300000	1000	0	0	-1	350
27788675	7403	626	0	-100	0	230	101300000	1000	0	0	-1	350
27801235	7412	623	0	-100	0	230	101300000	1000	0	0	-1	350
27813795	7422	622	0	-100	0	230	101300000	1000	0	0	-1	350
27826355	7418	625	0	-100	0	230	101300000	1000	0	0	-1	350
27838915	7422	626	0	-100	0	230	101300000	1000	0	0	-1	350
27851475	7407	631	0	-100	0	230	101300000	1000	0	0	-1	350
27864035	7399	633	0	-100	0	230	101300000	1000	0	0	-1	350
27876595	7403	631	0	-100	0	230	101300000	1000	0	0	-1	350
27889155	7407	630	0	-100	0	230	101300000	1000	0	0	-1	350
27901715	7415	627	0	-100	0	230	101300000	1000	0	0	-1	350
27914275	7418	624	0	-100	0	230	101300000	1000	0	0	-1	350
27926835	7422	625	0	-100	0	230	101300000	1000	0	0	-1	350
27939395	7419	627	0	-100	0	230	101300000	1000	0	0	-1	350
27951955	7418	624	0	-100	0	230	101300000	1000	0	0	-1	350
27964515	7422	627	0	-100	0	230	101300000	1000	0	0	-1	350
27977075	7410	626	0	-100	0	230	101300000	1000	0	0	-1	350
27989635	7413	626	0	-100	0	230	101300000	1000	0	0	-1	350
28002195	7417	628	0	-100	0	230	101300000	1000	0	0	-1	350
28014755	7405	628	0	-100	0	230	101300000	1000	0	0	-1	350
28027315	7414	624	0	-100	0	230	101300000	1000	0	0	-1	350
28039875	7412	623	0	-100	0	230	101300000	1000	0	0	-1	350
28052435	7416	627	0	-100	0	230	101300000	1000	0	0	-1	350
28064995	7406	625	0	-100	0	230	101300000	1000	0	0	-1	350
28077555	7415	626	0	-100	0	230	101300000	1000	0	0	-1	350
28090115	7413	623	0	-100	0	230	101300000	1000	0	0	-1	350
28102675	7414	627	0	-100	0	230	101300000	1000	0	0	-1	350
28115235	7419	626	0	-100	0	230	101300000	1000	0	0	-1	350
28127795	7419	631	0	-100	0	230	101300000	1000	0	0	-1	350
28140355	7421	630	0	-100	0	230	101300000	1000	0	0	-1	350
28152915	7413	630	0	-100	0	230	101300000	1000	0	0	-1	350
28165475	7417	626	0	-100	0	230	101300000	1000	0	0	-1	350
28178035	7428	625	0	-100	0	230	101300000	1000	0	0	-1	350
28190595	7414	628	0	-100	0	230	101300000	1000	0	0	-1	350
28203155	7423	626	0	-100	0	230	101300000	1000	0	0	-1	350
28215715	7413	625	0	-100	0	230	101300000	1000	0	0	-1	350
28228275	7417	626	0	-100	0	230	101300000	1000	0	0	-1	350
28240835	7410	628	0	-100	0	230	101300000	1000	0	0	-1	350
28253395	7407	626	0	-100	0	230	101300000	1000	0	0	-1	350
28265955	7422	625	0	-100	0	230	101300000	1000	0	0	-1	350
28278515	7415	625	0	-100	0	230	101300000	1000	0	0	-1	350
28291075	7420	628	0	-100	0	230	101300000	1000	0	0	-1	350
28303635	7408	625	0	-100	0	230	101300000	1000	0	0	-1	350
28316195	7412	626	0	-100	0	230	101300000	1000	0	0	-1	350
28328755	7416	625	0	-100	0	230	101300000	1000	0	0	-1	350
28341315	7411	625	0	-100	0	230	101300000	1000	0	0	-1	350
28353875	7409	626	0	-100	0	230	101300000	1000	0	0	-1	350
28366435	7413	626	0	-100	0	230	101300000	1000	0	0	-1	350
28378995	7416	629	0	-100	0	230	101300000	1000	0	0	-1	350
28391555	7422	628	0	-100	0	230	101300000	1000	0	0	-1	350
28404115	7407	628	0	-100	0	230	101300000	1000	0	0	-1	350
28416675	7415	626	0	-100	0	230	101300000	1000	0	0	-1	350
28429235	7419	627	0	-100	0	230	101300000	1000	0	0	-1	350
28441795	7416	627	0	-100	0	230	101300000	1000	0	0	-1	350
28454355	7414	627	0	-100	0	230	101300000	1000	0	0	-1	350
28466915	7426	630	0	-100	0	230	101300000	1000	0	0	-1	350
28479475	7410	628	0	-100	0	230	101300000	1000	0	0	-1	350
28492035	7416	630	0	-100	0	230	101300000	1000	0	0	-1	350
28504595	7422	627	0	-100	0	230	101300000	1000	0	0	-1	350
28517155	7424	626	0	-100	0	230	101300000	1000	0	0	-1	350
28529715	7420	625	0	-100	0	230	101300000	1000	0	0	-1	350
28542275	7413	625	0	-100	0	230	101300000	1000	0	0	-1	350
28554835	7403	625	0	-100	0	230	101300000	1000	0	0	-1	350
28567395	7407	630	0	-100	0	230	101300000	1000	0	0	-1	350
28579955	7407	635	0	-100	0	230	101300000	1000	0	0	-1	350
28592515	7410	631	0	-100	0	230	101300000	1000	0	0	-1	350
28605075	7408	631	0	-100	0	230	101300000	1000	0	0	-1	350
28617635	7401	628	0	-100	0	230	101300000	1000	0	0	-1	350
28630195	7403	628	0	-100	0	230	101300000	1000	0	0	-1	350
28642755	7421	631	0	-100	0	230	101300000	1000	0	0	-1	350
28655315	7405	629	0	-100	0	230	101300000	1000	0	0	-1	350
28667875	7408	625	0	-100	0	230	101300000	1000	0	0	-1	350
28680435	7413	624	0	-100	0	230	101300000	1000	0	0	-1	350
28692995	7416	630	0	-100	0	230	101300000	1000	0	0	-1	350
28705555	7411	623	0	-100	0	230	101300000	1000	0	0	-1	350
28718115	7414	627	0	-100	0	230	101300000	1000	0	0	-1	350
28730675	7406	628	0	-100	0	230	101300000	1000	0	0	-1	350
28743235	7416	631	0	-100	0	230	101300000	1000	0	0	-1	350
28755795	7410	636	0	-100	0	230	101300000	1000	0	0	-1	350
28768355	7417	626	0	-100	0	230	101300000	1000	0	0	-1	350
28780915	7422	626	0	-100	0	230	101300000	1000	0	0	-1	350
28793475	7420	626	0	-100	0	230	101300000	1000	0	0	-1	350
28806035	7424	625	0	-100	0	230	101300000	1000	0	0	-1	350
28818595	7407	632	0	-100	0	230	101300000	1000	0	0	-1	350
28831155	7416	634	0	-100	0	230	101300000	1000	0	0	-1	350
28843715	7410	630	0	-100	0	230	101300000	1000	0	0	-1	350
28856275	7415	624	0	-100	0	230	101300000	1000	0	0	-1	350
28868835	7410	623	0	-100	0	230	101300000	1000	0	0	-1	350
28881395	7419	625	0	-100	0	230	101300000	1000	0	0	-1	350
28893955	7405	622	0	-100	0	230	101300000	1000	0	0	-1	350
28906515	7418	627	0	-100	0	230	101300000	1000	0	0	-1	350
28919075	7415	628	0	-100	0	230	101300000	1000	0	0	-1	350
28931635	7413	630	0	-100	0	230	101300000	1000	0	0	-1	350
28944195	7417	631	0	-100	0	230	101300000	1000	0	0	-1	350
28956755	7419	632	0	-100	0	230	101300000	1000	0	0	-1	350
28969315	7405	634	0	-100	0	230	101300000	1000	0	0	-1	350
28981875	7403	631	0	-100	0	230	101300000	1000	0	0	-1	350
28994435	7415	630	0	-100	0	230	101300000	1000	0	0	-1	350
29006995	7413	625	0	-100	0	230	101300000	1000	0	0	-1	350
29019555	7420	633	0	-100	0	230	101300000	1000	0	0	-1	350
29032115	7408	630	0	-100	0	230	101300000	1000	0	0	-1	350
29044675	7416	632	0	-100	0	230	101300000	1000	0	0	-1	350
29057235	7410	629	0	-100	0	230	101300000	1000	0	0	-1	350
29069795	7416	623	0	-100	0	230	101300000	1000	0	0	-1	350
29082355	7419	625	0	-100	0	230	101300000	1000	0	0	-1	350
29094915	7401	630	0	-100	0	230	101300000	1000	0	0	-1	350
29107475	7408	634	0	-100	0	230	101300000	1000	0	0	-1	350
29120035	7411	633	0	-100	0	230	101300000	1000	0	0	-1	350
29132595	7422	625	0	-100	0	230	101300000	1000	0	0	-1	350
29145155	7413	625	0	-100	0	230	101300000	1000	0	0	-1	350
29157715	7413	625	0	-100	0	230	101300000	1000	0	0	-1	350
29170275	7413	630	0	-100	0	230	101300000	1000	0	0	-1	350
29182835	7408	633	0	-100	0	230	101300000	1000	0	0	-1	350
29195395	7412	629	0	-100	0	230	101300000	1000	0	0	-1	350
29207955	7419	626	0	-100	0	230	101300000	1000	0	0	-1	350
29220515	7420	625	0	-100	0	230	101300000	1000	0	0	-1	350
29233075	7408	631	0	-100	0	230	101300000	1000	0	0	-1	350
29245635	7409	632	0	-100	0	230	101300000	1000	0	0	-1	350
29258195	7413	626	0	-100	0	230	101300000	1000	0	0	-1	350
29270755	7411	625	0	-100	0	230	101300000	1000	0	0	-1	350
29283315	7416	625	0	-100	0	230	101300000	1000	0	0	-1	350
29295875	7409	629	0	-100	0	230	101300000	1000	0	0	-1	350
29308435	7412	630	0	-100	0	230	101300000	1000	0	0	-1	350
29320995	7413	631	0	-100	0	230	101300000	1000	0	0	-1	350
29333555	7424	626	0	-100	0	230	101300000	1000	0	0	-1	350
29346115	7418	625	0	-100	0	230	101300000	1000	0	0	-1	350
29358675	7412	630	0	-100	0	230	101300000	1000	0	0	-1	350
29371235	7412	634	0	-100	0	230	101300000	1000	0	0	-1	350
29383795	7424	626	0	-100	0	230	101300000	1000	0	0	-1	350
29396355	7416	628	0	-100	0	230	101300000	1000	0	0	-1	350
29408915	7406	629	0	-100	0	230	101300000	1000	0	0	-1	350
29421475	7417	634	0	-100	0	230	101300000	1000	0	0	-1	350
29434035	7403	630	0	-100	0	230	101300000	1000	0	0	-1	350
29446595	7419	627	0	-100	0	230	101300000	1000	0	0	-1	350
29459155	7404	623	0	-100	0	230	101300000	1000	0	0	-1	350
29471715	7420	626	0	-100	0	230	101300000	1000	0	0	-1	350
29484275	7413	627	0	-100	0	230	101300000	1000	0	0	-1	350
29496835	7413	632	0	-100	0	230	101300000	1000	0	0	-1	350
29509395	7421	635	0	-100	0	230	101300000	1000	0	0	-1	350
29521955	7414	632	0	-100	0	230	101300000	1000	0	0	-1	350
29534515	7412	627	0	-100	0	230	101300000	1000	0	0	-1	350
29547075	7411	626	0	-100	0	230	101300000	1000	0	0	-1	350
29559635	7415	625	0	-100	0	230	101300000	1000	0	0	-1	350
29572195	7407	631	0	-100	0	230	101300000	1000	0	0	-1	350
29584755	7403	634	0	-100	0	230	101300000	1000	0	0	-1	350
29597315	7403	633	0	-100	0	230	101300000	1000	0	0	-1	350
29609875	7410	635	0	-100	0	230	101300000	1000	0	0	-1	350
29622435	7419	633	0	-100	0	230	101300000	1000	0	0	-1	350
29634995	7416	629	0	-100	0	230	101300000	1000	0	0	-1	350
29647555	7420	627	0	-100	0	230	101300000	1000	0	0	-1	350
29660115	7424	627	0	-100	0	230	101300000	1000	0	0	-1	350
29672675	7420	625	0	-100	0	230	101300000	1000	0	0	-1	350
29685235	7413	624	0	-100	0	230	101300000	1000	0	0	-1	350
29697795	7424	627	0	-100	0	230	101300000	1000	0	0	-1	350
29710355	7406	629	0	-100	0	230	101300000	1000	0	0	-1	350
29722915	7417	631	0	-100	0	230	101300000	1000	0	0	-1	350
29735475	7415	622	0	-100	0	230	101300000	1000	0	0	-1	350
29748035	7422	624	0	-100	0	230	101300000	1000	0	0	-1	350
29760595	7409	628	0	-100	0	230	101300000	1000	0	0	-1	350
29773155	7405	629	0	-100	0	230	101300000	1000	0	0	-1	350
29785715	7410	631	0	-100	0	230	101300000	1000	0	0	-1	350
29798275	7405	630	0	-100	0	230	101300000	1000	0	0	-1	350
29810835	7410	627	0	-100	0	230	101300000	1000	0	0	-1	350
29823395	7425	625	0	-100	0	230	101300000	1000	0	0	-1	350
29835955	7415	624	0	-100	0	230	101300000	1000	0	0	-1	350
29848515	7413	629	0	-100	0	230	101300000	1000	0	0	-1	350
29861075	7420	632	0	-100	0	230	101300000	1000	0	0	-1	350
29873635	7411	632	0	-100	0	230	101300000	1000	0	0	-1	350
29886195	7417	627	0	-100	0	230	101300000	1000	0	0	-1	350
29898755	7425	625	0	-100	0	230	101300000	1000	0	0	-1	350
29911315	7405	629	0	-100	0	230	101300000	1000	0	0	-1	350
29923875	7410	633	0	-100	0	230	101300000	1000	0	0	-1	350
29936435	7417	631	0	-100	0	230	101300000	1000	0	0	-1	350
29948995	7414	633	0	-100	0	230	101300000	1000	0	0	-1	350
29961555	7418	626	0	-100	0	230	101300000	1000	0	0	-1	350
29974115	7410	623	0	-100	0	230	101300000	1000	0	0	-1	350
29986675	7403	626	0	-100	0	230	101300000	1000	0	0	-1	350
29999235	7413	630	0	-100	0	230	101300000	1000	0	0	-1	350
30011795	7414	634	0	-100	0	230	101300000	1000	0	0	-1	350
30024355	7422	628	0	-100	0	230	101300000	1000	0	0	-1	350
30036915	7408	625	0	-100	0	230	101300000	1000	0	0	-1	350
30049475	7412	630	0	-100	0	230	101300000	1000	0	0	-1	350
30062035	7410	632	0	-100	0	230	101300000	1000	0	0	-1	350
30074595	7424	628	0	-100	0	230	101300000	1000	0	0	-1	350
30087155	7420	627	0	-100	0	230	101300000	1000	0	0	-1	350
30099715	7416	632	0	-100	0	230	101300000	1000	0	0	-1	350
30112275	7403	630	0	-100	0	230	101300000	1000	0	0	-1	350
30124835	7411	625	0	-100	0	230	101300000	1000	0	0	-1	350
30137395	7418	625	0	-100	0	230	101300000	1000	0	0	-1	350
30149955	7424	631	0	-100	0	230	101300000	1000	0	0	-1	350
30162515	7418	626	0	-100	0	230	101300000	1000	0	0	-1	350
30175075	7405	633	0	-100	0	230	101300000	1000	0	0	-1	350
30187635	7415	626	0	-100	0	230	101300000	1000	0	0	-1	350
30200195	7415	634	0	-100	0	230	101300000	1000	0	0	-1	350
30212755	7413	624	0	-100	0	230	101300000	1000	0	0	-1	350
30225315	7414	634	0	-100	0	230	101300000	1000	0	0	-1	350
30237875	7415	628	0	-100	0	230	101300000	1000	0	0	-1	350
30250435	7403	628	0	-100	0	230	101300000	1000	0	0	-1	350
30262995	7414	627	0	-100	0	230	101300000	1000	0	0	-1	350
30275555	7424	625	0	-100	0	230	101300000	1000	0	0	-1	350
30288115	7421	632	0	-100	0	230	101300000	1000	0	0	-1	350
30300675	7427	626	0	-100	0	230	101300000	1000	0	0	-1	350
30313235	7411	627	0	-100	0	230	101300000	1000	0	0	-1	350
30325795	7412	631	0	-100	0	230	101300000	1000	0	0	-1	350
30338355	7433	625	0	-100	0	230	101300000	1000	0	0	-1	350
30350915	7413	634	0	-100	0	230	101300000	1000	0	0	-1	350
30363475	7415	628	0	-100	0	230	101300000	1000	0	0	-1	350
30376035	7415	629	0	-100	0	230	101300000	1000	0	0	-1	350
30388595	7411	622	0	-100	0	230	101300000	1000	0	0	-1	350
30401155	7407	633	0	-100	0	230	101300000	1000	0	0	-1	350
30413715	7410	627	0	-100	0	230	101300000	1000	0	0	-1	350
30426275	7403	630	0	-100	0	230	101300000	1000	0	0	-1	350
30438835	7418	626	0	-100	0	230	101300000	1000	0	0	-1	350
30451395	7414	627	0	-100	0	230	101300000	1000	0	0	-1	350
30463955	7403	626	0	-100	0	230	101300000	1000	0	0	-1	350
30476515	7420	634	0	-100	0	230	101300000	1000	0	0	-1	350
30489075	7419	625	0	-100	0	230	101300000	1000	0	0	-1	350
30501635	7417	628	0	-100	0	230	101300000	1000	0	0	-1	350
30514195	7419	631	0	-100	0	230	101300000	1000	0	0	-1	350
30526755	7420	623	0	-100	0	230	101300000	1000	0	0	-1	350
30539315	7415	632	0	-100	0	230	101300000	1000	0	0	-1	350
30551875	7422	626	0	-100	0	230	101300000	1000	0	0	-1	350
30564435	7420	625	0	-100	0	230	101300000	1000	0	0	-1	350
30576995	7402	626	0	-100	0	230	101300000	1000	0	0	-1	350
30589555	7420	625	0	-100	0	230	101300000	1000	0	0	-1	350
30602115	7406	629	0	-100	0	230	101300000	1000	0	0	-1	350
30614675	7419	629	0	-100	0	230	101300000	1000	0	0	-1	350
30627235	7417	628	0	-100	0	230	101300000	1000	0	0	-1	350
30639795	7427	626	0	-100	0	230	101300000	1000	0	0	-1	350
30652355	7420	630	0	-100	0	230	101300000	1000	0	0	-1	350
30664915	7410	623	0	-100	0	230	101300000	1000	0	0	-1	350
30677475	7410	633	0	-100	0	230	101300000	1000	0	0	-1	350
30690035	7413	623	0	-100	0	230	101300000	1000	0	0	-1	350
30702595	7417	631	0	-100	0	230	101300000	1000	0	0	-1	350
30715155	7424	626	0	-100	0	230	101300000	1000	0	0	-1	350
30727715	7411	628	0	-100	0	230	101300000	1000	0	0	-1	350
30740275	7413	626	0	-100	0	230	101300000	1000	0	0	-1	350
30752835	7409	624	0	-100	0	230	101300000	1000	0	0	-1	350
30765395	7410	631	0	-100	0	230	101300000	1000	0	0	-1	350
30777955	7424	626	0	-100	0	230	101300000	1000	0	0	-1	350
30790515	7417	625	0	-100	0	230	101300000	1000	0	0	-1	350
30803075	7412	630	0	-100	0	230	101300000	1000	0	0	-1	350
30815635	7410	626	0	-100	0	230	101300000	1000	0	0	-1	350
30828195	7415	626	0	-100	0	230	101300000	1000	0	0	-1	350
30840755	7417	635	0	-100	0	230	101300000	1000	0	0	-1	350
30853315	7429	624	0	-100	0	230	101300000	1000	0	0	-1	350
30865875	7414	632	0	-100	0	230	101300000	1000	0	0	-1	350
30878435	7419	626	0	-100	0	230	101300000	1000	0	0	-1	350
30890995	7420	626	0	-100	0	230	101300000	1000	0	0	-1	350
30903555	7408	631	0	-100	0	230	101300000	1000	0	0	-1	350
30916115	7416	627	0	-100	0	230	101300000	1000	0	0	-1	350
30928675	7416	629	0	-100	0	230	101300000	1000	0	0	-1	350
30941235	7408	624	0	-100	0	230	101300000	1000	0	0	-1	350
30953795	7419	629	0	-100	0	230	101300000	1000	0	0	-1	350
30966355	7419	628	0	-100	0	230	101300000	1000	0	0	-1	350
30978915	7410	625	0	-100	0	230	101300000	1000	0	0	-1	350
30991475	7407	627	0	-100	0	230	101300000	1000	0	0	-1	350
31004035	7413	629	0	-100	0	230	101300000	1000	0	0	-1	350
31016595	7406	626	0	-100	0	230	101300000	1000	0	0	-1	350
31029155	7409	629	0	-100	0	230	101300000	1000	0	0	-1	350
31041715	7415	626	0	-100	0	230	101300000	1000	0	0	-1	350
31054275	7415	635	0	-100	0	230	101300000	1000	0	0	-1	350
31066835	7422	627	0	-100	0	230	101300000	1000	0	0	-1	350
31079395	7422	627	0	-100	0	230	101300000	1000	0	0	-1	350
31091955	7413	630	0	-100	0	230	101300000	1000	0	0	-1	350
31104515	7420	626	0	-100	0	230	101300000	1000	0	0	-1	350
31117075	7426	633	0	-100	0	230	101300000	1000	0	0	-1	350
31129635	7411	623	0	-100	0	230	101300000	1000	0	0	-1	350
31142195	7409	631	0	-100	0	230	101300000	1000	0	0	-1	350
31154755	7414	628	0	-100	0	230	101300000	1000	0	0	-1	350
31167315	7415	634	0	-100	0	230	101300000	1000	0	0	-1	350
31179875	7422	627	0	-100	0	230	101300000	1000	0	0	-1	350
31192435	7406	632	0	-100	0	230	101300000	1000	0	0	-1	350
31204995	7413	621	0	-100	0	230	101300000	1000	0	0	-1	350
31217555	7420	623	0	-100	0	230	101300000	1000	0	0	-1	350
31230115	7411	634	0	-100	0	230	101300000	1000	0	0	-1	350
31242675	7427	626	0	-100	0	230	101300000	1000	0	0	-1	350
31255235	7411	631	0	-100	0	230	101300000	1000	0	0	-1	350
31267795	7424	627	0	-100	0	230	101300000	1000	0	0	-1	350
31280355	7415	631	0	-100	0	230	101300000	1000	0	0	-1	350
31292915	7420	626	0	-100	0	230	101300000	1000	0	0	-1	350
31305475	7412	631	0	-100	0	230	101300000	1000	0	0	-1	350
31318035	7417	626	0	-100	0	230	101300000	1000	0	0	-1	350
31330595	7419	624	0	-100	0	230	101300000	1000	0	0	-1	350
31343155	7410	633	0	-100	0	230	101300000	1000	0	0	-1	350
31355715	7413	624	0	-100	0	230	101300000	1000	0	0	-1	350
31368275	7406	635	0	-100	0	230	101300000	1000	0	0	-1	350
31380835	7413	621	0	-100	0	230	101300000	1000	0	0	-1	350
31393395	7412	632	0	-100	0	230	101300000	1000	0	0	-1	350
31405955	7422	626	0	-100	0	230	101300000	1000	0	0	-1	350
31418515	7412	633	0	-100	0	230	101300000	1000	0	0	-1	350
31431075	7404	625	0	-100	0	230	101300000	1000	0	0	-1	350
31443635	7404	627	0	-100	0	230	101300000	1000	0	0	-1	350
31456195	7415	626	0	-100	0	230	101300000	1000	0	0	-1	350
31468755	7403	628	0	-100	0	230	101300000	1000	0	0	-1	350
31481315	7417	629	0	-100	0	230	101300000	1000	0	0	-1	350
31493875	7419	626	0	-100	0	230	101300000	1000	0	0	-1	350
31506435	7433	629	0	-100	0	230	101300000	1000	0	0	-1	350
31518995	7410	629	0	-100	0	230	101300000	1000	0	0	-1	350
31531555	7414	631	0	-100	0	230	101300000	1000	0	0	-1	350
31544115	7410	626	0	-100	0	230	101300000	1000	0	0	-1	350
31556675	7409	632	0	-100	0	230	101300000	1000	0	0	-1	350
31569235	7422	624	0	-100	0	230	101300000	1000	0	0	-1	350
31581795	7409	631	0	-100	0	230	101300000	1000	0	0	-1	350
31594355	7405	627	0	-100	0	230	101300000	1000	0	0	-1	350
31606915	7410	623	0	-100	0	230	101300000	1000	0	0	-1	350
31619475	7412	630	0	-100	0	230	101300000	1000	0	0	-1	350
31632035	7408	626	0	-100	0	230	101300000	1000	0	0	-1	350
31644595	7416	634	0	-100	0	230	101300000	1000	0	0	-1	350
31657155	7412	627	0	-100	0	230	101300000	1000	0	0	-1	350
31669715	7420	624	0	-100	0	230	101300000	1000	0	0	-1	350
31682275	7424	625	0	-100	0	230	101300000	1000	0	0	-1	350
31694835	7419	635	0	-100	0	230	101300000	1000	0	0	-1	350
31707395	7408	626	0	-100	0	230	101300000	1000	0	0	-1	350
31719955	7422	625	0	-100	0	230	101300000	1000	0	0	-1	350
31732515	7415	627	0	-100	0	230	101300000	1000	0	0	-1	350
31745075	7417	630	0	-100	0	230	101300000	1000	0	0	-1	350
31757635	7424	626	0	-100	0	230	101300000	1000	0	0	-1	350
31770195	7420	632	0	-100	0	230	101300000	1000	0	0	-1	350
31782755	7412	630	0	-100	0	230	101300000	1000	0	0	-1	350
31795315	7423	624	0	-100	0	230	101300000	1000	0	0	-1	350
31807875	7424	624	0	-100	0	230	101300000	1000	0	0	-1	350
31820435	7418	634	0	-100	0	230	101300000	1000	0	0	-1	350
31832995	7424	633	0	-100	0	230	101300000	1000	0	0	-1	350
31845555	7418	625	0	-100	0	230	101300000	1000	0	0	-1	350
31858115	7422	634	0	-100	0	230	101300000	1000	0	0	-1	350
31870675	7418	625	0	-100	0	230	101300000	1000	0	0	-1	350
31883235	7417	626	0	-100	0	230	101300000	1000	0	0	-1	350
31895795	7417	634	0	-100	0	230	101300000	1000	0	0	-1	350
31908355	7415	625	0	-100	0	230	101300000	1000	0	0	-1	350
31920915	7408	625	0	-100	0	230	101300000	1000	0	0	-1	350
31933475	7406	628	0	-100	0	230	101300000	1000	0	0	-1	350
31946035	7402	630	0	-100	0	230	101300000	1000	0	0	-1	350
31958595	7417	627	0	-100	0	230	101300000	1000	0	0	-1	350
31971155	7430	632	0	-100	0	230	101300000	1000	0	0	-1	350
31983715	7411	626	0	-100	0	230	101300000	1000	0	0	-1	350
31996275	7417	631	0	-100	0	230	101300000	1000	0	0	-1	350
32008835	7416	627	0	-100	0	230	101300000	1000	0	0	-1	350
32021395	7422	625	0	-100	0	230	101300000	1000	0	0	-1	350
32033955	7404	630	0	-100	0	230	101300000	1000	0	0	-1	350
32046515	7420	626	0	-100	0	230	101300000	1000	0	0	-1	350
32059075	7412	629	0	-100	0	230	101300000	1000	0	0	-1	350
32071635	7422	626	0	-100	0	230	101300000	1000	0	0	-1	350
32084195	7424	630	0	-100	0	230	101300000	1000	0	0	-1	350
32096755	7422	628	0	-100	0	230	101300000	1000	0	0	-1	350
32109315	7418	622	0	-100	0	230	101300000	1000	0	0	-1	350
32121875	7418	633	0	-100	0	230	101300000	1000	0	0	-1	350
32134435	7427	625	0	-100	0	230	101300000	1000	0	0	-1	350
32146995	7420	625	0	-100	0	230	101300000	1000	0	0	-1	350
32159555	7425	625	0	-100	0	230	101300000	1000	0	0	-1	350
32172115	7417	628	0	-100	0	230	101300000	1000	0	0	-1	350
32184675	7412	630	0	-100	0	230	101300000	1000	0	0	-1	350
32197235	7411	627	0	-100	0	230	101300000	1000	0	0	-1	350
32209795	7412	634	0	-100	0	230	101300000	1000	0	0	-1	350
32222355	7418	626	0	-100	0	230	101300000	1000	0	0	-1	350
32234915	7424	633	0	-100	0	230	101300000	1000	0	0	-1	350
32247475	7413	626	0	-100	0	230	101300000	1000	0	0	-1	350
32260035	7413	629	0	-100	0	230	101300000	1000	0	0	-1	350
32272595	7409	628	0	-100	0	230	101300000	1000	0	0	-1	350
32285155	7422	628	0	-100	0	230	101300000	1000	0	0	-1	350
32297715	7422	633	0	-100	0	230	101300000	1000	0	0	-1	350
32310275	7422	628	0	-100	0	230	101300000	1000	0	0	-1	350
32322835	7410	633	0	-100	0	230	101300000	1000	0	0	-1	350
32335395	7409	626	0	-100	0	230	101300000	1000	0	0	-1	350
32347955	7420	631	0	-100	0	230	101300000	1000	0	0	-1	350
32360515	7414	629	0	-100	0	230	101300000	1000	0	0	-1	350
32373075	7415	626	0	-100	0	230	101300000	1000	0	0	-1	350
32385635	7403	630	0	-100	0	230	101300000	1000	0	0	-1	350
32398195	7436	629	0	-100	0	230	101300000	1000	0	0	-1	350
32410755	7420	625	0	-100	0	230	101300000	1000	0	0	-1	350
32423315	7419	632	0	-100	0	230	101300000	1000	0	0	-1	350
32435875	7424	626	0	-100	0	230	101300000	1000	0	0	-1	350
32448435	7414	627	0	-100	0	230	101300000	1000	0	0	-1	350
32460995	7414	631	0	-100	0	230	101300000	1000	0	0	-1	350
32473555	7413	628	0	-100	0	230	101300000	1000	0	0	-1	350
32486115	7415	635	0	-100	0	230	101300000	1000	0	0	-1	350
32498675	7429	622	0	-100	0	230	101300000	1000	0	0	-1	350
32511235	7400	627	0	-100	0	230	101300000	1000	0	0	-1	350
32523795	7419	628	0	-100	0	230	101300000	1000	0	0	-1	350
32536355	7422	625	0	-100	0	230	101300000	1000	0	0	-1	350
32548915	7417	628	0	-100	0	230	101300000	1000	0	0	-1	350
32561475	7417	627	0	-100	0	230	101300000	1000	0	0	-1	350
32574035	7417	625	0	-100	0	230	101300000	1000	0	0	-1	350
32586595	7416	632	0	-100	0	230	101300000	1000	0	0	-1	350
32599155	7422	627	0	-100	0	230	101300000	1000	0	0	-1	350
32611715	7424	626	0	-100	0	230	101300000	1000	0	0	-1	350
32624275	7411	629	0	-100	0	230	101300000	1000	0	0	-1	350
32636835	7422	625	0	-100	0	230	101300000	1000	0	0	-1	350
32649395	7416	631	0	-100	0	230	101300000	1000	0	0	-1	350
32661955	7420	632	0	-100	0	230	101300000	1000	0	0	-1	350
32674515	7416	628	0	-100	0	230	101300000	1000	0	0	-1	350
32687075	7419	635	0	-100	0	230	101300000	1000	0	0	-1	350
32699635	7422	626	0	-100	0	230	101300000	1000	0	0	-1	350
32712195	7408	632	0	-100	0	230	101300000	1000	0	0	-1	350
32724755	7431	626	0	-100	0	230	101300000	1000	0	0	-1	350
32737315	7424	630	0	-100	0	230	101300000	1000	0	0	-1	350
32749875	7422	625	0	-100	0	230	101300000	1000	0	0	-1	350
32762435	7410	632	0	-100	0	230	101300000	1000	0	0	-1	350
32774995	7406	628	0	-100	0	230	101300000	1000	0	0	-1	350
32787555	7420	620	0	-100	0	230	101300000	1000	0	0	-1	350
32800115	7410	623	0	-100	0	230	101300000	1000	0	0	-1	350
32812675	7410	632	0	-100	0	230	101300000	1000	0	0	-1	350
32825235	7426	626	0	-100	0	230	101300000	1000	0	0	-1	350
32837795	7420	626	0	-100	0	230	101300000	1000	0	0	-1	350
32850355	7416	631	0	-100	0	230	101300000	1000	0	0	-1	350
32862915	7414	628	0	-100	0	230	101300000	1000	0	0	-1	350
32875475	7415	624	0	-100	0	230	101300000	1000	0	0	-1	350
32888035	7419	624	0	-100	0	230	101300000	1000	0	0	-1	350
32900595	7414	631	0	-100	0	230	101300000	1000	0	0	-1	350
32913155	7420	628	0	-100	0	230	101300000	1000	0	0	-1	350
32925715	7424	626	0	-100	0	230	101300000	1000	0	0	-1	350
32938275	7421	635	0	-100	0	230	101300000	1000	0	0	-1	350
32950835	7419	631	0	-100	0	230	101300000	1000	0	0	-1	350
32963395	7410	627	0	-100	0	230	101300000	1000	0	0	-1	350
32975955	7410	629	0	-100	0	230	101300000	1000	0	0	-1	350
32988515	7415	630	0	-100	0	230	101300000	1000	0	0	-1	350
33001075	7427	629	0	-100	0	230	101300000	1000	0	0	-1	350
33013635	7416	625	0	-100	0	230	101300000	1000	0	0	-1	350
33026195	7416	631	0	-100	0	230	101300000	1000	0	0	-1	350
33038755	7415	632	0	-100	0	230	101300000	1000	0	0	-1	350
33051315	7424	626	0	-100	0	230	101300000	1000	0	0	-1	350
33063875	7424	626	0	-100	0	230	101300000	1000	0	0	-1	350
33076435	7408	632	0	-100	0	230	101300000	1000	0	0	-1	350
33088995	7423	632	0	-100	0	230	101300000	1000	0	0	-1	350
33101555	7424	626	0	-100	0	230	101300000	1000	0	0	-1	350
33114115	7426	629	0	-100	0	230	101300000	1000	0	0	-1	350
33126675	7412	631	0	-100	0	230	101300000	1000	0	0	-1	350
33139235	7420	624	0	-100	0	230	101300000	1000	0	0	-1	350
33151795	7415	630	0	-100	0	230	101300000	1000	0	0	-1	350
33164355	7415	630	0	-100	0	230	101300000	1000	0	0	-1	350
33176915	7429	627	0	-100	0	230	101300000	1000	0	0	-1	350
33189475	7405	629	0	-100	0	230	101300000	1000	0	0	-1	350
33202035	7413	630	0	-100	0	230	101300000	1000	0	0	-1	350
33214595	7420	628	0	-100	0	230	101300000	1000	0	0	-1	350
33227155	7398	628	0	-100	0	230	101300000	1000	0	0	-1	350
33239715	7410	628	0	-100	0	230	101300000	1000	0	0	-1	350
33252275	7427	626	0	-100	0	230	101300000	1000	0	0	-1	350
33264835	7422	634	0	-100	0	230	101300000	1000	0	0	-1	350
33277395	7427	624	0	-100	0	230	101300000	1000	0	0	-1	350
33289955	7415	629	0	-100	0	230	101300000	1000	0	0	-1	350
33302515	7417	626	0	-100	0	230	101300000	1000	0	0	-1	350
33315075	7420	625	0	-100	0	230	101300000	1000	0	0	-1	350
33327635	7405	633	0	-100	0	230	101300000	1000	0	0	-1	350
33340195	7414	622	0	-100	0	230	101300000	1000	0	0	-1	350
33352755	7415	628	0	-100	0	230	101300000	1000	0	0	-1	350
33365315	7410	634	0	-100	0	230	101300000	1000	0	0	-1	350
33377875	7420	628	0	-100	0	230	101300000	1000	0	0	-1	350
33390435	7416	633	0	-100	0	230	101300000	1000	0	0	-1	350
33402995	7422	629	0	-100	0	230	101300000	1000	0	0	-1	350
33415555	7411	630	0	-100	0	230	101300000	1000	0	0	-1	350
33428115	7422	626	0	-100	0	230	101300000	1000	0	0	-1	350
33440675	7418	630	0	-100	0	230	101300000	1000	0	0	-1	350
33453235	7430	624	0	-100	0	230	101300000	1000	0	0	-1	350
33465795	7424	624	0	-100	0	230	101300000	1000	0	0	-1	350
33478355	7419	632	0	-100	0	230	101300000	1000	0	0	-1	350
33490915	7416	623	0	-100	0	230	101300000	1000	0	0	-1	350
33503475	7414	630	0	-100	0	230	101300000	1000	0	0	-1	350
33516035	7424	626	0	-100	0	230	101300000	1000	0	0	-1	350
33528595	7415	624	0	-100	0	230	101300000	1000	0	0	-1	350
33541155	7410	631	0	-100	0	230	101300000	1000	0	0	-1	350
33553715	7419	625	0	-100	0	230	101300000	1000	0	0	-1	350
33566275	7417	632	0	-100	0	230	101300000	1000	0	0	-1	350
33578835	7422	627	0	-100	0	230	101300000	1000	0	0	-1	350
33591395	7418	625	0	-100	0	230	101300000	1000	0	0	-1	350
33603955	7417	632	0	-100	0	230	101300000	1000	0	0	-1	350
33616515	7419	622	0	-100	0	230	101300000	1000	0	0	-1	350
33629075	7413	627	0	-100	0	230	101300000	1000	0	0	-1	350
33641635	7418	629	0	-100	0	230	101300000	1000	0	0	-1	350
33654195	7410	626	0	-100	0	230	101300000	1000	0	0	-1	350
33666755	7410	627	0	-100	0	230	101300000	1000	0	0	-1	350
33679315	7410	629	0	-100	0	230	101300000	1000	0	0	-1	350
33691875	7418	624	0	-100	0	230	101300000	1000	0	0	-1	350
33704435	7409	630	0	-100	0	230	101300000	1000	0	0	-1	350
33716995	7428	632	0	-100	0	230	101300000	1000	0	0	-1	350
33729555	7413	631	0	-100	0	230	101300000	1000	0	0	-1	350
33742115	7424	628	0	-100	0	230	101300000	1000	0	0	-1	350
33754675	7415	630	0	-100	0	230	101300000	1000	0	0	-1	350
33767235	7431	626	0	-100	0	230	101300000	1000	0	0	-1	350
33779795	7406	628	0	-100	0	230	101300000	1000	0	0	-1	350
33792355	7427	626	0	-100	0	230	101300000	1000	0	0	-1	350
33804915	7406	628	0	-100	0	230	101300000	1000	0	0	-1	350
