timestamp	voltage	current	windSpeed	pitchAngle	rpm	temperature	ambientPressure	humidity	accelerationX	accelerationY	accelerationZ	currentSink
7035070	5018	0	0	-100	0	230	101300000	1000	0	0	-1	0
7042523	5011	0	0	-100	0	230	101300000	1000	0	0	-1	0
7055083	5022	0	0	-100	0	230	101300000	1000	0	0	-1	0
7067643	5021	0	0	-100	0	230	101300000	1000	0	0	-1	0
7080203	5012	0	0	-100	0	230	101300000	1000	0	0	-1	0
7092763	5011	3	0	-100	0	230	101300000	1000	0	0	-1	0
7105323	5014	1	0	-100	0	230	101300000	1000	0	0	-1	0
7117883	5018	0	0	-100	0	230	101300000	1000	0	0	-1	0
7130443	5017	0	0	-100	0	230	101300000	1000	0	0	-1	0
7143004	5018	0	0	-100	0	230	101300000	1000	0	0	-1	0
7155563	5015	3	0	-100	0	230	101300000	1000	0	0	-1	0
7168123	5014	0	0	-100	0	230	101300000	1000	0	0	-1	0
7180683	5018	0	0	-100	0	230	101300000	1000	0	0	-1	0
7193243	5016	0	0	-100	0	230	101300000	1000	0	0	-1	0
7205803	5011	0	0	-100	0	230	101300000	1000	0	0	-1	0
7218363	5012	2	0	-100	0	230	101300000	1000	0	0	-1	0
7230923	5010	0	0	-100	0	230	101300000	1000	0	0	-1	0
7243483	5025	0	0	-100	0	230	101300000	1000	0	0	-1	0
7256043	5019	0	0	-100	0	230	101300000	1000	0	0	-1	0
7268603	5017	0	0	-100	0	230	101300000	1000	0	0	-1	0
7281163	5007	0	0	-100	0	230	101300000	1000	0	0	-1	0
7293723	5010	0	0	-100	0	230	101300000	1000	0	0	-1	0
7306283	5014	0	0	-100	0	230	101300000	1000	0	0	-1	0
7318843	5014	0	0	-100	0	230	101300000	1000	0	0	-1	0
7331403	5016	0	0	-100	0	230	101300000	1000	0	0	-1	0
7343963	5014	0	0	-100	0	230	101300000	1000	0	0	-1	0
7664555	7797	710	0	-100	0	230	101300000	1000	0	0	-1	400
7677115	7794	708	0	-100	0	230	101300000	1000	0	0	-1	400
7689675	7794	708	0	-100	0	230	101300000	1000	0	0	-1	400
7702235	7785	707	0	-100	0	230	101300000	1000	0	0	-1	400
7714795	7758	713	0	-100	0	230	101300000	1000	0	0	-1	400
7727355	7759	713	0	-100	0	230	101300000	1000	0	0	-1	400
7739915	7758	715	0	-100	0	230	101300000	1000	0	0	-1	400
7752475	7745	712	0	-100	0	230	101300000	1000	0	0	-1	400
7765035	7770	715	0	-100	0	230	101300000	1000	0	0	-1	400
7777595	7751	716	0	-100	0	230	101300000	1000	0	0	-1	400
7790155	7752	715	0	-100	0	230	101300000	1000	0	0	-1	400
7802715	7757	711	0	-100	0	230	101300000	1000	0	0	-1	400
7815275	7763	711	0	-100	0	230	101300000	1000	0	0	-1	400
7827835	7767	705	0	-100	0	230	101300000	1000	0	0	-1	400
7840395	7751	709	0	-100	0	230	101300000	1000	0	0	-1	400
7852955	7753	708	0	-100	0	230	101300000	1000	0	0	-1	400
7865515	7762	711	0	-100	0	230	101300000	1000	0	0	-1	400
7878075	7756	709	0	-100	0	230	101300000	1000	0	0	-1	400
7890635	7759	709	0	-100	0	230	101300000	1000	0	0	-1	400
7903195	7767	706	0	-100	0	230	101300000	1000	0	0	-1	400
7915755	7773	706	0	-100	0	230	101300000	1000	0	0	-1	400
7928315	7760	708	0	-100	0	230	101300000	1000	0	0	-1	400
7940875	7763	704	0	-100	0	230	101300000	1000	0	0	-1	400
7953435	7766	706	0	-100	0	230	101300000	1000	0	0	-1	400
7965995	7747	713	0	-100	0	230	101300000	1000	0	0	-1	400
7978555	7768	706	0	-100	0	230	101300000	1000	0	0	-1	400
7991115	7768	708	0	-100	0	230	101300000	1000	0	0	-1	400
8003675	7775	707	0	-100	0	230	101300000	1000	0	0	-1	400
8016235	7764	709	0	-100	0	230	101300000	1000	0	0	-1	400
8028795	7740	709	0	-100	0	230	101300000	1000	0	0	-1	400
8041355	7771	710	0	-100	0	230	101300000	1000	0	0	-1	400
8053915	7761	708	0	-100	0	230	101300000	1000	0	0	-1	400
8066475	7765	704	0	-100	0	230	101300000	1000	0	0	-1	400
8079035	7763	706	0	-100	0	230	101300000	1000	0	0	-1	400
8091595	7768	707	0	-100	0	230	101300000	1000	0	0	-1	400
8104155	7764	709	0	-100	0	230	101300000	1000	0	0	-1	400
8116715	7773	707	0	-100	0	230	101300000	1000	0	0	-1	400
8129275	7758	709	0	-100	0	230	101300000	1000	0	0	-1	400
8141835	7763	706	0	-100	0	230	101300000	1000	0	0	-1	400
8154395	7746	710	0	-100	0	230	101300000	1000	0	0	-1	400
8166955	7755	716	0	-100	0	230	101300000	1000	0	0	-1	400
8179515	7756	714	0	-100	0	230	101300000	1000	0	0	-1	400
8192075	7756	714	0	-100	0	230	101300000	1000	0	0	-1	400
8204635	7762	710	0	-100	0	230	101300000	1000	0	0	-1	400
8217195	7748	716	0	-100	0	230	101300000	1000	0	0	-1	400
8229755	7754	713	0	-100	0	230	101300000	1000	0	0	-1	400
8242315	7744	711	0	-100	0	230	101300000	1000	0	0	-1	400
8254875	7753	707	0	-100	0	230	101300000	1000	0	0	-1	400
8267435	7756	706	0	-100	0	230	101300000	1000	0	0	-1	400
8279995	7770	713	0	-100	0	230	101300000	1000	0	0	-1	400
8292555	7770	709	0	-100	0	230	101300000	1000	0	0	-1	400
8305115	7761	708	0	-100	0	230	101300000	1000	0	0	-1	400
8317675	7751	709	0	-100	0	230	101300000	1000	0	0	-1	400
8330235	7753	713	0	-100	0	230	101300000	1000	0	0	-1	400
8342795	7750	714	0	-100	0	230	101300000	1000	0	0	-1	400
8355355	7755	716	0	-100	0	230	101300000	1000	0	0	-1	400
8367915	7743	715	0	-100	0	230	101300000	1000	0	0	-1	400
8380475	7738	713	0	-100	0	230	101300000	1000	0	0	-1	400
8393035	7750	718	0	-100	0	230	101300000	1000	0	0	-1	400
8405595	7755	715	0	-100	0	230	101300000	1000	0	0	-1	400
8418155	7718	712	0	-100	0	230	101300000	1000	0	0	-1	400
8430715	7744	712	0	-100	0	230	101300000	1000	0	0	-1	400
8443275	7730	714	0	-100	0	230	101300000	1000	0	0	-1	400
8455835	7744	716	0	-100	0	230	101300000	1000	0	0	-1	400
8468395	7760	714	0	-100	0	230	101300000	1000	0	0	-1	400
8480955	7756	715	0	-100	0	230	101300000	1000	0	0	-1	400
8493515	7746	712	0	-100	0	230	101300000	1000	0	0	-1	400
8506075	7744	711	0	-100	0	230	101300000	1000	0	0	-1	400
8518635	7748	709	0	-100	0	230	101300000	1000	0	0	-1	400
8531195	7740	712	0	-100	0	230	101300000	1000	0	0	-1	400
8543755	7753	716	0	-100	0	230	101300000	1000	0	0	-1	400
8556315	7751	713	0	-100	0	230	101300000	1000	0	0	-1	400
8568875	7734	711	0	-100	0	230	101300000	1000	0	0	-1	400
8581435	7735	710	0	-100	0	230	101300000	1000	0	0	-1	400
8593995	7739	715	0	-100	0	230	101300000	1000	0	0	-1	400
8606555	7739	706	0	-100	0	230	101300000	1000	0	0	-1	400
8619115	7738	712	0	-100	0	230	101300000	1000	0	0	-1	400
8631675	7746	713	0	-100	0	230	101300000	1000	0	0	-1	400
8644235	7765	706	0	-100	0	230	101300000	1000	0	0	-1	400
8656795	7763	705	0	-100	0	230	101300000	1000	0	0	-1	400
8669355	7753	703	0	-100	0	230	101300000	1000	0	0	-1	400
8681915	7741	708	0	-100	0	230	101300000	1000	0	0	-1	400
8694475	7734	710	0	-100	0	230	101300000	1000	0	0	-1	400
8707035	7755	712	0	-100	0	230	101300000	1000	0	0	-1	400
8719595	7736	714	0	-100	0	230	101300000	1000	0	0	-1	400
8732155	7736	712	0	-100	0	230	101300000	1000	0	0	-1	400
8744715	7770	706	0	-100	0	230	101300000	1000	0	0	-1	400
8757275	7767	706	0	-100	0	230	101300000	1000	0	0	-1	400
8769835	7773	706	0	-100	0	230	101300000	1000	0	0	-1	400
8782395	7760	705	0	-100	0	230	101300000	1000	0	0	-1	400
8794955	7744	707	0	-100	0	230	101300000	1000	0	0	-1	400
8807515	7750	708	0	-100	0	230	101300000	1000	0	0	-1	400
8820075	7739	709	0	-100	0	230	101300000	1000	0	0	-1	400
8832635	7738	715	0	-100	0	230	101300000	1000	0	0	-1	400
8845195	7735	712	0	-100	0	230	101300000	1000	0	0	-1	400
8857755	7734	707	0	-100	0	230	101300000	1000	0	0	-1	400
8870315	7746	703	0	-100	0	230	101300000	1000	0	0	-1	400
8882875	7744	706	0	-100	0	230	101300000	1000	0	0	-1	400
8895435	7738	707	0	-100	0	230	101300000	1000	0	0	-1	400
8907995	7738	707	0	-100	0	230	101300000	1000	0	0	-1	400
8920555	7737	711	0	-100	0	230	101300000	1000	0	0	-1	400
8933115	7729	714	0	-100	0	230	101300000	1000	0	0	-1	400
8945675	7746	707	0	-100	0	230	101300000	1000	0	0	-1	400
8958235	7758	706	0	-100	0	230	101300000	1000	0	0	-1	400
8970795	7744	708	0	-100	0	230	101300000	1000	0	0	-1	400
8983355	7746	712	0	-100	0	230	101300000	1000	0	0	-1	400
8995915	7764	708	0	-100	0	230	101300000	1000	0	0	-1	400
9008475	7772	704	0	-100	0	230	101300000	1000	0	0	-1	400
9021035	7748	704	0	-100	0	230	101300000	1000	0	0	-1	400
9033595	7725	710	0	-100	0	230	101300000	1000	0	0	-1	400
9046155	7725	714	0	-100	0	230	101300000	1000	0	0	-1	400
9058715	7751	710	0	-100	0	230	101300000	1000	0	0	-1	400
9071275	7751	708	0	-100	0	230	101300000	1000	0	0	-1	400
9083835	7742	713	0	-100	0	230	101300000	1000	0	0	-1	400
9096395	7732	709	0	-100	0	230	101300000	1000	0	0	-1	400
9108955	7737	712	0	-100	0	230	101300000	1000	0	0	-1	400
9121515	7719	720	0	-100	0	230	101300000	1000	0	0	-1	400
9134075	7751	724	0	-100	0	230	101300000	1000	0	0	-1	400
9146635	7792	724	0	-100	0	230	101300000	1000	0	0	-1	400
9159195	7785	726	0	-100	0	230	101300000	1000	0	0	-1	400
9171755	7780	727	0	-100	0	230	101300000	1000	0	0	-1	400
9184315	7772	731	0	-100	0	230	101300000	1000	0	0	-1	400
9196875	7785	724	0	-100	0	230	101300000	1000	0	0	-1	400
9209435	7780	724	0	-100	0	230	101300000	1000	0	0	-1	400
9221995	7775	730	0	-100	0	230	101300000	1000	0	0	-1	400
9234555	7758	728	0	-100	0	230	101300000	1000	0	0	-1	400
9247115	7780	723	0	-100	0	230	101300000	1000	0	0	-1	400
9259675	7759	727	0	-100	0	230	101300000	1000	0	0	-1	400
9272235	7768	732	0	-100	0	230	101300000	1000	0	0	-1	400
9284795	7787	732	0	-100	0	230	101300000	1000	0	0	-1	400
9297355	7794	733	0	-100	0	230	101300000	1000	0	0	-1	400
9309915	7768	732	0	-100	0	230	101300000	1000	0	0	-1	400
9322475	7770	728	0	-100	0	230	101300000	1000	0	0	-1	400
9335035	7781	726	0	-100	0	230	101300000	1000	0	0	-1	400
9347595	7792	724	0	-100	0	230	101300000	1000	0	0	-1	400
9360155	7800	723	0	-100	0	230	101300000	1000	0	0	-1	400
9372715	7797	722	0	-100	0	230	101300000	1000	0	0	-1	400
9385275	7792	724	0	-100	0	230	101300000	1000	0	0	-1	400
9397835	7782	722	0	-100	0	230	101300000	1000	0	0	-1	400
9410395	7786	723	0	-100	0	230	101300000	1000	0	0	-1	400
9422955	7800	725	0	-100	0	230	101300000	1000	0	0	-1	400
9435515	7807	723	0	-100	0	230	101300000	1000	0	0	-1	400
9448075	7781	727	0	-100	0	230	101300000	1000	0	0	-1	400
9460635	7768	728	0	-100	0	230	101300000	1000	0	0	-1	400
9473195	7799	729	0	-100	0	230	101300000	1000	0	0	-1	400
9485755	7786	723	0	-100	0	230	101300000	1000	0	0	-1	400
9498315	7806	724	0	-100	0	230	101300000	1000	0	0	-1	400
9510875	7823	724	0	-100	0	230	101300000	1000	0	0	-1	400
9523435	7773	725	0	-100	0	230	101300000	1000	0	0	-1	400
9535995	7787	727	0	-100	0	230	101300000	1000	0	0	-1	400
9548555	7785	727	0	-100	0	230	101300000	1000	0	0	-1	400
9561115	7774	726	0	-100	0	230	101300000	1000	0	0	-1	400
9573675	7771	726	0	-100	0	230	101300000	1000	0	0	-1	400
9586235	7765	727	0	-100	0	230	101300000	1000	0	0	-1	400
9598795	7767	726	0	-100	0	230	101300000	1000	0	0	-1	400
9611355	7765	732	0	-100	0	230	101300000	1000	0	0	-1	400
9623915	7771	730	0	-100	0	230	101300000	1000	0	0	-1	400
9636475	7770	735	0	-100	0	230	101300000	1000	0	0	-1	400
9649035	7765	734	0	-100	0	230	101300000	1000	0	0	-1	400
9661595	7782	732	0	-100	0	230	101300000	1000	0	0	-1	400
9674155	7769	727	0	-100	0	230	101300000	1000	0	0	-1	400
9686715	7782	728	0	-100	0	230	101300000	1000	0	0	-1	400
9699275	7760	729	0	-100	0	230	101300000	1000	0	0	-1	400
9711835	7768	727	0	-100	0	230	101300000	1000	0	0	-1	400
9724395	7780	726	0	-100	0	230	101300000	1000	0	0	-1	400
9736955	7778	728	0	-100	0	230	101300000	1000	0	0	-1	400
9749515	7790	728	0	-100	0	230	101300000	1000	0	0	-1	400
9762075	7791	729	0	-100	0	230	101300000	1000	0	0	-1	400
9774635	7776	730	0	-100	0	230	101300000	1000	0	0	-1	400
9787195	7775	730	0	-100	0	230	101300000	1000	0	0	-1	400
9799755	7790	730	0	-100	0	230	101300000	1000	0	0	-1	400
9812315	7785	732	0	-100	0	230	101300000	1000	0	0	-1	400
9824875	7794	732	0	-100	0	230	101300000	1000	0	0	-1	400
9837435	7778	731	0	-100	0	230	101300000	1000	0	0	-1	400
9849995	7780	732	0	-100	0	230	101300000	1000	0	0	-1	400
9862555	7773	727	0	-100	0	230	101300000	1000	0	0	-1	400
9875115	7772	726	0	-100	0	230	101300000	1000	0	0	-1	400
9887675	7773	726	0	-100	0	230	101300000	1000	0	0	-1	400
9900235	7777	725	0	-100	0	230	101300000	1000	0	0	-1	400
9912795	7758	732	0	-100	0	230	101300000	1000	0	0	-1	400
9925355	7777	734	0	-100	0	230	101300000	1000	0	0	-1	400
9937915	7772	732	0	-100	0	230	101300000	1000	0	0	-1	400
9950475	7763	728	0	-100	0	230	101300000	1000	0	0	-1	400
9963035	7790	724	0	-100	0	230	101300000	1000	0	0	-1	400
9975595	7780	726	0	-100	0	230	101300000	1000	0	0	-1	400
9988155	7771	726	0	-100	0	230	101300000	1000	0	0	-1	400
10000715	7775	728	0	-100	0	230	101300000	1000	0	0	-1	400
10013275	7765	734	0	-100	0	230	101300000	1000	0	0	-1	400
10025835	7774	727	0	-100	0	230	101300000	1000	0	0	-1	400
10038395	7756	727	0	-100	0	230	101300000	1000	0	0	-1	400
10050955	7773	723	0	-100	0	230	101300000	1000	0	0	-1	400
10063515	7789	733	0	-100	0	230	101300000	1000	0	0	-1	400
10076075	7777	730	0	-100	0	230	101300000	1000	0	0	-1	400
10088635	7809	726	0	-100	0	230	101300000	1000	0	0	-1	400
10101195	7781	722	0	-100	0	230	101300000	1000	0	0	-1	400
10113755	7779	729	0	-100	0	230	101300000	1000	0	0	-1	400
10126315	7772	732	0	-100	0	230	101300000	1000	0	0	-1	400
10138875	7780	725	0	-100	0	230	101300000	1000	0	0	-1	400
10151435	7793	723	0	-100	0	230	101300000	1000	0	0	-1	400
10163995	7775	723	0	-100	0	230	101300000	1000	0	0	-1	400
10176555	7782	729	0	-100	0	230	101300000	1000	0	0	-1	400
10189115	7800	722	0	-100	0	230	101300000	1000	0	0	-1	400
10201675	7784	725	0	-100	0	230	101300000	1000	0	0	-1	400
10214235	7783	729	0	-100	0	230	101300000	1000	0	0	-1	400
10226795	7791	731	0	-100	0	230	101300000	1000	0	0	-1	400
10239355	7806	724	0	-100	0	230	101300000	1000	0	0	-1	400
10251915	7778	728	0	-100	0	230	101300000	1000	0	0	-1	400
10264475	7775	724	0	-100	0	230	101300000	1000	0	0	-1	400
10277035	7770	731	0	-100	0	230	101300000	1000	0	0	-1	400
10289595	7767	730	0	-100	0	230	101300000	1000	0	0	-1	400
10302155	7780	727	0	-100	0	230	101300000	1000	0	0	-1	400
10314715	7785	726	0	-100	0	230	101300000	1000	0	0	-1	400
10327275	7797	724	0	-100	0	230	101300000	1000	0	0	-1	400
10339835	7784	729	0	-100	0	230	101300000	1000	0	0	-1	400
10352395	7775	733	0	-100	0	230	101300000	1000	0	0	-1	400
10364955	7781	728	0	-100	0	230	101300000	1000	0	0	-1	400
10377515	7794	726	0	-100	0	230	101300000	1000	0	0	-1	400
10390075	7775	728	0	-100	0	230	101300000	1000	0	0	-1	400
10402635	7764	731	0	-100	0	230	101300000	1000	0	0	-1	400
10415195	7780	727	0	-100	0	230	101300000	1000	0	0	-1	400
10427755	7771	724	0	-100	0	230	101300000	1000	0	0	-1	400
10440315	7779	735	0	-100	0	230	101300000	1000	0	0	-1	400
10452875	7794	726	0	-100	0	230	101300000	1000	0	0	-1	400
10465435	7777	723	0	-100	0	230	101300000	1000	0	0	-1	400
10477995	7781	727	0	-100	0	230	101300000	1000	0	0	-1	400
10490555	7775	723	0	-100	0	230	101300000	1000	0	0	-1	400
10503115	7771	731	0	-100	0	230	101300000	1000	0	0	-1	400
10515675	7778	726	0	-100	0	230	101300000	1000	0	0	-1	400
10528235	7787	728	0	-100	0	230	101300000	1000	0	0	-1	400
10540795	7778	730	0	-100	0	230	101300000	1000	0	0	-1	400
10553355	7784	729	0	-100	0	230	101300000	1000	0	0	-1	400
10565915	7785	723	0	-100	0	230	101300000	1000	0	0	-1	400
10578475	7784	723	0	-100	0	230	101300000	1000	0	0	-1	400
10591035	7780	730	0	-100	0	230	101300000	1000	0	0	-1	400
10603595	7794	726	0	-100	0	230	101300000	1000	0	0	-1	400
10616155	7775	726	0	-100	0	230	101300000	1000	0	0	-1	400
10628715	7777	729	0	-100	0	230	101300000	1000	0	0	-1	400
10641275	7772	727	0	-100	0	230	101300000	1000	0	0	-1	400
10653835	7794	729	0	-100	0	230	101300000	1000	0	0	-1	400
10666395	7796	728	0	-100	0	230	101300000	1000	0	0	-1	400
10678955	7777	730	0	-100	0	230	101300000	1000	0	0	-1	400
10691515	7775	725	0	-100	0	230	101300000	1000	0	0	-1	400
10704075	7784	729	0	-100	0	230	101300000	1000	0	0	-1	400
10716635	7783	724	0	-100	0	230	101300000	1000	0	0	-1	400
10729195	7775	729	0	-100	0	230	101300000	1000	0	0	-1	400
10741755	7756	725	0	-100	0	230	101300000	1000	0	0	-1	400
10754315	7758	733	0	-100	0	230	101300000	1000	0	0	-1	400
10766875	7758	727	0	-100	0	230	101300000	1000	0	0	-1	400
10779435	7775	725	0	-100	0	230	101300000	1000	0	0	-1	400
10791995	7770	722	0	-100	0	230	101300000	1000	0	0	-1	400
10804555	7765	728	0	-100	0	230	101300000	1000	0	0	-1	400
10817115	7773	726	0	-100	0	230	101300000	1000	0	0	-1	400
10829675	7780	734	0	-100	0	230	101300000	1000	0	0	-1	400
10842235	7775	728	0	-100	0	230	101300000	1000	0	0	-1	400
10854795	7765	729	0	-100	0	230	101300000	1000	0	0	-1	400
10867355	7773	725	0	-100	0	230	101300000	1000	0	0	-1	400
10879915	7768	729	0	-100	0	230	101300000	1000	0	0	-1	400
10892475	7775	727	0	-100	0	230	101300000	1000	0	0	-1	400
10905035	7764	722	0	-100	0	230	101300000	1000	0	0	-1	400
10917595	7770	732	0	-100	0	230	101300000	1000	0	0	-1	400
10930155	7775	728	0	-100	0	230	101300000	1000	0	0	-1	400
10942715	7784	725	0	-100	0	230	101300000	1000	0	0	-1	400
10955275	7770	730	0	-100	0	230	101300000	1000	0	0	-1	400
10967835	7765	728	0	-100	0	230	101300000	1000	0	0	-1	400
10980395	7772	735	0	-100	0	230	101300000	1000	0	0	-1	400
10992955	7776	724	0	-100	0	230	101300000	1000	0	0	-1	400
11005515	7780	726	0	-100	0	230	101300000	1000	0	0	-1	400
11018075	7770	730	0	-100	0	230	101300000	1000	0	0	-1	400
11030635	7778	721	0	-100	0	230	101300000	1000	0	0	-1	400
11043195	7771	731	0	-100	0	230	101300000	1000	0	0	-1	400
11055755	7787	732	0	-100	0	230	101300000	1000	0	0	-1	400
11068315	7794	720	0	-100	0	230	101300000	1000	0	0	-1	400
11080875	7784	726	0	-100	0	230	101300000	1000	0	0	-1	400
11093435	7777	733	0	-100	0	230	101300000	1000	0	0	-1	400
11105995	7786	730	0	-100	0	230	101300000	1000	0	0	-1	400
11118555	7790	723	0	-100	0	230	101300000	1000	0	0	-1	400
11131115	7794	722	0	-100	0	230	101300000	1000	0	0	-1	400
11143675	7809	734	0	-100	0	230	101300000	1000	0	0	-1	400
11156235	7797	731	0	-100	0	230	101300000	1000	0	0	-1	400
11168795	7776	722	0	-100	0	230	101300000	1000	0	0	-1	400
11181355	7780	724	0	-100	0	230	101300000	1000	0	0	-1	400
11193915	7777	735	0	-100	0	230	101300000	1000	0	0	-1	400
11206475	7761	727	0	-100	0	230	101300000	1000	0	0	-1	400
11219035	7768	724	0	-100	0	230	101300000	1000	0	0	-1	400
11231595	7763	731	0	-100	0	230	101300000	1000	0	0	-1	400
11244155	7743	731	0	-100	0	230	101300000	1000	0	0	-1	400
11256715	7780	725	0	-100	0	230	101300000	1000	0	0	-1	400
11269275	7755	730	0	-100	0	230	101300000	1000	0	0	-1	400
11281835	7777	735	0	-100	0	230	101300000	1000	0	0	-1	400
11294395	7780	728	0	-100	0	230	101300000	1000	0	0	-1	400
11306955	7787	725	0	-100	0	230	101300000	1000	0	0	-1	400
11319515	7780	728	0	-100	0	230	101300000	1000	0	0	-1	400
11332075	7778	728	0	-100	0	230	101300000	1000	0	0	-1	400
11344635	7794	724	0	-100	0	230	101300000	1000	0	0	-1	400
11357195	7802	724	0	-100	0	230	101300000	1000	0	0	-1	400
11369755	7790	732	0	-100	0	230	101300000	1000	0	0	-1	400
11382315	7792	727	0	-100	0	230	101300000	1000	0	0	-1	400
11394875	7790	725	0	-100	0	230	101300000	1000	0	0	-1	400
11407435	7781	723	0	-100	0	230	101300000	1000	0	0	-1	400
11419995	7764	722	0	-100	0	230	101300000	1000	0	0	-1	400
11432555	7760	734	0	-100	0	230	101300000	1000	0	0	-1	400
11445115	7763	730	0	-100	0	230	101300000	1000	0	0	-1	400
11457675	7765	726	0	-100	0	230	101300000	1000	0	0	-1	400
11470235	7778	727	0	-100	0	230	101300000	1000	0	0	-1	400
11482795	7775	728	0	-100	0	230	101300000	1000	0	0	-1	400
11495355	7774	733	0	-100	0	230	101300000	1000	0	0	-1	400
11507915	7780	727	0	-100	0	230	101300000	1000	0	0	-1	400
11520475	7776	726	0	-100	0	230	101300000	1000	0	0	-1	400
11533035	7764	727	0	-100	0	230	101300000	1000	0	0	-1	400
11545595	7775	732	0	-100	0	230	101300000	1000	0	0	-1	400
11558155	7773	730	0	-100	0	230	101300000	1000	0	0	-1	400
11570715	7771	723	0	-100	0	230	101300000	1000	0	0	-1	400
11583275	7775	728	0	-100	0	230	101300000	1000	0	0	-1	400
11595835	7767	730	0	-100	0	230	101300000	1000	0	0	-1	400
11608395	7775	730	0	-100	0	230	101300000	1000	0	0	-1	400
11620955	7782	725	0	-100	0	230	101300000	1000	0	0	-1	400
11633515	7777	727	0	-100	0	230	101300000	1000	0	0	-1	400
11646075	7756	727	0	-100	0	230	101300000	1000	0	0	-1	400
11658635	7758	732	0	-100	0	230	101300000	1000	0	0	-1	400
11671195	7768	726	0	-100	0	230	101300000	1000	0	0	-1	400
11683755	7768	726	0	-100	0	230	101300000	1000	0	0	-1	400
11696315	7779	735	0	-100	0	230	101300000	1000	0	0	-1	400
11708875	7789	728	0	-100	0	230	101300000	1000	0	0	-1	400
11721435	7773	725	0	-100	0	230	101300000	1000	0	0	-1	400
11733995	7775	729	0	-100	0	230	101300000	1000	0	0	-1	400
11746555	7782	730	0	-100	0	230	101300000	1000	0	0	-1	400
11759115	7763	727	0	-100	0	230	101300000	1000	0	0	-1	400
11771675	7765	733	0	-100	0	230	101300000	1000	0	0	-1	400
11784235	7768	732	0	-100	0	230	101300000	1000	0	0	-1	400
11796795	7787	722	0	-100	0	230	101300000	1000	0	0	-1	400
11809355	7794	722	0	-100	0	230	101300000	1000	0	0	-1	400
11821915	7785	727	0	-100	0	230	101300000	1000	0	0	-1	400
11834475	7784	731	0	-100	0	230	101300000	1000	0	0	-1	400
11847035	7792	724	0	-100	0	230	101300000	1000	0	0	-1	400
11859595	7780	723	0	-100	0	230	101300000	1000	0	0	-1	400
11872155	7754	732	0	-100	0	230	101300000	1000	0	0	-1	400
11884715	7763	731	0	-100	0	230	101300000	1000	0	0	-1	400
11897275	7772	728	0	-100	0	230	101300000	1000	0	0	-1	400
11909835	7769	723	0	-100	0	230	101300000	1000	0	0	-1	400
11922395	7773	730	0	-100	0	230	101300000	1000	0	0	-1	400
11934955	7784	729	0	-100	0	230	101300000	1000	0	0	-1	400
11947515	7789	726	0	-100	0	230	101300000	1000	0	0	-1	400
11960075	7772	725	0	-100	0	230	101300000	1000	0	0	-1	400
11972635	7773	724	0	-100	0	230	101300000	1000	0	0	-1	400
11985195	7788	726	0	-100	0	230	101300000	1000	0	0	-1	400
11997755	7797	729	0	-100	0	230	101300000	1000	0	0	-1	400
12010315	7792	723	0	-100	0	230	101300000	1000	0	0	-1	400
12022875	7791	725	0	-100	0	230	101300000	1000	0	0	-1	400
12035435	7773	726	0	-100	0	230	101300000	1000	0	0	-1	400
12047995	7782	724	0	-100	0	230	101300000	1000	0	0	-1	400
12060555	7780	725	0	-100	0	230	101300000	1000	0	0	-1	400
12073115	7788	724	0	-100	0	230	101300000	1000	0	0	-1	400
12085675	7768	730	0	-100	0	230	101300000	1000	0	0	-1	400
12098235	7765	734	0	-100	0	230	101300000	1000	0	0	-1	400
12110795	7785	725	0	-100	0	230	101300000	1000	0	0	-1	400
12123355	7775	725	0	-100	0	230	101300000	1000	0	0	-1	400
12135915	7778	735	0	-100	0	230	101300000	1000	0	0	-1	400
12148475	7794	727	0	-100	0	230	101300000	1000	0	0	-1	400
12161035	7772	725	0	-100	0	230	101300000	1000	0	0	-1	400
12173595	7782	732	0	-100	0	230	101300000	1000	0	0	-1	400
12186155	7775	726	0	-100	0	230	101300000	1000	0	0	-1	400
12198715	7790	724	0	-100	0	230	101300000	1000	0	0	-1	400
12211275	7782	729	0	-100	0	230	101300000	1000	0	0	-1	400
12223835	7777	734	0	-100	0	230	101300000	1000	0	0	-1	400
12236395	7782	724	0	-100	0	230	101300000	1000	0	0	-1	400
12248955	7778	724	0	-100	0	230	101300000	1000	0	0	-1	400
12261515	7763	733	0	-100	0	230	101300000	1000	0	0	-1	400
12274075	7778	726	0	-100	0	230	101300000	1000	0	0	-1	400
12286635	7758	728	0	-100	0	230	101300000	1000	0	0	-1	400
12299195	7758	731	0	-100	0	230	101300000	1000	0	0	-1	400
12311755	7775	724	0	-100	0	230	101300000	1000	0	0	-1	400
12324315	7794	725	0	-100	0	230	101300000	1000	0	0	-1	400
12336875	7773	724	0	-100	0	230	101300000	1000	0	0	-1	400
12349435	7751	725	0	-100	0	230	101300000	1000	0	0	-1	400
12361995	7771	731	0	-100	0	230	101300000	1000	0	0	-1	400
12374555	7759	726	0	-100	0	230	101300000	1000	0	0	-1	400
12387115	7766	733	0	-100	0	230	101300000	1000	0	0	-1	400
12399675	7777	727	0	-100	0	230	101300000	1000	0	0	-1	400
12412235	7782	733	0	-100	0	230	101300000	1000	0	0	-1	400
12424795	7797	728	0	-100	0	230	101300000	1000	0	0	-1	400
12437355	7774	726	0	-100	0	230	101300000	1000	0	0	-1	400
12449915	7772	724	0	-100	0	230	101300000	1000	0	0	-1	400
12462475	7782	732	0	-100	0	230	101300000	1000	0	0	-1	400
12475035	7787	723	0	-100	0	230	101300000	1000	0	0	-1	400
12487595	7778	725	0	-100	0	230	101300000	1000	0	0	-1	400
12500155	7760	732	0	-100	0	230	101300000	1000	0	0	-1	400
12512715	7794	724	0	-100	0	230	101300000	1000	0	0	-1	400
12525275	7753	728	0	-100	0	230	101300000	1000	0	0	-1	400
12537835	7778	722	0	-100	0	230	101300000	1000	0	0	-1	400
12550395	7769	729	0	-100	0	230	101300000	1000	0	0	-1	400
12562955	7777	727	0	-100	0	230	101300000	1000	0	0	-1	400
12575515	7773	734	0	-100	0	230	101300000	1000	0	0	-1	400
12588075	7773	725	0	-100	0	230	101300000	1000	0	0	-1	400
12600635	7755	737	0	-100	0	230	101300000	1000	0	0	-1	400
12613195	7782	726	0	-100	0	230	101300000	1000	0	0	-1	400
12625755	7782	730	0	-100	0	230	101300000	1000	0	0	-1	400
12638315	7785	727	0	-100	0	230	101300000	1000	0	0	-1	400
12650875	7801	725	0	-100	0	230	101300000	1000	0	0	-1	400
12663435	7791	732	0	-100	0	230	101300000	1000	0	0	-1	400
12675995	7783	732	0	-100	0	230	101300000	1000	0	0	-1	400
12688555	7768	731	0	-100	0	230	101300000	1000	0	0	-1	400
12701115	7768	730	0	-100	0	230	101300000	1000	0	0	-1	400
12713675	7771	726	0	-100	0	230	101300000	1000	0	0	-1	400
12726235	7770	733	0	-100	0	230	101300000	1000	0	0	-1	400
12738795	7778	726	0	-100	0	230	101300000	1000	0	0	-1	400
12751355	7765	730	0	-100	0	230	101300000	1000	0	0	-1	400
12763915	7775	724	0	-100	0	230	101300000	1000	0	0	-1	400
12776475	7765	731	0	-100	0	230	101300000	1000	0	0	-1	400
12789035	7801	721	0	-100	0	230	101300000	1000	0	0	-1	400
12801595	7792	727	0	-100	0	230	101300000	1000	0	0	-1	400
12814155	7783	727	0	-100	0	230	101300000	1000	0	0	-1	400
12826715	7773	732	0	-100	0	230	101300000	1000	0	0	-1	400
12839275	7763	724	0	-100	0	230	101300000	1000	0	0	-1	400
12851835	7757	731	0	-100	0	230	101300000	1000	0	0	-1	400
12864395	7778	725	0	-100	0	230	101300000	1000	0	0	-1	400
12876955	7774	733	0	-100	0	230	101300000	1000	0	0	-1	400
12889515	7787	723	0	-100	0	230	101300000	1000	0	0	-1	400
12902075	7766	728	0	-100	0	230	101300000	1000	0	0	-1	400
12914635	7782	729	0	-100	0	230	101300000	1000	0	0	-1	400
12927195	7790	725	0	-100	0	230	101300000	1000	0	0	-1	400
12939755	7775	733	0	-100	0	230	101300000	1000	0	0	-1	400
12952315	7778	727	0	-100	0	230	101300000	1000	0	0	-1	400
12964875	7758	733	0	-100	0	230	101300000	1000	0	0	-1	400
12977435	7783	727	0	-100	0	230	101300000	1000	0	0	-1	400
12989995	7789	734	0	-100	0	230	101300000	1000	0	0	-1	400
13002555	7769	730	0	-100	0	230	101300000	1000	0	0	-1	400
13015115	7789	727	0	-100	0	230	101300000	1000	0	0	-1	400
13027675	7776	730	0	-100	0	230	101300000	1000	0	0	-1	400
13040235	7783	727	0	-100	0	230	101300000	1000	0	0	-1	400
13052795	7782	732	0	-100	0	230	101300000	1000	0	0	-1	400
13065355	7780	724	0	-100	0	230	101300000	1000	0	0	-1	400
13077915	7784	732	0	-100	0	230	101300000	1000	0	0	-1	400
13090475	7780	724	0	-100	0	230	101300000	1000	0	0	-1	400
13103035	7787	729	0	-100	0	230	101300000	1000	0	0	-1	400
13115595	7780	722	0	-100	0	230	101300000	1000	0	0	-1	400
13128155	7783	724	0	-100	0	230	101300000	1000	0	0	-1	400
13140715	7794	724	0	-100	0	230	101300000	1000	0	0	-1	400
13153275	7794	727	0	-100	0	230	101300000	1000	0	0	-1	400
13165835	7796	726	0	-100	0	230	101300000	1000	0	0	-1	400
13178395	7785	730	0	-100	0	230	101300000	1000	0	0	-1	400
13190955	7783	722	0	-100	0	230	101300000	1000	0	0	-1	400
13203515	7782	732	0	-100	0	230	101300000	1000	0	0	-1	400
13216075	7787	722	0	-100	0	230	101300000	1000	0	0	-1	400
13228635	7768	728	0	-100	0	230	101300000	1000	0	0	-1	400
13241195	7765	734	0	-100	0	230	101300000	1000	0	0	-1	400
13253755	7789	729	0	-100	0	230	101300000	1000	0	0	-1	400
13266315	7784	725	0	-100	0	230	101300000	1000	0	0	-1	400
13278875	7756	727	0	-100	0	230	101300000	1000	0	0	-1	400
13291435	7766	728	0	-100	0	230	101300000	1000	0	0	-1	400
13303995	7777	725	0	-100	0	230	101300000	1000	0	0	-1	400
13316555	7765	731	0	-100	0	230	101300000	1000	0	0	-1	400
13329115	7789	727	0	-100	0	230	101300000	1000	0	0	-1	400
13341675	7787	730	0	-100	0	230	101300000	1000	0	0	-1	400
13354235	7771	727	0	-100	0	230	101300000	1000	0	0	-1	400
13366795	7780	726	0	-100	0	230	101300000	1000	0	0	-1	400
13379355	7782	726	0	-100	0	230	101300000	1000	0	0	-1	400
13391915	7789	725	0	-100	0	230	101300000	1000	0	0	-1	400
13404475	7778	730	0	-100	0	230	101300000	1000	0	0	-1	400
13417035	7768	731	0	-100	0	230	101300000	1000	0	0	-1	400
13429595	7782	732	0	-100	0	230	101300000	1000	0	0	-1	400
13442155	7768	732	0	-100	0	230	101300000	1000	0	0	-1	400
13454715	7785	732	0	-100	0	230	101300000	1000	0	0	-1	400
13467275	7770	733	0	-100	0	230	101300000	1000	0	0	-1	400
13479835	7755	736	0	-100	0	230	101300000	1000	0	0	-1	400
13492395	7753	736	0	-100	0	230	101300000	1000	0	0	-1	400
13504955	7779	730	0	-100	0	230	101300000	1000	0	0	-1	400
13517515	7795	722	0	-100	0	230	101300000	1000	0	0	-1	400
13530075	7806	723	0	-100	0	230	101300000	1000	0	0	-1	400
13542635	7789	725	0	-100	0	230	101300000	1000	0	0	-1	400
13555195	7789	727	0	-100	0	230	101300000	1000	0	0	-1	400
13567755	7761	732	0	-100	0	230	101300000	1000	0	0	-1	400
13580315	7772	732	0	-100	0	230	101300000	1000	0	0	-1	400
13592875	7782	732	0	-100	0	230	101300000	1000	0	0	-1	400
13605435	7772	730	0	-100	0	230	101300000	1000	0	0	-1	400
13617995	7777	735	0	-100	0	230	101300000	1000	0	0	-1	400
13630555	7787	726	0	-100	0	230	101300000	1000	0	0	-1	400
13643115	7766	723	0	-100	0	230	101300000	1000	0	0	-1	400
13655675	7775	727	0	-100	0	230	101300000	1000	0	0	-1	400
13668235	7763	726	0	-100	0	230	101300000	1000	0	0	-1	400
13680795	7763	732	0	-100	0	230	101300000	1000	0	0	-1	400
13693355	7780	733	0	-100	0	230	101300000	1000	0	0	-1	400
13705915	7794	730	0	-100	0	230	101300000	1000	0	0	-1	400
13718475	7775	728	0	-100	0	230	101300000	1000	0	0	-1	400
13731035	7779	730	0	-100	0	230	101300000	1000	0	0	-1	400
13743595	7788	725	0	-100	0	230	101300000	1000	0	0	-1	400
13756155	7752	727	0	-100	0	230	101300000	1000	0	0	-1	400
13768715	7781	727	0	-100	0	230	101300000	1000	0	0	-1	400
13781275	7772	735	0	-100	0	230	101300000	1000	0	0	-1	400
13793835	7772	732	0	-100	0	230	101300000	1000	0	0	-1	400
13806395	7794	724	0	-100	0	230	101300000	1000	0	0	-1	400
13818955	7804	722	0	-100	0	230	101300000	1000	0	0	-1	400
13831515	7773	723	0	-100	0	230	101300000	1000	0	0	-1	400
13844075	7775	731	0	-100	0	230	101300000	1000	0	0	-1	400
13856635	7782	732	0	-100	0	230	101300000	1000	0	0	-1	400
13869195	7790	727	0	-100	0	230	101300000	1000	0	0	-1	400
13881755	7787	724	0	-100	0	230	101300000	1000	0	0	-1	400
13894315	7795	730	0	-100	0	230	101300000	1000	0	0	-1	400
13906875	7808	727	0	-100	0	230	101300000	1000	0	0	-1	400
13919435	7785	726	0	-100	0	230	101300000	1000	0	0	-1	400
13931995	7788	732	0	-100	0	230	101300000	1000	0	0	-1	400
13944555	7782	727	0	-100	0	230	101300000	1000	0	0	-1	400
13957115	7776	726	0	-100	0	230	101300000	1000	0	0	-1	400
13969675	7778	727	0	-100	0	230	101300000	1000	0	0	-1	400
13982235	7766	728	0	-100	0	230	101300000	1000	0	0	-1	400
13994795	7772	725	0	-100	0	230	101300000	1000	0	0	-1	400
14007355	7778	725	0	-100	0	230	101300000	1000	0	0	-1	400
14019915	7780	728	0	-100	0	230	101300000	1000	0	0	-1	400
14032475	7775	729	0	-100	0	230	101300000	1000	0	0	-1	400
14045035	7782	733	0	-100	0	230	101300000	1000	0	0	-1	400
14057595	7787	729	0	-100	0	230	101300000	1000	0	0	-1	400
14070155	7774	725	0	-100	0	230	101300000	1000	0	0	-1	400
14082715	7785	724	0	-100	0	230	101300000	1000	0	0	-1	400
14095275	7795	724	0	-100	0	230	101300000	1000	0	0	-1	400
14107835	7799	721	0	-100	0	230	101300000	1000	0	0	-1	400
14120395	7794	724	0	-100	0	230	101300000	1000	0	0	-1	400
14132955	7766	728	0	-100	0	230	101300000	1000	0	0	-1	400
14145515	7782	723	0	-100	0	230	101300000	1000	0	0	-1	400
14158075	7782	725	0	-100	0	230	101300000	1000	0	0	-1	400
14170635	7797	721	0	-100	0	230	101300000	1000	0	0	-1	400
14183195	7780	725	0	-100	0	230	101300000	1000	0	0	-1	400
14195755	7782	724	0	-100	0	230	101300000	1000	0	0	-1	400
14208315	7802	722	0	-100	0	230	101300000	1000	0	0	-1	400
14220875	7783	723	0	-100	0	230	101300000	1000	0	0	-1	400
14233435	7784	724	0	-100	0	230	101300000	1000	0	0	-1	400
14245995	7787	728	0	-100	0	230	101300000	1000	0	0	-1	400
14258555	7787	728	0	-100	0	230	101300000	1000	0	0	-1	400
14271115	7792	727	0	-100	0	230	101300000	1000	0	0	-1	400
14283675	7775	729	0	-100	0	230	101300000	1000	0	0	-1	400
14296235	7765	732	0	-100	0	230	101300000	1000	0	0	-1	400
14308795	7765	733	0	-100	0	230	101300000	1000	0	0	-1	400
14321355	7775	733	0	-100	0	230	101300000	1000	0	0	-1	400
14333915	7782	733	0	-100	0	230	101300000	1000	0	0	-1	400
14346475	7765	733	0	-100	0	230	101300000	1000	0	0	-1	400
14359035	7788	733	0	-100	0	230	101300000	1000	0	0	-1	400
14371595	7774	735	0	-100	0	230	101300000	1000	0	0	-1	400
14384155	7771	729	0	-100	0	230	101300000	1000	0	0	-1	400
14396715	7787	725	0	-100	0	230	101300000	1000	0	0	-1	400
14409275	7794	724	0	-100	0	230	101300000	1000	0	0	-1	400
14421835	7792	724	0	-100	0	230	101300000	1000	0	0	-1	400
14434395	7765	723	0	-100	0	230	101300000	1000	0	0	-1	400
14446955	7778	726	0	-100	0	230	101300000	1000	0	0	-1	400
14459515	7777	726	0	-100	0	230	101300000	1000	0	0	-1	400
14472075	7777	731	0	-100	0	230	101300000	1000	0	0	-1	400
14484635	7794	732	0	-100	0	230	101300000	1000	0	0	-1	400
14497195	7798	733	0	-100	0	230	101300000	1000	0	0	-1	400
14509755	7784	733	0	-100	0	230	101300000	1000	0	0	-1	400
14522315	7787	734	0	-100	0	230	101300000	1000	0	0	-1	400
14534875	7778	733	0	-100	0	230	101300000	1000	0	0	-1	400
14547435	7770	733	0	-100	0	230	101300000	1000	0	0	-1	400
14559995	7771	726	0	-100	0	230	101300000	1000	0	0	-1	400
14572555	7773	727	0	-100	0	230	101300000	1000	0	0	-1	400
14585115	7772	725	0	-100	0	230	101300000	1000	0	0	-1	400
14597675	7785	722	0	-100	0	230	101300000	1000	0	0	-1	400
14610235	7766	726	0	-100	0	230	101300000	1000	0	0	-1	400
14622795	7779	728	0	-100	0	230	101300000	1000	0	0	-1	400
14635355	7777	732	0	-100	0	230	101300000	1000	0	0	-1	400
14647915	7772	738	0	-100	0	230	101300000	1000	0	0	-1	400
14660475	7768	729	0	-100	0	230	101300000	1000	0	0	-1	400
14673035	7778	725	0	-100	0	230	101300000	1000	0	0	-1	400
14685595	7773	725	0	-100	0	230	101300000	1000	0	0	-1	400
14698155	7768	727	0	-100	0	230	101300000	1000	0	0	-1	400
14710715	7804	722	0	-100	0	230	101300000	1000	0	0	-1	400
14723275	7783	726	0	-100	0	230	101300000	1000	0	0	-1	400
14735835	7768	733	0	-100	0	230	101300000	1000	0	0	-1	400
14748395	7784	734	0	-100	0	230	101300000	1000	0	0	-1	400
14760955	7791	733	0	-100	0	230	101300000	1000	0	0	-1	400
14773515	7788	727	0	-100	0	230	101300000	1000	0	0	-1	400
14786075	7792	721	0	-100	0	230	101300000	1000	0	0	-1	400
14798635	7785	728	0	-100	0	230	101300000	1000	0	0	-1	400
14811195	7780	727	0	-100	0	230	101300000	1000	0	0	-1	400
14823755	7773	722	0	-100	0	230	101300000	1000	0	0	-1	400
14836315	7785	725	0	-100	0	230	101300000	1000	0	0	-1	400
14848875	7792	725	0	-100	0	230	101300000	1000	0	0	-1	400
14861435	7792	728	0	-100	0	230	101300000	1000	0	0	-1	400
14873995	7784	727	0	-100	0	230	101300000	1000	0	0	-1	400
14886555	7789	731	0	-100	0	230	101300000	1000	0	0	-1	400
14899115	7777	734	0	-100	0	230	101300000	1000	0	0	-1	400
14911675	7782	731	0	-100	0	230	101300000	1000	0	0	-1	400
14924235	7778	730	0	-100	0	230	101300000	1000	0	0	-1	400
14936795	7789	727	0	-100	0	230	101300000	1000	0	0	-1	400
14949355	7778	724	0	-100	0	230	101300000	1000	0	0	-1	400
14961915	7788	725	0	-100	0	230	101300000	1000	0	0	-1	400
14974475	7773	728	0	-100	0	230	101300000	1000	0	0	-1	400
14987035	7763	727	0	-100	0	230	101300000	1000	0	0	-1	400
14999595	7780	727	0	-100	0	230	101300000	1000	0	0	-1	400
15012155	7781	730	0	-100	0	230	101300000	1000	0	0	-1	400
15024715	7775	728	0	-100	0	230	101300000	1000	0	0	-1	400
15037275	7770	731	0	-100	0	230	101300000	1000	0	0	-1	400
15049835	7782	729	0	-100	0	230	101300000	1000	0	0	-1	400
15062395	7789	724	0	-100	0	230	101300000	1000	0	0	-1	400
15074955	7773	724	0	-100	0	230	101300000	1000	0	0	-1	400
15087515	7768	726	0	-100	0	230	101300000	1000	0	0	-1	400
15100075	7775	725	0	-100	0	230	101300000	1000	0	0	-1	400
15112635	7775	728	0	-100	0	230	101300000	1000	0	0	-1	400
15125195	7794	736	0	-100	0	230	101300000	1000	0	0	-1	400
15137755	7779	728	0	-100	0	230	101300000	1000	0	0	-1	400
15150315	7767	731	0	-100	0	230	101300000	1000	0	0	-1	400
15162875	7765	728	0	-100	0	230	101300000	1000	0	0	-1	400
15175435	7780	729	0	-100	0	230	101300000	1000	0	0	-1	400
15187995	7787	727	0	-100	0	230	101300000	1000	0	0	-1	400
15200555	7790	723	0	-100	0	230	101300000	1000	0	0	-1	400
15213115	7782	724	0	-100	0	230	101300000	1000	0	0	-1	400
15225675	7790	734	0	-100	0	230	101300000	1000	0	0	-1	400
15238235	7797	726	0	-100	0	230	101300000	1000	0	0	-1	400
15250795	7780	725	0	-100	0	230	101300000	1000	0	0	-1	400
15263355	7778	730	0	-100	0	230	101300000	1000	0	0	-1	400
15275915	7789	729	0	-100	0	230	101300000	1000	0	0	-1	400
15288475	7795	724	0	-100	0	230	101300000	1000	0	0	-1	400
15301035	7780	726	0	-100	0	230	101300000	1000	0	0	-1	400
15313595	7780	732	0	-100	0	230	101300000	1000	0	0	-1	400
15326155	7788	728	0	-100	0	230	101300000	1000	0	0	-1	400
15338715	7788	726	0	-100	0	230	101300000	1000	0	0	-1	400
15351275	7782	730	0	-100	0	230	101300000	1000	0	0	-1	400
15363835	7767	721	0	-100	0	230	101300000	1000	0	0	-1	400
15376395	7775	727	0	-100	0	230	101300000	1000	0	0	-1	400
15388955	7772	728	0	-100	0	230	101300000	1000	0	0	-1	400
15401515	7769	722	0	-100	0	230	101300000	1000	0	0	-1	400
15414075	7761	727	0	-100	0	230	101300000	1000	0	0	-1	400
15426635	7765	730	0	-100	0	230	101300000	1000	0	0	-1	400
15439195	7778	725	0	-100	0	230	101300000	1000	0	0	-1	400
15451755	7771	728	0	-100	0	230	101300000	1000	0	0	-1	400
15464315	7763	731	0	-100	0	230	101300000	1000	0	0	-1	400
15476875	7765	727	0	-100	0	230	101300000	1000	0	0	-1	400
15489435	7784	725	0	-100	0	230	101300000	1000	0	0	-1	400
15501995	7783	731	0	-100	0	230	101300000	1000	0	0	-1	400
15514555	7779	726	0	-100	0	230	101300000	1000	0	0	-1	400
15527115	7763	729	0	-100	0	230	101300000	1000	0	0	-1	400
15539675	7767	726	0	-100	0	230	101300000	1000	0	0	-1	400
15552235	7758	727	0	-100	0	230	101300000	1000	0	0	-1	400
15564795	7768	724	0	-100	0	230	101300000	1000	0	0	-1	400
15577355	7758	728	0	-100	0	230	101300000	1000	0	0	-1	400
15589915	7773	727	0	-100	0	230	101300000	1000	0	0	-1	400
15602475	7782	730	0	-100	0	230	101300000	1000	0	0	-1	400
15615035	7763	726	0	-100	0	230	101300000	1000	0	0	-1	400
15627595	7772	727	0	-100	0	230	101300000	1000	0	0	-1	400
15640155	7767	729	0	-100	0	230	101300000	1000	0	0	-1	400
15652715	7778	726	0	-100	0	230	101300000	1000	0	0	-1	400
15665275	7781	727	0	-100	0	230	101300000	1000	0	0	-1	400
15677835	7773	727	0	-100	0	230	101300000	1000	0	0	-1	400
15690395	7774	727	0	-100	0	230	101300000	1000	0	0	-1	400
15702955	7788	727	0	-100	0	230	101300000	1000	0	0	-1	400
15715515	7785	722	0	-100	0	230	101300000	1000	0	0	-1	400
15728075	7794	720	0	-100	0	230	101300000	1000	0	0	-1	400
15740635	7801	723	0	-100	0	230	101300000	1000	0	0	-1	400
15753195	7787	725	0	-100	0	230	101300000	1000	0	0	-1	400
15765755	7763	727	0	-100	0	230	101300000	1000	0	0	-1	400
15778315	7764	727	0	-100	0	230	101300000	1000	0	0	-1	400
15790875	7780	726	0	-100	0	230	101300000	1000	0	0	-1	400
15803435	7767	728	0	-100	0	230	101300000	1000	0	0	-1	400
15815995	7766	727	0	-100	0	230	101300000	1000	0	0	-1	400
15828555	7780	726	0	-100	0	230	101300000	1000	0	0	-1	400
15841115	7768	724	0	-100	0	230	101300000	1000	0	0	-1	400
15853675	7766	724	0	-100	0	230	101300000	1000	0	0	-1	400
15866235	7760	729	0	-100	0	230	101300000	1000	0	0	-1	400
15878795	7773	727	0	-100	0	230	101300000	1000	0	0	-1	400
15891355	7784	726	0	-100	0	230	101300000	1000	0	0	-1	400
15903915	7778	724	0	-100	0	230	101300000	1000	0	0	-1	400
15916475	7775	725	0	-100	0	230	101300000	1000	0	0	-1	400
15929035	7768	727	0	-100	0	230	101300000	1000	0	0	-1	400
15941595	7780	725	0	-100	0	230	101300000	1000	0	0	-1	400
15954155	7774	725	0	-100	0	230	101300000	1000	0	0	-1	400
15966715	7782	721	0	-100	0	230	101300000	1000	0	0	-1	400
15979275	7790	726	0	-100	0	230	101300000	1000	0	0	-1	400
15991835	7776	725	0	-100	0	230	101300000	1000	0	0	-1	400
16004395	7770	727	0	-100	0	230	101300000	1000	0	0	-1	400
16016955	7782	726	0	-100	0	230	101300000	1000	0	0	-1	400
16029515	7770	724	0	-100	0	230	101300000	1000	0	0	-1	400
16042075	7786	727	0	-100	0	230	101300000	1000	0	0	-1	400
16054635	7773	724	0	-100	0	230	101300000	1000	0	0	-1	400
16067195	7782	720	0	-100	0	230	101300000	1000	0	0	-1	400
16079755	7784	720	0	-100	0	230	101300000	1000	0	0	-1	400
16092315	7760	719	0	-100	0	230	101300000	1000	0	0	-1	400
16104875	7749	715	0	-100	0	230	101300000	1000	0	0	-1	400
16117435	7735	711	0	-100	0	230	101300000	1000	0	0	-1	400
16129995	7731	716	0	-100	0	230	101300000	1000	0	0	-1	400
16142555	7731	707	0	-100	0	230	101300000	1000	0	0	-1	400
16155115	7721	709	0	-100	0	230	101300000	1000	0	0	-1	400
16167675	7725	710	0	-100	0	230	101300000	1000	0	0	-1	400
16180235	7741	710	0	-100	0	230	101300000	1000	0	0	-1	400
16192795	7748	712	0	-100	0	230	101300000	1000	0	0	-1	400
16205355	7732	716	0	-100	0	230	101300000	1000	0	0	-1	400
16217915	7740	712	0	-100	0	230	101300000	1000	0	0	-1	400
16230475	7729	713	0	-100	0	230	101300000	1000	0	0	-1	400
16243035	7728	710	0	-100	0	230	101300000	1000	0	0	-1	400
16255595	7721	706	0	-100	0	230	101300000	1000	0	0	-1	400
16268155	7721	708	0	-100	0	230	101300000	1000	0	0	-1	400
16280715	7733	705	0	-100	0	230	101300000	1000	0	0	-1	400
16293275	7746	708	0	-100	0	230	101300000	1000	0	0	-1	400
16305835	7731	711	0	-100	0	230	101300000	1000	0	0	-1	400
16318395	7731	708	0	-100	0	230	101300000	1000	0	0	-1	400
16330955	7727	707	0	-100	0	230	101300000	1000	0	0	-1	400
16343515	7741	702	0	-100	0	230	101300000	1000	0	0	-1	400
16356075	7735	703	0	-100	0	230	101300000	1000	0	0	-1	400
16368635	7732	703	0	-100	0	230	101300000	1000	0	0	-1	400
16381195	7734	705	0	-100	0	230	101300000	1000	0	0	-1	400
16393755	7734	705	0	-100	0	230	101300000	1000	0	0	-1	400
16406315	7739	704	0	-100	0	230	101300000	1000	0	0	-1	400
16418875	7739	704	0	-100	0	230	101300000	1000	0	0	-1	400
16431435	7739	702	0	-100	0	230	101300000	1000	0	0	-1	400
16443995	7720	704	0	-100	0	230	101300000	1000	0	0	-1	400
16456555	7712	706	0	-100	0	230	101300000	1000	0	0	-1	400
16469115	7715	705	0	-100	0	230	101300000	1000	0	0	-1	400
16481675	7716	706	0	-100	0	230	101300000	1000	0	0	-1	400
16494235	7731	705	0	-100	0	230	101300000	1000	0	0	-1	400
16506795	7721	707	0	-100	0	230	101300000	1000	0	0	-1	400
16519355	7734	707	0	-100	0	230	101300000	1000	0	0	-1	400
16531915	7746	703	0	-100	0	230	101300000	1000	0	0	-1	400
16544475	7739	702	0	-100	0	230	101300000	1000	0	0	-1	400
16557035	7738	702	0	-100	0	230	101300000	1000	0	0	-1	400
16569595	7725	706	0	-100	0	230	101300000	1000	0	0	-1	400
16582155	7704	709	0	-100	0	230	101300000	1000	0	0	-1	400
16594715	7727	705	0	-100	0	230	101300000	1000	0	0	-1	400
16607275	7730	704	0	-100	0	230	101300000	1000	0	0	-1	400
16619835	7737	705	0	-100	0	230	101300000	1000	0	0	-1	400
16632395	7750	705	0	-100	0	230	101300000	1000	0	0	-1	400
16644955	7743	706	0	-100	0	230	101300000	1000	0	0	-1	400
16657515	7733	709	0	-100	0	230	101300000	1000	0	0	-1	400
16670075	7726	710	0	-100	0	230	101300000	1000	0	0	-1	400
16682635	7740	711	0	-100	0	230	101300000	1000	0	0	-1	400
16695195	7734	711	0	-100	0	230	101300000	1000	0	0	-1	400
16707755	7738	712	0	-100	0	230	101300000	1000	0	0	-1	400
16720315	7750	712	0	-100	0	230	101300000	1000	0	0	-1	400
16732875	7725	708	0	-100	0	230	101300000	1000	0	0	-1	400
16745435	7729	707	0	-100	0	230	101300000	1000	0	0	-1	400
16757995	7729	702	0	-100	0	230	101300000	1000	0	0	-1	400
16770555	7738	706	0	-100	0	230	101300000	1000	0	0	-1	400
16783115	7732	704	0	-100	0	230	101300000	1000	0	0	-1	400
16795675	7744	701	0	-100	0	230	101300000	1000	0	0	-1	400
16808235	7716	706	0	-100	0	230	101300000	1000	0	0	-1	400
16820795	7728	709	0	-100	0	230	101300000	1000	0	0	-1	400
16833355	7728	712	0	-100	0	230	101300000	1000	0	0	-1	400
16845915	7698	712	0	-100	0	230	101300000	1000	0	0	-1	400
16858475	7737	710	0	-100	0	230	101300000	1000	0	0	-1	400
16871035	7746	703	0	-100	0	230	101300000	1000	0	0	-1	400
16883595	7746	702	0	-100	0	230	101300000	1000	0	0	-1	400
16896155	7720	709	0	-100	0	230	101300000	1000	0	0	-1	400
16908715	7734	708	0	-100	0	230	101300000	1000	0	0	-1	400
16921275	7736	703	0	-100	0	230	101300000	1000	0	0	-1	400
16933835	7736	705	0	-100	0	230	101300000	1000	0	0	-1	400
16946395	7750	705	0	-100	0	230	101300000	1000	0	0	-1	400
16958955	7731	709	0	-100	0	230	101300000	1000	0	0	-1	400
16971515	7731	707	0	-100	0	230	101300000	1000	0	0	-1	400
16984075	7731	711	0	-100	0	230	101300000	1000	0	0	-1	400
16996635	7732	706	0	-100	0	230	101300000	1000	0	0	-1	400
17009195	7754	702	0	-100	0	230	101300000	1000	0	0	-1	400
17021755	7746	701	0	-100	0	230	101300000	1000	0	0	-1	400
17034315	7746	705	0	-100	0	230	101300000	1000	0	0	-1	400
17046875	7748	713	0	-100	0	230	101300000	1000	0	0	-1	400
17059435	7738	702	0	-100	0	230	101300000	1000	0	0	-1	400
17071995	7748	710	0	-100	0	230	101300000	1000	0	0	-1	400
17084555	7741	705	0	-100	0	230	101300000	1000	0	0	-1	400
17097115	7738	713	0	-100	0	230	101300000	1000	0	0	-1	400
17109675	7731	709	0	-100	0	230	101300000	1000	0	0	-1	400
17122235	7746	705	0	-100	0	230	101300000	1000	0	0	-1	400
17134795	7744	701	0	-100	0	230	101300000	1000	0	0	-1	400
17147355	7748	707	0	-100	0	230	101300000	1000	0	0	-1	400
17159915	7728	708	0	-100	0	230	101300000	1000	0	0	-1	400
17172475	7740	713	0	-100	0	230	101300000	1000	0	0	-1	400
17185035	7725	709	0	-100	0	230	101300000	1000	0	0	-1	400
17197595	7751	701	0	-100	0	230	101300000	1000	0	0	-1	400
17210155	7740	705	0	-100	0	230	101300000	1000	0	0	-1	400
17222715	7747	705	0	-100	0	230	101300000	1000	0	0	-1	400
17235275	7741	706	0	-100	0	230	101300000	1000	0	0	-1	400
17247835	7722	707	0	-100	0	230	101300000	1000	0	0	-1	400
17260395	7744	709	0	-100	0	230	101300000	1000	0	0	-1	400
17272955	7722	712	0	-100	0	230	101300000	1000	0	0	-1	400
17285515	7738	711	0	-100	0	230	101300000	1000	0	0	-1	400
17298075	7736	711	0	-100	0	230	101300000	1000	0	0	-1	400
17310635	7741	710	0	-100	0	230	101300000	1000	0	0	-1	400
17323195	7726	713	0	-100	0	230	101300000	1000	0	0	-1	400
17335755	7748	716	0	-100	0	230	101300000	1000	0	0	-1	400
17348315	7758	728	0	-100	0	230	101300000	1000	0	0	-1	400
17360875	7773	729	0	-100	0	230	101300000	1000	0	0	-1	400
17373435	7773	726	0	-100	0	230	101300000	1000	0	0	-1	400
17385995	7790	723	0	-100	0	230	101300000	1000	0	0	-1	400
17398555	7778	724	0	-100	0	230	101300000	1000	0	0	-1	400
17411115	7788	724	0	-100	0	230	101300000	1000	0	0	-1	400
17423675	7811	721	0	-100	0	230	101300000	1000	0	0	-1	400
17436235	7800	721	0	-100	0	230	101300000	1000	0	0	-1	400
17448795	7790	725	0	-100	0	230	101300000	1000	0	0	-1	400
17461355	7794	729	0	-100	0	230	101300000	1000	0	0	-1	400
17473915	7794	730	0	-100	0	230	101300000	1000	0	0	-1	400
17486475	7784	731	0	-100	0	230	101300000	1000	0	0	-1	400
17499035	7780	728	0	-100	0	230	101300000	1000	0	0	-1	400
17511595	7780	729	0	-100	0	230	101300000	1000	0	0	-1	400
17524155	7766	729	0	-100	0	230	101300000	1000	0	0	-1	400
17536715	7782	727	0	-100	0	230	101300000	1000	0	0	-1	400
17549275	7782	726	0	-100	0	230	101300000	1000	0	0	-1	400
17561835	7773	724	0	-100	0	230	101300000	1000	0	0	-1	400
17574395	7777	730	0	-100	0	230	101300000	1000	0	0	-1	400
17586955	7780	730	0	-100	0	230	101300000	1000	0	0	-1	400
17599515	7785	731	0	-100	0	230	101300000	1000	0	0	-1	400
17612075	7787	732	0	-100	0	230	101300000	1000	0	0	-1	400
17624635	7791	730	0	-100	0	230	101300000	1000	0	0	-1	400
17637195	7784	726	0	-100	0	230	101300000	1000	0	0	-1	400
17649755	7791	726	0	-100	0	230	101300000	1000	0	0	-1	400
17662315	7785	723	0	-100	0	230	101300000	1000	0	0	-1	400
17674875	7809	721	0	-100	0	230	101300000	1000	0	0	-1	400
17687435	7807	721	0	-100	0	230	101300000	1000	0	0	-1	400
17699995	7799	728	0	-100	0	230	101300000	1000	0	0	-1	400
17712555	7799	731	0	-100	0	230	101300000	1000	0	0	-1	400
17725115	7797	731	0	-100	0	230	101300000	1000	0	0	-1	400
17737675	7802	729	0	-100	0	230	101300000	1000	0	0	-1	400
17750235	7803	723	0	-100	0	230	101300000	1000	0	0	-1	400
17762795	7799	721	0	-100	0	230	101300000	1000	0	0	-1	400
17775355	7793	724	0	-100	0	230	101300000	1000	0	0	-1	400
17787915	7789	726	0	-100	0	230	101300000	1000	0	0	-1	400
17800475	7775	732	0	-100	0	230	101300000	1000	0	0	-1	400
17813035	7775	733	0	-100	0	230	101300000	1000	0	0	-1	400
17825595	7773	730	0	-100	0	230	101300000	1000	0	0	-1	400
17838155	7773	729	0	-100	0	230	101300000	1000	0	0	-1	400
17850715	7778	726	0	-100	0	230	101300000	1000	0	0	-1	400
17863275	7791	728	0	-100	0	230	101300000	1000	0	0	-1	400
17875835	7773	725	0	-100	0	230	101300000	1000	0	0	-1	400
17888395	7779	730	0	-100	0	230	101300000	1000	0	0	-1	400
17900955	7790	725	0	-100	0	230	101300000	1000	0	0	-1	400
17913515	7786	732	0	-100	0	230	101300000	1000	0	0	-1	400
17926075	7785	732	0	-100	0	230	101300000	1000	0	0	-1	400
17938635	7784	733	0	-100	0	230	101300000	1000	0	0	-1	400
17951195	7790	733	0	-100	0	230	101300000	1000	0	0	-1	400
17963755	7792	730	0	-100	0	230	101300000	1000	0	0	-1	400
17976315	7773	729	0	-100	0	230	101300000	1000	0	0	-1	400
17988875	7789	728	0	-100	0	230	101300000	1000	0	0	-1	400
18001435	7764	730	0	-100	0	230	101300000	1000	0	0	-1	400
18013995	7773	726	0	-100	0	230	101300000	1000	0	0	-1	400
18026555	7775	730	0	-100	0	230	101300000	1000	0	0	-1	400
18039115	7790	731	0	-100	0	230	101300000	1000	0	0	-1	400
18051675	7791	734	0	-100	0	230	101300000	1000	0	0	-1	400
18064235	7782	736	0	-100	0	230	101300000	1000	0	0	-1	400
18076795	7797	729	0	-100	0	230	101300000	1000	0	0	-1	400
18089355	7797	728	0	-100	0	230	101300000	1000	0	0	-1	400
18101915	7773	729	0	-100	0	230	101300000	1000	0	0	-1	400
18114475	7779	729	0	-100	0	230	101300000	1000	0	0	-1	400
18127035	7811	731	0	-100	0	230	101300000	1000	0	0	-1	400
18139595	7811	729	0	-100	0	230	101300000	1000	0	0	-1	400
18152155	7768	733	0	-100	0	230	101300000	1000	0	0	-1	400
18164715	7792	732	0	-100	0	230	101300000	1000	0	0	-1	400
18177275	7775	734	0	-100	0	230	101300000	1000	0	0	-1	400
18189835	7782	732	0	-100	0	230	101300000	1000	0	0	-1	400
18202395	7778	731	0	-100	0	230	101300000	1000	0	0	-1	400
18214955	7791	727	0	-100	0	230	101300000	1000	0	0	-1	400
18227515	7788	727	0	-100	0	230	101300000	1000	0	0	-1	400
18240075	7807	724	0	-100	0	230	101300000	1000	0	0	-1	400
18252635	7782	723	0	-100	0	230	101300000	1000	0	0	-1	400
18265195	7795	723	0	-100	0	230	101300000	1000	0	0	-1	400
18277755	7771	730	0	-100	0	230	101300000	1000	0	0	-1	400
18290315	7787	733	0	-100	0	230	101300000	1000	0	0	-1	400
18302875	7784	730	0	-100	0	230	101300000	1000	0	0	-1	400
18315435	7789	726	0	-100	0	230	101300000	1000	0	0	-1	400
18327995	7789	729	0	-100	0	230	101300000	1000	0	0	-1	400
18340555	7781	724	0	-100	0	230	101300000	1000	0	0	-1	400
18353115	7790	726	0	-100	0	230	101300000	1000	0	0	-1	400
18365675	7782	729	0	-100	0	230	101300000	1000	0	0	-1	400
18378235	7780	727	0	-100	0	230	101300000	1000	0	0	-1	400
18390795	7777	726	0	-100	0	230	101300000	1000	0	0	-1	400
18403355	7782	725	0	-100	0	230	101300000	1000	0	0	-1	400
18415915	7771	729	0	-100	0	230	101300000	1000	0	0	-1	400
18428475	7765	732	0	-100	0	230	101300000	1000	0	0	-1	400
18441035	7780	733	0	-100	0	230	101300000	1000	0	0	-1	400
18453595	7787	725	0	-100	0	230	101300000	1000	0	0	-1	400
18466155	7785	723	0	-100	0	230	101300000	1000	0	0	-1	400
18478715	7790	723	0	-100	0	230	101300000	1000	0	0	-1	400
18491275	7811	719	0	-100	0	230	101300000	1000	0	0	-1	400
18503835	7780	725	0	-100	0	230	101300000	1000	0	0	-1	400
18516395	7785	727	0	-100	0	230	101300000	1000	0	0	-1	400
18528955	7723	684	0	-100	0	230	101300000	1000	0	0	-1	400
18541515	7726	664	0	-100	0	230	101300000	1000	0	0	-1	400
18554075	7727	661	0	-100	0	230	101300000	1000	0	0	-1	400
18566635	7719	665	0	-100	0	230	101300000	1000	0	0	-1	400
18579195	7717	657	0	-100	0	230	101300000	1000	0	0	-1	400
18591755	7731	659	0	-100	0	230	101300000	1000	0	0	-1	400
18604315	7709	659	0	-100	0	230	101300000	1000	0	0	-1	400
18616875	7709	655	0	-100	0	230	101300000	1000	0	0	-1	400
18629435	7712	648	0	-100	0	230	101300000	1000	0	0	-1	400
18641995	7729	649	0	-100	0	230	101300000	1000	0	0	-1	400
18654555	7736	654	0	-100	0	230	101300000	1000	0	0	-1	400
18667115	7731	651	0	-100	0	230	101300000	1000	0	0	-1	400
18679675	7713	655	0	-100	0	230	101300000	1000	0	0	-1	400
18692235	7729	657	0	-100	0	230	101300000	1000	0	0	-1	400
18704795	7734	657	0	-100	0	230	101300000	1000	0	0	-1	400
18717355	7698	652	0	-100	0	230	101300000	1000	0	0	-1	400
18729915	7710	656	0	-100	0	230	101300000	1000	0	0	-1	400
18742475	7729	665	0	-100	0	230	101300000	1000	0	0	-1	400
18755035	7731	661	0	-100	0	230	101300000	1000	0	0	-1	400
18767595	7731	659	0	-100	0	230	101300000	1000	0	0	-1	400
18780155	7691	658	0	-100	0	230	101300000	1000	0	0	-1	400
18792715	7703	653	0	-100	0	230	101300000	1000	0	0	-1	400
18805275	7734	654	0	-100	0	230	101300000	1000	0	0	-1	400
18817835	7714	653	0	-100	0	230	101300000	1000	0	0	-1	400
18830395	7711	655	0	-100	0	230	101300000	1000	0	0	-1	400
18842955	7719	659	0	-100	0	230	101300000	1000	0	0	-1	400
18855515	7717	658	0	-100	0	230	101300000	1000	0	0	-1	400
18868075	7731	655	0	-100	0	230	101300000	1000	0	0	-1	400
18880635	7707	655	0	-100	0	230	101300000	1000	0	0	-1	400
18893195	7729	655	0	-100	0	230	101300000	1000	0	0	-1	400
18905755	7733	651	0	-100	0	230	101300000	1000	0	0	-1	400
18918315	7734	654	0	-100	0	230	101300000	1000	0	0	-1	400
18930875	7721	660	0	-100	0	230	101300000	1000	0	0	-1	400
18943435	7707	658	0	-100	0	230	101300000	1000	0	0	-1	400
18955995	7710	650	0	-100	0	230	101300000	1000	0	0	-1	400
18968555	7711	659	0	-100	0	230	101300000	1000	0	0	-1	400
18981115	7717	653	0	-100	0	230	101300000	1000	0	0	-1	400
18993675	7727	653	0	-100	0	230	101300000	1000	0	0	-1	400
19006235	7736	653	0	-100	0	230	101300000	1000	0	0	-1	400
19018795	7725	655	0	-100	0	230	101300000	1000	0	0	-1	400
19031355	7711	651	0	-100	0	230	101300000	1000	0	0	-1	400
19043915	7717	650	0	-100	0	230	101300000	1000	0	0	-1	400
19056475	7725	652	0	-100	0	230	101300000	1000	0	0	-1	400
19069035	7722	652	0	-100	0	230	101300000	1000	0	0	-1	400
19081595	7723	650	0	-100	0	230	101300000	1000	0	0	-1	400
19094155	7708	655	0	-100	0	230	101300000	1000	0	0	-1	400
19106715	7729	653	0	-100	0	230	101300000	1000	0	0	-1	400
19119275	7734	646	0	-100	0	230	101300000	1000	0	0	-1	400
19131835	7731	648	0	-100	0	230	101300000	1000	0	0	-1	400
19144395	7731	653	0	-100	0	230	101300000	1000	0	0	-1	400
19156955	7746	655	0	-100	0	230	101300000	1000	0	0	-1	400
19169515	7727	653	0	-100	0	230	101300000	1000	0	0	-1	400
19182075	7721	651	0	-100	0	230	101300000	1000	0	0	-1	400
19194635	7731	649	0	-100	0	230	101300000	1000	0	0	-1	400
19207195	7739	649	0	-100	0	230	101300000	1000	0	0	-1	400
19219755	7744	651	0	-100	0	230	101300000	1000	0	0	-1	400
19232315	7738	652	0	-100	0	230	101300000	1000	0	0	-1	400
19244875	7724	657	0	-100	0	230	101300000	1000	0	0	-1	400
19257435	7726	651	0	-100	0	230	101300000	1000	0	0	-1	400
19269995	7714	651	0	-100	0	230	101300000	1000	0	0	-1	400
19282555	7714	653	0	-100	0	230	101300000	1000	0	0	-1	400
19295115	7728	651	0	-100	0	230	101300000	1000	0	0	-1	400
19307675	7755	649	0	-100	0	230	101300000	1000	0	0	-1	400
19320235	7717	647	0	-100	0	230	101300000	1000	0	0	-1	400
19332795	7701	647	0	-100	0	230	101300000	1000	0	0	-1	400
19345355	7734	653	0	-100	0	230	101300000	1000	0	0	-1	400
19357915	7718	654	0	-100	0	230	101300000	1000	0	0	-1	400
19370475	7726	653	0	-100	0	230	101300000	1000	0	0	-1	400
19383035	7738	654	0	-100	0	230	101300000	1000	0	0	-1	400
19395595	7722	647	0	-100	0	230	101300000	1000	0	0	-1	400
19408155	7729	654	0	-100	0	230	101300000	1000	0	0	-1	400
19420715	7698	656	0	-100	0	230	101300000	1000	0	0	-1	400
19433275	7702	659	0	-100	0	230	101300000	1000	0	0	-1	400
19445835	7685	655	0	-100	0	230	101300000	1000	0	0	-1	400
19458395	7703	650	0	-100	0	230	101300000	1000	0	0	-1	400
19470955	7745	652	0	-100	0	230	101300000	1000	0	0	-1	400
19483515	7710	656	0	-100	0	230	101300000	1000	0	0	-1	400
19496075	7712	648	0	-100	0	230	101300000	1000	0	0	-1	400
19508635	7710	644	0	-100	0	230	101300000	1000	0	0	-1	400
19521195	7719	657	0	-100	0	230	101300000	1000	0	0	-1	400
19533755	7726	651	0	-100	0	230	101300000	1000	0	0	-1	400
19546315	7729	655	0	-100	0	230	101300000	1000	0	0	-1	400
19558875	7702	662	0	-100	0	230	101300000	1000	0	0	-1	400
19571435	7712	651	0	-100	0	230	101300000	1000	0	0	-1	400
19583995	7715	661	0	-100	0	230	101300000	1000	0	0	-1	400
19596555	7733	659	0	-100	0	230	101300000	1000	0	0	-1	400
19609115	7748	658	0	-100	0	230	101300000	1000	0	0	-1	400
19621675	7734	653	0	-100	0	230	101300000	1000	0	0	-1	400
19634235	7729	651	0	-100	0	230	101300000	1000	0	0	-1	400
19646795	7736	654	0	-100	0	230	101300000	1000	0	0	-1	400
19659355	7741	653	0	-100	0	230	101300000	1000	0	0	-1	400
19671915	7743	656	0	-100	0	230	101300000	1000	0	0	-1	400
19684475	7741	662	0	-100	0	230	101300000	1000	0	0	-1	400
19697035	7724	653	0	-100	0	230	101300000	1000	0	0	-1	400
19709595	7717	655	0	-100	0	230	101300000	1000	0	0	-1	400
19722155	7708	651	0	-100	0	230	101300000	1000	0	0	-1	400
19734715	7709	652	0	-100	0	230	101300000	1000	0	0	-1	400
19747275	7721	650	0	-100	0	230	101300000	1000	0	0	-1	400
19759835	7710	649	0	-100	0	230	101300000	1000	0	0	-1	400
19772395	7743	653	0	-100	0	230	101300000	1000	0	0	-1	400
19784955	7727	659	0	-100	0	230	101300000	1000	0	0	-1	400
19797515	7723	659	0	-100	0	230	101300000	1000	0	0	-1	400
19810075	7712	657	0	-100	0	230	101300000	1000	0	0	-1	400
19822635	7705	656	0	-100	0	230	101300000	1000	0	0	-1	400
19835195	7698	652	0	-100	0	230	101300000	1000	0	0	-1	400
19847755	7724	650	0	-100	0	230	101300000	1000	0	0	-1	400
19860315	7732	662	0	-100	0	230	101300000	1000	0	0	-1	400
19872875	7719	661	0	-100	0	230	101300000	1000	0	0	-1	400
19885435	7705	657	0	-100	0	230	101300000	1000	0	0	-1	400
19897995	7709	654	0	-100	0	230	101300000	1000	0	0	-1	400
19910555	7727	653	0	-100	0	230	101300000	1000	0	0	-1	400
19923115	7741	670	0	-100	0	230	101300000	1000	0	0	-1	400
19935675	7765	714	0	-100	0	230	101300000	1000	0	0	-1	400
19948235	7784	725	0	-100	0	230	101300000	1000	0	0	-1	400
19960795	7772	723	0	-100	0	230	101300000	1000	0	0	-1	400
19973355	7788	724	0	-100	0	230	101300000	1000	0	0	-1	400
19985915	7792	724	0	-100	0	230	101300000	1000	0	0	-1	400
19998475	7800	724	0	-100	0	230	101300000	1000	0	0	-1	400
20011035	7794	730	0	-100	0	230	101300000	1000	0	0	-1	400
20023595	7805	730	0	-100	0	230	101300000	1000	0	0	-1	400
20036155	7794	729	0	-100	0	230	101300000	1000	0	0	-1	400
20048715	7799	724	0	-100	0	230	101300000	1000	0	0	-1	400
20061275	7786	723	0	-100	0	230	101300000	1000	0	0	-1	400
20073835	7803	722	0	-100	0	230	101300000	1000	0	0	-1	400
20086395	7808	727	0	-100	0	230	101300000	1000	0	0	-1	400
20098955	7799	732	0	-100	0	230	101300000	1000	0	0	-1	400
20111515	7797	734	0	-100	0	230	101300000	1000	0	0	-1	400
20124075	7801	725	0	-100	0	230	101300000	1000	0	0	-1	400
20136635	7794	725	0	-100	0	230	101300000	1000	0	0	-1	400
20149195	7804	724	0	-100	0	230	101300000	1000	0	0	-1	400
20161755	7797	723	0	-100	0	230	101300000	1000	0	0	-1	400
20174315	7778	727	0	-100	0	230	101300000	1000	0	0	-1	400
20186875	7792	737	0	-100	0	230	101300000	1000	0	0	-1	400
20199435	7773	727	0	-100	0	230	101300000	1000	0	0	-1	400
20211995	7792	731	0	-100	0	230	101300000	1000	0	0	-1	400
20224555	7787	727	0	-100	0	230	101300000	1000	0	0	-1	400
20237115	7785	733	0	-100	0	230	101300000	1000	0	0	-1	400
20249675	7799	733	0	-100	0	230	101300000	1000	0	0	-1	400
20262235	7799	726	0	-100	0	230	101300000	1000	0	0	-1	400
20274795	7811	726	0	-100	0	230	101300000	1000	0	0	-1	400
20287355	7798	730	0	-100	0	230	101300000	1000	0	0	-1	400
20299915	7795	730	0	-100	0	230	101300000	1000	0	0	-1	400
20312475	7799	724	0	-100	0	230	101300000	1000	0	0	-1	400
20325035	7802	723	0	-100	0	230	101300000	1000	0	0	-1	400
20337595	7801	724	0	-100	0	230	101300000	1000	0	0	-1	400
20350155	7800	728	0	-100	0	230	101300000	1000	0	0	-1	400
20362715	7778	730	0	-100	0	230	101300000	1000	0	0	-1	400
20375275	7761	732	0	-100	0	230	101300000	1000	0	0	-1	400
20387835	7788	725	0	-100	0	230	101300000	1000	0	0	-1	400
20400395	7792	726	0	-100	0	230	101300000	1000	0	0	-1	400
20412955	7782	731	0	-100	0	230	101300000	1000	0	0	-1	400
20425515	7789	731	0	-100	0	230	101300000	1000	0	0	-1	400
20438075	7805	724	0	-100	0	230	101300000	1000	0	0	-1	400
20450635	7798	726	0	-100	0	230	101300000	1000	0	0	-1	400
20463195	7789	730	0	-100	0	230	101300000	1000	0	0	-1	400
20475755	7781	730	0	-100	0	230	101300000	1000	0	0	-1	400
20488315	7788	725	0	-100	0	230	101300000	1000	0	0	-1	400
20500875	7789	725	0	-100	0	230	101300000	1000	0	0	-1	400
20513435	7784	731	0	-100	0	230	101300000	1000	0	0	-1	400
20525995	7778	725	0	-100	0	230	101300000	1000	0	0	-1	400
20538555	7790	725	0	-100	0	230	101300000	1000	0	0	-1	400
20551115	7814	722	0	-100	0	230	101300000	1000	0	0	-1	400
20563675	7794	727	0	-100	0	230	101300000	1000	0	0	-1	400
20576235	7797	730	0	-100	0	230	101300000	1000	0	0	-1	400
20588795	7799	729	0	-100	0	230	101300000	1000	0	0	-1	400
20601355	7800	724	0	-100	0	230	101300000	1000	0	0	-1	400
20613915	7814	723	0	-100	0	230	101300000	1000	0	0	-1	400
20626475	7804	728	0	-100	0	230	101300000	1000	0	0	-1	400
20639035	7801	729	0	-100	0	230	101300000	1000	0	0	-1	400
20651595	7814	728	0	-100	0	230	101300000	1000	0	0	-1	400
20664155	7789	722	0	-100	0	230	101300000	1000	0	0	-1	400
20676715	7799	727	0	-100	0	230	101300000	1000	0	0	-1	400
20689275	7790	728	0	-100	0	230	101300000	1000	0	0	-1	400
20701835	7799	731	0	-100	0	230	101300000	1000	0	0	-1	400
20714395	7771	729	0	-100	0	230	101300000	1000	0	0	-1	400
20726955	7780	727	0	-100	0	230	101300000	1000	0	0	-1	400
20739515	7799	729	0	-100	0	230	101300000	1000	0	0	-1	400
20752075	7794	725	0	-100	0	230	101300000	1000	0	0	-1	400
20764635	7805	727	0	-100	0	230	101300000	1000	0	0	-1	400
20777195	7803	733	0	-100	0	230	101300000	1000	0	0	-1	400
20789755	7790	730	0	-100	0	230	101300000	1000	0	0	-1	400
20802315	7799	727	0	-100	0	230	101300000	1000	0	0	-1	400
20814875	7801	727	0	-100	0	230	101300000	1000	0	0	-1	400
20827435	7797	729	0	-100	0	230	101300000	1000	0	0	-1	400
20839995	7792	727	0	-100	0	230	101300000	1000	0	0	-1	400
20852555	7802	728	0	-100	0	230	101300000	1000	0	0	-1	400
20865115	7801	729	0	-100	0	230	101300000	1000	0	0	-1	400
20877675	7778	735	0	-100	0	230	101300000	1000	0	0	-1	400
20890235	7770	726	0	-100	0	230	101300000	1000	0	0	-1	400
20902795	7785	724	0	-100	0	230	101300000	1000	0	0	-1	400
20915355	7782	729	0	-100	0	230	101300000	1000	0	0	-1	400
20927915	7784	730	0	-100	0	230	101300000	1000	0	0	-1	400
20940475	7794	727	0	-100	0	230	101300000	1000	0	0	-1	400
20953035	7784	727	0	-100	0	230	101300000	1000	0	0	-1	400
20965595	7790	733	0	-100	0	230	101300000	1000	0	0	-1	400
20978155	7783	730	0	-100	0	230	101300000	1000	0	0	-1	400
20990715	7818	726	0	-100	0	230	101300000	1000	0	0	-1	400
21003275	7800	725	0	-100	0	230	101300000	1000	0	0	-1	400
21015835	7782	733	0	-100	0	230	101300000	1000	0	0	-1	400
21028395	7794	730	0	-100	0	230	101300000	1000	0	0	-1	400
21040955	7801	725	0	-100	0	230	101300000	1000	0	0	-1	400
21053515	7792	728	0	-100	0	230	101300000	1000	0	0	-1	400
21066075	7800	731	0	-100	0	230	101300000	1000	0	0	-1	400
21078635	7791	725	0	-100	0	230	101300000	1000	0	0	-1	400
21091195	7796	723	0	-100	0	230	101300000	1000	0	0	-1	400
21103755	7792	733	0	-100	0	230	101300000	1000	0	0	-1	400
21116315	7792	728	0	-100	0	230	101300000	1000	0	0	-1	400
21128875	7797	726	0	-100	0	230	101300000	1000	0	0	-1	400
21141435	7796	729	0	-100	0	230	101300000	1000	0	0	-1	400
21153995	7800	723	0	-100	0	230	101300000	1000	0	0	-1	400
21166555	7806	725	0	-100	0	230	101300000	1000	0	0	-1	400
21179115	7801	728	0	-100	0	230	101300000	1000	0	0	-1	400
21191675	7778	731	0	-100	0	230	101300000	1000	0	0	-1	400
21204235	7785	724	0	-100	0	230	101300000	1000	0	0	-1	400
21216795	7789	728	0	-100	0	230	101300000	1000	0	0	-1	400
21229355	7809	730	0	-100	0	230	101300000	1000	0	0	-1	400
21241915	7811	725	0	-100	0	230	101300000	1000	0	0	-1	400
21254475	7815	729	0	-100	0	230	101300000	1000	0	0	-1	400
21267035	7782	725	0	-100	0	230	101300000	1000	0	0	-1	400
21279595	7802	725	0	-100	0	230	101300000	1000	0	0	-1	400
21292155	7809	734	0	-100	0	230	101300000	1000	0	0	-1	400
21304715	7797	726	0	-100	0	230	101300000	1000	0	0	-1	400
21317275	7796	732	0	-100	0	230	101300000	1000	0	0	-1	400
21329835	7811	724	0	-100	0	230	101300000	1000	0	0	-1	400
21342395	7804	727	0	-100	0	230	101300000	1000	0	0	-1	400
21354955	7797	728	0	-100	0	230	101300000	1000	0	0	-1	400
21367515	7811	718	0	-100	0	230	101300000	1000	0	0	-1	400
21380075	7799	732	0	-100	0	230	101300000	1000	0	0	-1	400
21392635	7789	725	0	-100	0	230	101300000	1000	0	0	-1	400
21405195	7814	727	0	-100	0	230	101300000	1000	0	0	-1	400
21417755	7801	731	0	-100	0	230	101300000	1000	0	0	-1	400
21430315	7810	725	0	-100	0	230	101300000	1000	0	0	-1	400
21442875	7797	723	0	-100	0	230	101300000	1000	0	0	-1	400
21455435	7797	730	0	-100	0	230	101300000	1000	0	0	-1	400
21467995	7800	725	0	-100	0	230	101300000	1000	0	0	-1	400
21480555	7792	728	0	-100	0	230	101300000	1000	0	0	-1	400
21493115	7785	733	0	-100	0	230	101300000	1000	0	0	-1	400
21505675	7782	724	0	-100	0	230	101300000	1000	0	0	-1	400
21518235	7814	725	0	-100	0	230	101300000	1000	0	0	-1	400
21530795	7787	731	0	-100	0	230	101300000	1000	0	0	-1	400
21543355	7796	724	0	-100	0	230	101300000	1000	0	0	-1	400
21555915	7792	732	0	-100	0	230	101300000	1000	0	0	-1	400
21568475	7778	730	0	-100	0	230	101300000	1000	0	0	-1	400
21581035	7774	731	0	-100	0	230	101300000	1000	0	0	-1	400
21593595	7795	731	0	-100	0	230	101300000	1000	0	0	-1	400
21606155	7795	728	0	-100	0	230	101300000	1000	0	0	-1	400
21618715	7800	729	0	-100	0	230	101300000	1000	0	0	-1	400
21631275	7806	728	0	-100	0	230	101300000	1000	0	0	-1	400
21643835	7809	725	0	-100	0	230	101300000	1000	0	0	-1	400
21656395	7801	723	0	-100	0	230	101300000	1000	0	0	-1	400
21668955	7780	734	0	-100	0	230	101300000	1000	0	0	-1	400
21681515	7794	726	0	-100	0	230	101300000	1000	0	0	-1	400
21694075	7793	725	0	-100	0	230	101300000	1000	0	0	-1	400
21706635	7804	728	0	-100	0	230	101300000	1000	0	0	-1	400
21719195	7803	723	0	-100	0	230	101300000	1000	0	0	-1	400
21731755	7807	724	0	-100	0	230	101300000	1000	0	0	-1	400
21744315	7799	733	0	-100	0	230	101300000	1000	0	0	-1	400
21756875	7787	730	0	-100	0	230	101300000	1000	0	0	-1	400
21769435	7804	726	0	-100	0	230	101300000	1000	0	0	-1	400
21781995	7795	728	0	-100	0	230	101300000	1000	0	0	-1	400
21794555	7813	732	0	-100	0	230	101300000	1000	0	0	-1	400
21807115	7799	725	0	-100	0	230	101300000	1000	0	0	-1	400
21819675	7787	726	0	-100	0	230	101300000	1000	0	0	-1	400
21832235	7792	732	0	-100	0	230	101300000	1000	0	0	-1	400
21844795	7780	726	0	-100	0	230	101300000	1000	0	0	-1	400
21857355	7790	726	0	-100	0	230	101300000	1000	0	0	-1	400
21869915	7794	731	0	-100	0	230	101300000	1000	0	0	-1	400
21882475	7801	725	0	-100	0	230	101300000	1000	0	0	-1	400
21895035	7797	727	0	-100	0	230	101300000	1000	0	0	-1	400
21907595	7792	738	0	-100	0	230	101300000	1000	0	0	-1	400
21920155	7768	726	0	-100	0	230	101300000	1000	0	0	-1	400
21932715	7790	724	0	-100	0	230	101300000	1000	0	0	-1	400
21945275	7799	731	0	-100	0	230	101300000	1000	0	0	-1	400
21957835	7807	723	0	-100	0	230	101300000	1000	0	0	-1	400
21970395	7802	724	0	-100	0	230	101300000	1000	0	0	-1	400
21982955	7808	732	0	-100	0	230	101300000	1000	0	0	-1	400
21995515	7790	725	0	-100	0	230	101300000	1000	0	0	-1	400
22008075	7790	725	0	-100	0	230	101300000	1000	0	0	-1	400
22020635	7789	732	0	-100	0	230	101300000	1000	0	0	-1	400
22033195	7795	723	0	-100	0	230	101300000	1000	0	0	-1	400
22045755	7794	724	0	-100	0	230	101300000	1000	0	0	-1	400
22058315	7794	734	0	-100	0	230	101300000	1000	0	0	-1	400
22070875	7778	722	0	-100	0	230	101300000	1000	0	0	-1	400
22083435	7787	729	0	-100	0	230	101300000	1000	0	0	-1	400
22095995	7797	726	0	-100	0	230	101300000	1000	0	0	-1	400
22108555	7797	730	0	-100	0	230	101300000	1000	0	0	-1	400
22121115	7783	725	0	-100	0	230	101300000	1000	0	0	-1	400
22133675	7787	729	0	-100	0	230	101300000	1000	0	0	-1	400
22146235	7792	727	0	-100	0	230	101300000	1000	0	0	-1	400
22158795	7808	728	0	-100	0	230	101300000	1000	0	0	-1	400
22171355	7785	729	0	-100	0	230	101300000	1000	0	0	-1	400
22183915	7794	729	0	-100	0	230	101300000	1000	0	0	-1	400
22196475	7785	738	0	-100	0	230	101300000	1000	0	0	-1	400
22209035	7804	726	0	-100	0	230	101300000	1000	0	0	-1	400
22221595	7790	731	0	-100	0	230	101300000	1000	0	0	-1	400
22234155	7790	727	0	-100	0	230	101300000	1000	0	0	-1	400
22246715	7804	725	0	-100	0	230	101300000	1000	0	0	-1	400
22259275	7797	733	0	-100	0	230	101300000	1000	0	0	-1	400
22271835	7802	724	0	-100	0	230	101300000	1000	0	0	-1	400
22284395	7792	724	0	-100	0	230	101300000	1000	0	0	-1	400
22296955	7798	724	0	-100	0	230	101300000	1000	0	0	-1	400
22309515	7796	727	0	-100	0	230	101300000	1000	0	0	-1	400
22322075	7785	731	0	-100	0	230	101300000	1000	0	0	-1	400
22334635	7782	724	0	-100	0	230	101300000	1000	0	0	-1	400
22347195	7790	723	0	-100	0	230	101300000	1000	0	0	-1	400
22359755	7781	726	0	-100	0	230	101300000	1000	0	0	-1	400
22372315	7799	731	0	-100	0	230	101300000	1000	0	0	-1	400
22384875	7809	728	0	-100	0	230	101300000	1000	0	0	-1	400
22397435	7811	729	0	-100	0	230	101300000	1000	0	0	-1	400
22409995	7797	724	0	-100	0	230	101300000	1000	0	0	-1	400
22422555	7797	728	0	-100	0	230	101300000	1000	0	0	-1	400
22435115	7806	724	0	-100	0	230	101300000	1000	0	0	-1	400
22447675	7784	731	0	-100	0	230	101300000	1000	0	0	-1	400
22460235	7784	734	0	-100	0	230	101300000	1000	0	0	-1	400
22472795	7790	730	0	-100	0	230	101300000	1000	0	0	-1	400
22485355	7792	726	0	-100	0	230	101300000	1000	0	0	-1	400
22497915	7803	722	0	-100	0	230	101300000	1000	0	0	-1	400
22510475	7809	726	0	-100	0	230	101300000	1000	0	0	-1	400
22523035	7797	732	0	-100	0	230	101300000	1000	0	0	-1	400
22535595	7790	725	0	-100	0	230	101300000	1000	0	0	-1	400
22548155	7792	727	0	-100	0	230	101300000	1000	0	0	-1	400
22560715	7788	732	0	-100	0	230	101300000	1000	0	0	-1	400
22573275	7787	733	0	-100	0	230	101300000	1000	0	0	-1	400
22585835	7783	729	0	-100	0	230	101300000	1000	0	0	-1	400
22598395	7801	726	0	-100	0	230	101300000	1000	0	0	-1	400
22610955	7790	726	0	-100	0	230	101300000	1000	0	0	-1	400
22623515	7792	729	0	-100	0	230	101300000	1000	0	0	-1	400
22636075	7823	728	0	-100	0	230	101300000	1000	0	0	-1	400
22648635	7808	727	0	-100	0	230	101300000	1000	0	0	-1	400
22661195	7788	731	0	-100	0	230	101300000	1000	0	0	-1	400
22673755	7790	733	0	-100	0	230	101300000	1000	0	0	-1	400
22686315	7782	736	0	-100	0	230	101300000	1000	0	0	-1	400
22698875	7790	729	0	-100	0	230	101300000	1000	0	0	-1	400
22711435	7797	728	0	-100	0	230	101300000	1000	0	0	-1	400
22723995	7814	721	0	-100	0	230	101300000	1000	0	0	-1	400
22736555	7806	725	0	-100	0	230	101300000	1000	0	0	-1	400
22749115	7799	725	0	-100	0	230	101300000	1000	0	0	-1	400
22761675	7802	727	0	-100	0	230	101300000	1000	0	0	-1	400
22774235	7800	725	0	-100	0	230	101300000	1000	0	0	-1	400
22786795	7803	722	0	-100	0	230	101300000	1000	0	0	-1	400
22799355	7799	730	0	-100	0	230	101300000	1000	0	0	-1	400
22811915	7780	730	0	-100	0	230	101300000	1000	0	0	-1	400
22824475	7782	730	0	-100	0	230	101300000	1000	0	0	-1	400
22837035	7790	728	0	-100	0	230	101300000	1000	0	0	-1	400
22849595	7807	724	0	-100	0	230	101300000	1000	0	0	-1	400
22862155	7788	731	0	-100	0	230	101300000	1000	0	0	-1	400
22874715	7807	732	0	-100	0	230	101300000	1000	0	0	-1	400
22887275	7811	732	0	-100	0	230	101300000	1000	0	0	-1	400
22899835	7797	728	0	-100	0	230	101300000	1000	0	0	-1	400
22912395	7799	723	0	-100	0	230	101300000	1000	0	0	-1	400
22924955	7809	723	0	-100	0	230	101300000	1000	0	0	-1	400
22937515	7813	726	0	-100	0	230	101300000	1000	0	0	-1	400
22950075	7811	729	0	-100	0	230	101300000	1000	0	0	-1	400
22962635	7810	725	0	-100	0	230	101300000	1000	0	0	-1	400
22975195	7814	727	0	-100	0	230	101300000	1000	0	0	-1	400
22987755	7809	730	0	-100	0	230	101300000	1000	0	0	-1	400
23000315	7805	723	0	-100	0	230	101300000	1000	0	0	-1	400
23012875	7828	722	0	-100	0	230	101300000	1000	0	0	-1	400
23025435	7819	728	0	-100	0	230	101300000	1000	0	0	-1	400
23037995	7813	725	0	-100	0	230	101300000	1000	0	0	-1	400
23050555	7801	727	0	-100	0	230	101300000	1000	0	0	-1	400
23063115	7790	724	0	-100	0	230	101300000	1000	0	0	-1	400
23075675	7798	724	0	-100	0	230	101300000	1000	0	0	-1	400
23088235	7797	726	0	-100	0	230	101300000	1000	0	0	-1	400
23100795	7810	726	0	-100	0	230	101300000	1000	0	0	-1	400
23113355	7805	722	0	-100	0	230	101300000	1000	0	0	-1	400
23125915	7814	719	0	-100	0	230	101300000	1000	0	0	-1	400
23138475	7816	724	0	-100	0	230	101300000	1000	0	0	-1	400
23151035	7790	727	0	-100	0	230	101300000	1000	0	0	-1	400
23163595	7804	729	0	-100	0	230	101300000	1000	0	0	-1	400
23176155	7788	729	0	-100	0	230	101300000	1000	0	0	-1	400
23188715	7786	735	0	-100	0	230	101300000	1000	0	0	-1	400
23201275	7789	730	0	-100	0	230	101300000	1000	0	0	-1	400
23213835	7811	734	0	-100	0	230	101300000	1000	0	0	-1	400
23226395	7794	729	0	-100	0	230	101300000	1000	0	0	-1	400
23238955	7780	727	0	-100	0	230	101300000	1000	0	0	-1	400
23251515	7811	726	0	-100	0	230	101300000	1000	0	0	-1	400
23264075	7806	725	0	-100	0	230	101300000	1000	0	0	-1	400
23276635	7804	723	0	-100	0	230	101300000	1000	0	0	-1	400
23289195	7807	725	0	-100	0	230	101300000	1000	0	0	-1	400
23301755	7790	726	0	-100	0	230	101300000	1000	0	0	-1	400
23314315	7807	725	0	-100	0	230	101300000	1000	0	0	-1	400
23326875	7811	724	0	-100	0	230	101300000	1000	0	0	-1	400
23339435	7807	724	0	-100	0	230	101300000	1000	0	0	-1	400
23351995	7787	734	0	-100	0	230	101300000	1000	0	0	-1	400
23364555	7811	727	0	-100	0	230	101300000	1000	0	0	-1	400
23377115	7787	732	0	-100	0	230	101300000	1000	0	0	-1	400
23389675	7789	732	0	-100	0	230	101300000	1000	0	0	-1	400
23402235	7782	731	0	-100	0	230	101300000	1000	0	0	-1	400
23414795	7792	734	0	-100	0	230	101300000	1000	0	0	-1	400
23427355	7790	728	0	-100	0	230	101300000	1000	0	0	-1	400
23439915	7789	727	0	-100	0	230	101300000	1000	0	0	-1	400
23452475	7784	728	0	-100	0	230	101300000	1000	0	0	-1	400
23465035	7804	726	0	-100	0	230	101300000	1000	0	0	-1	400
23477595	7780	732	0	-100	0	230	101300000	1000	0	0	-1	400
23490155	7774	732	0	-100	0	230	101300000	1000	0	0	-1	400
23502715	7787	727	0	-100	0	230	101300000	1000	0	0	-1	400
23515275	7797	726	0	-100	0	230	101300000	1000	0	0	-1	400
23527835	7793	725	0	-100	0	230	101300000	1000	0	0	-1	400
23540395	7800	725	0	-100	0	230	101300000	1000	0	0	-1	400
23552955	7815	729	0	-100	0	230	101300000	1000	0	0	-1	400
23565515	7801	733	0	-100	0	230	101300000	1000	0	0	-1	400
23578075	7792	729	0	-100	0	230	101300000	1000	0	0	-1	400
23590635	7800	725	0	-100	0	230	101300000	1000	0	0	-1	400
23603195	7801	725	0	-100	0	230	101300000	1000	0	0	-1	400
23615755	7792	725	0	-100	0	230	101300000	1000	0	0	-1	400
23628315	7795	727	0	-100	0	230	101300000	1000	0	0	-1	400
23640875	7790	726	0	-100	0	230	101300000	1000	0	0	-1	400
23653435	7789	727	0	-100	0	230	101300000	1000	0	0	-1	400
23665995	7799	728	0	-100	0	230	101300000	1000	0	0	-1	400
23678555	7795	733	0	-100	0	230	101300000	1000	0	0	-1	400
23691115	7784	730	0	-100	0	230	101300000	1000	0	0	-1	400
23703675	7782	726	0	-100	0	230	101300000	1000	0	0	-1	400
23716235	7803	727	0	-100	0	230	101300000	1000	0	0	-1	400
23728795	7794	726	0	-100	0	230	101300000	1000	0	0	-1	400
23741355	7811	721	0	-100	0	230	101300000	1000	0	0	-1	400
23753915	7797	724	0	-100	0	230	101300000	1000	0	0	-1	400
23766475	7797	728	0	-100	0	230	101300000	1000	0	0	-1	400
23779035	7789	721	0	-100	0	230	101300000	1000	0	0	-1	400
23791595	7821	722	0	-100	0	230	101300000	1000	0	0	-1	400
23804155	7805	725	0	-100	0	230	101300000	1000	0	0	-1	400
23816715	7811	726	0	-100	0	230	101300000	1000	0	0	-1	400
23829275	7794	734	0	-100	0	230	101300000	1000	0	0	-1	400
23841835	7799	732	0	-100	0	230	101300000	1000	0	0	-1	400
23854395	7800	729	0	-100	0	230	101300000	1000	0	0	-1	400
23866955	7792	726	0	-100	0	230	101300000	1000	0	0	-1	400
23879515	7800	731	0	-100	0	230	101300000	1000	0	0	-1	400
23892075	7802	731	0	-100	0	230	101300000	1000	0	0	-1	400
23904635	7785	731	0	-100	0	230	101300000	1000	0	0	-1	400
23917195	7797	725	0	-100	0	230	101300000	1000	0	0	-1	400
23929755	7785	724	0	-100	0	230	101300000	1000	0	0	-1	400
23942315	7790	725	0	-100	0	230	101300000	1000	0	0	-1	400
23954875	7806	725	0	-100	0	230	101300000	1000	0	0	-1	400
23967435	7804	730	0	-100	0	230	101300000	1000	0	0	-1	400
23979995	7807	727	0	-100	0	230	101300000	1000	0	0	-1	400
23992555	7806	728	0	-100	0	230	101300000	1000	0	0	-1	400
24005115	7799	728	0	-100	0	230	101300000	1000	0	0	-1	400
24017675	7801	723	0	-100	0	230	101300000	1000	0	0	-1	400
24030235	7801	725	0	-100	0	230	101300000	1000	0	0	-1	400
24042795	7811	724	0	-100	0	230	101300000	1000	0	0	-1	400
24055355	7801	725	0	-100	0	230	101300000	1000	0	0	-1	400
24067915	7787	734	0	-100	0	230	101300000	1000	0	0	-1	400
24080475	7785	735	0	-100	0	230	101300000	1000	0	0	-1	400
24093035	7785	738	0	-100	0	230	101300000	1000	0	0	-1	400
24105595	7782	730	0	-100	0	230	101300000	1000	0	0	-1	400
24118155	7783	729	0	-100	0	230	101300000	1000	0	0	-1	400
24130715	7789	727	0	-100	0	230	101300000	1000	0	0	-1	400
24143275	7794	726	0	-100	0	230	101300000	1000	0	0	-1	400
24155835	7794	726	0	-100	0	230	101300000	1000	0	0	-1	400
24168395	7799	726	0	-100	0	230	101300000	1000	0	0	-1	400
24180955	7814	728	0	-100	0	230	101300000	1000	0	0	-1	400
24193515	7816	728	0	-100	0	230	101300000	1000	0	0	-1	400
24206075	7805	732	0	-100	0	230	101300000	1000	0	0	-1	400
24218635	7795	727	0	-100	0	230	101300000	1000	0	0	-1	400
24231195	7802	725	0	-100	0	230	101300000	1000	0	0	-1	400
24243755	7804	727	0	-100	0	230	101300000	1000	0	0	-1	400
24256315	7811	729	0	-100	0	230	101300000	1000	0	0	-1	400
24268875	7807	725	0	-100	0	230	101300000	1000	0	0	-1	400
24281435	7807	722	0	-100	0	230	101300000	1000	0	0	-1	400
24293995	7803	734	0	-100	0	230	101300000	1000	0	0	-1	400
24306555	7794	730	0	-100	0	230	101300000	1000	0	0	-1	400
24319115	7811	734	0	-100	0	230	101300000	1000	0	0	-1	400
24331675	7797	727	0	-100	0	230	101300000	1000	0	0	-1	400
24344235	7797	725	0	-100	0	230	101300000	1000	0	0	-1	400
24356795	7814	724	0	-100	0	230	101300000	1000	0	0	-1	400
24369355	7796	729	0	-100	0	230	101300000	1000	0	0	-1	400
24381915	7807	730	0	-100	0	230	101300000	1000	0	0	-1	400
24394475	7805	723	0	-100	0	230	101300000	1000	0	0	-1	400
24407035	7824	723	0	-100	0	230	101300000	1000	0	0	-1	400
24419595	7821	728	0	-100	0	230	101300000	1000	0	0	-1	400
24432155	7795	731	0	-100	0	230	101300000	1000	0	0	-1	400
24444715	7801	723	0	-100	0	230	101300000	1000	0	0	-1	400
24457275	7816	724	0	-100	0	230	101300000	1000	0	0	-1	400
24469835	7805	728	0	-100	0	230	101300000	1000	0	0	-1	400
24482395	7802	733	0	-100	0	230	101300000	1000	0	0	-1	400
24494955	7811	729	0	-100	0	230	101300000	1000	0	0	-1	400
24507515	7815	722	0	-100	0	230	101300000	1000	0	0	-1	400
24520075	7821	724	0	-100	0	230	101300000	1000	0	0	-1	400
24532635	7811	730	0	-100	0	230	101300000	1000	0	0	-1	400
24545195	7940	722	0	-100	0	230	101300000	1000	0	0	-1	400
24557755	7870	716	0	-100	0	230	101300000	1000	0	0	-1	400
24570315	8235	689	0	-100	0	230	101300000	1000	0	0	-1	400
24582875	8129	699	0	-100	0	230	101300000	1000	0	0	-1	400
24595435	7937	716	0	-100	0	230	101300000	1000	0	0	-1	400
24607995	7840	715	0	-100	0	230	101300000	1000	0	0	-1	400
24620555	7810	720	0	-100	0	230	101300000	1000	0	0	-1	400
24633115	7817	724	0	-100	0	230	101300000	1000	0	0	-1	400
24645675	8257	696	0	-100	0	230	101300000	1000	0	0	-1	400
24658235	8415	695	0	-100	0	230	101300000	1000	0	0	-1	400
24670795	8471	691	0	-100	0	230	101300000	1000	0	0	-1	400
24683355	8483	694	0	-100	0	230	101300000	1000	0	0	-1	400
24695915	8509	694	0	-100	0	230	101300000	1000	0	0	-1	400
24708475	8505	695	0	-100	0	230	101300000	1000	0	0	-1	400
24721035	8493	691	0	-100	0	230	101300000	1000	0	0	-1	400
24733595	8502	691	0	-100	0	230	101300000	1000	0	0	-1	400
24746155	8495	691	0	-100	0	230	101300000	1000	0	0	-1	400
24758715	8507	690	0	-100	0	230	101300000	1000	0	0	-1	400
24771275	8502	691	0	-100	0	230	101300000	1000	0	0	-1	400
24783835	8462	690	0	-100	0	230	101300000	1000	0	0	-1	400
24796395	8500	688	0	-100	0	230	101300000	1000	0	0	-1	400
24808955	8510	685	0	-100	0	230	101300000	1000	0	0	-1	400
24821515	8507	685	0	-100	0	230	101300000	1000	0	0	-1	400
24834075	8512	686	0	-100	0	230	101300000	1000	0	0	-1	400
24846635	8512	687	0	-100	0	230	101300000	1000	0	0	-1	400
24859195	8510	689	0	-100	0	230	101300000	1000	0	0	-1	400
24871755	8529	688	0	-100	0	230	101300000	1000	0	0	-1	400
24884315	8394	689	0	-100	0	230	101300000	1000	0	0	-1	400
24896875	8468	688	0	-100	0	230	101300000	1000	0	0	-1	400
24909435	8503	690	0	-100	0	230	101300000	1000	0	0	-1	400
24921995	8512	695	0	-100	0	230	101300000	1000	0	0	-1	400
24934555	8515	689	0	-100	0	230	101300000	1000	0	0	-1	400
24947115	8515	691	0	-100	0	230	101300000	1000	0	0	-1	400
24959675	8517	690	0	-100	0	230	101300000	1000	0	0	-1	400
24972235	8515	690	0	-100	0	230	101300000	1000	0	0	-1	400
24984795	8522	687	0	-100	0	230	101300000	1000	0	0	-1	400
24997355	8520	688	0	-100	0	230	101300000	1000	0	0	-1	400
25009915	8524	689	0	-100	0	230	101300000	1000	0	0	-1	400
25022475	8522	690	0	-100	0	230	101300000	1000	0	0	-1	400
25035035	8515	690	0	-100	0	230	101300000	1000	0	0	-1	400
25047595	8526	693	0	-100	0	230	101300000	1000	0	0	-1	400
25060155	8508	692	0	-100	0	230	101300000	1000	0	0	-1	400
25072715	8524	697	0	-100	0	230	101300000	1000	0	0	-1	400
25085275	8517	696	0	-100	0	230	101300000	1000	0	0	-1	400
25097835	8480	692	0	-100	0	230	101300000	1000	0	0	-1	400
25110395	8502	692	0	-100	0	230	101300000	1000	0	0	-1	400
25122955	8514	692	0	-100	0	230	101300000	1000	0	0	-1	400
25135515	8507	691	0	-100	0	230	101300000	1000	0	0	-1	400
25148075	8464	691	0	-100	0	230	101300000	1000	0	0	-1	400
25160635	8425	691	0	-100	0	230	101300000	1000	0	0	-1	400
25173195	8490	693	0	-100	0	230	101300000	1000	0	0	-1	400
25185755	8519	696	0	-100	0	230	101300000	1000	0	0	-1	400
25198315	8527	696	0	-100	0	230	101300000	1000	0	0	-1	400
25210875	8531	696	0	-100	0	230	101300000	1000	0	0	-1	400
25223435	8531	700	0	-100	0	230	101300000	1000	0	0	-1	400
25235995	8527	689	0	-100	0	230	101300000	1000	0	0	-1	400
25248555	8536	692	0	-100	0	230	101300000	1000	0	0	-1	400
25261115	8527	690	0	-100	0	230	101300000	1000	0	0	-1	400
25273675	8534	691	0	-100	0	230	101300000	1000	0	0	-1	400
25286235	8534	692	0	-100	0	230	101300000	1000	0	0	-1	400
25298795	8527	692	0	-100	0	230	101300000	1000	0	0	-1	400
25311355	8532	691	0	-100	0	230	101300000	1000	0	0	-1	400
25323915	8541	691	0	-100	0	230	101300000	1000	0	0	-1	400
25336475	8532	689	0	-100	0	230	101300000	1000	0	0	-1	400
25349035	8543	692	0	-100	0	230	101300000	1000	0	0	-1	400
25361595	8532	694	0	-100	0	230	101300000	1000	0	0	-1	400
25374155	8520	691	0	-100	0	230	101300000	1000	0	0	-1	400
25386715	8541	690	0	-100	0	230	101300000	1000	0	0	-1	400
25399275	8536	690	0	-100	0	230	101300000	1000	0	0	-1	400
25411835	8539	693	0	-100	0	230	101300000	1000	0	0	-1	400
25424395	8537	690	0	-100	0	230	101300000	1000	0	0	-1	400
25436955	8534	691	0	-100	0	230	101300000	1000	0	0	-1	400
25449515	8536	691	0	-100	0	230	101300000	1000	0	0	-1	400
25462075	8515	695	0	-100	0	230	101300000	1000	0	0	-1	400
25474635	8529	696	0	-100	0	230	101300000	1000	0	0	-1	400
25487195	8534	700	0	-100	0	230	101300000	1000	0	0	-1	400
25499755	8534	698	0	-100	0	230	101300000	1000	0	0	-1	400
25512315	8532	699	0	-100	0	230	101300000	1000	0	0	-1	400
25524875	8536	697	0	-100	0	230	101300000	1000	0	0	-1	400
25537435	8518	698	0	-100	0	230	101300000	1000	0	0	-1	400
25549995	8531	696	0	-100	0	230	101300000	1000	0	0	-1	400
25562555	8536	697	0	-100	0	230	101300000	1000	0	0	-1	400
25575115	8529	699	0	-100	0	230	101300000	1000	0	0	-1	400
25587675	8539	697	0	-100	0	230	101300000	1000	0	0	-1	400
25600235	8532	699	0	-100	0	230	101300000	1000	0	0	-1	400
25612795	8539	697	0	-100	0	230	101300000	1000	0	0	-1	400
25625355	8536	697	0	-100	0	230	101300000	1000	0	0	-1	400
25637915	8532	692	0	-100	0	230	101300000	1000	0	0	-1	400
25650475	8536	691	0	-100	0	230	101300000	1000	0	0	-1	400
25663035	8541	690	0	-100	0	230	101300000	1000	0	0	-1	400
25675595	8537	687	0	-100	0	230	101300000	1000	0	0	-1	400
25688155	8534	694	0	-100	0	230	101300000	1000	0	0	-1	400
25700715	8546	692	0	-100	0	230	101300000	1000	0	0	-1	400
25713275	8532	692	0	-100	0	230	101300000	1000	0	0	-1	400
25725835	8541	691	0	-100	0	230	101300000	1000	0	0	-1	400
25738395	8536	693	0	-100	0	230	101300000	1000	0	0	-1	400
25750955	8536	691	0	-100	0	230	101300000	1000	0	0	-1	400
25763515	8523	689	0	-100	0	230	101300000	1000	0	0	-1	400
25776075	8536	691	0	-100	0	230	101300000	1000	0	0	-1	400
25788635	8532	692	0	-100	0	230	101300000	1000	0	0	-1	400
25801195	8534	693	0	-100	0	230	101300000	1000	0	0	-1	400
25813755	8539	692	0	-100	0	230	101300000	1000	0	0	-1	400
25826315	8532	693	0	-100	0	230	101300000	1000	0	0	-1	400
25838875	8534	694	0	-100	0	230	101300000	1000	0	0	-1	400
25851435	8536	696	0	-100	0	230	101300000	1000	0	0	-1	400
25863995	8534	691	0	-100	0	230	101300000	1000	0	0	-1	400
25876555	8532	694	0	-100	0	230	101300000	1000	0	0	-1	400
25889115	8534	691	0	-100	0	230	101300000	1000	0	0	-1	400
25901675	8529	690	0	-100	0	230	101300000	1000	0	0	-1	400
25914235	8546	690	0	-100	0	230	101300000	1000	0	0	-1	400
25926795	8546	691	0	-100	0	230	101300000	1000	0	0	-1	400
25939355	8522	693	0	-100	0	230	101300000	1000	0	0	-1	400
25951915	8534	695	0	-100	0	230	101300000	1000	0	0	-1	400
25964475	8541	698	0	-100	0	230	101300000	1000	0	0	-1	400
25977035	8532	694	0	-100	0	230	101300000	1000	0	0	-1	400
25989595	8536	692	0	-100	0	230	101300000	1000	0	0	-1	400
26002155	8527	692	0	-100	0	230	101300000	1000	0	0	-1	400
26014715	8541	688	0	-100	0	230	101300000	1000	0	0	-1	400
26027275	8546	692	0	-100	0	230	101300000	1000	0	0	-1	400
26039835	8536	693	0	-100	0	230	101300000	1000	0	0	-1	400
26052395	8548	697	0	-100	0	230	101300000	1000	0	0	-1	400
26064955	8536	698	0	-100	0	230	101300000	1000	0	0	-1	400
26077515	8529	696	0	-100	0	230	101300000	1000	0	0	-1	400
26090075	8539	690	0	-100	0	230	101300000	1000	0	0	-1	400
26102635	8529	692	0	-100	0	230	101300000	1000	0	0	-1	400
26115195	8546	692	0	-100	0	230	101300000	1000	0	0	-1	400
26127755	8541	691	0	-100	0	230	101300000	1000	0	0	-1	400
26140315	8539	691	0	-100	0	230	101300000	1000	0	0	-1	400
26152875	8539	696	0	-100	0	230	101300000	1000	0	0	-1	400
26165435	8529	699	0	-100	0	230	101300000	1000	0	0	-1	400
26177995	8538	692	0	-100	0	230	101300000	1000	0	0	-1	400
26190555	8534	707	0	-100	0	230	101300000	1000	0	0	-1	400
26203115	8537	698	0	-100	0	230	101300000	1000	0	0	-1	400
26215675	8544	697	0	-100	0	230	101300000	1000	0	0	-1	400
26228235	8541	696	0	-100	0	230	101300000	1000	0	0	-1	400
26240795	8529	694	0	-100	0	230	101300000	1000	0	0	-1	400
26253355	8529	694	0	-100	0	230	101300000	1000	0	0	-1	400
26265915	8337	693	0	-100	0	230	101300000	1000	0	0	-1	400
26278475	8057	706	0	-100	0	230	101300000	1000	0	0	-1	400
26291035	7923	711	0	-100	0	230	101300000	1000	0	0	-1	400
26303595	7858	717	0	-100	0	230	101300000	1000	0	0	-1	400
26316155	7816	724	0	-100	0	230	101300000	1000	0	0	-1	400
26328715	7790	722	0	-100	0	230	101300000	1000	0	0	-1	400
26341275	7814	727	0	-100	0	230	101300000	1000	0	0	-1	400
26353835	7814	726	0	-100	0	230	101300000	1000	0	0	-1	400
26366395	7802	725	0	-100	0	230	101300000	1000	0	0	-1	400
26378955	7809	726	0	-100	0	230	101300000	1000	0	0	-1	400
26391515	7816	724	0	-100	0	230	101300000	1000	0	0	-1	400
26404075	7811	724	0	-100	0	230	101300000	1000	0	0	-1	400
26416635	7811	726	0	-100	0	230	101300000	1000	0	0	-1	400
26429195	7804	733	0	-100	0	230	101300000	1000	0	0	-1	400
26441755	7783	732	0	-100	0	230	101300000	1000	0	0	-1	400
26454315	7777	731	0	-100	0	230	101300000	1000	0	0	-1	400
26466875	7788	726	0	-100	0	230	101300000	1000	0	0	-1	400
26479435	7785	728	0	-100	0	230	101300000	1000	0	0	-1	400
26491995	7808	729	0	-100	0	230	101300000	1000	0	0	-1	400
26504555	7792	725	0	-100	0	230	101300000	1000	0	0	-1	400
26517115	7788	725	0	-100	0	230	101300000	1000	0	0	-1	400
26529675	7799	726	0	-100	0	230	101300000	1000	0	0	-1	400
26542235	7809	720	0	-100	0	230	101300000	1000	0	0	-1	400
26554795	7807	724	0	-100	0	230	101300000	1000	0	0	-1	400
26567355	7811	723	0	-100	0	230	101300000	1000	0	0	-1	400
26579915	7804	727	0	-100	0	230	101300000	1000	0	0	-1	400
26592475	7806	729	0	-100	0	230	101300000	1000	0	0	-1	400
26605035	7798	730	0	-100	0	230	101300000	1000	0	0	-1	400
26617595	7809	732	0	-100	0	230	101300000	1000	0	0	-1	400
26630155	7797	733	0	-100	0	230	101300000	1000	0	0	-1	400
26642715	7805	727	0	-100	0	230	101300000	1000	0	0	-1	400
26655275	7811	729	0	-100	0	230	101300000	1000	0	0	-1	400
26667835	7790	728	0	-100	0	230	101300000	1000	0	0	-1	400
26680395	7801	728	0	-100	0	230	101300000	1000	0	0	-1	400
26692955	7793	727	0	-100	0	230	101300000	1000	0	0	-1	400
26705515	7797	722	0	-100	0	230	101300000	1000	0	0	-1	400
26718075	7809	724	0	-100	0	230	101300000	1000	0	0	-1	400
26730635	7816	726	0	-100	0	230	101300000	1000	0	0	-1	400
26743195	7811	724	0	-100	0	230	101300000	1000	0	0	-1	400
26755755	7819	722	0	-100	0	230	101300000	1000	0	0	-1	400
26768315	7800	723	0	-100	0	230	101300000	1000	0	0	-1	400
26780875	7814	722	0	-100	0	230	101300000	1000	0	0	-1	400
26793435	7816	724	0	-100	0	230	101300000	1000	0	0	-1	400
26805995	7799	730	0	-100	0	230	101300000	1000	0	0	-1	400
26818555	7814	726	0	-100	0	230	101300000	1000	0	0	-1	400
26831115	7811	727	0	-100	0	230	101300000	1000	0	0	-1	400
26843675	7812	729	0	-100	0	230	101300000	1000	0	0	-1	400
26856235	7804	733	0	-100	0	230	101300000	1000	0	0	-1	400
26868795	7789	730	0	-100	0	230	101300000	1000	0	0	-1	400
26881355	7804	732	0	-100	0	230	101300000	1000	0	0	-1	400
26893915	7801	730	0	-100	0	230	101300000	1000	0	0	-1	400
26906475	7823	730	0	-100	0	230	101300000	1000	0	0	-1	400
26919035	7803	724	0	-100	0	230	101300000	1000	0	0	-1	400
26931595	7811	727	0	-100	0	230	101300000	1000	0	0	-1	400
26944155	7817	727	0	-100	0	230	101300000	1000	0	0	-1	400
26956715	7814	726	0	-100	0	230	101300000	1000	0	0	-1	400
26969275	7811	720	0	-100	0	230	101300000	1000	0	0	-1	400
26981835	7809	724	0	-100	0	230	101300000	1000	0	0	-1	400
26994395	7816	722	0	-100	0	230	101300000	1000	0	0	-1	400
27006955	7801	724	0	-100	0	230	101300000	1000	0	0	-1	400
27019515	7790	728	0	-100	0	230	101300000	1000	0	0	-1	400
27032075	7805	729	0	-100	0	230	101300000	1000	0	0	-1	400
27044635	7790	731	0	-100	0	230	101300000	1000	0	0	-1	400
27057195	7826	727	0	-100	0	230	101300000	1000	0	0	-1	400
27069755	7824	724	0	-100	0	230	101300000	1000	0	0	-1	400
27082315	7823	722	0	-100	0	230	101300000	1000	0	0	-1	400
27094875	7821	723	0	-100	0	230	101300000	1000	0	0	-1	400
27107435	7809	727	0	-100	0	230	101300000	1000	0	0	-1	400
27119995	7832	725	0	-100	0	230	101300000	1000	0	0	-1	400
27132555	7809	726	0	-100	0	230	101300000	1000	0	0	-1	400
27145115	7816	725	0	-100	0	230	101300000	1000	0	0	-1	400
27157675	7821	731	0	-100	0	230	101300000	1000	0	0	-1	400
27170235	7792	723	0	-100	0	230	101300000	1000	0	0	-1	400
27182795	7807	724	0	-100	0	230	101300000	1000	0	0	-1	400
27195355	7788	730	0	-100	0	230	101300000	1000	0	0	-1	400
27207915	7788	730	0	-100	0	230	101300000	1000	0	0	-1	400
27220475	7802	730	0	-100	0	230	101300000	1000	0	0	-1	400
27233035	7807	725	0	-100	0	230	101300000	1000	0	0	-1	400
27245595	7801	730	0	-100	0	230	101300000	1000	0	0	-1	400
27258155	7800	727	0	-100	0	230	101300000	1000	0	0	-1	400
27270715	7792	726	0	-100	0	230	101300000	1000	0	0	-1	400
27283275	7804	733	0	-100	0	230	101300000	1000	0	0	-1	400
27295835	7794	733	0	-100	0	230	101300000	1000	0	0	-1	400
27308395	7794	728	0	-100	0	230	101300000	1000	0	0	-1	400
27320955	7799	726	0	-100	0	230	101300000	1000	0	0	-1	400
27333515	7807	725	0	-100	0	230	101300000	1000	0	0	-1	400
27346075	7816	732	0	-100	0	230	101300000	1000	0	0	-1	400
27358635	7797	730	0	-100	0	230	101300000	1000	0	0	-1	400
27371195	7799	729	0	-100	0	230	101300000	1000	0	0	-1	400
27383755	7792	729	0	-100	0	230	101300000	1000	0	0	-1	400
27396315	7799	733	0	-100	0	230	101300000	1000	0	0	-1	400
27408875	7797	731	0	-100	0	230	101300000	1000	0	0	-1	400
27421435	7808	725	0	-100	0	230	101300000	1000	0	0	-1	400
27433995	7802	722	0	-100	0	230	101300000	1000	0	0	-1	400
27446555	7783	728	0	-100	0	230	101300000	1000	0	0	-1	400
27459115	7806	732	0	-100	0	230	101300000	1000	0	0	-1	400
27471675	7794	731	0	-100	0	230	101300000	1000	0	0	-1	400
27484235	7787	730	0	-100	0	230	101300000	1000	0	0	-1	400
27496795	7792	721	0	-100	0	230	101300000	1000	0	0	-1	400
27509355	7799	724	0	-100	0	230	101300000	1000	0	0	-1	400
27521915	7790	728	0	-100	0	230	101300000	1000	0	0	-1	400
27534475	7791	735	0	-100	0	230	101300000	1000	0	0	-1	400
27547035	7801	729	0	-100	0	230	101300000	1000	0	0	-1	400
27559595	7793	723	0	-100	0	230	101300000	1000	0	0	-1	400
27572155	7785	730	0	-100	0	230	101300000	1000	0	0	-1	400
27584715	7787	733	0	-100	0	230	101300000	1000	0	0	-1	400
27597275	7785	725	0	-100	0	230	101300000	1000	0	0	-1	400
27609835	7775	727	0	-100	0	230	101300000	1000	0	0	-1	400
27622395	7775	732	0	-100	0	230	101300000	1000	0	0	-1	400
27634955	7780	732	0	-100	0	230	101300000	1000	0	0	-1	400
27647515	7796	725	0	-100	0	230	101300000	1000	0	0	-1	400
27660075	7783	725	0	-100	0	230	101300000	1000	0	0	-1	400
27672635	7799	726	0	-100	0	230	101300000	1000	0	0	-1	400
27685195	7806	731	0	-100	0	230	101300000	1000	0	0	-1	400
27697755	7785	726	0	-100	0	230	101300000	1000	0	0	-1	400
27710315	7809	723	0	-100	0	230	101300000	1000	0	0	-1	400
27722875	7795	724	0	-100	0	230	101300000	1000	0	0	-1	400
27735435	7799	728	0	-100	0	230	101300000	1000	0	0	-1	400
27747995	7790	723	0	-100	0	230	101300000	1000	0	0	-1	400
27760555	7790	730	0	-100	0	230	101300000	1000	0	0	-1	400
27773115	7804	726	0	-100	0	230	101300000	1000	0	0	-1	400
27785675	7797	724	0	-100	0	230	101300000	1000	0	0	-1	400
27798235	7778	726	0	-100	0	230	101300000	1000	0	0	-1	400
27810795	7789	734	0	-100	0	230	101300000	1000	0	0	-1	400
27823355	7786	731	0	-100	0	230	101300000	1000	0	0	-1	400
27835915	7798	725	0	-100	0	230	101300000	1000	0	0	-1	400
27848475	7801	720	0	-100	0	230	101300000	1000	0	0	-1	400
27861035	7790	723	0	-100	0	230	101300000	1000	0	0	-1	400
27873595	7790	724	0	-100	0	230	101300000	1000	0	0	-1	400
27886155	7783	726	0	-100	0	230	101300000	1000	0	0	-1	400
27898715	7788	727	0	-100	0	230	101300000	1000	0	0	-1	400
27911275	7787	730	0	-100	0	230	101300000	1000	0	0	-1	400
27923835	7791	732	0	-100	0	230	101300000	1000	0	0	-1	400
27936395	7792	727	0	-100	0	230	101300000	1000	0	0	-1	400
27948955	7793	725	0	-100	0	230	101300000	1000	0	0	-1	400
27961515	7789	725	0	-100	0	230	101300000	1000	0	0	-1	400
27974075	7800	725	0	-100	0	230	101300000	1000	0	0	-1	400
27986635	7818	722	0	-100	0	230	101300000	1000	0	0	-1	400
27999195	7805	723	0	-100	0	230	101300000	1000	0	0	-1	400
28011755	7789	725	0	-100	0	230	101300000	1000	0	0	-1	400
28024315	7790	728	0	-100	0	230	101300000	1000	0	0	-1	400
28036875	7792	732	0	-100	0	230	101300000	1000	0	0	-1	400
28049435	7789	731	0	-100	0	230	101300000	1000	0	0	-1	400
28061995	7784	725	0	-100	0	230	101300000	1000	0	0	-1	400
28074555	7791	727	0	-100	0	230	101300000	1000	0	0	-1	400
28087115	7786	727	0	-100	0	230	101300000	1000	0	0	-1	400
28099675	7808	724	0	-100	0	230	101300000	1000	0	0	-1	400
28112235	7789	725	0	-100	0	230	101300000	1000	0	0	-1	400
28124795	7784	729	0	-100	0	230	101300000	1000	0	0	-1	400
28137355	7788	736	0	-100	0	230	101300000	1000	0	0	-1	400
28149915	7787	729	0	-100	0	230	101300000	1000	0	0	-1	400
28162475	7782	723	0	-100	0	230	101300000	1000	0	0	-1	400
28175035	7792	724	0	-100	0	230	101300000	1000	0	0	-1	400
28187595	7775	732	0	-100	0	230	101300000	1000	0	0	-1	400
28200155	7778	727	0	-100	0	230	101300000	1000	0	0	-1	400
28212715	7798	725	0	-100	0	230	101300000	1000	0	0	-1	400
28225275	7798	726	0	-100	0	230	101300000	1000	0	0	-1	400
28237835	7794	733	0	-100	0	230	101300000	1000	0	0	-1	400
28250395	7789	732	0	-100	0	230	101300000	1000	0	0	-1	400
28262955	7784	727	0	-100	0	230	101300000	1000	0	0	-1	400
28275515	7794	728	0	-100	0	230	101300000	1000	0	0	-1	400
28288075	7786	729	0	-100	0	230	101300000	1000	0	0	-1	400
28300635	7775	734	0	-100	0	230	101300000	1000	0	0	-1	400
28313195	7785	729	0	-100	0	230	101300000	1000	0	0	-1	400
28325755	7792	724	0	-100	0	230	101300000	1000	0	0	-1	400
28338315	7802	724	0	-100	0	230	101300000	1000	0	0	-1	400
28350875	7802	719	0	-100	0	230	101300000	1000	0	0	-1	400
28363435	7787	723	0	-100	0	230	101300000	1000	0	0	-1	400
28375995	7792	728	0	-100	0	230	101300000	1000	0	0	-1	400
28388555	7794	726	0	-100	0	230	101300000	1000	0	0	-1	400
28401115	7796	725	0	-100	0	230	101300000	1000	0	0	-1	400
28413675	7785	731	0	-100	0	230	101300000	1000	0	0	-1	400
28426235	7774	732	0	-100	0	230	101300000	1000	0	0	-1	400
28438795	7782	726	0	-100	0	230	101300000	1000	0	0	-1	400
28451355	7794	728	0	-100	0	230	101300000	1000	0	0	-1	400
28463915	7796	724	0	-100	0	230	101300000	1000	0	0	-1	400
28476475	7787	724	0	-100	0	230	101300000	1000	0	0	-1	400
28489035	7789	727	0	-100	0	230	101300000	1000	0	0	-1	400
28501595	7788	732	0	-100	0	230	101300000	1000	0	0	-1	400
28514155	7788	728	0	-100	0	230	101300000	1000	0	0	-1	400
28526715	7808	724	0	-100	0	230	101300000	1000	0	0	-1	400
28539275	7804	722	0	-100	0	230	101300000	1000	0	0	-1	400
28551835	7773	731	0	-100	0	230	101300000	1000	0	0	-1	400
28564395	7784	732	0	-100	0	230	101300000	1000	0	0	-1	400
28576955	7782	731	0	-100	0	230	101300000	1000	0	0	-1	400
28589515	7778	733	0	-100	0	230	101300000	1000	0	0	-1	400
28602075	7804	728	0	-100	0	230	101300000	1000	0	0	-1	400
28614635	7799	729	0	-100	0	230	101300000	1000	0	0	-1	400
28627195	7791	730	0	-100	0	230	101300000	1000	0	0	-1	400
28639755	7767	730	0	-100	0	230	101300000	1000	0	0	-1	400
28652315	7765	729	0	-100	0	230	101300000	1000	0	0	-1	400
28664875	7790	733	0	-100	0	230	101300000	1000	0	0	-1	400
28677435	7786	729	0	-100	0	230	101300000	1000	0	0	-1	400
28689995	7802	726	0	-100	0	230	101300000	1000	0	0	-1	400
28702555	7794	731	0	-100	0	230	101300000	1000	0	0	-1	400
28715115	7777	734	0	-100	0	230	101300000	1000	0	0	-1	400
28727675	7774	733	0	-100	0	230	101300000	1000	0	0	-1	400
28740235	7789	732	0	-100	0	230	101300000	1000	0	0	-1	400
28752795	7782	732	0	-100	0	230	101300000	1000	0	0	-1	400
28765355	7774	731	0	-100	0	230	101300000	1000	0	0	-1	400
28777915	7782	732	0	-100	0	230	101300000	1000	0	0	-1	400
28790475	7785	732	0	-100	0	230	101300000	1000	0	0	-1	400
28803035	7790	726	0	-100	0	230	101300000	1000	0	0	-1	400
28815595	7772	727	0	-100	0	230	101300000	1000	0	0	-1	400
28828155	7773	731	0	-100	0	230	101300000	1000	0	0	-1	400
28840715	7782	733	0	-100	0	230	101300000	1000	0	0	-1	400
28853275	7770	731	0	-100	0	230	101300000	1000	0	0	-1	400
28865835	7780	732	0	-100	0	230	101300000	1000	0	0	-1	400
28878395	7778	729	0	-100	0	230	101300000	1000	0	0	-1	400
28890955	7804	731	0	-100	0	230	101300000	1000	0	0	-1	400
28903515	7809	732	0	-100	0	230	101300000	1000	0	0	-1	400
28916075	7794	733	0	-100	0	230	101300000	1000	0	0	-1	400
28928635	7808	731	0	-100	0	230	101300000	1000	0	0	-1	400
28941195	7803	728	0	-100	0	230	101300000	1000	0	0	-1	400
28953755	7802	725	0	-100	0	230	101300000	1000	0	0	-1	400
28966315	7793	725	0	-100	0	230	101300000	1000	0	0	-1	400
28978875	7782	727	0	-100	0	230	101300000	1000	0	0	-1	400
28991435	7792	722	0	-100	0	230	101300000	1000	0	0	-1	400
29003995	7807	724	0	-100	0	230	101300000	1000	0	0	-1	400
29016555	7804	728	0	-100	0	230	101300000	1000	0	0	-1	400
29029115	7804	728	0	-100	0	230	101300000	1000	0	0	-1	400
29041675	7801	732	0	-100	0	230	101300000	1000	0	0	-1	400
29054235	7792	733	0	-100	0	230	101300000	1000	0	0	-1	400
29066795	7785	730	0	-100	0	230	101300000	1000	0	0	-1	400
29079355	7788	729	0	-100	0	230	101300000	1000	0	0	-1	400
29091915	7811	726	0	-100	0	230	101300000	1000	0	0	-1	400
29104475	7813	725	0	-100	0	230	101300000	1000	0	0	-1	400
29117035	7812	723	0	-100	0	230	101300000	1000	0	0	-1	400
29129595	7793	726	0	-100	0	230	101300000	1000	0	0	-1	400
29142155	7788	726	0	-100	0	230	101300000	1000	0	0	-1	400
29154715	7806	724	0	-100	0	230	101300000	1000	0	0	-1	400
29167275	7802	727	0	-100	0	230	101300000	1000	0	0	-1	400
29179835	7805	735	0	-100	0	230	101300000	1000	0	0	-1	400
29192395	7799	734	0	-100	0	230	101300000	1000	0	0	-1	400
29204955	7809	725	0	-100	0	230	101300000	1000	0	0	-1	400
29217515	7817	720	0	-100	0	230	101300000	1000	0	0	-1	400
29230075	7798	724	0	-100	0	230	101300000	1000	0	0	-1	400
29242635	7802	725	0	-100	0	230	101300000	1000	0	0	-1	400
29255195	7816	725	0	-100	0	230	101300000	1000	0	0	-1	400
29267755	7821	730	0	-100	0	230	101300000	1000	0	0	-1	400
29280315	7801	734	0	-100	0	230	101300000	1000	0	0	-1	400
29292875	7794	729	0	-100	0	230	101300000	1000	0	0	-1	400
29305435	7795	724	0	-100	0	230	101300000	1000	0	0	-1	400
29317995	7802	726	0	-100	0	230	101300000	1000	0	0	-1	400
29330555	7809	722	0	-100	0	230	101300000	1000	0	0	-1	400
29343115	7811	733	0	-100	0	230	101300000	1000	0	0	-1	400
29355675	7829	728	0	-100	0	230	101300000	1000	0	0	-1	400
29368235	7814	723	0	-100	0	230	101300000	1000	0	0	-1	400
29380795	7811	726	0	-100	0	230	101300000	1000	0	0	-1	400
29393355	7827	724	0	-100	0	230	101300000	1000	0	0	-1	400
29405915	7814	729	0	-100	0	230	101300000	1000	0	0	-1	400
29418475	7814	732	0	-100	0	230	101300000	1000	0	0	-1	400
29431035	7809	727	0	-100	0	230	101300000	1000	0	0	-1	400
29443595	7818	722	0	-100	0	230	101300000	1000	0	0	-1	400
29456155	7814	724	0	-100	0	230	101300000	1000	0	0	-1	400
29468715	7814	724	0	-100	0	230	101300000	1000	0	0	-1	400
29481275	7833	723	0	-100	0	230	101300000	1000	0	0	-1	400
29493835	7823	729	0	-100	0	230	101300000	1000	0	0	-1	400
29506395	7816	731	0	-100	0	230	101300000	1000	0	0	-1	400
29518955	7811	730	0	-100	0	230	101300000	1000	0	0	-1	400
29531515	7818	724	0	-100	0	230	101300000	1000	0	0	-1	400
29544075	7809	724	0	-100	0	230	101300000	1000	0	0	-1	400
29556635	7806	724	0	-100	0	230	101300000	1000	0	0	-1	400
29569195	7813	723	0	-100	0	230	101300000	1000	0	0	-1	400
29581755	7812	727	0	-100	0	230	101300000	1000	0	0	-1	400
29594315	7808	735	0	-100	0	230	101300000	1000	0	0	-1	400
29606875	7796	730	0	-100	0	230	101300000	1000	0	0	-1	400
29619435	7821	727	0	-100	0	230	101300000	1000	0	0	-1	400
29631995	7828	730	0	-100	0	230	101300000	1000	0	0	-1	400
29644555	7826	725	0	-100	0	230	101300000	1000	0	0	-1	400
29657115	7823	724	0	-100	0	230	101300000	1000	0	0	-1	400
29669675	7818	722	0	-100	0	230	101300000	1000	0	0	-1	400
29682235	7816	725	0	-100	0	230	101300000	1000	0	0	-1	400
29694795	7805	722	0	-100	0	230	101300000	1000	0	0	-1	400
29707355	7819	724	0	-100	0	230	101300000	1000	0	0	-1	400
29719915	7819	724	0	-100	0	230	101300000	1000	0	0	-1	400
29732475	7826	722	0	-100	0	230	101300000	1000	0	0	-1	400
29745035	7824	727	0	-100	0	230	101300000	1000	0	0	-1	400
29757595	7829	724	0	-100	0	230	101300000	1000	0	0	-1	400
29770155	7812	728	0	-100	0	230	101300000	1000	0	0	-1	400
29782715	7817	729	0	-100	0	230	101300000	1000	0	0	-1	400
29795275	7815	731	0	-100	0	230	101300000	1000	0	0	-1	400
29807835	7811	728	0	-100	0	230	101300000	1000	0	0	-1	400
29820395	7821	730	0	-100	0	230	101300000	1000	0	0	-1	400
29832955	7814	733	0	-100	0	230	101300000	1000	0	0	-1	400
29845515	7821	729	0	-100	0	230	101300000	1000	0	0	-1	400
29858075	7816	728	0	-100	0	230	101300000	1000	0	0	-1	400
29870635	7820	723	0	-100	0	230	101300000	1000	0	0	-1	400
29883195	7812	725	0	-100	0	230	101300000	1000	0	0	-1	400
29895755	7824	727	0	-100	0	230	101300000	1000	0	0	-1	400
29908315	7800	726	0	-100	0	230	101300000	1000	0	0	-1	400
29920875	7821	724	0	-100	0	230	101300000	1000	0	0	-1	400
29933435	7822	724	0	-100	0	230	101300000	1000	0	0	-1	400
29945995	7804	723	0	-100	0	230	101300000	1000	0	0	-1	400
29958555	7804	728	0	-100	0	230	101300000	1000	0	0	-1	400
29971115	7808	734	0	-100	0	230	101300000	1000	0	0	-1	400
29983675	7797	729	0	-100	0	230	101300000	1000	0	0	-1	400
29996235	7823	725	0	-100	0	230	101300000	1000	0	0	-1	400
30008795	7831	720	0	-100	0	230	101300000	1000	0	0	-1	400
30021355	7800	723	0	-100	0	230	101300000	1000	0	0	-1	400
30033915	7811	722	0	-100	0	230	101300000	1000	0	0	-1	400
30046475	7801	725	0	-100	0	230	101300000	1000	0	0	-1	400
30059035	7794	730	0	-100	0	230	101300000	1000	0	0	-1	400
30071595	7795	730	0	-100	0	230	101300000	1000	0	0	-1	400
30084155	7795	732	0	-100	0	230	101300000	1000	0	0	-1	400
30096715	7807	728	0	-100	0	230	101300000	1000	0	0	-1	400
30109275	7797	729	0	-100	0	230	101300000	1000	0	0	-1	400
30121835	7807	732	0	-100	0	230	101300000	1000	0	0	-1	400
30134395	7809	730	0	-100	0	230	101300000	1000	0	0	-1	400
30146955	7811	723	0	-100	0	230	101300000	1000	0	0	-1	400
30159515	7814	723	0	-100	0	230	101300000	1000	0	0	-1	400
30172075	7805	724	0	-100	0	230	101300000	1000	0	0	-1	400
30184635	7807	728	0	-100	0	230	101300000	1000	0	0	-1	400
30197195	7797	729	0	-100	0	230	101300000	1000	0	0	-1	400
30209755	7789	730	0	-100	0	230	101300000	1000	0	0	-1	400
30222315	7797	729	0	-100	0	230	101300000	1000	0	0	-1	400
30234875	7807	725	0	-100	0	230	101300000	1000	0	0	-1	400
30247435	7817	723	0	-100	0	230	101300000	1000	0	0	-1	400
30259995	7819	720	0	-100	0	230	101300000	1000	0	0	-1	400
30272555	7816	729	0	-100	0	230	101300000	1000	0	0	-1	400
30285115	7812	727	0	-100	0	230	101300000	1000	0	0	-1	400
30297675	7801	733	0	-100	0	230	101300000	1000	0	0	-1	400
30310235	7811	725	0	-100	0	230	101300000	1000	0	0	-1	400
30322795	7824	722	0	-100	0	230	101300000	1000	0	0	-1	400
30335355	7814	726	0	-100	0	230	101300000	1000	0	0	-1	400
30347915	7807	729	0	-100	0	230	101300000	1000	0	0	-1	400
30360475	7811	733	0	-100	0	230	101300000	1000	0	0	-1	400
30373035	7806	733	0	-100	0	230	101300000	1000	0	0	-1	400
30385595	7808	734	0	-100	0	230	101300000	1000	0	0	-1	400
30398155	7795	735	0	-100	0	230	101300000	1000	0	0	-1	400
30410715	7789	729	0	-100	0	230	101300000	1000	0	0	-1	400
30423275	7792	729	0	-100	0	230	101300000	1000	0	0	-1	400
30435835	7821	726	0	-100	0	230	101300000	1000	0	0	-1	400
30448395	7816	728	0	-100	0	230	101300000	1000	0	0	-1	400
30460955	7809	730	0	-100	0	230	101300000	1000	0	0	-1	400
30473515	7807	730	0	-100	0	230	101300000	1000	0	0	-1	400
30486075	7820	729	0	-100	0	230	101300000	1000	0	0	-1	400
30498635	7818	725	0	-100	0	230	101300000	1000	0	0	-1	400
30511195	7821	724	0	-100	0	230	101300000	1000	0	0	-1	400
30523755	7807	724	0	-100	0	230	101300000	1000	0	0	-1	400
30536315	7802	729	0	-100	0	230	101300000	1000	0	0	-1	400
30548875	7801	735	0	-100	0	230	101300000	1000	0	0	-1	400
30561435	7799	731	0	-100	0	230	101300000	1000	0	0	-1	400
30573995	7824	728	0	-100	0	230	101300000	1000	0	0	-1	400
30586555	7807	732	0	-100	0	230	101300000	1000	0	0	-1	400
30599115	7802	729	0	-100	0	230	101300000	1000	0	0	-1	400
30611675	7835	721	0	-100	0	230	101300000	1000	0	0	-1	400
30624235	7821	726	0	-100	0	230	101300000	1000	0	0	-1	400
30636795	7817	730	0	-100	0	230	101300000	1000	0	0	-1	400
30649355	7800	724	0	-100	0	230	101300000	1000	0	0	-1	400
30661915	7816	725	0	-100	0	230	101300000	1000	0	0	-1	400
30674475	7812	733	0	-100	0	230	101300000	1000	0	0	-1	400
30687035	7818	728	0	-100	0	230	101300000	1000	0	0	-1	400
30699595	7814	725	0	-100	0	230	101300000	1000	0	0	-1	400
30712155	7790	731	0	-100	0	230	101300000	1000	0	0	-1	400
30724715	7811	733	0	-100	0	230	101300000	1000	0	0	-1	400
30737275	7831	725	0	-100	0	230	101300000	1000	0	0	-1	400
30749835	7792	723	0	-100	0	230	101300000	1000	0	0	-1	400
30762395	7795	731	0	-100	0	230	101300000	1000	0	0	-1	400
30774955	7807	725	0	-100	0	230	101300000	1000	0	0	-1	400
30787515	7807	724	0	-100	0	230	101300000	1000	0	0	-1	400
30800075	7795	727	0	-100	0	230	101300000	1000	0	0	-1	400
30812635	7808	730	0	-100	0	230	101300000	1000	0	0	-1	400
30825195	7826	724	0	-100	0	230	101300000	1000	0	0	-1	400
30837755	7816	729	0	-100	0	230	101300000	1000	0	0	-1	400
30850315	7801	729	0	-100	0	230	101300000	1000	0	0	-1	400
30862875	7809	723	0	-100	0	230	101300000	1000	0	0	-1	400
30875435	7797	731	0	-100	0	230	101300000	1000	0	0	-1	400
30887995	7785	730	0	-100	0	230	101300000	1000	0	0	-1	400
30900555	7811	726	0	-100	0	230	101300000	1000	0	0	-1	400
30913115	7814	725	0	-100	0	230	101300000	1000	0	0	-1	400
30925675	7802	731	0	-100	0	230	101300000	1000	0	0	-1	400
30938235	7801	729	0	-100	0	230	101300000	1000	0	0	-1	400
30950795	7819	723	0	-100	0	230	101300000	1000	0	0	-1	400
30963355	7814	734	0	-100	0	230	101300000	1000	0	0	-1	400
30975915	7816	725	0	-100	0	230	101300000	1000	0	0	-1	400
30988475	7819	725	0	-100	0	230	101300000	1000	0	0	-1	400
31001035	7819	729	0	-100	0	230	101300000	1000	0	0	-1	400
31013595	7806	729	0	-100	0	230	101300000	1000	0	0	-1	400
31026155	7824	724	0	-100	0	230	101300000	1000	0	0	-1	400
31038715	7802	723	0	-100	0	230	101300000	1000	0	0	-1	400
31051275	7824	725	0	-100	0	230	101300000	1000	0	0	-1	400
31063835	7819	721	0	-100	0	230	101300000	1000	0	0	-1	400
31076395	7827	724	0	-100	0	230	101300000	1000	0	0	-1	400
31088955	7798	724	0	-100	0	230	101300000	1000	0	0	-1	400
31101515	7816	725	0	-100	0	230	101300000	1000	0	0	-1	400
31114075	7813	728	0	-100	0	230	101300000	1000	0	0	-1	400
31126635	7798	732	0	-100	0	230	101300000	1000	0	0	-1	400
31139195	7814	731	0	-100	0	230	101300000	1000	0	0	-1	400
31151755	7807	727	0	-100	0	230	101300000	1000	0	0	-1	400
31164315	7809	724	0	-100	0	230	101300000	1000	0	0	-1	400
31176875	7814	725	0	-100	0	230	101300000	1000	0	0	-1	400
31189435	7811	729	0	-100	0	230	101300000	1000	0	0	-1	400
31201995	7808	728	0	-100	0	230	101300000	1000	0	0	-1	400
31214555	7818	730	0	-100	0	230	101300000	1000	0	0	-1	400
31227115	7807	726	0	-100	0	230	101300000	1000	0	0	-1	400
31239675	7797	725	0	-100	0	230	101300000	1000	0	0	-1	400
31252235	7804	727	0	-100	0	230	101300000	1000	0	0	-1	400
31264795	7821	732	0	-100	0	230	101300000	1000	0	0	-1	400
31277355	7824	733	0	-100	0	230	101300000	1000	0	0	-1	400
31289915	7828	725	0	-100	0	230	101300000	1000	0	0	-1	400
31302475	7823	723	0	-100	0	230	101300000	1000	0	0	-1	400
31315035	7829	723	0	-100	0	230	101300000	1000	0	0	-1	400
31327595	7828	730	0	-100	0	230	101300000	1000	0	0	-1	400
31340155	7798	735	0	-100	0	230	101300000	1000	0	0	-1	400
31352715	7817	733	0	-100	0	230	101300000	1000	0	0	-1	400
31365275	7810	728	0	-100	0	230	101300000	1000	0	0	-1	400
31377835	7811	727	0	-100	0	230	101300000	1000	0	0	-1	400
31390395	7805	723	0	-100	0	230	101300000	1000	0	0	-1	400
31402955	7815	725	0	-100	0	230	101300000	1000	0	0	-1	400
31415515	7818	725	0	-100	0	230	101300000	1000	0	0	-1	400
31428075	7813	725	0	-100	0	230	101300000	1000	0	0	-1	400
31440635	7811	731	0	-100	0	230	101300000	1000	0	0	-1	400
31453195	7821	726	0	-100	0	230	101300000	1000	0	0	-1	400
31465755	7800	727	0	-100	0	230	101300000	1000	0	0	-1	400
31478315	7810	723	0	-100	0	230	101300000	1000	0	0	-1	400
31490875	7811	729	0	-100	0	230	101300000	1000	0	0	-1	400
31503435	7799	736	0	-100	0	230	101300000	1000	0	0	-1	400
31515995	7804	726	0	-100	0	230	101300000	1000	0	0	-1	400
31528555	7798	725	0	-100	0	230	101300000	1000	0	0	-1	400
31541115	7809	726	0	-100	0	230	101300000	1000	0	0	-1	400
31553675	7824	728	0	-100	0	230	101300000	1000	0	0	-1	400
31566235	7814	732	0	-100	0	230	101300000	1000	0	0	-1	400
31578795	7818	730	0	-100	0	230	101300000	1000	0	0	-1	400
31591355	7828	724	0	-100	0	230	101300000	1000	0	0	-1	400
31603915	7836	723	0	-100	0	230	101300000	1000	0	0	-1	400
31616475	7826	721	0	-100	0	230	101300000	1000	0	0	-1	400
31629035	7823	728	0	-100	0	230	101300000	1000	0	0	-1	400
31641595	7809	733	0	-100	0	230	101300000	1000	0	0	-1	400
31654155	7805	726	0	-100	0	230	101300000	1000	0	0	-1	400
31666715	7829	723	0	-100	0	230	101300000	1000	0	0	-1	400
31679275	7833	724	0	-100	0	230	101300000	1000	0	0	-1	400
31691835	7821	726	0	-100	0	230	101300000	1000	0	0	-1	400
31704395	7816	726	0	-100	0	230	101300000	1000	0	0	-1	400
31716955	7818	730	0	-100	0	230	101300000	1000	0	0	-1	400
31729515	7809	727	0	-100	0	230	101300000	1000	0	0	-1	400
31742075	7816	725	0	-100	0	230	101300000	1000	0	0	-1	400
31754635	7807	728	0	-100	0	230	101300000	1000	0	0	-1	400
31767195	7809	725	0	-100	0	230	101300000	1000	0	0	-1	400
31779755	7818	726	0	-100	0	230	101300000	1000	0	0	-1	400
31792315	7816	725	0	-100	0	230	101300000	1000	0	0	-1	400
31804875	7794	731	0	-100	0	230	101300000	1000	0	0	-1	400
31817435	7797	735	0	-100	0	230	101300000	1000	0	0	-1	400
31829995	7811	726	0	-100	0	230	101300000	1000	0	0	-1	400
31842555	7817	731	0	-100	0	230	101300000	1000	0	0	-1	400
31855115	7807	725	0	-100	0	230	101300000	1000	0	0	-1	400
31867675	7812	727	0	-100	0	230	101300000	1000	0	0	-1	400
31880235	7806	725	0	-100	0	230	101300000	1000	0	0	-1	400
31892795	7806	727	0	-100	0	230	101300000	1000	0	0	-1	400
31905355	7807	727	0	-100	0	230	101300000	1000	0	0	-1	400
31917915	7807	725	0	-100	0	230	101300000	1000	0	0	-1	400
31930475	7811	727	0	-100	0	230	101300000	1000	0	0	-1	400
31943035	7799	730	0	-100	0	230	101300000	1000	0	0	-1	400
31955595	7811	737	0	-100	0	230	101300000	1000	0	0	-1	400
31968155	7809	730	0	-100	0	230	101300000	1000	0	0	-1	400
31980715	7805	730	0	-100	0	230	101300000	1000	0	0	-1	400
31993275	7799	734	0	-100	0	230	101300000	1000	0	0	-1	400
32005835	7802	735	0	-100	0	230	101300000	1000	0	0	-1	400
32018395	7809	733	0	-100	0	230	101300000	1000	0	0	-1	400
32030955	7800	730	0	-100	0	230	101300000	1000	0	0	-1	400
32043515	7814	729	0	-100	0	230	101300000	1000	0	0	-1	400
32056075	7816	733	0	-100	0	230	101300000	1000	0	0	-1	400
32068635	7826	727	0	-100	0	230	101300000	1000	0	0	-1	400
32081195	7802	728	0	-100	0	230	101300000	1000	0	0	-1	400
32093755	7825	726	0	-100	0	230	101300000	1000	0	0	-1	400
32106315	7817	723	0	-100	0	230	101300000	1000	0	0	-1	400
32118875	7835	721	0	-100	0	230	101300000	1000	0	0	-1	400
32131435	7823	725	0	-100	0	230	101300000	1000	0	0	-1	400
32143995	7812	730	0	-100	0	230	101300000	1000	0	0	-1	400
32156555	7809	729	0	-100	0	230	101300000	1000	0	0	-1	400
32169115	7797	725	0	-100	0	230	101300000	1000	0	0	-1	400
32181675	7806	725	0	-100	0	230	101300000	1000	0	0	-1	400
32194235	7825	726	0	-100	0	230	101300000	1000	0	0	-1	400
32206795	7846	722	0	-100	0	230	101300000	1000	0	0	-1	400
32219355	7841	722	0	-100	0	230	101300000	1000	0	0	-1	400
32231915	7833	721	0	-100	0	230	101300000	1000	0	0	-1	400
32244475	7828	725	0	-100	0	230	101300000	1000	0	0	-1	400
32257035	7830	726	0	-100	0	230	101300000	1000	0	0	-1	400
32269595	7821	728	0	-100	0	230	101300000	1000	0	0	-1	400
32282155	7812	732	0	-100	0	230	101300000	1000	0	0	-1	400
32294715	7821	729	0	-100	0	230	101300000	1000	0	0	-1	400
32307275	7813	731	0	-100	0	230	101300000	1000	0	0	-1	400
32319835	7808	733	0	-100	0	230	101300000	1000	0	0	-1	400
32332395	7806	735	0	-100	0	230	101300000	1000	0	0	-1	400
32344955	7809	734	0	-100	0	230	101300000	1000	0	0	-1	400
32357515	7804	734	0	-100	0	230	101300000	1000	0	0	-1	400
32370075	7804	731	0	-100	0	230	101300000	1000	0	0	-1	400
32382635	7825	730	0	-100	0	230	101300000	1000	0	0	-1	400
32395195	7814	729	0	-100	0	230	101300000	1000	0	0	-1	400
32407755	7816	731	0	-100	0	230	101300000	1000	0	0	-1	400
32420315	7827	728	0	-100	0	230	101300000	1000	0	0	-1	400
32432875	7814	725	0	-100	0	230	101300000	1000	0	0	-1	400
32445435	7826	724	0	-100	0	230	101300000	1000	0	0	-1	400
32457995	7812	725	0	-100	0	230	101300000	1000	0	0	-1	400
32470555	7821	726	0	-100	0	230	101300000	1000	0	0	-1	400
32483115	7812	723	0	-100	0	230	101300000	1000	0	0	-1	400
32495675	7826	725	0	-100	0	230	101300000	1000	0	0	-1	400
32508235	7808	727	0	-100	0	230	101300000	1000	0	0	-1	400
32520795	7815	729	0	-100	0	230	101300000	1000	0	0	-1	400
32533355	7804	729	0	-100	0	230	101300000	1000	0	0	-1	400
32545915	7804	732	0	-100	0	230	101300000	1000	0	0	-1	400
32558475	7811	732	0	-100	0	230	101300000	1000	0	0	-1	400
32571035	7809	731	0	-100	0	230	101300000	1000	0	0	-1	400
32583595	7815	731	0	-100	0	230	101300000	1000	0	0	-1	400
32596155	7802	734	0	-100	0	230	101300000	1000	0	0	-1	400
32608715	7813	731	0	-100	0	230	101300000	1000	0	0	-1	400
32621275	7814	734	0	-100	0	230	101300000	1000	0	0	-1	400
32633835	7809	729	0	-100	0	230	101300000	1000	0	0	-1	400
32646395	7809	724	0	-100	0	230	101300000	1000	0	0	-1	400
32658955	7824	724	0	-100	0	230	101300000	1000	0	0	-1	400
32671515	7821	723	0	-100	0	230	101300000	1000	0	0	-1	400
32684075	7818	727	0	-100	0	230	101300000	1000	0	0	-1	400
32696635	7809	731	0	-100	0	230	101300000	1000	0	0	-1	400
32709195	7811	734	0	-100	0	230	101300000	1000	0	0	-1	400
32721755	7826	725	0	-100	0	230	101300000	1000	0	0	-1	400
32734315	7828	727	0	-100	0	230	101300000	1000	0	0	-1	400
32746875	7828	724	0	-100	0	230	101300000	1000	0	0	-1	400
32759435	7818	725	0	-100	0	230	101300000	1000	0	0	-1	400
32771995	7825	729	0	-100	0	230	101300000	1000	0	0	-1	400
32784555	7811	737	0	-100	0	230	101300000	1000	0	0	-1	400
32797115	7830	726	0	-100	0	230	101300000	1000	0	0	-1	400
32809675	7821	722	0	-100	0	230	101300000	1000	0	0	-1	400
32822235	7798	722	0	-100	0	230	101300000	1000	0	0	-1	400
32834795	7806	729	0	-100	0	230	101300000	1000	0	0	-1	400
32847355	7816	726	0	-100	0	230	101300000	1000	0	0	-1	400
32859915	7825	727	0	-100	0	230	101300000	1000	0	0	-1	400
32872475	7828	729	0	-100	0	230	101300000	1000	0	0	-1	400
32885035	7806	725	0	-100	0	230	101300000	1000	0	0	-1	400
32897595	7814	726	0	-100	0	230	101300000	1000	0	0	-1	400
32910155	7793	724	0	-100	0	230	101300000	1000	0	0	-1	400
32922715	7820	727	0	-100	0	230	101300000	1000	0	0	-1	400
32935275	7813	730	0	-100	0	230	101300000	1000	0	0	-1	400
32947835	7816	727	0	-100	0	230	101300000	1000	0	0	-1	400
32960395	7821	723	0	-100	0	230	101300000	1000	0	0	-1	400
32972955	7817	727	0	-100	0	230	101300000	1000	0	0	-1	400
32985515	7804	729	0	-100	0	230	101300000	1000	0	0	-1	400
32998075	7794	733	0	-100	0	230	101300000	1000	0	0	-1	400
33010635	7826	729	0	-100	0	230	101300000	1000	0	0	-1	400
33023195	7831	722	0	-100	0	230	101300000	1000	0	0	-1	400
33035755	7809	720	0	-100	0	230	101300000	1000	0	0	-1	400
33048315	7818	732	0	-100	0	230	101300000	1000	0	0	-1	400
33060875	7803	735	0	-100	0	230	101300000	1000	0	0	-1	400
33073435	7807	729	0	-100	0	230	101300000	1000	0	0	-1	400
33085995	7824	725	0	-100	0	230	101300000	1000	0	0	-1	400
33098555	7815	722	0	-100	0	230	101300000	1000	0	0	-1	400
33111115	7812	725	0	-100	0	230	101300000	1000	0	0	-1	400
33123675	7818	729	0	-100	0	230	101300000	1000	0	0	-1	400
33136235	7820	730	0	-100	0	230	101300000	1000	0	0	-1	400
33148795	7821	722	0	-100	0	230	101300000	1000	0	0	-1	400
33161355	7826	724	0	-100	0	230	101300000	1000	0	0	-1	400
33173915	7817	726	0	-100	0	230	101300000	1000	0	0	-1	400
33186475	7821	728	0	-100	0	230	101300000	1000	0	0	-1	400
33199035	7818	733	0	-100	0	230	101300000	1000	0	0	-1	400
33211595	7812	728	0	-100	0	230	101300000	1000	0	0	-1	400
33224155	7818	726	0	-100	0	230	101300000	1000	0	0	-1	400
33236715	7831	723	0	-100	0	230	101300000	1000	0	0	-1	400
33249275	7827	723	0	-100	0	230	101300000	1000	0	0	-1	400
33261835	7818	726	0	-100	0	230	101300000	1000	0	0	-1	400
33274395	7828	728	0	-100	0	230	101300000	1000	0	0	-1	400
33286955	7814	729	0	-100	0	230	101300000	1000	0	0	-1	400
33299515	7831	730	0	-100	0	230	101300000	1000	0	0	-1	400
33312075	7826	726	0	-100	0	230	101300000	1000	0	0	-1	400
33324635	7831	723	0	-100	0	230	101300000	1000	0	0	-1	400
33337195	7828	724	0	-100	0	230	101300000	1000	0	0	-1	400
33349755	7826	727	0	-100	0	230	101300000	1000	0	0	-1	400
33362315	7821	730	0	-100	0	230	101300000	1000	0	0	-1	400
33374875	7816	728	0	-100	0	230	101300000	1000	0	0	-1	400
33387435	7831	725	0	-100	0	230	101300000	1000	0	0	-1	400
33399995	7817	732	0	-100	0	230	101300000	1000	0	0	-1	400
33412555	7818	730	0	-100	0	230	101300000	1000	0	0	-1	400
33425115	7813	730	0	-100	0	230	101300000	1000	0	0	-1	400
33437675	7807	733	0	-100	0	230	101300000	1000	0	0	-1	400
33450235	7809	728	0	-100	0	230	101300000	1000	0	0	-1	400
33462795	7818	722	0	-100	0	230	101300000	1000	0	0	-1	400
33475355	7831	724	0	-100	0	230	101300000	1000	0	0	-1	400
33487915	7816	727	0	-100	0	230	101300000	1000	0	0	-1	400
33500475	7826	729	0	-100	0	230	101300000	1000	0	0	-1	400
33513035	7823	729	0	-100	0	230	101300000	1000	0	0	-1	400
33525595	7809	730	0	-100	0	230	101300000	1000	0	0	-1	400
33538155	7798	731	0	-100	0	230	101300000	1000	0	0	-1	400
33550715	7815	728	0	-100	0	230	101300000	1000	0	0	-1	400
33563275	7812	724	0	-100	0	230	101300000	1000	0	0	-1	400
33575835	7818	726	0	-100	0	230	101300000	1000	0	0	-1	400
33588395	7821	724	0	-100	0	230	101300000	1000	0	0	-1	400
33600955	7805	726	0	-100	0	230	101300000	1000	0	0	-1	400
33613515	7842	722	0	-100	0	230	101300000	1000	0	0	-1	400
33626075	7845	724	0	-100	0	230	101300000	1000	0	0	-1	400
33638635	7833	724	0	-100	0	230	101300000	1000	0	0	-1	400
33651195	7807	724	0	-100	0	230	101300000	1000	0	0	-1	400
33663755	7818	726	0	-100	0	230	101300000	1000	0	0	-1	400
33676315	7831	724	0	-100	0	230	101300000	1000	0	0	-1	400
33688875	7815	723	0	-100	0	230	101300000	1000	0	0	-1	400
33701435	7820	725	0	-100	0	230	101300000	1000	0	0	-1	400
33713995	7838	732	0	-100	0	230	101300000	1000	0	0	-1	400
33726555	7843	725	0	-100	0	230	101300000	1000	0	0	-1	400
33739115	7820	726	0	-100	0	230	101300000	1000	0	0	-1	400
33751675	7818	729	0	-100	0	230	101300000	1000	0	0	-1	400
33764235	7816	732	0	-100	0	230	101300000	1000	0	0	-1	400
33776795	7804	732	0	-100	0	230	101300000	1000	0	0	-1	400
33789355	7821	728	0	-100	0	230	101300000	1000	0	0	-1	400
33801915	7825	726	0	-100	0	230	101300000	1000	0	0	-1	400
