timestamp	voltage	current	windSpeed	pitchAngle	rpm	temperature	ambientPressure	humidity	accelerationX	accelerationY	accelerationZ	currentSink
7038070	5013	0	0	-100	0	230	101300000	1000	0	0	-1	0
7045523	5008	0	0	-100	0	230	101300000	1000	0	0	-1	0
7058083	5015	0	0	-100	0	230	101300000	1000	0	0	-1	0
7070643	5006	2	0	-100	0	230	101300000	1000	0	0	-1	0
7083203	5013	0	0	-100	0	230	101300000	1000	0	0	-1	0
7095763	5005	3	0	-100	0	230	101300000	1000	0	0	-1	0
7108323	5007	0	0	-100	0	230	101300000	1000	0	0	-1	0
7120883	5013	0	0	-100	0	230	101300000	1000	0	0	-1	0
7133443	5008	4	0	-100	0	230	101300000	1000	0	0	-1	0
7146004	5008	0	0	-100	0	230	101300000	1000	0	0	-1	0
7158563	5011	3	0	-100	0	230	101300000	1000	0	0	-1	0
7171123	5012	0	0	-100	0	230	101300000	1000	0	0	-1	0
7183683	5008	1	0	-100	0	230	101300000	1000	0	0	-1	0
7196243	5009	0	0	-100	0	230	101300000	1000	0	0	-1	0
7208803	5015	0	0	-100	0	230	101300000	1000	0	0	-1	0
7221363	5010	0	0	-100	0	230	101300000	1000	0	0	-1	0
7233923	5008	0	0	-100	0	230	101300000	1000	0	0	-1	0
7246483	5007	0	0	-100	0	230	101300000	1000	0	0	-1	0
7259043	5012	0	0	-100	0	230	101300000	1000	0	0	-1	0
7271603	5012	0	0	-100	0	230	101300000	1000	0	0	-1	0
7284163	5011	0	0	-100	0	230	101300000	1000	0	0	-1	0
7296723	5006	3	0	-100	0	230	101300000	1000	0	0	-1	0
7309283	5011	0	0	-100	0	230	101300000	1000	0	0	-1	0
7321843	5012	0	0	-100	0	230	101300000	1000	0	0	-1	0
7334403	5008	0	0	-100	0	230	101300000	1000	0	0	-1	0
7346963	5016	0	0	-100	0	230	101300000	1000	0	0	-1	0
7692675	9501	877	0	-100	0	230	101300000	1000	0	0	-1	450
7705235	9494	871	0	-100	0	230	101300000	1000	0	0	-1	450
7717795	9474	876	0	-100	0	230	101300000	1000	0	0	-1	450
7730355	9493	870	0	-100	0	230	101300000	1000	0	0	-1	450
7742915	9474	870	0	-100	0	230	101300000	1000	0	0	-1	450
7755475	9464	877	0	-100	0	230	101300000	1000	0	0	-1	450
7768035	9462	866	0	-100	0	230	101300000	1000	0	0	-1	450
7780595	9416	874	0	-100	0	230	101300000	1000	0	0	-1	450
7793155	9443	867	0	-100	0	230	101300000	1000	0	0	-1	450
7805715	9479	871	0	-100	0	230	101300000	1000	0	0	-1	450
7818275	9518	883	0	-100	0	230	101300000	1000	0	0	-1	450
7830835	9491	871	0	-100	0	230	101300000	1000	0	0	-1	450
7843395	9530	881	0	-100	0	230	101300000	1000	0	0	-1	450
7855955	9492	870	0	-100	0	230	101300000	1000	0	0	-1	450
7868515	9463	872	0	-100	0	230	101300000	1000	0	0	-1	450
7881075	9464	873	0	-100	0	230	101300000	1000	0	0	-1	450
7893635	9467	870	0	-100	0	230	101300000	1000	0	0	-1	450
7906195	9469	876	0	-100	0	230	101300000	1000	0	0	-1	450
7918755	9426	866	0	-100	0	230	101300000	1000	0	0	-1	450
7931315	9413	874	0	-100	0	230	101300000	1000	0	0	-1	450
7943875	9441	869	0	-100	0	230	101300000	1000	0	0	-1	450
7956435	9443	867	0	-100	0	230	101300000	1000	0	0	-1	450
7968995	9438	872	0	-100	0	230	101300000	1000	0	0	-1	450
7981555	9468	870	0	-100	0	230	101300000	1000	0	0	-1	450
7994115	9453	877	0	-100	0	230	101300000	1000	0	0	-1	450
8006675	9440	868	0	-100	0	230	101300000	1000	0	0	-1	450
8019235	9428	872	0	-100	0	230	101300000	1000	0	0	-1	450
8031795	9436	872	0	-100	0	230	101300000	1000	0	0	-1	450
8044355	9436	874	0	-100	0	230	101300000	1000	0	0	-1	450
8056915	9443	872	0	-100	0	230	101300000	1000	0	0	-1	450
8069475	9445	876	0	-100	0	230	101300000	1000	0	0	-1	450
8082035	9465	874	0	-100	0	230	101300000	1000	0	0	-1	450
8094595	9443	882	0	-100	0	230	101300000	1000	0	0	-1	450
8107155	9436	866	0	-100	0	230	101300000	1000	0	0	-1	450
8119715	9460	880	0	-100	0	230	101300000	1000	0	0	-1	450
8132275	9423	868	0	-100	0	230	101300000	1000	0	0	-1	450
8144835	9428	877	0	-100	0	230	101300000	1000	0	0	-1	450
8157395	9445	872	0	-100	0	230	101300000	1000	0	0	-1	450
8169955	9424	875	0	-100	0	230	101300000	1000	0	0	-1	450
8182515	9455	873	0	-100	0	230	101300000	1000	0	0	-1	450
8195075	9467	879	0	-100	0	230	101300000	1000	0	0	-1	450
8207635	9438	871	0	-100	0	230	101300000	1000	0	0	-1	450
8220195	9453	872	0	-100	0	230	101300000	1000	0	0	-1	450
8232755	9414	876	0	-100	0	230	101300000	1000	0	0	-1	450
8245315	9487	880	0	-100	0	230	101300000	1000	0	0	-1	450
8257875	9457	875	0	-100	0	230	101300000	1000	0	0	-1	450
8270435	9448	882	0	-100	0	230	101300000	1000	0	0	-1	450
8282995	9438	872	0	-100	0	230	101300000	1000	0	0	-1	450
8295555	9433	869	0	-100	0	230	101300000	1000	0	0	-1	450
8308115	9390	874	0	-100	0	230	101300000	1000	0	0	-1	450
8320675	9428	876	0	-100	0	230	101300000	1000	0	0	-1	450
8333235	9426	870	0	-100	0	230	101300000	1000	0	0	-1	450
8345795	9458	874	0	-100	0	230	101300000	1000	0	0	-1	450
8358355	9433	879	0	-100	0	230	101300000	1000	0	0	-1	450
8370915	9431	872	0	-100	0	230	101300000	1000	0	0	-1	450
8383475	9470	874	0	-100	0	230	101300000	1000	0	0	-1	450
8396035	9457	879	0	-100	0	230	101300000	1000	0	0	-1	450
8408595	9431	870	0	-100	0	230	101300000	1000	0	0	-1	450
8421155	9465	877	0	-100	0	230	101300000	1000	0	0	-1	450
8433715	9431	879	0	-100	0	230	101300000	1000	0	0	-1	450
8446275	9448	878	0	-100	0	230	101300000	1000	0	0	-1	450
8458835	9411	869	0	-100	0	230	101300000	1000	0	0	-1	450
8471395	9472	883	0	-100	0	230	101300000	1000	0	0	-1	450
8483955	9443	878	0	-100	0	230	101300000	1000	0	0	-1	450
8496515	9443	873	0	-100	0	230	101300000	1000	0	0	-1	450
8509075	9463	876	0	-100	0	230	101300000	1000	0	0	-1	450
8521635	9434	877	0	-100	0	230	101300000	1000	0	0	-1	450
8534195	9448	873	0	-100	0	230	101300000	1000	0	0	-1	450
8546755	9472	875	0	-100	0	230	101300000	1000	0	0	-1	450
8559315	9411	876	0	-100	0	230	101300000	1000	0	0	-1	450
8571875	9448	876	0	-100	0	230	101300000	1000	0	0	-1	450
8584435	9441	875	0	-100	0	230	101300000	1000	0	0	-1	450
8596995	9430	870	0	-100	0	230	101300000	1000	0	0	-1	450
8609555	9426	871	0	-100	0	230	101300000	1000	0	0	-1	450
8622115	9423	874	0	-100	0	230	101300000	1000	0	0	-1	450
8634675	9409	878	0	-100	0	230	101300000	1000	0	0	-1	450
8647235	9382	870	0	-100	0	230	101300000	1000	0	0	-1	450
8659795	9395	872	0	-100	0	230	101300000	1000	0	0	-1	450
8672355	9387	873	0	-100	0	230	101300000	1000	0	0	-1	450
8684915	9414	872	0	-100	0	230	101300000	1000	0	0	-1	450
8697475	9463	885	0	-100	0	230	101300000	1000	0	0	-1	450
8710035	9429	871	0	-100	0	230	101300000	1000	0	0	-1	450
8722595	9409	876	0	-100	0	230	101300000	1000	0	0	-1	450
8735155	9428	873	0	-100	0	230	101300000	1000	0	0	-1	450
8747715	9414	880	0	-100	0	230	101300000	1000	0	0	-1	450
8760275	9436	872	0	-100	0	230	101300000	1000	0	0	-1	450
8772835	9426	877	0	-100	0	230	101300000	1000	0	0	-1	450
8785395	9429	872	0	-100	0	230	101300000	1000	0	0	-1	450
8797955	9380	873	0	-100	0	230	101300000	1000	0	0	-1	450
8810515	9397	871	0	-100	0	230	101300000	1000	0	0	-1	450
8823075	9378	870	0	-100	0	230	101300000	1000	0	0	-1	450
8835635	9399	878	0	-100	0	230	101300000	1000	0	0	-1	450
8848195	9384	874	0	-100	0	230	101300000	1000	0	0	-1	450
8860755	9467	879	0	-100	0	230	101300000	1000	0	0	-1	450
8873315	9431	878	0	-100	0	230	101300000	1000	0	0	-1	450
8885875	9455	880	0	-100	0	230	101300000	1000	0	0	-1	450
8898435	9426	872	0	-100	0	230	101300000	1000	0	0	-1	450
8910995	9438	873	0	-100	0	230	101300000	1000	0	0	-1	450
8923555	9458	877	0	-100	0	230	101300000	1000	0	0	-1	450
8936115	9448	875	0	-100	0	230	101300000	1000	0	0	-1	450
8948675	9421	879	0	-100	0	230	101300000	1000	0	0	-1	450
8961235	9445	875	0	-100	0	230	101300000	1000	0	0	-1	450
8973795	9433	877	0	-100	0	230	101300000	1000	0	0	-1	450
8986355	9409	878	0	-100	0	230	101300000	1000	0	0	-1	450
8998915	9462	875	0	-100	0	230	101300000	1000	0	0	-1	450
9011475	9397	875	0	-100	0	230	101300000	1000	0	0	-1	450
9024035	9397	874	0	-100	0	230	101300000	1000	0	0	-1	450
9036595	9426	873	0	-100	0	230	101300000	1000	0	0	-1	450
9049155	9429	883	0	-100	0	230	101300000	1000	0	0	-1	450
9061715	9409	875	0	-100	0	230	101300000	1000	0	0	-1	450
9074275	9414	873	0	-100	0	230	101300000	1000	0	0	-1	450
9086835	9400	879	0	-100	0	230	101300000	1000	0	0	-1	450
9099395	9411	878	0	-100	0	230	101300000	1000	0	0	-1	450
9111955	9450	875	0	-100	0	230	101300000	1000	0	0	-1	450
9124515	9411	873	0	-100	0	230	101300000	1000	0	0	-1	450
9137075	9397	877	0	-100	0	230	101300000	1000	0	0	-1	450
9149635	9412	881	0	-100	0	230	101300000	1000	0	0	-1	450
9162195	9416	874	0	-100	0	230	101300000	1000	0	0	-1	450
9174755	9397	876	0	-100	0	230	101300000	1000	0	0	-1	450
9187315	9412	873	0	-100	0	230	101300000	1000	0	0	-1	450
9199875	9387	871	0	-100	0	230	101300000	1000	0	0	-1	450
9212435	9397	879	0	-100	0	230	101300000	1000	0	0	-1	450
9224995	9424	881	0	-100	0	230	101300000	1000	0	0	-1	450
9237555	9404	875	0	-100	0	230	101300000	1000	0	0	-1	450
9250115	9392	877	0	-100	0	230	101300000	1000	0	0	-1	450
9262675	9409	872	0	-100	0	230	101300000	1000	0	0	-1	450
9275235	9416	880	0	-100	0	230	101300000	1000	0	0	-1	450
9287795	9423	875	0	-100	0	230	101300000	1000	0	0	-1	450
9300355	9409	876	0	-100	0	230	101300000	1000	0	0	-1	450
9312915	9419	873	0	-100	0	230	101300000	1000	0	0	-1	450
9325475	9397	873	0	-100	0	230	101300000	1000	0	0	-1	450
9338035	9370	877	0	-100	0	230	101300000	1000	0	0	-1	450
9350595	9417	870	0	-100	0	230	101300000	1000	0	0	-1	450
9363155	9418	875	0	-100	0	230	101300000	1000	0	0	-1	450
9375715	9419	874	0	-100	0	230	101300000	1000	0	0	-1	450
9388275	9409	874	0	-100	0	230	101300000	1000	0	0	-1	450
9400835	9436	882	0	-100	0	230	101300000	1000	0	0	-1	450
9413395	9407	870	0	-100	0	230	101300000	1000	0	0	-1	450
9425955	9406	880	0	-100	0	230	101300000	1000	0	0	-1	450
9438515	9426	878	0	-100	0	230	101300000	1000	0	0	-1	450
9451075	9387	868	0	-100	0	230	101300000	1000	0	0	-1	450
9463635	9377	875	0	-100	0	230	101300000	1000	0	0	-1	450
9476195	9423	881	0	-100	0	230	101300000	1000	0	0	-1	450
9488755	9402	874	0	-100	0	230	101300000	1000	0	0	-1	450
9501315	9406	874	0	-100	0	230	101300000	1000	0	0	-1	450
9513875	9443	878	0	-100	0	230	101300000	1000	0	0	-1	450
9526435	9441	881	0	-100	0	230	101300000	1000	0	0	-1	450
9538995	9433	883	0	-100	0	230	101300000	1000	0	0	-1	450
9551555	9433	875	0	-100	0	230	101300000	1000	0	0	-1	450
9564115	9397	873	0	-100	0	230	101300000	1000	0	0	-1	450
9576675	9402	876	0	-100	0	230	101300000	1000	0	0	-1	450
9589235	9394	877	0	-100	0	230	101300000	1000	0	0	-1	450
9601795	9373	874	0	-100	0	230	101300000	1000	0	0	-1	450
9614355	9392	877	0	-100	0	230	101300000	1000	0	0	-1	450
9626915	9419	874	0	-100	0	230	101300000	1000	0	0	-1	450
9639475	9400	873	0	-100	0	230	101300000	1000	0	0	-1	450
9652035	9395	872	0	-100	0	230	101300000	1000	0	0	-1	450
9664595	9390	879	0	-100	0	230	101300000	1000	0	0	-1	450
9677155	9385	875	0	-100	0	230	101300000	1000	0	0	-1	450
9689715	9390	871	0	-100	0	230	101300000	1000	0	0	-1	450
9702275	9383	868	0	-100	0	230	101300000	1000	0	0	-1	450
9714835	9375	877	0	-100	0	230	101300000	1000	0	0	-1	450
9727395	9412	879	0	-100	0	230	101300000	1000	0	0	-1	450
9739955	9397	870	0	-100	0	230	101300000	1000	0	0	-1	450
9752515	9426	872	0	-100	0	230	101300000	1000	0	0	-1	450
9765075	9416	877	0	-100	0	230	101300000	1000	0	0	-1	450
9777635	9404	881	0	-100	0	230	101300000	1000	0	0	-1	450
9790195	9436	882	0	-100	0	230	101300000	1000	0	0	-1	450
9802755	9416	880	0	-100	0	230	101300000	1000	0	0	-1	450
9815315	9423	876	0	-100	0	230	101300000	1000	0	0	-1	450
9827875	9414	868	0	-100	0	230	101300000	1000	0	0	-1	450
9840435	9421	872	0	-100	0	230	101300000	1000	0	0	-1	450
9852995	9358	867	0	-100	0	230	101300000	1000	0	0	-1	450
9865555	9346	876	0	-100	0	230	101300000	1000	0	0	-1	450
9878115	9402	878	0	-100	0	230	101300000	1000	0	0	-1	450
9890675	9409	873	0	-100	0	230	101300000	1000	0	0	-1	450
9903235	9407	876	0	-100	0	230	101300000	1000	0	0	-1	450
9915795	9390	880	0	-100	0	230	101300000	1000	0	0	-1	450
9928355	9419	872	0	-100	0	230	101300000	1000	0	0	-1	450
9940915	9387	870	0	-100	0	230	101300000	1000	0	0	-1	450
9953475	9390	876	0	-100	0	230	101300000	1000	0	0	-1	450
9966035	9399	877	0	-100	0	230	101300000	1000	0	0	-1	450
9978595	9390	871	0	-100	0	230	101300000	1000	0	0	-1	450
9991155	9392	872	0	-100	0	230	101300000	1000	0	0	-1	450
10003715	9336	869	0	-100	0	230	101300000	1000	0	0	-1	450
10016275	9392	880	0	-100	0	230	101300000	1000	0	0	-1	450
10028835	9402	875	0	-100	0	230	101300000	1000	0	0	-1	450
10041395	9377	872	0	-100	0	230	101300000	1000	0	0	-1	450
10053955	9407	873	0	-100	0	230	101300000	1000	0	0	-1	450
10066515	9392	879	0	-100	0	230	101300000	1000	0	0	-1	450
10079075	9341	871	0	-100	0	230	101300000	1000	0	0	-1	450
10091635	9365	869	0	-100	0	230	101300000	1000	0	0	-1	450
10104195	9382	871	0	-100	0	230	101300000	1000	0	0	-1	450
10116755	9396	875	0	-100	0	230	101300000	1000	0	0	-1	450
10129315	9407	880	0	-100	0	230	101300000	1000	0	0	-1	450
10141875	9394	876	0	-100	0	230	101300000	1000	0	0	-1	450
10154435	9363	866	0	-100	0	230	101300000	1000	0	0	-1	450
10166995	9341	873	0	-100	0	230	101300000	1000	0	0	-1	450
10179555	9373	868	0	-100	0	230	101300000	1000	0	0	-1	450
10192115	9429	881	0	-100	0	230	101300000	1000	0	0	-1	450
10204675	9431	881	0	-100	0	230	101300000	1000	0	0	-1	450
10217235	9404	878	0	-100	0	230	101300000	1000	0	0	-1	450
10229795	9404	880	0	-100	0	230	101300000	1000	0	0	-1	450
10242355	9389	877	0	-100	0	230	101300000	1000	0	0	-1	450
10254915	9407	875	0	-100	0	230	101300000	1000	0	0	-1	450
10267475	9406	870	0	-100	0	230	101300000	1000	0	0	-1	450
10280035	9399	872	0	-100	0	230	101300000	1000	0	0	-1	450
10292595	9377	876	0	-100	0	230	101300000	1000	0	0	-1	450
10305155	9383	880	0	-100	0	230	101300000	1000	0	0	-1	450
10317715	9367	877	0	-100	0	230	101300000	1000	0	0	-1	450
10330275	9380	873	0	-100	0	230	101300000	1000	0	0	-1	450
10342835	9394	871	0	-100	0	230	101300000	1000	0	0	-1	450
10355395	9402	872	0	-100	0	230	101300000	1000	0	0	-1	450
10367955	9351	872	0	-100	0	230	101300000	1000	0	0	-1	450
10380515	9373	878	0	-100	0	230	101300000	1000	0	0	-1	450
10393075	9363	871	0	-100	0	230	101300000	1000	0	0	-1	450
10405635	9436	876	0	-100	0	230	101300000	1000	0	0	-1	450
10418195	9377	881	0	-100	0	230	101300000	1000	0	0	-1	450
10430755	9375	874	0	-100	0	230	101300000	1000	0	0	-1	450
10443315	9407	877	0	-100	0	230	101300000	1000	0	0	-1	450
10455875	9365	880	0	-100	0	230	101300000	1000	0	0	-1	450
10468435	9411	873	0	-100	0	230	101300000	1000	0	0	-1	450
10480995	9375	871	0	-100	0	230	101300000	1000	0	0	-1	450
10493555	9380	879	0	-100	0	230	101300000	1000	0	0	-1	450
10506115	9334	866	0	-100	0	230	101300000	1000	0	0	-1	450
10518675	9295	870	0	-100	0	230	101300000	1000	0	0	-1	450
10531235	9372	875	0	-100	0	230	101300000	1000	0	0	-1	450
10543795	9382	870	0	-100	0	230	101300000	1000	0	0	-1	450
10556355	9363	873	0	-100	0	230	101300000	1000	0	0	-1	450
10568915	9387	873	0	-100	0	230	101300000	1000	0	0	-1	450
10581475	9375	874	0	-100	0	230	101300000	1000	0	0	-1	450
10594035	9377	875	0	-100	0	230	101300000	1000	0	0	-1	450
10606595	9365	878	0	-100	0	230	101300000	1000	0	0	-1	450
10619155	9375	874	0	-100	0	230	101300000	1000	0	0	-1	450
10631715	9358	870	0	-100	0	230	101300000	1000	0	0	-1	450
10644275	9385	879	0	-100	0	230	101300000	1000	0	0	-1	450
10656835	9390	879	0	-100	0	230	101300000	1000	0	0	-1	450
10669395	9358	873	0	-100	0	230	101300000	1000	0	0	-1	450
10681955	9397	875	0	-100	0	230	101300000	1000	0	0	-1	450
10694515	9394	879	0	-100	0	230	101300000	1000	0	0	-1	450
10707075	9387	878	0	-100	0	230	101300000	1000	0	0	-1	450
10719635	9395	879	0	-100	0	230	101300000	1000	0	0	-1	450
10732195	9365	869	0	-100	0	230	101300000	1000	0	0	-1	450
10744755	9397	874	0	-100	0	230	101300000	1000	0	0	-1	450
10757315	9392	881	0	-100	0	230	101300000	1000	0	0	-1	450
10769875	9365	878	0	-100	0	230	101300000	1000	0	0	-1	450
10782435	9404	873	0	-100	0	230	101300000	1000	0	0	-1	450
10794995	9392	876	0	-100	0	230	101300000	1000	0	0	-1	450
10807555	9392	870	0	-100	0	230	101300000	1000	0	0	-1	450
10820115	9360	877	0	-100	0	230	101300000	1000	0	0	-1	450
10832675	9363	876	0	-100	0	230	101300000	1000	0	0	-1	450
10845235	9402	884	0	-100	0	230	101300000	1000	0	0	-1	450
10857795	9370	878	0	-100	0	230	101300000	1000	0	0	-1	450
10870355	9399	873	0	-100	0	230	101300000	1000	0	0	-1	450
10882915	9404	872	0	-100	0	230	101300000	1000	0	0	-1	450
10895475	9392	872	0	-100	0	230	101300000	1000	0	0	-1	450
10908035	9392	879	0	-100	0	230	101300000	1000	0	0	-1	450
10920595	9409	879	0	-100	0	230	101300000	1000	0	0	-1	450
10933155	9375	868	0	-100	0	230	101300000	1000	0	0	-1	450
10945715	9404	876	0	-100	0	230	101300000	1000	0	0	-1	450
10958275	9387	880	0	-100	0	230	101300000	1000	0	0	-1	450
10970835	9378	873	0	-100	0	230	101300000	1000	0	0	-1	450
10983395	9392	873	0	-100	0	230	101300000	1000	0	0	-1	450
10995955	9380	878	0	-100	0	230	101300000	1000	0	0	-1	450
11008515	9351	878	0	-100	0	230	101300000	1000	0	0	-1	450
11021075	9373	879	0	-100	0	230	101300000	1000	0	0	-1	450
11033635	9348	874	0	-100	0	230	101300000	1000	0	0	-1	450
11046195	9375	872	0	-100	0	230	101300000	1000	0	0	-1	450
11058755	9385	869	0	-100	0	230	101300000	1000	0	0	-1	450
11071315	9351	869	0	-100	0	230	101300000	1000	0	0	-1	450
11083875	9368	871	0	-100	0	230	101300000	1000	0	0	-1	450
11096435	9363	874	0	-100	0	230	101300000	1000	0	0	-1	450
11108995	9358	869	0	-100	0	230	101300000	1000	0	0	-1	450
11121555	9329	873	0	-100	0	230	101300000	1000	0	0	-1	450
11134115	9365	873	0	-100	0	230	101300000	1000	0	0	-1	450
11146675	9390	874	0	-100	0	230	101300000	1000	0	0	-1	450
11159235	9353	870	0	-100	0	230	101300000	1000	0	0	-1	450
11171795	9368	872	0	-100	0	230	101300000	1000	0	0	-1	450
11184355	9370	879	0	-100	0	230	101300000	1000	0	0	-1	450
11196915	9399	878	0	-100	0	230	101300000	1000	0	0	-1	450
11209475	9409	877	0	-100	0	230	101300000	1000	0	0	-1	450
11222035	9370	867	0	-100	0	230	101300000	1000	0	0	-1	450
11234595	9344	868	0	-100	0	230	101300000	1000	0	0	-1	450
11247155	9378	869	0	-100	0	230	101300000	1000	0	0	-1	450
11259715	9356	871	0	-100	0	230	101300000	1000	0	0	-1	450
11272275	9361	881	0	-100	0	230	101300000	1000	0	0	-1	450
11284835	9407	876	0	-100	0	230	101300000	1000	0	0	-1	450
11297395	9397	872	0	-100	0	230	101300000	1000	0	0	-1	450
11309955	9394	876	0	-100	0	230	101300000	1000	0	0	-1	450
11322515	9409	874	0	-100	0	230	101300000	1000	0	0	-1	450
11335075	9382	870	0	-100	0	230	101300000	1000	0	0	-1	450
11347635	9400	876	0	-100	0	230	101300000	1000	0	0	-1	450
11360195	9370	874	0	-100	0	230	101300000	1000	0	0	-1	450
11372755	9375	870	0	-100	0	230	101300000	1000	0	0	-1	450
11385315	9392	876	0	-100	0	230	101300000	1000	0	0	-1	450
11397875	9341	871	0	-100	0	230	101300000	1000	0	0	-1	450
11410435	9394	882	0	-100	0	230	101300000	1000	0	0	-1	450
11422995	9370	872	0	-100	0	230	101300000	1000	0	0	-1	450
11435555	9360	877	0	-100	0	230	101300000	1000	0	0	-1	450
11448115	9380	879	0	-100	0	230	101300000	1000	0	0	-1	450
11460675	9368	878	0	-100	0	230	101300000	1000	0	0	-1	450
11473235	9385	871	0	-100	0	230	101300000	1000	0	0	-1	450
11485795	9385	873	0	-100	0	230	101300000	1000	0	0	-1	450
11498355	9348	868	0	-100	0	230	101300000	1000	0	0	-1	450
11510915	9385	872	0	-100	0	230	101300000	1000	0	0	-1	450
11523475	9407	876	0	-100	0	230	101300000	1000	0	0	-1	450
11536035	9411	878	0	-100	0	230	101300000	1000	0	0	-1	450
11548595	9378	873	0	-100	0	230	101300000	1000	0	0	-1	450
11561155	9372	875	0	-100	0	230	101300000	1000	0	0	-1	450
11573715	9377	881	0	-100	0	230	101300000	1000	0	0	-1	450
11586275	9373	875	0	-100	0	230	101300000	1000	0	0	-1	450
11598835	9392	875	0	-100	0	230	101300000	1000	0	0	-1	450
11611395	9392	875	0	-100	0	230	101300000	1000	0	0	-1	450
11623955	9389	874	0	-100	0	230	101300000	1000	0	0	-1	450
11636515	9361	871	0	-100	0	230	101300000	1000	0	0	-1	450
11649075	9358	876	0	-100	0	230	101300000	1000	0	0	-1	450
11661635	9341	875	0	-100	0	230	101300000	1000	0	0	-1	450
11674195	9361	878	0	-100	0	230	101300000	1000	0	0	-1	450
11686755	9375	876	0	-100	0	230	101300000	1000	0	0	-1	450
11699315	9416	877	0	-100	0	230	101300000	1000	0	0	-1	450
11711875	9363	874	0	-100	0	230	101300000	1000	0	0	-1	450
11724435	9382	880	0	-100	0	230	101300000	1000	0	0	-1	450
11736995	9373	868	0	-100	0	230	101300000	1000	0	0	-1	450
11749555	9390	874	0	-100	0	230	101300000	1000	0	0	-1	450
11762115	9399	875	0	-100	0	230	101300000	1000	0	0	-1	450
11774675	9375	876	0	-100	0	230	101300000	1000	0	0	-1	450
11787235	9360	878	0	-100	0	230	101300000	1000	0	0	-1	450
11799795	9380	879	0	-100	0	230	101300000	1000	0	0	-1	450
11812355	9407	874	0	-100	0	230	101300000	1000	0	0	-1	450
11824915	9387	871	0	-100	0	230	101300000	1000	0	0	-1	450
11837475	9368	867	0	-100	0	230	101300000	1000	0	0	-1	450
11850035	9339	873	0	-100	0	230	101300000	1000	0	0	-1	450
11862595	9366	872	0	-100	0	230	101300000	1000	0	0	-1	450
11875155	9385	874	0	-100	0	230	101300000	1000	0	0	-1	450
11887715	9392	871	0	-100	0	230	101300000	1000	0	0	-1	450
11900275	9378	873	0	-100	0	230	101300000	1000	0	0	-1	450
11912835	9341	875	0	-100	0	230	101300000	1000	0	0	-1	450
11925395	9380	879	0	-100	0	230	101300000	1000	0	0	-1	450
11937955	9377	869	0	-100	0	230	101300000	1000	0	0	-1	450
11950515	9360	868	0	-100	0	230	101300000	1000	0	0	-1	450
11963075	9373	876	0	-100	0	230	101300000	1000	0	0	-1	450
11975635	9382	876	0	-100	0	230	101300000	1000	0	0	-1	450
11988195	9387	875	0	-100	0	230	101300000	1000	0	0	-1	450
12000755	9375	868	0	-100	0	230	101300000	1000	0	0	-1	450
12013315	9365	871	0	-100	0	230	101300000	1000	0	0	-1	450
12025875	9390	878	0	-100	0	230	101300000	1000	0	0	-1	450
12038435	9372	879	0	-100	0	230	101300000	1000	0	0	-1	450
12050995	9385	875	0	-100	0	230	101300000	1000	0	0	-1	450
12063555	9367	869	0	-100	0	230	101300000	1000	0	0	-1	450
12076115	9419	875	0	-100	0	230	101300000	1000	0	0	-1	450
12088675	9397	876	0	-100	0	230	101300000	1000	0	0	-1	450
12101235	9360	876	0	-100	0	230	101300000	1000	0	0	-1	450
12113795	9380	879	0	-100	0	230	101300000	1000	0	0	-1	450
12126355	9397	878	0	-100	0	230	101300000	1000	0	0	-1	450
12138915	9416	879	0	-100	0	230	101300000	1000	0	0	-1	450
12151475	9392	868	0	-100	0	230	101300000	1000	0	0	-1	450
12164035	9358	866	0	-100	0	230	101300000	1000	0	0	-1	450
12176595	9348	870	0	-100	0	230	101300000	1000	0	0	-1	450
12189155	9341	869	0	-100	0	230	101300000	1000	0	0	-1	450
12201715	9356	875	0	-100	0	230	101300000	1000	0	0	-1	450
12214275	9341	868	0	-100	0	230	101300000	1000	0	0	-1	450
12226835	9373	879	0	-100	0	230	101300000	1000	0	0	-1	450
12239395	9361	871	0	-100	0	230	101300000	1000	0	0	-1	450
12251955	9370	872	0	-100	0	230	101300000	1000	0	0	-1	450
12264515	9383	878	0	-100	0	230	101300000	1000	0	0	-1	450
12277075	9363	873	0	-100	0	230	101300000	1000	0	0	-1	450
12289635	9387	873	0	-100	0	230	101300000	1000	0	0	-1	450
12302195	9343	874	0	-100	0	230	101300000	1000	0	0	-1	450
12314755	9373	867	0	-100	0	230	101300000	1000	0	0	-1	450
12327315	9394	878	0	-100	0	230	101300000	1000	0	0	-1	450
12339875	9407	881	0	-100	0	230	101300000	1000	0	0	-1	450
12352435	9387	873	0	-100	0	230	101300000	1000	0	0	-1	450
12364995	9385	870	0	-100	0	230	101300000	1000	0	0	-1	450
12377555	9382	876	0	-100	0	230	101300000	1000	0	0	-1	450
12390115	9389	882	0	-100	0	230	101300000	1000	0	0	-1	450
12402675	9375	873	0	-100	0	230	101300000	1000	0	0	-1	450
12415235	9405	876	0	-100	0	230	101300000	1000	0	0	-1	450
12427795	9394	878	0	-100	0	230	101300000	1000	0	0	-1	450
12440355	9407	881	0	-100	0	230	101300000	1000	0	0	-1	450
12452915	9380	872	0	-100	0	230	101300000	1000	0	0	-1	450
12465475	9385	872	0	-100	0	230	101300000	1000	0	0	-1	450
12478035	9370	870	0	-100	0	230	101300000	1000	0	0	-1	450
12490595	9370	878	0	-100	0	230	101300000	1000	0	0	-1	450
12503155	9388	879	0	-100	0	230	101300000	1000	0	0	-1	450
12515715	9370	869	0	-100	0	230	101300000	1000	0	0	-1	450
12528275	9380	869	0	-100	0	230	101300000	1000	0	0	-1	450
12540835	9353	878	0	-100	0	230	101300000	1000	0	0	-1	450
12553395	9378	876	0	-100	0	230	101300000	1000	0	0	-1	450
12565955	9368	868	0	-100	0	230	101300000	1000	0	0	-1	450
12578515	9392	873	0	-100	0	230	101300000	1000	0	0	-1	450
12591075	9402	880	0	-100	0	230	101300000	1000	0	0	-1	450
12603635	9373	875	0	-100	0	230	101300000	1000	0	0	-1	450
12616195	9383	870	0	-100	0	230	101300000	1000	0	0	-1	450
12628755	9346	869	0	-100	0	230	101300000	1000	0	0	-1	450
12641315	9390	881	0	-100	0	230	101300000	1000	0	0	-1	450
12653875	9390	874	0	-100	0	230	101300000	1000	0	0	-1	450
12666435	9334	867	0	-100	0	230	101300000	1000	0	0	-1	450
12678995	9355	869	0	-100	0	230	101300000	1000	0	0	-1	450
12691555	9373	876	0	-100	0	230	101300000	1000	0	0	-1	450
12704115	9407	875	0	-100	0	230	101300000	1000	0	0	-1	450
12716675	9387	878	0	-100	0	230	101300000	1000	0	0	-1	450
12729235	9376	875	0	-100	0	230	101300000	1000	0	0	-1	450
12741795	9363	868	0	-100	0	230	101300000	1000	0	0	-1	450
12754355	9356	873	0	-100	0	230	101300000	1000	0	0	-1	450
12766915	9356	871	0	-100	0	230	101300000	1000	0	0	-1	450
12779475	9331	867	0	-100	0	230	101300000	1000	0	0	-1	450
12792035	9372	877	0	-100	0	230	101300000	1000	0	0	-1	450
12804595	9361	874	0	-100	0	230	101300000	1000	0	0	-1	450
12817155	9404	872	0	-100	0	230	101300000	1000	0	0	-1	450
12829715	9368	871	0	-100	0	230	101300000	1000	0	0	-1	450
12842275	9346	877	0	-100	0	230	101300000	1000	0	0	-1	450
12854835	9382	875	0	-100	0	230	101300000	1000	0	0	-1	450
12867395	9373	872	0	-100	0	230	101300000	1000	0	0	-1	450
12879955	9370	876	0	-100	0	230	101300000	1000	0	0	-1	450
12892515	9363	874	0	-100	0	230	101300000	1000	0	0	-1	450
12905075	9385	869	0	-100	0	230	101300000	1000	0	0	-1	450
12917635	9400	877	0	-100	0	230	101300000	1000	0	0	-1	450
12930195	9380	880	0	-100	0	230	101300000	1000	0	0	-1	450
12942755	9419	878	0	-100	0	230	101300000	1000	0	0	-1	450
12955315	9397	873	0	-100	0	230	101300000	1000	0	0	-1	450
12967875	9397	875	0	-100	0	230	101300000	1000	0	0	-1	450
12980435	9382	878	0	-100	0	230	101300000	1000	0	0	-1	450
12992995	9378	878	0	-100	0	230	101300000	1000	0	0	-1	450
13005555	9424	875	0	-100	0	230	101300000	1000	0	0	-1	450
13018115	9416	876	0	-100	0	230	101300000	1000	0	0	-1	450
13030675	9411	875	0	-100	0	230	101300000	1000	0	0	-1	450
13043235	9394	871	0	-100	0	230	101300000	1000	0	0	-1	450
13055795	9395	878	0	-100	0	230	101300000	1000	0	0	-1	450
13068355	9409	881	0	-100	0	230	101300000	1000	0	0	-1	450
13080915	9351	866	0	-100	0	230	101300000	1000	0	0	-1	450
13093475	9348	870	0	-100	0	230	101300000	1000	0	0	-1	450
13106035	9370	880	0	-100	0	230	101300000	1000	0	0	-1	450
13118595	9392	876	0	-100	0	230	101300000	1000	0	0	-1	450
13131155	9355	869	0	-100	0	230	101300000	1000	0	0	-1	450
13143715	9390	880	0	-100	0	230	101300000	1000	0	0	-1	450
13156275	9378	881	0	-100	0	230	101300000	1000	0	0	-1	450
13168835	9382	873	0	-100	0	230	101300000	1000	0	0	-1	450
13181395	9397	871	0	-100	0	230	101300000	1000	0	0	-1	450
13193955	9373	870	0	-100	0	230	101300000	1000	0	0	-1	450
13206515	9361	877	0	-100	0	230	101300000	1000	0	0	-1	450
13219075	9370	876	0	-100	0	230	101300000	1000	0	0	-1	450
13231635	9356	866	0	-100	0	230	101300000	1000	0	0	-1	450
13244195	9373	877	0	-100	0	230	101300000	1000	0	0	-1	450
13256755	9412	877	0	-100	0	230	101300000	1000	0	0	-1	450
13269315	9382	872	0	-100	0	230	101300000	1000	0	0	-1	450
13281875	9382	882	0	-100	0	230	101300000	1000	0	0	-1	450
13294435	9365	870	0	-100	0	230	101300000	1000	0	0	-1	450
13306995	9358	871	0	-100	0	230	101300000	1000	0	0	-1	450
13319555	9380	874	0	-100	0	230	101300000	1000	0	0	-1	450
13332115	9383	873	0	-100	0	230	101300000	1000	0	0	-1	450
13344675	9346	874	0	-100	0	230	101300000	1000	0	0	-1	450
13357235	9402	873	0	-100	0	230	101300000	1000	0	0	-1	450
13369795	9409	877	0	-100	0	230	101300000	1000	0	0	-1	450
13382355	9395	872	0	-100	0	230	101300000	1000	0	0	-1	450
13394915	9397	879	0	-100	0	230	101300000	1000	0	0	-1	450
13407475	9365	870	0	-100	0	230	101300000	1000	0	0	-1	450
13420035	9387	877	0	-100	0	230	101300000	1000	0	0	-1	450
13432595	9324	866	0	-100	0	230	101300000	1000	0	0	-1	450
13445155	9412	878	0	-100	0	230	101300000	1000	0	0	-1	450
13457715	9392	879	0	-100	0	230	101300000	1000	0	0	-1	450
13470275	9394	870	0	-100	0	230	101300000	1000	0	0	-1	450
13482835	9385	876	0	-100	0	230	101300000	1000	0	0	-1	450
13495395	9433	876	0	-100	0	230	101300000	1000	0	0	-1	450
13507955	9380	875	0	-100	0	230	101300000	1000	0	0	-1	450
13520515	9414	878	0	-100	0	230	101300000	1000	0	0	-1	450
13533075	9416	876	0	-100	0	230	101300000	1000	0	0	-1	450
13545635	9353	873	0	-100	0	230	101300000	1000	0	0	-1	450
13558195	9399	877	0	-100	0	230	101300000	1000	0	0	-1	450
13570755	9392	876	0	-100	0	230	101300000	1000	0	0	-1	450
13583315	9399	876	0	-100	0	230	101300000	1000	0	0	-1	450
13595875	9421	875	0	-100	0	230	101300000	1000	0	0	-1	450
13608435	9394	880	0	-100	0	230	101300000	1000	0	0	-1	450
13620995	9361	873	0	-100	0	230	101300000	1000	0	0	-1	450
13633555	9378	879	0	-100	0	230	101300000	1000	0	0	-1	450
13646115	9370	870	0	-100	0	230	101300000	1000	0	0	-1	450
13658675	9424	882	0	-100	0	230	101300000	1000	0	0	-1	450
13671235	9344	866	0	-100	0	230	101300000	1000	0	0	-1	450
13683795	9360	869	0	-100	0	230	101300000	1000	0	0	-1	450
13696355	9368	873	0	-100	0	230	101300000	1000	0	0	-1	450
13708915	9368	872	0	-100	0	230	101300000	1000	0	0	-1	450
13721475	9414	878	0	-100	0	230	101300000	1000	0	0	-1	450
13734035	9375	872	0	-100	0	230	101300000	1000	0	0	-1	450
13746595	9360	867	0	-100	0	230	101300000	1000	0	0	-1	450
13759155	9373	880	0	-100	0	230	101300000	1000	0	0	-1	450
13771715	9363	871	0	-100	0	230	101300000	1000	0	0	-1	450
13784275	9370	880	0	-100	0	230	101300000	1000	0	0	-1	450
13796835	9378	871	0	-100	0	230	101300000	1000	0	0	-1	450
13809395	9363	864	0	-100	0	230	101300000	1000	0	0	-1	450
13821955	9375	875	0	-100	0	230	101300000	1000	0	0	-1	450
13834515	9375	876	0	-100	0	230	101300000	1000	0	0	-1	450
13847075	9373	872	0	-100	0	230	101300000	1000	0	0	-1	450
13859635	9385	877	0	-100	0	230	101300000	1000	0	0	-1	450
13872195	9395	876	0	-100	0	230	101300000	1000	0	0	-1	450
13884755	9353	871	0	-100	0	230	101300000	1000	0	0	-1	450
13897315	9382	874	0	-100	0	230	101300000	1000	0	0	-1	450
13909875	9373	871	0	-100	0	230	101300000	1000	0	0	-1	450
13922435	9375	877	0	-100	0	230	101300000	1000	0	0	-1	450
13934995	9329	870	0	-100	0	230	101300000	1000	0	0	-1	450
13947555	9360	879	0	-100	0	230	101300000	1000	0	0	-1	450
13960115	9397	874	0	-100	0	230	101300000	1000	0	0	-1	450
13972675	9375	873	0	-100	0	230	101300000	1000	0	0	-1	450
13985235	9387	879	0	-100	0	230	101300000	1000	0	0	-1	450
13997795	9378	871	0	-100	0	230	101300000	1000	0	0	-1	450
14010355	9397	882	0	-100	0	230	101300000	1000	0	0	-1	450
14022915	9382	869	0	-100	0	230	101300000	1000	0	0	-1	450
14035475	9402	884	0	-100	0	230	101300000	1000	0	0	-1	450
14048035	9390	869	0	-100	0	230	101300000	1000	0	0	-1	450
14060595	9373	877	0	-100	0	230	101300000	1000	0	0	-1	450
14073155	9356	868	0	-100	0	230	101300000	1000	0	0	-1	450
14085715	9387	879	0	-100	0	230	101300000	1000	0	0	-1	450
14098275	9363	870	0	-100	0	230	101300000	1000	0	0	-1	450
14110835	9382	872	0	-100	0	230	101300000	1000	0	0	-1	450
14123395	9355	873	0	-100	0	230	101300000	1000	0	0	-1	450
14135955	9390	870	0	-100	0	230	101300000	1000	0	0	-1	450
14148515	9390	884	0	-100	0	230	101300000	1000	0	0	-1	450
14161075	9387	870	0	-100	0	230	101300000	1000	0	0	-1	450
14173635	9387	880	0	-100	0	230	101300000	1000	0	0	-1	450
14186195	9380	871	0	-100	0	230	101300000	1000	0	0	-1	450
14198755	9375	877	0	-100	0	230	101300000	1000	0	0	-1	450
14211315	9392	873	0	-100	0	230	101300000	1000	0	0	-1	450
14223875	9361	870	0	-100	0	230	101300000	1000	0	0	-1	450
14236435	9392	873	0	-100	0	230	101300000	1000	0	0	-1	450
14248995	9380	879	0	-100	0	230	101300000	1000	0	0	-1	450
14261555	9348	870	0	-100	0	230	101300000	1000	0	0	-1	450
14274115	9370	872	0	-100	0	230	101300000	1000	0	0	-1	450
14286675	9350	870	0	-100	0	230	101300000	1000	0	0	-1	450
14299235	9331	869	0	-100	0	230	101300000	1000	0	0	-1	450
14311795	9375	877	0	-100	0	230	101300000	1000	0	0	-1	450
14324355	9370	872	0	-100	0	230	101300000	1000	0	0	-1	450
14336915	9380	874	0	-100	0	230	101300000	1000	0	0	-1	450
14349475	9380	879	0	-100	0	230	101300000	1000	0	0	-1	450
14362035	9395	875	0	-100	0	230	101300000	1000	0	0	-1	450
14374595	9392	875	0	-100	0	230	101300000	1000	0	0	-1	450
14387155	9373	875	0	-100	0	230	101300000	1000	0	0	-1	450
14399715	9394	876	0	-100	0	230	101300000	1000	0	0	-1	450
14412275	9372	871	0	-100	0	230	101300000	1000	0	0	-1	450
14424835	9400	877	0	-100	0	230	101300000	1000	0	0	-1	450
14437395	9373	877	0	-100	0	230	101300000	1000	0	0	-1	450
14449955	9358	867	0	-100	0	230	101300000	1000	0	0	-1	450
14462515	9397	871	0	-100	0	230	101300000	1000	0	0	-1	450
14475075	9387	879	0	-100	0	230	101300000	1000	0	0	-1	450
14487635	9397	879	0	-100	0	230	101300000	1000	0	0	-1	450
14500195	9382	871	0	-100	0	230	101300000	1000	0	0	-1	450
14512755	9426	876	0	-100	0	230	101300000	1000	0	0	-1	450
14525315	9383	880	0	-100	0	230	101300000	1000	0	0	-1	450
14537875	9404	874	0	-100	0	230	101300000	1000	0	0	-1	450
14550435	9389	874	0	-100	0	230	101300000	1000	0	0	-1	450
14562995	9402	875	0	-100	0	230	101300000	1000	0	0	-1	450
14575555	9380	867	0	-100	0	230	101300000	1000	0	0	-1	450
14588115	9353	867	0	-100	0	230	101300000	1000	0	0	-1	450
14600675	9407	881	0	-100	0	230	101300000	1000	0	0	-1	450
14613235	9383	872	0	-100	0	230	101300000	1000	0	0	-1	450
14625795	9382	869	0	-100	0	230	101300000	1000	0	0	-1	450
14638355	9360	874	0	-100	0	230	101300000	1000	0	0	-1	450
14650915	9392	871	0	-100	0	230	101300000	1000	0	0	-1	450
14663475	9377	874	0	-100	0	230	101300000	1000	0	0	-1	450
14676035	9365	878	0	-100	0	230	101300000	1000	0	0	-1	450
14688595	9399	873	0	-100	0	230	101300000	1000	0	0	-1	450
14701155	9428	881	0	-100	0	230	101300000	1000	0	0	-1	450
14713715	9395	877	0	-100	0	230	101300000	1000	0	0	-1	450
14726275	9377	868	0	-100	0	230	101300000	1000	0	0	-1	450
14738835	9380	878	0	-100	0	230	101300000	1000	0	0	-1	450
14751395	9373	872	0	-100	0	230	101300000	1000	0	0	-1	450
14763955	9385	873	0	-100	0	230	101300000	1000	0	0	-1	450
14776515	9353	875	0	-100	0	230	101300000	1000	0	0	-1	450
14789075	9387	876	0	-100	0	230	101300000	1000	0	0	-1	450
14801635	9385	868	0	-100	0	230	101300000	1000	0	0	-1	450
14814195	9394	875	0	-100	0	230	101300000	1000	0	0	-1	450
14826755	9407	881	0	-100	0	230	101300000	1000	0	0	-1	450
14839315	9380	870	0	-100	0	230	101300000	1000	0	0	-1	450
14851875	9365	870	0	-100	0	230	101300000	1000	0	0	-1	450
14864435	9366	880	0	-100	0	230	101300000	1000	0	0	-1	450
14876995	9414	881	0	-100	0	230	101300000	1000	0	0	-1	450
14889555	9416	878	0	-100	0	230	101300000	1000	0	0	-1	450
14902115	9409	883	0	-100	0	230	101300000	1000	0	0	-1	450
14914675	9387	870	0	-100	0	230	101300000	1000	0	0	-1	450
14927235	9402	876	0	-100	0	230	101300000	1000	0	0	-1	450
14939795	9404	872	0	-100	0	230	101300000	1000	0	0	-1	450
14952355	9387	878	0	-100	0	230	101300000	1000	0	0	-1	450
14964915	9382	877	0	-100	0	230	101300000	1000	0	0	-1	450
14977475	9421	872	0	-100	0	230	101300000	1000	0	0	-1	450
14990035	9390	875	0	-100	0	230	101300000	1000	0	0	-1	450
15002595	9407	872	0	-100	0	230	101300000	1000	0	0	-1	450
15015155	9375	873	0	-100	0	230	101300000	1000	0	0	-1	450
15027715	9366	871	0	-100	0	230	101300000	1000	0	0	-1	450
15040275	9370	872	0	-100	0	230	101300000	1000	0	0	-1	450
15052835	9383	877	0	-100	0	230	101300000	1000	0	0	-1	450
15065395	9397	874	0	-100	0	230	101300000	1000	0	0	-1	450
15077955	9378	877	0	-100	0	230	101300000	1000	0	0	-1	450
15090515	9404	873	0	-100	0	230	101300000	1000	0	0	-1	450
15103075	9402	879	0	-100	0	230	101300000	1000	0	0	-1	450
15115635	9399	873	0	-100	0	230	101300000	1000	0	0	-1	450
15128195	9382	875	0	-100	0	230	101300000	1000	0	0	-1	450
15140755	9387	872	0	-100	0	230	101300000	1000	0	0	-1	450
15153315	9344	871	0	-100	0	230	101300000	1000	0	0	-1	450
15165875	9363	872	0	-100	0	230	101300000	1000	0	0	-1	450
15178435	9385	881	0	-100	0	230	101300000	1000	0	0	-1	450
15190995	9421	878	0	-100	0	230	101300000	1000	0	0	-1	450
15203555	9409	878	0	-100	0	230	101300000	1000	0	0	-1	450
15216115	9344	868	0	-100	0	230	101300000	1000	0	0	-1	450
15228675	9370	869	0	-100	0	230	101300000	1000	0	0	-1	450
15241235	9402	882	0	-100	0	230	101300000	1000	0	0	-1	450
15253795	9387	872	0	-100	0	230	101300000	1000	0	0	-1	450
15266355	9387	877	0	-100	0	230	101300000	1000	0	0	-1	450
15278915	9363	868	0	-100	0	230	101300000	1000	0	0	-1	450
15291475	9351	875	0	-100	0	230	101300000	1000	0	0	-1	450
15304035	9370	869	0	-100	0	230	101300000	1000	0	0	-1	450
15316595	9390	873	0	-100	0	230	101300000	1000	0	0	-1	450
15329155	9363	877	0	-100	0	230	101300000	1000	0	0	-1	450
15341715	9399	870	0	-100	0	230	101300000	1000	0	0	-1	450
15354275	9414	878	0	-100	0	230	101300000	1000	0	0	-1	450
15366835	9404	880	0	-100	0	230	101300000	1000	0	0	-1	450
15379395	9382	869	0	-100	0	230	101300000	1000	0	0	-1	450
15391955	9407	873	0	-100	0	230	101300000	1000	0	0	-1	450
15404515	9387	876	0	-100	0	230	101300000	1000	0	0	-1	450
15417075	9388	876	0	-100	0	230	101300000	1000	0	0	-1	450
15429635	9365	871	0	-100	0	230	101300000	1000	0	0	-1	450
15442195	9395	880	0	-100	0	230	101300000	1000	0	0	-1	450
15454755	9399	870	0	-100	0	230	101300000	1000	0	0	-1	450
15467315	9388	874	0	-100	0	230	101300000	1000	0	0	-1	450
15479875	9390	875	0	-100	0	230	101300000	1000	0	0	-1	450
15492435	9399	871	0	-100	0	230	101300000	1000	0	0	-1	450
15504995	9346	866	0	-100	0	230	101300000	1000	0	0	-1	450
15517555	9375	874	0	-100	0	230	101300000	1000	0	0	-1	450
15530115	9395	881	0	-100	0	230	101300000	1000	0	0	-1	450
15542675	9394	875	0	-100	0	230	101300000	1000	0	0	-1	450
15555235	9428	884	0	-100	0	230	101300000	1000	0	0	-1	450
15567795	9404	873	0	-100	0	230	101300000	1000	0	0	-1	450
15580355	9397	880	0	-100	0	230	101300000	1000	0	0	-1	450
15592915	9402	874	0	-100	0	230	101300000	1000	0	0	-1	450
15605475	9360	876	0	-100	0	230	101300000	1000	0	0	-1	450
15618035	9351	864	0	-100	0	230	101300000	1000	0	0	-1	450
15630595	9382	879	0	-100	0	230	101300000	1000	0	0	-1	450
15643155	9404	873	0	-100	0	230	101300000	1000	0	0	-1	450
15655715	9397	882	0	-100	0	230	101300000	1000	0	0	-1	450
15668275	9367	869	0	-100	0	230	101300000	1000	0	0	-1	450
15680835	9387	875	0	-100	0	230	101300000	1000	0	0	-1	450
15693395	9385	871	0	-100	0	230	101300000	1000	0	0	-1	450
15705955	9385	877	0	-100	0	230	101300000	1000	0	0	-1	450
15718515	9371	871	0	-100	0	230	101300000	1000	0	0	-1	450
15731075	9392	884	0	-100	0	230	101300000	1000	0	0	-1	450
15743635	9409	875	0	-100	0	230	101300000	1000	0	0	-1	450
15756195	9399	880	0	-100	0	230	101300000	1000	0	0	-1	450
15768755	9365	869	0	-100	0	230	101300000	1000	0	0	-1	450
15781315	9378	870	0	-100	0	230	101300000	1000	0	0	-1	450
15793875	9375	879	0	-100	0	230	101300000	1000	0	0	-1	450
15806435	9409	872	0	-100	0	230	101300000	1000	0	0	-1	450
15818995	9363	871	0	-100	0	230	101300000	1000	0	0	-1	450
15831555	9395	875	0	-100	0	230	101300000	1000	0	0	-1	450
15844115	9385	870	0	-100	0	230	101300000	1000	0	0	-1	450
15856675	9385	881	0	-100	0	230	101300000	1000	0	0	-1	450
15869235	9392	872	0	-100	0	230	101300000	1000	0	0	-1	450
15881795	9385	874	0	-100	0	230	101300000	1000	0	0	-1	450
15894355	9409	885	0	-100	0	230	101300000	1000	0	0	-1	450
15906915	9389	876	0	-100	0	230	101300000	1000	0	0	-1	450
15919475	9387	867	0	-100	0	230	101300000	1000	0	0	-1	450
15932035	9380	875	0	-100	0	230	101300000	1000	0	0	-1	450
15944595	9395	884	0	-100	0	230	101300000	1000	0	0	-1	450
15957155	9417	877	0	-100	0	230	101300000	1000	0	0	-1	450
15969715	9392	873	0	-100	0	230	101300000	1000	0	0	-1	450
15982275	9363	875	0	-100	0	230	101300000	1000	0	0	-1	450
15994835	9404	878	0	-100	0	230	101300000	1000	0	0	-1	450
16007395	9400	875	0	-100	0	230	101300000	1000	0	0	-1	450
16019955	9382	875	0	-100	0	230	101300000	1000	0	0	-1	450
16032515	9382	877	0	-100	0	230	101300000	1000	0	0	-1	450
16045075	9380	868	0	-100	0	230	101300000	1000	0	0	-1	450
16057635	9399	876	0	-100	0	230	101300000	1000	0	0	-1	450
16070195	9366	875	0	-100	0	230	101300000	1000	0	0	-1	450
16082755	9399	874	0	-100	0	230	101300000	1000	0	0	-1	450
16095315	9414	875	0	-100	0	230	101300000	1000	0	0	-1	450
16107875	9411	872	0	-100	0	230	101300000	1000	0	0	-1	450
16120435	9419	886	0	-100	0	230	101300000	1000	0	0	-1	450
16132995	9421	881	0	-100	0	230	101300000	1000	0	0	-1	450
16145555	9416	875	0	-100	0	230	101300000	1000	0	0	-1	450
16158115	9396	880	0	-100	0	230	101300000	1000	0	0	-1	450
16170675	9399	879	0	-100	0	230	101300000	1000	0	0	-1	450
16183235	9370	871	0	-100	0	230	101300000	1000	0	0	-1	450
16195795	9399	878	0	-100	0	230	101300000	1000	0	0	-1	450
16208355	9417	881	0	-100	0	230	101300000	1000	0	0	-1	450
16220915	9385	871	0	-100	0	230	101300000	1000	0	0	-1	450
16233475	9421	875	0	-100	0	230	101300000	1000	0	0	-1	450
16246035	9365	878	0	-100	0	230	101300000	1000	0	0	-1	450
16258595	9353	870	0	-100	0	230	101300000	1000	0	0	-1	450
16271155	9365	871	0	-100	0	230	101300000	1000	0	0	-1	450
16283715	9387	883	0	-100	0	230	101300000	1000	0	0	-1	450
16296275	9378	872	0	-100	0	230	101300000	1000	0	0	-1	450
16308835	9387	870	0	-100	0	230	101300000	1000	0	0	-1	450
16321395	9388	883	0	-100	0	230	101300000	1000	0	0	-1	450
16333955	9414	878	0	-100	0	230	101300000	1000	0	0	-1	450
16346515	9344	875	0	-100	0	230	101300000	1000	0	0	-1	450
16359075	9348	864	0	-100	0	230	101300000	1000	0	0	-1	450
16371635	9382	875	0	-100	0	230	101300000	1000	0	0	-1	450
16384195	9383	876	0	-100	0	230	101300000	1000	0	0	-1	450
16396755	9370	871	0	-100	0	230	101300000	1000	0	0	-1	450
16409315	9387	880	0	-100	0	230	101300000	1000	0	0	-1	450
16421875	9388	873	0	-100	0	230	101300000	1000	0	0	-1	450
16434435	9387	873	0	-100	0	230	101300000	1000	0	0	-1	450
16446995	9346	866	0	-100	0	230	101300000	1000	0	0	-1	450
16459555	9419	877	0	-100	0	230	101300000	1000	0	0	-1	450
16472115	9397	873	0	-100	0	230	101300000	1000	0	0	-1	450
16484675	9377	878	0	-100	0	230	101300000	1000	0	0	-1	450
16497235	9392	866	0	-100	0	230	101300000	1000	0	0	-1	450
16509795	9375	877	0	-100	0	230	101300000	1000	0	0	-1	450
16522355	9365	874	0	-100	0	230	101300000	1000	0	0	-1	450
16534915	9346	866	0	-100	0	230	101300000	1000	0	0	-1	450
16547475	9385	873	0	-100	0	230	101300000	1000	0	0	-1	450
16560035	9360	873	0	-100	0	230	101300000	1000	0	0	-1	450
16572595	9387	871	0	-100	0	230	101300000	1000	0	0	-1	450
16585155	9378	875	0	-100	0	230	101300000	1000	0	0	-1	450
16597715	9377	876	0	-100	0	230	101300000	1000	0	0	-1	450
16610275	9409	873	0	-100	0	230	101300000	1000	0	0	-1	450
16622835	9380	868	0	-100	0	230	101300000	1000	0	0	-1	450
16635395	9421	883	0	-100	0	230	101300000	1000	0	0	-1	450
16647955	9433	881	0	-100	0	230	101300000	1000	0	0	-1	450
16660515	9402	872	0	-100	0	230	101300000	1000	0	0	-1	450
16673075	9365	875	0	-100	0	230	101300000	1000	0	0	-1	450
16685635	9380	878	0	-100	0	230	101300000	1000	0	0	-1	450
16698195	9426	877	0	-100	0	230	101300000	1000	0	0	-1	450
16710755	9402	872	0	-100	0	230	101300000	1000	0	0	-1	450
16723315	9409	881	0	-100	0	230	101300000	1000	0	0	-1	450
16735875	9431	876	0	-100	0	230	101300000	1000	0	0	-1	450
16748435	9402	877	0	-100	0	230	101300000	1000	0	0	-1	450
16760995	9433	879	0	-100	0	230	101300000	1000	0	0	-1	450
16773555	9407	875	0	-100	0	230	101300000	1000	0	0	-1	450
16786115	9383	872	0	-100	0	230	101300000	1000	0	0	-1	450
16798675	9385	881	0	-100	0	230	101300000	1000	0	0	-1	450
16811235	9358	872	0	-100	0	230	101300000	1000	0	0	-1	450
16823795	9365	870	0	-100	0	230	101300000	1000	0	0	-1	450
16836355	9360	874	0	-100	0	230	101300000	1000	0	0	-1	450
16848915	9372	878	0	-100	0	230	101300000	1000	0	0	-1	450
16861475	9414	873	0	-100	0	230	101300000	1000	0	0	-1	450
16874035	9378	869	0	-100	0	230	101300000	1000	0	0	-1	450
16886595	9375	879	0	-100	0	230	101300000	1000	0	0	-1	450
16899155	9361	867	0	-100	0	230	101300000	1000	0	0	-1	450
16911715	9382	869	0	-100	0	230	101300000	1000	0	0	-1	450
16924275	9394	878	0	-100	0	230	101300000	1000	0	0	-1	450
16936835	9375	871	0	-100	0	230	101300000	1000	0	0	-1	450
16949395	9407	877	0	-100	0	230	101300000	1000	0	0	-1	450
16961955	9407	883	0	-100	0	230	101300000	1000	0	0	-1	450
16974515	9429	879	0	-100	0	230	101300000	1000	0	0	-1	450
16987075	9412	872	0	-100	0	230	101300000	1000	0	0	-1	450
16999635	9414	881	0	-100	0	230	101300000	1000	0	0	-1	450
17012195	9372	866	0	-100	0	230	101300000	1000	0	0	-1	450
17024755	9372	872	0	-100	0	230	101300000	1000	0	0	-1	450
17037315	9409	876	0	-100	0	230	101300000	1000	0	0	-1	450
17049875	9426	873	0	-100	0	230	101300000	1000	0	0	-1	450
17062435	9385	876	0	-100	0	230	101300000	1000	0	0	-1	450
17074995	9385	872	0	-100	0	230	101300000	1000	0	0	-1	450
17087555	9404	870	0	-100	0	230	101300000	1000	0	0	-1	450
17100115	9431	876	0	-100	0	230	101300000	1000	0	0	-1	450
17112675	9417	876	0	-100	0	230	101300000	1000	0	0	-1	450
17125235	9372	873	0	-100	0	230	101300000	1000	0	0	-1	450
17137795	9404	880	0	-100	0	230	101300000	1000	0	0	-1	450
17150355	9355	873	0	-100	0	230	101300000	1000	0	0	-1	450
17162915	9416	876	0	-100	0	230	101300000	1000	0	0	-1	450
17175475	9392	872	0	-100	0	230	101300000	1000	0	0	-1	450
17188035	9368	868	0	-100	0	230	101300000	1000	0	0	-1	450
17200595	9387	879	0	-100	0	230	101300000	1000	0	0	-1	450
17213155	9407	879	0	-100	0	230	101300000	1000	0	0	-1	450
17225715	9429	875	0	-100	0	230	101300000	1000	0	0	-1	450
17238275	9419	871	0	-100	0	230	101300000	1000	0	0	-1	450
17250835	9400	874	0	-100	0	230	101300000	1000	0	0	-1	450
17263395	9397	878	0	-100	0	230	101300000	1000	0	0	-1	450
17275955	9419	879	0	-100	0	230	101300000	1000	0	0	-1	450
17288515	9385	877	0	-100	0	230	101300000	1000	0	0	-1	450
17301075	9397	869	0	-100	0	230	101300000	1000	0	0	-1	450
17313635	9394	872	0	-100	0	230	101300000	1000	0	0	-1	450
17326195	9407	871	0	-100	0	230	101300000	1000	0	0	-1	450
17338755	9385	875	0	-100	0	230	101300000	1000	0	0	-1	450
17351315	9385	879	0	-100	0	230	101300000	1000	0	0	-1	450
17363875	9378	873	0	-100	0	230	101300000	1000	0	0	-1	450
17376435	9392	871	0	-100	0	230	101300000	1000	0	0	-1	450
17388995	9373	876	0	-100	0	230	101300000	1000	0	0	-1	450
17401555	9424	875	0	-100	0	230	101300000	1000	0	0	-1	450
17414115	9412	875	0	-100	0	230	101300000	1000	0	0	-1	450
17426675	9397	881	0	-100	0	230	101300000	1000	0	0	-1	450
17439235	9412	880	0	-100	0	230	101300000	1000	0	0	-1	450
17451795	9385	872	0	-100	0	230	101300000	1000	0	0	-1	450
17464355	9416	878	0	-100	0	230	101300000	1000	0	0	-1	450
17476915	9407	871	0	-100	0	230	101300000	1000	0	0	-1	450
17489475	9397	878	0	-100	0	230	101300000	1000	0	0	-1	450
17502035	9441	887	0	-100	0	230	101300000	1000	0	0	-1	450
17514595	9414	876	0	-100	0	230	101300000	1000	0	0	-1	450
17527155	9377	872	0	-100	0	230	101300000	1000	0	0	-1	450
17539715	9426	876	0	-100	0	230	101300000	1000	0	0	-1	450
17552275	9407	876	0	-100	0	230	101300000	1000	0	0	-1	450
17564835	9441	890	0	-100	0	230	101300000	1000	0	0	-1	450
17577395	9380	879	0	-100	0	230	101300000	1000	0	0	-1	450
17589955	9402	883	0	-100	0	230	101300000	1000	0	0	-1	450
17602515	9453	883	0	-100	0	230	101300000	1000	0	0	-1	450
17615075	9419	876	0	-100	0	230	101300000	1000	0	0	-1	450
17627635	9390	870	0	-100	0	230	101300000	1000	0	0	-1	450
17640195	9392	872	0	-100	0	230	101300000	1000	0	0	-1	450
17652755	9375	878	0	-100	0	230	101300000	1000	0	0	-1	450
17665315	9434	877	0	-100	0	230	101300000	1000	0	0	-1	450
17677875	9377	871	0	-100	0	230	101300000	1000	0	0	-1	450
17690435	9419	882	0	-100	0	230	101300000	1000	0	0	-1	450
17702995	9394	874	0	-100	0	230	101300000	1000	0	0	-1	450
17715555	9407	875	0	-100	0	230	101300000	1000	0	0	-1	450
17728115	9401	873	0	-100	0	230	101300000	1000	0	0	-1	450
17740675	9404	876	0	-100	0	230	101300000	1000	0	0	-1	450
17753235	9394	878	0	-100	0	230	101300000	1000	0	0	-1	450
17765795	9390	876	0	-100	0	230	101300000	1000	0	0	-1	450
17778355	9438	880	0	-100	0	230	101300000	1000	0	0	-1	450
17790915	9421	876	0	-100	0	230	101300000	1000	0	0	-1	450
17803475	9436	874	0	-100	0	230	101300000	1000	0	0	-1	450
17816035	9406	881	0	-100	0	230	101300000	1000	0	0	-1	450
17828595	9395	880	0	-100	0	230	101300000	1000	0	0	-1	450
17841155	9422	878	0	-100	0	230	101300000	1000	0	0	-1	450
17853715	9404	873	0	-100	0	230	101300000	1000	0	0	-1	450
17866275	9414	877	0	-100	0	230	101300000	1000	0	0	-1	450
17878835	9406	879	0	-100	0	230	101300000	1000	0	0	-1	450
17891395	9421	875	0	-100	0	230	101300000	1000	0	0	-1	450
17903955	9404	872	0	-100	0	230	101300000	1000	0	0	-1	450
17916515	9392	876	0	-100	0	230	101300000	1000	0	0	-1	450
17929075	9397	880	0	-100	0	230	101300000	1000	0	0	-1	450
17941635	9404	877	0	-100	0	230	101300000	1000	0	0	-1	450
17954195	9436	877	0	-100	0	230	101300000	1000	0	0	-1	450
17966755	9435	876	0	-100	0	230	101300000	1000	0	0	-1	450
17979315	9412	870	0	-100	0	230	101300000	1000	0	0	-1	450
17991875	9404	880	0	-100	0	230	101300000	1000	0	0	-1	450
18004435	9380	881	0	-100	0	230	101300000	1000	0	0	-1	450
18016995	9419	882	0	-100	0	230	101300000	1000	0	0	-1	450
18029555	9411	874	0	-100	0	230	101300000	1000	0	0	-1	450
18042115	9391	870	0	-100	0	230	101300000	1000	0	0	-1	450
18054675	9414	872	0	-100	0	230	101300000	1000	0	0	-1	450
18067235	9431	886	0	-100	0	230	101300000	1000	0	0	-1	450
18079795	9428	875	0	-100	0	230	101300000	1000	0	0	-1	450
18092355	9426	873	0	-100	0	230	101300000	1000	0	0	-1	450
18104915	9433	882	0	-100	0	230	101300000	1000	0	0	-1	450
18117475	9438	878	0	-100	0	230	101300000	1000	0	0	-1	450
18130035	9443	874	0	-100	0	230	101300000	1000	0	0	-1	450
18142595	9412	879	0	-100	0	230	101300000	1000	0	0	-1	450
18155155	9387	876	0	-100	0	230	101300000	1000	0	0	-1	450
18167715	9429	875	0	-100	0	230	101300000	1000	0	0	-1	450
18180275	9445	880	0	-100	0	230	101300000	1000	0	0	-1	450
18192835	9406	884	0	-100	0	230	101300000	1000	0	0	-1	450
18205395	9399	875	0	-100	0	230	101300000	1000	0	0	-1	450
18217955	9433	874	0	-100	0	230	101300000	1000	0	0	-1	450
18230515	9416	874	0	-100	0	230	101300000	1000	0	0	-1	450
18243075	9395	879	0	-100	0	230	101300000	1000	0	0	-1	450
18255635	9409	873	0	-100	0	230	101300000	1000	0	0	-1	450
18268195	9416	875	0	-100	0	230	101300000	1000	0	0	-1	450
18280755	9446	878	0	-100	0	230	101300000	1000	0	0	-1	450
18293315	9419	880	0	-100	0	230	101300000	1000	0	0	-1	450
18305875	9433	884	0	-100	0	230	101300000	1000	0	0	-1	450
18318435	9431	876	0	-100	0	230	101300000	1000	0	0	-1	450
18330995	9462	883	0	-100	0	230	101300000	1000	0	0	-1	450
18343555	9426	874	0	-100	0	230	101300000	1000	0	0	-1	450
18356115	9399	880	0	-100	0	230	101300000	1000	0	0	-1	450
18368675	9419	880	0	-100	0	230	101300000	1000	0	0	-1	450
18381235	9421	873	0	-100	0	230	101300000	1000	0	0	-1	450
18393795	9385	872	0	-100	0	230	101300000	1000	0	0	-1	450
18406355	9385	875	0	-100	0	230	101300000	1000	0	0	-1	450
18418915	9346	870	0	-100	0	230	101300000	1000	0	0	-1	450
18431475	9404	874	0	-100	0	230	101300000	1000	0	0	-1	450
18444035	9409	876	0	-100	0	230	101300000	1000	0	0	-1	450
18456595	9387	880	0	-100	0	230	101300000	1000	0	0	-1	450
18469155	9438	874	0	-100	0	230	101300000	1000	0	0	-1	450
18481715	9407	873	0	-100	0	230	101300000	1000	0	0	-1	450
18494275	9421	882	0	-100	0	230	101300000	1000	0	0	-1	450
18506835	9421	875	0	-100	0	230	101300000	1000	0	0	-1	450
18519395	9397	873	0	-100	0	230	101300000	1000	0	0	-1	450
18531955	9383	880	0	-100	0	230	101300000	1000	0	0	-1	450
18544515	9404	875	0	-100	0	230	101300000	1000	0	0	-1	450
18557075	9438	874	0	-100	0	230	101300000	1000	0	0	-1	450
18569635	9416	877	0	-100	0	230	101300000	1000	0	0	-1	450
18582195	9401	878	0	-100	0	230	101300000	1000	0	0	-1	450
18594755	9375	869	0	-100	0	230	101300000	1000	0	0	-1	450
18607315	9434	877	0	-100	0	230	101300000	1000	0	0	-1	450
18619875	9441	885	0	-100	0	230	101300000	1000	0	0	-1	450
18632435	9394	872	0	-100	0	230	101300000	1000	0	0	-1	450
18644995	9433	878	0	-100	0	230	101300000	1000	0	0	-1	450
18657555	9368	870	0	-100	0	230	101300000	1000	0	0	-1	450
18670115	9409	881	0	-100	0	230	101300000	1000	0	0	-1	450
18682675	9407	873	0	-100	0	230	101300000	1000	0	0	-1	450
18695235	9424	873	0	-100	0	230	101300000	1000	0	0	-1	450
18707795	9446	880	0	-100	0	230	101300000	1000	0	0	-1	450
18720355	9404	875	0	-100	0	230	101300000	1000	0	0	-1	450
18732915	9431	869	0	-100	0	230	101300000	1000	0	0	-1	450
18745475	9385	871	0	-100	0	230	101300000	1000	0	0	-1	450
18758035	9404	882	0	-100	0	230	101300000	1000	0	0	-1	450
18770595	9385	877	0	-100	0	230	101300000	1000	0	0	-1	450
18783155	9394	871	0	-100	0	230	101300000	1000	0	0	-1	450
18795715	9431	877	0	-100	0	230	101300000	1000	0	0	-1	450
18808275	9404	880	0	-100	0	230	101300000	1000	0	0	-1	450
18820835	9397	874	0	-100	0	230	101300000	1000	0	0	-1	450
18833395	9416	875	0	-100	0	230	101300000	1000	0	0	-1	450
18845955	9431	878	0	-100	0	230	101300000	1000	0	0	-1	450
18858515	9422	883	0	-100	0	230	101300000	1000	0	0	-1	450
18871075	9421	876	0	-100	0	230	101300000	1000	0	0	-1	450
18883635	9378	865	0	-100	0	230	101300000	1000	0	0	-1	450
18896195	9399	878	0	-100	0	230	101300000	1000	0	0	-1	450
18908755	9400	874	0	-100	0	230	101300000	1000	0	0	-1	450
18921315	9417	874	0	-100	0	230	101300000	1000	0	0	-1	450
18933875	9404	879	0	-100	0	230	101300000	1000	0	0	-1	450
18946435	9423	873	0	-100	0	230	101300000	1000	0	0	-1	450
18958995	9407	871	0	-100	0	230	101300000	1000	0	0	-1	450
18971555	9421	881	0	-100	0	230	101300000	1000	0	0	-1	450
18984115	9419	875	0	-100	0	230	101300000	1000	0	0	-1	450
18996675	9426	875	0	-100	0	230	101300000	1000	0	0	-1	450
19009235	9392	870	0	-100	0	230	101300000	1000	0	0	-1	450
19021795	9407	879	0	-100	0	230	101300000	1000	0	0	-1	450
19034355	9414	875	0	-100	0	230	101300000	1000	0	0	-1	450
19046915	9438	878	0	-100	0	230	101300000	1000	0	0	-1	450
19059475	9406	880	0	-100	0	230	101300000	1000	0	0	-1	450
19072035	9453	880	0	-100	0	230	101300000	1000	0	0	-1	450
19084595	9423	872	0	-100	0	230	101300000	1000	0	0	-1	450
19097155	9480	887	0	-100	0	230	101300000	1000	0	0	-1	450
19109715	9469	885	0	-100	0	230	101300000	1000	0	0	-1	450
19122275	9424	872	0	-100	0	230	101300000	1000	0	0	-1	450
19134835	9406	879	0	-100	0	230	101300000	1000	0	0	-1	450
19147395	9429	884	0	-100	0	230	101300000	1000	0	0	-1	450
19159955	9419	871	0	-100	0	230	101300000	1000	0	0	-1	450
19172515	9429	877	0	-100	0	230	101300000	1000	0	0	-1	450
19185075	9416	882	0	-100	0	230	101300000	1000	0	0	-1	450
19197635	9455	877	0	-100	0	230	101300000	1000	0	0	-1	450
19210195	9423	874	0	-100	0	230	101300000	1000	0	0	-1	450
19222755	9399	878	0	-100	0	230	101300000	1000	0	0	-1	450
19235315	9407	875	0	-100	0	230	101300000	1000	0	0	-1	450
19247875	9402	872	0	-100	0	230	101300000	1000	0	0	-1	450
19260435	9399	879	0	-100	0	230	101300000	1000	0	0	-1	450
19272995	9411	880	0	-100	0	230	101300000	1000	0	0	-1	450
19285555	9404	873	0	-100	0	230	101300000	1000	0	0	-1	450
19298115	9443	876	0	-100	0	230	101300000	1000	0	0	-1	450
19310675	9375	878	0	-100	0	230	101300000	1000	0	0	-1	450
19323235	9390	874	0	-100	0	230	101300000	1000	0	0	-1	450
19335795	9416	873	0	-100	0	230	101300000	1000	0	0	-1	450
19348355	9433	885	0	-100	0	230	101300000	1000	0	0	-1	450
19360915	9431	880	0	-100	0	230	101300000	1000	0	0	-1	450
19373475	9375	866	0	-100	0	230	101300000	1000	0	0	-1	450
19386035	9378	869	0	-100	0	230	101300000	1000	0	0	-1	450
19398595	9421	883	0	-100	0	230	101300000	1000	0	0	-1	450
19411155	9450	881	0	-100	0	230	101300000	1000	0	0	-1	450
19423715	9443	876	0	-100	0	230	101300000	1000	0	0	-1	450
19436275	9387	874	0	-100	0	230	101300000	1000	0	0	-1	450
19448835	9402	873	0	-100	0	230	101300000	1000	0	0	-1	450
19461395	9409	881	0	-100	0	230	101300000	1000	0	0	-1	450
19473955	9438	875	0	-100	0	230	101300000	1000	0	0	-1	450
19486515	9402	873	0	-100	0	230	101300000	1000	0	0	-1	450
19499075	9409	879	0	-100	0	230	101300000	1000	0	0	-1	450
19511635	9409	874	0	-100	0	230	101300000	1000	0	0	-1	450
19524195	9411	875	0	-100	0	230	101300000	1000	0	0	-1	450
19536755	9419	877	0	-100	0	230	101300000	1000	0	0	-1	450
19549315	9423	872	0	-100	0	230	101300000	1000	0	0	-1	450
19561875	9416	879	0	-100	0	230	101300000	1000	0	0	-1	450
19574435	9387	876	0	-100	0	230	101300000	1000	0	0	-1	450
19586995	9414	878	0	-100	0	230	101300000	1000	0	0	-1	450
19599555	9368	874	0	-100	0	230	101300000	1000	0	0	-1	450
19612115	9409	875	0	-100	0	230	101300000	1000	0	0	-1	450
19624675	9389	874	0	-100	0	230	101300000	1000	0	0	-1	450
19637235	9419	882	0	-100	0	230	101300000	1000	0	0	-1	450
19649795	9421	873	0	-100	0	230	101300000	1000	0	0	-1	450
19662355	9424	877	0	-100	0	230	101300000	1000	0	0	-1	450
19674915	9390	876	0	-100	0	230	101300000	1000	0	0	-1	450
19687475	9414	874	0	-100	0	230	101300000	1000	0	0	-1	450
19700035	9438	873	0	-100	0	230	101300000	1000	0	0	-1	450
19712595	9428	874	0	-100	0	230	101300000	1000	0	0	-1	450
19725155	9370	873	0	-100	0	230	101300000	1000	0	0	-1	450
19737715	9402	882	0	-100	0	230	101300000	1000	0	0	-1	450
19750275	9426	876	0	-100	0	230	101300000	1000	0	0	-1	450
19762835	9424	873	0	-100	0	230	101300000	1000	0	0	-1	450
19775395	9417	872	0	-100	0	230	101300000	1000	0	0	-1	450
19787955	9394	877	0	-100	0	230	101300000	1000	0	0	-1	450
19800515	9380	870	0	-100	0	230	101300000	1000	0	0	-1	450
19813075	9450	876	0	-100	0	230	101300000	1000	0	0	-1	450
19825635	9392	872	0	-100	0	230	101300000	1000	0	0	-1	450
19838195	9416	882	0	-100	0	230	101300000	1000	0	0	-1	450
19850755	9436	873	0	-100	0	230	101300000	1000	0	0	-1	450
19863315	9435	871	0	-100	0	230	101300000	1000	0	0	-1	450
19875875	9465	884	0	-100	0	230	101300000	1000	0	0	-1	450
19888435	9411	871	0	-100	0	230	101300000	1000	0	0	-1	450
19900995	9416	873	0	-100	0	230	101300000	1000	0	0	-1	450
19913555	9406	883	0	-100	0	230	101300000	1000	0	0	-1	450
19926115	9411	880	0	-100	0	230	101300000	1000	0	0	-1	450
19938675	9445	881	0	-100	0	230	101300000	1000	0	0	-1	450
19951235	9438	874	0	-100	0	230	101300000	1000	0	0	-1	450
19963795	9423	873	0	-100	0	230	101300000	1000	0	0	-1	450
19976355	9417	877	0	-100	0	230	101300000	1000	0	0	-1	450
19988915	9372	875	0	-100	0	230	101300000	1000	0	0	-1	450
20001475	9446	883	0	-100	0	230	101300000	1000	0	0	-1	450
20014035	9394	879	0	-100	0	230	101300000	1000	0	0	-1	450
20026595	9406	874	0	-100	0	230	101300000	1000	0	0	-1	450
20039155	9477	881	0	-100	0	230	101300000	1000	0	0	-1	450
20051715	9407	870	0	-100	0	230	101300000	1000	0	0	-1	450
20064275	9409	873	0	-100	0	230	101300000	1000	0	0	-1	450
20076835	9421	873	0	-100	0	230	101300000	1000	0	0	-1	450
20089395	9426	878	0	-100	0	230	101300000	1000	0	0	-1	450
20101955	9402	879	0	-100	0	230	101300000	1000	0	0	-1	450
20114515	9426	879	0	-100	0	230	101300000	1000	0	0	-1	450
20127075	9412	874	0	-100	0	230	101300000	1000	0	0	-1	450
20139635	9416	872	0	-100	0	230	101300000	1000	0	0	-1	450
20152195	9399	870	0	-100	0	230	101300000	1000	0	0	-1	450
20164755	9375	868	0	-100	0	230	101300000	1000	0	0	-1	450
20177315	9409	871	0	-100	0	230	101300000	1000	0	0	-1	450
20189875	9395	875	0	-100	0	230	101300000	1000	0	0	-1	450
20202435	9414	877	0	-100	0	230	101300000	1000	0	0	-1	450
20214995	9431	873	0	-100	0	230	101300000	1000	0	0	-1	450
20227555	9407	881	0	-100	0	230	101300000	1000	0	0	-1	450
20240115	9394	875	0	-100	0	230	101300000	1000	0	0	-1	450
20252675	9397	869	0	-100	0	230	101300000	1000	0	0	-1	450
20265235	9423	875	0	-100	0	230	101300000	1000	0	0	-1	450
20277795	9426	876	0	-100	0	230	101300000	1000	0	0	-1	450
20290355	9445	883	0	-100	0	230	101300000	1000	0	0	-1	450
20302915	9433	876	0	-100	0	230	101300000	1000	0	0	-1	450
20315475	9445	876	0	-100	0	230	101300000	1000	0	0	-1	450
20328035	9457	877	0	-100	0	230	101300000	1000	0	0	-1	450
20340595	9467	880	0	-100	0	230	101300000	1000	0	0	-1	450
20353155	9455	877	0	-100	0	230	101300000	1000	0	0	-1	450
20365715	9431	875	0	-100	0	230	101300000	1000	0	0	-1	450
20378275	9426	872	0	-100	0	230	101300000	1000	0	0	-1	450
20390835	9448	873	0	-100	0	230	101300000	1000	0	0	-1	450
20403395	9445	877	0	-100	0	230	101300000	1000	0	0	-1	450
20415955	9458	879	0	-100	0	230	101300000	1000	0	0	-1	450
20428515	9436	871	0	-100	0	230	101300000	1000	0	0	-1	450
20441075	9467	878	0	-100	0	230	101300000	1000	0	0	-1	450
20453635	9397	870	0	-100	0	230	101300000	1000	0	0	-1	450
20466195	9402	881	0	-100	0	230	101300000	1000	0	0	-1	450
20478755	9418	879	0	-100	0	230	101300000	1000	0	0	-1	450
20491315	9409	873	0	-100	0	230	101300000	1000	0	0	-1	450
20503875	9416	872	0	-100	0	230	101300000	1000	0	0	-1	450
20516435	9411	872	0	-100	0	230	101300000	1000	0	0	-1	450
20528995	9445	876	0	-100	0	230	101300000	1000	0	0	-1	450
20541555	9443	880	0	-100	0	230	101300000	1000	0	0	-1	450
20554115	9389	877	0	-100	0	230	101300000	1000	0	0	-1	450
20566675	9433	880	0	-100	0	230	101300000	1000	0	0	-1	450
20579235	9411	874	0	-100	0	230	101300000	1000	0	0	-1	450
20591795	9428	875	0	-100	0	230	101300000	1000	0	0	-1	450
20604355	9392	867	0	-100	0	230	101300000	1000	0	0	-1	450
20616915	9436	873	0	-100	0	230	101300000	1000	0	0	-1	450
20629475	9404	872	0	-100	0	230	101300000	1000	0	0	-1	450
20642035	9443	880	0	-100	0	230	101300000	1000	0	0	-1	450
20654595	9460	885	0	-100	0	230	101300000	1000	0	0	-1	450
20667155	9387	880	0	-100	0	230	101300000	1000	0	0	-1	450
20679715	9460	883	0	-100	0	230	101300000	1000	0	0	-1	450
20692275	9472	882	0	-100	0	230	101300000	1000	0	0	-1	450
20704835	9463	875	0	-100	0	230	101300000	1000	0	0	-1	450
20717395	9443	873	0	-100	0	230	101300000	1000	0	0	-1	450
20729955	9428	881	0	-100	0	230	101300000	1000	0	0	-1	450
20742515	9431	883	0	-100	0	230	101300000	1000	0	0	-1	450
20755075	9412	878	0	-100	0	230	101300000	1000	0	0	-1	450
20767635	9428	876	0	-100	0	230	101300000	1000	0	0	-1	450
20780195	9465	879	0	-100	0	230	101300000	1000	0	0	-1	450
20792755	9474	878	0	-100	0	230	101300000	1000	0	0	-1	450
20805315	9477	881	0	-100	0	230	101300000	1000	0	0	-1	450
20817875	9435	881	0	-100	0	230	101300000	1000	0	0	-1	450
20830435	9431	878	0	-100	0	230	101300000	1000	0	0	-1	450
20842995	9383	869	0	-100	0	230	101300000	1000	0	0	-1	450
20855555	9412	878	0	-100	0	230	101300000	1000	0	0	-1	450
20868115	9414	876	0	-100	0	230	101300000	1000	0	0	-1	450
20880675	9433	874	0	-100	0	230	101300000	1000	0	0	-1	450
20893235	9433	879	0	-100	0	230	101300000	1000	0	0	-1	450
20905795	9431	883	0	-100	0	230	101300000	1000	0	0	-1	450
20918355	9429	876	0	-100	0	230	101300000	1000	0	0	-1	450
20930915	9421	872	0	-100	0	230	101300000	1000	0	0	-1	450
20943475	9431	876	0	-100	0	230	101300000	1000	0	0	-1	450
20956035	9397	870	0	-100	0	230	101300000	1000	0	0	-1	450
20968595	9346	870	0	-100	0	230	101300000	1000	0	0	-1	450
20981155	9455	886	0	-100	0	230	101300000	1000	0	0	-1	450
20993715	9428	879	0	-100	0	230	101300000	1000	0	0	-1	450
21006275	9448	876	0	-100	0	230	101300000	1000	0	0	-1	450
21018835	9426	874	0	-100	0	230	101300000	1000	0	0	-1	450
21031395	9431	875	0	-100	0	230	101300000	1000	0	0	-1	450
21043955	9390	875	0	-100	0	230	101300000	1000	0	0	-1	450
21056515	9433	881	0	-100	0	230	101300000	1000	0	0	-1	450
21069075	9475	890	0	-100	0	230	101300000	1000	0	0	-1	450
21081635	9404	879	0	-100	0	230	101300000	1000	0	0	-1	450
21094195	9433	884	0	-100	0	230	101300000	1000	0	0	-1	450
21106755	9421	881	0	-100	0	230	101300000	1000	0	0	-1	450
21119315	9400	876	0	-100	0	230	101300000	1000	0	0	-1	450
21131875	9404	875	0	-100	0	230	101300000	1000	0	0	-1	450
21144435	9378	868	0	-100	0	230	101300000	1000	0	0	-1	450
21156995	9429	878	0	-100	0	230	101300000	1000	0	0	-1	450
21169555	9450	881	0	-100	0	230	101300000	1000	0	0	-1	450
21182115	9423	873	0	-100	0	230	101300000	1000	0	0	-1	450
21194675	9435	877	0	-100	0	230	101300000	1000	0	0	-1	450
21207235	9431	884	0	-100	0	230	101300000	1000	0	0	-1	450
21219795	9431	877	0	-100	0	230	101300000	1000	0	0	-1	450
21232355	9418	870	0	-100	0	230	101300000	1000	0	0	-1	450
21244915	9443	878	0	-100	0	230	101300000	1000	0	0	-1	450
21257475	9445	885	0	-100	0	230	101300000	1000	0	0	-1	450
21270035	9462	875	0	-100	0	230	101300000	1000	0	0	-1	450
21282595	9406	874	0	-100	0	230	101300000	1000	0	0	-1	450
21295155	9424	870	0	-100	0	230	101300000	1000	0	0	-1	450
21307715	9470	883	0	-100	0	230	101300000	1000	0	0	-1	450
21320275	9460	876	0	-100	0	230	101300000	1000	0	0	-1	450
21332835	9465	876	0	-100	0	230	101300000	1000	0	0	-1	450
21345395	9406	875	0	-100	0	230	101300000	1000	0	0	-1	450
21357955	9414	878	0	-100	0	230	101300000	1000	0	0	-1	450
21370515	9432	875	0	-100	0	230	101300000	1000	0	0	-1	450
21383075	9409	869	0	-100	0	230	101300000	1000	0	0	-1	450
21395635	9384	876	0	-100	0	230	101300000	1000	0	0	-1	450
21408195	9436	885	0	-100	0	230	101300000	1000	0	0	-1	450
21420755	9399	877	0	-100	0	230	101300000	1000	0	0	-1	450
21433315	9448	878	0	-100	0	230	101300000	1000	0	0	-1	450
21445875	9448	876	0	-100	0	230	101300000	1000	0	0	-1	450
21458435	9428	870	0	-100	0	230	101300000	1000	0	0	-1	450
21470995	9414	871	0	-100	0	230	101300000	1000	0	0	-1	450
21483555	9431	879	0	-100	0	230	101300000	1000	0	0	-1	450
21496115	9436	882	0	-100	0	230	101300000	1000	0	0	-1	450
21508675	9433	876	0	-100	0	230	101300000	1000	0	0	-1	450
21521235	9438	873	0	-100	0	230	101300000	1000	0	0	-1	450
21533795	9414	880	0	-100	0	230	101300000	1000	0	0	-1	450
21546355	9443	873	0	-100	0	230	101300000	1000	0	0	-1	450
21558915	9404	870	0	-100	0	230	101300000	1000	0	0	-1	450
21571475	9453	883	0	-100	0	230	101300000	1000	0	0	-1	450
21584035	9467	878	0	-100	0	230	101300000	1000	0	0	-1	450
21596595	9460	880	0	-100	0	230	101300000	1000	0	0	-1	450
21609155	9445	882	0	-100	0	230	101300000	1000	0	0	-1	450
21621715	9429	870	0	-100	0	230	101300000	1000	0	0	-1	450
21634275	9438	882	0	-100	0	230	101300000	1000	0	0	-1	450
21646835	9419	875	0	-100	0	230	101300000	1000	0	0	-1	450
21659395	9438	874	0	-100	0	230	101300000	1000	0	0	-1	450
21671955	9455	884	0	-100	0	230	101300000	1000	0	0	-1	450
21684515	9423	875	0	-100	0	230	101300000	1000	0	0	-1	450
21697075	9419	881	0	-100	0	230	101300000	1000	0	0	-1	450
21709635	9431	877	0	-100	0	230	101300000	1000	0	0	-1	450
21722195	9416	869	0	-100	0	230	101300000	1000	0	0	-1	450
21734755	9392	879	0	-100	0	230	101300000	1000	0	0	-1	450
21747315	9445	876	0	-100	0	230	101300000	1000	0	0	-1	450
21759875	9426	876	0	-100	0	230	101300000	1000	0	0	-1	450
21772435	9433	881	0	-100	0	230	101300000	1000	0	0	-1	450
21784995	9424	877	0	-100	0	230	101300000	1000	0	0	-1	450
21797555	9406	869	0	-100	0	230	101300000	1000	0	0	-1	450
21810115	9445	880	0	-100	0	230	101300000	1000	0	0	-1	450
21822675	9402	878	0	-100	0	230	101300000	1000	0	0	-1	450
21835235	9440	873	0	-100	0	230	101300000	1000	0	0	-1	450
21847795	9450	878	0	-100	0	230	101300000	1000	0	0	-1	450
21860355	9423	896	0	-100	0	230	101300000	1000	0	0	-1	450
21872915	9436	845	0	-100	0	230	101300000	1000	0	0	-1	450
21885475	9442	888	0	-100	0	230	101300000	1000	0	0	-1	450
21898035	9446	870	0	-100	0	230	101300000	1000	0	0	-1	450
21910595	9406	846	0	-100	0	230	101300000	1000	0	0	-1	450
21923155	9412	862	0	-100	0	230	101300000	1000	0	0	-1	450
21935715	9424	847	0	-100	0	230	101300000	1000	0	0	-1	450
21948275	9424	871	0	-100	0	230	101300000	1000	0	0	-1	450
21960835	9419	888	0	-100	0	230	101300000	1000	0	0	-1	450
21973395	9465	866	0	-100	0	230	101300000	1000	0	0	-1	450
21985955	9467	884	0	-100	0	230	101300000	1000	0	0	-1	450
21998515	9453	869	0	-100	0	230	101300000	1000	0	0	-1	450
22011075	9480	875	0	-100	0	230	101300000	1000	0	0	-1	450
22023635	9442	881	0	-100	0	230	101300000	1000	0	0	-1	450
22036195	9469	865	0	-100	0	230	101300000	1000	0	0	-1	450
22048755	9487	880	0	-100	0	230	101300000	1000	0	0	-1	450
22061315	9474	884	0	-100	0	230	101300000	1000	0	0	-1	450
22073875	9475	867	0	-100	0	230	101300000	1000	0	0	-1	450
22086435	9443	880	0	-100	0	230	101300000	1000	0	0	-1	450
22098995	9445	877	0	-100	0	230	101300000	1000	0	0	-1	450
22111555	9431	862	0	-100	0	230	101300000	1000	0	0	-1	450
22124115	9448	882	0	-100	0	230	101300000	1000	0	0	-1	450
22136675	9460	860	0	-100	0	230	101300000	1000	0	0	-1	450
22149235	9428	858	0	-100	0	230	101300000	1000	0	0	-1	450
22161795	9419	879	0	-100	0	230	101300000	1000	0	0	-1	450
22174355	9460	852	0	-100	0	230	101300000	1000	0	0	-1	450
22186915	9460	865	0	-100	0	230	101300000	1000	0	0	-1	450
22199475	9411	880	0	-100	0	230	101300000	1000	0	0	-1	450
22212035	9424	869	0	-100	0	230	101300000	1000	0	0	-1	450
22224595	9453	885	0	-100	0	230	101300000	1000	0	0	-1	450
22237155	9446	872	0	-100	0	230	101300000	1000	0	0	-1	450
22249715	9482	860	0	-100	0	230	101300000	1000	0	0	-1	450
22262275	9435	888	0	-100	0	230	101300000	1000	0	0	-1	450
22274835	9446	864	0	-100	0	230	101300000	1000	0	0	-1	450
22287395	9445	881	0	-100	0	230	101300000	1000	0	0	-1	450
22299955	9496	882	0	-100	0	230	101300000	1000	0	0	-1	450
22312515	9458	859	0	-100	0	230	101300000	1000	0	0	-1	450
22325075	9445	876	0	-100	0	230	101300000	1000	0	0	-1	450
22337635	9436	865	0	-100	0	230	101300000	1000	0	0	-1	450
22350195	9469	862	0	-100	0	230	101300000	1000	0	0	-1	450
22362755	9446	879	0	-100	0	230	101300000	1000	0	0	-1	450
22375315	9433	854	0	-100	0	230	101300000	1000	0	0	-1	450
22387875	9419	859	0	-100	0	230	101300000	1000	0	0	-1	450
22400435	9450	886	0	-100	0	230	101300000	1000	0	0	-1	450
22412995	9453	860	0	-100	0	230	101300000	1000	0	0	-1	450
22425555	9433	880	0	-100	0	230	101300000	1000	0	0	-1	450
22438115	9455	872	0	-100	0	230	101300000	1000	0	0	-1	450
22450675	9445	857	0	-100	0	230	101300000	1000	0	0	-1	450
22463235	9499	892	0	-100	0	230	101300000	1000	0	0	-1	450
22475795	9436	869	0	-100	0	230	101300000	1000	0	0	-1	450
22488355	9397	855	0	-100	0	230	101300000	1000	0	0	-1	450
22500915	9455	871	0	-100	0	230	101300000	1000	0	0	-1	450
22513475	9474	862	0	-100	0	230	101300000	1000	0	0	-1	450
22526035	9455	877	0	-100	0	230	101300000	1000	0	0	-1	450
22538595	9423	878	0	-100	0	230	101300000	1000	0	0	-1	450
22551155	9465	861	0	-100	0	230	101300000	1000	0	0	-1	450
22563715	9428	875	0	-100	0	230	101300000	1000	0	0	-1	450
22576275	9414	869	0	-100	0	230	101300000	1000	0	0	-1	450
22588835	9445	871	0	-100	0	230	101300000	1000	0	0	-1	450
22601395	9463	887	0	-100	0	230	101300000	1000	0	0	-1	450
22613955	9469	867	0	-100	0	230	101300000	1000	0	0	-1	450
22626515	9487	875	0	-100	0	230	101300000	1000	0	0	-1	450
22639075	9450	875	0	-100	0	230	101300000	1000	0	0	-1	450
22651635	9443	869	0	-100	0	230	101300000	1000	0	0	-1	450
22664195	9494	880	0	-100	0	230	101300000	1000	0	0	-1	450
22676755	9460	863	0	-100	0	230	101300000	1000	0	0	-1	450
22689315	9477	872	0	-100	0	230	101300000	1000	0	0	-1	450
22701875	9438	878	0	-100	0	230	101300000	1000	0	0	-1	450
22714435	9457	853	0	-100	0	230	101300000	1000	0	0	-1	450
22726995	9464	878	0	-100	0	230	101300000	1000	0	0	-1	450
22739555	9455	880	0	-100	0	230	101300000	1000	0	0	-1	450
22752115	9426	868	0	-100	0	230	101300000	1000	0	0	-1	450
22764675	9436	882	0	-100	0	230	101300000	1000	0	0	-1	450
22777235	9428	872	0	-100	0	230	101300000	1000	0	0	-1	450
22789795	9394	861	0	-100	0	230	101300000	1000	0	0	-1	450
22802355	9450	889	0	-100	0	230	101300000	1000	0	0	-1	450
22814915	9423	870	0	-100	0	230	101300000	1000	0	0	-1	450
22827475	9460	870	0	-100	0	230	101300000	1000	0	0	-1	450
22840035	9431	868	0	-100	0	230	101300000	1000	0	0	-1	450
22852595	9445	867	0	-100	0	230	101300000	1000	0	0	-1	450
22865155	9474	889	0	-100	0	230	101300000	1000	0	0	-1	450
22877715	9421	863	0	-100	0	230	101300000	1000	0	0	-1	450
22890275	9428	859	0	-100	0	230	101300000	1000	0	0	-1	450
22902835	9460	888	0	-100	0	230	101300000	1000	0	0	-1	450
22915395	9474	870	0	-100	0	230	101300000	1000	0	0	-1	450
22927955	9501	873	0	-100	0	230	101300000	1000	0	0	-1	450
22940515	9477	881	0	-100	0	230	101300000	1000	0	0	-1	450
22953075	9460	865	0	-100	0	230	101300000	1000	0	0	-1	450
22965635	9470	883	0	-100	0	230	101300000	1000	0	0	-1	450
22978195	9438	869	0	-100	0	230	101300000	1000	0	0	-1	450
22990755	9433	858	0	-100	0	230	101300000	1000	0	0	-1	450
23003315	9419	887	0	-100	0	230	101300000	1000	0	0	-1	450
23015875	9465	865	0	-100	0	230	101300000	1000	0	0	-1	450
23028435	9470	870	0	-100	0	230	101300000	1000	0	0	-1	450
23040995	9499	881	0	-100	0	230	101300000	1000	0	0	-1	450
23053555	9411	864	0	-100	0	230	101300000	1000	0	0	-1	450
23066115	9446	887	0	-100	0	230	101300000	1000	0	0	-1	450
23078675	9445	872	0	-100	0	230	101300000	1000	0	0	-1	450
23091235	9457	856	0	-100	0	230	101300000	1000	0	0	-1	450
23103795	9438	877	0	-100	0	230	101300000	1000	0	0	-1	450
23116355	9419	869	0	-100	0	230	101300000	1000	0	0	-1	450
23128915	9414	866	0	-100	0	230	101300000	1000	0	0	-1	450
23141475	9460	870	0	-100	0	230	101300000	1000	0	0	-1	450
23154035	9404	858	0	-100	0	230	101300000	1000	0	0	-1	450
23166595	9438	869	0	-100	0	230	101300000	1000	0	0	-1	450
23179155	9438	865	0	-100	0	230	101300000	1000	0	0	-1	450
23191715	9443	854	0	-100	0	230	101300000	1000	0	0	-1	450
23204275	9392	879	0	-100	0	230	101300000	1000	0	0	-1	450
23216835	9419	863	0	-100	0	230	101300000	1000	0	0	-1	450
23229395	9472	873	0	-100	0	230	101300000	1000	0	0	-1	450
23241955	9450	885	0	-100	0	230	101300000	1000	0	0	-1	450
23254515	9455	857	0	-100	0	230	101300000	1000	0	0	-1	450
23267075	9451	882	0	-100	0	230	101300000	1000	0	0	-1	450
23279635	9458	878	0	-100	0	230	101300000	1000	0	0	-1	450
23292195	9470	855	0	-100	0	230	101300000	1000	0	0	-1	450
23304755	9426	881	0	-100	0	230	101300000	1000	0	0	-1	450
23317315	9457	871	0	-100	0	230	101300000	1000	0	0	-1	450
23329875	9474	863	0	-100	0	230	101300000	1000	0	0	-1	450
23342435	9474	873	0	-100	0	230	101300000	1000	0	0	-1	450
23354995	9472	864	0	-100	0	230	101300000	1000	0	0	-1	450
23367555	9399	861	0	-100	0	230	101300000	1000	0	0	-1	450
23380115	9418	872	0	-100	0	230	101300000	1000	0	0	-1	450
23392675	9406	873	0	-100	0	230	101300000	1000	0	0	-1	450
23405235	9428	872	0	-100	0	230	101300000	1000	0	0	-1	450
23417795	9460	887	0	-100	0	230	101300000	1000	0	0	-1	450
23430355	9472	877	0	-100	0	230	101300000	1000	0	0	-1	450
23442915	9438	875	0	-100	0	230	101300000	1000	0	0	-1	450
23455475	9401	871	0	-100	0	230	101300000	1000	0	0	-1	450
23468035	9438	876	0	-100	0	230	101300000	1000	0	0	-1	450
23480595	9416	878	0	-100	0	230	101300000	1000	0	0	-1	450
23493155	9424	881	0	-100	0	230	101300000	1000	0	0	-1	450
23505715	9462	876	0	-100	0	230	101300000	1000	0	0	-1	450
23518275	9440	875	0	-100	0	230	101300000	1000	0	0	-1	450
23530835	9429	877	0	-100	0	230	101300000	1000	0	0	-1	450
23543395	9443	880	0	-100	0	230	101300000	1000	0	0	-1	450
23555955	9414	872	0	-100	0	230	101300000	1000	0	0	-1	450
23568515	9433	873	0	-100	0	230	101300000	1000	0	0	-1	450
23581075	9423	877	0	-100	0	230	101300000	1000	0	0	-1	450
23593635	9428	882	0	-100	0	230	101300000	1000	0	0	-1	450
23606195	9465	880	0	-100	0	230	101300000	1000	0	0	-1	450
23618755	9460	878	0	-100	0	230	101300000	1000	0	0	-1	450
23631315	9472	883	0	-100	0	230	101300000	1000	0	0	-1	450
23643875	9455	878	0	-100	0	230	101300000	1000	0	0	-1	450
23656435	9455	873	0	-100	0	230	101300000	1000	0	0	-1	450
23668995	9470	876	0	-100	0	230	101300000	1000	0	0	-1	450
23681555	9380	877	0	-100	0	230	101300000	1000	0	0	-1	450
23694115	9440	875	0	-100	0	230	101300000	1000	0	0	-1	450
23706675	9460	884	0	-100	0	230	101300000	1000	0	0	-1	450
23719235	9469	879	0	-100	0	230	101300000	1000	0	0	-1	450
23731795	9445	874	0	-100	0	230	101300000	1000	0	0	-1	450
23744355	9451	883	0	-100	0	230	101300000	1000	0	0	-1	450
23756915	9413	875	0	-100	0	230	101300000	1000	0	0	-1	450
23769475	9445	878	0	-100	0	230	101300000	1000	0	0	-1	450
23782035	9487	885	0	-100	0	230	101300000	1000	0	0	-1	450
23794595	9426	870	0	-100	0	230	101300000	1000	0	0	-1	450
23807155	9411	876	0	-100	0	230	101300000	1000	0	0	-1	450
23819715	9426	876	0	-100	0	230	101300000	1000	0	0	-1	450
23832275	9428	869	0	-100	0	230	101300000	1000	0	0	-1	450
23844835	9394	878	0	-100	0	230	101300000	1000	0	0	-1	450
23857395	9435	877	0	-100	0	230	101300000	1000	0	0	-1	450
23869955	9426	874	0	-100	0	230	101300000	1000	0	0	-1	450
23882515	9436	881	0	-100	0	230	101300000	1000	0	0	-1	450
23895075	9472	877	0	-100	0	230	101300000	1000	0	0	-1	450
23907635	9421	870	0	-100	0	230	101300000	1000	0	0	-1	450
23920195	9465	885	0	-100	0	230	101300000	1000	0	0	-1	450
23932755	9453	877	0	-100	0	230	101300000	1000	0	0	-1	450
23945315	9438	877	0	-100	0	230	101300000	1000	0	0	-1	450
23957875	9472	880	0	-100	0	230	101300000	1000	0	0	-1	450
23970435	9458	878	0	-100	0	230	101300000	1000	0	0	-1	450
23982995	9450	880	0	-100	0	230	101300000	1000	0	0	-1	450
23995555	9472	875	0	-100	0	230	101300000	1000	0	0	-1	450
24008115	9428	880	0	-100	0	230	101300000	1000	0	0	-1	450
24020675	9487	879	0	-100	0	230	101300000	1000	0	0	-1	450
24033235	9423	876	0	-100	0	230	101300000	1000	0	0	-1	450
24045795	9462	881	0	-100	0	230	101300000	1000	0	0	-1	450
24058355	9492	890	0	-100	0	230	101300000	1000	0	0	-1	450
24070915	9462	877	0	-100	0	230	101300000	1000	0	0	-1	450
24083475	9441	873	0	-100	0	230	101300000	1000	0	0	-1	450
24096035	9482	881	0	-100	0	230	101300000	1000	0	0	-1	450
24108595	9504	886	0	-100	0	230	101300000	1000	0	0	-1	450
24121155	9465	878	0	-100	0	230	101300000	1000	0	0	-1	450
24133715	9404	871	0	-100	0	230	101300000	1000	0	0	-1	450
24146275	9438	874	0	-100	0	230	101300000	1000	0	0	-1	450
24158835	9431	877	0	-100	0	230	101300000	1000	0	0	-1	450
24171395	9487	885	0	-100	0	230	101300000	1000	0	0	-1	450
24183955	9487	880	0	-100	0	230	101300000	1000	0	0	-1	450
24196515	9438	871	0	-100	0	230	101300000	1000	0	0	-1	450
24209075	9431	883	0	-100	0	230	101300000	1000	0	0	-1	450
24221635	9484	883	0	-100	0	230	101300000	1000	0	0	-1	450
24234195	9469	875	0	-100	0	230	101300000	1000	0	0	-1	450
24246755	9462	880	0	-100	0	230	101300000	1000	0	0	-1	450
24259315	9457	879	0	-100	0	230	101300000	1000	0	0	-1	450
24271875	9465	885	0	-100	0	230	101300000	1000	0	0	-1	450
24284435	9470	881	0	-100	0	230	101300000	1000	0	0	-1	450
24296995	9455	879	0	-100	0	230	101300000	1000	0	0	-1	450
24309555	9491	880	0	-100	0	230	101300000	1000	0	0	-1	450
24322115	9486	884	0	-100	0	230	101300000	1000	0	0	-1	450
24334675	9455	884	0	-100	0	230	101300000	1000	0	0	-1	450
24347235	9404	869	0	-100	0	230	101300000	1000	0	0	-1	450
24359795	9373	875	0	-100	0	230	101300000	1000	0	0	-1	450
24372355	9409	873	0	-100	0	230	101300000	1000	0	0	-1	450
24384915	9430	876	0	-100	0	230	101300000	1000	0	0	-1	450
24397475	9450	879	0	-100	0	230	101300000	1000	0	0	-1	450
24410035	9460	884	0	-100	0	230	101300000	1000	0	0	-1	450
24422595	9501	885	0	-100	0	230	101300000	1000	0	0	-1	450
24435155	9465	872	0	-100	0	230	101300000	1000	0	0	-1	450
24447715	9465	875	0	-100	0	230	101300000	1000	0	0	-1	450
24460275	9467	881	0	-100	0	230	101300000	1000	0	0	-1	450
24472835	9455	882	0	-100	0	230	101300000	1000	0	0	-1	450
24485395	9457	875	0	-100	0	230	101300000	1000	0	0	-1	450
24497955	9452	873	0	-100	0	230	101300000	1000	0	0	-1	450
24510515	9462	882	0	-100	0	230	101300000	1000	0	0	-1	450
24523075	9384	877	0	-100	0	230	101300000	1000	0	0	-1	450
24535635	9414	882	0	-100	0	230	101300000	1000	0	0	-1	450
24548195	9436	873	0	-100	0	230	101300000	1000	0	0	-1	450
24560755	9455	876	0	-100	0	230	101300000	1000	0	0	-1	450
24573315	9440	882	0	-100	0	230	101300000	1000	0	0	-1	450
24585875	9467	886	0	-100	0	230	101300000	1000	0	0	-1	450
24598435	9453	873	0	-100	0	230	101300000	1000	0	0	-1	450
24610995	9414	872	0	-100	0	230	101300000	1000	0	0	-1	450
24623555	9455	881	0	-100	0	230	101300000	1000	0	0	-1	450
24636115	9477	884	0	-100	0	230	101300000	1000	0	0	-1	450
24648675	9465	876	0	-100	0	230	101300000	1000	0	0	-1	450
24661235	9469	876	0	-100	0	230	101300000	1000	0	0	-1	450
24673795	9445	877	0	-100	0	230	101300000	1000	0	0	-1	450
24686355	9445	880	0	-100	0	230	101300000	1000	0	0	-1	450
24698915	9436	875	0	-100	0	230	101300000	1000	0	0	-1	450
24711475	9438	875	0	-100	0	230	101300000	1000	0	0	-1	450
24724035	9450	879	0	-100	0	230	101300000	1000	0	0	-1	450
24736595	9467	881	0	-100	0	230	101300000	1000	0	0	-1	450
24749155	9472	875	0	-100	0	230	101300000	1000	0	0	-1	450
24761715	9460	874	0	-100	0	230	101300000	1000	0	0	-1	450
24774275	9457	882	0	-100	0	230	101300000	1000	0	0	-1	450
24786835	9443	873	0	-100	0	230	101300000	1000	0	0	-1	450
24799395	9496	881	0	-100	0	230	101300000	1000	0	0	-1	450
24811955	9487	878	0	-100	0	230	101300000	1000	0	0	-1	450
24824515	9499	885	0	-100	0	230	101300000	1000	0	0	-1	450
24837075	9447	883	0	-100	0	230	101300000	1000	0	0	-1	450
24849635	9455	877	0	-100	0	230	101300000	1000	0	0	-1	450
24862195	9465	876	0	-100	0	230	101300000	1000	0	0	-1	450
24874755	9441	873	0	-100	0	230	101300000	1000	0	0	-1	450
24887315	9440	878	0	-100	0	230	101300000	1000	0	0	-1	450
24899875	9477	884	0	-100	0	230	101300000	1000	0	0	-1	450
24912435	9433	872	0	-100	0	230	101300000	1000	0	0	-1	450
24924995	9467	882	0	-100	0	230	101300000	1000	0	0	-1	450
24937555	9475	879	0	-100	0	230	101300000	1000	0	0	-1	450
24950115	9472	883	0	-100	0	230	101300000	1000	0	0	-1	450
24962675	9479	883	0	-100	0	230	101300000	1000	0	0	-1	450
24975235	9531	885	0	-100	0	230	101300000	1000	0	0	-1	450
24987795	9472	877	0	-100	0	230	101300000	1000	0	0	-1	450
25000355	9467	876	0	-100	0	230	101300000	1000	0	0	-1	450
25012915	9499	887	0	-100	0	230	101300000	1000	0	0	-1	450
25025475	9470	886	0	-100	0	230	101300000	1000	0	0	-1	450
25038035	9504	882	0	-100	0	230	101300000	1000	0	0	-1	450
25050595	9496	878	0	-100	0	230	101300000	1000	0	0	-1	450
25063155	9450	878	0	-100	0	230	101300000	1000	0	0	-1	450
25075715	9460	882	0	-100	0	230	101300000	1000	0	0	-1	450
25088275	9440	872	0	-100	0	230	101300000	1000	0	0	-1	450
25100835	9455	875	0	-100	0	230	101300000	1000	0	0	-1	450
25113395	9482	885	0	-100	0	230	101300000	1000	0	0	-1	450
25125955	9448	871	0	-100	0	230	101300000	1000	0	0	-1	450
25138515	9433	878	0	-100	0	230	101300000	1000	0	0	-1	450
25151075	9486	886	0	-100	0	230	101300000	1000	0	0	-1	450
25163635	9540	882	0	-100	0	230	101300000	1000	0	0	-1	450
25176195	9465	873	0	-100	0	230	101300000	1000	0	0	-1	450
25188755	9499	887	0	-100	0	230	101300000	1000	0	0	-1	450
25201315	9486	885	0	-100	0	230	101300000	1000	0	0	-1	450
25213875	9499	885	0	-100	0	230	101300000	1000	0	0	-1	450
25226435	9501	879	0	-100	0	230	101300000	1000	0	0	-1	450
25238995	9506	882	0	-100	0	230	101300000	1000	0	0	-1	450
25251555	9479	885	0	-100	0	230	101300000	1000	0	0	-1	450
25264115	9472	881	0	-100	0	230	101300000	1000	0	0	-1	450
25276675	9484	875	0	-100	0	230	101300000	1000	0	0	-1	450
25289235	9491	882	0	-100	0	230	101300000	1000	0	0	-1	450
25301795	9416	874	0	-100	0	230	101300000	1000	0	0	-1	450
25314355	9445	881	0	-100	0	230	101300000	1000	0	0	-1	450
25326915	9416	878	0	-100	0	230	101300000	1000	0	0	-1	450
25339475	9460	885	0	-100	0	230	101300000	1000	0	0	-1	450
25352035	9455	884	0	-100	0	230	101300000	1000	0	0	-1	450
25364595	9445	876	0	-100	0	230	101300000	1000	0	0	-1	450
25377155	9497	882	0	-100	0	230	101300000	1000	0	0	-1	450
25389715	9486	882	0	-100	0	230	101300000	1000	0	0	-1	450
25402275	9498	875	0	-100	0	230	101300000	1000	0	0	-1	450
25414835	9448	877	0	-100	0	230	101300000	1000	0	0	-1	450
25427395	9448	874	0	-100	0	230	101300000	1000	0	0	-1	450
25439955	9448	878	0	-100	0	230	101300000	1000	0	0	-1	450
25452515	9494	888	0	-100	0	230	101300000	1000	0	0	-1	450
25465075	9440	878	0	-100	0	230	101300000	1000	0	0	-1	450
25477635	9493	881	0	-100	0	230	101300000	1000	0	0	-1	450
25490195	9496	879	0	-100	0	230	101300000	1000	0	0	-1	450
25502755	9460	876	0	-100	0	230	101300000	1000	0	0	-1	450
25515315	9411	873	0	-100	0	230	101300000	1000	0	0	-1	450
25527875	9455	884	0	-100	0	230	101300000	1000	0	0	-1	450
25540435	9407	876	0	-100	0	230	101300000	1000	0	0	-1	450
25552995	9438	881	0	-100	0	230	101300000	1000	0	0	-1	450
25565555	9416	874	0	-100	0	230	101300000	1000	0	0	-1	450
25578115	9462	879	0	-100	0	230	101300000	1000	0	0	-1	450
25590675	9503	878	0	-100	0	230	101300000	1000	0	0	-1	450
25603235	9474	877	0	-100	0	230	101300000	1000	0	0	-1	450
25615795	9443	877	0	-100	0	230	101300000	1000	0	0	-1	450
25628355	9508	891	0	-100	0	230	101300000	1000	0	0	-1	450
25640915	9499	889	0	-100	0	230	101300000	1000	0	0	-1	450
25653475	9484	884	0	-100	0	230	101300000	1000	0	0	-1	450
25666035	9433	878	0	-100	0	230	101300000	1000	0	0	-1	450
25678595	9426	877	0	-100	0	230	101300000	1000	0	0	-1	450
25691155	9455	877	0	-100	0	230	101300000	1000	0	0	-1	450
25703715	9450	875	0	-100	0	230	101300000	1000	0	0	-1	450
25716275	9467	880	0	-100	0	230	101300000	1000	0	0	-1	450
25728835	9527	883	0	-100	0	230	101300000	1000	0	0	-1	450
25741395	9477	878	0	-100	0	230	101300000	1000	0	0	-1	450
25753955	9513	884	0	-100	0	230	101300000	1000	0	0	-1	450
25766515	9482	886	0	-100	0	230	101300000	1000	0	0	-1	450
25779075	9455	878	0	-100	0	230	101300000	1000	0	0	-1	450
25791635	9414	867	0	-100	0	230	101300000	1000	0	0	-1	450
25804195	9445	876	0	-100	0	230	101300000	1000	0	0	-1	450
25816755	9433	882	0	-100	0	230	101300000	1000	0	0	-1	450
25829315	9475	884	0	-100	0	230	101300000	1000	0	0	-1	450
25841875	9462	875	0	-100	0	230	101300000	1000	0	0	-1	450
25854435	9442	879	0	-100	0	230	101300000	1000	0	0	-1	450
25866995	9470	882	0	-100	0	230	101300000	1000	0	0	-1	450
25879555	9508	881	0	-100	0	230	101300000	1000	0	0	-1	450
25892115	9489	879	0	-100	0	230	101300000	1000	0	0	-1	450
25904675	9494	880	0	-100	0	230	101300000	1000	0	0	-1	450
25917235	9468	885	0	-100	0	230	101300000	1000	0	0	-1	450
25929795	9475	877	0	-100	0	230	101300000	1000	0	0	-1	450
25942355	9460	875	0	-100	0	230	101300000	1000	0	0	-1	450
25954915	9489	887	0	-100	0	230	101300000	1000	0	0	-1	450
25967475	9465	883	0	-100	0	230	101300000	1000	0	0	-1	450
25980035	9475	880	0	-100	0	230	101300000	1000	0	0	-1	450
25992595	9499	877	0	-100	0	230	101300000	1000	0	0	-1	450
26005155	9496	879	0	-100	0	230	101300000	1000	0	0	-1	450
26017715	9464	878	0	-100	0	230	101300000	1000	0	0	-1	450
26030275	9481	885	0	-100	0	230	101300000	1000	0	0	-1	450
26042835	9455	871	0	-100	0	230	101300000	1000	0	0	-1	450
26055395	9501	878	0	-100	0	230	101300000	1000	0	0	-1	450
26067955	9450	885	0	-100	0	230	101300000	1000	0	0	-1	450
26080515	9453	880	0	-100	0	230	101300000	1000	0	0	-1	450
26093075	9465	874	0	-100	0	230	101300000	1000	0	0	-1	450
26105635	9462	877	0	-100	0	230	101300000	1000	0	0	-1	450
26118195	9489	890	0	-100	0	230	101300000	1000	0	0	-1	450
26130755	9506	883	0	-100	0	230	101300000	1000	0	0	-1	450
26143315	9502	884	0	-100	0	230	101300000	1000	0	0	-1	450
26155875	9477	887	0	-100	0	230	101300000	1000	0	0	-1	450
26168435	9436	869	0	-100	0	230	101300000	1000	0	0	-1	450
26180995	9484	880	0	-100	0	230	101300000	1000	0	0	-1	450
26193555	9423	882	0	-100	0	230	101300000	1000	0	0	-1	450
26206115	9472	884	0	-100	0	230	101300000	1000	0	0	-1	450
26218675	9447	875	0	-100	0	230	101300000	1000	0	0	-1	450
26231235	9482	876	0	-100	0	230	101300000	1000	0	0	-1	450
26243795	9516	890	0	-100	0	230	101300000	1000	0	0	-1	450
26256355	9443	877	0	-100	0	230	101300000	1000	0	0	-1	450
26268915	9547	886	0	-100	0	230	101300000	1000	0	0	-1	450
26281475	9533	884	0	-100	0	230	101300000	1000	0	0	-1	450
26294035	9513	888	0	-100	0	230	101300000	1000	0	0	-1	450
26306595	9470	878	0	-100	0	230	101300000	1000	0	0	-1	450
26319155	9477	875	0	-100	0	230	101300000	1000	0	0	-1	450
26331715	9469	875	0	-100	0	230	101300000	1000	0	0	-1	450
26344275	9462	880	0	-100	0	230	101300000	1000	0	0	-1	450
26356835	9474	882	0	-100	0	230	101300000	1000	0	0	-1	450
26369395	9479	883	0	-100	0	230	101300000	1000	0	0	-1	450
26381955	9509	879	0	-100	0	230	101300000	1000	0	0	-1	450
26394515	9476	883	0	-100	0	230	101300000	1000	0	0	-1	450
26407075	9504	885	0	-100	0	230	101300000	1000	0	0	-1	450
26419635	9509	884	0	-100	0	230	101300000	1000	0	0	-1	450
26432195	9455	873	0	-100	0	230	101300000	1000	0	0	-1	450
26444755	9484	881	0	-100	0	230	101300000	1000	0	0	-1	450
26457315	9518	888	0	-100	0	230	101300000	1000	0	0	-1	450
26469875	9482	883	0	-100	0	230	101300000	1000	0	0	-1	450
26482435	9479	879	0	-100	0	230	101300000	1000	0	0	-1	450
26494995	9426	874	0	-100	0	230	101300000	1000	0	0	-1	450
26507555	9470	894	0	-100	0	230	101300000	1000	0	0	-1	450
26520115	9481	886	0	-100	0	230	101300000	1000	0	0	-1	450
26532675	9567	887	0	-100	0	230	101300000	1000	0	0	-1	450
26545235	9499	877	0	-100	0	230	101300000	1000	0	0	-1	450
26557795	9470	888	0	-100	0	230	101300000	1000	0	0	-1	450
26570355	9487	882	0	-100	0	230	101300000	1000	0	0	-1	450
26582915	9538	884	0	-100	0	230	101300000	1000	0	0	-1	450
26595475	9462	881	0	-100	0	230	101300000	1000	0	0	-1	450
26608035	9467	882	0	-100	0	230	101300000	1000	0	0	-1	450
26620595	9490	879	0	-100	0	230	101300000	1000	0	0	-1	450
26633155	9479	880	0	-100	0	230	101300000	1000	0	0	-1	450
26645715	9460	876	0	-100	0	230	101300000	1000	0	0	-1	450
26658275	9525	892	0	-100	0	230	101300000	1000	0	0	-1	450
26670835	9523	887	0	-100	0	230	101300000	1000	0	0	-1	450
26683395	9537	883	0	-100	0	230	101300000	1000	0	0	-1	450
26695955	9484	883	0	-100	0	230	101300000	1000	0	0	-1	450
26708515	9484	880	0	-100	0	230	101300000	1000	0	0	-1	450
26721075	9477	876	0	-100	0	230	101300000	1000	0	0	-1	450
26733635	9433	882	0	-100	0	230	101300000	1000	0	0	-1	450
26746195	9424	871	0	-100	0	230	101300000	1000	0	0	-1	450
26758755	9441	877	0	-100	0	230	101300000	1000	0	0	-1	450
26771315	9465	882	0	-100	0	230	101300000	1000	0	0	-1	450
26783875	9448	873	0	-100	0	230	101300000	1000	0	0	-1	450
26796435	9392	869	0	-100	0	230	101300000	1000	0	0	-1	450
26808995	9438	877	0	-100	0	230	101300000	1000	0	0	-1	450
26821555	9392	870	0	-100	0	230	101300000	1000	0	0	-1	450
26834115	9385	857	0	-100	0	230	101300000	1000	0	0	-1	450
26846675	9375	872	0	-100	0	230	101300000	1000	0	0	-1	450
26859235	9414	870	0	-100	0	230	101300000	1000	0	0	-1	450
26871795	9394	873	0	-100	0	230	101300000	1000	0	0	-1	450
26884355	9397	874	0	-100	0	230	101300000	1000	0	0	-1	450
26896915	9418	876	0	-100	0	230	101300000	1000	0	0	-1	450
26909475	9409	881	0	-100	0	230	101300000	1000	0	0	-1	450
26922035	9404	878	0	-100	0	230	101300000	1000	0	0	-1	450
26934595	9440	877	0	-100	0	230	101300000	1000	0	0	-1	450
26947155	9433	875	0	-100	0	230	101300000	1000	0	0	-1	450
26959715	9455	875	0	-100	0	230	101300000	1000	0	0	-1	450
26972275	9455	876	0	-100	0	230	101300000	1000	0	0	-1	450
26984835	9426	871	0	-100	0	230	101300000	1000	0	0	-1	450
26997395	9435	881	0	-100	0	230	101300000	1000	0	0	-1	450
27009955	9433	876	0	-100	0	230	101300000	1000	0	0	-1	450
27022515	9416	875	0	-100	0	230	101300000	1000	0	0	-1	450
27035075	9425	877	0	-100	0	230	101300000	1000	0	0	-1	450
27047635	9419	868	0	-100	0	230	101300000	1000	0	0	-1	450
27060195	9419	872	0	-100	0	230	101300000	1000	0	0	-1	450
27072755	9411	872	0	-100	0	230	101300000	1000	0	0	-1	450
27085315	9407	874	0	-100	0	230	101300000	1000	0	0	-1	450
27097875	9407	879	0	-100	0	230	101300000	1000	0	0	-1	450
27110435	9387	865	0	-100	0	230	101300000	1000	0	0	-1	450
27122995	9406	872	0	-100	0	230	101300000	1000	0	0	-1	450
27135555	9414	879	0	-100	0	230	101300000	1000	0	0	-1	450
27148115	9458	878	0	-100	0	230	101300000	1000	0	0	-1	450
27160675	9460	878	0	-100	0	230	101300000	1000	0	0	-1	450
27173235	9472	877	0	-100	0	230	101300000	1000	0	0	-1	450
27185795	9462	883	0	-100	0	230	101300000	1000	0	0	-1	450
27198355	9503	882	0	-100	0	230	101300000	1000	0	0	-1	450
27210915	9504	883	0	-100	0	230	101300000	1000	0	0	-1	450
27223475	9520	884	0	-100	0	230	101300000	1000	0	0	-1	450
27236035	9469	883	0	-100	0	230	101300000	1000	0	0	-1	450
27248595	9474	871	0	-100	0	230	101300000	1000	0	0	-1	450
27261155	9421	872	0	-100	0	230	101300000	1000	0	0	-1	450
27273715	9467	883	0	-100	0	230	101300000	1000	0	0	-1	450
27286275	9443	873	0	-100	0	230	101300000	1000	0	0	-1	450
27298835	9462	875	0	-100	0	230	101300000	1000	0	0	-1	450
27311395	9487	883	0	-100	0	230	101300000	1000	0	0	-1	450
27323955	9455	875	0	-100	0	230	101300000	1000	0	0	-1	450
27336515	9474	876	0	-100	0	230	101300000	1000	0	0	-1	450
27349075	9453	885	0	-100	0	230	101300000	1000	0	0	-1	450
27361635	9518	886	0	-100	0	230	101300000	1000	0	0	-1	450
27374195	9518	877	0	-100	0	230	101300000	1000	0	0	-1	450
27386755	9465	884	0	-100	0	230	101300000	1000	0	0	-1	450
27399315	9448	878	0	-100	0	230	101300000	1000	0	0	-1	450
27411875	9482	878	0	-100	0	230	101300000	1000	0	0	-1	450
27424435	9428	877	0	-100	0	230	101300000	1000	0	0	-1	450
27436995	9499	888	0	-100	0	230	101300000	1000	0	0	-1	450
27449555	9579	886	0	-100	0	230	101300000	1000	0	0	-1	450
27462115	9525	888	0	-100	0	230	101300000	1000	0	0	-1	450
27474675	9557	886	0	-100	0	230	101300000	1000	0	0	-1	450
27487235	9494	882	0	-100	0	230	101300000	1000	0	0	-1	450
27499795	9460	879	0	-100	0	230	101300000	1000	0	0	-1	450
27512355	9450	871	0	-100	0	230	101300000	1000	0	0	-1	450
27524915	9458	880	0	-100	0	230	101300000	1000	0	0	-1	450
27537475	9468	878	0	-100	0	230	101300000	1000	0	0	-1	450
27550035	9514	880	0	-100	0	230	101300000	1000	0	0	-1	450
27562595	9469	885	0	-100	0	230	101300000	1000	0	0	-1	450
27575155	9501	879	0	-100	0	230	101300000	1000	0	0	-1	450
27587715	9559	889	0	-100	0	230	101300000	1000	0	0	-1	450
27600275	9552	884	0	-100	0	230	101300000	1000	0	0	-1	450
27612835	9508	883	0	-100	0	230	101300000	1000	0	0	-1	450
27625395	9484	889	0	-100	0	230	101300000	1000	0	0	-1	450
27637955	9465	880	0	-100	0	230	101300000	1000	0	0	-1	450
27650515	9479	877	0	-100	0	230	101300000	1000	0	0	-1	450
27663075	9448	875	0	-100	0	230	101300000	1000	0	0	-1	450
27675635	9467	879	0	-100	0	230	101300000	1000	0	0	-1	450
27688195	9506	878	0	-100	0	230	101300000	1000	0	0	-1	450
27700755	9477	873	0	-100	0	230	101300000	1000	0	0	-1	450
27713315	9474	880	0	-100	0	230	101300000	1000	0	0	-1	450
27725875	9481	884	0	-100	0	230	101300000	1000	0	0	-1	450
27738435	9489	873	0	-100	0	230	101300000	1000	0	0	-1	450
27750995	9479	876	0	-100	0	230	101300000	1000	0	0	-1	450
27763555	9506	885	0	-100	0	230	101300000	1000	0	0	-1	450
27776115	9480	875	0	-100	0	230	101300000	1000	0	0	-1	450
27788675	9436	870	0	-100	0	230	101300000	1000	0	0	-1	450
27801235	9513	888	0	-100	0	230	101300000	1000	0	0	-1	450
27813795	9479	879	0	-100	0	230	101300000	1000	0	0	-1	450
27826355	9501	879	0	-100	0	230	101300000	1000	0	0	-1	450
27838915	9477	887	0	-100	0	230	101300000	1000	0	0	-1	450
27851475	9450	876	0	-100	0	230	101300000	1000	0	0	-1	450
27864035	9436	874	0	-100	0	230	101300000	1000	0	0	-1	450
27876595	9496	882	0	-100	0	230	101300000	1000	0	0	-1	450
27889155	9484	889	0	-100	0	230	101300000	1000	0	0	-1	450
27901715	9496	882	0	-100	0	230	101300000	1000	0	0	-1	450
27914275	9501	878	0	-100	0	230	101300000	1000	0	0	-1	450
27926835	9535	894	0	-100	0	230	101300000	1000	0	0	-1	450
27939395	9526	879	0	-100	0	230	101300000	1000	0	0	-1	450
27951955	9467	878	0	-100	0	230	101300000	1000	0	0	-1	450
27964515	9496	887	0	-100	0	230	101300000	1000	0	0	-1	450
27977075	9506	878	0	-100	0	230	101300000	1000	0	0	-1	450
27989635	9467	885	0	-100	0	230	101300000	1000	0	0	-1	450
28002195	9501	880	0	-100	0	230	101300000	1000	0	0	-1	450
28014755	9455	881	0	-100	0	230	101300000	1000	0	0	-1	450
28027315	9560	885	0	-100	0	230	101300000	1000	0	0	-1	450
28039875	9518	889	0	-100	0	230	101300000	1000	0	0	-1	450
28052435	9557	880	0	-100	0	230	101300000	1000	0	0	-1	450
28064995	9515	879	0	-100	0	230	101300000	1000	0	0	-1	450
28077555	9477	878	0	-100	0	230	101300000	1000	0	0	-1	450
28090115	9438	869	0	-100	0	230	101300000	1000	0	0	-1	450
28102675	9431	879	0	-100	0	230	101300000	1000	0	0	-1	450
28115235	9489	880	0	-100	0	230	101300000	1000	0	0	-1	450
28127795	9450	876	0	-100	0	230	101300000	1000	0	0	-1	450
28140355	9511	883	0	-100	0	230	101300000	1000	0	0	-1	450
28152915	9516	880	0	-100	0	230	101300000	1000	0	0	-1	450
28165475	9508	892	0	-100	0	230	101300000	1000	0	0	-1	450
28178035	9533	882	0	-100	0	230	101300000	1000	0	0	-1	450
28190595	9537	879	0	-100	0	230	101300000	1000	0	0	-1	450
28203155	9494	888	0	-100	0	230	101300000	1000	0	0	-1	450
28215715	9501	877	0	-100	0	230	101300000	1000	0	0	-1	450
28228275	9513	885	0	-100	0	230	101300000	1000	0	0	-1	450
28240835	9477	876	0	-100	0	230	101300000	1000	0	0	-1	450
28253395	9530	886	0	-100	0	230	101300000	1000	0	0	-1	450
28265955	9482	891	0	-100	0	230	101300000	1000	0	0	-1	450
28278515	9511	873	0	-100	0	230	101300000	1000	0	0	-1	450
28291075	9479	885	0	-100	0	230	101300000	1000	0	0	-1	450
28316195	9458	876	0	-100	0	230	101300000	1000	0	0	-1	450
28328755	9445	883	0	-100	0	230	101300000	1000	0	0	-1	450
28341315	9480	883	0	-100	0	230	101300000	1000	0	0	-1	450
28353875	9506	880	0	-100	0	230	101300000	1000	0	0	-1	450
28366435	9450	874	0	-100	0	230	101300000	1000	0	0	-1	450
28378995	9430	893	0	-100	0	230	101300000	1000	0	0	-1	450
28391555	9460	872	0	-100	0	230	101300000	1000	0	0	-1	450
28404115	9472	874	0	-100	0	230	101300000	1000	0	0	-1	450
28416675	9525	956	0	-100	0	230	101300000	1000	0	0	-1	450
28429235	9494	878	0	-100	0	230	101300000	1000	0	0	-1	450
28441795	9520	887	0	-100	0	230	101300000	1000	0	0	-1	450
28454355	9501	879	0	-100	0	230	101300000	1000	0	0	-1	450
28466915	9489	884	0	-100	0	230	101300000	1000	0	0	-1	450
28479475	9482	877	0	-100	0	230	101300000	1000	0	0	-1	450
28492035	9479	878	0	-100	0	230	101300000	1000	0	0	-1	450
28504595	9479	876	0	-100	0	230	101300000	1000	0	0	-1	450
28517155	9497	882	0	-100	0	230	101300000	1000	0	0	-1	450
28529715	9487	880	0	-100	0	230	101300000	1000	0	0	-1	450
28542275	9414	876	0	-100	0	230	101300000	1000	0	0	-1	450
28554835	9424	874	0	-100	0	230	101300000	1000	0	0	-1	450
28567395	9435	875	0	-100	0	230	101300000	1000	0	0	-1	450
28579955	9457	883	0	-100	0	230	101300000	1000	0	0	-1	450
28592515	9523	887	0	-100	0	230	101300000	1000	0	0	-1	450
28605075	9514	877	0	-100	0	230	101300000	1000	0	0	-1	450
28617635	9501	882	0	-100	0	230	101300000	1000	0	0	-1	450
28630195	9472	880	0	-100	0	230	101300000	1000	0	0	-1	450
28642755	9482	881	0	-100	0	230	101300000	1000	0	0	-1	450
28655315	9486	878	0	-100	0	230	101300000	1000	0	0	-1	450
28667875	9559	889	0	-100	0	230	101300000	1000	0	0	-1	450
28680435	9499	883	0	-100	0	230	101300000	1000	0	0	-1	450
28692995	9460	879	0	-100	0	230	101300000	1000	0	0	-1	450
28705555	9511	881	0	-100	0	230	101300000	1000	0	0	-1	450
28718115	9459	879	0	-100	0	230	101300000	1000	0	0	-1	450
28730675	9533	890	0	-100	0	230	101300000	1000	0	0	-1	450
28743235	9501	882	0	-100	0	230	101300000	1000	0	0	-1	450
28755795	9527	882	0	-100	0	230	101300000	1000	0	0	-1	450
28768355	9489	875	0	-100	0	230	101300000	1000	0	0	-1	450
28780915	9455	879	0	-100	0	230	101300000	1000	0	0	-1	450
28793475	9499	883	0	-100	0	230	101300000	1000	0	0	-1	450
28806035	9402	864	0	-100	0	230	101300000	1000	0	0	-1	450
28818595	9467	876	0	-100	0	230	101300000	1000	0	0	-1	450
28831155	9475	884	0	-100	0	230	101300000	1000	0	0	-1	450
28843715	9493	878	0	-100	0	230	101300000	1000	0	0	-1	450
28856275	9489	881	0	-100	0	230	101300000	1000	0	0	-1	450
28868835	9462	880	0	-100	0	230	101300000	1000	0	0	-1	450
28881395	9462	879	0	-100	0	230	101300000	1000	0	0	-1	450
28893955	9502	891	0	-100	0	230	101300000	1000	0	0	-1	450
28906515	9484	882	0	-100	0	230	101300000	1000	0	0	-1	450
28919075	9530	879	0	-100	0	230	101300000	1000	0	0	-1	450
28931635	9453	877	0	-100	0	230	101300000	1000	0	0	-1	450
28944195	9492	875	0	-100	0	230	101300000	1000	0	0	-1	450
28956755	9525	882	0	-100	0	230	101300000	1000	0	0	-1	450
28969315	9499	882	0	-100	0	230	101300000	1000	0	0	-1	450
28981875	9477	874	0	-100	0	230	101300000	1000	0	0	-1	450
28994435	9479	879	0	-100	0	230	101300000	1000	0	0	-1	450
29006995	9433	875	0	-100	0	230	101300000	1000	0	0	-1	450
29019555	9474	869	0	-100	0	230	101300000	1000	0	0	-1	450
29032115	9514	886	0	-100	0	230	101300000	1000	0	0	-1	450
29044675	9480	883	0	-100	0	230	101300000	1000	0	0	-1	450
29057235	9467	860	0	-100	0	230	101300000	1000	0	0	-1	450
29069795	9501	888	0	-100	0	230	101300000	1000	0	0	-1	450
29082355	9496	883	0	-100	0	230	101300000	1000	0	0	-1	450
29094915	9530	881	0	-100	0	230	101300000	1000	0	0	-1	450
29107475	9486	876	0	-100	0	230	101300000	1000	0	0	-1	450
29120035	9458	882	0	-100	0	230	101300000	1000	0	0	-1	450
29132595	9504	880	0	-100	0	230	101300000	1000	0	0	-1	450
29145155	9436	873	0	-100	0	230	101300000	1000	0	0	-1	450
29157715	9474	881	0	-100	0	230	101300000	1000	0	0	-1	450
29170275	9501	879	0	-100	0	230	101300000	1000	0	0	-1	450
29182835	9465	879	0	-100	0	230	101300000	1000	0	0	-1	450
29195395	9462	873	0	-100	0	230	101300000	1000	0	0	-1	450
29207955	9469	878	0	-100	0	230	101300000	1000	0	0	-1	450
29220515	9487	883	0	-100	0	230	101300000	1000	0	0	-1	450
29233075	9458	879	0	-100	0	230	101300000	1000	0	0	-1	450
29245635	9477	874	0	-100	0	230	101300000	1000	0	0	-1	450
29258195	9477	874	0	-100	0	230	101300000	1000	0	0	-1	450
29270755	9504	879	0	-100	0	230	101300000	1000	0	0	-1	450
29283315	9492	893	0	-100	0	230	101300000	1000	0	0	-1	450
29295875	9550	883	0	-100	0	230	101300000	1000	0	0	-1	450
29308435	9520	794	0	-100	0	230	101300000	1000	0	0	-1	450
29320995	9475	879	0	-100	0	230	101300000	1000	0	0	-1	450
29333555	9482	878	0	-100	0	230	101300000	1000	0	0	-1	450
29346115	9492	878	0	-100	0	230	101300000	1000	0	0	-1	450
29358675	9525	877	0	-100	0	230	101300000	1000	0	0	-1	450
29371235	9581	893	0	-100	0	230	101300000	1000	0	0	-1	450
29383795	9515	886	0	-100	0	230	101300000	1000	0	0	-1	450
29396355	9530	884	0	-100	0	230	101300000	1000	0	0	-1	450
29408915	9487	882	0	-100	0	230	101300000	1000	0	0	-1	450
29421475	9503	875	0	-100	0	230	101300000	1000	0	0	-1	450
29434035	9530	878	0	-100	0	230	101300000	1000	0	0	-1	450
29446595	9477	870	0	-100	0	230	101300000	1000	0	0	-1	450
29459155	9514	874	0	-100	0	230	101300000	1000	0	0	-1	450
29471715	9508	880	0	-100	0	230	101300000	1000	0	0	-1	450
29484275	9540	886	0	-100	0	230	101300000	1000	0	0	-1	450
29496835	9474	877	0	-100	0	230	101300000	1000	0	0	-1	450
29509395	9545	885	0	-100	0	230	101300000	1000	0	0	-1	450
29521955	9453	867	0	-100	0	230	101300000	1000	0	0	-1	450
29534515	9446	879	0	-100	0	230	101300000	1000	0	0	-1	450
29547075	9470	875	0	-100	0	230	101300000	1000	0	0	-1	450
29559635	9576	868	0	-100	0	230	101300000	1000	0	0	-1	450
29572195	9542	881	0	-100	0	230	101300000	1000	0	0	-1	450
29584755	9514	880	0	-100	0	230	101300000	1000	0	0	-1	450
29597315	9484	796	0	-100	0	230	101300000	1000	0	0	-1	450
29609875	9581	895	0	-100	0	230	101300000	1000	0	0	-1	450
29622435	9530	894	0	-100	0	230	101300000	1000	0	0	-1	450
29634995	9519	881	0	-100	0	230	101300000	1000	0	0	-1	450
29647555	9469	881	0	-100	0	230	101300000	1000	0	0	-1	450
29660115	9486	871	0	-100	0	230	101300000	1000	0	0	-1	450
29672675	9521	876	0	-100	0	230	101300000	1000	0	0	-1	450
29685235	9477	888	0	-100	0	230	101300000	1000	0	0	-1	450
29697795	9474	869	0	-100	0	230	101300000	1000	0	0	-1	450
29710355	9467	870	0	-100	0	230	101300000	1000	0	0	-1	450
29722915	9530	896	0	-100	0	230	101300000	1000	0	0	-1	450
29735475	9530	888	0	-100	0	230	101300000	1000	0	0	-1	450
29748035	9513	888	0	-100	0	230	101300000	1000	0	0	-1	450
29760595	9537	879	0	-100	0	230	101300000	1000	0	0	-1	450
29773155	9547	876	0	-100	0	230	101300000	1000	0	0	-1	450
29785715	9489	884	0	-100	0	230	101300000	1000	0	0	-1	450
29798275	9552	880	0	-100	0	230	101300000	1000	0	0	-1	450
29810835	9455	877	0	-100	0	230	101300000	1000	0	0	-1	450
29823395	9469	870	0	-100	0	230	101300000	1000	0	0	-1	450
29835955	9535	882	0	-100	0	230	101300000	1000	0	0	-1	450
29848515	9506	882	0	-100	0	230	101300000	1000	0	0	-1	450
29861075	9545	875	0	-100	0	230	101300000	1000	0	0	-1	450
29873635	9522	869	0	-100	0	230	101300000	1000	0	0	-1	450
29886195	9545	886	0	-100	0	230	101300000	1000	0	0	-1	450
29898755	9528	893	0	-100	0	230	101300000	1000	0	0	-1	450
29911315	9540	890	0	-100	0	230	101300000	1000	0	0	-1	450
29923875	9532	894	0	-100	0	230	101300000	1000	0	0	-1	450
29936435	9489	890	0	-100	0	230	101300000	1000	0	0	-1	450
29948995	9481	888	0	-100	0	230	101300000	1000	0	0	-1	450
29961555	9479	886	0	-100	0	230	101300000	1000	0	0	-1	450
29974115	9486	868	0	-100	0	230	101300000	1000	0	0	-1	450
29986675	9564	879	0	-100	0	230	101300000	1000	0	0	-1	450
29999235	9508	886	0	-100	0	230	101300000	1000	0	0	-1	450
30011795	9530	868	0	-100	0	230	101300000	1000	0	0	-1	450
30024355	9489	890	0	-100	0	230	101300000	1000	0	0	-1	450
30036915	9477	869	0	-100	0	230	101300000	1000	0	0	-1	450
30049475	9489	890	0	-100	0	230	101300000	1000	0	0	-1	450
30062035	9523	893	0	-100	0	230	101300000	1000	0	0	-1	450
30074595	9438	878	0	-100	0	230	101300000	1000	0	0	-1	450
30087155	9456	870	0	-100	0	230	101300000	1000	0	0	-1	450
30099715	9489	871	0	-100	0	230	101300000	1000	0	0	-1	450
30112275	9498	887	0	-100	0	230	101300000	1000	0	0	-1	450
30124835	9511	881	0	-100	0	230	101300000	1000	0	0	-1	450
30137395	9499	881	0	-100	0	230	101300000	1000	0	0	-1	450
30149955	9486	864	0	-100	0	230	101300000	1000	0	0	-1	450
30162515	9525	885	0	-100	0	230	101300000	1000	0	0	-1	450
30175075	9492	884	0	-100	0	230	101300000	1000	0	0	-1	450
30187635	9540	884	0	-100	0	230	101300000	1000	0	0	-1	450
30200195	9537	882	0	-100	0	230	101300000	1000	0	0	-1	450
30212755	9515	878	0	-100	0	230	101300000	1000	0	0	-1	450
30225315	9496	884	0	-100	0	230	101300000	1000	0	0	-1	450
30237875	9508	894	0	-100	0	230	101300000	1000	0	0	-1	450
30250435	9513	889	0	-100	0	230	101300000	1000	0	0	-1	450
30262995	9504	888	0	-100	0	230	101300000	1000	0	0	-1	450
30275555	9481	885	0	-100	0	230	101300000	1000	0	0	-1	450
30288115	9560	884	0	-100	0	230	101300000	1000	0	0	-1	450
30300675	9521	875	0	-100	0	230	101300000	1000	0	0	-1	450
30313235	9540	873	0	-100	0	230	101300000	1000	0	0	-1	450
30325795	9506	876	0	-100	0	230	101300000	1000	0	0	-1	450
30338355	9508	891	0	-100	0	230	101300000	1000	0	0	-1	450
30350915	9503	875	0	-100	0	230	101300000	1000	0	0	-1	450
30363475	9501	887	0	-100	0	230	101300000	1000	0	0	-1	450
30376035	9474	893	0	-100	0	230	101300000	1000	0	0	-1	450
30388595	9484	877	0	-100	0	230	101300000	1000	0	0	-1	450
30401155	9455	864	0	-100	0	230	101300000	1000	0	0	-1	450
30413715	9506	873	0	-100	0	230	101300000	1000	0	0	-1	450
30426275	9547	892	0	-100	0	230	101300000	1000	0	0	-1	450
30438835	9535	885	0	-100	0	230	101300000	1000	0	0	-1	450
30451395	9516	896	0	-100	0	230	101300000	1000	0	0	-1	450
30463955	9499	864	0	-100	0	230	101300000	1000	0	0	-1	450
30476515	9516	906	0	-100	0	230	101300000	1000	0	0	-1	450
30489075	9501	887	0	-100	0	230	101300000	1000	0	0	-1	450
30501635	9510	885	0	-100	0	230	101300000	1000	0	0	-1	450
30514195	9458	885	0	-100	0	230	101300000	1000	0	0	-1	450
30526755	9506	871	0	-100	0	230	101300000	1000	0	0	-1	450
30539315	9516	885	0	-100	0	230	101300000	1000	0	0	-1	450
30551875	9501	884	0	-100	0	230	101300000	1000	0	0	-1	450
30564435	9501	881	0	-100	0	230	101300000	1000	0	0	-1	450
30576995	9498	882	0	-100	0	230	101300000	1000	0	0	-1	450
30589555	9540	903	0	-100	0	230	101300000	1000	0	0	-1	450
30602115	9501	866	0	-100	0	230	101300000	1000	0	0	-1	450
30614675	9495	870	0	-100	0	230	101300000	1000	0	0	-1	450
30627235	9574	875	0	-100	0	230	101300000	1000	0	0	-1	450
30639795	9518	886	0	-100	0	230	101300000	1000	0	0	-1	450
30652355	9467	889	0	-100	0	230	101300000	1000	0	0	-1	450
30664915	9497	889	0	-100	0	230	101300000	1000	0	0	-1	450
30677475	9462	882	0	-100	0	230	101300000	1000	0	0	-1	450
30690035	9576	885	0	-100	0	230	101300000	1000	0	0	-1	450
30702595	9539	874	0	-100	0	230	101300000	1000	0	0	-1	450
30715155	9504	889	0	-100	0	230	101300000	1000	0	0	-1	450
30727715	9521	876	0	-100	0	230	101300000	1000	0	0	-1	450
30740275	9523	879	0	-100	0	230	101300000	1000	0	0	-1	450
30752835	9526	900	0	-100	0	230	101300000	1000	0	0	-1	450
30765395	9516	893	0	-100	0	230	101300000	1000	0	0	-1	450
30777955	9569	888	0	-100	0	230	101300000	1000	0	0	-1	450
30790515	9508	889	0	-100	0	230	101300000	1000	0	0	-1	450
30803075	9547	897	0	-100	0	230	101300000	1000	0	0	-1	450
30815635	9509	887	0	-100	0	230	101300000	1000	0	0	-1	450
30828195	9499	885	0	-100	0	230	101300000	1000	0	0	-1	450
30840755	9542	886	0	-100	0	230	101300000	1000	0	0	-1	450
30853315	9492	870	0	-100	0	230	101300000	1000	0	0	-1	450
30865875	9547	895	0	-100	0	230	101300000	1000	0	0	-1	450
30878435	9472	867	0	-100	0	230	101300000	1000	0	0	-1	450
30890995	9538	870	0	-100	0	230	101300000	1000	0	0	-1	450
30903555	9532	893	0	-100	0	230	101300000	1000	0	0	-1	450
30916115	9557	902	0	-100	0	230	101300000	1000	0	0	-1	450
30928675	9503	877	0	-100	0	230	101300000	1000	0	0	-1	450
30941235	9526	885	0	-100	0	230	101300000	1000	0	0	-1	450
30953795	9528	872	0	-100	0	230	101300000	1000	0	0	-1	450
30966355	9548	874	0	-100	0	230	101300000	1000	0	0	-1	450
30978915	9508	882	0	-100	0	230	101300000	1000	0	0	-1	450
30991475	9518	865	0	-100	0	230	101300000	1000	0	0	-1	450
31004035	9480	863	0	-100	0	230	101300000	1000	0	0	-1	450
31016595	9545	884	0	-100	0	230	101300000	1000	0	0	-1	450
31029155	9528	878	0	-100	0	230	101300000	1000	0	0	-1	450
31041715	9508	870	0	-100	0	230	101300000	1000	0	0	-1	450
31054275	9492	792	0	-100	0	230	101300000	1000	0	0	-1	450
31066835	9533	872	0	-100	0	230	101300000	1000	0	0	-1	450
31079395	9484	888	0	-100	0	230	101300000	1000	0	0	-1	450
31091955	9525	901	0	-100	0	230	101300000	1000	0	0	-1	450
31104515	9521	876	0	-100	0	230	101300000	1000	0	0	-1	450
31117075	9516	872	0	-100	0	230	101300000	1000	0	0	-1	450
31129635	9508	888	0	-100	0	230	101300000	1000	0	0	-1	450
31142195	9571	893	0	-100	0	230	101300000	1000	0	0	-1	450
31154755	9579	906	0	-100	0	230	101300000	1000	0	0	-1	450
31167315	9552	890	0	-100	0	230	101300000	1000	0	0	-1	450
31179875	9477	881	0	-100	0	230	101300000	1000	0	0	-1	450
31192435	9447	877	0	-100	0	230	101300000	1000	0	0	-1	450
31204995	9538	878	0	-100	0	230	101300000	1000	0	0	-1	450
31217555	9550	889	0	-100	0	230	101300000	1000	0	0	-1	450
31230115	9537	872	0	-100	0	230	101300000	1000	0	0	-1	450
31242675	9530	882	0	-100	0	230	101300000	1000	0	0	-1	450
31255235	9506	869	0	-100	0	230	101300000	1000	0	0	-1	450
31267795	9484	858	0	-100	0	230	101300000	1000	0	0	-1	450
31280355	9525	887	0	-100	0	230	101300000	1000	0	0	-1	450
31292915	9525	874	0	-100	0	230	101300000	1000	0	0	-1	450
31305475	9559	898	0	-100	0	230	101300000	1000	0	0	-1	450
31318035	9479	869	0	-100	0	230	101300000	1000	0	0	-1	450
31330595	9462	876	0	-100	0	230	101300000	1000	0	0	-1	450
31343155	9513	876	0	-100	0	230	101300000	1000	0	0	-1	450
31355715	9535	880	0	-100	0	230	101300000	1000	0	0	-1	450
31368275	9528	885	0	-100	0	230	101300000	1000	0	0	-1	450
31380835	9503	877	0	-100	0	230	101300000	1000	0	0	-1	450
31393395	9489	884	0	-100	0	230	101300000	1000	0	0	-1	450
31405955	9491	880	0	-100	0	230	101300000	1000	0	0	-1	450
31418515	9525	887	0	-100	0	230	101300000	1000	0	0	-1	450
31431075	9506	894	0	-100	0	230	101300000	1000	0	0	-1	450
31443635	9545	868	0	-100	0	230	101300000	1000	0	0	-1	450
31456195	9521	891	0	-100	0	230	101300000	1000	0	0	-1	450
31468755	9462	870	0	-100	0	230	101300000	1000	0	0	-1	450
31481315	9523	892	0	-100	0	230	101300000	1000	0	0	-1	450
31493875	9491	867	0	-100	0	230	101300000	1000	0	0	-1	450
31506435	9552	873	0	-100	0	230	101300000	1000	0	0	-1	450
31518995	9466	882	0	-100	0	230	101300000	1000	0	0	-1	450
31531555	9506	867	0	-100	0	230	101300000	1000	0	0	-1	450
31544115	9540	890	0	-100	0	230	101300000	1000	0	0	-1	450
31556675	9511	870	0	-100	0	230	101300000	1000	0	0	-1	450
31569235	9499	870	0	-100	0	230	101300000	1000	0	0	-1	450
31581795	9494	871	0	-100	0	230	101300000	1000	0	0	-1	450
31594355	9494	887	0	-100	0	230	101300000	1000	0	0	-1	450
31606915	9501	895	0	-100	0	230	101300000	1000	0	0	-1	450
31619475	9500	879	0	-100	0	230	101300000	1000	0	0	-1	450
31632035	9484	882	0	-100	0	230	101300000	1000	0	0	-1	450
31644595	9506	906	0	-100	0	230	101300000	1000	0	0	-1	450
31657155	9521	873	0	-100	0	230	101300000	1000	0	0	-1	450
31669715	9494	862	0	-100	0	230	101300000	1000	0	0	-1	450
31682275	9477	871	0	-100	0	230	101300000	1000	0	0	-1	450
31694835	9494	872	0	-100	0	230	101300000	1000	0	0	-1	450
31707395	9509	890	0	-100	0	230	101300000	1000	0	0	-1	450
31719955	9496	877	0	-100	0	230	101300000	1000	0	0	-1	450
31732515	9500	877	0	-100	0	230	101300000	1000	0	0	-1	450
31745075	9489	865	0	-100	0	230	101300000	1000	0	0	-1	450
31757635	9533	887	0	-100	0	230	101300000	1000	0	0	-1	450
31770195	9520	888	0	-100	0	230	101300000	1000	0	0	-1	450
31782755	9521	887	0	-100	0	230	101300000	1000	0	0	-1	450
31795315	9506	892	0	-100	0	230	101300000	1000	0	0	-1	450
31807875	9542	877	0	-100	0	230	101300000	1000	0	0	-1	450
31820435	9525	883	0	-100	0	230	101300000	1000	0	0	-1	450
31832995	9496	859	0	-100	0	230	101300000	1000	0	0	-1	450
31845555	9516	887	0	-100	0	230	101300000	1000	0	0	-1	450
31858115	9550	863	0	-100	0	230	101300000	1000	0	0	-1	450
31870675	9530	896	0	-100	0	230	101300000	1000	0	0	-1	450
31883235	9479	876	0	-100	0	230	101300000	1000	0	0	-1	450
31895795	9538	895	0	-100	0	230	101300000	1000	0	0	-1	450
31908355	9515	857	0	-100	0	230	101300000	1000	0	0	-1	450
31920915	9498	896	0	-100	0	230	101300000	1000	0	0	-1	450
31933475	9532	897	0	-100	0	230	101300000	1000	0	0	-1	450
31946035	9542	903	0	-100	0	230	101300000	1000	0	0	-1	450
31958595	9531	871	0	-100	0	230	101300000	1000	0	0	-1	450
31971155	9509	891	0	-100	0	230	101300000	1000	0	0	-1	450
31983715	9518	883	0	-100	0	230	101300000	1000	0	0	-1	450
31996275	9531	865	0	-100	0	230	101300000	1000	0	0	-1	450
32008835	9545	899	0	-100	0	230	101300000	1000	0	0	-1	450
32021395	9501	874	0	-100	0	230	101300000	1000	0	0	-1	450
32033955	9474	882	0	-100	0	230	101300000	1000	0	0	-1	450
32046515	9543	856	0	-100	0	230	101300000	1000	0	0	-1	450
32059075	9549	844	0	-100	0	230	101300000	1000	0	0	-1	450
32071635	9569	893	0	-100	0	230	101300000	1000	0	0	-1	450
32084195	9547	887	0	-100	0	230	101300000	1000	0	0	-1	450
32096755	9555	855	0	-100	0	230	101300000	1000	0	0	-1	450
32109315	9552	893	0	-100	0	230	101300000	1000	0	0	-1	450
32121875	9501	892	0	-100	0	230	101300000	1000	0	0	-1	450
32134435	9526	878	0	-100	0	230	101300000	1000	0	0	-1	450
32146995	9542	909	0	-100	0	230	101300000	1000	0	0	-1	450
32159555	9547	895	0	-100	0	230	101300000	1000	0	0	-1	450
32172115	9535	901	0	-100	0	230	101300000	1000	0	0	-1	450
32184675	9520	889	0	-100	0	230	101300000	1000	0	0	-1	450
32197235	9525	881	0	-100	0	230	101300000	1000	0	0	-1	450
32209795	9470	857	0	-100	0	230	101300000	1000	0	0	-1	450
32222355	9491	874	0	-100	0	230	101300000	1000	0	0	-1	450
32234915	9525	857	0	-100	0	230	101300000	1000	0	0	-1	450
32247475	9487	867	0	-100	0	230	101300000	1000	0	0	-1	450
32260035	9547	856	0	-100	0	230	101300000	1000	0	0	-1	450
32272595	9530	875	0	-100	0	230	101300000	1000	0	0	-1	450
32285155	9477	860	0	-100	0	230	101300000	1000	0	0	-1	450
32297715	9489	906	0	-100	0	230	101300000	1000	0	0	-1	450
32310275	9484	893	0	-100	0	230	101300000	1000	0	0	-1	450
32322835	9545	843	0	-100	0	230	101300000	1000	0	0	-1	450
32335395	9501	862	0	-100	0	230	101300000	1000	0	0	-1	450
32347955	9491	892	0	-100	0	230	101300000	1000	0	0	-1	450
32360515	9506	898	0	-100	0	230	101300000	1000	0	0	-1	450
32373075	9509	899	0	-100	0	230	101300000	1000	0	0	-1	450
32385635	9507	872	0	-100	0	230	101300000	1000	0	0	-1	450
32398195	9518	853	0	-100	0	230	101300000	1000	0	0	-1	450
32410755	9513	875	0	-100	0	230	101300000	1000	0	0	-1	450
32423315	9535	890	0	-100	0	230	101300000	1000	0	0	-1	450
32435875	9467	909	0	-100	0	230	101300000	1000	0	0	-1	450
32448435	9467	865	0	-100	0	230	101300000	1000	0	0	-1	450
32460995	9509	888	0	-100	0	230	101300000	1000	0	0	-1	450
32473555	9528	861	0	-100	0	230	101300000	1000	0	0	-1	450
32486115	9562	874	0	-100	0	230	101300000	1000	0	0	-1	450
32498675	9574	890	0	-100	0	230	101300000	1000	0	0	-1	450
32511235	9579	898	0	-100	0	230	101300000	1000	0	0	-1	450
32523795	9552	886	0	-100	0	230	101300000	1000	0	0	-1	450
32536355	9559	913	0	-100	0	230	101300000	1000	0	0	-1	450
32548915	9531	874	0	-100	0	230	101300000	1000	0	0	-1	450
32561475	9533	882	0	-100	0	230	101300000	1000	0	0	-1	450
32574035	9494	882	0	-100	0	230	101300000	1000	0	0	-1	450
32586595	9535	888	0	-100	0	230	101300000	1000	0	0	-1	450
32599155	9535	870	0	-100	0	230	101300000	1000	0	0	-1	450
32611715	9494	888	0	-100	0	230	101300000	1000	0	0	-1	450
32624275	9503	897	0	-100	0	230	101300000	1000	0	0	-1	450
32636835	9511	890	0	-100	0	230	101300000	1000	0	0	-1	450
32649395	9559	905	0	-100	0	230	101300000	1000	0	0	-1	450
32661955	9547	858	0	-100	0	230	101300000	1000	0	0	-1	450
32674515	9516	862	0	-100	0	230	101300000	1000	0	0	-1	450
32687075	9547	884	0	-100	0	230	101300000	1000	0	0	-1	450
32699635	9501	881	0	-100	0	230	101300000	1000	0	0	-1	450
32712195	9499	883	0	-100	0	230	101300000	1000	0	0	-1	450
32724755	9475	885	0	-100	0	230	101300000	1000	0	0	-1	450
32737315	9509	848	0	-100	0	230	101300000	1000	0	0	-1	450
32749875	9484	865	0	-100	0	230	101300000	1000	0	0	-1	450
32762435	9450	895	0	-100	0	230	101300000	1000	0	0	-1	450
32774995	9528	889	0	-100	0	230	101300000	1000	0	0	-1	450
32787555	9530	898	0	-100	0	230	101300000	1000	0	0	-1	450
32800115	9533	879	0	-100	0	230	101300000	1000	0	0	-1	450
32812675	9521	901	0	-100	0	230	101300000	1000	0	0	-1	450
32825235	9521	885	0	-100	0	230	101300000	1000	0	0	-1	450
32837795	9525	873	0	-100	0	230	101300000	1000	0	0	-1	450
32850355	9538	895	0	-100	0	230	101300000	1000	0	0	-1	450
32862915	9496	905	0	-100	0	230	101300000	1000	0	0	-1	450
32875475	9557	891	0	-100	0	230	101300000	1000	0	0	-1	450
32888035	9542	898	0	-100	0	230	101300000	1000	0	0	-1	450
32900595	9559	881	0	-100	0	230	101300000	1000	0	0	-1	450
32913155	9530	858	0	-100	0	230	101300000	1000	0	0	-1	450
32925715	9521	902	0	-100	0	230	101300000	1000	0	0	-1	450
32938275	9540	883	0	-100	0	230	101300000	1000	0	0	-1	450
32950835	9497	877	0	-100	0	230	101300000	1000	0	0	-1	450
32963395	9516	881	0	-100	0	230	101300000	1000	0	0	-1	450
32975955	9498	879	0	-100	0	230	101300000	1000	0	0	-1	450
32988515	9462	893	0	-100	0	230	101300000	1000	0	0	-1	450
33001075	9496	859	0	-100	0	230	101300000	1000	0	0	-1	450
33013635	9469	905	0	-100	0	230	101300000	1000	0	0	-1	450
33026195	9484	879	0	-100	0	230	101300000	1000	0	0	-1	450
33038755	9530	886	0	-100	0	230	101300000	1000	0	0	-1	450
33051315	9489	891	0	-100	0	230	101300000	1000	0	0	-1	450
33063875	9564	896	0	-100	0	230	101300000	1000	0	0	-1	450
33076435	9518	896	0	-100	0	230	101300000	1000	0	0	-1	450
33088995	9491	880	0	-100	0	230	101300000	1000	0	0	-1	450
33101555	9503	885	0	-100	0	230	101300000	1000	0	0	-1	450
33114115	9545	906	0	-100	0	230	101300000	1000	0	0	-1	450
33126675	9545	902	0	-100	0	230	101300000	1000	0	0	-1	450
33139235	9550	883	0	-100	0	230	101300000	1000	0	0	-1	450
33151795	9530	899	0	-100	0	230	101300000	1000	0	0	-1	450
33164355	9515	878	0	-100	0	230	101300000	1000	0	0	-1	450
33176915	9513	865	0	-100	0	230	101300000	1000	0	0	-1	450
33189475	9525	906	0	-100	0	230	101300000	1000	0	0	-1	450
33202035	9532	849	0	-100	0	230	101300000	1000	0	0	-1	450
33214595	9523	881	0	-100	0	230	101300000	1000	0	0	-1	450
33227155	9550	905	0	-100	0	230	101300000	1000	0	0	-1	450
33239715	9545	908	0	-100	0	230	101300000	1000	0	0	-1	450
33252275	9523	893	0	-100	0	230	101300000	1000	0	0	-1	450
33264835	9523	898	0	-100	0	230	101300000	1000	0	0	-1	450
33277395	9530	876	0	-100	0	230	101300000	1000	0	0	-1	450
33289955	9555	853	0	-100	0	230	101300000	1000	0	0	-1	450
33302515	9569	888	0	-100	0	230	101300000	1000	0	0	-1	450
33315075	9540	881	0	-100	0	230	101300000	1000	0	0	-1	450
33327635	9557	896	0	-100	0	230	101300000	1000	0	0	-1	450
33340195	9482	890	0	-100	0	230	101300000	1000	0	0	-1	450
33352755	9484	873	0	-100	0	230	101300000	1000	0	0	-1	450
33365315	9506	875	0	-100	0	230	101300000	1000	0	0	-1	450
33377875	9555	901	0	-100	0	230	101300000	1000	0	0	-1	450
33390435	9530	899	0	-100	0	230	101300000	1000	0	0	-1	450
33402995	9448	931	0	-100	0	230	101300000	1000	0	0	-1	450
33415555	9497	874	0	-100	0	230	101300000	1000	0	0	-1	450
33428115	9508	885	0	-100	0	230	101300000	1000	0	0	-1	450
33440675	9515	899	0	-100	0	230	101300000	1000	0	0	-1	450
33453235	9508	902	0	-100	0	230	101300000	1000	0	0	-1	450
33465795	9501	885	0	-100	0	230	101300000	1000	0	0	-1	450
33478355	9513	874	0	-100	0	230	101300000	1000	0	0	-1	450
33490915	9579	898	0	-100	0	230	101300000	1000	0	0	-1	450
33503475	9525	902	0	-100	0	230	101300000	1000	0	0	-1	450
33516035	9554	880	0	-100	0	230	101300000	1000	0	0	-1	450
33528595	9504	899	0	-100	0	230	101300000	1000	0	0	-1	450
33541155	9504	900	0	-100	0	230	101300000	1000	0	0	-1	450
33553715	9486	875	0	-100	0	230	101300000	1000	0	0	-1	450
33566275	9537	889	0	-100	0	230	101300000	1000	0	0	-1	450
33578835	9523	900	0	-100	0	230	101300000	1000	0	0	-1	450
33591395	9518	909	0	-100	0	230	101300000	1000	0	0	-1	450
33603955	9467	886	0	-100	0	230	101300000	1000	0	0	-1	450
33616515	9514	866	0	-100	0	230	101300000	1000	0	0	-1	450
33629075	9532	941	0	-100	0	230	101300000	1000	0	0	-1	450
33641635	9494	887	0	-100	0	230	101300000	1000	0	0	-1	450
33654195	9499	851	0	-100	0	230	101300000	1000	0	0	-1	450
33666755	9518	953	0	-100	0	230	101300000	1000	0	0	-1	450
33679315	9460	889	0	-100	0	230	101300000	1000	0	0	-1	450
33691875	9499	898	0	-100	0	230	101300000	1000	0	0	-1	450
33704435	9518	876	0	-100	0	230	101300000	1000	0	0	-1	450
33716995	9520	851	0	-100	0	230	101300000	1000	0	0	-1	450
33729555	9564	859	0	-100	0	230	101300000	1000	0	0	-1	450
33742115	9532	882	0	-100	0	230	101300000	1000	0	0	-1	450
33754675	9516	848	0	-100	0	230	101300000	1000	0	0	-1	450
33767235	9540	880	0	-100	0	230	101300000	1000	0	0	-1	450
33779795	9557	902	0	-100	0	230	101300000	1000	0	0	-1	450
33792355	9554	885	0	-100	0	230	101300000	1000	0	0	-1	450
33804915	9520	903	0	-100	0	230	101300000	1000	0	0	-1	450
33817475	9465	890	0	-100	0	230	101300000	1000	0	0	-1	450
33830035	9481	890	0	-100	0	230	101300000	1000	0	0	-1	450
33842595	9507	898	0	-100	0	230	101300000	1000	0	0	-1	450
