timestamp	voltage	current	windSpeed	pitchAngle	rpm	temperature	ambientPressure	humidity	accelerationX	accelerationY	accelerationZ	currentSink
7038070	5013	0	0	-100	0	230	101300000	1000	0	0	-1	0
7045523	5016	0	0	-100	0	230	101300000	1000	0	0	-1	0
7058083	5021	0	0	-100	0	230	101300000	1000	0	0	-1	0
7070643	5015	0	0	-100	0	230	101300000	1000	0	0	-1	0
7083203	5012	0	0	-100	0	230	101300000	1000	0	0	-1	0
7095763	5015	4	0	-100	0	230	101300000	1000	0	0	-1	0
7108323	5014	3	0	-100	0	230	101300000	1000	0	0	-1	0
7120883	5014	2	0	-100	0	230	101300000	1000	0	0	-1	0
7133443	5015	0	0	-100	0	230	101300000	1000	0	0	-1	0
7146004	5014	0	0	-100	0	230	101300000	1000	0	0	-1	0
7158563	5012	2	0	-100	0	230	101300000	1000	0	0	-1	0
7171123	5014	3	0	-100	0	230	101300000	1000	0	0	-1	0
7183683	5017	2	0	-100	0	230	101300000	1000	0	0	-1	0
7196243	5015	1	0	-100	0	230	101300000	1000	0	0	-1	0
7208803	5011	2	0	-100	0	230	101300000	1000	0	0	-1	0
7221363	5012	3	0	-100	0	230	101300000	1000	0	0	-1	0
7233923	5016	3	0	-100	0	230	101300000	1000	0	0	-1	0
7246483	5020	3	0	-100	0	230	101300000	1000	0	0	-1	0
7259043	5016	2	0	-100	0	230	101300000	1000	0	0	-1	0
7271603	5015	2	0	-100	0	230	101300000	1000	0	0	-1	0
7284163	5012	4	0	-100	0	230	101300000	1000	0	0	-1	0
7296723	5015	3	0	-100	0	230	101300000	1000	0	0	-1	0
7309283	5014	2	0	-100	0	230	101300000	1000	0	0	-1	0
7321843	5013	3	0	-100	0	230	101300000	1000	0	0	-1	0
7334403	5015	2	0	-100	0	230	101300000	1000	0	0	-1	0
7346963	5015	2	0	-100	0	230	101300000	1000	0	0	-1	0
7692675	9776	938	0	-100	0	230	101300000	1000	0	0	-1	500
7705235	9785	939	0	-100	0	230	101300000	1000	0	0	-1	500
7717795	9820	935	0	-100	0	230	101300000	1000	0	0	-1	500
7730355	9778	933	0	-100	0	230	101300000	1000	0	0	-1	500
7742915	9775	936	0	-100	0	230	101300000	1000	0	0	-1	500
7755475	9780	936	0	-100	0	230	101300000	1000	0	0	-1	500
7768035	9807	941	0	-100	0	230	101300000	1000	0	0	-1	500
7780595	9792	941	0	-100	0	230	101300000	1000	0	0	-1	500
7793155	9834	943	0	-100	0	230	101300000	1000	0	0	-1	500
7805715	9829	942	0	-100	0	230	101300000	1000	0	0	-1	500
7818275	9790	940	0	-100	0	230	101300000	1000	0	0	-1	500
7830835	9780	937	0	-100	0	230	101300000	1000	0	0	-1	500
7843395	9787	937	0	-100	0	230	101300000	1000	0	0	-1	500
7855955	9816	943	0	-100	0	230	101300000	1000	0	0	-1	500
7868515	9797	947	0	-100	0	230	101300000	1000	0	0	-1	500
7881075	9828	945	0	-100	0	230	101300000	1000	0	0	-1	500
7893635	9809	948	0	-100	0	230	101300000	1000	0	0	-1	500
7906195	9754	940	0	-100	0	230	101300000	1000	0	0	-1	500
7918755	9783	943	0	-100	0	230	101300000	1000	0	0	-1	500
7931315	9800	948	0	-100	0	230	101300000	1000	0	0	-1	500
7943875	9817	947	0	-100	0	230	101300000	1000	0	0	-1	500
7956435	9768	943	0	-100	0	230	101300000	1000	0	0	-1	500
7968995	9849	948	0	-100	0	230	101300000	1000	0	0	-1	500
7981555	9780	944	0	-100	0	230	101300000	1000	0	0	-1	500
7994115	9771	948	0	-100	0	230	101300000	1000	0	0	-1	500
8006675	9773	950	0	-100	0	230	101300000	1000	0	0	-1	500
8019235	9889	962	0	-100	0	230	101300000	1000	0	0	-1	500
8031795	9756	947	0	-100	0	230	101300000	1000	0	0	-1	500
8044355	9785	951	0	-100	0	230	101300000	1000	0	0	-1	500
8056915	9792	945	0	-100	0	230	101300000	1000	0	0	-1	500
8069475	9761	945	0	-100	0	230	101300000	1000	0	0	-1	500
8082035	9799	944	0	-100	0	230	101300000	1000	0	0	-1	500
8094595	9742	933	0	-100	0	230	101300000	1000	0	0	-1	500
8107155	9761	946	0	-100	0	230	101300000	1000	0	0	-1	500
8119715	9759	946	0	-100	0	230	101300000	1000	0	0	-1	500
8132275	9768	948	0	-100	0	230	101300000	1000	0	0	-1	500
8144835	9768	948	0	-100	0	230	101300000	1000	0	0	-1	500
8157395	9849	958	0	-100	0	230	101300000	1000	0	0	-1	500
8169955	9851	956	0	-100	0	230	101300000	1000	0	0	-1	500
8182515	9846	954	0	-100	0	230	101300000	1000	0	0	-1	500
8195075	9897	960	0	-100	0	230	101300000	1000	0	0	-1	500
8207635	9836	955	0	-100	0	230	101300000	1000	0	0	-1	500
8220195	9795	951	0	-100	0	230	101300000	1000	0	0	-1	500
8232755	9797	948	0	-100	0	230	101300000	1000	0	0	-1	500
8245315	9854	953	0	-100	0	230	101300000	1000	0	0	-1	500
8257875	9785	942	0	-100	0	230	101300000	1000	0	0	-1	500
8270435	9865	949	0	-100	0	230	101300000	1000	0	0	-1	500
8282995	9833	952	0	-100	0	230	101300000	1000	0	0	-1	500
8295555	9810	942	0	-100	0	230	101300000	1000	0	0	-1	500
8308115	9865	953	0	-100	0	230	101300000	1000	0	0	-1	500
8320675	9797	946	0	-100	0	230	101300000	1000	0	0	-1	500
8333235	9820	945	0	-100	0	230	101300000	1000	0	0	-1	500
8345795	9812	946	0	-100	0	230	101300000	1000	0	0	-1	500
8358355	9802	944	0	-100	0	230	101300000	1000	0	0	-1	500
8370915	9785	947	0	-100	0	230	101300000	1000	0	0	-1	500
8383475	9812	953	0	-100	0	230	101300000	1000	0	0	-1	500
8396035	9819	952	0	-100	0	230	101300000	1000	0	0	-1	500
8408595	9794	946	0	-100	0	230	101300000	1000	0	0	-1	500
8421155	9778	942	0	-100	0	230	101300000	1000	0	0	-1	500
8433715	9839	948	0	-100	0	230	101300000	1000	0	0	-1	500
8446275	9782	943	0	-100	0	230	101300000	1000	0	0	-1	500
8458835	9838	948	0	-100	0	230	101300000	1000	0	0	-1	500
8471395	9810	944	0	-100	0	230	101300000	1000	0	0	-1	500
8483955	9794	936	0	-100	0	230	101300000	1000	0	0	-1	500
8496515	9882	948	0	-100	0	230	101300000	1000	0	0	-1	500
8509075	9728	933	0	-100	0	230	101300000	1000	0	0	-1	500
8521635	9829	944	0	-100	0	230	101300000	1000	0	0	-1	500
8534195	9848	947	0	-100	0	230	101300000	1000	0	0	-1	500
8546755	9851	953	0	-100	0	230	101300000	1000	0	0	-1	500
8559315	9795	950	0	-100	0	230	101300000	1000	0	0	-1	500
8571875	9824	945	0	-100	0	230	101300000	1000	0	0	-1	500
8584435	9860	949	0	-100	0	230	101300000	1000	0	0	-1	500
8596995	9885	960	0	-100	0	230	101300000	1000	0	0	-1	500
8609555	9827	949	0	-100	0	230	101300000	1000	0	0	-1	500
8622115	9797	938	0	-100	0	230	101300000	1000	0	0	-1	500
8634675	9792	943	0	-100	0	230	101300000	1000	0	0	-1	500
8647235	9824	944	0	-100	0	230	101300000	1000	0	0	-1	500
8659795	9761	947	0	-100	0	230	101300000	1000	0	0	-1	500
8672355	9785	950	0	-100	0	230	101300000	1000	0	0	-1	500
8684915	9760	946	0	-100	0	230	101300000	1000	0	0	-1	500
8697475	9812	946	0	-100	0	230	101300000	1000	0	0	-1	500
8710035	9811	946	0	-100	0	230	101300000	1000	0	0	-1	500
8722595	9831	949	0	-100	0	230	101300000	1000	0	0	-1	500
8735155	9877	961	0	-100	0	230	101300000	1000	0	0	-1	500
8747715	9897	954	0	-100	0	230	101300000	1000	0	0	-1	500
8760275	9846	946	0	-100	0	230	101300000	1000	0	0	-1	500
8772835	9819	946	0	-100	0	230	101300000	1000	0	0	-1	500
8785395	9887	957	0	-100	0	230	101300000	1000	0	0	-1	500
8797955	9873	958	0	-100	0	230	101300000	1000	0	0	-1	500
8810515	9824	941	0	-100	0	230	101300000	1000	0	0	-1	500
8823075	9843	948	0	-100	0	230	101300000	1000	0	0	-1	500
8835635	9792	943	0	-100	0	230	101300000	1000	0	0	-1	500
8848195	9773	946	0	-100	0	230	101300000	1000	0	0	-1	500
8860755	9813	957	0	-100	0	230	101300000	1000	0	0	-1	500
8873315	9768	939	0	-100	0	230	101300000	1000	0	0	-1	500
8885875	9785	943	0	-100	0	230	101300000	1000	0	0	-1	500
8898435	9805	956	0	-100	0	230	101300000	1000	0	0	-1	500
8910995	9841	949	0	-100	0	230	101300000	1000	0	0	-1	500
8923555	9824	944	0	-100	0	230	101300000	1000	0	0	-1	500
8936115	9831	951	0	-100	0	230	101300000	1000	0	0	-1	500
8948675	9812	948	0	-100	0	230	101300000	1000	0	0	-1	500
8961235	9821	944	0	-100	0	230	101300000	1000	0	0	-1	500
8973795	9838	948	0	-100	0	230	101300000	1000	0	0	-1	500
8986355	9858	951	0	-100	0	230	101300000	1000	0	0	-1	500
8998915	9848	950	0	-100	0	230	101300000	1000	0	0	-1	500
9011475	9763	946	0	-100	0	230	101300000	1000	0	0	-1	500
9024035	9834	956	0	-100	0	230	101300000	1000	0	0	-1	500
9036595	9804	954	0	-100	0	230	101300000	1000	0	0	-1	500
9049155	9841	956	0	-100	0	230	101300000	1000	0	0	-1	500
9061715	9765	950	0	-100	0	230	101300000	1000	0	0	-1	500
9074275	9823	950	0	-100	0	230	101300000	1000	0	0	-1	500
9086835	9768	944	0	-100	0	230	101300000	1000	0	0	-1	500
9099395	9838	954	0	-100	0	230	101300000	1000	0	0	-1	500
9111955	9795	946	0	-100	0	230	101300000	1000	0	0	-1	500
9124515	9831	953	0	-100	0	230	101300000	1000	0	0	-1	500
9137075	9778	946	0	-100	0	230	101300000	1000	0	0	-1	500
9149635	9767	941	0	-100	0	230	101300000	1000	0	0	-1	500
9162195	9810	949	0	-100	0	230	101300000	1000	0	0	-1	500
9174755	9802	949	0	-100	0	230	101300000	1000	0	0	-1	500
9187315	9843	949	0	-100	0	230	101300000	1000	0	0	-1	500
9199875	9833	944	0	-100	0	230	101300000	1000	0	0	-1	500
9212435	9838	946	0	-100	0	230	101300000	1000	0	0	-1	500
9224995	9828	949	0	-100	0	230	101300000	1000	0	0	-1	500
9237555	9841	948	0	-100	0	230	101300000	1000	0	0	-1	500
9250115	9843	949	0	-100	0	230	101300000	1000	0	0	-1	500
9262675	9783	939	0	-100	0	230	101300000	1000	0	0	-1	500
9275235	9811	945	0	-100	0	230	101300000	1000	0	0	-1	500
9287795	9727	935	0	-100	0	230	101300000	1000	0	0	-1	500
9300355	9758	940	0	-100	0	230	101300000	1000	0	0	-1	500
9312915	9767	938	0	-100	0	230	101300000	1000	0	0	-1	500
9325475	9814	942	0	-100	0	230	101300000	1000	0	0	-1	500
9338035	9773	943	0	-100	0	230	101300000	1000	0	0	-1	500
9350595	9747	939	0	-100	0	230	101300000	1000	0	0	-1	500
9363155	9729	945	0	-100	0	230	101300000	1000	0	0	-1	500
9375715	9764	946	0	-100	0	230	101300000	1000	0	0	-1	500
9388275	9717	940	0	-100	0	230	101300000	1000	0	0	-1	500
9400835	9727	941	0	-100	0	230	101300000	1000	0	0	-1	500
9413395	9663	932	0	-100	0	230	101300000	1000	0	0	-1	500
9425955	9715	942	0	-100	0	230	101300000	1000	0	0	-1	500
9438515	9768	949	0	-100	0	230	101300000	1000	0	0	-1	500
9451075	9739	936	0	-100	0	230	101300000	1000	0	0	-1	500
9463635	9728	935	0	-100	0	230	101300000	1000	0	0	-1	500
9476195	9710	930	0	-100	0	230	101300000	1000	0	0	-1	500
9488755	9700	939	0	-100	0	230	101300000	1000	0	0	-1	500
9501315	9688	940	0	-100	0	230	101300000	1000	0	0	-1	500
9513875	9771	949	0	-100	0	230	101300000	1000	0	0	-1	500
9526435	9792	945	0	-100	0	230	101300000	1000	0	0	-1	500
9538995	9661	929	0	-100	0	230	101300000	1000	0	0	-1	500
9551555	9727	937	0	-100	0	230	101300000	1000	0	0	-1	500
9564115	9727	938	0	-100	0	230	101300000	1000	0	0	-1	500
9576675	9708	934	0	-100	0	230	101300000	1000	0	0	-1	500
9589235	9698	942	0	-100	0	230	101300000	1000	0	0	-1	500
9601795	9698	944	0	-100	0	230	101300000	1000	0	0	-1	500
9614355	9691	943	0	-100	0	230	101300000	1000	0	0	-1	500
9626915	9763	941	0	-100	0	230	101300000	1000	0	0	-1	500
9639475	9710	939	0	-100	0	230	101300000	1000	0	0	-1	500
9652035	9761	938	0	-100	0	230	101300000	1000	0	0	-1	500
9664595	9686	933	0	-100	0	230	101300000	1000	0	0	-1	500
9677155	9661	929	0	-100	0	230	101300000	1000	0	0	-1	500
9689715	9722	939	0	-100	0	230	101300000	1000	0	0	-1	500
9702275	9699	942	0	-100	0	230	101300000	1000	0	0	-1	500
9714835	9700	939	0	-100	0	230	101300000	1000	0	0	-1	500
9727395	9751	939	0	-100	0	230	101300000	1000	0	0	-1	500
9739955	9739	937	0	-100	0	230	101300000	1000	0	0	-1	500
9752515	9698	932	0	-100	0	230	101300000	1000	0	0	-1	500
9765075	9746	948	0	-100	0	230	101300000	1000	0	0	-1	500
9777635	9690	935	0	-100	0	230	101300000	1000	0	0	-1	500
9790195	9653	931	0	-100	0	230	101300000	1000	0	0	-1	500
9802755	9724	946	0	-100	0	230	101300000	1000	0	0	-1	500
9815315	9739	940	0	-100	0	230	101300000	1000	0	0	-1	500
9827875	9676	928	0	-100	0	230	101300000	1000	0	0	-1	500
9840435	9688	931	0	-100	0	230	101300000	1000	0	0	-1	500
9852995	9724	943	0	-100	0	230	101300000	1000	0	0	-1	500
9865555	9661	935	0	-100	0	230	101300000	1000	0	0	-1	500
9878115	9753	944	0	-100	0	230	101300000	1000	0	0	-1	500
9890675	9724	946	0	-100	0	230	101300000	1000	0	0	-1	500
9903235	9761	948	0	-100	0	230	101300000	1000	0	0	-1	500
9915795	9725	941	0	-100	0	230	101300000	1000	0	0	-1	500
9928355	9747	940	0	-100	0	230	101300000	1000	0	0	-1	500
9940915	9737	939	0	-100	0	230	101300000	1000	0	0	-1	500
9953475	9691	933	0	-100	0	230	101300000	1000	0	0	-1	500
9966035	9773	940	0	-100	0	230	101300000	1000	0	0	-1	500
9978595	9685	929	0	-100	0	230	101300000	1000	0	0	-1	500
9991155	9742	939	0	-100	0	230	101300000	1000	0	0	-1	500
10003715	9705	931	0	-100	0	230	101300000	1000	0	0	-1	500
10016275	9654	931	0	-100	0	230	101300000	1000	0	0	-1	500
10028835	9795	945	0	-100	0	230	101300000	1000	0	0	-1	500
10041395	9700	935	0	-100	0	230	101300000	1000	0	0	-1	500
10053955	9689	936	0	-100	0	230	101300000	1000	0	0	-1	500
10066515	9760	944	0	-100	0	230	101300000	1000	0	0	-1	500
10079075	9688	934	0	-100	0	230	101300000	1000	0	0	-1	500
10091635	9641	927	0	-100	0	230	101300000	1000	0	0	-1	500
10104195	9692	940	0	-100	0	230	101300000	1000	0	0	-1	500
10116755	9657	937	0	-100	0	230	101300000	1000	0	0	-1	500
10129315	9732	942	0	-100	0	230	101300000	1000	0	0	-1	500
10141875	9725	936	0	-100	0	230	101300000	1000	0	0	-1	500
10154435	9758	938	0	-100	0	230	101300000	1000	0	0	-1	500
10166995	9651	931	0	-100	0	230	101300000	1000	0	0	-1	500
10179555	9705	941	0	-100	0	230	101300000	1000	0	0	-1	500
10192115	9768	938	0	-100	0	230	101300000	1000	0	0	-1	500
10204675	9788	942	0	-100	0	230	101300000	1000	0	0	-1	500
10217235	9715	940	0	-100	0	230	101300000	1000	0	0	-1	500
10229795	9715	934	0	-100	0	230	101300000	1000	0	0	-1	500
10242355	9772	940	0	-100	0	230	101300000	1000	0	0	-1	500
10254915	9841	954	0	-100	0	230	101300000	1000	0	0	-1	500
10267475	9756	937	0	-100	0	230	101300000	1000	0	0	-1	500
10280035	9773	939	0	-100	0	230	101300000	1000	0	0	-1	500
10292595	9777	946	0	-100	0	230	101300000	1000	0	0	-1	500
10305155	9751	934	0	-100	0	230	101300000	1000	0	0	-1	500
10317715	9754	943	0	-100	0	230	101300000	1000	0	0	-1	500
10330275	9732	935	0	-100	0	230	101300000	1000	0	0	-1	500
10342835	9776	939	0	-100	0	230	101300000	1000	0	0	-1	500
10355395	9804	951	0	-100	0	230	101300000	1000	0	0	-1	500
10367955	9809	944	0	-100	0	230	101300000	1000	0	0	-1	500
10380515	9741	932	0	-100	0	230	101300000	1000	0	0	-1	500
10393075	9775	942	0	-100	0	230	101300000	1000	0	0	-1	500
10405635	9736	936	0	-100	0	230	101300000	1000	0	0	-1	500
10418195	9733	936	0	-100	0	230	101300000	1000	0	0	-1	500
10430755	9744	942	0	-100	0	230	101300000	1000	0	0	-1	500
10443315	9768	940	0	-100	0	230	101300000	1000	0	0	-1	500
10455875	9730	935	0	-100	0	230	101300000	1000	0	0	-1	500
10468435	9739	941	0	-100	0	230	101300000	1000	0	0	-1	500
10480995	9785	947	0	-100	0	230	101300000	1000	0	0	-1	500
10493555	9814	942	0	-100	0	230	101300000	1000	0	0	-1	500
10506115	9734	941	0	-100	0	230	101300000	1000	0	0	-1	500
10518675	9759	926	0	-100	0	230	101300000	1000	0	0	-1	500
10531235	9782	933	0	-100	0	230	101300000	1000	0	0	-1	500
10543795	9763	939	0	-100	0	230	101300000	1000	0	0	-1	500
10556355	9710	919	0	-100	0	230	101300000	1000	0	0	-1	500
10568915	9741	942	0	-100	0	230	101300000	1000	0	0	-1	500
10581475	9800	941	0	-100	0	230	101300000	1000	0	0	-1	500
10594035	9756	924	0	-100	0	230	101300000	1000	0	0	-1	500
10606595	9739	945	0	-100	0	230	101300000	1000	0	0	-1	500
10619155	9701	916	0	-100	0	230	101300000	1000	0	0	-1	500
10631715	9710	929	0	-100	0	230	101300000	1000	0	0	-1	500
10644275	9775	943	0	-100	0	230	101300000	1000	0	0	-1	500
10656835	9751	922	0	-100	0	230	101300000	1000	0	0	-1	500
10669395	9771	928	0	-100	0	230	101300000	1000	0	0	-1	500
10681955	9744	929	0	-100	0	230	101300000	1000	0	0	-1	500
10694515	9693	918	0	-100	0	230	101300000	1000	0	0	-1	500
10707075	9729	935	0	-100	0	230	101300000	1000	0	0	-1	500
10719635	9662	923	0	-100	0	230	101300000	1000	0	0	-1	500
10732195	9705	929	0	-100	0	230	101300000	1000	0	0	-1	500
10744755	9714	943	0	-100	0	230	101300000	1000	0	0	-1	500
10757315	9732	920	0	-100	0	230	101300000	1000	0	0	-1	500
10769875	9805	931	0	-100	0	230	101300000	1000	0	0	-1	500
10782435	9703	937	0	-100	0	230	101300000	1000	0	0	-1	500
10794995	9710	921	0	-100	0	230	101300000	1000	0	0	-1	500
10807555	9747	940	0	-100	0	230	101300000	1000	0	0	-1	500
10820115	9734	925	0	-100	0	230	101300000	1000	0	0	-1	500
10832675	9703	927	0	-100	0	230	101300000	1000	0	0	-1	500
10845235	9726	941	0	-100	0	230	101300000	1000	0	0	-1	500
10857795	9761	914	0	-100	0	230	101300000	1000	0	0	-1	500
10870355	9668	926	0	-100	0	230	101300000	1000	0	0	-1	500
10882915	9775	928	0	-100	0	230	101300000	1000	0	0	-1	500
10895475	9758	926	0	-100	0	230	101300000	1000	0	0	-1	500
10908035	9785	932	0	-100	0	230	101300000	1000	0	0	-1	500
10920595	9760	936	0	-100	0	230	101300000	1000	0	0	-1	500
10933155	9783	924	0	-100	0	230	101300000	1000	0	0	-1	500
10945715	9773	950	0	-100	0	230	101300000	1000	0	0	-1	500
10958275	9705	912	0	-100	0	230	101300000	1000	0	0	-1	500
10970835	9764	932	0	-100	0	230	101300000	1000	0	0	-1	500
10983395	9795	938	0	-100	0	230	101300000	1000	0	0	-1	500
10995955	9754	920	0	-100	0	230	101300000	1000	0	0	-1	500
11008515	9793	941	0	-100	0	230	101300000	1000	0	0	-1	500
11021075	9741	931	0	-100	0	230	101300000	1000	0	0	-1	500
11033635	9773	935	0	-100	0	230	101300000	1000	0	0	-1	500
11046195	9782	935	0	-100	0	230	101300000	1000	0	0	-1	500
11058755	9745	923	0	-100	0	230	101300000	1000	0	0	-1	500
11071315	9761	928	0	-100	0	230	101300000	1000	0	0	-1	500
11083875	9724	934	0	-100	0	230	101300000	1000	0	0	-1	500
11096435	9729	923	0	-100	0	230	101300000	1000	0	0	-1	500
11108995	9709	928	0	-100	0	230	101300000	1000	0	0	-1	500
11121555	9727	929	0	-100	0	230	101300000	1000	0	0	-1	500
11134115	9799	928	0	-100	0	230	101300000	1000	0	0	-1	500
11146675	9758	944	0	-100	0	230	101300000	1000	0	0	-1	500
11159235	9800	918	0	-100	0	230	101300000	1000	0	0	-1	500
11171795	9739	931	0	-100	0	230	101300000	1000	0	0	-1	500
11184355	9802	933	0	-100	0	230	101300000	1000	0	0	-1	500
11196915	9749	918	0	-100	0	230	101300000	1000	0	0	-1	500
11209475	9783	936	0	-100	0	230	101300000	1000	0	0	-1	500
11222035	9815	935	0	-100	0	230	101300000	1000	0	0	-1	500
11234595	9763	925	0	-100	0	230	101300000	1000	0	0	-1	500
11247155	9761	941	0	-100	0	230	101300000	1000	0	0	-1	500
11259715	9754	919	0	-100	0	230	101300000	1000	0	0	-1	500
11272275	9785	921	0	-100	0	230	101300000	1000	0	0	-1	500
11284835	9737	930	0	-100	0	230	101300000	1000	0	0	-1	500
11297395	9743	928	0	-100	0	230	101300000	1000	0	0	-1	500
11309955	9794	939	0	-100	0	230	101300000	1000	0	0	-1	500
11322515	9787	936	0	-100	0	230	101300000	1000	0	0	-1	500
11335075	9783	925	0	-100	0	230	101300000	1000	0	0	-1	500
11347635	9710	935	0	-100	0	230	101300000	1000	0	0	-1	500
11360195	9832	933	0	-100	0	230	101300000	1000	0	0	-1	500
11372755	9751	924	0	-100	0	230	101300000	1000	0	0	-1	500
11385315	9734	931	0	-100	0	230	101300000	1000	0	0	-1	500
11397875	9708	919	0	-100	0	230	101300000	1000	0	0	-1	500
11410435	9768	933	0	-100	0	230	101300000	1000	0	0	-1	500
11422995	9756	928	0	-100	0	230	101300000	1000	0	0	-1	500
11435555	9751	931	0	-100	0	230	101300000	1000	0	0	-1	500
11448115	9768	936	0	-100	0	230	101300000	1000	0	0	-1	500
11460675	9787	920	0	-100	0	230	101300000	1000	0	0	-1	500
11473235	9782	926	0	-100	0	230	101300000	1000	0	0	-1	500
11485795	9809	948	0	-100	0	230	101300000	1000	0	0	-1	500
11498355	9780	922	0	-100	0	230	101300000	1000	0	0	-1	500
11510915	9720	923	0	-100	0	230	101300000	1000	0	0	-1	500
11523475	9794	935	0	-100	0	230	101300000	1000	0	0	-1	500
11536035	9722	917	0	-100	0	230	101300000	1000	0	0	-1	500
11548595	9749	926	0	-100	0	230	101300000	1000	0	0	-1	500
11561155	9755	929	0	-100	0	230	101300000	1000	0	0	-1	500
11573715	9722	915	0	-100	0	230	101300000	1000	0	0	-1	500
11586275	9716	933	0	-100	0	230	101300000	1000	0	0	-1	500
11598835	9782	942	0	-100	0	230	101300000	1000	0	0	-1	500
11611395	9741	931	0	-100	0	230	101300000	1000	0	0	-1	500
11623955	9761	935	0	-100	0	230	101300000	1000	0	0	-1	500
11636515	9734	916	0	-100	0	230	101300000	1000	0	0	-1	500
11649075	9766	928	0	-100	0	230	101300000	1000	0	0	-1	500
11661635	9763	933	0	-100	0	230	101300000	1000	0	0	-1	500
11674195	9717	920	0	-100	0	230	101300000	1000	0	0	-1	500
11686755	9773	948	0	-100	0	230	101300000	1000	0	0	-1	500
11699315	9790	935	0	-100	0	230	101300000	1000	0	0	-1	500
11711875	9749	923	0	-100	0	230	101300000	1000	0	0	-1	500
11724435	9754	933	0	-100	0	230	101300000	1000	0	0	-1	500
11736995	9778	921	0	-100	0	230	101300000	1000	0	0	-1	500
11749555	9768	925	0	-100	0	230	101300000	1000	0	0	-1	500
11762115	9669	923	0	-100	0	230	101300000	1000	0	0	-1	500
11774675	9752	917	0	-100	0	230	101300000	1000	0	0	-1	500
11787235	9783	941	0	-100	0	230	101300000	1000	0	0	-1	500
11799795	9734	927	0	-100	0	230	101300000	1000	0	0	-1	500
11812355	9809	938	0	-100	0	230	101300000	1000	0	0	-1	500
11824915	9746	938	0	-100	0	230	101300000	1000	0	0	-1	500
11837475	9812	925	0	-100	0	230	101300000	1000	0	0	-1	500
11850035	9809	933	0	-100	0	230	101300000	1000	0	0	-1	500
11862595	9734	933	0	-100	0	230	101300000	1000	0	0	-1	500
11875155	9829	929	0	-100	0	230	101300000	1000	0	0	-1	500
11887715	9749	939	0	-100	0	230	101300000	1000	0	0	-1	500
11900275	9710	921	0	-100	0	230	101300000	1000	0	0	-1	500
11912835	9773	912	0	-100	0	230	101300000	1000	0	0	-1	500
11925395	9767	930	0	-100	0	230	101300000	1000	0	0	-1	500
11937955	9818	923	0	-100	0	230	101300000	1000	0	0	-1	500
11950515	9826	939	0	-100	0	230	101300000	1000	0	0	-1	500
11963075	9775	931	0	-100	0	230	101300000	1000	0	0	-1	500
11975635	9795	915	0	-100	0	230	101300000	1000	0	0	-1	500
11988195	9756	931	0	-100	0	230	101300000	1000	0	0	-1	500
12000755	9688	927	0	-100	0	230	101300000	1000	0	0	-1	500
12013315	9783	933	0	-100	0	230	101300000	1000	0	0	-1	500
12025875	9787	934	0	-100	0	230	101300000	1000	0	0	-1	500
12038435	9751	925	0	-100	0	230	101300000	1000	0	0	-1	500
12050995	9741	919	0	-100	0	230	101300000	1000	0	0	-1	500
12063555	9717	935	0	-100	0	230	101300000	1000	0	0	-1	500
12076115	9717	917	0	-100	0	230	101300000	1000	0	0	-1	500
12088675	9766	930	0	-100	0	230	101300000	1000	0	0	-1	500
12101235	9739	931	0	-100	0	230	101300000	1000	0	0	-1	500
12113795	9758	927	0	-100	0	230	101300000	1000	0	0	-1	500
12126355	9754	929	0	-100	0	230	101300000	1000	0	0	-1	500
12138915	9778	922	0	-100	0	230	101300000	1000	0	0	-1	500
12151475	9724	926	0	-100	0	230	101300000	1000	0	0	-1	500
12164035	9792	947	0	-100	0	230	101300000	1000	0	0	-1	500
12176595	9771	921	0	-100	0	230	101300000	1000	0	0	-1	500
12189155	9783	945	0	-100	0	230	101300000	1000	0	0	-1	500
12201715	9748	923	0	-100	0	230	101300000	1000	0	0	-1	500
12214275	9727	915	0	-100	0	230	101300000	1000	0	0	-1	500
12226835	9778	940	0	-100	0	230	101300000	1000	0	0	-1	500
12239395	9783	933	0	-100	0	230	101300000	1000	0	0	-1	500
12251955	9787	935	0	-100	0	230	101300000	1000	0	0	-1	500
12264515	9785	930	0	-100	0	230	101300000	1000	0	0	-1	500
12277075	9800	931	0	-100	0	230	101300000	1000	0	0	-1	500
12289635	9765	938	0	-100	0	230	101300000	1000	0	0	-1	500
12302195	9751	938	0	-100	0	230	101300000	1000	0	0	-1	500
12314755	9753	918	0	-100	0	230	101300000	1000	0	0	-1	500
12327315	9772	948	0	-100	0	230	101300000	1000	0	0	-1	500
12339875	9768	925	0	-100	0	230	101300000	1000	0	0	-1	500
12352435	9727	928	0	-100	0	230	101300000	1000	0	0	-1	500
12364995	9756	937	0	-100	0	230	101300000	1000	0	0	-1	500
12377555	9778	929	0	-100	0	230	101300000	1000	0	0	-1	500
12390115	9724	932	0	-100	0	230	101300000	1000	0	0	-1	500
12402675	9797	941	0	-100	0	230	101300000	1000	0	0	-1	500
12415235	9737	926	0	-100	0	230	101300000	1000	0	0	-1	500
12427795	9773	933	0	-100	0	230	101300000	1000	0	0	-1	500
12440355	9782	920	0	-100	0	230	101300000	1000	0	0	-1	500
12452915	9752	916	0	-100	0	230	101300000	1000	0	0	-1	500
12465475	9781	946	0	-100	0	230	101300000	1000	0	0	-1	500
12478035	9757	917	0	-100	0	230	101300000	1000	0	0	-1	500
12490595	9800	923	0	-100	0	230	101300000	1000	0	0	-1	500
12503155	9735	921	0	-100	0	230	101300000	1000	0	0	-1	500
12515715	9780	921	0	-100	0	230	101300000	1000	0	0	-1	500
12528275	9771	933	0	-100	0	230	101300000	1000	0	0	-1	500
12540835	9746	935	0	-100	0	230	101300000	1000	0	0	-1	500
12553395	9729	913	0	-100	0	230	101300000	1000	0	0	-1	500
12565955	9782	937	0	-100	0	230	101300000	1000	0	0	-1	500
12578515	9734	914	0	-100	0	230	101300000	1000	0	0	-1	500
12591075	9748	936	0	-100	0	230	101300000	1000	0	0	-1	500
12603635	9717	948	0	-100	0	230	101300000	1000	0	0	-1	500
12616195	9790	919	0	-100	0	230	101300000	1000	0	0	-1	500
12628755	9800	931	0	-100	0	230	101300000	1000	0	0	-1	500
12641315	9763	924	0	-100	0	230	101300000	1000	0	0	-1	500
12653875	9729	922	0	-100	0	230	101300000	1000	0	0	-1	500
12666435	9763	949	0	-100	0	230	101300000	1000	0	0	-1	500
12678995	9757	930	0	-100	0	230	101300000	1000	0	0	-1	500
12691555	9732	924	0	-100	0	230	101300000	1000	0	0	-1	500
12704115	9720	931	0	-100	0	230	101300000	1000	0	0	-1	500
12716675	9749	912	0	-100	0	230	101300000	1000	0	0	-1	500
12729235	9755	928	0	-100	0	230	101300000	1000	0	0	-1	500
12741795	9743	936	0	-100	0	230	101300000	1000	0	0	-1	500
12754355	9759	921	0	-100	0	230	101300000	1000	0	0	-1	500
12766915	9810	940	0	-100	0	230	101300000	1000	0	0	-1	500
12779475	9812	924	0	-100	0	230	101300000	1000	0	0	-1	500
12792035	9716	919	0	-100	0	230	101300000	1000	0	0	-1	500
12804595	9715	937	0	-100	0	230	101300000	1000	0	0	-1	500
12817155	9766	926	0	-100	0	230	101300000	1000	0	0	-1	500
12829715	9780	938	0	-100	0	230	101300000	1000	0	0	-1	500
12842275	9793	945	0	-100	0	230	101300000	1000	0	0	-1	500
12854835	9741	919	0	-100	0	230	101300000	1000	0	0	-1	500
12867395	9783	928	0	-100	0	230	101300000	1000	0	0	-1	500
12879955	9757	922	0	-100	0	230	101300000	1000	0	0	-1	500
12892515	9795	934	0	-100	0	230	101300000	1000	0	0	-1	500
12905075	9736	934	0	-100	0	230	101300000	1000	0	0	-1	500
12917635	9752	915	0	-100	0	230	101300000	1000	0	0	-1	500
12930195	9768	921	0	-100	0	230	101300000	1000	0	0	-1	500
12942755	9721	927	0	-100	0	230	101300000	1000	0	0	-1	500
12955315	9799	921	0	-100	0	230	101300000	1000	0	0	-1	500
12967875	9752	930	0	-100	0	230	101300000	1000	0	0	-1	500
12980435	9746	920	0	-100	0	230	101300000	1000	0	0	-1	500
12992995	9744	911	0	-100	0	230	101300000	1000	0	0	-1	500
13005555	9727	945	0	-100	0	230	101300000	1000	0	0	-1	500
13018115	9732	916	0	-100	0	230	101300000	1000	0	0	-1	500
13030675	9770	936	0	-100	0	230	101300000	1000	0	0	-1	500
13043235	9722	923	0	-100	0	230	101300000	1000	0	0	-1	500
13055795	9734	916	0	-100	0	230	101300000	1000	0	0	-1	500
13068355	9738	933	0	-100	0	230	101300000	1000	0	0	-1	500
13080915	9744	933	0	-100	0	230	101300000	1000	0	0	-1	500
13093475	9693	906	0	-100	0	230	101300000	1000	0	0	-1	500
13106035	9729	936	0	-100	0	230	101300000	1000	0	0	-1	500
13118595	9767	928	0	-100	0	230	101300000	1000	0	0	-1	500
13131155	9739	931	0	-100	0	230	101300000	1000	0	0	-1	500
13143715	9795	940	0	-100	0	230	101300000	1000	0	0	-1	500
13156275	9693	914	0	-100	0	230	101300000	1000	0	0	-1	500
13168835	9729	931	0	-100	0	230	101300000	1000	0	0	-1	500
13181395	9757	924	0	-100	0	230	101300000	1000	0	0	-1	500
13193955	9754	922	0	-100	0	230	101300000	1000	0	0	-1	500
13206515	9710	941	0	-100	0	230	101300000	1000	0	0	-1	500
13219075	9725	931	0	-100	0	230	101300000	1000	0	0	-1	500
13231635	9800	926	0	-100	0	230	101300000	1000	0	0	-1	500
13244195	9730	929	0	-100	0	230	101300000	1000	0	0	-1	500
13256755	9719	916	0	-100	0	230	101300000	1000	0	0	-1	500
13269315	9744	931	0	-100	0	230	101300000	1000	0	0	-1	500
13281875	9756	935	0	-100	0	230	101300000	1000	0	0	-1	500
13294435	9782	920	0	-100	0	230	101300000	1000	0	0	-1	500
13306995	9744	942	0	-100	0	230	101300000	1000	0	0	-1	500
13319555	9766	934	0	-100	0	230	101300000	1000	0	0	-1	500
13332115	9736	922	0	-100	0	230	101300000	1000	0	0	-1	500
13344675	9800	940	0	-100	0	230	101300000	1000	0	0	-1	500
13357235	9788	921	0	-100	0	230	101300000	1000	0	0	-1	500
13369795	9773	939	0	-100	0	230	101300000	1000	0	0	-1	500
13382355	9742	936	0	-100	0	230	101300000	1000	0	0	-1	500
13394915	9766	940	0	-100	0	230	101300000	1000	0	0	-1	500
13407475	9812	948	0	-100	0	230	101300000	1000	0	0	-1	500
13420035	9741	939	0	-100	0	230	101300000	1000	0	0	-1	500
13432595	9635	930	0	-100	0	230	101300000	1000	0	0	-1	500
13445155	9771	947	0	-100	0	230	101300000	1000	0	0	-1	500
13457715	9719	937	0	-100	0	230	101300000	1000	0	0	-1	500
13470275	9788	942	0	-100	0	230	101300000	1000	0	0	-1	500
13482835	9797	940	0	-100	0	230	101300000	1000	0	0	-1	500
13495395	9734	935	0	-100	0	230	101300000	1000	0	0	-1	500
13507955	9758	936	0	-100	0	230	101300000	1000	0	0	-1	500
13520515	9664	930	0	-100	0	230	101300000	1000	0	0	-1	500
13533075	9698	934	0	-100	0	230	101300000	1000	0	0	-1	500
13545635	9649	929	0	-100	0	230	101300000	1000	0	0	-1	500
13558195	9688	932	0	-100	0	230	101300000	1000	0	0	-1	500
13570755	9679	929	0	-100	0	230	101300000	1000	0	0	-1	500
13583315	9700	931	0	-100	0	230	101300000	1000	0	0	-1	500
13595875	9715	932	0	-100	0	230	101300000	1000	0	0	-1	500
13608435	9671	925	0	-100	0	230	101300000	1000	0	0	-1	500
13620995	9743	938	0	-100	0	230	101300000	1000	0	0	-1	500
13633555	9693	930	0	-100	0	230	101300000	1000	0	0	-1	500
13646115	9754	936	0	-100	0	230	101300000	1000	0	0	-1	500
13658675	9639	928	0	-100	0	230	101300000	1000	0	0	-1	500
13671235	9708	934	0	-100	0	230	101300000	1000	0	0	-1	500
13683795	9704	930	0	-100	0	230	101300000	1000	0	0	-1	500
13696355	9686	924	0	-100	0	230	101300000	1000	0	0	-1	500
13708915	9729	933	0	-100	0	230	101300000	1000	0	0	-1	500
13721475	9681	927	0	-100	0	230	101300000	1000	0	0	-1	500
13734035	9693	935	0	-100	0	230	101300000	1000	0	0	-1	500
13746595	9701	938	0	-100	0	230	101300000	1000	0	0	-1	500
13759155	9746	939	0	-100	0	230	101300000	1000	0	0	-1	500
13771715	9720	931	0	-100	0	230	101300000	1000	0	0	-1	500
13784275	9707	927	0	-100	0	230	101300000	1000	0	0	-1	500
13796835	9702	930	0	-100	0	230	101300000	1000	0	0	-1	500
13809395	9743	939	0	-100	0	230	101300000	1000	0	0	-1	500
13821955	9698	927	0	-100	0	230	101300000	1000	0	0	-1	500
13834515	9744	931	0	-100	0	230	101300000	1000	0	0	-1	500
13847075	9724	932	0	-100	0	230	101300000	1000	0	0	-1	500
13859635	9700	931	0	-100	0	230	101300000	1000	0	0	-1	500
13872195	9725	935	0	-100	0	230	101300000	1000	0	0	-1	500
13884755	9710	937	0	-100	0	230	101300000	1000	0	0	-1	500
13897315	9688	926	0	-100	0	230	101300000	1000	0	0	-1	500
13909875	9753	936	0	-100	0	230	101300000	1000	0	0	-1	500
13922435	9669	927	0	-100	0	230	101300000	1000	0	0	-1	500
13934995	9678	925	0	-100	0	230	101300000	1000	0	0	-1	500
13947555	9732	944	0	-100	0	230	101300000	1000	0	0	-1	500
13960115	9688	928	0	-100	0	230	101300000	1000	0	0	-1	500
13972675	9700	923	0	-100	0	230	101300000	1000	0	0	-1	500
13985235	9717	931	0	-100	0	230	101300000	1000	0	0	-1	500
13997795	9714	937	0	-100	0	230	101300000	1000	0	0	-1	500
14010355	9737	934	0	-100	0	230	101300000	1000	0	0	-1	500
14022915	9693	922	0	-100	0	230	101300000	1000	0	0	-1	500
14035475	9712	927	0	-100	0	230	101300000	1000	0	0	-1	500
14048035	9742	937	0	-100	0	230	101300000	1000	0	0	-1	500
14060595	9712	933	0	-100	0	230	101300000	1000	0	0	-1	500
14073155	9642	928	0	-100	0	230	101300000	1000	0	0	-1	500
14085715	9695	935	0	-100	0	230	101300000	1000	0	0	-1	500
14098275	9712	933	0	-100	0	230	101300000	1000	0	0	-1	500
14110835	9703	936	0	-100	0	230	101300000	1000	0	0	-1	500
14123395	9686	933	0	-100	0	230	101300000	1000	0	0	-1	500
14135955	9732	942	0	-100	0	230	101300000	1000	0	0	-1	500
14148515	9781	942	0	-100	0	230	101300000	1000	0	0	-1	500
14161075	9657	928	0	-100	0	230	101300000	1000	0	0	-1	500
14173635	9679	937	0	-100	0	230	101300000	1000	0	0	-1	500
14186195	9742	937	0	-100	0	230	101300000	1000	0	0	-1	500
14198755	9680	929	0	-100	0	230	101300000	1000	0	0	-1	500
14211315	9717	936	0	-100	0	230	101300000	1000	0	0	-1	500
14223875	9714	929	0	-100	0	230	101300000	1000	0	0	-1	500
14236435	9698	930	0	-100	0	230	101300000	1000	0	0	-1	500
14248995	9688	928	0	-100	0	230	101300000	1000	0	0	-1	500
14261555	9756	933	0	-100	0	230	101300000	1000	0	0	-1	500
14274115	9698	927	0	-100	0	230	101300000	1000	0	0	-1	500
14286675	9683	927	0	-100	0	230	101300000	1000	0	0	-1	500
14299235	9672	924	0	-100	0	230	101300000	1000	0	0	-1	500
14311795	9683	935	0	-100	0	230	101300000	1000	0	0	-1	500
14324355	9666	931	0	-100	0	230	101300000	1000	0	0	-1	500
14336915	9698	937	0	-100	0	230	101300000	1000	0	0	-1	500
14349475	9684	930	0	-100	0	230	101300000	1000	0	0	-1	500
14362035	9684	928	0	-100	0	230	101300000	1000	0	0	-1	500
14374595	9661	929	0	-100	0	230	101300000	1000	0	0	-1	500
14387155	9662	927	0	-100	0	230	101300000	1000	0	0	-1	500
14399715	9725	936	0	-100	0	230	101300000	1000	0	0	-1	500
14412275	9681	927	0	-100	0	230	101300000	1000	0	0	-1	500
14424835	9669	926	0	-100	0	230	101300000	1000	0	0	-1	500
14437395	9654	923	0	-100	0	230	101300000	1000	0	0	-1	500
14449955	9708	935	0	-100	0	230	101300000	1000	0	0	-1	500
14462515	9686	927	0	-100	0	230	101300000	1000	0	0	-1	500
14475075	9715	936	0	-100	0	230	101300000	1000	0	0	-1	500
14487635	9703	936	0	-100	0	230	101300000	1000	0	0	-1	500
14500195	9680	929	0	-100	0	230	101300000	1000	0	0	-1	500
14512755	9678	928	0	-100	0	230	101300000	1000	0	0	-1	500
14525315	9739	930	0	-100	0	230	101300000	1000	0	0	-1	500
14537875	9769	932	0	-100	0	230	101300000	1000	0	0	-1	500
14550435	9637	919	0	-100	0	230	101300000	1000	0	0	-1	500
14562995	9707	929	0	-100	0	230	101300000	1000	0	0	-1	500
14575555	9739	932	0	-100	0	230	101300000	1000	0	0	-1	500
14588115	9753	933	0	-100	0	230	101300000	1000	0	0	-1	500
14600675	9688	927	0	-100	0	230	101300000	1000	0	0	-1	500
14613235	9678	926	0	-100	0	230	101300000	1000	0	0	-1	500
14625795	9659	926	0	-100	0	230	101300000	1000	0	0	-1	500
14638355	9744	932	0	-100	0	230	101300000	1000	0	0	-1	500
14650915	9700	925	0	-100	0	230	101300000	1000	0	0	-1	500
14663475	9666	922	0	-100	0	230	101300000	1000	0	0	-1	500
14676035	9689	930	0	-100	0	230	101300000	1000	0	0	-1	500
14688595	9722	927	0	-100	0	230	101300000	1000	0	0	-1	500
14701155	9685	925	0	-100	0	230	101300000	1000	0	0	-1	500
14713715	9685	932	0	-100	0	230	101300000	1000	0	0	-1	500
14726275	9652	930	0	-100	0	230	101300000	1000	0	0	-1	500
14738835	9713	940	0	-100	0	230	101300000	1000	0	0	-1	500
14751395	9676	932	0	-100	0	230	101300000	1000	0	0	-1	500
14763955	9670	933	0	-100	0	230	101300000	1000	0	0	-1	500
14776515	9710	935	0	-100	0	230	101300000	1000	0	0	-1	500
14789075	9707	934	0	-100	0	230	101300000	1000	0	0	-1	500
14801635	9705	928	0	-100	0	230	101300000	1000	0	0	-1	500
14814195	9720	929	0	-100	0	230	101300000	1000	0	0	-1	500
14826755	9705	929	0	-100	0	230	101300000	1000	0	0	-1	500
14839315	9715	932	0	-100	0	230	101300000	1000	0	0	-1	500
14851875	9735	935	0	-100	0	230	101300000	1000	0	0	-1	500
14864435	9685	927	0	-100	0	230	101300000	1000	0	0	-1	500
14876995	9683	927	0	-100	0	230	101300000	1000	0	0	-1	500
14889555	9720	933	0	-100	0	230	101300000	1000	0	0	-1	500
14902115	9700	934	0	-100	0	230	101300000	1000	0	0	-1	500
14914675	9676	924	0	-100	0	230	101300000	1000	0	0	-1	500
14927235	9685	928	0	-100	0	230	101300000	1000	0	0	-1	500
14939795	9674	929	0	-100	0	230	101300000	1000	0	0	-1	500
14952355	9696	935	0	-100	0	230	101300000	1000	0	0	-1	500
14964915	9702	933	0	-100	0	230	101300000	1000	0	0	-1	500
14977475	9729	928	0	-100	0	230	101300000	1000	0	0	-1	500
14990035	9675	921	0	-100	0	230	101300000	1000	0	0	-1	500
15002595	9695	929	0	-100	0	230	101300000	1000	0	0	-1	500
15015155	9652	924	0	-100	0	230	101300000	1000	0	0	-1	500
15027715	9686	927	0	-100	0	230	101300000	1000	0	0	-1	500
15040275	9722	936	0	-100	0	230	101300000	1000	0	0	-1	500
15052835	9666	930	0	-100	0	230	101300000	1000	0	0	-1	500
15065395	9720	938	0	-100	0	230	101300000	1000	0	0	-1	500
15077955	9620	926	0	-100	0	230	101300000	1000	0	0	-1	500
15090515	9710	938	0	-100	0	230	101300000	1000	0	0	-1	500
15103075	9696	928	0	-100	0	230	101300000	1000	0	0	-1	500
15115635	9696	936	0	-100	0	230	101300000	1000	0	0	-1	500
15128195	9744	939	0	-100	0	230	101300000	1000	0	0	-1	500
15140755	9696	932	0	-100	0	230	101300000	1000	0	0	-1	500
15153315	9685	932	0	-100	0	230	101300000	1000	0	0	-1	500
15165875	9751	940	0	-100	0	230	101300000	1000	0	0	-1	500
15178435	9691	931	0	-100	0	230	101300000	1000	0	0	-1	500
15190995	9668	930	0	-100	0	230	101300000	1000	0	0	-1	500
15203555	9691	925	0	-100	0	230	101300000	1000	0	0	-1	500
15216115	9710	929	0	-100	0	230	101300000	1000	0	0	-1	500
15228675	9657	925	0	-100	0	230	101300000	1000	0	0	-1	500
15241235	9691	924	0	-100	0	230	101300000	1000	0	0	-1	500
15253795	9654	921	0	-100	0	230	101300000	1000	0	0	-1	500
15266355	9759	934	0	-100	0	230	101300000	1000	0	0	-1	500
15278915	9692	928	0	-100	0	230	101300000	1000	0	0	-1	500
15291475	9632	925	0	-100	0	230	101300000	1000	0	0	-1	500
15304035	9715	941	0	-100	0	230	101300000	1000	0	0	-1	500
15316595	9717	939	0	-100	0	230	101300000	1000	0	0	-1	500
15329155	9713	936	0	-100	0	230	101300000	1000	0	0	-1	500
15341715	9741	939	0	-100	0	230	101300000	1000	0	0	-1	500
15354275	9766	941	0	-100	0	230	101300000	1000	0	0	-1	500
15366835	9714	929	0	-100	0	230	101300000	1000	0	0	-1	500
15379395	9758	930	0	-100	0	230	101300000	1000	0	0	-1	500
15391955	9698	926	0	-100	0	230	101300000	1000	0	0	-1	500
15404515	9695	930	0	-100	0	230	101300000	1000	0	0	-1	500
15417075	9724	937	0	-100	0	230	101300000	1000	0	0	-1	500
15429635	9763	944	0	-100	0	230	101300000	1000	0	0	-1	500
15442195	9688	919	0	-100	0	230	101300000	1000	0	0	-1	500
15454755	9651	927	0	-100	0	230	101300000	1000	0	0	-1	500
15467315	9698	933	0	-100	0	230	101300000	1000	0	0	-1	500
15479875	9691	928	0	-100	0	230	101300000	1000	0	0	-1	500
15492435	9765	934	0	-100	0	230	101300000	1000	0	0	-1	500
15504995	9662	919	0	-100	0	230	101300000	1000	0	0	-1	500
15517555	9691	929	0	-100	0	230	101300000	1000	0	0	-1	500
15530115	9762	941	0	-100	0	230	101300000	1000	0	0	-1	500
15542675	9713	931	0	-100	0	230	101300000	1000	0	0	-1	500
15555235	9766	935	0	-100	0	230	101300000	1000	0	0	-1	500
15567795	9676	924	0	-100	0	230	101300000	1000	0	0	-1	500
15580355	9736	936	0	-100	0	230	101300000	1000	0	0	-1	500
15592915	9721	936	0	-100	0	230	101300000	1000	0	0	-1	500
15605475	9843	941	0	-100	0	230	101300000	1000	0	0	-1	500
15618035	9710	928	0	-100	0	230	101300000	1000	0	0	-1	500
15630595	9666	925	0	-100	0	230	101300000	1000	0	0	-1	500
15643155	9676	929	0	-100	0	230	101300000	1000	0	0	-1	500
15655715	9705	929	0	-100	0	230	101300000	1000	0	0	-1	500
15668275	9717	931	0	-100	0	230	101300000	1000	0	0	-1	500
15680835	9678	928	0	-100	0	230	101300000	1000	0	0	-1	500
15693395	9768	941	0	-100	0	230	101300000	1000	0	0	-1	500
15705955	9723	941	0	-100	0	230	101300000	1000	0	0	-1	500
15718515	9838	953	0	-100	0	230	101300000	1000	0	0	-1	500
15731075	9925	959	0	-100	0	230	101300000	1000	0	0	-1	500
15743635	9921	950	0	-100	0	230	101300000	1000	0	0	-1	500
15756195	9790	935	0	-100	0	230	101300000	1000	0	0	-1	500
15768755	9724	925	0	-100	0	230	101300000	1000	0	0	-1	500
15781315	9715	923	0	-100	0	230	101300000	1000	0	0	-1	500
15793875	9912	960	0	-100	0	230	101300000	1000	0	0	-1	500
15806435	9810	930	0	-100	0	230	101300000	1000	0	0	-1	500
15818995	9742	930	0	-100	0	230	101300000	1000	0	0	-1	500
15831555	9758	931	0	-100	0	230	101300000	1000	0	0	-1	500
15844115	9778	934	0	-100	0	230	101300000	1000	0	0	-1	500
15856675	9741	928	0	-100	0	230	101300000	1000	0	0	-1	500
15869235	9748	933	0	-100	0	230	101300000	1000	0	0	-1	500
15881795	9768	943	0	-100	0	230	101300000	1000	0	0	-1	500
15894355	9912	962	0	-100	0	230	101300000	1000	0	0	-1	500
15906915	9875	941	0	-100	0	230	101300000	1000	0	0	-1	500
15919475	9726	924	0	-100	0	230	101300000	1000	0	0	-1	500
15932035	9867	948	0	-100	0	230	101300000	1000	0	0	-1	500
15944595	9746	933	0	-100	0	230	101300000	1000	0	0	-1	500
15957155	9820	960	0	-100	0	230	101300000	1000	0	0	-1	500
15969715	8823	881	0	-100	0	230	101300000	1000	0	0	-1	500
15982275	8323	851	0	-100	0	230	101300000	1000	0	0	-1	500
15994835	8510	865	0	-100	0	230	101300000	1000	0	0	-1	500
16007395	9179	927	0	-100	0	230	101300000	1000	0	0	-1	500
16019955	9758	975	0	-100	0	230	101300000	1000	0	0	-1	500
16032515	9936	1007	0	-100	0	230	101300000	1000	0	0	-1	500
16045075	9928	1017	0	-100	0	230	101300000	1000	0	0	-1	500
16057635	9917	1018	0	-100	0	230	101300000	1000	0	0	-1	500
16070195	9933	1022	0	-100	0	230	101300000	1000	0	0	-1	500
16082755	9928	1016	0	-100	0	230	101300000	1000	0	0	-1	500
16095315	9925	1013	0	-100	0	230	101300000	1000	0	0	-1	500
16107875	9923	958	0	-100	0	230	101300000	1000	0	0	-1	500
16120435	9928	958	0	-100	0	230	101300000	1000	0	0	-1	500
16132995	9933	1005	0	-100	0	230	101300000	1000	0	0	-1	500
16145555	9936	1019	0	-100	0	230	101300000	1000	0	0	-1	500
16158115	9933	996	0	-100	0	230	101300000	1000	0	0	-1	500
16170675	9868	950	0	-100	0	230	101300000	1000	0	0	-1	500
16183235	9895	957	0	-100	0	230	101300000	1000	0	0	-1	500
16195795	9933	996	0	-100	0	230	101300000	1000	0	0	-1	500
16208355	9923	1016	0	-100	0	230	101300000	1000	0	0	-1	500
16220915	9925	1019	0	-100	0	230	101300000	1000	0	0	-1	500
16233475	9933	1022	0	-100	0	230	101300000	1000	0	0	-1	500
16246035	9928	1023	0	-100	0	230	101300000	1000	0	0	-1	500
16258595	9928	1022	0	-100	0	230	101300000	1000	0	0	-1	500
16271155	9936	1021	0	-100	0	230	101300000	1000	0	0	-1	500
16283715	9931	1023	0	-100	0	230	101300000	1000	0	0	-1	500
16296275	9931	1022	0	-100	0	230	101300000	1000	0	0	-1	500
16308835	9931	1023	0	-100	0	230	101300000	1000	0	0	-1	500
16321395	9915	1020	0	-100	0	230	101300000	1000	0	0	-1	500
16333955	9928	1024	0	-100	0	230	101300000	1000	0	0	-1	500
16346515	9923	1022	0	-100	0	230	101300000	1000	0	0	-1	500
16359075	9925	1025	0	-100	0	230	101300000	1000	0	0	-1	500
16371635	9931	1029	0	-100	0	230	101300000	1000	0	0	-1	500
16384195	9925	1028	0	-100	0	230	101300000	1000	0	0	-1	500
16396755	9928	1026	0	-100	0	230	101300000	1000	0	0	-1	500
16409315	9923	1021	0	-100	0	230	101300000	1000	0	0	-1	500
16421875	9933	1022	0	-100	0	230	101300000	1000	0	0	-1	500
16434435	9933	1022	0	-100	0	230	101300000	1000	0	0	-1	500
16446995	9933	1014	0	-100	0	230	101300000	1000	0	0	-1	500
16459555	9931	1023	0	-100	0	230	101300000	1000	0	0	-1	500
16472115	9928	1023	0	-100	0	230	101300000	1000	0	0	-1	500
16484675	9925	1021	0	-100	0	230	101300000	1000	0	0	-1	500
16497235	9923	1019	0	-100	0	230	101300000	1000	0	0	-1	500
16509795	9933	1026	0	-100	0	230	101300000	1000	0	0	-1	500
16522355	9928	997	0	-100	0	230	101300000	1000	0	0	-1	500
16534915	9933	1018	0	-100	0	230	101300000	1000	0	0	-1	500
16547475	9931	1018	0	-100	0	230	101300000	1000	0	0	-1	500
16560035	9917	1012	0	-100	0	230	101300000	1000	0	0	-1	500
16572595	9929	945	0	-100	0	230	101300000	1000	0	0	-1	500
16585155	9923	983	0	-100	0	230	101300000	1000	0	0	-1	500
16597715	9925	997	0	-100	0	230	101300000	1000	0	0	-1	500
16610275	9920	1002	0	-100	0	230	101300000	1000	0	0	-1	500
16622835	9936	952	0	-100	0	230	101300000	1000	0	0	-1	500
16635395	9917	965	0	-100	0	230	101300000	1000	0	0	-1	500
16647955	9928	1004	0	-100	0	230	101300000	1000	0	0	-1	500
16660515	9931	1016	0	-100	0	230	101300000	1000	0	0	-1	500
16673075	9931	1021	0	-100	0	230	101300000	1000	0	0	-1	500
16685635	9928	1027	0	-100	0	230	101300000	1000	0	0	-1	500
16698195	9920	1023	0	-100	0	230	101300000	1000	0	0	-1	500
16710755	9925	1024	0	-100	0	230	101300000	1000	0	0	-1	500
16723315	9928	1019	0	-100	0	230	101300000	1000	0	0	-1	500
16735875	9931	958	0	-100	0	230	101300000	1000	0	0	-1	500
16748435	9923	1003	0	-100	0	230	101300000	1000	0	0	-1	500
16760995	9925	1020	0	-100	0	230	101300000	1000	0	0	-1	500
16773555	9933	1028	0	-100	0	230	101300000	1000	0	0	-1	500
16786115	9931	1022	0	-100	0	230	101300000	1000	0	0	-1	500
16798675	9928	1021	0	-100	0	230	101300000	1000	0	0	-1	500
16811235	9920	1024	0	-100	0	230	101300000	1000	0	0	-1	500
16823795	9928	1032	0	-100	0	230	101300000	1000	0	0	-1	500
16836355	9928	1027	0	-100	0	230	101300000	1000	0	0	-1	500
16848915	9931	1024	0	-100	0	230	101300000	1000	0	0	-1	500
16861475	9936	1025	0	-100	0	230	101300000	1000	0	0	-1	500
16874035	9928	1030	0	-100	0	230	101300000	1000	0	0	-1	500
16886595	9933	1023	0	-100	0	230	101300000	1000	0	0	-1	500
16899155	9928	1020	0	-100	0	230	101300000	1000	0	0	-1	500
16911715	9931	1022	0	-100	0	230	101300000	1000	0	0	-1	500
16924275	9925	1027	0	-100	0	230	101300000	1000	0	0	-1	500
16936835	9928	1023	0	-100	0	230	101300000	1000	0	0	-1	500
16949395	9933	1028	0	-100	0	230	101300000	1000	0	0	-1	500
16961955	9920	1028	0	-100	0	230	101300000	1000	0	0	-1	500
16974515	9931	1025	0	-100	0	230	101300000	1000	0	0	-1	500
16987075	9928	1023	0	-100	0	230	101300000	1000	0	0	-1	500
16999635	9928	1022	0	-100	0	230	101300000	1000	0	0	-1	500
17012195	9928	1024	0	-100	0	230	101300000	1000	0	0	-1	500
17024755	9923	1029	0	-100	0	230	101300000	1000	0	0	-1	500
17037315	9933	1029	0	-100	0	230	101300000	1000	0	0	-1	500
17049875	9920	1027	0	-100	0	230	101300000	1000	0	0	-1	500
17062435	9931	1022	0	-100	0	230	101300000	1000	0	0	-1	500
17074995	9928	1023	0	-100	0	230	101300000	1000	0	0	-1	500
17087555	9933	1022	0	-100	0	230	101300000	1000	0	0	-1	500
17100115	9936	1029	0	-100	0	230	101300000	1000	0	0	-1	500
17112675	9931	1032	0	-100	0	230	101300000	1000	0	0	-1	500
17125235	9933	1028	0	-100	0	230	101300000	1000	0	0	-1	500
17137795	9925	1024	0	-100	0	230	101300000	1000	0	0	-1	500
17150355	9925	1024	0	-100	0	230	101300000	1000	0	0	-1	500
17162915	9917	1021	0	-100	0	230	101300000	1000	0	0	-1	500
17175475	9925	1021	0	-100	0	230	101300000	1000	0	0	-1	500
17188035	9925	1024	0	-100	0	230	101300000	1000	0	0	-1	500
17200595	9936	1029	0	-100	0	230	101300000	1000	0	0	-1	500
17213155	9928	1025	0	-100	0	230	101300000	1000	0	0	-1	500
17225715	9917	1022	0	-100	0	230	101300000	1000	0	0	-1	500
17238275	9928	1023	0	-100	0	230	101300000	1000	0	0	-1	500
17250835	9931	1027	0	-100	0	230	101300000	1000	0	0	-1	500
17263395	9933	1030	0	-100	0	230	101300000	1000	0	0	-1	500
17275955	9933	1024	0	-100	0	230	101300000	1000	0	0	-1	500
17288515	9917	1022	0	-100	0	230	101300000	1000	0	0	-1	500
17301075	9925	1021	0	-100	0	230	101300000	1000	0	0	-1	500
17313635	9928	1023	0	-100	0	230	101300000	1000	0	0	-1	500
17326195	9931	1029	0	-100	0	230	101300000	1000	0	0	-1	500
17338755	9928	1028	0	-100	0	230	101300000	1000	0	0	-1	500
17351315	9923	1026	0	-100	0	230	101300000	1000	0	0	-1	500
17363875	9933	1025	0	-100	0	230	101300000	1000	0	0	-1	500
17376435	9931	1019	0	-100	0	230	101300000	1000	0	0	-1	500
17388995	9917	1026	0	-100	0	230	101300000	1000	0	0	-1	500
17401555	9931	1031	0	-100	0	230	101300000	1000	0	0	-1	500
17414115	9925	1026	0	-100	0	230	101300000	1000	0	0	-1	500
17426675	9928	1024	0	-100	0	230	101300000	1000	0	0	-1	500
17439235	9931	1023	0	-100	0	230	101300000	1000	0	0	-1	500
17451795	9920	1020	0	-100	0	230	101300000	1000	0	0	-1	500
17464355	9920	1023	0	-100	0	230	101300000	1000	0	0	-1	500
17476915	9933	1026	0	-100	0	230	101300000	1000	0	0	-1	500
17489475	9925	1028	0	-100	0	230	101300000	1000	0	0	-1	500
17502035	9925	1023	0	-100	0	230	101300000	1000	0	0	-1	500
17514595	9928	1023	0	-100	0	230	101300000	1000	0	0	-1	500
17527155	9928	1020	0	-100	0	230	101300000	1000	0	0	-1	500
17539715	9925	1025	0	-100	0	230	101300000	1000	0	0	-1	500
17552275	9931	1027	0	-100	0	230	101300000	1000	0	0	-1	500
17564835	9915	1029	0	-100	0	230	101300000	1000	0	0	-1	500
17577395	9933	1026	0	-100	0	230	101300000	1000	0	0	-1	500
17589955	9931	1023	0	-100	0	230	101300000	1000	0	0	-1	500
17602515	9925	1026	0	-100	0	230	101300000	1000	0	0	-1	500
17615075	9923	1021	0	-100	0	230	101300000	1000	0	0	-1	500
17627635	9928	1024	0	-100	0	230	101300000	1000	0	0	-1	500
17640195	9931	1025	0	-100	0	230	101300000	1000	0	0	-1	500
17652755	9928	1026	0	-100	0	230	101300000	1000	0	0	-1	500
17665315	9928	1029	0	-100	0	230	101300000	1000	0	0	-1	500
17677875	9939	1031	0	-100	0	230	101300000	1000	0	0	-1	500
17690435	9931	1028	0	-100	0	230	101300000	1000	0	0	-1	500
17702995	9933	1021	0	-100	0	230	101300000	1000	0	0	-1	500
17715555	9931	1021	0	-100	0	230	101300000	1000	0	0	-1	500
17728115	9933	1026	0	-100	0	230	101300000	1000	0	0	-1	500
17740675	9933	1029	0	-100	0	230	101300000	1000	0	0	-1	500
17753235	9931	1028	0	-100	0	230	101300000	1000	0	0	-1	500
17765795	9928	1026	0	-100	0	230	101300000	1000	0	0	-1	500
17778355	9931	1024	0	-100	0	230	101300000	1000	0	0	-1	500
17790915	9933	1023	0	-100	0	230	101300000	1000	0	0	-1	500
17803475	9933	1024	0	-100	0	230	101300000	1000	0	0	-1	500
17816035	9928	1025	0	-100	0	230	101300000	1000	0	0	-1	500
17828595	9933	1021	0	-100	0	230	101300000	1000	0	0	-1	500
17841155	9931	1023	0	-100	0	230	101300000	1000	0	0	-1	500
17853715	9928	1022	0	-100	0	230	101300000	1000	0	0	-1	500
17866275	9925	1023	0	-100	0	230	101300000	1000	0	0	-1	500
17878835	9933	1023	0	-100	0	230	101300000	1000	0	0	-1	500
17891395	9928	1023	0	-100	0	230	101300000	1000	0	0	-1	500
17903955	9931	1025	0	-100	0	230	101300000	1000	0	0	-1	500
17916515	9928	1020	0	-100	0	230	101300000	1000	0	0	-1	500
17929075	9928	1028	0	-100	0	230	101300000	1000	0	0	-1	500
17941635	9917	1025	0	-100	0	230	101300000	1000	0	0	-1	500
17954195	9931	1027	0	-100	0	230	101300000	1000	0	0	-1	500
17966755	9925	1029	0	-100	0	230	101300000	1000	0	0	-1	500
17979315	9936	1027	0	-100	0	230	101300000	1000	0	0	-1	500
17991875	9931	1026	0	-100	0	230	101300000	1000	0	0	-1	500
18004435	9931	1026	0	-100	0	230	101300000	1000	0	0	-1	500
18016995	9928	1031	0	-100	0	230	101300000	1000	0	0	-1	500
18029555	9925	1018	0	-100	0	230	101300000	1000	0	0	-1	500
18042115	9917	1020	0	-100	0	230	101300000	1000	0	0	-1	500
18054675	9928	1024	0	-100	0	230	101300000	1000	0	0	-1	500
18067235	9928	1023	0	-100	0	230	101300000	1000	0	0	-1	500
18079795	9931	1021	0	-100	0	230	101300000	1000	0	0	-1	500
18092355	9928	1023	0	-100	0	230	101300000	1000	0	0	-1	500
18104915	9933	1026	0	-100	0	230	101300000	1000	0	0	-1	500
18117475	9923	1029	0	-100	0	230	101300000	1000	0	0	-1	500
18130035	9933	1029	0	-100	0	230	101300000	1000	0	0	-1	500
18142595	9931	1033	0	-100	0	230	101300000	1000	0	0	-1	500
18155155	9928	1028	0	-100	0	230	101300000	1000	0	0	-1	500
18167715	9931	1030	0	-100	0	230	101300000	1000	0	0	-1	500
18180275	9925	1027	0	-100	0	230	101300000	1000	0	0	-1	500
18192835	9931	1027	0	-100	0	230	101300000	1000	0	0	-1	500
18205395	9925	1026	0	-100	0	230	101300000	1000	0	0	-1	500
18217955	9931	1029	0	-100	0	230	101300000	1000	0	0	-1	500
18230515	9917	1028	0	-100	0	230	101300000	1000	0	0	-1	500
18243075	9933	1030	0	-100	0	230	101300000	1000	0	0	-1	500
18255635	9917	1021	0	-100	0	230	101300000	1000	0	0	-1	500
18268195	9931	1023	0	-100	0	230	101300000	1000	0	0	-1	500
18280755	9925	1024	0	-100	0	230	101300000	1000	0	0	-1	500
18293315	9931	1026	0	-100	0	230	101300000	1000	0	0	-1	500
18305875	9928	1030	0	-100	0	230	101300000	1000	0	0	-1	500
18318435	9931	1024	0	-100	0	230	101300000	1000	0	0	-1	500
18330995	9931	1025	0	-100	0	230	101300000	1000	0	0	-1	500
18343555	9925	1024	0	-100	0	230	101300000	1000	0	0	-1	500
18356115	9925	1026	0	-100	0	230	101300000	1000	0	0	-1	500
18368675	9931	1031	0	-100	0	230	101300000	1000	0	0	-1	500
18381235	9923	1025	0	-100	0	230	101300000	1000	0	0	-1	500
18393795	9923	1021	0	-100	0	230	101300000	1000	0	0	-1	500
18406355	9928	1020	0	-100	0	230	101300000	1000	0	0	-1	500
18418915	9920	1027	0	-100	0	230	101300000	1000	0	0	-1	500
18431475	9933	1029	0	-100	0	230	101300000	1000	0	0	-1	500
18444035	9928	1023	0	-100	0	230	101300000	1000	0	0	-1	500
18456595	9933	1022	0	-100	0	230	101300000	1000	0	0	-1	500
18469155	9933	1021	0	-100	0	230	101300000	1000	0	0	-1	500
18481715	9917	1029	0	-100	0	230	101300000	1000	0	0	-1	500
18494275	9928	1027	0	-100	0	230	101300000	1000	0	0	-1	500
18506835	9923	1021	0	-100	0	230	101300000	1000	0	0	-1	500
18519395	9925	1023	0	-100	0	230	101300000	1000	0	0	-1	500
18531955	9923	1026	0	-100	0	230	101300000	1000	0	0	-1	500
18544515	9931	1029	0	-100	0	230	101300000	1000	0	0	-1	500
18557075	9928	1028	0	-100	0	230	101300000	1000	0	0	-1	500
18569635	9925	1024	0	-100	0	230	101300000	1000	0	0	-1	500
18582195	9928	1022	0	-100	0	230	101300000	1000	0	0	-1	500
18594755	9928	1023	0	-100	0	230	101300000	1000	0	0	-1	500
18607315	9936	1026	0	-100	0	230	101300000	1000	0	0	-1	500
18619875	9915	1025	0	-100	0	230	101300000	1000	0	0	-1	500
18632435	9928	1031	0	-100	0	230	101300000	1000	0	0	-1	500
18644995	9923	1028	0	-100	0	230	101300000	1000	0	0	-1	500
18657555	9928	1022	0	-100	0	230	101300000	1000	0	0	-1	500
18670115	9925	1021	0	-100	0	230	101300000	1000	0	0	-1	500
18682675	9925	1027	0	-100	0	230	101300000	1000	0	0	-1	500
18695235	9933	1030	0	-100	0	230	101300000	1000	0	0	-1	500
18707795	9925	1029	0	-100	0	230	101300000	1000	0	0	-1	500
18720355	9936	1028	0	-100	0	230	101300000	1000	0	0	-1	500
18732915	9925	1029	0	-100	0	230	101300000	1000	0	0	-1	500
18745475	9931	1029	0	-100	0	230	101300000	1000	0	0	-1	500
18758035	9917	1026	0	-100	0	230	101300000	1000	0	0	-1	500
18770595	9933	1026	0	-100	0	230	101300000	1000	0	0	-1	500
18783155	9933	1026	0	-100	0	230	101300000	1000	0	0	-1	500
18795715	9931	1024	0	-100	0	230	101300000	1000	0	0	-1	500
18808275	9928	1021	0	-100	0	230	101300000	1000	0	0	-1	500
18820835	9933	1022	0	-100	0	230	101300000	1000	0	0	-1	500
18833395	9925	1022	0	-100	0	230	101300000	1000	0	0	-1	500
18845955	9931	1029	0	-100	0	230	101300000	1000	0	0	-1	500
18858515	9923	1025	0	-100	0	230	101300000	1000	0	0	-1	500
18871075	9933	1029	0	-100	0	230	101300000	1000	0	0	-1	500
18883635	9936	1031	0	-100	0	230	101300000	1000	0	0	-1	500
18896195	9925	1027	0	-100	0	230	101300000	1000	0	0	-1	500
18908755	9928	1030	0	-100	0	230	101300000	1000	0	0	-1	500
18921315	9917	1026	0	-100	0	230	101300000	1000	0	0	-1	500
18933875	9936	1027	0	-100	0	230	101300000	1000	0	0	-1	500
18946435	9925	1032	0	-100	0	230	101300000	1000	0	0	-1	500
18958995	9933	1022	0	-100	0	230	101300000	1000	0	0	-1	500
18971555	9923	1027	0	-100	0	230	101300000	1000	0	0	-1	500
18984115	9917	1022	0	-100	0	230	101300000	1000	0	0	-1	500
18996675	9928	1021	0	-100	0	230	101300000	1000	0	0	-1	500
19009235	9915	1020	0	-100	0	230	101300000	1000	0	0	-1	500
19021795	9928	1023	0	-100	0	230	101300000	1000	0	0	-1	500
19034355	9912	1019	0	-100	0	230	101300000	1000	0	0	-1	500
19046915	9928	1023	0	-100	0	230	101300000	1000	0	0	-1	500
19059475	9928	1021	0	-100	0	230	101300000	1000	0	0	-1	500
19072035	9912	1019	0	-100	0	230	101300000	1000	0	0	-1	500
19084595	9920	1025	0	-100	0	230	101300000	1000	0	0	-1	500
19097155	9931	1031	0	-100	0	230	101300000	1000	0	0	-1	500
19109715	9923	1027	0	-100	0	230	101300000	1000	0	0	-1	500
19122275	9933	1023	0	-100	0	230	101300000	1000	0	0	-1	500
19134835	9933	1021	0	-100	0	230	101300000	1000	0	0	-1	500
19147395	9923	1022	0	-100	0	230	101300000	1000	0	0	-1	500
19159955	9931	1023	0	-100	0	230	101300000	1000	0	0	-1	500
19172515	9933	1026	0	-100	0	230	101300000	1000	0	0	-1	500
19185075	9925	1027	0	-100	0	230	101300000	1000	0	0	-1	500
19197635	9928	1027	0	-100	0	230	101300000	1000	0	0	-1	500
19210195	9936	1027	0	-100	0	230	101300000	1000	0	0	-1	500
19222755	9933	1027	0	-100	0	230	101300000	1000	0	0	-1	500
19235315	9936	1023	0	-100	0	230	101300000	1000	0	0	-1	500
19247875	9933	1024	0	-100	0	230	101300000	1000	0	0	-1	500
19260435	9925	1020	0	-100	0	230	101300000	1000	0	0	-1	500
19272995	9925	1027	0	-100	0	230	101300000	1000	0	0	-1	500
19285555	9915	1020	0	-100	0	230	101300000	1000	0	0	-1	500
19298115	9920	1025	0	-100	0	230	101300000	1000	0	0	-1	500
19310675	9928	1031	0	-100	0	230	101300000	1000	0	0	-1	500
19323235	9931	1026	0	-100	0	230	101300000	1000	0	0	-1	500
19335795	9923	1021	0	-100	0	230	101300000	1000	0	0	-1	500
19348355	9923	1023	0	-100	0	230	101300000	1000	0	0	-1	500
19360915	9931	1021	0	-100	0	230	101300000	1000	0	0	-1	500
19373475	9928	1019	0	-100	0	230	101300000	1000	0	0	-1	500
19386035	9936	1024	0	-100	0	230	101300000	1000	0	0	-1	500
19398595	9923	1027	0	-100	0	230	101300000	1000	0	0	-1	500
19411155	9931	1026	0	-100	0	230	101300000	1000	0	0	-1	500
19423715	9912	1031	0	-100	0	230	101300000	1000	0	0	-1	500
19436275	9933	1028	0	-100	0	230	101300000	1000	0	0	-1	500
19448835	9925	1030	0	-100	0	230	101300000	1000	0	0	-1	500
19461395	9931	1025	0	-100	0	230	101300000	1000	0	0	-1	500
19473955	9928	1024	0	-100	0	230	101300000	1000	0	0	-1	500
19486515	9923	1024	0	-100	0	230	101300000	1000	0	0	-1	500
19499075	9928	1020	0	-100	0	230	101300000	1000	0	0	-1	500
19511635	9928	1023	0	-100	0	230	101300000	1000	0	0	-1	500
19524195	9933	1028	0	-100	0	230	101300000	1000	0	0	-1	500
19536755	9920	1027	0	-100	0	230	101300000	1000	0	0	-1	500
19549315	9933	1026	0	-100	0	230	101300000	1000	0	0	-1	500
19561875	9925	1026	0	-100	0	230	101300000	1000	0	0	-1	500
19574435	9931	1026	0	-100	0	230	101300000	1000	0	0	-1	500
19586995	9917	1030	0	-100	0	230	101300000	1000	0	0	-1	500
19599555	9931	1020	0	-100	0	230	101300000	1000	0	0	-1	500
19612115	9923	1021	0	-100	0	230	101300000	1000	0	0	-1	500
19624675	9931	1021	0	-100	0	230	101300000	1000	0	0	-1	500
19637235	9933	1022	0	-100	0	230	101300000	1000	0	0	-1	500
19649795	9917	1021	0	-100	0	230	101300000	1000	0	0	-1	500
19662355	9933	1024	0	-100	0	230	101300000	1000	0	0	-1	500
19674915	9931	1028	0	-100	0	230	101300000	1000	0	0	-1	500
19687475	9931	1030	0	-100	0	230	101300000	1000	0	0	-1	500
19700035	9933	1030	0	-100	0	230	101300000	1000	0	0	-1	500
19712595	9933	1024	0	-100	0	230	101300000	1000	0	0	-1	500
19725155	9928	1023	0	-100	0	230	101300000	1000	0	0	-1	500
19737715	9920	1023	0	-100	0	230	101300000	1000	0	0	-1	500
19750275	9936	1023	0	-100	0	230	101300000	1000	0	0	-1	500
19762835	9933	1026	0	-100	0	230	101300000	1000	0	0	-1	500
19775395	9928	1028	0	-100	0	230	101300000	1000	0	0	-1	500
19787955	9923	1025	0	-100	0	230	101300000	1000	0	0	-1	500
19800515	9933	1028	0	-100	0	230	101300000	1000	0	0	-1	500
19813075	9917	1029	0	-100	0	230	101300000	1000	0	0	-1	500
19825635	9928	1030	0	-100	0	230	101300000	1000	0	0	-1	500
19838195	9931	1029	0	-100	0	230	101300000	1000	0	0	-1	500
19850755	9931	1029	0	-100	0	230	101300000	1000	0	0	-1	500
19863315	9933	1030	0	-100	0	230	101300000	1000	0	0	-1	500
19875875	9933	1028	0	-100	0	230	101300000	1000	0	0	-1	500
19888435	9928	1028	0	-100	0	230	101300000	1000	0	0	-1	500
19900995	9931	1022	0	-100	0	230	101300000	1000	0	0	-1	500
19913555	9925	1022	0	-100	0	230	101300000	1000	0	0	-1	500
19926115	9928	1021	0	-100	0	230	101300000	1000	0	0	-1	500
19938675	9928	1023	0	-100	0	230	101300000	1000	0	0	-1	500
19951235	9923	1020	0	-100	0	230	101300000	1000	0	0	-1	500
19963795	9923	1022	0	-100	0	230	101300000	1000	0	0	-1	500
19976355	9925	1028	0	-100	0	230	101300000	1000	0	0	-1	500
19988915	9933	1028	0	-100	0	230	101300000	1000	0	0	-1	500
20001475	9931	1029	0	-100	0	230	101300000	1000	0	0	-1	500
20014035	9928	1028	0	-100	0	230	101300000	1000	0	0	-1	500
20026595	9925	1030	0	-100	0	230	101300000	1000	0	0	-1	500
20039155	9931	1029	0	-100	0	230	101300000	1000	0	0	-1	500
20051715	9933	1030	0	-100	0	230	101300000	1000	0	0	-1	500
20064275	9925	1027	0	-100	0	230	101300000	1000	0	0	-1	500
20076835	9925	1021	0	-100	0	230	101300000	1000	0	0	-1	500
20089395	9925	1024	0	-100	0	230	101300000	1000	0	0	-1	500
20101955	9928	987	0	-100	0	230	101300000	1000	0	0	-1	500
20114515	9915	967	0	-100	0	230	101300000	1000	0	0	-1	500
20127075	9923	976	0	-100	0	230	101300000	1000	0	0	-1	500
20139635	9780	926	0	-100	0	230	101300000	1000	0	0	-1	500
20152195	9640	914	0	-100	0	230	101300000	1000	0	0	-1	500
20164755	9621	916	0	-100	0	230	101300000	1000	0	0	-1	500
20177315	9615	918	0	-100	0	230	101300000	1000	0	0	-1	500
20189875	9632	923	0	-100	0	230	101300000	1000	0	0	-1	500
20202435	9652	923	0	-100	0	230	101300000	1000	0	0	-1	500
20214995	9686	922	0	-100	0	230	101300000	1000	0	0	-1	500
20227555	9710	930	0	-100	0	230	101300000	1000	0	0	-1	500
20240115	9758	934	0	-100	0	230	101300000	1000	0	0	-1	500
20252675	9691	920	0	-100	0	230	101300000	1000	0	0	-1	500
20265235	9688	918	0	-100	0	230	101300000	1000	0	0	-1	500
20277795	9669	918	0	-100	0	230	101300000	1000	0	0	-1	500
20290355	9672	918	0	-100	0	230	101300000	1000	0	0	-1	500
20302915	9654	919	0	-100	0	230	101300000	1000	0	0	-1	500
20315475	9681	923	0	-100	0	230	101300000	1000	0	0	-1	500
20328035	9651	917	0	-100	0	230	101300000	1000	0	0	-1	500
20340595	9634	917	0	-100	0	230	101300000	1000	0	0	-1	500
20353155	9688	925	0	-100	0	230	101300000	1000	0	0	-1	500
20365715	9671	928	0	-100	0	230	101300000	1000	0	0	-1	500
20378275	9669	921	0	-100	0	230	101300000	1000	0	0	-1	500
20390835	9664	918	0	-100	0	230	101300000	1000	0	0	-1	500
20403395	9647	916	0	-100	0	230	101300000	1000	0	0	-1	500
20415955	9691	926	0	-100	0	230	101300000	1000	0	0	-1	500
20428515	9673	931	0	-100	0	230	101300000	1000	0	0	-1	500
20441075	9722	932	0	-100	0	230	101300000	1000	0	0	-1	500
20453635	9642	924	0	-100	0	230	101300000	1000	0	0	-1	500
20466195	9681	923	0	-100	0	230	101300000	1000	0	0	-1	500
20478755	9659	920	0	-100	0	230	101300000	1000	0	0	-1	500
20491315	9669	917	0	-100	0	230	101300000	1000	0	0	-1	500
20503875	9613	916	0	-100	0	230	101300000	1000	0	0	-1	500
20516435	9666	923	0	-100	0	230	101300000	1000	0	0	-1	500
20528995	9635	916	0	-100	0	230	101300000	1000	0	0	-1	500
20541555	9691	925	0	-100	0	230	101300000	1000	0	0	-1	500
20554115	9698	925	0	-100	0	230	101300000	1000	0	0	-1	500
20566675	9661	923	0	-100	0	230	101300000	1000	0	0	-1	500
20579235	9742	937	0	-100	0	230	101300000	1000	0	0	-1	500
20591795	9756	935	0	-100	0	230	101300000	1000	0	0	-1	500
20604355	9638	916	0	-100	0	230	101300000	1000	0	0	-1	500
20616915	9637	918	0	-100	0	230	101300000	1000	0	0	-1	500
20629475	9708	926	0	-100	0	230	101300000	1000	0	0	-1	500
20642035	9708	931	0	-100	0	230	101300000	1000	0	0	-1	500
20654595	9621	918	0	-100	0	230	101300000	1000	0	0	-1	500
20667155	9637	915	0	-100	0	230	101300000	1000	0	0	-1	500
20679715	9625	918	0	-100	0	230	101300000	1000	0	0	-1	500
20692275	9669	919	0	-100	0	230	101300000	1000	0	0	-1	500
20704835	9662	919	0	-100	0	230	101300000	1000	0	0	-1	500
20717395	9707	928	0	-100	0	230	101300000	1000	0	0	-1	500
20729955	9715	930	0	-100	0	230	101300000	1000	0	0	-1	500
20742515	9591	907	0	-100	0	230	101300000	1000	0	0	-1	500
20755075	9690	923	0	-100	0	230	101300000	1000	0	0	-1	500
20767635	9794	935	0	-100	0	230	101300000	1000	0	0	-1	500
20780195	9645	916	0	-100	0	230	101300000	1000	0	0	-1	500
20792755	9783	937	0	-100	0	230	101300000	1000	0	0	-1	500
20805315	9632	920	0	-100	0	230	101300000	1000	0	0	-1	500
20817875	9654	924	0	-100	0	230	101300000	1000	0	0	-1	500
20830435	9746	927	0	-100	0	230	101300000	1000	0	0	-1	500
20842995	9700	925	0	-100	0	230	101300000	1000	0	0	-1	500
20855555	9661	918	0	-100	0	230	101300000	1000	0	0	-1	500
20868115	9695	923	0	-100	0	230	101300000	1000	0	0	-1	500
20880675	9692	929	0	-100	0	230	101300000	1000	0	0	-1	500
20893235	9698	934	0	-100	0	230	101300000	1000	0	0	-1	500
20905795	9710	929	0	-100	0	230	101300000	1000	0	0	-1	500
20918355	9650	914	0	-100	0	230	101300000	1000	0	0	-1	500
20930915	9714	921	0	-100	0	230	101300000	1000	0	0	-1	500
20943475	9659	920	0	-100	0	230	101300000	1000	0	0	-1	500
20956035	9702	922	0	-100	0	230	101300000	1000	0	0	-1	500
20968595	9700	928	0	-100	0	230	101300000	1000	0	0	-1	500
20981155	9696	925	0	-100	0	230	101300000	1000	0	0	-1	500
20993715	9696	921	0	-100	0	230	101300000	1000	0	0	-1	500
21006275	9696	922	0	-100	0	230	101300000	1000	0	0	-1	500
21018835	9714	922	0	-100	0	230	101300000	1000	0	0	-1	500
21031395	9722	930	0	-100	0	230	101300000	1000	0	0	-1	500
21043955	9683	928	0	-100	0	230	101300000	1000	0	0	-1	500
21056515	9663	921	0	-100	0	230	101300000	1000	0	0	-1	500
21069075	9792	929	0	-100	0	230	101300000	1000	0	0	-1	500
21081635	9868	932	0	-100	0	230	101300000	1000	0	0	-1	500
21094195	9844	935	0	-100	0	230	101300000	1000	0	0	-1	500
21106755	9870	935	0	-100	0	230	101300000	1000	0	0	-1	500
21119315	9827	922	0	-100	0	230	101300000	1000	0	0	-1	500
21131875	9805	923	0	-100	0	230	101300000	1000	0	0	-1	500
21144435	9766	922	0	-100	0	230	101300000	1000	0	0	-1	500
21156995	9868	930	0	-100	0	230	101300000	1000	0	0	-1	500
21169555	9862	930	0	-100	0	230	101300000	1000	0	0	-1	500
21182115	9780	917	0	-100	0	230	101300000	1000	0	0	-1	500
21194675	9802	921	0	-100	0	230	101300000	1000	0	0	-1	500
21207235	9829	924	0	-100	0	230	101300000	1000	0	0	-1	500
21219795	9791	924	0	-100	0	230	101300000	1000	0	0	-1	500
21232355	9790	922	0	-100	0	230	101300000	1000	0	0	-1	500
21244915	9807	926	0	-100	0	230	101300000	1000	0	0	-1	500
21257475	9826	929	0	-100	0	230	101300000	1000	0	0	-1	500
21270035	9772	921	0	-100	0	230	101300000	1000	0	0	-1	500
21282595	9812	931	0	-100	0	230	101300000	1000	0	0	-1	500
21295155	9815	931	0	-100	0	230	101300000	1000	0	0	-1	500
21307715	9824	929	0	-100	0	230	101300000	1000	0	0	-1	500
21320275	9841	932	0	-100	0	230	101300000	1000	0	0	-1	500
21332835	9815	930	0	-100	0	230	101300000	1000	0	0	-1	500
21345395	9795	934	0	-100	0	230	101300000	1000	0	0	-1	500
21357955	9819	931	0	-100	0	230	101300000	1000	0	0	-1	500
21370515	9809	929	0	-100	0	230	101300000	1000	0	0	-1	500
21383075	9778	926	0	-100	0	230	101300000	1000	0	0	-1	500
21395635	9807	930	0	-100	0	230	101300000	1000	0	0	-1	500
21408195	9877	930	0	-100	0	230	101300000	1000	0	0	-1	500
21420755	9850	927	0	-100	0	230	101300000	1000	0	0	-1	500
21433315	9855	927	0	-100	0	230	101300000	1000	0	0	-1	500
21445875	9789	920	0	-100	0	230	101300000	1000	0	0	-1	500
21458435	9766	920	0	-100	0	230	101300000	1000	0	0	-1	500
21470995	9875	928	0	-100	0	230	101300000	1000	0	0	-1	500
21483555	9837	933	0	-100	0	230	101300000	1000	0	0	-1	500
21496115	9863	939	0	-100	0	230	101300000	1000	0	0	-1	500
21508675	9819	930	0	-100	0	230	101300000	1000	0	0	-1	500
21521235	9870	933	0	-100	0	230	101300000	1000	0	0	-1	500
21533795	9875	930	0	-100	0	230	101300000	1000	0	0	-1	500
21546355	9867	928	0	-100	0	230	101300000	1000	0	0	-1	500
21558915	9841	928	0	-100	0	230	101300000	1000	0	0	-1	500
21571475	9809	922	0	-100	0	230	101300000	1000	0	0	-1	500
21584035	9782	919	0	-100	0	230	101300000	1000	0	0	-1	500
21596595	9839	923	0	-100	0	230	101300000	1000	0	0	-1	500
21609155	9851	927	0	-100	0	230	101300000	1000	0	0	-1	500
21621715	9851	923	0	-100	0	230	101300000	1000	0	0	-1	500
21634275	9870	929	0	-100	0	230	101300000	1000	0	0	-1	500
21646835	9795	919	0	-100	0	230	101300000	1000	0	0	-1	500
21659395	9828	924	0	-100	0	230	101300000	1000	0	0	-1	500
21671955	9858	925	0	-100	0	230	101300000	1000	0	0	-1	500
21684515	9841	922	0	-100	0	230	101300000	1000	0	0	-1	500
21697075	9802	921	0	-100	0	230	101300000	1000	0	0	-1	500
21709635	9814	926	0	-100	0	230	101300000	1000	0	0	-1	500
21722195	9858	928	0	-100	0	230	101300000	1000	0	0	-1	500
21734755	9823	921	0	-100	0	230	101300000	1000	0	0	-1	500
21747315	9880	930	0	-100	0	230	101300000	1000	0	0	-1	500
21759875	9825	925	0	-100	0	230	101300000	1000	0	0	-1	500
21772435	9840	926	0	-100	0	230	101300000	1000	0	0	-1	500
21784995	9841	925	0	-100	0	230	101300000	1000	0	0	-1	500
21797555	9843	927	0	-100	0	230	101300000	1000	0	0	-1	500
21810115	9911	933	0	-100	0	230	101300000	1000	0	0	-1	500
21822675	9819	923	0	-100	0	230	101300000	1000	0	0	-1	500
21835235	9884	933	0	-100	0	230	101300000	1000	0	0	-1	500
21847795	9903	934	0	-100	0	230	101300000	1000	0	0	-1	500
21860355	9892	928	0	-100	0	230	101300000	1000	0	0	-1	500
21872915	9837	923	0	-100	0	230	101300000	1000	0	0	-1	500
21885475	9809	923	0	-100	0	230	101300000	1000	0	0	-1	500
21898035	9854	926	0	-100	0	230	101300000	1000	0	0	-1	500
21910595	9795	921	0	-100	0	230	101300000	1000	0	0	-1	500
21923155	9860	929	0	-100	0	230	101300000	1000	0	0	-1	500
21935715	9812	922	0	-100	0	230	101300000	1000	0	0	-1	500
21948275	9904	933	0	-100	0	230	101300000	1000	0	0	-1	500
21960835	9857	924	0	-100	0	230	101300000	1000	0	0	-1	500
21973395	9867	926	0	-100	0	230	101300000	1000	0	0	-1	500
21985955	9824	926	0	-100	0	230	101300000	1000	0	0	-1	500
21998515	9799	921	0	-100	0	230	101300000	1000	0	0	-1	500
22011075	9832	925	0	-100	0	230	101300000	1000	0	0	-1	500
22023635	9855	931	0	-100	0	230	101300000	1000	0	0	-1	500
22036195	9877	939	0	-100	0	230	101300000	1000	0	0	-1	500
22048755	9875	936	0	-100	0	230	101300000	1000	0	0	-1	500
22061315	9790	922	0	-100	0	230	101300000	1000	0	0	-1	500
22073875	9880	931	0	-100	0	230	101300000	1000	0	0	-1	500
22086435	9851	930	0	-100	0	230	101300000	1000	0	0	-1	500
22098995	9847	931	0	-100	0	230	101300000	1000	0	0	-1	500
22111555	9797	918	0	-100	0	230	101300000	1000	0	0	-1	500
22124115	9772	921	0	-100	0	230	101300000	1000	0	0	-1	500
22136675	9858	923	0	-100	0	230	101300000	1000	0	0	-1	500
22149235	9894	931	0	-100	0	230	101300000	1000	0	0	-1	500
22161795	9887	930	0	-100	0	230	101300000	1000	0	0	-1	500
22174355	9816	921	0	-100	0	230	101300000	1000	0	0	-1	500
22186915	9901	936	0	-100	0	230	101300000	1000	0	0	-1	500
22199475	9827	932	0	-100	0	230	101300000	1000	0	0	-1	500
22212035	9910	935	0	-100	0	230	101300000	1000	0	0	-1	500
22224595	9880	930	0	-100	0	230	101300000	1000	0	0	-1	500
22237155	9824	921	0	-100	0	230	101300000	1000	0	0	-1	500
22249715	9817	923	0	-100	0	230	101300000	1000	0	0	-1	500
22262275	9799	924	0	-100	0	230	101300000	1000	0	0	-1	500
22274835	9824	922	0	-100	0	230	101300000	1000	0	0	-1	500
22287395	9823	924	0	-100	0	230	101300000	1000	0	0	-1	500
22299955	9904	935	0	-100	0	230	101300000	1000	0	0	-1	500
22312515	9843	929	0	-100	0	230	101300000	1000	0	0	-1	500
22325075	9773	921	0	-100	0	230	101300000	1000	0	0	-1	500
22337635	9855	927	0	-100	0	230	101300000	1000	0	0	-1	500
22350195	9779	921	0	-100	0	230	101300000	1000	0	0	-1	500
22362755	9853	935	0	-100	0	230	101300000	1000	0	0	-1	500
22375315	9809	927	0	-100	0	230	101300000	1000	0	0	-1	500
22387875	9857	931	0	-100	0	230	101300000	1000	0	0	-1	500
22400435	9903	937	0	-100	0	230	101300000	1000	0	0	-1	500
22412995	9858	925	0	-100	0	230	101300000	1000	0	0	-1	500
22425555	9797	921	0	-100	0	230	101300000	1000	0	0	-1	500
22438115	9797	928	0	-100	0	230	101300000	1000	0	0	-1	500
22450675	9870	931	0	-100	0	230	101300000	1000	0	0	-1	500
22463235	9795	924	0	-100	0	230	101300000	1000	0	0	-1	500
22475795	9843	927	0	-100	0	230	101300000	1000	0	0	-1	500
22488355	9783	922	0	-100	0	230	101300000	1000	0	0	-1	500
22500915	9870	934	0	-100	0	230	101300000	1000	0	0	-1	500
22513475	9856	938	0	-100	0	230	101300000	1000	0	0	-1	500
22526035	9838	935	0	-100	0	230	101300000	1000	0	0	-1	500
22538595	9796	927	0	-100	0	230	101300000	1000	0	0	-1	500
22551155	9810	924	0	-100	0	230	101300000	1000	0	0	-1	500
22563715	9855	929	0	-100	0	230	101300000	1000	0	0	-1	500
22576275	9858	927	0	-100	0	230	101300000	1000	0	0	-1	500
22588835	9845	924	0	-100	0	230	101300000	1000	0	0	-1	500
22601395	9799	916	0	-100	0	230	101300000	1000	0	0	-1	500
22613955	9824	921	0	-100	0	230	101300000	1000	0	0	-1	500
22626515	9843	924	0	-100	0	230	101300000	1000	0	0	-1	500
22639075	9872	926	0	-100	0	230	101300000	1000	0	0	-1	500
22651635	9841	925	0	-100	0	230	101300000	1000	0	0	-1	500
22664195	9833	925	0	-100	0	230	101300000	1000	0	0	-1	500
22676755	9884	928	0	-100	0	230	101300000	1000	0	0	-1	500
22689315	9823	922	0	-100	0	230	101300000	1000	0	0	-1	500
22701875	9855	928	0	-100	0	230	101300000	1000	0	0	-1	500
22714435	9821	923	0	-100	0	230	101300000	1000	0	0	-1	500
22726995	9853	923	0	-100	0	230	101300000	1000	0	0	-1	500
22739555	9870	931	0	-100	0	230	101300000	1000	0	0	-1	500
22752115	9860	926	0	-100	0	230	101300000	1000	0	0	-1	500
22764675	9809	918	0	-100	0	230	101300000	1000	0	0	-1	500
22777235	9845	929	0	-100	0	230	101300000	1000	0	0	-1	500
22789795	9834	926	0	-100	0	230	101300000	1000	0	0	-1	500
22802355	9836	929	0	-100	0	230	101300000	1000	0	0	-1	500
22814915	9848	932	0	-100	0	230	101300000	1000	0	0	-1	500
22827475	9824	929	0	-100	0	230	101300000	1000	0	0	-1	500
22840035	9822	928	0	-100	0	230	101300000	1000	0	0	-1	500
22852595	9782	927	0	-100	0	230	101300000	1000	0	0	-1	500
22865155	9866	938	0	-100	0	230	101300000	1000	0	0	-1	500
22877715	9882	936	0	-100	0	230	101300000	1000	0	0	-1	500
22890275	9831	932	0	-100	0	230	101300000	1000	0	0	-1	500
22902835	9829	928	0	-100	0	230	101300000	1000	0	0	-1	500
22915395	9811	924	0	-100	0	230	101300000	1000	0	0	-1	500
22927955	9831	927	0	-100	0	230	101300000	1000	0	0	-1	500
22940515	9826	923	0	-100	0	230	101300000	1000	0	0	-1	500
22953075	9880	928	0	-100	0	230	101300000	1000	0	0	-1	500
22965635	9838	923	0	-100	0	230	101300000	1000	0	0	-1	500
22978195	9807	923	0	-100	0	230	101300000	1000	0	0	-1	500
22990755	9822	924	0	-100	0	230	101300000	1000	0	0	-1	500
23003315	9792	923	0	-100	0	230	101300000	1000	0	0	-1	500
23015875	9862	928	0	-100	0	230	101300000	1000	0	0	-1	500
23028435	9797	921	0	-100	0	230	101300000	1000	0	0	-1	500
23040995	9849	922	0	-100	0	230	101300000	1000	0	0	-1	500
23053555	9867	933	0	-100	0	230	101300000	1000	0	0	-1	500
23066115	9760	919	0	-100	0	230	101300000	1000	0	0	-1	500
23078675	9831	922	0	-100	0	230	101300000	1000	0	0	-1	500
23091235	9767	917	0	-100	0	230	101300000	1000	0	0	-1	500
23103795	9780	919	0	-100	0	230	101300000	1000	0	0	-1	500
23116355	9834	925	0	-100	0	230	101300000	1000	0	0	-1	500
23128915	9831	926	0	-100	0	230	101300000	1000	0	0	-1	500
23141475	9807	920	0	-100	0	230	101300000	1000	0	0	-1	500
23154035	9853	925	0	-100	0	230	101300000	1000	0	0	-1	500
23166595	9880	929	0	-100	0	230	101300000	1000	0	0	-1	500
23179155	9859	928	0	-100	0	230	101300000	1000	0	0	-1	500
23191715	9817	921	0	-100	0	230	101300000	1000	0	0	-1	500
23204275	9829	922	0	-100	0	230	101300000	1000	0	0	-1	500
23216835	9831	925	0	-100	0	230	101300000	1000	0	0	-1	500
23229395	9829	932	0	-100	0	230	101300000	1000	0	0	-1	500
23241955	9696	922	0	-100	0	230	101300000	1000	0	0	-1	500
23254515	9642	918	0	-100	0	230	101300000	1000	0	0	-1	500
23267075	9693	924	0	-100	0	230	101300000	1000	0	0	-1	500
23279635	9669	922	0	-100	0	230	101300000	1000	0	0	-1	500
23292195	9686	924	0	-100	0	230	101300000	1000	0	0	-1	500
23304755	9676	925	0	-100	0	230	101300000	1000	0	0	-1	500
23317315	9705	924	0	-100	0	230	101300000	1000	0	0	-1	500
23329875	9708	923	0	-100	0	230	101300000	1000	0	0	-1	500
23342435	9853	936	0	-100	0	230	101300000	1000	0	0	-1	500
23354995	9754	931	0	-100	0	230	101300000	1000	0	0	-1	500
23367555	9807	931	0	-100	0	230	101300000	1000	0	0	-1	500
23380115	9732	924	0	-100	0	230	101300000	1000	0	0	-1	500
23392675	9740	925	0	-100	0	230	101300000	1000	0	0	-1	500
23405235	9685	924	0	-100	0	230	101300000	1000	0	0	-1	500
23417795	9678	923	0	-100	0	230	101300000	1000	0	0	-1	500
23430355	9649	914	0	-100	0	230	101300000	1000	0	0	-1	500
23442915	9718	920	0	-100	0	230	101300000	1000	0	0	-1	500
23455475	9732	924	0	-100	0	230	101300000	1000	0	0	-1	500
23468035	9688	918	0	-100	0	230	101300000	1000	0	0	-1	500
23480595	9639	908	0	-100	0	230	101300000	1000	0	0	-1	500
23493155	9685	921	0	-100	0	230	101300000	1000	0	0	-1	500
23505715	9663	915	0	-100	0	230	101300000	1000	0	0	-1	500
23518275	9693	921	0	-100	0	230	101300000	1000	0	0	-1	500
23530835	9704	920	0	-100	0	230	101300000	1000	0	0	-1	500
23543395	9652	913	0	-100	0	230	101300000	1000	0	0	-1	500
23555955	9681	919	0	-100	0	230	101300000	1000	0	0	-1	500
23568515	9635	921	0	-100	0	230	101300000	1000	0	0	-1	500
23581075	9712	927	0	-100	0	230	101300000	1000	0	0	-1	500
23593635	9615	918	0	-100	0	230	101300000	1000	0	0	-1	500
23606195	9657	918	0	-100	0	230	101300000	1000	0	0	-1	500
23618755	9710	921	0	-100	0	230	101300000	1000	0	0	-1	500
23631315	9613	911	0	-100	0	230	101300000	1000	0	0	-1	500
23643875	9612	911	0	-100	0	230	101300000	1000	0	0	-1	500
23656435	9595	918	0	-100	0	230	101300000	1000	0	0	-1	500
23668995	9635	916	0	-100	0	230	101300000	1000	0	0	-1	500
23681555	9701	923	0	-100	0	230	101300000	1000	0	0	-1	500
23694115	9620	910	0	-100	0	230	101300000	1000	0	0	-1	500
23706675	9625	914	0	-100	0	230	101300000	1000	0	0	-1	500
23719235	9610	915	0	-100	0	230	101300000	1000	0	0	-1	500
23731795	9661	919	0	-100	0	230	101300000	1000	0	0	-1	500
23744355	9697	915	0	-100	0	230	101300000	1000	0	0	-1	500
23756915	9681	918	0	-100	0	230	101300000	1000	0	0	-1	500
23769475	9681	923	0	-100	0	230	101300000	1000	0	0	-1	500
23782035	9662	921	0	-100	0	230	101300000	1000	0	0	-1	500
23794595	9662	920	0	-100	0	230	101300000	1000	0	0	-1	500
23807155	9642	912	0	-100	0	230	101300000	1000	0	0	-1	500
23819715	9630	914	0	-100	0	230	101300000	1000	0	0	-1	500
23832275	9653	916	0	-100	0	230	101300000	1000	0	0	-1	500
23844835	9678	918	0	-100	0	230	101300000	1000	0	0	-1	500
23857395	9655	923	0	-100	0	230	101300000	1000	0	0	-1	500
23869955	9659	919	0	-100	0	230	101300000	1000	0	0	-1	500
23882515	9776	930	0	-100	0	230	101300000	1000	0	0	-1	500
23895075	9630	909	0	-100	0	230	101300000	1000	0	0	-1	500
23907635	9613	911	0	-100	0	230	101300000	1000	0	0	-1	500
23920195	9644	918	0	-100	0	230	101300000	1000	0	0	-1	500
23932755	9643	922	0	-100	0	230	101300000	1000	0	0	-1	500
23945315	9652	920	0	-100	0	230	101300000	1000	0	0	-1	500
23957875	9642	915	0	-100	0	230	101300000	1000	0	0	-1	500
23970435	9678	920	0	-100	0	230	101300000	1000	0	0	-1	500
23982995	9671	921	0	-100	0	230	101300000	1000	0	0	-1	500
23995555	9654	919	0	-100	0	230	101300000	1000	0	0	-1	500
24008115	9700	924	0	-100	0	230	101300000	1000	0	0	-1	500
24020675	9649	912	0	-100	0	230	101300000	1000	0	0	-1	500
24033235	9644	915	0	-100	0	230	101300000	1000	0	0	-1	500
24045795	9657	917	0	-100	0	230	101300000	1000	0	0	-1	500
24058355	9642	921	0	-100	0	230	101300000	1000	0	0	-1	500
24070915	9647	921	0	-100	0	230	101300000	1000	0	0	-1	500
24083475	9658	921	0	-100	0	230	101300000	1000	0	0	-1	500
24096035	9673	922	0	-100	0	230	101300000	1000	0	0	-1	500
24108595	9654	914	0	-100	0	230	101300000	1000	0	0	-1	500
24121155	9615	911	0	-100	0	230	101300000	1000	0	0	-1	500
24133715	9659	913	0	-100	0	230	101300000	1000	0	0	-1	500
24146275	9640	917	0	-100	0	230	101300000	1000	0	0	-1	500
24158835	9635	915	0	-100	0	230	101300000	1000	0	0	-1	500
24171395	9698	926	0	-100	0	230	101300000	1000	0	0	-1	500
24183955	9667	924	0	-100	0	230	101300000	1000	0	0	-1	500
24196515	9751	932	0	-100	0	230	101300000	1000	0	0	-1	500
24209075	9648	913	0	-100	0	230	101300000	1000	0	0	-1	500
24221635	9659	918	0	-100	0	230	101300000	1000	0	0	-1	500
24234195	9667	915	0	-100	0	230	101300000	1000	0	0	-1	500
24246755	9637	921	0	-100	0	230	101300000	1000	0	0	-1	500
24259315	9599	915	0	-100	0	230	101300000	1000	0	0	-1	500
24271875	9710	922	0	-100	0	230	101300000	1000	0	0	-1	500
24284435	9664	914	0	-100	0	230	101300000	1000	0	0	-1	500
24296995	9634	915	0	-100	0	230	101300000	1000	0	0	-1	500
24309555	9732	927	0	-100	0	230	101300000	1000	0	0	-1	500
24322115	9664	914	0	-100	0	230	101300000	1000	0	0	-1	500
24334675	9727	926	0	-100	0	230	101300000	1000	0	0	-1	500
24347235	9657	919	0	-100	0	230	101300000	1000	0	0	-1	500
24359795	9640	914	0	-100	0	230	101300000	1000	0	0	-1	500
24372355	9627	917	0	-100	0	230	101300000	1000	0	0	-1	500
24384915	9620	921	0	-100	0	230	101300000	1000	0	0	-1	500
24397475	9739	926	0	-100	0	230	101300000	1000	0	0	-1	500
24410035	9686	919	0	-100	0	230	101300000	1000	0	0	-1	500
24422595	9625	918	0	-100	0	230	101300000	1000	0	0	-1	500
24435155	9630	911	0	-100	0	230	101300000	1000	0	0	-1	500
24447715	9624	915	0	-100	0	230	101300000	1000	0	0	-1	500
24460275	9720	930	0	-100	0	230	101300000	1000	0	0	-1	500
24472835	9627	912	0	-100	0	230	101300000	1000	0	0	-1	500
24485395	9707	923	0	-100	0	230	101300000	1000	0	0	-1	500
24497955	9676	925	0	-100	0	230	101300000	1000	0	0	-1	500
24510515	9703	923	0	-100	0	230	101300000	1000	0	0	-1	500
24523075	9654	913	0	-100	0	230	101300000	1000	0	0	-1	500
24535635	9671	921	0	-100	0	230	101300000	1000	0	0	-1	500
24548195	9625	918	0	-100	0	230	101300000	1000	0	0	-1	500
24560755	9637	908	0	-100	0	230	101300000	1000	0	0	-1	500
24573315	9712	927	0	-100	0	230	101300000	1000	0	0	-1	500
24585875	9647	921	0	-100	0	230	101300000	1000	0	0	-1	500
24598435	9678	918	0	-100	0	230	101300000	1000	0	0	-1	500
24610995	9652	913	0	-100	0	230	101300000	1000	0	0	-1	500
24623555	9669	926	0	-100	0	230	101300000	1000	0	0	-1	500
24636115	9701	921	0	-100	0	230	101300000	1000	0	0	-1	500
24648675	9688	917	0	-100	0	230	101300000	1000	0	0	-1	500
24661235	9613	916	0	-100	0	230	101300000	1000	0	0	-1	500
24673795	9625	921	0	-100	0	230	101300000	1000	0	0	-1	500
24686355	9662	915	0	-100	0	230	101300000	1000	0	0	-1	500
24698915	9625	909	0	-100	0	230	101300000	1000	0	0	-1	500
24711475	9605	915	0	-100	0	230	101300000	1000	0	0	-1	500
24724035	9657	922	0	-100	0	230	101300000	1000	0	0	-1	500
24736595	9732	929	0	-100	0	230	101300000	1000	0	0	-1	500
24749155	9661	909	0	-100	0	230	101300000	1000	0	0	-1	500
24761715	9652	916	0	-100	0	230	101300000	1000	0	0	-1	500
24774275	9676	924	0	-100	0	230	101300000	1000	0	0	-1	500
24786835	9683	917	0	-100	0	230	101300000	1000	0	0	-1	500
24799395	9673	914	0	-100	0	230	101300000	1000	0	0	-1	500
24811955	9651	919	0	-100	0	230	101300000	1000	0	0	-1	500
24824515	9677	923	0	-100	0	230	101300000	1000	0	0	-1	500
24837075	9664	914	0	-100	0	230	101300000	1000	0	0	-1	500
24849635	9657	917	0	-100	0	230	101300000	1000	0	0	-1	500
24862195	9656	922	0	-100	0	230	101300000	1000	0	0	-1	500
24874755	9700	920	0	-100	0	230	101300000	1000	0	0	-1	500
24887315	9646	912	0	-100	0	230	101300000	1000	0	0	-1	500
24899875	9609	917	0	-100	0	230	101300000	1000	0	0	-1	500
24912435	9664	916	0	-100	0	230	101300000	1000	0	0	-1	500
24924995	9625	912	0	-100	0	230	101300000	1000	0	0	-1	500
24937555	9688	929	0	-100	0	230	101300000	1000	0	0	-1	500
24950115	9610	914	0	-100	0	230	101300000	1000	0	0	-1	500
24962675	9666	918	0	-100	0	230	101300000	1000	0	0	-1	500
24975235	9726	928	0	-100	0	230	101300000	1000	0	0	-1	500
24987795	9725	924	0	-100	0	230	101300000	1000	0	0	-1	500
25000355	9688	918	0	-100	0	230	101300000	1000	0	0	-1	500
25012915	9656	913	0	-100	0	230	101300000	1000	0	0	-1	500
25025475	9641	917	0	-100	0	230	101300000	1000	0	0	-1	500
25038035	9640	920	0	-100	0	230	101300000	1000	0	0	-1	500
25050595	9632	910	0	-100	0	230	101300000	1000	0	0	-1	500
25063155	9678	919	0	-100	0	230	101300000	1000	0	0	-1	500
25075715	9625	919	0	-100	0	230	101300000	1000	0	0	-1	500
25088275	9705	922	0	-100	0	230	101300000	1000	0	0	-1	500
25100835	9629	916	0	-100	0	230	101300000	1000	0	0	-1	500
25113395	9644	914	0	-100	0	230	101300000	1000	0	0	-1	500
25125955	9623	916	0	-100	0	230	101300000	1000	0	0	-1	500
25138515	9673	912	0	-100	0	230	101300000	1000	0	0	-1	500
25151075	9705	922	0	-100	0	230	101300000	1000	0	0	-1	500
25163635	9645	923	0	-100	0	230	101300000	1000	0	0	-1	500
25176195	9620	912	0	-100	0	230	101300000	1000	0	0	-1	500
25188755	9647	911	0	-100	0	230	101300000	1000	0	0	-1	500
25201315	9598	916	0	-100	0	230	101300000	1000	0	0	-1	500
25213875	9722	920	0	-100	0	230	101300000	1000	0	0	-1	500
25226435	9632	921	0	-100	0	230	101300000	1000	0	0	-1	500
25238995	9637	921	0	-100	0	230	101300000	1000	0	0	-1	500
25251555	9698	918	0	-100	0	230	101300000	1000	0	0	-1	500
25264115	9735	931	0	-100	0	230	101300000	1000	0	0	-1	500
25276675	9628	908	0	-100	0	230	101300000	1000	0	0	-1	500
25289235	9635	918	0	-100	0	230	101300000	1000	0	0	-1	500
25301795	9649	920	0	-100	0	230	101300000	1000	0	0	-1	500
25314355	9608	914	0	-100	0	230	101300000	1000	0	0	-1	500
25326915	9711	927	0	-100	0	230	101300000	1000	0	0	-1	500
25339475	9620	911	0	-100	0	230	101300000	1000	0	0	-1	500
25352035	9630	912	0	-100	0	230	101300000	1000	0	0	-1	500
25364595	9666	922	0	-100	0	230	101300000	1000	0	0	-1	500
25377155	9669	911	0	-100	0	230	101300000	1000	0	0	-1	500
25389715	9647	919	0	-100	0	230	101300000	1000	0	0	-1	500
25402275	9611	913	0	-100	0	230	101300000	1000	0	0	-1	500
25414835	9673	919	0	-100	0	230	101300000	1000	0	0	-1	500
25427395	9686	921	0	-100	0	230	101300000	1000	0	0	-1	500
25439955	9683	923	0	-100	0	230	101300000	1000	0	0	-1	500
25452515	9742	927	0	-100	0	230	101300000	1000	0	0	-1	500
25465075	9637	914	0	-100	0	230	101300000	1000	0	0	-1	500
25477635	9654	916	0	-100	0	230	101300000	1000	0	0	-1	500
25490195	9676	922	0	-100	0	230	101300000	1000	0	0	-1	500
25502755	9685	917	0	-100	0	230	101300000	1000	0	0	-1	500
25515315	9698	928	0	-100	0	230	101300000	1000	0	0	-1	500
25527875	9683	920	0	-100	0	230	101300000	1000	0	0	-1	500
25540435	9659	914	0	-100	0	230	101300000	1000	0	0	-1	500
25552995	9625	917	0	-100	0	230	101300000	1000	0	0	-1	500
25565555	9608	911	0	-100	0	230	101300000	1000	0	0	-1	500
25578115	9635	919	0	-100	0	230	101300000	1000	0	0	-1	500
25590675	9708	919	0	-100	0	230	101300000	1000	0	0	-1	500
25603235	9676	917	0	-100	0	230	101300000	1000	0	0	-1	500
25615795	9683	923	0	-100	0	230	101300000	1000	0	0	-1	500
25628355	9625	912	0	-100	0	230	101300000	1000	0	0	-1	500
25640915	9641	914	0	-100	0	230	101300000	1000	0	0	-1	500
25653475	9714	930	0	-100	0	230	101300000	1000	0	0	-1	500
25666035	9708	918	0	-100	0	230	101300000	1000	0	0	-1	500
25678595	9741	922	0	-100	0	230	101300000	1000	0	0	-1	500
25691155	9691	926	0	-100	0	230	101300000	1000	0	0	-1	500
25703715	9664	917	0	-100	0	230	101300000	1000	0	0	-1	500
25716275	9693	917	0	-100	0	230	101300000	1000	0	0	-1	500
25728835	9697	923	0	-100	0	230	101300000	1000	0	0	-1	500
25741395	9729	928	0	-100	0	230	101300000	1000	0	0	-1	500
25753955	9671	918	0	-100	0	230	101300000	1000	0	0	-1	500
25766515	9656	913	0	-100	0	230	101300000	1000	0	0	-1	500
25779075	9654	918	0	-100	0	230	101300000	1000	0	0	-1	500
25791635	9682	920	0	-100	0	230	101300000	1000	0	0	-1	500
25804195	9679	919	0	-100	0	230	101300000	1000	0	0	-1	500
25816755	9635	913	0	-100	0	230	101300000	1000	0	0	-1	500
25829315	9608	917	0	-100	0	230	101300000	1000	0	0	-1	500
25841875	9652	922	0	-100	0	230	101300000	1000	0	0	-1	500
25854435	9632	917	0	-100	0	230	101300000	1000	0	0	-1	500
25866995	9649	915	0	-100	0	230	101300000	1000	0	0	-1	500
25879555	9599	914	0	-100	0	230	101300000	1000	0	0	-1	500
25892115	9654	915	0	-100	0	230	101300000	1000	0	0	-1	500
25904675	9620	916	0	-100	0	230	101300000	1000	0	0	-1	500
25917235	9657	925	0	-100	0	230	101300000	1000	0	0	-1	500
25929795	9696	917	0	-100	0	230	101300000	1000	0	0	-1	500
25942355	9654	915	0	-100	0	230	101300000	1000	0	0	-1	500
25954915	9671	920	0	-100	0	230	101300000	1000	0	0	-1	500
25967475	9612	917	0	-100	0	230	101300000	1000	0	0	-1	500
25980035	9740	932	0	-100	0	230	101300000	1000	0	0	-1	500
25992595	9722	931	0	-100	0	230	101300000	1000	0	0	-1	500
26005155	9649	920	0	-100	0	230	101300000	1000	0	0	-1	500
26017715	9642	918	0	-100	0	230	101300000	1000	0	0	-1	500
26030275	9641	916	0	-100	0	230	101300000	1000	0	0	-1	500
26042835	9688	917	0	-100	0	230	101300000	1000	0	0	-1	500
26055395	9707	915	0	-100	0	230	101300000	1000	0	0	-1	500
26067955	9671	914	0	-100	0	230	101300000	1000	0	0	-1	500
26080515	9671	913	0	-100	0	230	101300000	1000	0	0	-1	500
26093075	9717	924	0	-100	0	230	101300000	1000	0	0	-1	500
26105635	9681	919	0	-100	0	230	101300000	1000	0	0	-1	500
26118195	9670	921	0	-100	0	230	101300000	1000	0	0	-1	500
26130755	9725	922	0	-100	0	230	101300000	1000	0	0	-1	500
26143315	9735	922	0	-100	0	230	101300000	1000	0	0	-1	500
26155875	9663	915	0	-100	0	230	101300000	1000	0	0	-1	500
26168435	9635	913	0	-100	0	230	101300000	1000	0	0	-1	500
26180995	9715	921	0	-100	0	230	101300000	1000	0	0	-1	500
26193555	9657	917	0	-100	0	230	101300000	1000	0	0	-1	500
26206115	9666	915	0	-100	0	230	101300000	1000	0	0	-1	500
26218675	9669	916	0	-100	0	230	101300000	1000	0	0	-1	500
26231235	9666	925	0	-100	0	230	101300000	1000	0	0	-1	500
26243795	9638	920	0	-100	0	230	101300000	1000	0	0	-1	500
26256355	9660	920	0	-100	0	230	101300000	1000	0	0	-1	500
26268915	9698	919	0	-100	0	230	101300000	1000	0	0	-1	500
26281475	9688	919	0	-100	0	230	101300000	1000	0	0	-1	500
26294035	9697	917	0	-100	0	230	101300000	1000	0	0	-1	500
26306595	9675	912	0	-100	0	230	101300000	1000	0	0	-1	500
26319155	9690	919	0	-100	0	230	101300000	1000	0	0	-1	500
26331715	9746	923	0	-100	0	230	101300000	1000	0	0	-1	500
26344275	9726	922	0	-100	0	230	101300000	1000	0	0	-1	500
26356835	9717	924	0	-100	0	230	101300000	1000	0	0	-1	500
26369395	9688	925	0	-100	0	230	101300000	1000	0	0	-1	500
26381955	9666	920	0	-100	0	230	101300000	1000	0	0	-1	500
26394515	9713	922	0	-100	0	230	101300000	1000	0	0	-1	500
26407075	9599	907	0	-100	0	230	101300000	1000	0	0	-1	500
26419635	9695	920	0	-100	0	230	101300000	1000	0	0	-1	500
26432195	9769	924	0	-100	0	230	101300000	1000	0	0	-1	500
26444755	9729	917	0	-100	0	230	101300000	1000	0	0	-1	500
26457315	9746	924	0	-100	0	230	101300000	1000	0	0	-1	500
26469875	9676	917	0	-100	0	230	101300000	1000	0	0	-1	500
26482435	9688	922	0	-100	0	230	101300000	1000	0	0	-1	500
26494995	9613	908	0	-100	0	230	101300000	1000	0	0	-1	500
26507555	9659	923	0	-100	0	230	101300000	1000	0	0	-1	500
26520115	9734	928	0	-100	0	230	101300000	1000	0	0	-1	500
26532675	9676	923	0	-100	0	230	101300000	1000	0	0	-1	500
26545235	9674	921	0	-100	0	230	101300000	1000	0	0	-1	500
26557795	9720	920	0	-100	0	230	101300000	1000	0	0	-1	500
26570355	9722	920	0	-100	0	230	101300000	1000	0	0	-1	500
26582915	9664	912	0	-100	0	230	101300000	1000	0	0	-1	500
26595475	9635	911	0	-100	0	230	101300000	1000	0	0	-1	500
26608035	9704	920	0	-100	0	230	101300000	1000	0	0	-1	500
26620595	9662	911	0	-100	0	230	101300000	1000	0	0	-1	500
26633155	9632	914	0	-100	0	230	101300000	1000	0	0	-1	500
26645715	9708	928	0	-100	0	230	101300000	1000	0	0	-1	500
26658275	9646	915	0	-100	0	230	101300000	1000	0	0	-1	500
26670835	9727	926	0	-100	0	230	101300000	1000	0	0	-1	500
26683395	9739	921	0	-100	0	230	101300000	1000	0	0	-1	500
26695955	9700	918	0	-100	0	230	101300000	1000	0	0	-1	500
26708515	9652	919	0	-100	0	230	101300000	1000	0	0	-1	500
26721075	9639	920	0	-100	0	230	101300000	1000	0	0	-1	500
26733635	9656	919	0	-100	0	230	101300000	1000	0	0	-1	500
26746195	9705	927	0	-100	0	230	101300000	1000	0	0	-1	500
26758755	9671	922	0	-100	0	230	101300000	1000	0	0	-1	500
26771315	9610	909	0	-100	0	230	101300000	1000	0	0	-1	500
26783875	9668	912	0	-100	0	230	101300000	1000	0	0	-1	500
26796435	9630	912	0	-100	0	230	101300000	1000	0	0	-1	500
26808995	9642	913	0	-100	0	230	101300000	1000	0	0	-1	500
26821555	9696	918	0	-100	0	230	101300000	1000	0	0	-1	500
26834115	9674	918	0	-100	0	230	101300000	1000	0	0	-1	500
26846675	9639	915	0	-100	0	230	101300000	1000	0	0	-1	500
26859235	9718	923	0	-100	0	230	101300000	1000	0	0	-1	500
26871795	9662	924	0	-100	0	230	101300000	1000	0	0	-1	500
26884355	9691	923	0	-100	0	230	101300000	1000	0	0	-1	500
26896915	9654	915	0	-100	0	230	101300000	1000	0	0	-1	500
26909475	9727	923	0	-100	0	230	101300000	1000	0	0	-1	500
26922035	9685	917	0	-100	0	230	101300000	1000	0	0	-1	500
26934595	9649	915	0	-100	0	230	101300000	1000	0	0	-1	500
26947155	9620	909	0	-100	0	230	101300000	1000	0	0	-1	500
26959715	9636	919	0	-100	0	230	101300000	1000	0	0	-1	500
26972275	9615	917	0	-100	0	230	101300000	1000	0	0	-1	500
26984835	9715	930	0	-100	0	230	101300000	1000	0	0	-1	500
26997395	9669	922	0	-100	0	230	101300000	1000	0	0	-1	500
27009955	9706	923	0	-100	0	230	101300000	1000	0	0	-1	500
27022515	9683	923	0	-100	0	230	101300000	1000	0	0	-1	500
27035075	9680	918	0	-100	0	230	101300000	1000	0	0	-1	500
27047635	9632	910	0	-100	0	230	101300000	1000	0	0	-1	500
27060195	9633	912	0	-100	0	230	101300000	1000	0	0	-1	500
27072755	9720	924	0	-100	0	230	101300000	1000	0	0	-1	500
27085315	9726	922	0	-100	0	230	101300000	1000	0	0	-1	500
27097875	9691	914	0	-100	0	230	101300000	1000	0	0	-1	500
27110435	9751	924	0	-100	0	230	101300000	1000	0	0	-1	500
27122995	9681	918	0	-100	0	230	101300000	1000	0	0	-1	500
27135555	9630	911	0	-100	0	230	101300000	1000	0	0	-1	500
27148115	9659	911	0	-100	0	230	101300000	1000	0	0	-1	500
27160675	9661	916	0	-100	0	230	101300000	1000	0	0	-1	500
27173235	9650	913	0	-100	0	230	101300000	1000	0	0	-1	500
27185795	9657	919	0	-100	0	230	101300000	1000	0	0	-1	500
27198355	9697	924	0	-100	0	230	101300000	1000	0	0	-1	500
27210915	9649	916	0	-100	0	230	101300000	1000	0	0	-1	500
27223475	9678	915	0	-100	0	230	101300000	1000	0	0	-1	500
27236035	9591	910	0	-100	0	230	101300000	1000	0	0	-1	500
27248595	9661	916	0	-100	0	230	101300000	1000	0	0	-1	500
27261155	9714	919	0	-100	0	230	101300000	1000	0	0	-1	500
27273715	9611	911	0	-100	0	230	101300000	1000	0	0	-1	500
27286275	9640	912	0	-100	0	230	101300000	1000	0	0	-1	500
27298835	9717	920	0	-100	0	230	101300000	1000	0	0	-1	500
27311395	9688	919	0	-100	0	230	101300000	1000	0	0	-1	500
27323955	9679	914	0	-100	0	230	101300000	1000	0	0	-1	500
27336515	9700	920	0	-100	0	230	101300000	1000	0	0	-1	500
27349075	9718	924	0	-100	0	230	101300000	1000	0	0	-1	500
27361635	9698	923	0	-100	0	230	101300000	1000	0	0	-1	500
27374195	9705	920	0	-100	0	230	101300000	1000	0	0	-1	500
27386755	9650	917	0	-100	0	230	101300000	1000	0	0	-1	500
27399315	9720	926	0	-100	0	230	101300000	1000	0	0	-1	500
27411875	9663	924	0	-100	0	230	101300000	1000	0	0	-1	500
27424435	9724	927	0	-100	0	230	101300000	1000	0	0	-1	500
27436995	9657	910	0	-100	0	230	101300000	1000	0	0	-1	500
27449555	9699	917	0	-100	0	230	101300000	1000	0	0	-1	500
27462115	9693	917	0	-100	0	230	101300000	1000	0	0	-1	500
27474675	9691	917	0	-100	0	230	101300000	1000	0	0	-1	500
27487235	9746	922	0	-100	0	230	101300000	1000	0	0	-1	500
27499795	9676	913	0	-100	0	230	101300000	1000	0	0	-1	500
27512355	9615	908	0	-100	0	230	101300000	1000	0	0	-1	500
27524915	9649	910	0	-100	0	230	101300000	1000	0	0	-1	500
27537475	9717	919	0	-100	0	230	101300000	1000	0	0	-1	500
27550035	9635	915	0	-100	0	230	101300000	1000	0	0	-1	500
27562595	9700	922	0	-100	0	230	101300000	1000	0	0	-1	500
27575155	9688	918	0	-100	0	230	101300000	1000	0	0	-1	500
27587715	9700	924	0	-100	0	230	101300000	1000	0	0	-1	500
27600275	9694	920	0	-100	0	230	101300000	1000	0	0	-1	500
27612835	9688	926	0	-100	0	230	101300000	1000	0	0	-1	500
27625395	9638	917	0	-100	0	230	101300000	1000	0	0	-1	500
27637955	9650	922	0	-100	0	230	101300000	1000	0	0	-1	500
27650515	9650	921	0	-100	0	230	101300000	1000	0	0	-1	500
27663075	9771	930	0	-100	0	230	101300000	1000	0	0	-1	500
27675635	9688	925	0	-100	0	230	101300000	1000	0	0	-1	500
27688195	9751	928	0	-100	0	230	101300000	1000	0	0	-1	500
27700755	9773	924	0	-100	0	230	101300000	1000	0	0	-1	500
27713315	9743	922	0	-100	0	230	101300000	1000	0	0	-1	500
27725875	9701	918	0	-100	0	230	101300000	1000	0	0	-1	500
27738435	9703	914	0	-100	0	230	101300000	1000	0	0	-1	500
27750995	9705	923	0	-100	0	230	101300000	1000	0	0	-1	500
27763555	9734	921	0	-100	0	230	101300000	1000	0	0	-1	500
27776115	9734	922	0	-100	0	230	101300000	1000	0	0	-1	500
27788675	9688	913	0	-100	0	230	101300000	1000	0	0	-1	500
27801235	9680	913	0	-100	0	230	101300000	1000	0	0	-1	500
27813795	9666	921	0	-100	0	230	101300000	1000	0	0	-1	500
27826355	9669	923	0	-100	0	230	101300000	1000	0	0	-1	500
27838915	9730	925	0	-100	0	230	101300000	1000	0	0	-1	500
27851475	9647	918	0	-100	0	230	101300000	1000	0	0	-1	500
27864035	9630	916	0	-100	0	230	101300000	1000	0	0	-1	500
27876595	9681	918	0	-100	0	230	101300000	1000	0	0	-1	500
27889155	9710	920	0	-100	0	230	101300000	1000	0	0	-1	500
27901715	9726	921	0	-100	0	230	101300000	1000	0	0	-1	500
27914275	9741	921	0	-100	0	230	101300000	1000	0	0	-1	500
27926835	9719	917	0	-100	0	230	101300000	1000	0	0	-1	500
27939395	9681	913	0	-100	0	230	101300000	1000	0	0	-1	500
27951955	9685	915	0	-100	0	230	101300000	1000	0	0	-1	500
27964515	9654	910	0	-100	0	230	101300000	1000	0	0	-1	500
27977075	9737	923	0	-100	0	230	101300000	1000	0	0	-1	500
27989635	9649	913	0	-100	0	230	101300000	1000	0	0	-1	500
28002195	9705	922	0	-100	0	230	101300000	1000	0	0	-1	500
28014755	9656	921	0	-100	0	230	101300000	1000	0	0	-1	500
28027315	9708	920	0	-100	0	230	101300000	1000	0	0	-1	500
28039875	9673	914	0	-100	0	230	101300000	1000	0	0	-1	500
28052435	9720	917	0	-100	0	230	101300000	1000	0	0	-1	500
28064995	9707	921	0	-100	0	230	101300000	1000	0	0	-1	500
28077555	9676	908	0	-100	0	230	101300000	1000	0	0	-1	500
28090115	9696	915	0	-100	0	230	101300000	1000	0	0	-1	500
28102675	9712	922	0	-100	0	230	101300000	1000	0	0	-1	500
28115235	9659	915	0	-100	0	230	101300000	1000	0	0	-1	500
28127795	9655	918	0	-100	0	230	101300000	1000	0	0	-1	500
28140355	9695	927	0	-100	0	230	101300000	1000	0	0	-1	500
28152915	9746	931	0	-100	0	230	101300000	1000	0	0	-1	500
28165475	9695	920	0	-100	0	230	101300000	1000	0	0	-1	500
28178035	9649	916	0	-100	0	230	101300000	1000	0	0	-1	500
28190595	9666	914	0	-100	0	230	101300000	1000	0	0	-1	500
28203155	9727	922	0	-100	0	230	101300000	1000	0	0	-1	500
28215715	9688	916	0	-100	0	230	101300000	1000	0	0	-1	500
28228275	9661	907	0	-100	0	230	101300000	1000	0	0	-1	500
28240835	9688	918	0	-100	0	230	101300000	1000	0	0	-1	500
28253395	9686	916	0	-100	0	230	101300000	1000	0	0	-1	500
28265955	9683	915	0	-100	0	230	101300000	1000	0	0	-1	500
28278515	9671	919	0	-100	0	230	101300000	1000	0	0	-1	500
28291075	9632	918	0	-100	0	230	101300000	1000	0	0	-1	500
28303635	9642	919	0	-100	0	230	101300000	1000	0	0	-1	500
28316195	9705	927	0	-100	0	230	101300000	1000	0	0	-1	500
28328755	9681	924	0	-100	0	230	101300000	1000	0	0	-1	500
28341315	9732	929	0	-100	0	230	101300000	1000	0	0	-1	500
28353875	9686	926	0	-100	0	230	101300000	1000	0	0	-1	500
28366435	9632	917	0	-100	0	230	101300000	1000	0	0	-1	500
28378995	9691	917	0	-100	0	230	101300000	1000	0	0	-1	500
28391555	9684	919	0	-100	0	230	101300000	1000	0	0	-1	500
28404115	9747	922	0	-100	0	230	101300000	1000	0	0	-1	500
28416675	9676	914	0	-100	0	230	101300000	1000	0	0	-1	500
28429235	9663	913	0	-100	0	230	101300000	1000	0	0	-1	500
28441795	9679	912	0	-100	0	230	101300000	1000	0	0	-1	500
28454355	9691	914	0	-100	0	230	101300000	1000	0	0	-1	500
28466915	9681	915	0	-100	0	230	101300000	1000	0	0	-1	500
28479475	9693	912	0	-100	0	230	101300000	1000	0	0	-1	500
28492035	9676	914	0	-100	0	230	101300000	1000	0	0	-1	500
28504595	9666	911	0	-100	0	230	101300000	1000	0	0	-1	500
28517155	9727	924	0	-100	0	230	101300000	1000	0	0	-1	500
28529715	9695	925	0	-100	0	230	101300000	1000	0	0	-1	500
28542275	9722	921	0	-100	0	230	101300000	1000	0	0	-1	500
28554835	9664	913	0	-100	0	230	101300000	1000	0	0	-1	500
28567395	9693	912	0	-100	0	230	101300000	1000	0	0	-1	500
28579955	9680	918	0	-100	0	230	101300000	1000	0	0	-1	500
28592515	9656	918	0	-100	0	230	101300000	1000	0	0	-1	500
28605075	9663	924	0	-100	0	230	101300000	1000	0	0	-1	500
28617635	9656	916	0	-100	0	230	101300000	1000	0	0	-1	500
28630195	9703	923	0	-100	0	230	101300000	1000	0	0	-1	500
28642755	9729	928	0	-100	0	230	101300000	1000	0	0	-1	500
28655315	9695	924	0	-100	0	230	101300000	1000	0	0	-1	500
28667875	9637	913	0	-100	0	230	101300000	1000	0	0	-1	500
28680435	9666	919	0	-100	0	230	101300000	1000	0	0	-1	500
28692995	9683	911	0	-100	0	230	101300000	1000	0	0	-1	500
28705555	9722	919	0	-100	0	230	101300000	1000	0	0	-1	500
28718115	9586	908	0	-100	0	230	101300000	1000	0	0	-1	500
28730675	9652	924	0	-100	0	230	101300000	1000	0	0	-1	500
28743235	9685	925	0	-100	0	230	101300000	1000	0	0	-1	500
28755795	9766	931	0	-100	0	230	101300000	1000	0	0	-1	500
28768355	9681	919	0	-100	0	230	101300000	1000	0	0	-1	500
28780915	9699	919	0	-100	0	230	101300000	1000	0	0	-1	500
28793475	9700	924	0	-100	0	230	101300000	1000	0	0	-1	500
28806035	9662	919	0	-100	0	230	101300000	1000	0	0	-1	500
28818595	9659	919	0	-100	0	230	101300000	1000	0	0	-1	500
28831155	9642	917	0	-100	0	230	101300000	1000	0	0	-1	500
28843715	9674	919	0	-100	0	230	101300000	1000	0	0	-1	500
28856275	9691	917	0	-100	0	230	101300000	1000	0	0	-1	500
28868835	9661	914	0	-100	0	230	101300000	1000	0	0	-1	500
28881395	9778	925	0	-100	0	230	101300000	1000	0	0	-1	500
28893955	9702	921	0	-100	0	230	101300000	1000	0	0	-1	500
28906515	9717	924	0	-100	0	230	101300000	1000	0	0	-1	500
28919075	9700	921	0	-100	0	230	101300000	1000	0	0	-1	500
28931635	9632	915	0	-100	0	230	101300000	1000	0	0	-1	500
28944195	9681	919	0	-100	0	230	101300000	1000	0	0	-1	500
28956755	9744	922	0	-100	0	230	101300000	1000	0	0	-1	500
28969315	9698	914	0	-100	0	230	101300000	1000	0	0	-1	500
28981875	9666	912	0	-100	0	230	101300000	1000	0	0	-1	500
28994435	9709	922	0	-100	0	230	101300000	1000	0	0	-1	500
29006995	9739	923	0	-100	0	230	101300000	1000	0	0	-1	500
29019555	9698	914	0	-100	0	230	101300000	1000	0	0	-1	500
29032115	9642	909	0	-100	0	230	101300000	1000	0	0	-1	500
29044675	9632	908	0	-100	0	230	101300000	1000	0	0	-1	500
29057235	9720	925	0	-100	0	230	101300000	1000	0	0	-1	500
29069795	9669	919	0	-100	0	230	101300000	1000	0	0	-1	500
29082355	9666	922	0	-100	0	230	101300000	1000	0	0	-1	500
29094915	9612	913	0	-100	0	230	101300000	1000	0	0	-1	500
29107475	9650	913	0	-100	0	230	101300000	1000	0	0	-1	500
29120035	9671	920	0	-100	0	230	101300000	1000	0	0	-1	500
29132595	9601	912	0	-100	0	230	101300000	1000	0	0	-1	500
29145155	9650	916	0	-100	0	230	101300000	1000	0	0	-1	500
29157715	9671	923	0	-100	0	230	101300000	1000	0	0	-1	500
29170275	9702	928	0	-100	0	230	101300000	1000	0	0	-1	500
29182835	9732	926	0	-100	0	230	101300000	1000	0	0	-1	500
29195395	9690	921	0	-100	0	230	101300000	1000	0	0	-1	500
29207955	9693	919	0	-100	0	230	101300000	1000	0	0	-1	500
29220515	9710	917	0	-100	0	230	101300000	1000	0	0	-1	500
29233075	9724	920	0	-100	0	230	101300000	1000	0	0	-1	500
29245635	9695	917	0	-100	0	230	101300000	1000	0	0	-1	500
29258195	9681	914	0	-100	0	230	101300000	1000	0	0	-1	500
29270755	9683	919	0	-100	0	230	101300000	1000	0	0	-1	500
29283315	9675	924	0	-100	0	230	101300000	1000	0	0	-1	500
29295875	9761	928	0	-100	0	230	101300000	1000	0	0	-1	500
29308435	9652	914	0	-100	0	230	101300000	1000	0	0	-1	500
29320995	9601	916	0	-100	0	230	101300000	1000	0	0	-1	500
29333555	9688	917	0	-100	0	230	101300000	1000	0	0	-1	500
29346115	9654	914	0	-100	0	230	101300000	1000	0	0	-1	500
29358675	9681	914	0	-100	0	230	101300000	1000	0	0	-1	500
29371235	9680	914	0	-100	0	230	101300000	1000	0	0	-1	500
29383795	9679	915	0	-100	0	230	101300000	1000	0	0	-1	500
29396355	9766	922	0	-100	0	230	101300000	1000	0	0	-1	500
29408915	9671	915	0	-100	0	230	101300000	1000	0	0	-1	500
29421475	9688	919	0	-100	0	230	101300000	1000	0	0	-1	500
29434035	9631	919	0	-100	0	230	101300000	1000	0	0	-1	500
29446595	9625	916	0	-100	0	230	101300000	1000	0	0	-1	500
29459155	9598	910	0	-100	0	230	101300000	1000	0	0	-1	500
29471715	9678	917	0	-100	0	230	101300000	1000	0	0	-1	500
29484275	9693	920	0	-100	0	230	101300000	1000	0	0	-1	500
29496835	9610	905	0	-100	0	230	101300000	1000	0	0	-1	500
29509395	9671	913	0	-100	0	230	101300000	1000	0	0	-1	500
29521955	9725	917	0	-100	0	230	101300000	1000	0	0	-1	500
29534515	9769	925	0	-100	0	230	101300000	1000	0	0	-1	500
29547075	9720	919	0	-100	0	230	101300000	1000	0	0	-1	500
29559635	9727	924	0	-100	0	230	101300000	1000	0	0	-1	500
29572195	9744	926	0	-100	0	230	101300000	1000	0	0	-1	500
29584755	9695	926	0	-100	0	230	101300000	1000	0	0	-1	500
29597315	9691	924	0	-100	0	230	101300000	1000	0	0	-1	500
29609875	9642	914	0	-100	0	230	101300000	1000	0	0	-1	500
29622435	9658	912	0	-100	0	230	101300000	1000	0	0	-1	500
29634995	9710	920	0	-100	0	230	101300000	1000	0	0	-1	500
29647555	9722	919	0	-100	0	230	101300000	1000	0	0	-1	500
29660115	9739	913	0	-100	0	230	101300000	1000	0	0	-1	500
29672675	9710	920	0	-100	0	230	101300000	1000	0	0	-1	500
29685235	9725	921	0	-100	0	230	101300000	1000	0	0	-1	500
29697795	9686	922	0	-100	0	230	101300000	1000	0	0	-1	500
29710355	9705	922	0	-100	0	230	101300000	1000	0	0	-1	500
29722915	9688	914	0	-100	0	230	101300000	1000	0	0	-1	500
29735475	9644	907	0	-100	0	230	101300000	1000	0	0	-1	500
29748035	9656	910	0	-100	0	230	101300000	1000	0	0	-1	500
29760595	9692	917	0	-100	0	230	101300000	1000	0	0	-1	500
29773155	9691	915	0	-100	0	230	101300000	1000	0	0	-1	500
29785715	9654	914	0	-100	0	230	101300000	1000	0	0	-1	500
29798275	9702	923	0	-100	0	230	101300000	1000	0	0	-1	500
29810835	9715	928	0	-100	0	230	101300000	1000	0	0	-1	500
29823395	9719	928	0	-100	0	230	101300000	1000	0	0	-1	500
29835955	9639	907	0	-100	0	230	101300000	1000	0	0	-1	500
29848515	9640	909	0	-100	0	230	101300000	1000	0	0	-1	500
29861075	9732	918	0	-100	0	230	101300000	1000	0	0	-1	500
29873635	9720	916	0	-100	0	230	101300000	1000	0	0	-1	500
29886195	9702	916	0	-100	0	230	101300000	1000	0	0	-1	500
29898755	9664	918	0	-100	0	230	101300000	1000	0	0	-1	500
29911315	9603	913	0	-100	0	230	101300000	1000	0	0	-1	500
29923875	9657	918	0	-100	0	230	101300000	1000	0	0	-1	500
29936435	9642	917	0	-100	0	230	101300000	1000	0	0	-1	500
29948995	9652	912	0	-100	0	230	101300000	1000	0	0	-1	500
29961555	9722	922	0	-100	0	230	101300000	1000	0	0	-1	500
29974115	9739	919	0	-100	0	230	101300000	1000	0	0	-1	500
29986675	9618	907	0	-100	0	230	101300000	1000	0	0	-1	500
29999235	9757	916	0	-100	0	230	101300000	1000	0	0	-1	500
30011795	9707	918	0	-100	0	230	101300000	1000	0	0	-1	500
30024355	9698	920	0	-100	0	230	101300000	1000	0	0	-1	500
30036915	9707	915	0	-100	0	230	101300000	1000	0	0	-1	500
30049475	9727	919	0	-100	0	230	101300000	1000	0	0	-1	500
30062035	9717	918	0	-100	0	230	101300000	1000	0	0	-1	500
30074595	9708	916	0	-100	0	230	101300000	1000	0	0	-1	500
30087155	9712	914	0	-100	0	230	101300000	1000	0	0	-1	500
30099715	9695	916	0	-100	0	230	101300000	1000	0	0	-1	500
30112275	9707	914	0	-100	0	230	101300000	1000	0	0	-1	500
30124835	9670	909	0	-100	0	230	101300000	1000	0	0	-1	500
30137395	9644	914	0	-100	0	230	101300000	1000	0	0	-1	500
30149955	9688	915	0	-100	0	230	101300000	1000	0	0	-1	500
30162515	9691	917	0	-100	0	230	101300000	1000	0	0	-1	500
30175075	9733	916	0	-100	0	230	101300000	1000	0	0	-1	500
30187635	9745	921	0	-100	0	230	101300000	1000	0	0	-1	500
30200195	9756	927	0	-100	0	230	101300000	1000	0	0	-1	500
30212755	9778	929	0	-100	0	230	101300000	1000	0	0	-1	500
30225315	9720	921	0	-100	0	230	101300000	1000	0	0	-1	500
30237875	9725	923	0	-100	0	230	101300000	1000	0	0	-1	500
30250435	9720	923	0	-100	0	230	101300000	1000	0	0	-1	500
30262995	9797	936	0	-100	0	230	101300000	1000	0	0	-1	500
30275555	9727	919	0	-100	0	230	101300000	1000	0	0	-1	500
30288115	9666	909	0	-100	0	230	101300000	1000	0	0	-1	500
30300675	9693	915	0	-100	0	230	101300000	1000	0	0	-1	500
30313235	9729	919	0	-100	0	230	101300000	1000	0	0	-1	500
30325795	9677	913	0	-100	0	230	101300000	1000	0	0	-1	500
30338355	9710	914	0	-100	0	230	101300000	1000	0	0	-1	500
30350915	9696	916	0	-100	0	230	101300000	1000	0	0	-1	500
30363475	9712	924	0	-100	0	230	101300000	1000	0	0	-1	500
30376035	9751	924	0	-100	0	230	101300000	1000	0	0	-1	500
30388595	9713	915	0	-100	0	230	101300000	1000	0	0	-1	500
30401155	9683	915	0	-100	0	230	101300000	1000	0	0	-1	500
30413715	9752	929	0	-100	0	230	101300000	1000	0	0	-1	500
30426275	9742	924	0	-100	0	230	101300000	1000	0	0	-1	500
30438835	9721	923	0	-100	0	230	101300000	1000	0	0	-1	500
30451395	9685	919	0	-100	0	230	101300000	1000	0	0	-1	500
30463955	9761	924	0	-100	0	230	101300000	1000	0	0	-1	500
30476515	9715	915	0	-100	0	230	101300000	1000	0	0	-1	500
30489075	9660	908	0	-100	0	230	101300000	1000	0	0	-1	500
30501635	9688	918	0	-100	0	230	101300000	1000	0	0	-1	500
30514195	9676	918	0	-100	0	230	101300000	1000	0	0	-1	500
30526755	9703	925	0	-100	0	230	101300000	1000	0	0	-1	500
30539315	9696	919	0	-100	0	230	101300000	1000	0	0	-1	500
30551875	9659	916	0	-100	0	230	101300000	1000	0	0	-1	500
30564435	9708	923	0	-100	0	230	101300000	1000	0	0	-1	500
30576995	9746	919	0	-100	0	230	101300000	1000	0	0	-1	500
30589555	9705	919	0	-100	0	230	101300000	1000	0	0	-1	500
30602115	9654	917	0	-100	0	230	101300000	1000	0	0	-1	500
30614675	9727	924	0	-100	0	230	101300000	1000	0	0	-1	500
30627235	9739	938	0	-100	0	230	101300000	1000	0	0	-1	500
30639795	9768	927	0	-100	0	230	101300000	1000	0	0	-1	500
30652355	9727	922	0	-100	0	230	101300000	1000	0	0	-1	500
30664915	9708	918	0	-100	0	230	101300000	1000	0	0	-1	500
30677475	9705	916	0	-100	0	230	101300000	1000	0	0	-1	500
30690035	9715	915	0	-100	0	230	101300000	1000	0	0	-1	500
30702595	9702	920	0	-100	0	230	101300000	1000	0	0	-1	500
30715155	9704	916	0	-100	0	230	101300000	1000	0	0	-1	500
30727715	9783	928	0	-100	0	230	101300000	1000	0	0	-1	500
30740275	9702	922	0	-100	0	230	101300000	1000	0	0	-1	500
30752835	9703	920	0	-100	0	230	101300000	1000	0	0	-1	500
30765395	9722	923	0	-100	0	230	101300000	1000	0	0	-1	500
30777955	9676	915	0	-100	0	230	101300000	1000	0	0	-1	500
30790515	9717	921	0	-100	0	230	101300000	1000	0	0	-1	500
30803075	9732	917	0	-100	0	230	101300000	1000	0	0	-1	500
30815635	9739	919	0	-100	0	230	101300000	1000	0	0	-1	500
30828195	9734	918	0	-100	0	230	101300000	1000	0	0	-1	500
30840755	9691	909	0	-100	0	230	101300000	1000	0	0	-1	500
30853315	9703	918	0	-100	0	230	101300000	1000	0	0	-1	500
30865875	9666	913	0	-100	0	230	101300000	1000	0	0	-1	500
30878435	9685	916	0	-100	0	230	101300000	1000	0	0	-1	500
30890995	9710	914	0	-100	0	230	101300000	1000	0	0	-1	500
30903555	9695	918	0	-100	0	230	101300000	1000	0	0	-1	500
30916115	9690	917	0	-100	0	230	101300000	1000	0	0	-1	500
30928675	9686	914	0	-100	0	230	101300000	1000	0	0	-1	500
30941235	9688	912	0	-100	0	230	101300000	1000	0	0	-1	500
30953795	9667	911	0	-100	0	230	101300000	1000	0	0	-1	500
30966355	9671	917	0	-100	0	230	101300000	1000	0	0	-1	500
30978915	9659	919	0	-100	0	230	101300000	1000	0	0	-1	500
30991475	9686	917	0	-100	0	230	101300000	1000	0	0	-1	500
31004035	9785	924	0	-100	0	230	101300000	1000	0	0	-1	500
31016595	9691	912	0	-100	0	230	101300000	1000	0	0	-1	500
31029155	9662	916	0	-100	0	230	101300000	1000	0	0	-1	500
31041715	9686	920	0	-100	0	230	101300000	1000	0	0	-1	500
31054275	9737	931	0	-100	0	230	101300000	1000	0	0	-1	500
31066835	9698	915	0	-100	0	230	101300000	1000	0	0	-1	500
31079395	9732	918	0	-100	0	230	101300000	1000	0	0	-1	500
31091955	9724	918	0	-100	0	230	101300000	1000	0	0	-1	500
31104515	9693	916	0	-100	0	230	101300000	1000	0	0	-1	500
31117075	9659	917	0	-100	0	230	101300000	1000	0	0	-1	500
31129635	9719	926	0	-100	0	230	101300000	1000	0	0	-1	500
31142195	9693	915	0	-100	0	230	101300000	1000	0	0	-1	500
31154755	9615	906	0	-100	0	230	101300000	1000	0	0	-1	500
31167315	9741	916	0	-100	0	230	101300000	1000	0	0	-1	500
31179875	9691	918	0	-100	0	230	101300000	1000	0	0	-1	500
31192435	9722	920	0	-100	0	230	101300000	1000	0	0	-1	500
31204995	9669	911	0	-100	0	230	101300000	1000	0	0	-1	500
31217555	9712	926	0	-100	0	230	101300000	1000	0	0	-1	500
31230115	9688	919	0	-100	0	230	101300000	1000	0	0	-1	500
31242675	9730	921	0	-100	0	230	101300000	1000	0	0	-1	500
31255235	9671	915	0	-100	0	230	101300000	1000	0	0	-1	500
31267795	9682	917	0	-100	0	230	101300000	1000	0	0	-1	500
31280355	9700	924	0	-100	0	230	101300000	1000	0	0	-1	500
31292915	9715	924	0	-100	0	230	101300000	1000	0	0	-1	500
31305475	9693	920	0	-100	0	230	101300000	1000	0	0	-1	500
31318035	9742	927	0	-100	0	230	101300000	1000	0	0	-1	500
31330595	9707	919	0	-100	0	230	101300000	1000	0	0	-1	500
31343155	9746	928	0	-100	0	230	101300000	1000	0	0	-1	500
31355715	9721	925	0	-100	0	230	101300000	1000	0	0	-1	500
31368275	9695	918	0	-100	0	230	101300000	1000	0	0	-1	500
31380835	9693	918	0	-100	0	230	101300000	1000	0	0	-1	500
31393395	9775	931	0	-100	0	230	101300000	1000	0	0	-1	500
31405955	9757	919	0	-100	0	230	101300000	1000	0	0	-1	500
31418515	9752	920	0	-100	0	230	101300000	1000	0	0	-1	500
31431075	9682	916	0	-100	0	230	101300000	1000	0	0	-1	500
31443635	9688	917	0	-100	0	230	101300000	1000	0	0	-1	500
31456195	9744	924	0	-100	0	230	101300000	1000	0	0	-1	500
31468755	9703	917	0	-100	0	230	101300000	1000	0	0	-1	500
31481315	9659	915	0	-100	0	230	101300000	1000	0	0	-1	500
31493875	9709	924	0	-100	0	230	101300000	1000	0	0	-1	500
31506435	9720	921	0	-100	0	230	101300000	1000	0	0	-1	500
31518995	9710	916	0	-100	0	230	101300000	1000	0	0	-1	500
31531555	9754	923	0	-100	0	230	101300000	1000	0	0	-1	500
31544115	9707	918	0	-100	0	230	101300000	1000	0	0	-1	500
31556675	9695	913	0	-100	0	230	101300000	1000	0	0	-1	500
31569235	9703	918	0	-100	0	230	101300000	1000	0	0	-1	500
31581795	9706	915	0	-100	0	230	101300000	1000	0	0	-1	500
31594355	9691	914	0	-100	0	230	101300000	1000	0	0	-1	500
31606915	9715	917	0	-100	0	230	101300000	1000	0	0	-1	500
31619475	9686	918	0	-100	0	230	101300000	1000	0	0	-1	500
31632035	9727	925	0	-100	0	230	101300000	1000	0	0	-1	500
31644595	9679	916	0	-100	0	230	101300000	1000	0	0	-1	500
31657155	9698	921	0	-100	0	230	101300000	1000	0	0	-1	500
31669715	9678	918	0	-100	0	230	101300000	1000	0	0	-1	500
31682275	9696	919	0	-100	0	230	101300000	1000	0	0	-1	500
31694835	9683	919	0	-100	0	230	101300000	1000	0	0	-1	500
31707395	9642	907	0	-100	0	230	101300000	1000	0	0	-1	500
31719955	9708	915	0	-100	0	230	101300000	1000	0	0	-1	500
31732515	9707	914	0	-100	0	230	101300000	1000	0	0	-1	500
31745075	9710	914	0	-100	0	230	101300000	1000	0	0	-1	500
31757635	9722	918	0	-100	0	230	101300000	1000	0	0	-1	500
31770195	9664	909	0	-100	0	230	101300000	1000	0	0	-1	500
31782755	9671	910	0	-100	0	230	101300000	1000	0	0	-1	500
31795315	9734	920	0	-100	0	230	101300000	1000	0	0	-1	500
31807875	9732	920	0	-100	0	230	101300000	1000	0	0	-1	500
31820435	9674	917	0	-100	0	230	101300000	1000	0	0	-1	500
31832995	9724	921	0	-100	0	230	101300000	1000	0	0	-1	500
31845555	9662	915	0	-100	0	230	101300000	1000	0	0	-1	500
31858115	9686	919	0	-100	0	230	101300000	1000	0	0	-1	500
31870675	9729	924	0	-100	0	230	101300000	1000	0	0	-1	500
31883235	9712	926	0	-100	0	230	101300000	1000	0	0	-1	500
31895795	9734	927	0	-100	0	230	101300000	1000	0	0	-1	500
31908355	9679	916	0	-100	0	230	101300000	1000	0	0	-1	500
31920915	9741	925	0	-100	0	230	101300000	1000	0	0	-1	500
31933475	9691	916	0	-100	0	230	101300000	1000	0	0	-1	500
31946035	9727	922	0	-100	0	230	101300000	1000	0	0	-1	500
31958595	9730	925	0	-100	0	230	101300000	1000	0	0	-1	500
31971155	9713	923	0	-100	0	230	101300000	1000	0	0	-1	500
31983715	9696	920	0	-100	0	230	101300000	1000	0	0	-1	500
31996275	9715	921	0	-100	0	230	101300000	1000	0	0	-1	500
32008835	9700	919	0	-100	0	230	101300000	1000	0	0	-1	500
32021395	9676	913	0	-100	0	230	101300000	1000	0	0	-1	500
32033955	9744	917	0	-100	0	230	101300000	1000	0	0	-1	500
32046515	9719	914	0	-100	0	230	101300000	1000	0	0	-1	500
32059075	9695	914	0	-100	0	230	101300000	1000	0	0	-1	500
32071635	9710	913	0	-100	0	230	101300000	1000	0	0	-1	500
32084195	9742	917	0	-100	0	230	101300000	1000	0	0	-1	500
32096755	9718	919	0	-100	0	230	101300000	1000	0	0	-1	500
32109315	9676	917	0	-100	0	230	101300000	1000	0	0	-1	500
32121875	9710	924	0	-100	0	230	101300000	1000	0	0	-1	500
32134435	9778	927	0	-100	0	230	101300000	1000	0	0	-1	500
32146995	9766	927	0	-100	0	230	101300000	1000	0	0	-1	500
32159555	9746	922	0	-100	0	230	101300000	1000	0	0	-1	500
32172115	9712	916	0	-100	0	230	101300000	1000	0	0	-1	500
32184675	9705	915	0	-100	0	230	101300000	1000	0	0	-1	500
32197235	9627	909	0	-100	0	230	101300000	1000	0	0	-1	500
32209795	9715	917	0	-100	0	230	101300000	1000	0	0	-1	500
32222355	9669	910	0	-100	0	230	101300000	1000	0	0	-1	500
32234915	9715	918	0	-100	0	230	101300000	1000	0	0	-1	500
32247475	9690	913	0	-100	0	230	101300000	1000	0	0	-1	500
32260035	9746	920	0	-100	0	230	101300000	1000	0	0	-1	500
32272595	9683	912	0	-100	0	230	101300000	1000	0	0	-1	500
32285155	9744	924	0	-100	0	230	101300000	1000	0	0	-1	500
32297715	9720	925	0	-100	0	230	101300000	1000	0	0	-1	500
32310275	9730	926	0	-100	0	230	101300000	1000	0	0	-1	500
32322835	9705	923	0	-100	0	230	101300000	1000	0	0	-1	500
32335395	9671	915	0	-100	0	230	101300000	1000	0	0	-1	500
32347955	9710	920	0	-100	0	230	101300000	1000	0	0	-1	500
32360515	9752	924	0	-100	0	230	101300000	1000	0	0	-1	500
32373075	9688	920	0	-100	0	230	101300000	1000	0	0	-1	500
32385635	9746	926	0	-100	0	230	101300000	1000	0	0	-1	500
32398195	9708	912	0	-100	0	230	101300000	1000	0	0	-1	500
32410755	9702	910	0	-100	0	230	101300000	1000	0	0	-1	500
32423315	9758	923	0	-100	0	230	101300000	1000	0	0	-1	500
32435875	9732	918	0	-100	0	230	101300000	1000	0	0	-1	500
32448435	9685	915	0	-100	0	230	101300000	1000	0	0	-1	500
32460995	9688	912	0	-100	0	230	101300000	1000	0	0	-1	500
32473555	9686	923	0	-100	0	230	101300000	1000	0	0	-1	500
32486115	9700	922	0	-100	0	230	101300000	1000	0	0	-1	500
32498675	9722	927	0	-100	0	230	101300000	1000	0	0	-1	500
32511235	9739	927	0	-100	0	230	101300000	1000	0	0	-1	500
32523795	9732	925	0	-100	0	230	101300000	1000	0	0	-1	500
32536355	9713	918	0	-100	0	230	101300000	1000	0	0	-1	500
32548915	9774	922	0	-100	0	230	101300000	1000	0	0	-1	500
32561475	9759	921	0	-100	0	230	101300000	1000	0	0	-1	500
32574035	9715	916	0	-100	0	230	101300000	1000	0	0	-1	500
32586595	9688	921	0	-100	0	230	101300000	1000	0	0	-1	500
32599155	9756	924	0	-100	0	230	101300000	1000	0	0	-1	500
32611715	9773	922	0	-100	0	230	101300000	1000	0	0	-1	500
32624275	9756	916	0	-100	0	230	101300000	1000	0	0	-1	500
32636835	9766	918	0	-100	0	230	101300000	1000	0	0	-1	500
32649395	9721	920	0	-100	0	230	101300000	1000	0	0	-1	500
32661955	9751	926	0	-100	0	230	101300000	1000	0	0	-1	500
32674515	9764	925	0	-100	0	230	101300000	1000	0	0	-1	500
32687075	9710	921	0	-100	0	230	101300000	1000	0	0	-1	500
32699635	9746	928	0	-100	0	230	101300000	1000	0	0	-1	500
32712195	9759	925	0	-100	0	230	101300000	1000	0	0	-1	500
32724755	9744	921	0	-100	0	230	101300000	1000	0	0	-1	500
32737315	9719	913	0	-100	0	230	101300000	1000	0	0	-1	500
32749875	9739	920	0	-100	0	230	101300000	1000	0	0	-1	500
32762435	9737	915	0	-100	0	230	101300000	1000	0	0	-1	500
32774995	9725	913	0	-100	0	230	101300000	1000	0	0	-1	500
32787555	9742	920	0	-100	0	230	101300000	1000	0	0	-1	500
32800115	9734	923	0	-100	0	230	101300000	1000	0	0	-1	500
32812675	9683	917	0	-100	0	230	101300000	1000	0	0	-1	500
32825235	9670	917	0	-100	0	230	101300000	1000	0	0	-1	500
32837795	9659	914	0	-100	0	230	101300000	1000	0	0	-1	500
32850355	9728	916	0	-100	0	230	101300000	1000	0	0	-1	500
32862915	9756	923	0	-100	0	230	101300000	1000	0	0	-1	500
32875475	9760	918	0	-100	0	230	101300000	1000	0	0	-1	500
32888035	9728	915	0	-100	0	230	101300000	1000	0	0	-1	500
32900595	9754	919	0	-100	0	230	101300000	1000	0	0	-1	500
32913155	9666	911	0	-100	0	230	101300000	1000	0	0	-1	500
32925715	9695	912	0	-100	0	230	101300000	1000	0	0	-1	500
32938275	9642	914	0	-100	0	230	101300000	1000	0	0	-1	500
32950835	9688	922	0	-100	0	230	101300000	1000	0	0	-1	500
32963395	9718	923	0	-100	0	230	101300000	1000	0	0	-1	500
32975955	9761	927	0	-100	0	230	101300000	1000	0	0	-1	500
32988515	9737	925	0	-100	0	230	101300000	1000	0	0	-1	500
33001075	9727	920	0	-100	0	230	101300000	1000	0	0	-1	500
33013635	9749	920	0	-100	0	230	101300000	1000	0	0	-1	500
33026195	9703	916	0	-100	0	230	101300000	1000	0	0	-1	500
33038755	9679	911	0	-100	0	230	101300000	1000	0	0	-1	500
33051315	9739	917	0	-100	0	230	101300000	1000	0	0	-1	500
33063875	9710	915	0	-100	0	230	101300000	1000	0	0	-1	500
33076435	9709	914	0	-100	0	230	101300000	1000	0	0	-1	500
33088995	9684	917	0	-100	0	230	101300000	1000	0	0	-1	500
33101555	9713	914	0	-100	0	230	101300000	1000	0	0	-1	500
33114115	9673	911	0	-100	0	230	101300000	1000	0	0	-1	500
33126675	9688	911	0	-100	0	230	101300000	1000	0	0	-1	500
33139235	9735	923	0	-100	0	230	101300000	1000	0	0	-1	500
33151795	9771	927	0	-100	0	230	101300000	1000	0	0	-1	500
33164355	9700	919	0	-100	0	230	101300000	1000	0	0	-1	500
33176915	9710	913	0	-100	0	230	101300000	1000	0	0	-1	500
33189475	9707	914	0	-100	0	230	101300000	1000	0	0	-1	500
33202035	9746	921	0	-100	0	230	101300000	1000	0	0	-1	500
33214595	9645	912	0	-100	0	230	101300000	1000	0	0	-1	500
33227155	9752	926	0	-100	0	230	101300000	1000	0	0	-1	500
33239715	9688	916	0	-100	0	230	101300000	1000	0	0	-1	500
33252275	9742	924	0	-100	0	230	101300000	1000	0	0	-1	500
33264835	9729	919	0	-100	0	230	101300000	1000	0	0	-1	500
33277395	9739	917	0	-100	0	230	101300000	1000	0	0	-1	500
33289955	9705	913	0	-100	0	230	101300000	1000	0	0	-1	500
33302515	9671	915	0	-100	0	230	101300000	1000	0	0	-1	500
33315075	9699	920	0	-100	0	230	101300000	1000	0	0	-1	500
33327635	9753	929	0	-100	0	230	101300000	1000	0	0	-1	500
33340195	9727	922	0	-100	0	230	101300000	1000	0	0	-1	500
33352755	9749	925	0	-100	0	230	101300000	1000	0	0	-1	500
33365315	9702	914	0	-100	0	230	101300000	1000	0	0	-1	500
33377875	9665	905	0	-100	0	230	101300000	1000	0	0	-1	500
33390435	9724	918	0	-100	0	230	101300000	1000	0	0	-1	500
33402995	9785	925	0	-100	0	230	101300000	1000	0	0	-1	500
33415555	9698	918	0	-100	0	230	101300000	1000	0	0	-1	500
33428115	9715	926	0	-100	0	230	101300000	1000	0	0	-1	500
33440675	9679	915	0	-100	0	230	101300000	1000	0	0	-1	500
33453235	9715	918	0	-100	0	230	101300000	1000	0	0	-1	500
33465795	9739	917	0	-100	0	230	101300000	1000	0	0	-1	500
33478355	9744	915	0	-100	0	230	101300000	1000	0	0	-1	500
33490915	9690	908	0	-100	0	230	101300000	1000	0	0	-1	500
33503475	9724	919	0	-100	0	230	101300000	1000	0	0	-1	500
33516035	9748	917	0	-100	0	230	101300000	1000	0	0	-1	500
33528595	9729	914	0	-100	0	230	101300000	1000	0	0	-1	500
33541155	9698	910	0	-100	0	230	101300000	1000	0	0	-1	500
33553715	9676	910	0	-100	0	230	101300000	1000	0	0	-1	500
33566275	9751	917	0	-100	0	230	101300000	1000	0	0	-1	500
33578835	9695	916	0	-100	0	230	101300000	1000	0	0	-1	500
33591395	9698	915	0	-100	0	230	101300000	1000	0	0	-1	500
33603955	9712	916	0	-100	0	230	101300000	1000	0	0	-1	500
33616515	9675	915	0	-100	0	230	101300000	1000	0	0	-1	500
33629075	9703	918	0	-100	0	230	101300000	1000	0	0	-1	500
33641635	9680	916	0	-100	0	230	101300000	1000	0	0	-1	500
33654195	9736	925	0	-100	0	230	101300000	1000	0	0	-1	500
33666755	9734	925	0	-100	0	230	101300000	1000	0	0	-1	500
33679315	9698	922	0	-100	0	230	101300000	1000	0	0	-1	500
33691875	9715	919	0	-100	0	230	101300000	1000	0	0	-1	500
33704435	9773	929	0	-100	0	230	101300000	1000	0	0	-1	500
33716995	9771	929	0	-100	0	230	101300000	1000	0	0	-1	500
33729555	9811	923	0	-100	0	230	101300000	1000	0	0	-1	500
33742115	9756	922	0	-100	0	230	101300000	1000	0	0	-1	500
33754675	9727	915	0	-100	0	230	101300000	1000	0	0	-1	500
