timestamp	voltage	current	windSpeed	pitchAngle	rpm	temperature	ambientPressure	humidity	accelerationX	accelerationY	accelerationZ	currentSink
7037070	5016	0	0	-100	0	230	101300000	1000	0	0	-1	0
7044523	5012	0	0	-100	0	230	101300000	1000	0	0	-1	0
7057083	5020	0	0	-100	0	230	101300000	1000	0	0	-1	0
7069643	5015	0	0	-100	0	230	101300000	1000	0	0	-1	0
7082203	5014	0	0	-100	0	230	101300000	1000	0	0	-1	0
7094763	5017	0	0	-100	0	230	101300000	1000	0	0	-1	0
7107323	5012	0	0	-100	0	230	101300000	1000	0	0	-1	0
7119883	5015	0	0	-100	0	230	101300000	1000	0	0	-1	0
7132443	5017	0	0	-100	0	230	101300000	1000	0	0	-1	0
7145004	5012	0	0	-100	0	230	101300000	1000	0	0	-1	0
7157563	5019	0	0	-100	0	230	101300000	1000	0	0	-1	0
7170123	5012	0	0	-100	0	230	101300000	1000	0	0	-1	0
7182683	5021	0	0	-100	0	230	101300000	1000	0	0	-1	0
7195243	5015	0	0	-100	0	230	101300000	1000	0	0	-1	0
7207803	5014	0	0	-100	0	230	101300000	1000	0	0	-1	0
7220363	5017	0	0	-100	0	230	101300000	1000	0	0	-1	0
7232923	5015	2	0	-100	0	230	101300000	1000	0	0	-1	0
7245483	5021	0	0	-100	0	230	101300000	1000	0	0	-1	0
7258043	5014	4	0	-100	0	230	101300000	1000	0	0	-1	0
7270603	5021	0	0	-100	0	230	101300000	1000	0	0	-1	0
7283163	5009	0	0	-100	0	230	101300000	1000	0	0	-1	0
7295723	5012	1	0	-100	0	230	101300000	1000	0	0	-1	0
7308283	5021	0	0	-100	0	230	101300000	1000	0	0	-1	0
7320843	5015	0	0	-100	0	230	101300000	1000	0	0	-1	0
7333403	5017	0	0	-100	0	230	101300000	1000	0	0	-1	0
7345963	5015	0	0	-100	0	230	101300000	1000	0	0	-1	0
7716795	9936	1062	0	-100	0	230	101300000	1000	0	0	-1	550
7729355	9917	1051	0	-100	0	230	101300000	1000	0	0	-1	550
7741915	9931	1050	0	-100	0	230	101300000	1000	0	0	-1	550
7754475	9928	1058	0	-100	0	230	101300000	1000	0	0	-1	550
7767035	9933	1059	0	-100	0	230	101300000	1000	0	0	-1	550
7779595	9931	1055	0	-100	0	230	101300000	1000	0	0	-1	550
7792155	9923	1054	0	-100	0	230	101300000	1000	0	0	-1	550
7804715	9928	1056	0	-100	0	230	101300000	1000	0	0	-1	550
7817275	9915	1050	0	-100	0	230	101300000	1000	0	0	-1	550
7829835	9928	1056	0	-100	0	230	101300000	1000	0	0	-1	550
7842395	9933	1059	0	-100	0	230	101300000	1000	0	0	-1	550
7854955	9931	1051	0	-100	0	230	101300000	1000	0	0	-1	550
7867515	9928	1053	0	-100	0	230	101300000	1000	0	0	-1	550
7880075	9925	1056	0	-100	0	230	101300000	1000	0	0	-1	550
7892635	9923	1049	0	-100	0	230	101300000	1000	0	0	-1	550
7905195	9933	1059	0	-100	0	230	101300000	1000	0	0	-1	550
7917755	9925	1048	0	-100	0	230	101300000	1000	0	0	-1	550
7930315	9925	1054	0	-100	0	230	101300000	1000	0	0	-1	550
7942875	9931	1049	0	-100	0	230	101300000	1000	0	0	-1	550
7955435	9931	1053	0	-100	0	230	101300000	1000	0	0	-1	550
7967995	9931	1054	0	-100	0	230	101300000	1000	0	0	-1	550
7980555	9917	1048	0	-100	0	230	101300000	1000	0	0	-1	550
7993115	9923	1050	0	-100	0	230	101300000	1000	0	0	-1	550
8005675	9936	1055	0	-100	0	230	101300000	1000	0	0	-1	550
8018235	9925	1048	0	-100	0	230	101300000	1000	0	0	-1	550
8030795	9933	1058	0	-100	0	230	101300000	1000	0	0	-1	550
8043355	9931	1047	0	-100	0	230	101300000	1000	0	0	-1	550
8055915	9915	1053	0	-100	0	230	101300000	1000	0	0	-1	550
8068475	9931	1048	0	-100	0	230	101300000	1000	0	0	-1	550
8081035	9931	1047	0	-100	0	230	101300000	1000	0	0	-1	550
8093595	9931	1054	0	-100	0	230	101300000	1000	0	0	-1	550
8106155	9928	1047	0	-100	0	230	101300000	1000	0	0	-1	550
8118715	9917	1045	0	-100	0	230	101300000	1000	0	0	-1	550
8131275	9933	1052	0	-100	0	230	101300000	1000	0	0	-1	550
8143835	9917	1051	0	-100	0	230	101300000	1000	0	0	-1	550
8156395	9925	1047	0	-100	0	230	101300000	1000	0	0	-1	550
8168955	9925	1044	0	-100	0	230	101300000	1000	0	0	-1	550
8181515	9928	1044	0	-100	0	230	101300000	1000	0	0	-1	550
8194075	9933	1055	0	-100	0	230	101300000	1000	0	0	-1	550
8206635	9933	1058	0	-100	0	230	101300000	1000	0	0	-1	550
8219195	9928	1052	0	-100	0	230	101300000	1000	0	0	-1	550
8231755	9923	1046	0	-100	0	230	101300000	1000	0	0	-1	550
8244315	9923	1046	0	-100	0	230	101300000	1000	0	0	-1	550
8256875	9933	1045	0	-100	0	230	101300000	1000	0	0	-1	550
8269435	9931	1046	0	-100	0	230	101300000	1000	0	0	-1	550
8281995	9920	1046	0	-100	0	230	101300000	1000	0	0	-1	550
8294555	9936	1052	0	-100	0	230	101300000	1000	0	0	-1	550
8307115	9933	1047	0	-100	0	230	101300000	1000	0	0	-1	550
8319675	9923	1046	0	-100	0	230	101300000	1000	0	0	-1	550
8332235	9925	1047	0	-100	0	230	101300000	1000	0	0	-1	550
8344795	9925	1049	0	-100	0	230	101300000	1000	0	0	-1	550
8357355	9936	1053	0	-100	0	230	101300000	1000	0	0	-1	550
8369915	9928	1047	0	-100	0	230	101300000	1000	0	0	-1	550
8382475	9931	1048	0	-100	0	230	101300000	1000	0	0	-1	550
8395035	9931	1051	0	-100	0	230	101300000	1000	0	0	-1	550
8407595	9925	1047	0	-100	0	230	101300000	1000	0	0	-1	550
8420155	9917	1046	0	-100	0	230	101300000	1000	0	0	-1	550
8432715	9933	1053	0	-100	0	230	101300000	1000	0	0	-1	550
8445275	9939	1050	0	-100	0	230	101300000	1000	0	0	-1	550
8457835	9928	1047	0	-100	0	230	101300000	1000	0	0	-1	550
8470395	9936	1053	0	-100	0	230	101300000	1000	0	0	-1	550
8482955	9928	1049	0	-100	0	230	101300000	1000	0	0	-1	550
8495515	9917	1043	0	-100	0	230	101300000	1000	0	0	-1	550
8508075	9931	1054	0	-100	0	230	101300000	1000	0	0	-1	550
8520635	9931	1046	0	-100	0	230	101300000	1000	0	0	-1	550
8533195	9936	1046	0	-100	0	230	101300000	1000	0	0	-1	550
8545755	9936	1053	0	-100	0	230	101300000	1000	0	0	-1	550
8558315	9936	1052	0	-100	0	230	101300000	1000	0	0	-1	550
8570875	9920	1042	0	-100	0	230	101300000	1000	0	0	-1	550
8583435	9928	1046	0	-100	0	230	101300000	1000	0	0	-1	550
8595995	9933	1046	0	-100	0	230	101300000	1000	0	0	-1	550
8608555	9923	1049	0	-100	0	230	101300000	1000	0	0	-1	550
8621115	9933	1055	0	-100	0	230	101300000	1000	0	0	-1	550
8633675	9936	1051	0	-100	0	230	101300000	1000	0	0	-1	550
8646235	9936	1047	0	-100	0	230	101300000	1000	0	0	-1	550
8658795	9925	1042	0	-100	0	230	101300000	1000	0	0	-1	550
8671355	9928	1044	0	-100	0	230	101300000	1000	0	0	-1	550
8683915	9936	1055	0	-100	0	230	101300000	1000	0	0	-1	550
8696475	9939	1050	0	-100	0	230	101300000	1000	0	0	-1	550
8709035	9923	1041	0	-100	0	230	101300000	1000	0	0	-1	550
8721595	9928	1044	0	-100	0	230	101300000	1000	0	0	-1	550
8734155	9901	1047	0	-100	0	230	101300000	1000	0	0	-1	550
8746715	9933	1049	0	-100	0	230	101300000	1000	0	0	-1	550
8759275	9925	1041	0	-100	0	230	101300000	1000	0	0	-1	550
8771835	9931	1048	0	-100	0	230	101300000	1000	0	0	-1	550
8784395	9931	1050	0	-100	0	230	101300000	1000	0	0	-1	550
8796955	9933	1047	0	-100	0	230	101300000	1000	0	0	-1	550
8809515	9931	1046	0	-100	0	230	101300000	1000	0	0	-1	550
8822075	9923	1042	0	-100	0	230	101300000	1000	0	0	-1	550
8834635	9925	1044	0	-100	0	230	101300000	1000	0	0	-1	550
8847195	9917	1052	0	-100	0	230	101300000	1000	0	0	-1	550
8859755	9923	1049	0	-100	0	230	101300000	1000	0	0	-1	550
8872315	9928	1045	0	-100	0	230	101300000	1000	0	0	-1	550
8884875	9928	1044	0	-100	0	230	101300000	1000	0	0	-1	550
8897435	9915	1041	0	-100	0	230	101300000	1000	0	0	-1	550
8909995	9928	1040	0	-100	0	230	101300000	1000	0	0	-1	550
8922555	9936	1046	0	-100	0	230	101300000	1000	0	0	-1	550
8935115	9928	1042	0	-100	0	230	101300000	1000	0	0	-1	550
8947675	9933	1048	0	-100	0	230	101300000	1000	0	0	-1	550
8960235	9931	1050	0	-100	0	230	101300000	1000	0	0	-1	550
8972795	9920	1047	0	-100	0	230	101300000	1000	0	0	-1	550
8985355	9931	1052	0	-100	0	230	101300000	1000	0	0	-1	550
8997915	9931	1042	0	-100	0	230	101300000	1000	0	0	-1	550
9010475	9933	1043	0	-100	0	230	101300000	1000	0	0	-1	550
9023035	9925	1043	0	-100	0	230	101300000	1000	0	0	-1	550
9035595	9928	1044	0	-100	0	230	101300000	1000	0	0	-1	550
9048155	9904	1046	0	-100	0	230	101300000	1000	0	0	-1	550
9060715	9925	1049	0	-100	0	230	101300000	1000	0	0	-1	550
9073275	9936	1051	0	-100	0	230	101300000	1000	0	0	-1	550
9085835	9925	1048	0	-100	0	230	101300000	1000	0	0	-1	550
9098395	9936	1049	0	-100	0	230	101300000	1000	0	0	-1	550
9110955	9931	1052	0	-100	0	230	101300000	1000	0	0	-1	550
9123515	9936	1053	0	-100	0	230	101300000	1000	0	0	-1	550
9136075	9923	1046	0	-100	0	230	101300000	1000	0	0	-1	550
9148635	9931	1048	0	-100	0	230	101300000	1000	0	0	-1	550
9161195	9912	1045	0	-100	0	230	101300000	1000	0	0	-1	550
9173755	9931	1046	0	-100	0	230	101300000	1000	0	0	-1	550
9186315	9931	1044	0	-100	0	230	101300000	1000	0	0	-1	550
9198875	9923	1038	0	-100	0	230	101300000	1000	0	0	-1	550
9211435	9931	1043	0	-100	0	230	101300000	1000	0	0	-1	550
9223995	9931	1047	0	-100	0	230	101300000	1000	0	0	-1	550
9236555	9928	1050	0	-100	0	230	101300000	1000	0	0	-1	550
9249115	9925	1049	0	-100	0	230	101300000	1000	0	0	-1	550
9261675	9933	1055	0	-100	0	230	101300000	1000	0	0	-1	550
9274235	9925	1044	0	-100	0	230	101300000	1000	0	0	-1	550
9286795	9920	1048	0	-100	0	230	101300000	1000	0	0	-1	550
9299355	9939	1050	0	-100	0	230	101300000	1000	0	0	-1	550
9311915	9925	1051	0	-100	0	230	101300000	1000	0	0	-1	550
9324475	9931	1050	0	-100	0	230	101300000	1000	0	0	-1	550
9337035	9931	1050	0	-100	0	230	101300000	1000	0	0	-1	550
9349595	9933	1055	0	-100	0	230	101300000	1000	0	0	-1	550
9362155	9925	1052	0	-100	0	230	101300000	1000	0	0	-1	550
9374715	9925	1053	0	-100	0	230	101300000	1000	0	0	-1	550
9387275	9925	1047	0	-100	0	230	101300000	1000	0	0	-1	550
9399835	9928	1044	0	-100	0	230	101300000	1000	0	0	-1	550
9412395	9933	1048	0	-100	0	230	101300000	1000	0	0	-1	550
9424955	9931	1045	0	-100	0	230	101300000	1000	0	0	-1	550
9437515	9936	1051	0	-100	0	230	101300000	1000	0	0	-1	550
9450075	9933	1045	0	-100	0	230	101300000	1000	0	0	-1	550
9462635	9931	1043	0	-100	0	230	101300000	1000	0	0	-1	550
9475195	9933	1041	0	-100	0	230	101300000	1000	0	0	-1	550
9487755	9928	1036	0	-100	0	230	101300000	1000	0	0	-1	550
9500315	9931	1040	0	-100	0	230	101300000	1000	0	0	-1	550
9512875	9920	1036	0	-100	0	230	101300000	1000	0	0	-1	550
9525435	9923	1038	0	-100	0	230	101300000	1000	0	0	-1	550
9537995	9936	1034	0	-100	0	230	101300000	1000	0	0	-1	550
9550555	9920	1040	0	-100	0	230	101300000	1000	0	0	-1	550
9563115	9928	1045	0	-100	0	230	101300000	1000	0	0	-1	550
9575675	9928	1041	0	-100	0	230	101300000	1000	0	0	-1	550
9588235	9925	1040	0	-100	0	230	101300000	1000	0	0	-1	550
9600795	9933	1038	0	-100	0	230	101300000	1000	0	0	-1	550
9613355	9931	1038	0	-100	0	230	101300000	1000	0	0	-1	550
9625915	9923	1036	0	-100	0	230	101300000	1000	0	0	-1	550
9638475	9933	1044	0	-100	0	230	101300000	1000	0	0	-1	550
9651035	9928	1039	0	-100	0	230	101300000	1000	0	0	-1	550
9663595	9931	1038	0	-100	0	230	101300000	1000	0	0	-1	550
9676155	9931	1040	0	-100	0	230	101300000	1000	0	0	-1	550
9688715	9923	1034	0	-100	0	230	101300000	1000	0	0	-1	550
9701275	9933	1035	0	-100	0	230	101300000	1000	0	0	-1	550
9713835	9920	1036	0	-100	0	230	101300000	1000	0	0	-1	550
9726395	9925	1043	0	-100	0	230	101300000	1000	0	0	-1	550
9738955	9931	1045	0	-100	0	230	101300000	1000	0	0	-1	550
9751515	9933	1041	0	-100	0	230	101300000	1000	0	0	-1	550
9776635	9923	1035	0	-100	0	230	101300000	1000	0	0	-1	550
9789195	9925	1035	0	-100	0	230	101300000	1000	0	0	-1	550
9801755	9936	1037	0	-100	0	230	101300000	1000	0	0	-1	550
9814315	9928	1036	0	-100	0	230	101300000	1000	0	0	-1	550
9826875	9936	1045	0	-100	0	230	101300000	1000	0	0	-1	550
9839435	9933	1044	0	-100	0	230	101300000	1000	0	0	-1	550
9851995	9928	1042	0	-100	0	230	101300000	1000	0	0	-1	550
9864555	9933	1040	0	-100	0	230	101300000	1000	0	0	-1	550
9877115	9931	1035	0	-100	0	230	101300000	1000	0	0	-1	550
9889675	9925	1036	0	-100	0	230	101300000	1000	0	0	-1	550
9902235	9931	1042	0	-100	0	230	101300000	1000	0	0	-1	550
9914795	9928	1044	0	-100	0	230	101300000	1000	0	0	-1	550
9927355	9931	1042	0	-100	0	230	101300000	1000	0	0	-1	550
9939915	9923	1037	0	-100	0	230	101300000	1000	0	0	-1	550
9952475	9931	1035	0	-100	0	230	101300000	1000	0	0	-1	550
9965035	9928	1036	0	-100	0	230	101300000	1000	0	0	-1	550
9977595	9933	1038	0	-100	0	230	101300000	1000	0	0	-1	550
9990155	9917	1039	0	-100	0	230	101300000	1000	0	0	-1	550
10002715	9925	1045	0	-100	0	230	101300000	1000	0	0	-1	550
10015275	9936	1039	0	-100	0	230	101300000	1000	0	0	-1	550
10027835	9928	1035	0	-100	0	230	101300000	1000	0	0	-1	550
10040395	9931	1037	0	-100	0	230	101300000	1000	0	0	-1	550
10052955	9920	1042	0	-100	0	230	101300000	1000	0	0	-1	550
10065515	9933	1044	0	-100	0	230	101300000	1000	0	0	-1	550
10078075	9928	1035	0	-100	0	230	101300000	1000	0	0	-1	550
10090635	9925	1034	0	-100	0	230	101300000	1000	0	0	-1	550
10103195	9933	1036	0	-100	0	230	101300000	1000	0	0	-1	550
10115755	9931	1035	0	-100	0	230	101300000	1000	0	0	-1	550
10128315	9931	1037	0	-100	0	230	101300000	1000	0	0	-1	550
10140875	9920	1036	0	-100	0	230	101300000	1000	0	0	-1	550
10153435	9928	1042	0	-100	0	230	101300000	1000	0	0	-1	550
10165995	9933	1035	0	-100	0	230	101300000	1000	0	0	-1	550
10178555	9928	1042	0	-100	0	230	101300000	1000	0	0	-1	550
10191115	9936	1041	0	-100	0	230	101300000	1000	0	0	-1	550
10203675	9925	1033	0	-100	0	230	101300000	1000	0	0	-1	550
10216235	9931	1037	0	-100	0	230	101300000	1000	0	0	-1	550
10228795	9920	1038	0	-100	0	230	101300000	1000	0	0	-1	550
10241355	9931	1039	0	-100	0	230	101300000	1000	0	0	-1	550
10253915	9925	1035	0	-100	0	230	101300000	1000	0	0	-1	550
10266475	9931	1043	0	-100	0	230	101300000	1000	0	0	-1	550
10279035	9931	1039	0	-100	0	230	101300000	1000	0	0	-1	550
10291595	9931	1036	0	-100	0	230	101300000	1000	0	0	-1	550
10304155	9917	1036	0	-100	0	230	101300000	1000	0	0	-1	550
10316715	9923	1033	0	-100	0	230	101300000	1000	0	0	-1	550
10329275	9933	1041	0	-100	0	230	101300000	1000	0	0	-1	550
10341835	9915	1038	0	-100	0	230	101300000	1000	0	0	-1	550
10354395	9931	1037	0	-100	0	230	101300000	1000	0	0	-1	550
10366955	9925	1030	0	-100	0	230	101300000	1000	0	0	-1	550
10379515	9936	1035	0	-100	0	230	101300000	1000	0	0	-1	550
10392075	9909	1032	0	-100	0	230	101300000	1000	0	0	-1	550
10404635	9928	1040	0	-100	0	230	101300000	1000	0	0	-1	550
10417195	9928	1040	0	-100	0	230	101300000	1000	0	0	-1	550
10429755	9928	1041	0	-100	0	230	101300000	1000	0	0	-1	550
10442315	9936	1045	0	-100	0	230	101300000	1000	0	0	-1	550
10454875	9920	1039	0	-100	0	230	101300000	1000	0	0	-1	550
10467435	9931	1042	0	-100	0	230	101300000	1000	0	0	-1	550
10479995	9928	1036	0	-100	0	230	101300000	1000	0	0	-1	550
10492555	9936	1039	0	-100	0	230	101300000	1000	0	0	-1	550
10505115	9936	1039	0	-100	0	230	101300000	1000	0	0	-1	550
10517675	9931	1034	0	-100	0	230	101300000	1000	0	0	-1	550
10530235	9931	1033	0	-100	0	230	101300000	1000	0	0	-1	550
10542795	9928	1033	0	-100	0	230	101300000	1000	0	0	-1	550
10555355	9933	1035	0	-100	0	230	101300000	1000	0	0	-1	550
10567915	9928	1033	0	-100	0	230	101300000	1000	0	0	-1	550
10580475	9933	1035	0	-100	0	230	101300000	1000	0	0	-1	550
10593035	9923	1034	0	-100	0	230	101300000	1000	0	0	-1	550
10605595	9928	1034	0	-100	0	230	101300000	1000	0	0	-1	550
10618155	9920	1035	0	-100	0	230	101300000	1000	0	0	-1	550
10630715	9912	1032	0	-100	0	230	101300000	1000	0	0	-1	550
10643275	9933	1040	0	-100	0	230	101300000	1000	0	0	-1	550
10655835	9920	1039	0	-100	0	230	101300000	1000	0	0	-1	550
10668395	9936	1041	0	-100	0	230	101300000	1000	0	0	-1	550
10680955	9925	1033	0	-100	0	230	101300000	1000	0	0	-1	550
10693515	9931	1035	0	-100	0	230	101300000	1000	0	0	-1	550
10706075	9915	1028	0	-100	0	230	101300000	1000	0	0	-1	550
10718635	9925	1035	0	-100	0	230	101300000	1000	0	0	-1	550
10731195	9915	1030	0	-100	0	230	101300000	1000	0	0	-1	550
10743755	9936	1041	0	-100	0	230	101300000	1000	0	0	-1	550
10756315	9923	1039	0	-100	0	230	101300000	1000	0	0	-1	550
10768875	9936	1041	0	-100	0	230	101300000	1000	0	0	-1	550
10781435	9931	1037	0	-100	0	230	101300000	1000	0	0	-1	550
10793995	9933	1036	0	-100	0	230	101300000	1000	0	0	-1	550
10806555	9923	1033	0	-100	0	230	101300000	1000	0	0	-1	550
10819115	9928	1035	0	-100	0	230	101300000	1000	0	0	-1	550
10831675	9925	1034	0	-100	0	230	101300000	1000	0	0	-1	550
10844235	9928	1032	0	-100	0	230	101300000	1000	0	0	-1	550
10856795	9920	1032	0	-100	0	230	101300000	1000	0	0	-1	550
10869355	9931	1032	0	-100	0	230	101300000	1000	0	0	-1	550
10881915	9931	1034	0	-100	0	230	101300000	1000	0	0	-1	550
10894475	9928	1033	0	-100	0	230	101300000	1000	0	0	-1	550
10907035	9920	1033	0	-100	0	230	101300000	1000	0	0	-1	550
10919595	9928	1000	0	-100	0	230	101300000	1000	0	0	-1	550
10932155	9928	1015	0	-100	0	230	101300000	1000	0	0	-1	550
10944715	9630	981	0	-100	0	230	101300000	1000	0	0	-1	550
10957275	9915	973	0	-100	0	230	101300000	1000	0	0	-1	550
10969835	9915	962	0	-100	0	230	101300000	1000	0	0	-1	550
10982395	9928	970	0	-100	0	230	101300000	1000	0	0	-1	550
10994955	9931	964	0	-100	0	230	101300000	1000	0	0	-1	550
11007515	9933	971	0	-100	0	230	101300000	1000	0	0	-1	550
11020075	9923	967	0	-100	0	230	101300000	1000	0	0	-1	550
11032635	9931	961	0	-100	0	230	101300000	1000	0	0	-1	550
11045195	9933	959	0	-100	0	230	101300000	1000	0	0	-1	550
11057755	9931	955	0	-100	0	230	101300000	1000	0	0	-1	550
11070315	9928	955	0	-100	0	230	101300000	1000	0	0	-1	550
11082875	9936	953	0	-100	0	230	101300000	1000	0	0	-1	550
11095435	9933	965	0	-100	0	230	101300000	1000	0	0	-1	550
11107995	9923	958	0	-100	0	230	101300000	1000	0	0	-1	550
11120555	9936	965	0	-100	0	230	101300000	1000	0	0	-1	550
11133115	9915	961	0	-100	0	230	101300000	1000	0	0	-1	550
11145675	9933	957	0	-100	0	230	101300000	1000	0	0	-1	550
11158235	9925	957	0	-100	0	230	101300000	1000	0	0	-1	550
11170795	9933	964	0	-100	0	230	101300000	1000	0	0	-1	550
11183355	9936	953	0	-100	0	230	101300000	1000	0	0	-1	550
11195915	9933	957	0	-100	0	230	101300000	1000	0	0	-1	550
11208475	9933	953	0	-100	0	230	101300000	1000	0	0	-1	550
11221035	9915	958	0	-100	0	230	101300000	1000	0	0	-1	550
11233595	9928	960	0	-100	0	230	101300000	1000	0	0	-1	550
11246155	9920	956	0	-100	0	230	101300000	1000	0	0	-1	550
11258715	9931	954	0	-100	0	230	101300000	1000	0	0	-1	550
11271275	9915	952	0	-100	0	230	101300000	1000	0	0	-1	550
11283835	9936	952	0	-100	0	230	101300000	1000	0	0	-1	550
11296395	9915	953	0	-100	0	230	101300000	1000	0	0	-1	550
11308955	9931	950	0	-100	0	230	101300000	1000	0	0	-1	550
11321515	9928	952	0	-100	0	230	101300000	1000	0	0	-1	550
11334075	9931	952	0	-100	0	230	101300000	1000	0	0	-1	550
11346635	9923	953	0	-100	0	230	101300000	1000	0	0	-1	550
11359195	9928	952	0	-100	0	230	101300000	1000	0	0	-1	550
11371755	9920	953	0	-100	0	230	101300000	1000	0	0	-1	550
11384315	9931	954	0	-100	0	230	101300000	1000	0	0	-1	550
11396875	9925	950	0	-100	0	230	101300000	1000	0	0	-1	550
11409435	9928	954	0	-100	0	230	101300000	1000	0	0	-1	550
11421995	9931	955	0	-100	0	230	101300000	1000	0	0	-1	550
11434555	9928	954	0	-100	0	230	101300000	1000	0	0	-1	550
11447115	9920	951	0	-100	0	230	101300000	1000	0	0	-1	550
11459675	9923	952	0	-100	0	230	101300000	1000	0	0	-1	550
11472235	9933	952	0	-100	0	230	101300000	1000	0	0	-1	550
11484795	9931	951	0	-100	0	230	101300000	1000	0	0	-1	550
11497355	9928	958	0	-100	0	230	101300000	1000	0	0	-1	550
11509915	9915	955	0	-100	0	230	101300000	1000	0	0	-1	550
11522475	9931	954	0	-100	0	230	101300000	1000	0	0	-1	550
11535035	9923	956	0	-100	0	230	101300000	1000	0	0	-1	550
11547595	9925	958	0	-100	0	230	101300000	1000	0	0	-1	550
11560155	9925	959	0	-100	0	230	101300000	1000	0	0	-1	550
11572715	9925	955	0	-100	0	230	101300000	1000	0	0	-1	550
11585275	9925	956	0	-100	0	230	101300000	1000	0	0	-1	550
11597835	9933	952	0	-100	0	230	101300000	1000	0	0	-1	550
11610395	9920	949	0	-100	0	230	101300000	1000	0	0	-1	550
11622955	9923	949	0	-100	0	230	101300000	1000	0	0	-1	550
11635515	9933	951	0	-100	0	230	101300000	1000	0	0	-1	550
11648075	9925	951	0	-100	0	230	101300000	1000	0	0	-1	550
11660635	9931	953	0	-100	0	230	101300000	1000	0	0	-1	550
11673195	9928	950	0	-100	0	230	101300000	1000	0	0	-1	550
11685755	9928	952	0	-100	0	230	101300000	1000	0	0	-1	550
11698315	9931	947	0	-100	0	230	101300000	1000	0	0	-1	550
11710875	9925	949	0	-100	0	230	101300000	1000	0	0	-1	550
11723435	9912	949	0	-100	0	230	101300000	1000	0	0	-1	550
11735995	9936	957	0	-100	0	230	101300000	1000	0	0	-1	550
11748555	9933	950	0	-100	0	230	101300000	1000	0	0	-1	550
11761115	9931	954	0	-100	0	230	101300000	1000	0	0	-1	550
11773675	9931	953	0	-100	0	230	101300000	1000	0	0	-1	550
11786235	9931	953	0	-100	0	230	101300000	1000	0	0	-1	550
11798795	9933	958	0	-100	0	230	101300000	1000	0	0	-1	550
11811355	9931	960	0	-100	0	230	101300000	1000	0	0	-1	550
11823915	9939	959	0	-100	0	230	101300000	1000	0	0	-1	550
11836475	9931	954	0	-100	0	230	101300000	1000	0	0	-1	550
11849035	9920	954	0	-100	0	230	101300000	1000	0	0	-1	550
11861595	9931	953	0	-100	0	230	101300000	1000	0	0	-1	550
11874155	9928	955	0	-100	0	230	101300000	1000	0	0	-1	550
11886715	9933	953	0	-100	0	230	101300000	1000	0	0	-1	550
11899275	9931	950	0	-100	0	230	101300000	1000	0	0	-1	550
11911835	9928	951	0	-100	0	230	101300000	1000	0	0	-1	550
11924395	9931	953	0	-100	0	230	101300000	1000	0	0	-1	550
11936955	9936	954	0	-100	0	230	101300000	1000	0	0	-1	550
11949515	9928	950	0	-100	0	230	101300000	1000	0	0	-1	550
11962075	9933	947	0	-100	0	230	101300000	1000	0	0	-1	550
11974635	9939	951	0	-100	0	230	101300000	1000	0	0	-1	550
11987195	9933	949	0	-100	0	230	101300000	1000	0	0	-1	550
11999755	9933	950	0	-100	0	230	101300000	1000	0	0	-1	550
12012315	9920	948	0	-100	0	230	101300000	1000	0	0	-1	550
12024875	9933	951	0	-100	0	230	101300000	1000	0	0	-1	550
12037435	9925	950	0	-100	0	230	101300000	1000	0	0	-1	550
12049995	9933	953	0	-100	0	230	101300000	1000	0	0	-1	550
12062555	9931	949	0	-100	0	230	101300000	1000	0	0	-1	550
12075115	9933	954	0	-100	0	230	101300000	1000	0	0	-1	550
12087675	9931	952	0	-100	0	230	101300000	1000	0	0	-1	550
12100235	9931	957	0	-100	0	230	101300000	1000	0	0	-1	550
12112795	9936	957	0	-100	0	230	101300000	1000	0	0	-1	550
12125355	9923	955	0	-100	0	230	101300000	1000	0	0	-1	550
12137915	9928	957	0	-100	0	230	101300000	1000	0	0	-1	550
12150475	9936	956	0	-100	0	230	101300000	1000	0	0	-1	550
12163035	9936	959	0	-100	0	230	101300000	1000	0	0	-1	550
12175595	9931	988	0	-100	0	230	101300000	1000	0	0	-1	550
12188155	9928	1023	0	-100	0	230	101300000	1000	0	0	-1	550
12200715	9920	1031	0	-100	0	230	101300000	1000	0	0	-1	550
12213275	9939	1042	0	-100	0	230	101300000	1000	0	0	-1	550
12225835	9933	1043	0	-100	0	230	101300000	1000	0	0	-1	550
12238395	9931	1041	0	-100	0	230	101300000	1000	0	0	-1	550
12250955	9925	1035	0	-100	0	230	101300000	1000	0	0	-1	550
12263515	9931	1033	0	-100	0	230	101300000	1000	0	0	-1	550
12276075	9931	1035	0	-100	0	230	101300000	1000	0	0	-1	550
12288635	9917	1028	0	-100	0	230	101300000	1000	0	0	-1	550
12301195	9933	1035	0	-100	0	230	101300000	1000	0	0	-1	550
12313755	9928	1035	0	-100	0	230	101300000	1000	0	0	-1	550
12326315	9931	1038	0	-100	0	230	101300000	1000	0	0	-1	550
12338875	9917	1033	0	-100	0	230	101300000	1000	0	0	-1	550
12351435	9939	1034	0	-100	0	230	101300000	1000	0	0	-1	550
12363995	9928	1041	0	-100	0	230	101300000	1000	0	0	-1	550
12376555	9928	1034	0	-100	0	230	101300000	1000	0	0	-1	550
12389115	9925	1030	0	-100	0	230	101300000	1000	0	0	-1	550
12401675	9933	1033	0	-100	0	230	101300000	1000	0	0	-1	550
12414235	9925	1030	0	-100	0	230	101300000	1000	0	0	-1	550
12426795	9928	1033	0	-100	0	230	101300000	1000	0	0	-1	550
12439355	9928	1032	0	-100	0	230	101300000	1000	0	0	-1	550
12451915	9928	1034	0	-100	0	230	101300000	1000	0	0	-1	550
12464475	9933	1039	0	-100	0	230	101300000	1000	0	0	-1	550
12477035	9933	1038	0	-100	0	230	101300000	1000	0	0	-1	550
12489595	9933	1037	0	-100	0	230	101300000	1000	0	0	-1	550
12502155	9907	1030	0	-100	0	230	101300000	1000	0	0	-1	550
12514715	9928	1033	0	-100	0	230	101300000	1000	0	0	-1	550
12527275	9933	1033	0	-100	0	230	101300000	1000	0	0	-1	550
12539835	9931	1031	0	-100	0	230	101300000	1000	0	0	-1	550
12552395	9936	1039	0	-100	0	230	101300000	1000	0	0	-1	550
12564955	9933	1038	0	-100	0	230	101300000	1000	0	0	-1	550
12577515	9928	1034	0	-100	0	230	101300000	1000	0	0	-1	550
12590075	9933	1032	0	-100	0	230	101300000	1000	0	0	-1	550
12602635	9917	1028	0	-100	0	230	101300000	1000	0	0	-1	550
12615195	9931	1033	0	-100	0	230	101300000	1000	0	0	-1	550
12627755	9931	1033	0	-100	0	230	101300000	1000	0	0	-1	550
12640315	9925	1032	0	-100	0	230	101300000	1000	0	0	-1	550
12652875	9936	1032	0	-100	0	230	101300000	1000	0	0	-1	550
12665435	9936	1035	0	-100	0	230	101300000	1000	0	0	-1	550
12677995	9928	1035	0	-100	0	230	101300000	1000	0	0	-1	550
12690555	9936	1032	0	-100	0	230	101300000	1000	0	0	-1	550
12703115	9933	1032	0	-100	0	230	101300000	1000	0	0	-1	550
12715675	9936	1032	0	-100	0	230	101300000	1000	0	0	-1	550
12728235	9928	1036	0	-100	0	230	101300000	1000	0	0	-1	550
12740795	9917	1031	0	-100	0	230	101300000	1000	0	0	-1	550
12753355	9933	1036	0	-100	0	230	101300000	1000	0	0	-1	550
12765915	9920	1034	0	-100	0	230	101300000	1000	0	0	-1	550
12778475	9939	1040	0	-100	0	230	101300000	1000	0	0	-1	550
12791035	9925	1038	0	-100	0	230	101300000	1000	0	0	-1	550
12803595	9928	1040	0	-100	0	230	101300000	1000	0	0	-1	550
12816155	9925	1035	0	-100	0	230	101300000	1000	0	0	-1	550
12828715	9931	1035	0	-100	0	230	101300000	1000	0	0	-1	550
12841275	9917	1033	0	-100	0	230	101300000	1000	0	0	-1	550
12853835	9933	1032	0	-100	0	230	101300000	1000	0	0	-1	550
12866395	9928	1029	0	-100	0	230	101300000	1000	0	0	-1	550
12878955	9933	1036	0	-100	0	230	101300000	1000	0	0	-1	550
12891515	9936	1037	0	-100	0	230	101300000	1000	0	0	-1	550
12904075	9931	1036	0	-100	0	230	101300000	1000	0	0	-1	550
12916635	9939	1040	0	-100	0	230	101300000	1000	0	0	-1	550
12929195	9928	1032	0	-100	0	230	101300000	1000	0	0	-1	550
12941755	9931	1029	0	-100	0	230	101300000	1000	0	0	-1	550
12954315	9923	1028	0	-100	0	230	101300000	1000	0	0	-1	550
12966875	9928	1030	0	-100	0	230	101300000	1000	0	0	-1	550
12979435	9933	1031	0	-100	0	230	101300000	1000	0	0	-1	550
12991995	9933	1037	0	-100	0	230	101300000	1000	0	0	-1	550
13004555	9936	1038	0	-100	0	230	101300000	1000	0	0	-1	550
13017115	9928	1032	0	-100	0	230	101300000	1000	0	0	-1	550
13029675	9925	1028	0	-100	0	230	101300000	1000	0	0	-1	550
13042235	9925	1029	0	-100	0	230	101300000	1000	0	0	-1	550
13054795	9917	1030	0	-100	0	230	101300000	1000	0	0	-1	550
13067355	9933	1037	0	-100	0	230	101300000	1000	0	0	-1	550
13079915	9936	1036	0	-100	0	230	101300000	1000	0	0	-1	550
13092475	9931	1040	0	-100	0	230	101300000	1000	0	0	-1	550
13105035	9925	1032	0	-100	0	230	101300000	1000	0	0	-1	550
13117595	9936	1031	0	-100	0	230	101300000	1000	0	0	-1	550
13130155	9912	1028	0	-100	0	230	101300000	1000	0	0	-1	550
13142715	9928	1033	0	-100	0	230	101300000	1000	0	0	-1	550
13155275	9925	1026	0	-100	0	230	101300000	1000	0	0	-1	550
13167835	9939	1031	0	-100	0	230	101300000	1000	0	0	-1	550
13180395	9931	1030	0	-100	0	230	101300000	1000	0	0	-1	550
13192955	9936	1032	0	-100	0	230	101300000	1000	0	0	-1	550
13205515	9931	1033	0	-100	0	230	101300000	1000	0	0	-1	550
13218075	9936	1035	0	-100	0	230	101300000	1000	0	0	-1	550
13230635	9931	1038	0	-100	0	230	101300000	1000	0	0	-1	550
13243195	9923	1036	0	-100	0	230	101300000	1000	0	0	-1	550
13255755	9931	1036	0	-100	0	230	101300000	1000	0	0	-1	550
13268315	9928	1028	0	-100	0	230	101300000	1000	0	0	-1	550
13280875	9933	1030	0	-100	0	230	101300000	1000	0	0	-1	550
13293435	9925	1030	0	-100	0	230	101300000	1000	0	0	-1	550
13305995	9923	1033	0	-100	0	230	101300000	1000	0	0	-1	550
13318555	9931	1033	0	-100	0	230	101300000	1000	0	0	-1	550
13331115	9933	1033	0	-100	0	230	101300000	1000	0	0	-1	550
13343675	9936	1038	0	-100	0	230	101300000	1000	0	0	-1	550
13356235	9928	1036	0	-100	0	230	101300000	1000	0	0	-1	550
13368795	9920	1032	0	-100	0	230	101300000	1000	0	0	-1	550
13381355	9928	1034	0	-100	0	230	101300000	1000	0	0	-1	550
13393915	9931	1028	0	-100	0	230	101300000	1000	0	0	-1	550
13406475	9933	1030	0	-100	0	230	101300000	1000	0	0	-1	550
13419035	9928	1029	0	-100	0	230	101300000	1000	0	0	-1	550
13431595	9928	1030	0	-100	0	230	101300000	1000	0	0	-1	550
13444155	9920	1032	0	-100	0	230	101300000	1000	0	0	-1	550
13456715	9933	1029	0	-100	0	230	101300000	1000	0	0	-1	550
13469275	9931	1030	0	-100	0	230	101300000	1000	0	0	-1	550
13481835	9925	1029	0	-100	0	230	101300000	1000	0	0	-1	550
13494395	9933	1031	0	-100	0	230	101300000	1000	0	0	-1	550
13506955	9942	1031	0	-100	0	230	101300000	1000	0	0	-1	550
13519515	9933	1029	0	-100	0	230	101300000	1000	0	0	-1	550
13532075	9933	1035	0	-100	0	230	101300000	1000	0	0	-1	550
13544635	9939	1038	0	-100	0	230	101300000	1000	0	0	-1	550
13557195	9923	1033	0	-100	0	230	101300000	1000	0	0	-1	550
13569755	9931	1034	0	-100	0	230	101300000	1000	0	0	-1	550
13582315	9928	1029	0	-100	0	230	101300000	1000	0	0	-1	550
13594875	9931	1026	0	-100	0	230	101300000	1000	0	0	-1	550
13607435	9928	1029	0	-100	0	230	101300000	1000	0	0	-1	550
13619995	9928	1036	0	-100	0	230	101300000	1000	0	0	-1	550
13632555	9917	1026	0	-100	0	230	101300000	1000	0	0	-1	550
13645115	9936	1032	0	-100	0	230	101300000	1000	0	0	-1	550
13657675	9931	1032	0	-100	0	230	101300000	1000	0	0	-1	550
13670235	9928	1032	0	-100	0	230	101300000	1000	0	0	-1	550
13682795	9936	1038	0	-100	0	230	101300000	1000	0	0	-1	550
13695355	9933	1034	0	-100	0	230	101300000	1000	0	0	-1	550
13707915	9933	1037	0	-100	0	230	101300000	1000	0	0	-1	550
13720475	9928	1039	0	-100	0	230	101300000	1000	0	0	-1	550
13733035	9917	1035	0	-100	0	230	101300000	1000	0	0	-1	550
13745595	9939	1037	0	-100	0	230	101300000	1000	0	0	-1	550
13758155	9920	1038	0	-100	0	230	101300000	1000	0	0	-1	550
13770715	9928	1037	0	-100	0	230	101300000	1000	0	0	-1	550
13783275	9931	1038	0	-100	0	230	101300000	1000	0	0	-1	550
13795835	9931	1034	0	-100	0	230	101300000	1000	0	0	-1	550
13808395	9936	1036	0	-100	0	230	101300000	1000	0	0	-1	550
13820955	9928	1033	0	-100	0	230	101300000	1000	0	0	-1	550
13833515	9931	1037	0	-100	0	230	101300000	1000	0	0	-1	550
13846075	9928	1040	0	-100	0	230	101300000	1000	0	0	-1	550
13858635	9939	1043	0	-100	0	230	101300000	1000	0	0	-1	550
13871195	9928	1041	0	-100	0	230	101300000	1000	0	0	-1	550
13883755	9928	1028	0	-100	0	230	101300000	1000	0	0	-1	550
13896315	9912	1025	0	-100	0	230	101300000	1000	0	0	-1	550
13908875	9931	1034	0	-100	0	230	101300000	1000	0	0	-1	550
13921435	9936	1037	0	-100	0	230	101300000	1000	0	0	-1	550
13933995	9933	1030	0	-100	0	230	101300000	1000	0	0	-1	550
13946555	9925	1026	0	-100	0	230	101300000	1000	0	0	-1	550
13959115	9939	1033	0	-100	0	230	101300000	1000	0	0	-1	550
13971675	9928	1040	0	-100	0	230	101300000	1000	0	0	-1	550
13984235	9925	1038	0	-100	0	230	101300000	1000	0	0	-1	550
13996795	9933	1036	0	-100	0	230	101300000	1000	0	0	-1	550
14009355	9917	1034	0	-100	0	230	101300000	1000	0	0	-1	550
14021915	9933	1039	0	-100	0	230	101300000	1000	0	0	-1	550
14034475	9915	1049	0	-100	0	230	101300000	1000	0	0	-1	550
14047035	9925	1039	0	-100	0	230	101300000	1000	0	0	-1	550
14059595	9925	1035	0	-100	0	230	101300000	1000	0	0	-1	550
14072155	9917	1034	0	-100	0	230	101300000	1000	0	0	-1	550
14084715	9923	1038	0	-100	0	230	101300000	1000	0	0	-1	550
14097275	9917	1041	0	-100	0	230	101300000	1000	0	0	-1	550
14109835	9925	1040	0	-100	0	230	101300000	1000	0	0	-1	550
14122395	9931	1039	0	-100	0	230	101300000	1000	0	0	-1	550
14134955	9925	1035	0	-100	0	230	101300000	1000	0	0	-1	550
14147515	9928	1036	0	-100	0	230	101300000	1000	0	0	-1	550
14160075	9931	1037	0	-100	0	230	101300000	1000	0	0	-1	550
14172635	9925	1036	0	-100	0	230	101300000	1000	0	0	-1	550
14185195	9928	1035	0	-100	0	230	101300000	1000	0	0	-1	550
14197755	9925	1038	0	-100	0	230	101300000	1000	0	0	-1	550
14210315	9928	1034	0	-100	0	230	101300000	1000	0	0	-1	550
14222875	9915	1031	0	-100	0	230	101300000	1000	0	0	-1	550
14235435	9931	1037	0	-100	0	230	101300000	1000	0	0	-1	550
14247995	9928	1040	0	-100	0	230	101300000	1000	0	0	-1	550
14260555	9931	1042	0	-100	0	230	101300000	1000	0	0	-1	550
14273115	9925	1040	0	-100	0	230	101300000	1000	0	0	-1	550
14285675	9931	1034	0	-100	0	230	101300000	1000	0	0	-1	550
14298235	9925	1036	0	-100	0	230	101300000	1000	0	0	-1	550
14310795	9933	1041	0	-100	0	230	101300000	1000	0	0	-1	550
14323355	9931	1037	0	-100	0	230	101300000	1000	0	0	-1	550
14335915	9939	1043	0	-100	0	230	101300000	1000	0	0	-1	550
14348475	9925	1040	0	-100	0	230	101300000	1000	0	0	-1	550
14361035	9933	1044	0	-100	0	230	101300000	1000	0	0	-1	550
14373595	9936	1045	0	-100	0	230	101300000	1000	0	0	-1	550
14386155	9931	1044	0	-100	0	230	101300000	1000	0	0	-1	550
14398715	9928	1040	0	-100	0	230	101300000	1000	0	0	-1	550
14411275	9933	1041	0	-100	0	230	101300000	1000	0	0	-1	550
14423835	9933	1037	0	-100	0	230	101300000	1000	0	0	-1	550
14436395	9931	1036	0	-100	0	230	101300000	1000	0	0	-1	550
14448955	9915	1033	0	-100	0	230	101300000	1000	0	0	-1	550
14461515	9931	1040	0	-100	0	230	101300000	1000	0	0	-1	550
14474075	9933	1038	0	-100	0	230	101300000	1000	0	0	-1	550
14486635	9933	1036	0	-100	0	230	101300000	1000	0	0	-1	550
14499195	9925	1034	0	-100	0	230	101300000	1000	0	0	-1	550
14511755	9928	1034	0	-100	0	230	101300000	1000	0	0	-1	550
14524315	9925	1035	0	-100	0	230	101300000	1000	0	0	-1	550
14536875	9931	1037	0	-100	0	230	101300000	1000	0	0	-1	550
14549435	9931	1035	0	-100	0	230	101300000	1000	0	0	-1	550
14561995	9928	1046	0	-100	0	230	101300000	1000	0	0	-1	550
14574555	9925	1036	0	-100	0	230	101300000	1000	0	0	-1	550
14587115	9931	1038	0	-100	0	230	101300000	1000	0	0	-1	550
14599675	9931	1036	0	-100	0	230	101300000	1000	0	0	-1	550
14612235	9928	1036	0	-100	0	230	101300000	1000	0	0	-1	550
14624795	9928	1036	0	-100	0	230	101300000	1000	0	0	-1	550
14637355	9936	1033	0	-100	0	230	101300000	1000	0	0	-1	550
14649915	9931	1037	0	-100	0	230	101300000	1000	0	0	-1	550
14662475	9923	1035	0	-100	0	230	101300000	1000	0	0	-1	550
14675035	9933	1036	0	-100	0	230	101300000	1000	0	0	-1	550
14687595	9923	1033	0	-100	0	230	101300000	1000	0	0	-1	550
14700155	9931	1042	0	-100	0	230	101300000	1000	0	0	-1	550
14712715	9936	1043	0	-100	0	230	101300000	1000	0	0	-1	550
14725275	9925	1043	0	-100	0	230	101300000	1000	0	0	-1	550
14737835	9933	1043	0	-100	0	230	101300000	1000	0	0	-1	550
14750395	9912	1036	0	-100	0	230	101300000	1000	0	0	-1	550
14762955	9915	1038	0	-100	0	230	101300000	1000	0	0	-1	550
14775515	9925	1039	0	-100	0	230	101300000	1000	0	0	-1	550
14788075	9917	1039	0	-100	0	230	101300000	1000	0	0	-1	550
14800635	9925	1039	0	-100	0	230	101300000	1000	0	0	-1	550
14813195	9925	1039	0	-100	0	230	101300000	1000	0	0	-1	550
14825755	9933	1043	0	-100	0	230	101300000	1000	0	0	-1	550
14838315	9931	1044	0	-100	0	230	101300000	1000	0	0	-1	550
14850875	9928	1043	0	-100	0	230	101300000	1000	0	0	-1	550
14863435	9923	1037	0	-100	0	230	101300000	1000	0	0	-1	550
14875995	9942	1044	0	-100	0	230	101300000	1000	0	0	-1	550
14888555	9933	1043	0	-100	0	230	101300000	1000	0	0	-1	550
14901115	9931	1036	0	-100	0	230	101300000	1000	0	0	-1	550
14913675	9920	1033	0	-100	0	230	101300000	1000	0	0	-1	550
14926235	9933	1038	0	-100	0	230	101300000	1000	0	0	-1	550
14938795	9931	1038	0	-100	0	230	101300000	1000	0	0	-1	550
14951355	9928	1037	0	-100	0	230	101300000	1000	0	0	-1	550
14963915	9928	1034	0	-100	0	230	101300000	1000	0	0	-1	550
14976475	9925	1035	0	-100	0	230	101300000	1000	0	0	-1	550
14989035	9936	1037	0	-100	0	230	101300000	1000	0	0	-1	550
15001595	9931	1037	0	-100	0	230	101300000	1000	0	0	-1	550
15014155	9925	1034	0	-100	0	230	101300000	1000	0	0	-1	550
15026715	9928	1037	0	-100	0	230	101300000	1000	0	0	-1	550
15039275	9942	1039	0	-100	0	230	101300000	1000	0	0	-1	550
15051835	9928	1032	0	-100	0	230	101300000	1000	0	0	-1	550
15064395	9931	1033	0	-100	0	230	101300000	1000	0	0	-1	550
15076955	9936	1028	0	-100	0	230	101300000	1000	0	0	-1	550
15089515	9931	1027	0	-100	0	230	101300000	1000	0	0	-1	550
15102075	9933	1026	0	-100	0	230	101300000	1000	0	0	-1	550
15114635	9931	1027	0	-100	0	230	101300000	1000	0	0	-1	550
15127195	9933	1026	0	-100	0	230	101300000	1000	0	0	-1	550
15139755	9933	1030	0	-100	0	230	101300000	1000	0	0	-1	550
15152315	9933	1029	0	-100	0	230	101300000	1000	0	0	-1	550
15164875	9933	1026	0	-100	0	230	101300000	1000	0	0	-1	550
15177435	9928	1025	0	-100	0	230	101300000	1000	0	0	-1	550
15189995	9931	1032	0	-100	0	230	101300000	1000	0	0	-1	550
15202555	9933	1027	0	-100	0	230	101300000	1000	0	0	-1	550
15215115	9928	1027	0	-100	0	230	101300000	1000	0	0	-1	550
15227675	9917	1023	0	-100	0	230	101300000	1000	0	0	-1	550
15240235	9933	1028	0	-100	0	230	101300000	1000	0	0	-1	550
15252795	9925	1027	0	-100	0	230	101300000	1000	0	0	-1	550
15265355	9925	1027	0	-100	0	230	101300000	1000	0	0	-1	550
15277915	9928	1031	0	-100	0	230	101300000	1000	0	0	-1	550
15290475	9933	1035	0	-100	0	230	101300000	1000	0	0	-1	550
15303035	9928	1033	0	-100	0	230	101300000	1000	0	0	-1	550
15315595	9933	1034	0	-100	0	230	101300000	1000	0	0	-1	550
15328155	9931	1034	0	-100	0	230	101300000	1000	0	0	-1	550
15340715	9931	1035	0	-100	0	230	101300000	1000	0	0	-1	550
15353275	9923	1033	0	-100	0	230	101300000	1000	0	0	-1	550
15365835	9933	1035	0	-100	0	230	101300000	1000	0	0	-1	550
15378395	9928	1034	0	-100	0	230	101300000	1000	0	0	-1	550
15390955	9928	1034	0	-100	0	230	101300000	1000	0	0	-1	550
15403515	9933	1035	0	-100	0	230	101300000	1000	0	0	-1	550
15416075	9931	1032	0	-100	0	230	101300000	1000	0	0	-1	550
15428635	9920	1032	0	-100	0	230	101300000	1000	0	0	-1	550
15441195	9928	1031	0	-100	0	230	101300000	1000	0	0	-1	550
15453755	9931	1029	0	-100	0	230	101300000	1000	0	0	-1	550
15466315	9931	1027	0	-100	0	230	101300000	1000	0	0	-1	550
15478875	9920	1025	0	-100	0	230	101300000	1000	0	0	-1	550
15491435	9923	1025	0	-100	0	230	101300000	1000	0	0	-1	550
15503995	9933	1030	0	-100	0	230	101300000	1000	0	0	-1	550
15516555	9928	1023	0	-100	0	230	101300000	1000	0	0	-1	550
15529115	9925	1028	0	-100	0	230	101300000	1000	0	0	-1	550
15541675	9928	1023	0	-100	0	230	101300000	1000	0	0	-1	550
15554235	9931	1025	0	-100	0	230	101300000	1000	0	0	-1	550
15566795	9931	1027	0	-100	0	230	101300000	1000	0	0	-1	550
15579355	9925	1027	0	-100	0	230	101300000	1000	0	0	-1	550
15591915	9925	1023	0	-100	0	230	101300000	1000	0	0	-1	550
15604475	9933	1026	0	-100	0	230	101300000	1000	0	0	-1	550
15617035	9939	1031	0	-100	0	230	101300000	1000	0	0	-1	550
15629595	9933	1033	0	-100	0	230	101300000	1000	0	0	-1	550
15642155	9920	1032	0	-100	0	230	101300000	1000	0	0	-1	550
15654715	9933	1034	0	-100	0	230	101300000	1000	0	0	-1	550
15667275	9933	1037	0	-100	0	230	101300000	1000	0	0	-1	550
15679835	9931	1032	0	-100	0	230	101300000	1000	0	0	-1	550
15692395	9917	1030	0	-100	0	230	101300000	1000	0	0	-1	550
15704955	9942	1035	0	-100	0	230	101300000	1000	0	0	-1	550
15717515	9931	1033	0	-100	0	230	101300000	1000	0	0	-1	550
15730075	9920	1032	0	-100	0	230	101300000	1000	0	0	-1	550
15742635	9936	1035	0	-100	0	230	101300000	1000	0	0	-1	550
15755195	9928	1028	0	-100	0	230	101300000	1000	0	0	-1	550
15767755	9928	1031	0	-100	0	230	101300000	1000	0	0	-1	550
15780315	9931	1028	0	-100	0	230	101300000	1000	0	0	-1	550
15792875	9917	1022	0	-100	0	230	101300000	1000	0	0	-1	550
15805435	9933	1027	0	-100	0	230	101300000	1000	0	0	-1	550
15817995	9928	1033	0	-100	0	230	101300000	1000	0	0	-1	550
15830555	9936	1028	0	-100	0	230	101300000	1000	0	0	-1	550
15843115	9925	1030	0	-100	0	230	101300000	1000	0	0	-1	550
15855675	9931	1033	0	-100	0	230	101300000	1000	0	0	-1	550
15868235	9939	1032	0	-100	0	230	101300000	1000	0	0	-1	550
15880795	9933	1030	0	-100	0	230	101300000	1000	0	0	-1	550
15893355	9936	1032	0	-100	0	230	101300000	1000	0	0	-1	550
15905915	9933	1035	0	-100	0	230	101300000	1000	0	0	-1	550
15918475	9931	1032	0	-100	0	230	101300000	1000	0	0	-1	550
15931035	9931	1033	0	-100	0	230	101300000	1000	0	0	-1	550
15943595	9928	1028	0	-100	0	230	101300000	1000	0	0	-1	550
15956155	9925	1026	0	-100	0	230	101300000	1000	0	0	-1	550
15968715	9928	1028	0	-100	0	230	101300000	1000	0	0	-1	550
15981275	9925	1026	0	-100	0	230	101300000	1000	0	0	-1	550
15993835	9936	1027	0	-100	0	230	101300000	1000	0	0	-1	550
16006395	9931	1028	0	-100	0	230	101300000	1000	0	0	-1	550
16018955	9931	1024	0	-100	0	230	101300000	1000	0	0	-1	550
16031515	9928	1026	0	-100	0	230	101300000	1000	0	0	-1	550
16044075	9928	1026	0	-100	0	230	101300000	1000	0	0	-1	550
16056635	9920	1025	0	-100	0	230	101300000	1000	0	0	-1	550
16069195	9931	1031	0	-100	0	230	101300000	1000	0	0	-1	550
16081755	9928	1032	0	-100	0	230	101300000	1000	0	0	-1	550
16094315	9936	1032	0	-100	0	230	101300000	1000	0	0	-1	550
16106875	9939	1038	0	-100	0	230	101300000	1000	0	0	-1	550
16119435	9931	1030	0	-100	0	230	101300000	1000	0	0	-1	550
16131995	9925	1023	0	-100	0	230	101300000	1000	0	0	-1	550
16144555	9936	1028	0	-100	0	230	101300000	1000	0	0	-1	550
16157115	9933	1029	0	-100	0	230	101300000	1000	0	0	-1	550
16169675	9928	1028	0	-100	0	230	101300000	1000	0	0	-1	550
16182235	9928	1021	0	-100	0	230	101300000	1000	0	0	-1	550
16194795	9928	1028	0	-100	0	230	101300000	1000	0	0	-1	550
16207355	9933	1026	0	-100	0	230	101300000	1000	0	0	-1	550
16219915	9928	1027	0	-100	0	230	101300000	1000	0	0	-1	550
16232475	9931	1025	0	-100	0	230	101300000	1000	0	0	-1	550
16245035	9915	1022	0	-100	0	230	101300000	1000	0	0	-1	550
16257595	9939	1031	0	-100	0	230	101300000	1000	0	0	-1	550
16270155	9931	1034	0	-100	0	230	101300000	1000	0	0	-1	550
16282715	9928	1028	0	-100	0	230	101300000	1000	0	0	-1	550
16295275	9915	1024	0	-100	0	230	101300000	1000	0	0	-1	550
16307835	9936	1026	0	-100	0	230	101300000	1000	0	0	-1	550
16320395	9931	1025	0	-100	0	230	101300000	1000	0	0	-1	550
16332955	9925	1026	0	-100	0	230	101300000	1000	0	0	-1	550
16345515	9925	1024	0	-100	0	230	101300000	1000	0	0	-1	550
16358075	9917	1022	0	-100	0	230	101300000	1000	0	0	-1	550
16370635	9931	1027	0	-100	0	230	101300000	1000	0	0	-1	550
16383195	9925	1024	0	-100	0	230	101300000	1000	0	0	-1	550
16395755	9928	1025	0	-100	0	230	101300000	1000	0	0	-1	550
16408315	9939	1033	0	-100	0	230	101300000	1000	0	0	-1	550
16420875	9933	1032	0	-100	0	230	101300000	1000	0	0	-1	550
16433435	9933	1024	0	-100	0	230	101300000	1000	0	0	-1	550
16445995	9931	1029	0	-100	0	230	101300000	1000	0	0	-1	550
16458555	9936	1028	0	-100	0	230	101300000	1000	0	0	-1	550
16471115	9923	1029	0	-100	0	230	101300000	1000	0	0	-1	550
16483675	9923	1029	0	-100	0	230	101300000	1000	0	0	-1	550
16496235	9933	1033	0	-100	0	230	101300000	1000	0	0	-1	550
16508795	9925	1029	0	-100	0	230	101300000	1000	0	0	-1	550
16521355	9915	1020	0	-100	0	230	101300000	1000	0	0	-1	550
16533915	9931	1025	0	-100	0	230	101300000	1000	0	0	-1	550
16546475	9928	1027	0	-100	0	230	101300000	1000	0	0	-1	550
16559035	9933	1031	0	-100	0	230	101300000	1000	0	0	-1	550
16571595	9928	1031	0	-100	0	230	101300000	1000	0	0	-1	550
16584155	9920	1027	0	-100	0	230	101300000	1000	0	0	-1	550
16596715	9928	1023	0	-100	0	230	101300000	1000	0	0	-1	550
16609275	9933	1024	0	-100	0	230	101300000	1000	0	0	-1	550
16621835	9931	1025	0	-100	0	230	101300000	1000	0	0	-1	550
16634395	9923	1026	0	-100	0	230	101300000	1000	0	0	-1	550
16646955	9933	1034	0	-100	0	230	101300000	1000	0	0	-1	550
16659515	9925	1026	0	-100	0	230	101300000	1000	0	0	-1	550
16672075	9931	1025	0	-100	0	230	101300000	1000	0	0	-1	550
16684635	9928	1023	0	-100	0	230	101300000	1000	0	0	-1	550
16697195	9925	1023	0	-100	0	230	101300000	1000	0	0	-1	550
16709755	9931	1029	0	-100	0	230	101300000	1000	0	0	-1	550
16722315	9923	1027	0	-100	0	230	101300000	1000	0	0	-1	550
16734875	9933	1027	0	-100	0	230	101300000	1000	0	0	-1	550
16747435	9928	1025	0	-100	0	230	101300000	1000	0	0	-1	550
16759995	9933	1030	0	-100	0	230	101300000	1000	0	0	-1	550
16772555	9923	1024	0	-100	0	230	101300000	1000	0	0	-1	550
16785115	9928	1023	0	-100	0	230	101300000	1000	0	0	-1	550
16797675	9936	1026	0	-100	0	230	101300000	1000	0	0	-1	550
16810235	9931	1029	0	-100	0	230	101300000	1000	0	0	-1	550
16822795	9925	1029	0	-100	0	230	101300000	1000	0	0	-1	550
16835355	9936	1032	0	-100	0	230	101300000	1000	0	0	-1	550
16847915	9931	1033	0	-100	0	230	101300000	1000	0	0	-1	550
16860475	9925	1031	0	-100	0	230	101300000	1000	0	0	-1	550
16873035	9928	1028	0	-100	0	230	101300000	1000	0	0	-1	550
16885595	9923	1029	0	-100	0	230	101300000	1000	0	0	-1	550
16898155	9923	1028	0	-100	0	230	101300000	1000	0	0	-1	550
16910715	9933	1028	0	-100	0	230	101300000	1000	0	0	-1	550
16923275	9928	1025	0	-100	0	230	101300000	1000	0	0	-1	550
16935835	9933	1024	0	-100	0	230	101300000	1000	0	0	-1	550
16948395	9936	1028	0	-100	0	230	101300000	1000	0	0	-1	550
16960955	9928	1023	0	-100	0	230	101300000	1000	0	0	-1	550
16973515	9931	1025	0	-100	0	230	101300000	1000	0	0	-1	550
16986075	9931	1026	0	-100	0	230	101300000	1000	0	0	-1	550
16998635	9925	1021	0	-100	0	230	101300000	1000	0	0	-1	550
17011195	9933	1025	0	-100	0	230	101300000	1000	0	0	-1	550
17023755	9931	1027	0	-100	0	230	101300000	1000	0	0	-1	550
17036315	9925	1022	0	-100	0	230	101300000	1000	0	0	-1	550
17048875	9928	1029	0	-100	0	230	101300000	1000	0	0	-1	550
17061435	9928	1029	0	-100	0	230	101300000	1000	0	0	-1	550
17073995	9939	1024	0	-100	0	230	101300000	1000	0	0	-1	550
17086555	9931	1033	0	-100	0	230	101300000	1000	0	0	-1	550
17099115	9917	1028	0	-100	0	230	101300000	1000	0	0	-1	550
17111675	9933	1035	0	-100	0	230	101300000	1000	0	0	-1	550
17124235	9931	1031	0	-100	0	230	101300000	1000	0	0	-1	550
17136795	9933	1030	0	-100	0	230	101300000	1000	0	0	-1	550
17149355	9928	1024	0	-100	0	230	101300000	1000	0	0	-1	550
17161915	9928	1022	0	-100	0	230	101300000	1000	0	0	-1	550
17174475	9928	1024	0	-100	0	230	101300000	1000	0	0	-1	550
17187035	9931	1022	0	-100	0	230	101300000	1000	0	0	-1	550
17199595	9936	1028	0	-100	0	230	101300000	1000	0	0	-1	550
17212155	9931	1030	0	-100	0	230	101300000	1000	0	0	-1	550
17224715	9933	1031	0	-100	0	230	101300000	1000	0	0	-1	550
17237275	9928	1030	0	-100	0	230	101300000	1000	0	0	-1	550
17249835	9933	1029	0	-100	0	230	101300000	1000	0	0	-1	550
17262395	9923	1028	0	-100	0	230	101300000	1000	0	0	-1	550
17274955	9917	1020	0	-100	0	230	101300000	1000	0	0	-1	550
17287515	9936	1024	0	-100	0	230	101300000	1000	0	0	-1	550
17300075	9923	1021	0	-100	0	230	101300000	1000	0	0	-1	550
17312635	9936	1025	0	-100	0	230	101300000	1000	0	0	-1	550
17325195	9933	1032	0	-100	0	230	101300000	1000	0	0	-1	550
17337755	9915	1029	0	-100	0	230	101300000	1000	0	0	-1	550
17350315	9931	1029	0	-100	0	230	101300000	1000	0	0	-1	550
17362875	9925	1023	0	-100	0	230	101300000	1000	0	0	-1	550
17375435	9925	1023	0	-100	0	230	101300000	1000	0	0	-1	550
17387995	9933	1027	0	-100	0	230	101300000	1000	0	0	-1	550
17400555	9925	1025	0	-100	0	230	101300000	1000	0	0	-1	550
17413115	9928	1022	0	-100	0	230	101300000	1000	0	0	-1	550
17425675	9928	1023	0	-100	0	230	101300000	1000	0	0	-1	550
17438235	9928	1020	0	-100	0	230	101300000	1000	0	0	-1	550
17450795	9936	1025	0	-100	0	230	101300000	1000	0	0	-1	550
17463355	9928	1026	0	-100	0	230	101300000	1000	0	0	-1	550
17475915	9917	1022	0	-100	0	230	101300000	1000	0	0	-1	550
17488475	9931	1029	0	-100	0	230	101300000	1000	0	0	-1	550
17501035	9933	1029	0	-100	0	230	101300000	1000	0	0	-1	550
17513595	9931	1029	0	-100	0	230	101300000	1000	0	0	-1	550
17526155	9920	1033	0	-100	0	230	101300000	1000	0	0	-1	550
17538715	9912	1026	0	-100	0	230	101300000	1000	0	0	-1	550
17551275	9936	1025	0	-100	0	230	101300000	1000	0	0	-1	550
17563835	9928	1023	0	-100	0	230	101300000	1000	0	0	-1	550
17576395	9936	1025	0	-100	0	230	101300000	1000	0	0	-1	550
17588955	9925	1022	0	-100	0	230	101300000	1000	0	0	-1	550
17601515	9917	1020	0	-100	0	230	101300000	1000	0	0	-1	550
17614075	9936	1025	0	-100	0	230	101300000	1000	0	0	-1	550
17626635	9931	1023	0	-100	0	230	101300000	1000	0	0	-1	550
17639195	9933	1027	0	-100	0	230	101300000	1000	0	0	-1	550
17651755	9933	1029	0	-100	0	230	101300000	1000	0	0	-1	550
17664315	9928	1032	0	-100	0	230	101300000	1000	0	0	-1	550
17676875	9923	1029	0	-100	0	230	101300000	1000	0	0	-1	550
17689435	9931	1028	0	-100	0	230	101300000	1000	0	0	-1	550
17701995	9928	1025	0	-100	0	230	101300000	1000	0	0	-1	550
17714555	9925	1020	0	-100	0	230	101300000	1000	0	0	-1	550
17727115	9939	1029	0	-100	0	230	101300000	1000	0	0	-1	550
17739675	9936	1032	0	-100	0	230	101300000	1000	0	0	-1	550
17752235	9931	1029	0	-100	0	230	101300000	1000	0	0	-1	550
17764795	9928	1029	0	-100	0	230	101300000	1000	0	0	-1	550
17777355	9925	1029	0	-100	0	230	101300000	1000	0	0	-1	550
17789915	9931	1022	0	-100	0	230	101300000	1000	0	0	-1	550
17802475	9928	1023	0	-100	0	230	101300000	1000	0	0	-1	550
17815035	9925	1026	0	-100	0	230	101300000	1000	0	0	-1	550
17827595	9920	1021	0	-100	0	230	101300000	1000	0	0	-1	550
17840155	9928	1026	0	-100	0	230	101300000	1000	0	0	-1	550
17852715	9928	1021	0	-100	0	230	101300000	1000	0	0	-1	550
17865275	9920	1022	0	-100	0	230	101300000	1000	0	0	-1	550
17877835	9939	1025	0	-100	0	230	101300000	1000	0	0	-1	550
17890395	9931	1025	0	-100	0	230	101300000	1000	0	0	-1	550
17902955	9933	1022	0	-100	0	230	101300000	1000	0	0	-1	550
17915515	9933	1025	0	-100	0	230	101300000	1000	0	0	-1	550
17928075	9933	1027	0	-100	0	230	101300000	1000	0	0	-1	550
17940635	9939	1030	0	-100	0	230	101300000	1000	0	0	-1	550
17953195	9931	1029	0	-100	0	230	101300000	1000	0	0	-1	550
17965755	9928	1030	0	-100	0	230	101300000	1000	0	0	-1	550
17978315	9931	1029	0	-100	0	230	101300000	1000	0	0	-1	550
17990875	9933	1029	0	-100	0	230	101300000	1000	0	0	-1	550
18003435	9928	1024	0	-100	0	230	101300000	1000	0	0	-1	550
18015995	9925	1026	0	-100	0	230	101300000	1000	0	0	-1	550
18028555	9928	1023	0	-100	0	230	101300000	1000	0	0	-1	550
18041115	9933	1022	0	-100	0	230	101300000	1000	0	0	-1	550
18053675	9931	1025	0	-100	0	230	101300000	1000	0	0	-1	550
18066235	9923	1026	0	-100	0	230	101300000	1000	0	0	-1	550
18078795	9931	1027	0	-100	0	230	101300000	1000	0	0	-1	550
18091355	9933	1024	0	-100	0	230	101300000	1000	0	0	-1	550
18103915	9928	1022	0	-100	0	230	101300000	1000	0	0	-1	550
18116475	9917	1025	0	-100	0	230	101300000	1000	0	0	-1	550
18129035	9936	1025	0	-100	0	230	101300000	1000	0	0	-1	550
18141595	9928	1025	0	-100	0	230	101300000	1000	0	0	-1	550
18154155	9915	1029	0	-100	0	230	101300000	1000	0	0	-1	550
18166715	9933	1030	0	-100	0	230	101300000	1000	0	0	-1	550
18179275	9928	1025	0	-100	0	230	101300000	1000	0	0	-1	550
18191835	9925	1025	0	-100	0	230	101300000	1000	0	0	-1	550
18204395	9931	1032	0	-100	0	230	101300000	1000	0	0	-1	550
18216955	9923	1031	0	-100	0	230	101300000	1000	0	0	-1	550
18229515	9925	1022	0	-100	0	230	101300000	1000	0	0	-1	550
18242075	9925	1021	0	-100	0	230	101300000	1000	0	0	-1	550
18254635	9928	1027	0	-100	0	230	101300000	1000	0	0	-1	550
18267195	9920	1024	0	-100	0	230	101300000	1000	0	0	-1	550
18279755	9933	1031	0	-100	0	230	101300000	1000	0	0	-1	550
18292315	9925	1028	0	-100	0	230	101300000	1000	0	0	-1	550
18304875	9925	1020	0	-100	0	230	101300000	1000	0	0	-1	550
18317435	9933	1030	0	-100	0	230	101300000	1000	0	0	-1	550
18329995	9923	1023	0	-100	0	230	101300000	1000	0	0	-1	550
18342555	9917	1022	0	-100	0	230	101300000	1000	0	0	-1	550
18355115	9933	1028	0	-100	0	230	101300000	1000	0	0	-1	550
18367675	9928	1029	0	-100	0	230	101300000	1000	0	0	-1	550
18380235	9928	1026	0	-100	0	230	101300000	1000	0	0	-1	550
18392795	9933	1023	0	-100	0	230	101300000	1000	0	0	-1	550
18405355	9928	1022	0	-100	0	230	101300000	1000	0	0	-1	550
18417915	9928	1025	0	-100	0	230	101300000	1000	0	0	-1	550
18430475	9931	1023	0	-100	0	230	101300000	1000	0	0	-1	550
18443035	9923	1024	0	-100	0	230	101300000	1000	0	0	-1	550
18455595	9933	1030	0	-100	0	230	101300000	1000	0	0	-1	550
18468155	9917	1030	0	-100	0	230	101300000	1000	0	0	-1	550
18480715	9933	1023	0	-100	0	230	101300000	1000	0	0	-1	550
18493275	9925	1024	0	-100	0	230	101300000	1000	0	0	-1	550
18505835	9936	1023	0	-100	0	230	101300000	1000	0	0	-1	550
18518395	9931	1029	0	-100	0	230	101300000	1000	0	0	-1	550
18530955	9933	1034	0	-100	0	230	101300000	1000	0	0	-1	550
18543515	9931	1024	0	-100	0	230	101300000	1000	0	0	-1	550
18556075	9928	1022	0	-100	0	230	101300000	1000	0	0	-1	550
18568635	9925	1023	0	-100	0	230	101300000	1000	0	0	-1	550
18581195	9936	1027	0	-100	0	230	101300000	1000	0	0	-1	550
18593755	9923	1025	0	-100	0	230	101300000	1000	0	0	-1	550
18606315	9931	1029	0	-100	0	230	101300000	1000	0	0	-1	550
18618875	9915	1020	0	-100	0	230	101300000	1000	0	0	-1	550
18631435	9920	1024	0	-100	0	230	101300000	1000	0	0	-1	550
18643995	9933	1030	0	-100	0	230	101300000	1000	0	0	-1	550
18656555	9931	1027	0	-100	0	230	101300000	1000	0	0	-1	550
18669115	9933	1032	0	-100	0	230	101300000	1000	0	0	-1	550
18681675	9936	1030	0	-100	0	230	101300000	1000	0	0	-1	550
18694235	9933	1032	0	-100	0	230	101300000	1000	0	0	-1	550
18706795	9928	1033	0	-100	0	230	101300000	1000	0	0	-1	550
18719355	9920	1030	0	-100	0	230	101300000	1000	0	0	-1	550
18731915	9928	1034	0	-100	0	230	101300000	1000	0	0	-1	550
18744475	9925	1030	0	-100	0	230	101300000	1000	0	0	-1	550
18757035	9928	1032	0	-100	0	230	101300000	1000	0	0	-1	550
18769595	9928	1027	0	-100	0	230	101300000	1000	0	0	-1	550
18782155	9920	1029	0	-100	0	230	101300000	1000	0	0	-1	550
18794715	9928	1020	0	-100	0	230	101300000	1000	0	0	-1	550
18807275	9936	1023	0	-100	0	230	101300000	1000	0	0	-1	550
18819835	9928	1023	0	-100	0	230	101300000	1000	0	0	-1	550
18832395	9936	1025	0	-100	0	230	101300000	1000	0	0	-1	550
18844955	9925	1021	0	-100	0	230	101300000	1000	0	0	-1	550
18857515	9936	1023	0	-100	0	230	101300000	1000	0	0	-1	550
18870075	9917	1020	0	-100	0	230	101300000	1000	0	0	-1	550
18882635	9931	1020	0	-100	0	230	101300000	1000	0	0	-1	550
18895195	9928	1024	0	-100	0	230	101300000	1000	0	0	-1	550
18907755	9931	1026	0	-100	0	230	101300000	1000	0	0	-1	550
18920315	9933	1026	0	-100	0	230	101300000	1000	0	0	-1	550
18932875	9939	1030	0	-100	0	230	101300000	1000	0	0	-1	550
18945435	9936	1032	0	-100	0	230	101300000	1000	0	0	-1	550
18957995	9928	1020	0	-100	0	230	101300000	1000	0	0	-1	550
18970555	9928	1022	0	-100	0	230	101300000	1000	0	0	-1	550
18983115	9912	1022	0	-100	0	230	101300000	1000	0	0	-1	550
18995675	9933	1030	0	-100	0	230	101300000	1000	0	0	-1	550
19008235	9928	1029	0	-100	0	230	101300000	1000	0	0	-1	550
19020795	9931	1024	0	-100	0	230	101300000	1000	0	0	-1	550
19033355	9925	1022	0	-100	0	230	101300000	1000	0	0	-1	550
19045915	9931	1029	0	-100	0	230	101300000	1000	0	0	-1	550
19058475	9933	1027	0	-100	0	230	101300000	1000	0	0	-1	550
19071035	9928	1023	0	-100	0	230	101300000	1000	0	0	-1	550
19083595	9923	1022	0	-100	0	230	101300000	1000	0	0	-1	550
19096155	9925	1034	0	-100	0	230	101300000	1000	0	0	-1	550
19108715	9928	1023	0	-100	0	230	101300000	1000	0	0	-1	550
19121275	9933	1022	0	-100	0	230	101300000	1000	0	0	-1	550
19133835	9936	1030	0	-100	0	230	101300000	1000	0	0	-1	550
19146395	9928	1031	0	-100	0	230	101300000	1000	0	0	-1	550
19158955	9925	1020	0	-100	0	230	101300000	1000	0	0	-1	550
19171515	9928	1023	0	-100	0	230	101300000	1000	0	0	-1	550
19184075	9936	1033	0	-100	0	230	101300000	1000	0	0	-1	550
19196635	9928	1028	0	-100	0	230	101300000	1000	0	0	-1	550
19209195	9928	1023	0	-100	0	230	101300000	1000	0	0	-1	550
19221755	9936	1025	0	-100	0	230	101300000	1000	0	0	-1	550
19234315	9931	1029	0	-100	0	230	101300000	1000	0	0	-1	550
19246875	9925	1026	0	-100	0	230	101300000	1000	0	0	-1	550
19259435	9925	1022	0	-100	0	230	101300000	1000	0	0	-1	550
19271995	9928	1024	0	-100	0	230	101300000	1000	0	0	-1	550
19284555	9928	1024	0	-100	0	230	101300000	1000	0	0	-1	550
19297115	9933	1027	0	-100	0	230	101300000	1000	0	0	-1	550
19309675	9931	1029	0	-100	0	230	101300000	1000	0	0	-1	550
19322235	9925	1029	0	-100	0	230	101300000	1000	0	0	-1	550
19334795	9928	1025	0	-100	0	230	101300000	1000	0	0	-1	550
19347355	9925	1020	0	-100	0	230	101300000	1000	0	0	-1	550
19359915	9939	1028	0	-100	0	230	101300000	1000	0	0	-1	550
19372475	9933	1031	0	-100	0	230	101300000	1000	0	0	-1	550
19385035	9917	1026	0	-100	0	230	101300000	1000	0	0	-1	550
19397595	9931	1025	0	-100	0	230	101300000	1000	0	0	-1	550
19410155	9923	1025	0	-100	0	230	101300000	1000	0	0	-1	550
19422715	9909	1018	0	-100	0	230	101300000	1000	0	0	-1	550
19435275	9936	1025	0	-100	0	230	101300000	1000	0	0	-1	550
19447835	9931	1027	0	-100	0	230	101300000	1000	0	0	-1	550
19460395	9933	1030	0	-100	0	230	101300000	1000	0	0	-1	550
19472955	9925	1029	0	-100	0	230	101300000	1000	0	0	-1	550
19485515	9931	1025	0	-100	0	230	101300000	1000	0	0	-1	550
19498075	9931	1023	0	-100	0	230	101300000	1000	0	0	-1	550
19510635	9928	1022	0	-100	0	230	101300000	1000	0	0	-1	550
19523195	9928	1023	0	-100	0	230	101300000	1000	0	0	-1	550
19535755	9928	1027	0	-100	0	230	101300000	1000	0	0	-1	550
19548315	9936	1032	0	-100	0	230	101300000	1000	0	0	-1	550
19560875	9931	1025	0	-100	0	230	101300000	1000	0	0	-1	550
19573435	9928	1022	0	-100	0	230	101300000	1000	0	0	-1	550
19585995	9933	1031	0	-100	0	230	101300000	1000	0	0	-1	550
19598555	9931	1029	0	-100	0	230	101300000	1000	0	0	-1	550
19611115	9931	1025	0	-100	0	230	101300000	1000	0	0	-1	550
19623675	9931	1026	0	-100	0	230	101300000	1000	0	0	-1	550
19636235	9931	1025	0	-100	0	230	101300000	1000	0	0	-1	550
19648795	9933	1023	0	-100	0	230	101300000	1000	0	0	-1	550
19661355	9928	1023	0	-100	0	230	101300000	1000	0	0	-1	550
19673915	9923	1020	0	-100	0	230	101300000	1000	0	0	-1	550
19686475	9933	1031	0	-100	0	230	101300000	1000	0	0	-1	550
19699035	9925	1025	0	-100	0	230	101300000	1000	0	0	-1	550
19711595	9928	1020	0	-100	0	230	101300000	1000	0	0	-1	550
19724155	9920	1028	0	-100	0	230	101300000	1000	0	0	-1	550
19736715	9936	1033	0	-100	0	230	101300000	1000	0	0	-1	550
19749275	9923	1026	0	-100	0	230	101300000	1000	0	0	-1	550
19761835	9915	1019	0	-100	0	230	101300000	1000	0	0	-1	550
19774395	9931	1023	0	-100	0	230	101300000	1000	0	0	-1	550
19786955	9931	1022	0	-100	0	230	101300000	1000	0	0	-1	550
19799515	9915	1022	0	-100	0	230	101300000	1000	0	0	-1	550
19812075	9931	1021	0	-100	0	230	101300000	1000	0	0	-1	550
19824635	9925	1020	0	-100	0	230	101300000	1000	0	0	-1	550
19837195	9928	1022	0	-100	0	230	101300000	1000	0	0	-1	550
19849755	9928	1022	0	-100	0	230	101300000	1000	0	0	-1	550
19862315	9925	1026	0	-100	0	230	101300000	1000	0	0	-1	550
19874875	9923	1019	0	-100	0	230	101300000	1000	0	0	-1	550
19887435	9933	1025	0	-100	0	230	101300000	1000	0	0	-1	550
19899995	9936	1036	0	-100	0	230	101300000	1000	0	0	-1	550
19912555	9923	1033	0	-100	0	230	101300000	1000	0	0	-1	550
19925115	9928	974	0	-100	0	230	101300000	1000	0	0	-1	550
19937675	9923	958	0	-100	0	230	101300000	1000	0	0	-1	550
19950235	9931	981	0	-100	0	230	101300000	1000	0	0	-1	550
19962795	9829	1002	0	-100	0	230	101300000	1000	0	0	-1	550
19975355	9822	995	0	-100	0	230	101300000	1000	0	0	-1	550
19987915	9923	1008	0	-100	0	230	101300000	1000	0	0	-1	550
20000475	9925	995	0	-100	0	230	101300000	1000	0	0	-1	550
20013035	9931	1012	0	-100	0	230	101300000	1000	0	0	-1	550
20025595	9939	1033	0	-100	0	230	101300000	1000	0	0	-1	550
20038155	9923	998	0	-100	0	230	101300000	1000	0	0	-1	550
20050715	9931	966	0	-100	0	230	101300000	1000	0	0	-1	550
20063275	9928	948	0	-100	0	230	101300000	1000	0	0	-1	550
20075835	9928	952	0	-100	0	230	101300000	1000	0	0	-1	550
20088395	9931	961	0	-100	0	230	101300000	1000	0	0	-1	550
20100955	9933	986	0	-100	0	230	101300000	1000	0	0	-1	550
20113515	9931	978	0	-100	0	230	101300000	1000	0	0	-1	550
20126075	9925	963	0	-100	0	230	101300000	1000	0	0	-1	550
20138635	9931	957	0	-100	0	230	101300000	1000	0	0	-1	550
20151195	9912	954	0	-100	0	230	101300000	1000	0	0	-1	550
20163755	9933	955	0	-100	0	230	101300000	1000	0	0	-1	550
20176315	9915	949	0	-100	0	230	101300000	1000	0	0	-1	550
20188875	9931	955	0	-100	0	230	101300000	1000	0	0	-1	550
20201435	9925	956	0	-100	0	230	101300000	1000	0	0	-1	550
20213995	9925	952	0	-100	0	230	101300000	1000	0	0	-1	550
20226555	9923	949	0	-100	0	230	101300000	1000	0	0	-1	550
20239115	9933	950	0	-100	0	230	101300000	1000	0	0	-1	550
20251675	9931	953	0	-100	0	230	101300000	1000	0	0	-1	550
20264235	9931	956	0	-100	0	230	101300000	1000	0	0	-1	550
20276795	9931	955	0	-100	0	230	101300000	1000	0	0	-1	550
20289355	9936	951	0	-100	0	230	101300000	1000	0	0	-1	550
20301915	9931	949	0	-100	0	230	101300000	1000	0	0	-1	550
20314475	9928	952	0	-100	0	230	101300000	1000	0	0	-1	550
20327035	9939	955	0	-100	0	230	101300000	1000	0	0	-1	550
20339595	9931	953	0	-100	0	230	101300000	1000	0	0	-1	550
20352155	9928	951	0	-100	0	230	101300000	1000	0	0	-1	550
20364715	9928	948	0	-100	0	230	101300000	1000	0	0	-1	550
20377275	9928	952	0	-100	0	230	101300000	1000	0	0	-1	550
20389835	9933	955	0	-100	0	230	101300000	1000	0	0	-1	550
20402395	9925	950	0	-100	0	230	101300000	1000	0	0	-1	550
20414955	9931	950	0	-100	0	230	101300000	1000	0	0	-1	550
20427515	9925	948	0	-100	0	230	101300000	1000	0	0	-1	550
20440075	9933	953	0	-100	0	230	101300000	1000	0	0	-1	550
20452635	9928	958	0	-100	0	230	101300000	1000	0	0	-1	550
20465195	9920	953	0	-100	0	230	101300000	1000	0	0	-1	550
20477755	9933	949	0	-100	0	230	101300000	1000	0	0	-1	550
20490315	9933	946	0	-100	0	230	101300000	1000	0	0	-1	550
20502875	9915	945	0	-100	0	230	101300000	1000	0	0	-1	550
20515435	9925	950	0	-100	0	230	101300000	1000	0	0	-1	550
20527995	9931	947	0	-100	0	230	101300000	1000	0	0	-1	550
20540555	9917	953	0	-100	0	230	101300000	1000	0	0	-1	550
20553115	9931	949	0	-100	0	230	101300000	1000	0	0	-1	550
20565675	9936	951	0	-100	0	230	101300000	1000	0	0	-1	550
20578235	9912	946	0	-100	0	230	101300000	1000	0	0	-1	550
20590795	9936	951	0	-100	0	230	101300000	1000	0	0	-1	550
20603355	9920	950	0	-100	0	230	101300000	1000	0	0	-1	550
20615915	9923	954	0	-100	0	230	101300000	1000	0	0	-1	550
20628475	9925	947	0	-100	0	230	101300000	1000	0	0	-1	550
20641035	9928	950	0	-100	0	230	101300000	1000	0	0	-1	550
20653595	9928	948	0	-100	0	230	101300000	1000	0	0	-1	550
20666155	9923	946	0	-100	0	230	101300000	1000	0	0	-1	550
20678715	9928	952	0	-100	0	230	101300000	1000	0	0	-1	550
20691275	9931	955	0	-100	0	230	101300000	1000	0	0	-1	550
20703835	9933	950	0	-100	0	230	101300000	1000	0	0	-1	550
20716395	9931	945	0	-100	0	230	101300000	1000	0	0	-1	550
20728955	9931	949	0	-100	0	230	101300000	1000	0	0	-1	550
20741515	9928	947	0	-100	0	230	101300000	1000	0	0	-1	550
20754075	9923	948	0	-100	0	230	101300000	1000	0	0	-1	550
20766635	9928	948	0	-100	0	230	101300000	1000	0	0	-1	550
20779195	9931	953	0	-100	0	230	101300000	1000	0	0	-1	550
20791755	9931	954	0	-100	0	230	101300000	1000	0	0	-1	550
20804315	9936	949	0	-100	0	230	101300000	1000	0	0	-1	550
20816875	9933	950	0	-100	0	230	101300000	1000	0	0	-1	550
20829435	9925	947	0	-100	0	230	101300000	1000	0	0	-1	550
20841995	9917	945	0	-100	0	230	101300000	1000	0	0	-1	550
20854555	9925	951	0	-100	0	230	101300000	1000	0	0	-1	550
20867115	9925	951	0	-100	0	230	101300000	1000	0	0	-1	550
20879675	9933	949	0	-100	0	230	101300000	1000	0	0	-1	550
20892235	9915	945	0	-100	0	230	101300000	1000	0	0	-1	550
20904795	9915	946	0	-100	0	230	101300000	1000	0	0	-1	550
20917355	9933	948	0	-100	0	230	101300000	1000	0	0	-1	550
20929915	9931	953	0	-100	0	230	101300000	1000	0	0	-1	550
20942475	9933	955	0	-100	0	230	101300000	1000	0	0	-1	550
20955035	9925	948	0	-100	0	230	101300000	1000	0	0	-1	550
20967595	9931	944	0	-100	0	230	101300000	1000	0	0	-1	550
20980155	9925	950	0	-100	0	230	101300000	1000	0	0	-1	550
20992715	9928	946	0	-100	0	230	101300000	1000	0	0	-1	550
21005275	9915	948	0	-100	0	230	101300000	1000	0	0	-1	550
21017835	9933	953	0	-100	0	230	101300000	1000	0	0	-1	550
21030395	9923	950	0	-100	0	230	101300000	1000	0	0	-1	550
21042955	9925	946	0	-100	0	230	101300000	1000	0	0	-1	550
21055515	9931	945	0	-100	0	230	101300000	1000	0	0	-1	550
21068075	9931	947	0	-100	0	230	101300000	1000	0	0	-1	550
21080635	9923	945	0	-100	0	230	101300000	1000	0	0	-1	550
21093195	9936	951	0	-100	0	230	101300000	1000	0	0	-1	550
21105755	9933	953	0	-100	0	230	101300000	1000	0	0	-1	550
21118315	9933	950	0	-100	0	230	101300000	1000	0	0	-1	550
21130875	9928	945	0	-100	0	230	101300000	1000	0	0	-1	550
21143435	9933	947	0	-100	0	230	101300000	1000	0	0	-1	550
21155995	9923	946	0	-100	0	230	101300000	1000	0	0	-1	550
21168555	9928	951	0	-100	0	230	101300000	1000	0	0	-1	550
21181115	9931	956	0	-100	0	230	101300000	1000	0	0	-1	550
21193675	9915	951	0	-100	0	230	101300000	1000	0	0	-1	550
21206235	9939	949	0	-100	0	230	101300000	1000	0	0	-1	550
21218795	9936	945	0	-100	0	230	101300000	1000	0	0	-1	550
21231355	9928	945	0	-100	0	230	101300000	1000	0	0	-1	550
21243915	9928	948	0	-100	0	230	101300000	1000	0	0	-1	550
21256475	9933	954	0	-100	0	230	101300000	1000	0	0	-1	550
21269035	9928	954	0	-100	0	230	101300000	1000	0	0	-1	550
21281595	9931	952	0	-100	0	230	101300000	1000	0	0	-1	550
21294155	9923	946	0	-100	0	230	101300000	1000	0	0	-1	550
21306715	9917	943	0	-100	0	230	101300000	1000	0	0	-1	550
21319275	9928	947	0	-100	0	230	101300000	1000	0	0	-1	550
21331835	9920	952	0	-100	0	230	101300000	1000	0	0	-1	550
21344395	9931	949	0	-100	0	230	101300000	1000	0	0	-1	550
21356955	9925	945	0	-100	0	230	101300000	1000	0	0	-1	550
21369515	9925	945	0	-100	0	230	101300000	1000	0	0	-1	550
21382075	9933	954	0	-100	0	230	101300000	1000	0	0	-1	550
21394635	9936	946	0	-100	0	230	101300000	1000	0	0	-1	550
21407195	9923	941	0	-100	0	230	101300000	1000	0	0	-1	550
21419755	9920	944	0	-100	0	230	101300000	1000	0	0	-1	550
21432315	9931	953	0	-100	0	230	101300000	1000	0	0	-1	550
21444875	9933	949	0	-100	0	230	101300000	1000	0	0	-1	550
21457435	9925	946	0	-100	0	230	101300000	1000	0	0	-1	550
21469995	9933	949	0	-100	0	230	101300000	1000	0	0	-1	550
21482555	9860	982	0	-100	0	230	101300000	1000	0	0	-1	550
21495115	9928	1011	0	-100	0	230	101300000	1000	0	0	-1	550
21507675	9933	1029	0	-100	0	230	101300000	1000	0	0	-1	550
21520235	9936	1042	0	-100	0	230	101300000	1000	0	0	-1	550
21532795	9939	1040	0	-100	0	230	101300000	1000	0	0	-1	550
21545355	9931	1035	0	-100	0	230	101300000	1000	0	0	-1	550
21557915	9931	1039	0	-100	0	230	101300000	1000	0	0	-1	550
21570475	9923	1037	0	-100	0	230	101300000	1000	0	0	-1	550
21583035	9931	1036	0	-100	0	230	101300000	1000	0	0	-1	550
21595595	9925	1037	0	-100	0	230	101300000	1000	0	0	-1	550
21608155	9925	1041	0	-100	0	230	101300000	1000	0	0	-1	550
21620715	9936	1041	0	-100	0	230	101300000	1000	0	0	-1	550
21633275	9936	1038	0	-100	0	230	101300000	1000	0	0	-1	550
21645835	9928	1039	0	-100	0	230	101300000	1000	0	0	-1	550
21658395	9931	1036	0	-100	0	230	101300000	1000	0	0	-1	550
21670955	9928	1035	0	-100	0	230	101300000	1000	0	0	-1	550
21683515	9920	1033	0	-100	0	230	101300000	1000	0	0	-1	550
21696075	9933	1032	0	-100	0	230	101300000	1000	0	0	-1	550
21708635	9936	1035	0	-100	0	230	101300000	1000	0	0	-1	550
21721195	9939	1036	0	-100	0	230	101300000	1000	0	0	-1	550
21733755	9933	1037	0	-100	0	230	101300000	1000	0	0	-1	550
21746315	9931	1036	0	-100	0	230	101300000	1000	0	0	-1	550
21758875	9931	1035	0	-100	0	230	101300000	1000	0	0	-1	550
21771435	9920	1032	0	-100	0	230	101300000	1000	0	0	-1	550
21783995	9928	1038	0	-100	0	230	101300000	1000	0	0	-1	550
21796555	9931	1033	0	-100	0	230	101300000	1000	0	0	-1	550
21809115	9933	1035	0	-100	0	230	101300000	1000	0	0	-1	550
21821675	9933	1034	0	-100	0	230	101300000	1000	0	0	-1	550
21834235	9931	1035	0	-100	0	230	101300000	1000	0	0	-1	550
21846795	9933	1035	0	-100	0	230	101300000	1000	0	0	-1	550
21859355	9928	1037	0	-100	0	230	101300000	1000	0	0	-1	550
21871915	9939	1042	0	-100	0	230	101300000	1000	0	0	-1	550
21884475	9933	1042	0	-100	0	230	101300000	1000	0	0	-1	550
21897035	9931	1042	0	-100	0	230	101300000	1000	0	0	-1	550
21909595	9928	1040	0	-100	0	230	101300000	1000	0	0	-1	550
21922155	9928	1037	0	-100	0	230	101300000	1000	0	0	-1	550
21934715	9931	1035	0	-100	0	230	101300000	1000	0	0	-1	550
21947275	9923	1037	0	-100	0	230	101300000	1000	0	0	-1	550
21959835	9920	1036	0	-100	0	230	101300000	1000	0	0	-1	550
21972395	9928	1039	0	-100	0	230	101300000	1000	0	0	-1	550
21984955	9928	1036	0	-100	0	230	101300000	1000	0	0	-1	550
21997515	9928	1039	0	-100	0	230	101300000	1000	0	0	-1	550
22010075	9928	1038	0	-100	0	230	101300000	1000	0	0	-1	550
22022635	9936	1038	0	-100	0	230	101300000	1000	0	0	-1	550
22035195	9925	1039	0	-100	0	230	101300000	1000	0	0	-1	550
22047755	9923	1037	0	-100	0	230	101300000	1000	0	0	-1	550
22060315	9931	1036	0	-100	0	230	101300000	1000	0	0	-1	550
22072875	9915	1033	0	-100	0	230	101300000	1000	0	0	-1	550
22085435	9933	1038	0	-100	0	230	101300000	1000	0	0	-1	550
22097995	9925	1029	0	-100	0	230	101300000	1000	0	0	-1	550
22110555	9933	1033	0	-100	0	230	101300000	1000	0	0	-1	550
22123115	9917	1033	0	-100	0	230	101300000	1000	0	0	-1	550
22135675	9933	1037	0	-100	0	230	101300000	1000	0	0	-1	550
22148235	9928	1039	0	-100	0	230	101300000	1000	0	0	-1	550
22160795	9933	1035	0	-100	0	230	101300000	1000	0	0	-1	550
22173355	9923	1033	0	-100	0	230	101300000	1000	0	0	-1	550
22185915	9931	1038	0	-100	0	230	101300000	1000	0	0	-1	550
22198475	9933	1038	0	-100	0	230	101300000	1000	0	0	-1	550
22211035	9923	1037	0	-100	0	230	101300000	1000	0	0	-1	550
22223595	9931	1036	0	-100	0	230	101300000	1000	0	0	-1	550
22236155	9920	1039	0	-100	0	230	101300000	1000	0	0	-1	550
22248715	9928	1040	0	-100	0	230	101300000	1000	0	0	-1	550
22261275	9936	1040	0	-100	0	230	101300000	1000	0	0	-1	550
22273835	9939	1040	0	-100	0	230	101300000	1000	0	0	-1	550
22286395	9928	1037	0	-100	0	230	101300000	1000	0	0	-1	550
22298955	9928	1038	0	-100	0	230	101300000	1000	0	0	-1	550
22311515	9933	1037	0	-100	0	230	101300000	1000	0	0	-1	550
22324075	9936	1039	0	-100	0	230	101300000	1000	0	0	-1	550
22336635	9931	1038	0	-100	0	230	101300000	1000	0	0	-1	550
22349195	9933	1039	0	-100	0	230	101300000	1000	0	0	-1	550
22361755	9928	1033	0	-100	0	230	101300000	1000	0	0	-1	550
22374315	9917	1035	0	-100	0	230	101300000	1000	0	0	-1	550
22386875	9931	1035	0	-100	0	230	101300000	1000	0	0	-1	550
22399435	9933	1039	0	-100	0	230	101300000	1000	0	0	-1	550
22411995	9933	1031	0	-100	0	230	101300000	1000	0	0	-1	550
22424555	9936	1039	0	-100	0	230	101300000	1000	0	0	-1	550
22437115	9931	1039	0	-100	0	230	101300000	1000	0	0	-1	550
22449675	9933	1034	0	-100	0	230	101300000	1000	0	0	-1	550
22462235	9928	1033	0	-100	0	230	101300000	1000	0	0	-1	550
22474795	9933	1033	0	-100	0	230	101300000	1000	0	0	-1	550
22487355	9928	1031	0	-100	0	230	101300000	1000	0	0	-1	550
22499915	9931	1033	0	-100	0	230	101300000	1000	0	0	-1	550
22512475	9928	1036	0	-100	0	230	101300000	1000	0	0	-1	550
22525035	9925	1037	0	-100	0	230	101300000	1000	0	0	-1	550
22537595	9931	1037	0	-100	0	230	101300000	1000	0	0	-1	550
22550155	9928	1040	0	-100	0	230	101300000	1000	0	0	-1	550
22562715	9933	1036	0	-100	0	230	101300000	1000	0	0	-1	550
22575275	9939	1036	0	-100	0	230	101300000	1000	0	0	-1	550
22587835	9933	1036	0	-100	0	230	101300000	1000	0	0	-1	550
22600395	9931	1034	0	-100	0	230	101300000	1000	0	0	-1	550
22612955	9931	1034	0	-100	0	230	101300000	1000	0	0	-1	550
22625515	9925	1033	0	-100	0	230	101300000	1000	0	0	-1	550
22638075	9933	1031	0	-100	0	230	101300000	1000	0	0	-1	550
22650635	9928	1032	0	-100	0	230	101300000	1000	0	0	-1	550
22663195	9925	1029	0	-100	0	230	101300000	1000	0	0	-1	550
22675755	9920	1027	0	-100	0	230	101300000	1000	0	0	-1	550
22688315	9925	1032	0	-100	0	230	101300000	1000	0	0	-1	550
22700875	9928	1033	0	-100	0	230	101300000	1000	0	0	-1	550
22713435	9933	1031	0	-100	0	230	101300000	1000	0	0	-1	550
22725995	9928	1028	0	-100	0	230	101300000	1000	0	0	-1	550
22738555	9936	1039	0	-100	0	230	101300000	1000	0	0	-1	550
22751115	9928	1032	0	-100	0	230	101300000	1000	0	0	-1	550
22763675	9933	1031	0	-100	0	230	101300000	1000	0	0	-1	550
22776235	9915	1029	0	-100	0	230	101300000	1000	0	0	-1	550
22788795	9928	1032	0	-100	0	230	101300000	1000	0	0	-1	550
22801355	9931	1033	0	-100	0	230	101300000	1000	0	0	-1	550
22813915	9933	1032	0	-100	0	230	101300000	1000	0	0	-1	550
22826475	9933	1031	0	-100	0	230	101300000	1000	0	0	-1	550
22839035	9936	1034	0	-100	0	230	101300000	1000	0	0	-1	550
22851595	9925	1035	0	-100	0	230	101300000	1000	0	0	-1	550
22864155	9920	1032	0	-100	0	230	101300000	1000	0	0	-1	550
22876715	9920	1027	0	-100	0	230	101300000	1000	0	0	-1	550
22889275	9928	1030	0	-100	0	230	101300000	1000	0	0	-1	550
22901835	9933	1033	0	-100	0	230	101300000	1000	0	0	-1	550
22914395	9925	1036	0	-100	0	230	101300000	1000	0	0	-1	550
22926955	9928	1038	0	-100	0	230	101300000	1000	0	0	-1	550
22939515	9931	1038	0	-100	0	230	101300000	1000	0	0	-1	550
22952075	9925	1034	0	-100	0	230	101300000	1000	0	0	-1	550
22964635	9912	1032	0	-100	0	230	101300000	1000	0	0	-1	550
22977195	9931	1036	0	-100	0	230	101300000	1000	0	0	-1	550
22989755	9933	1032	0	-100	0	230	101300000	1000	0	0	-1	550
23002315	9936	1032	0	-100	0	230	101300000	1000	0	0	-1	550
23014875	9931	1031	0	-100	0	230	101300000	1000	0	0	-1	550
23027435	9925	1033	0	-100	0	230	101300000	1000	0	0	-1	550
23039995	9936	1044	0	-100	0	230	101300000	1000	0	0	-1	550
23052555	9928	1032	0	-100	0	230	101300000	1000	0	0	-1	550
23065115	9936	1032	0	-100	0	230	101300000	1000	0	0	-1	550
23077675	9936	1036	0	-100	0	230	101300000	1000	0	0	-1	550
23090235	9928	1037	0	-100	0	230	101300000	1000	0	0	-1	550
23102795	9931	1034	0	-100	0	230	101300000	1000	0	0	-1	550
23115355	9920	1036	0	-100	0	230	101300000	1000	0	0	-1	550
23127915	9933	1035	0	-100	0	230	101300000	1000	0	0	-1	550
23140475	9928	1035	0	-100	0	230	101300000	1000	0	0	-1	550
23153035	9933	1034	0	-100	0	230	101300000	1000	0	0	-1	550
23165595	9925	1031	0	-100	0	230	101300000	1000	0	0	-1	550
23178155	9923	1032	0	-100	0	230	101300000	1000	0	0	-1	550
23190715	9925	1030	0	-100	0	230	101300000	1000	0	0	-1	550
23203275	9928	1029	0	-100	0	230	101300000	1000	0	0	-1	550
23215835	9936	1032	0	-100	0	230	101300000	1000	0	0	-1	550
23228395	9933	1036	0	-100	0	230	101300000	1000	0	0	-1	550
23240955	9920	1034	0	-100	0	230	101300000	1000	0	0	-1	550
23253515	9939	1039	0	-100	0	230	101300000	1000	0	0	-1	550
23266075	9928	1038	0	-100	0	230	101300000	1000	0	0	-1	550
23278635	9920	1032	0	-100	0	230	101300000	1000	0	0	-1	550
23291195	9931	1031	0	-100	0	230	101300000	1000	0	0	-1	550
23303755	9931	1031	0	-100	0	230	101300000	1000	0	0	-1	550
23316315	9928	1031	0	-100	0	230	101300000	1000	0	0	-1	550
23328875	9915	1026	0	-100	0	230	101300000	1000	0	0	-1	550
23341435	9931	1029	0	-100	0	230	101300000	1000	0	0	-1	550
23353995	9936	1036	0	-100	0	230	101300000	1000	0	0	-1	550
23366555	9928	1035	0	-100	0	230	101300000	1000	0	0	-1	550
23379115	9931	1035	0	-100	0	230	101300000	1000	0	0	-1	550
23391675	9925	1035	0	-100	0	230	101300000	1000	0	0	-1	550
23404235	9933	1040	0	-100	0	230	101300000	1000	0	0	-1	550
23416795	9936	1040	0	-100	0	230	101300000	1000	0	0	-1	550
23429355	9925	1035	0	-100	0	230	101300000	1000	0	0	-1	550
23441915	9923	1032	0	-100	0	230	101300000	1000	0	0	-1	550
23454475	9931	1030	0	-100	0	230	101300000	1000	0	0	-1	550
23467035	9933	1031	0	-100	0	230	101300000	1000	0	0	-1	550
23479595	9928	1031	0	-100	0	230	101300000	1000	0	0	-1	550
23492155	9925	1031	0	-100	0	230	101300000	1000	0	0	-1	550
23504715	9925	1026	0	-100	0	230	101300000	1000	0	0	-1	550
23517275	9931	1033	0	-100	0	230	101300000	1000	0	0	-1	550
23529835	9936	1036	0	-100	0	230	101300000	1000	0	0	-1	550
23542395	9933	1038	0	-100	0	230	101300000	1000	0	0	-1	550
23554955	9928	1040	0	-100	0	230	101300000	1000	0	0	-1	550
23567515	9931	1039	0	-100	0	230	101300000	1000	0	0	-1	550
23580075	9933	1035	0	-100	0	230	101300000	1000	0	0	-1	550
23592635	9917	1032	0	-100	0	230	101300000	1000	0	0	-1	550
23605195	9928	1030	0	-100	0	230	101300000	1000	0	0	-1	550
23617755	9928	1032	0	-100	0	230	101300000	1000	0	0	-1	550
23630315	9936	1032	0	-100	0	230	101300000	1000	0	0	-1	550
23642875	9933	1036	0	-100	0	230	101300000	1000	0	0	-1	550
23655435	9939	1040	0	-100	0	230	101300000	1000	0	0	-1	550
23667995	9931	1029	0	-100	0	230	101300000	1000	0	0	-1	550
23680555	9928	1032	0	-100	0	230	101300000	1000	0	0	-1	550
23693115	9933	1030	0	-100	0	230	101300000	1000	0	0	-1	550
23705675	9923	1026	0	-100	0	230	101300000	1000	0	0	-1	550
23718235	9923	1028	0	-100	0	230	101300000	1000	0	0	-1	550
23730795	9933	1031	0	-100	0	230	101300000	1000	0	0	-1	550
23743355	9939	1033	0	-100	0	230	101300000	1000	0	0	-1	550
23755915	9939	1034	0	-100	0	230	101300000	1000	0	0	-1	550
23768475	9933	1038	0	-100	0	230	101300000	1000	0	0	-1	550
23781035	9933	1039	0	-100	0	230	101300000	1000	0	0	-1	550
23793595	9928	1034	0	-100	0	230	101300000	1000	0	0	-1	550
23806155	9920	1030	0	-100	0	230	101300000	1000	0	0	-1	550
23818715	9931	1029	0	-100	0	230	101300000	1000	0	0	-1	550
23831275	9931	1030	0	-100	0	230	101300000	1000	0	0	-1	550
23843835	9925	1035	0	-100	0	230	101300000	1000	0	0	-1	550
23856395	9939	1038	0	-100	0	230	101300000	1000	0	0	-1	550
23868955	9936	1038	0	-100	0	230	101300000	1000	0	0	-1	550
23881515	9931	1034	0	-100	0	230	101300000	1000	0	0	-1	550
23894075	9928	1032	0	-100	0	230	101300000	1000	0	0	-1	550
23906635	9928	1033	0	-100	0	230	101300000	1000	0	0	-1	550
23919195	9936	1033	0	-100	0	230	101300000	1000	0	0	-1	550
23931755	9939	1038	0	-100	0	230	101300000	1000	0	0	-1	550
23944315	9928	1036	0	-100	0	230	101300000	1000	0	0	-1	550
23956875	9925	1034	0	-100	0	230	101300000	1000	0	0	-1	550
23969435	9920	1031	0	-100	0	230	101300000	1000	0	0	-1	550
23981995	9920	1036	0	-100	0	230	101300000	1000	0	0	-1	550
23994555	9931	1031	0	-100	0	230	101300000	1000	0	0	-1	550
24007115	9933	1031	0	-100	0	230	101300000	1000	0	0	-1	550
24019675	9931	1031	0	-100	0	230	101300000	1000	0	0	-1	550
24032235	9936	1032	0	-100	0	230	101300000	1000	0	0	-1	550
24044795	9928	1035	0	-100	0	230	101300000	1000	0	0	-1	550
24057355	9920	1033	0	-100	0	230	101300000	1000	0	0	-1	550
24069915	9917	1037	0	-100	0	230	101300000	1000	0	0	-1	550
24082475	9920	1036	0	-100	0	230	101300000	1000	0	0	-1	550
24095035	9920	1036	0	-100	0	230	101300000	1000	0	0	-1	550
24107595	9925	1039	0	-100	0	230	101300000	1000	0	0	-1	550
24120155	9925	1036	0	-100	0	230	101300000	1000	0	0	-1	550
24132715	9925	1035	0	-100	0	230	101300000	1000	0	0	-1	550
24145275	9933	1030	0	-100	0	230	101300000	1000	0	0	-1	550
24157835	9931	1029	0	-100	0	230	101300000	1000	0	0	-1	550
24170395	9928	1032	0	-100	0	230	101300000	1000	0	0	-1	550
24182955	9917	1026	0	-100	0	230	101300000	1000	0	0	-1	550
24195515	9920	1030	0	-100	0	230	101300000	1000	0	0	-1	550
24208075	9920	1031	0	-100	0	230	101300000	1000	0	0	-1	550
24220635	9923	1031	0	-100	0	230	101300000	1000	0	0	-1	550
24233195	9920	1033	0	-100	0	230	101300000	1000	0	0	-1	550
24245755	9933	1036	0	-100	0	230	101300000	1000	0	0	-1	550
24258315	9931	1033	0	-100	0	230	101300000	1000	0	0	-1	550
24270875	9928	1032	0	-100	0	230	101300000	1000	0	0	-1	550
24283435	9936	1030	0	-100	0	230	101300000	1000	0	0	-1	550
24295995	9933	1030	0	-100	0	230	101300000	1000	0	0	-1	550
24308555	9928	1032	0	-100	0	230	101300000	1000	0	0	-1	550
24321115	9939	1032	0	-100	0	230	101300000	1000	0	0	-1	550
24333675	9925	1033	0	-100	0	230	101300000	1000	0	0	-1	550
24346235	9939	1035	0	-100	0	230	101300000	1000	0	0	-1	550
24358795	9923	1034	0	-100	0	230	101300000	1000	0	0	-1	550
24371355	9917	1031	0	-100	0	230	101300000	1000	0	0	-1	550
24383915	9936	1037	0	-100	0	230	101300000	1000	0	0	-1	550
24396475	9939	1041	0	-100	0	230	101300000	1000	0	0	-1	550
24409035	9933	1040	0	-100	0	230	101300000	1000	0	0	-1	550
24421595	9931	1036	0	-100	0	230	101300000	1000	0	0	-1	550
24434155	9925	1038	0	-100	0	230	101300000	1000	0	0	-1	550
24446715	9923	1035	0	-100	0	230	101300000	1000	0	0	-1	550
24459275	9928	1037	0	-100	0	230	101300000	1000	0	0	-1	550
24471835	9928	1033	0	-100	0	230	101300000	1000	0	0	-1	550
24484395	9928	1032	0	-100	0	230	101300000	1000	0	0	-1	550
24496955	9912	1032	0	-100	0	230	101300000	1000	0	0	-1	550
24509515	9920	1031	0	-100	0	230	101300000	1000	0	0	-1	550
24522075	9925	1033	0	-100	0	230	101300000	1000	0	0	-1	550
24534635	9933	1030	0	-100	0	230	101300000	1000	0	0	-1	550
24547195	9923	1029	0	-100	0	230	101300000	1000	0	0	-1	550
24559755	9925	1027	0	-100	0	230	101300000	1000	0	0	-1	550
24572315	9923	1026	0	-100	0	230	101300000	1000	0	0	-1	550
24584875	9933	1033	0	-100	0	230	101300000	1000	0	0	-1	550
24597435	9936	1036	0	-100	0	230	101300000	1000	0	0	-1	550
24609995	9928	1031	0	-100	0	230	101300000	1000	0	0	-1	550
24622555	9923	1031	0	-100	0	230	101300000	1000	0	0	-1	550
24635115	9928	1033	0	-100	0	230	101300000	1000	0	0	-1	550
24647675	9928	1032	0	-100	0	230	101300000	1000	0	0	-1	550
24660235	9931	1029	0	-100	0	230	101300000	1000	0	0	-1	550
24672795	9931	1030	0	-100	0	230	101300000	1000	0	0	-1	550
24685355	9920	1032	0	-100	0	230	101300000	1000	0	0	-1	550
24697915	9920	1034	0	-100	0	230	101300000	1000	0	0	-1	550
24710475	9939	1038	0	-100	0	230	101300000	1000	0	0	-1	550
24723035	9936	1040	0	-100	0	230	101300000	1000	0	0	-1	550
24735595	9939	1039	0	-100	0	230	101300000	1000	0	0	-1	550
24748155	9933	1040	0	-100	0	230	101300000	1000	0	0	-1	550
24760715	9936	1037	0	-100	0	230	101300000	1000	0	0	-1	550
24773275	9933	1040	0	-100	0	230	101300000	1000	0	0	-1	550
24785835	9931	1037	0	-100	0	230	101300000	1000	0	0	-1	550
24798395	9928	1031	0	-100	0	230	101300000	1000	0	0	-1	550
24810955	9933	1031	0	-100	0	230	101300000	1000	0	0	-1	550
24823515	9917	1027	0	-100	0	230	101300000	1000	0	0	-1	550
24836075	9925	1028	0	-100	0	230	101300000	1000	0	0	-1	550
24848635	9933	1031	0	-100	0	230	101300000	1000	0	0	-1	550
24861195	9933	1035	0	-100	0	230	101300000	1000	0	0	-1	550
24873755	9931	1038	0	-100	0	230	101300000	1000	0	0	-1	550
24886315	9933	1038	0	-100	0	230	101300000	1000	0	0	-1	550
24898875	9933	1035	0	-100	0	230	101300000	1000	0	0	-1	550
24911435	9933	1035	0	-100	0	230	101300000	1000	0	0	-1	550
24923995	9925	1035	0	-100	0	230	101300000	1000	0	0	-1	550
24936555	9931	1032	0	-100	0	230	101300000	1000	0	0	-1	550
24949115	9936	1032	0	-100	0	230	101300000	1000	0	0	-1	550
24961675	9933	1035	0	-100	0	230	101300000	1000	0	0	-1	550
24974235	9939	1039	0	-100	0	230	101300000	1000	0	0	-1	550
24986795	9939	1036	0	-100	0	230	101300000	1000	0	0	-1	550
24999355	9936	1033	0	-100	0	230	101300000	1000	0	0	-1	550
25011915	9928	1030	0	-100	0	230	101300000	1000	0	0	-1	550
25024475	9936	1029	0	-100	0	230	101300000	1000	0	0	-1	550
25037035	9931	1030	0	-100	0	230	101300000	1000	0	0	-1	550
25049595	9933	1035	0	-100	0	230	101300000	1000	0	0	-1	550
25062155	9933	1041	0	-100	0	230	101300000	1000	0	0	-1	550
25074715	9928	1032	0	-100	0	230	101300000	1000	0	0	-1	550
25087275	9920	1027	0	-100	0	230	101300000	1000	0	0	-1	550
25099835	9928	1028	0	-100	0	230	101300000	1000	0	0	-1	550
25112395	9915	1031	0	-100	0	230	101300000	1000	0	0	-1	550
25124955	9931	1037	0	-100	0	230	101300000	1000	0	0	-1	550
25137515	9933	1035	0	-100	0	230	101300000	1000	0	0	-1	550
25150075	9933	1030	0	-100	0	230	101300000	1000	0	0	-1	550
25162635	9933	1032	0	-100	0	230	101300000	1000	0	0	-1	550
25175195	9928	1035	0	-100	0	230	101300000	1000	0	0	-1	550
25187755	9923	1038	0	-100	0	230	101300000	1000	0	0	-1	550
25200315	9928	1040	0	-100	0	230	101300000	1000	0	0	-1	550
25212875	9928	1036	0	-100	0	230	101300000	1000	0	0	-1	550
25225435	9931	1034	0	-100	0	230	101300000	1000	0	0	-1	550
25237995	9931	1038	0	-100	0	230	101300000	1000	0	0	-1	550
25250555	9933	1034	0	-100	0	230	101300000	1000	0	0	-1	550
25263115	9928	1032	0	-100	0	230	101300000	1000	0	0	-1	550
25275675	9936	1032	0	-100	0	230	101300000	1000	0	0	-1	550
25288235	9939	1033	0	-100	0	230	101300000	1000	0	0	-1	550
25300795	9936	1036	0	-100	0	230	101300000	1000	0	0	-1	550
25313355	9933	1035	0	-100	0	230	101300000	1000	0	0	-1	550
25325915	9933	1035	0	-100	0	230	101300000	1000	0	0	-1	550
25338475	9928	1035	0	-100	0	230	101300000	1000	0	0	-1	550
25351035	9936	1040	0	-100	0	230	101300000	1000	0	0	-1	550
25363595	9933	1035	0	-100	0	230	101300000	1000	0	0	-1	550
25376155	9915	1029	0	-100	0	230	101300000	1000	0	0	-1	550
25388715	9917	1029	0	-100	0	230	101300000	1000	0	0	-1	550
25401275	9915	1032	0	-100	0	230	101300000	1000	0	0	-1	550
25413835	9917	1034	0	-100	0	230	101300000	1000	0	0	-1	550
25426395	9917	1031	0	-100	0	230	101300000	1000	0	0	-1	550
25438955	9928	1027	0	-100	0	230	101300000	1000	0	0	-1	550
25451515	9925	1029	0	-100	0	230	101300000	1000	0	0	-1	550
25464075	9925	1030	0	-100	0	230	101300000	1000	0	0	-1	550
25476635	9928	1038	0	-100	0	230	101300000	1000	0	0	-1	550
25489195	9925	1034	0	-100	0	230	101300000	1000	0	0	-1	550
25501755	9928	1029	0	-100	0	230	101300000	1000	0	0	-1	550
25514315	9931	1030	0	-100	0	230	101300000	1000	0	0	-1	550
25526875	9931	1033	0	-100	0	230	101300000	1000	0	0	-1	550
25539435	9933	1035	0	-100	0	230	101300000	1000	0	0	-1	550
25551995	9925	1037	0	-100	0	230	101300000	1000	0	0	-1	550
25564555	9925	1029	0	-100	0	230	101300000	1000	0	0	-1	550
25577115	9925	1032	0	-100	0	230	101300000	1000	0	0	-1	550
25589675	9928	1032	0	-100	0	230	101300000	1000	0	0	-1	550
25602235	9933	1034	0	-100	0	230	101300000	1000	0	0	-1	550
25614795	9933	1039	0	-100	0	230	101300000	1000	0	0	-1	550
25627355	9939	1037	0	-100	0	230	101300000	1000	0	0	-1	550
25639915	9923	1032	0	-100	0	230	101300000	1000	0	0	-1	550
25652475	9925	1028	0	-100	0	230	101300000	1000	0	0	-1	550
25665035	9931	1029	0	-100	0	230	101300000	1000	0	0	-1	550
25677595	9931	1029	0	-100	0	230	101300000	1000	0	0	-1	550
25690155	9923	1037	0	-100	0	230	101300000	1000	0	0	-1	550
25702715	9928	1030	0	-100	0	230	101300000	1000	0	0	-1	550
25715275	9928	1033	0	-100	0	230	101300000	1000	0	0	-1	550
25727835	9936	1031	0	-100	0	230	101300000	1000	0	0	-1	550
25740395	9936	1038	0	-100	0	230	101300000	1000	0	0	-1	550
25752955	9939	1038	0	-100	0	230	101300000	1000	0	0	-1	550
25765515	9931	1035	0	-100	0	230	101300000	1000	0	0	-1	550
25778075	9931	1029	0	-100	0	230	101300000	1000	0	0	-1	550
25790635	9917	1024	0	-100	0	230	101300000	1000	0	0	-1	550
25803195	9920	1027	0	-100	0	230	101300000	1000	0	0	-1	550
25815755	9915	1028	0	-100	0	230	101300000	1000	0	0	-1	550
25828315	9920	1034	0	-100	0	230	101300000	1000	0	0	-1	550
25840875	9923	1033	0	-100	0	230	101300000	1000	0	0	-1	550
25853435	9925	1030	0	-100	0	230	101300000	1000	0	0	-1	550
25865995	9923	1033	0	-100	0	230	101300000	1000	0	0	-1	550
25878555	9928	1029	0	-100	0	230	101300000	1000	0	0	-1	550
25891115	9928	1031	0	-100	0	230	101300000	1000	0	0	-1	550
25903675	9923	1033	0	-100	0	230	101300000	1000	0	0	-1	550
25916235	9928	1041	0	-100	0	230	101300000	1000	0	0	-1	550
25928795	9931	1039	0	-100	0	230	101300000	1000	0	0	-1	550
25941355	9928	1036	0	-100	0	230	101300000	1000	0	0	-1	550
25953915	9933	1029	0	-100	0	230	101300000	1000	0	0	-1	550
25966475	9933	1028	0	-100	0	230	101300000	1000	0	0	-1	550
25979035	9931	1028	0	-100	0	230	101300000	1000	0	0	-1	550
25991595	9931	1030	0	-100	0	230	101300000	1000	0	0	-1	550
26004155	9920	1030	0	-100	0	230	101300000	1000	0	0	-1	550
26016715	9928	1028	0	-100	0	230	101300000	1000	0	0	-1	550
26029275	9925	1039	0	-100	0	230	101300000	1000	0	0	-1	550
26041835	9928	1030	0	-100	0	230	101300000	1000	0	0	-1	550
26054395	9931	1028	0	-100	0	230	101300000	1000	0	0	-1	550
26066955	9925	1030	0	-100	0	230	101300000	1000	0	0	-1	550
26079515	9928	1032	0	-100	0	230	101300000	1000	0	0	-1	550
26092075	9933	1031	0	-100	0	230	101300000	1000	0	0	-1	550
26104635	9933	1030	0	-100	0	230	101300000	1000	0	0	-1	550
26117195	9931	1032	0	-100	0	230	101300000	1000	0	0	-1	550
26129755	9936	1030	0	-100	0	230	101300000	1000	0	0	-1	550
26142315	9931	1032	0	-100	0	230	101300000	1000	0	0	-1	550
26154875	9928	1029	0	-100	0	230	101300000	1000	0	0	-1	550
26167435	9931	1029	0	-100	0	230	101300000	1000	0	0	-1	550
26179995	9920	1034	0	-100	0	230	101300000	1000	0	0	-1	550
26192555	9928	1035	0	-100	0	230	101300000	1000	0	0	-1	550
26205115	9933	1035	0	-100	0	230	101300000	1000	0	0	-1	550
26217675	9931	1038	0	-100	0	230	101300000	1000	0	0	-1	550
26230235	9931	1041	0	-100	0	230	101300000	1000	0	0	-1	550
26242795	9931	1042	0	-100	0	230	101300000	1000	0	0	-1	550
26255355	9939	1038	0	-100	0	230	101300000	1000	0	0	-1	550
26267915	9939	1039	0	-100	0	230	101300000	1000	0	0	-1	550
26280475	9936	1037	0	-100	0	230	101300000	1000	0	0	-1	550
26293035	9933	1035	0	-100	0	230	101300000	1000	0	0	-1	550
26305595	9928	1030	0	-100	0	230	101300000	1000	0	0	-1	550
26318155	9925	1030	0	-100	0	230	101300000	1000	0	0	-1	550
26330715	9915	1025	0	-100	0	230	101300000	1000	0	0	-1	550
26343275	9923	1027	0	-100	0	230	101300000	1000	0	0	-1	550
26355835	9933	1028	0	-100	0	230	101300000	1000	0	0	-1	550
26368395	9925	1034	0	-100	0	230	101300000	1000	0	0	-1	550
26380955	9931	1038	0	-100	0	230	101300000	1000	0	0	-1	550
26393515	9928	1036	0	-100	0	230	101300000	1000	0	0	-1	550
26406075	9939	1036	0	-100	0	230	101300000	1000	0	0	-1	550
26418635	9933	1030	0	-100	0	230	101300000	1000	0	0	-1	550
26431195	9936	1034	0	-100	0	230	101300000	1000	0	0	-1	550
26443755	9933	1032	0	-100	0	230	101300000	1000	0	0	-1	550
26456315	9936	1031	0	-100	0	230	101300000	1000	0	0	-1	550
26468875	9928	1031	0	-100	0	230	101300000	1000	0	0	-1	550
26481435	9917	1030	0	-100	0	230	101300000	1000	0	0	-1	550
26493995	9923	1029	0	-100	0	230	101300000	1000	0	0	-1	550
26506555	9923	1033	0	-100	0	230	101300000	1000	0	0	-1	550
26519115	9933	1035	0	-100	0	230	101300000	1000	0	0	-1	550
26531675	9933	1032	0	-100	0	230	101300000	1000	0	0	-1	550
26544235	9928	1028	0	-100	0	230	101300000	1000	0	0	-1	550
26556795	9928	1031	0	-100	0	230	101300000	1000	0	0	-1	550
26569355	9920	1029	0	-100	0	230	101300000	1000	0	0	-1	550
26581915	9928	1030	0	-100	0	230	101300000	1000	0	0	-1	550
26594475	9931	1034	0	-100	0	230	101300000	1000	0	0	-1	550
26607035	9936	1036	0	-100	0	230	101300000	1000	0	0	-1	550
26619595	9931	1037	0	-100	0	230	101300000	1000	0	0	-1	550
26632155	9928	1037	0	-100	0	230	101300000	1000	0	0	-1	550
26644715	9936	1036	0	-100	0	230	101300000	1000	0	0	-1	550
26657275	9939	1036	0	-100	0	230	101300000	1000	0	0	-1	550
26669835	9931	1033	0	-100	0	230	101300000	1000	0	0	-1	550
26682395	9920	1033	0	-100	0	230	101300000	1000	0	0	-1	550
26694955	9939	1052	0	-100	0	230	101300000	1000	0	0	-1	550
26707515	9923	1037	0	-100	0	230	101300000	1000	0	0	-1	550
26720075	9923	1035	0	-100	0	230	101300000	1000	0	0	-1	550
26732635	9920	1032	0	-100	0	230	101300000	1000	0	0	-1	550
26745195	9917	1030	0	-100	0	230	101300000	1000	0	0	-1	550
26757755	9933	1040	0	-100	0	230	101300000	1000	0	0	-1	550
26770315	9931	1143	0	-100	0	230	101300000	1000	0	0	-1	550
26782875	9933	1174	0	-100	0	230	101300000	1000	0	0	-1	550
26795435	9925	1187	0	-100	0	230	101300000	1000	0	0	-1	550
26807995	9931	1178	0	-100	0	230	101300000	1000	0	0	-1	550
26820555	9931	1189	0	-100	0	230	101300000	1000	0	0	-1	550
26833115	9928	1188	0	-100	0	230	101300000	1000	0	0	-1	550
26845675	9931	1182	0	-100	0	230	101300000	1000	0	0	-1	550
26858235	9933	1183	0	-100	0	230	101300000	1000	0	0	-1	550
26870795	9933	1184	0	-100	0	230	101300000	1000	0	0	-1	550
26883355	9925	1182	0	-100	0	230	101300000	1000	0	0	-1	550
26895915	9928	1186	0	-100	0	230	101300000	1000	0	0	-1	550
26908475	9928	1185	0	-100	0	230	101300000	1000	0	0	-1	550
26921035	9925	1183	0	-100	0	230	101300000	1000	0	0	-1	550
26933595	9928	1182	0	-100	0	230	101300000	1000	0	0	-1	550
26946155	9912	1185	0	-100	0	230	101300000	1000	0	0	-1	550
26958715	9925	1184	0	-100	0	230	101300000	1000	0	0	-1	550
26971275	9928	1185	0	-100	0	230	101300000	1000	0	0	-1	550
26983835	9931	1181	0	-100	0	230	101300000	1000	0	0	-1	550
26996395	9925	1182	0	-100	0	230	101300000	1000	0	0	-1	550
27008955	9920	1179	0	-100	0	230	101300000	1000	0	0	-1	550
27021515	9925	1182	0	-100	0	230	101300000	1000	0	0	-1	550
27034075	9936	1182	0	-100	0	230	101300000	1000	0	0	-1	550
27046635	9939	1183	0	-100	0	230	101300000	1000	0	0	-1	550
27059195	9920	1182	0	-100	0	230	101300000	1000	0	0	-1	550
27071755	9933	1187	0	-100	0	230	101300000	1000	0	0	-1	550
27084315	9939	1188	0	-100	0	230	101300000	1000	0	0	-1	550
27096875	9928	1193	0	-100	0	230	101300000	1000	0	0	-1	550
27109435	9939	1192	0	-100	0	230	101300000	1000	0	0	-1	550
27121995	9925	1182	0	-100	0	230	101300000	1000	0	0	-1	550
27134555	9931	1185	0	-100	0	230	101300000	1000	0	0	-1	550
27147115	9933	1186	0	-100	0	230	101300000	1000	0	0	-1	550
27159675	9925	1184	0	-100	0	230	101300000	1000	0	0	-1	550
27172235	9936	1184	0	-100	0	230	101300000	1000	0	0	-1	550
27184795	9917	1184	0	-100	0	230	101300000	1000	0	0	-1	550
27197355	9928	1188	0	-100	0	230	101300000	1000	0	0	-1	550
27209915	9936	1189	0	-100	0	230	101300000	1000	0	0	-1	550
27222475	9928	1191	0	-100	0	230	101300000	1000	0	0	-1	550
27235035	9931	1192	0	-100	0	230	101300000	1000	0	0	-1	550
27247595	9931	1190	0	-100	0	230	101300000	1000	0	0	-1	550
27260155	9928	1191	0	-100	0	230	101300000	1000	0	0	-1	550
27272715	9933	1188	0	-100	0	230	101300000	1000	0	0	-1	550
27285275	9936	1188	0	-100	0	230	101300000	1000	0	0	-1	550
27297835	9917	1187	0	-100	0	230	101300000	1000	0	0	-1	550
27310395	9928	1188	0	-100	0	230	101300000	1000	0	0	-1	550
27322955	9931	1185	0	-100	0	230	101300000	1000	0	0	-1	550
27335515	9925	1178	0	-100	0	230	101300000	1000	0	0	-1	550
27348075	9923	1180	0	-100	0	230	101300000	1000	0	0	-1	550
27360635	9928	1180	0	-100	0	230	101300000	1000	0	0	-1	550
27373195	9915	1180	0	-100	0	230	101300000	1000	0	0	-1	550
27385755	9933	1184	0	-100	0	230	101300000	1000	0	0	-1	550
27398315	9933	1191	0	-100	0	230	101300000	1000	0	0	-1	550
27410875	9933	1190	0	-100	0	230	101300000	1000	0	0	-1	550
27423435	9925	1186	0	-100	0	230	101300000	1000	0	0	-1	550
27435995	9928	1178	0	-100	0	230	101300000	1000	0	0	-1	550
27448555	9915	1186	0	-100	0	230	101300000	1000	0	0	-1	550
27461115	9928	1184	0	-100	0	230	101300000	1000	0	0	-1	550
27473675	9936	1192	0	-100	0	230	101300000	1000	0	0	-1	550
27486235	9933	1192	0	-100	0	230	101300000	1000	0	0	-1	550
27498795	9936	1191	0	-100	0	230	101300000	1000	0	0	-1	550
27511355	9920	1189	0	-100	0	230	101300000	1000	0	0	-1	550
27523915	9931	1191	0	-100	0	230	101300000	1000	0	0	-1	550
27536475	9936	1187	0	-100	0	230	101300000	1000	0	0	-1	550
27549035	9923	1187	0	-100	0	230	101300000	1000	0	0	-1	550
27561595	9933	1184	0	-100	0	230	101300000	1000	0	0	-1	550
27574155	9923	1181	0	-100	0	230	101300000	1000	0	0	-1	550
27586715	9928	1183	0	-100	0	230	101300000	1000	0	0	-1	550
27599275	9928	1183	0	-100	0	230	101300000	1000	0	0	-1	550
27611835	9933	1183	0	-100	0	230	101300000	1000	0	0	-1	550
27624395	9925	1182	0	-100	0	230	101300000	1000	0	0	-1	550
27636955	9939	1182	0	-100	0	230	101300000	1000	0	0	-1	550
27649515	9917	1182	0	-100	0	230	101300000	1000	0	0	-1	550
27662075	9931	1185	0	-100	0	230	101300000	1000	0	0	-1	550
27674635	9925	1188	0	-100	0	230	101300000	1000	0	0	-1	550
27687195	9936	1189	0	-100	0	230	101300000	1000	0	0	-1	550
27699755	9923	1189	0	-100	0	230	101300000	1000	0	0	-1	550
27712315	9936	1189	0	-100	0	230	101300000	1000	0	0	-1	550
27724875	9923	1186	0	-100	0	230	101300000	1000	0	0	-1	550
27737435	9928	1185	0	-100	0	230	101300000	1000	0	0	-1	550
27749995	9936	1180	0	-100	0	230	101300000	1000	0	0	-1	550
27762555	9933	1182	0	-100	0	230	101300000	1000	0	0	-1	550
27775115	9928	1183	0	-100	0	230	101300000	1000	0	0	-1	550
27787675	9933	1183	0	-100	0	230	101300000	1000	0	0	-1	550
27800235	9933	1183	0	-100	0	230	101300000	1000	0	0	-1	550
27812795	9933	1181	0	-100	0	230	101300000	1000	0	0	-1	550
27825355	9933	1182	0	-100	0	230	101300000	1000	0	0	-1	550
27837915	9931	1182	0	-100	0	230	101300000	1000	0	0	-1	550
27850475	9931	1181	0	-100	0	230	101300000	1000	0	0	-1	550
27863035	9933	1181	0	-100	0	230	101300000	1000	0	0	-1	550
27875595	9923	1177	0	-100	0	230	101300000	1000	0	0	-1	550
27888155	9909	1181	0	-100	0	230	101300000	1000	0	0	-1	550
27900715	9936	1182	0	-100	0	230	101300000	1000	0	0	-1	550
27913275	9931	1182	0	-100	0	230	101300000	1000	0	0	-1	550
27925835	9936	1183	0	-100	0	230	101300000	1000	0	0	-1	550
27938395	9928	1183	0	-100	0	230	101300000	1000	0	0	-1	550
27950955	9936	1180	0	-100	0	230	101300000	1000	0	0	-1	550
27963515	9936	1187	0	-100	0	230	101300000	1000	0	0	-1	550
27976075	9933	1191	0	-100	0	230	101300000	1000	0	0	-1	550
27988635	9933	1191	0	-100	0	230	101300000	1000	0	0	-1	550
28001195	9917	1189	0	-100	0	230	101300000	1000	0	0	-1	550
28013755	9933	1191	0	-100	0	230	101300000	1000	0	0	-1	550
28026315	9928	1190	0	-100	0	230	101300000	1000	0	0	-1	550
28038875	9933	1191	0	-100	0	230	101300000	1000	0	0	-1	550
28051435	9925	1189	0	-100	0	230	101300000	1000	0	0	-1	550
28063995	9933	1180	0	-100	0	230	101300000	1000	0	0	-1	550
28076555	9925	1183	0	-100	0	230	101300000	1000	0	0	-1	550
28089115	9933	1180	0	-100	0	230	101300000	1000	0	0	-1	550
28101675	9925	1181	0	-100	0	230	101300000	1000	0	0	-1	550
28114235	9936	1180	0	-100	0	230	101300000	1000	0	0	-1	550
28126795	9928	1183	0	-100	0	230	101300000	1000	0	0	-1	550
28139355	9923	1181	0	-100	0	230	101300000	1000	0	0	-1	550
28151915	9933	1183	0	-100	0	230	101300000	1000	0	0	-1	550
28164475	9923	1183	0	-100	0	230	101300000	1000	0	0	-1	550
28177035	9931	1183	0	-100	0	230	101300000	1000	0	0	-1	550
28189595	9923	1184	0	-100	0	230	101300000	1000	0	0	-1	550
28202155	9925	1182	0	-100	0	230	101300000	1000	0	0	-1	550
28214715	9920	1179	0	-100	0	230	101300000	1000	0	0	-1	550
28227275	9931	1180	0	-100	0	230	101300000	1000	0	0	-1	550
28239835	9928	1179	0	-100	0	230	101300000	1000	0	0	-1	550
28252395	9925	1180	0	-100	0	230	101300000	1000	0	0	-1	550
28264955	9923	1182	0	-100	0	230	101300000	1000	0	0	-1	550
28277515	9923	1186	0	-100	0	230	101300000	1000	0	0	-1	550
28290075	9928	1103	0	-100	0	230	101300000	1000	0	0	-1	550
28302635	9925	1056	0	-100	0	230	101300000	1000	0	0	-1	550
28315195	9931	1037	0	-100	0	230	101300000	1000	0	0	-1	550
28327755	9933	1034	0	-100	0	230	101300000	1000	0	0	-1	550
28340315	9936	1033	0	-100	0	230	101300000	1000	0	0	-1	550
28352875	9933	1033	0	-100	0	230	101300000	1000	0	0	-1	550
28365435	9939	1029	0	-100	0	230	101300000	1000	0	0	-1	550
28377995	9939	1033	0	-100	0	230	101300000	1000	0	0	-1	550
28390555	9931	1025	0	-100	0	230	101300000	1000	0	0	-1	550
28403115	9931	1027	0	-100	0	230	101300000	1000	0	0	-1	550
28415675	9936	1027	0	-100	0	230	101300000	1000	0	0	-1	550
28428235	9933	1030	0	-100	0	230	101300000	1000	0	0	-1	550
28440795	9925	1027	0	-100	0	230	101300000	1000	0	0	-1	550
28453355	9931	1028	0	-100	0	230	101300000	1000	0	0	-1	550
28465915	9928	1025	0	-100	0	230	101300000	1000	0	0	-1	550
28478475	9925	1022	0	-100	0	230	101300000	1000	0	0	-1	550
28491035	9915	1023	0	-100	0	230	101300000	1000	0	0	-1	550
28503595	9923	1024	0	-100	0	230	101300000	1000	0	0	-1	550
28516155	9920	1026	0	-100	0	230	101300000	1000	0	0	-1	550
28528715	9928	1027	0	-100	0	230	101300000	1000	0	0	-1	550
28541275	9928	1030	0	-100	0	230	101300000	1000	0	0	-1	550
28553835	9933	1031	0	-100	0	230	101300000	1000	0	0	-1	550
28566395	9931	1033	0	-100	0	230	101300000	1000	0	0	-1	550
28578955	9933	1033	0	-100	0	230	101300000	1000	0	0	-1	550
28591515	9928	1034	0	-100	0	230	101300000	1000	0	0	-1	550
28604075	9923	1029	0	-100	0	230	101300000	1000	0	0	-1	550
28616635	9933	1031	0	-100	0	230	101300000	1000	0	0	-1	550
28629195	9933	1028	0	-100	0	230	101300000	1000	0	0	-1	550
28641755	9933	1030	0	-100	0	230	101300000	1000	0	0	-1	550
28654315	9928	1031	0	-100	0	230	101300000	1000	0	0	-1	550
28666875	9933	1028	0	-100	0	230	101300000	1000	0	0	-1	550
28679435	9931	1030	0	-100	0	230	101300000	1000	0	0	-1	550
28691995	9933	1032	0	-100	0	230	101300000	1000	0	0	-1	550
28704555	9933	1030	0	-100	0	230	101300000	1000	0	0	-1	550
28717115	9933	1026	0	-100	0	230	101300000	1000	0	0	-1	550
28729675	9928	1028	0	-100	0	230	101300000	1000	0	0	-1	550
28742235	9920	1024	0	-100	0	230	101300000	1000	0	0	-1	550
28754795	9925	1025	0	-100	0	230	101300000	1000	0	0	-1	550
28767355	9923	1032	0	-100	0	230	101300000	1000	0	0	-1	550
28779915	9942	1036	0	-100	0	230	101300000	1000	0	0	-1	550
28792475	9931	1029	0	-100	0	230	101300000	1000	0	0	-1	550
28805035	9936	1026	0	-100	0	230	101300000	1000	0	0	-1	550
28817595	9928	1032	0	-100	0	230	101300000	1000	0	0	-1	550
28830155	9923	1033	0	-100	0	230	101300000	1000	0	0	-1	550
28842715	9928	1025	0	-100	0	230	101300000	1000	0	0	-1	550
28855275	9915	1023	0	-100	0	230	101300000	1000	0	0	-1	550
28867835	9928	1032	0	-100	0	230	101300000	1000	0	0	-1	550
28880395	9931	1035	0	-100	0	230	101300000	1000	0	0	-1	550
28892955	9936	1028	0	-100	0	230	101300000	1000	0	0	-1	550
28905515	9931	1027	0	-100	0	230	101300000	1000	0	0	-1	550
28918075	9928	1028	0	-100	0	230	101300000	1000	0	0	-1	550
28930635	9931	1027	0	-100	0	230	101300000	1000	0	0	-1	550
28943195	9925	1026	0	-100	0	230	101300000	1000	0	0	-1	550
28955755	9936	1032	0	-100	0	230	101300000	1000	0	0	-1	550
28968315	9933	1030	0	-100	0	230	101300000	1000	0	0	-1	550
28980875	9909	1020	0	-100	0	230	101300000	1000	0	0	-1	550
28993435	9931	1027	0	-100	0	230	101300000	1000	0	0	-1	550
29005995	9923	1024	0	-100	0	230	101300000	1000	0	0	-1	550
29018555	9917	1028	0	-100	0	230	101300000	1000	0	0	-1	550
29031115	9925	1023	0	-100	0	230	101300000	1000	0	0	-1	550
29043675	9936	1028	0	-100	0	230	101300000	1000	0	0	-1	550
29056235	9936	1034	0	-100	0	230	101300000	1000	0	0	-1	550
29068795	9931	1030	0	-100	0	230	101300000	1000	0	0	-1	550
29081355	9928	1029	0	-100	0	230	101300000	1000	0	0	-1	550
29093915	9928	1025	0	-100	0	230	101300000	1000	0	0	-1	550
29106475	9936	1034	0	-100	0	230	101300000	1000	0	0	-1	550
29119035	9933	1027	0	-100	0	230	101300000	1000	0	0	-1	550
29131595	9928	1025	0	-100	0	230	101300000	1000	0	0	-1	550
29144155	9923	1028	0	-100	0	230	101300000	1000	0	0	-1	550
29156715	9933	1033	0	-100	0	230	101300000	1000	0	0	-1	550
29169275	9920	1030	0	-100	0	230	101300000	1000	0	0	-1	550
29181835	9923	1027	0	-100	0	230	101300000	1000	0	0	-1	550
29194395	9933	1031	0	-100	0	230	101300000	1000	0	0	-1	550
29206955	9933	1034	0	-100	0	230	101300000	1000	0	0	-1	550
29219515	9925	1032	0	-100	0	230	101300000	1000	0	0	-1	550
29232075	9933	1031	0	-100	0	230	101300000	1000	0	0	-1	550
29244635	9931	1028	0	-100	0	230	101300000	1000	0	0	-1	550
29257195	9925	1029	0	-100	0	230	101300000	1000	0	0	-1	550
29269755	9936	1028	0	-100	0	230	101300000	1000	0	0	-1	550
29282315	9915	1028	0	-100	0	230	101300000	1000	0	0	-1	550
29294875	9931	1033	0	-100	0	230	101300000	1000	0	0	-1	550
29307435	9931	1032	0	-100	0	230	101300000	1000	0	0	-1	550
29319995	9933	1035	0	-100	0	230	101300000	1000	0	0	-1	550
29332555	9931	1026	0	-100	0	230	101300000	1000	0	0	-1	550
29345115	9928	1031	0	-100	0	230	101300000	1000	0	0	-1	550
29357675	9933	1029	0	-100	0	230	101300000	1000	0	0	-1	550
29370235	9931	1027	0	-100	0	230	101300000	1000	0	0	-1	550
29382795	9925	1030	0	-100	0	230	101300000	1000	0	0	-1	550
29395355	9920	1030	0	-100	0	230	101300000	1000	0	0	-1	550
29407915	9931	1024	0	-100	0	230	101300000	1000	0	0	-1	550
29420475	9928	1027	0	-100	0	230	101300000	1000	0	0	-1	550
29433035	9933	1034	0	-100	0	230	101300000	1000	0	0	-1	550
29445595	9936	1034	0	-100	0	230	101300000	1000	0	0	-1	550
29458155	9928	1032	0	-100	0	230	101300000	1000	0	0	-1	550
29470715	9931	1026	0	-100	0	230	101300000	1000	0	0	-1	550
29483275	9925	1025	0	-100	0	230	101300000	1000	0	0	-1	550
29495835	9933	1027	0	-100	0	230	101300000	1000	0	0	-1	550
29508395	9931	1026	0	-100	0	230	101300000	1000	0	0	-1	550
29520955	9928	1029	0	-100	0	230	101300000	1000	0	0	-1	550
29533515	9931	1036	0	-100	0	230	101300000	1000	0	0	-1	550
29546075	9933	1034	0	-100	0	230	101300000	1000	0	0	-1	550
29558635	9933	1034	0	-100	0	230	101300000	1000	0	0	-1	550
29571195	9933	1030	0	-100	0	230	101300000	1000	0	0	-1	550
29583755	9936	1032	0	-100	0	230	101300000	1000	0	0	-1	550
29596315	9928	1029	0	-100	0	230	101300000	1000	0	0	-1	550
29608875	9939	1025	0	-100	0	230	101300000	1000	0	0	-1	550
29621435	9933	1026	0	-100	0	230	101300000	1000	0	0	-1	550
29633995	9915	1028	0	-100	0	230	101300000	1000	0	0	-1	550
29646555	9923	1025	0	-100	0	230	101300000	1000	0	0	-1	550
29659115	9936	1023	0	-100	0	230	101300000	1000	0	0	-1	550
29671675	9928	1028	0	-100	0	230	101300000	1000	0	0	-1	550
29684235	9920	1029	0	-100	0	230	101300000	1000	0	0	-1	550
29696795	9931	1031	0	-100	0	230	101300000	1000	0	0	-1	550
29709355	9928	1032	0	-100	0	230	101300000	1000	0	0	-1	550
29721915	9936	1030	0	-100	0	230	101300000	1000	0	0	-1	550
29734475	9933	1028	0	-100	0	230	101300000	1000	0	0	-1	550
29747035	9920	1025	0	-100	0	230	101300000	1000	0	0	-1	550
29759595	9931	1026	0	-100	0	230	101300000	1000	0	0	-1	550
29772155	9923	1022	0	-100	0	230	101300000	1000	0	0	-1	550
29784715	9931	1025	0	-100	0	230	101300000	1000	0	0	-1	550
29797275	9928	1020	0	-100	0	230	101300000	1000	0	0	-1	550
29809835	9931	1020	0	-100	0	230	101300000	1000	0	0	-1	550
29822395	9928	1020	0	-100	0	230	101300000	1000	0	0	-1	550
29834955	9925	1020	0	-100	0	230	101300000	1000	0	0	-1	550
29847515	9928	1024	0	-100	0	230	101300000	1000	0	0	-1	550
29860075	9928	1022	0	-100	0	230	101300000	1000	0	0	-1	550
29872635	9923	1025	0	-100	0	230	101300000	1000	0	0	-1	550
29885195	9928	1025	0	-100	0	230	101300000	1000	0	0	-1	550
29897755	9939	1024	0	-100	0	230	101300000	1000	0	0	-1	550
29910315	9931	1024	0	-100	0	230	101300000	1000	0	0	-1	550
29922875	9933	1023	0	-100	0	230	101300000	1000	0	0	-1	550
29935435	9920	1019	0	-100	0	230	101300000	1000	0	0	-1	550
29947995	9925	1029	0	-100	0	230	101300000	1000	0	0	-1	550
29960555	9928	1023	0	-100	0	230	101300000	1000	0	0	-1	550
29973115	9933	1026	0	-100	0	230	101300000	1000	0	0	-1	550
29985675	9925	1027	0	-100	0	230	101300000	1000	0	0	-1	550
29998235	9931	1027	0	-100	0	230	101300000	1000	0	0	-1	550
30010795	9923	1030	0	-100	0	230	101300000	1000	0	0	-1	550
30023355	9928	1030	0	-100	0	230	101300000	1000	0	0	-1	550
30035915	9928	1027	0	-100	0	230	101300000	1000	0	0	-1	550
30048475	9928	1025	0	-100	0	230	101300000	1000	0	0	-1	550
30061035	9931	1023	0	-100	0	230	101300000	1000	0	0	-1	550
30073595	9931	1021	0	-100	0	230	101300000	1000	0	0	-1	550
30086155	9928	1023	0	-100	0	230	101300000	1000	0	0	-1	550
30098715	9936	1027	0	-100	0	230	101300000	1000	0	0	-1	550
30111275	9933	1028	0	-100	0	230	101300000	1000	0	0	-1	550
30123835	9931	1029	0	-100	0	230	101300000	1000	0	0	-1	550
30136395	9933	1026	0	-100	0	230	101300000	1000	0	0	-1	550
30148955	9925	1024	0	-100	0	230	101300000	1000	0	0	-1	550
30161515	9917	1021	0	-100	0	230	101300000	1000	0	0	-1	550
30174075	9920	1020	0	-100	0	230	101300000	1000	0	0	-1	550
30186635	9928	1022	0	-100	0	230	101300000	1000	0	0	-1	550
30199195	9925	1022	0	-100	0	230	101300000	1000	0	0	-1	550
30211755	9939	1023	0	-100	0	230	101300000	1000	0	0	-1	550
30224315	9931	1025	0	-100	0	230	101300000	1000	0	0	-1	550
30236875	9933	1022	0	-100	0	230	101300000	1000	0	0	-1	550
30249435	9917	1019	0	-100	0	230	101300000	1000	0	0	-1	550
30261995	9931	1030	0	-100	0	230	101300000	1000	0	0	-1	550
30274555	9925	1026	0	-100	0	230	101300000	1000	0	0	-1	550
30287115	9936	1028	0	-100	0	230	101300000	1000	0	0	-1	550
30299675	9933	1029	0	-100	0	230	101300000	1000	0	0	-1	550
30312235	9915	1027	0	-100	0	230	101300000	1000	0	0	-1	550
30324795	9928	1028	0	-100	0	230	101300000	1000	0	0	-1	550
30337355	9928	1028	0	-100	0	230	101300000	1000	0	0	-1	550
30349915	9931	1028	0	-100	0	230	101300000	1000	0	0	-1	550
30362475	9936	1025	0	-100	0	230	101300000	1000	0	0	-1	550
30375035	9928	1022	0	-100	0	230	101300000	1000	0	0	-1	550
30387595	9915	1020	0	-100	0	230	101300000	1000	0	0	-1	550
30400155	9925	1022	0	-100	0	230	101300000	1000	0	0	-1	550
30412715	9923	1022	0	-100	0	230	101300000	1000	0	0	-1	550
30425275	9942	1026	0	-100	0	230	101300000	1000	0	0	-1	550
30437835	9928	1026	0	-100	0	230	101300000	1000	0	0	-1	550
30450395	9931	1029	0	-100	0	230	101300000	1000	0	0	-1	550
30462955	9912	1024	0	-100	0	230	101300000	1000	0	0	-1	550
30475515	9923	1021	0	-100	0	230	101300000	1000	0	0	-1	550
30488075	9923	1021	0	-100	0	230	101300000	1000	0	0	-1	550
30500635	9931	1023	0	-100	0	230	101300000	1000	0	0	-1	550
30513195	9936	1027	0	-100	0	230	101300000	1000	0	0	-1	550
30525755	9931	1022	0	-100	0	230	101300000	1000	0	0	-1	550
30538315	9933	1025	0	-100	0	230	101300000	1000	0	0	-1	550
30550875	9931	1028	0	-100	0	230	101300000	1000	0	0	-1	550
30563435	9928	1029	0	-100	0	230	101300000	1000	0	0	-1	550
30575995	9925	1023	0	-100	0	230	101300000	1000	0	0	-1	550
30588555	9936	1026	0	-100	0	230	101300000	1000	0	0	-1	550
30601115	9936	1023	0	-100	0	230	101300000	1000	0	0	-1	550
30613675	9933	1022	0	-100	0	230	101300000	1000	0	0	-1	550
30626235	9931	1022	0	-100	0	230	101300000	1000	0	0	-1	550
30638795	9933	1023	0	-100	0	230	101300000	1000	0	0	-1	550
30651355	9933	1022	0	-100	0	230	101300000	1000	0	0	-1	550
30663915	9920	1023	0	-100	0	230	101300000	1000	0	0	-1	550
30676475	9923	1025	0	-100	0	230	101300000	1000	0	0	-1	550
30689035	9928	1028	0	-100	0	230	101300000	1000	0	0	-1	550
30701595	9928	1026	0	-100	0	230	101300000	1000	0	0	-1	550
30714155	9920	1027	0	-100	0	230	101300000	1000	0	0	-1	550
30726715	9928	1027	0	-100	0	230	101300000	1000	0	0	-1	550
30739275	9933	1023	0	-100	0	230	101300000	1000	0	0	-1	550
30751835	9931	1022	0	-100	0	230	101300000	1000	0	0	-1	550
30764395	9928	1022	0	-100	0	230	101300000	1000	0	0	-1	550
30776955	9936	1024	0	-100	0	230	101300000	1000	0	0	-1	550
30789515	9933	1028	0	-100	0	230	101300000	1000	0	0	-1	550
30802075	9928	1027	0	-100	0	230	101300000	1000	0	0	-1	550
30814635	9925	1030	0	-100	0	230	101300000	1000	0	0	-1	550
30827195	9931	1030	0	-100	0	230	101300000	1000	0	0	-1	550
30839755	9931	1028	0	-100	0	230	101300000	1000	0	0	-1	550
30852315	9923	1023	0	-100	0	230	101300000	1000	0	0	-1	550
30864875	9923	1025	0	-100	0	230	101300000	1000	0	0	-1	550
30877435	9928	1023	0	-100	0	230	101300000	1000	0	0	-1	550
30889995	9931	1021	0	-100	0	230	101300000	1000	0	0	-1	550
30902555	9933	1022	0	-100	0	230	101300000	1000	0	0	-1	550
30915115	9912	1020	0	-100	0	230	101300000	1000	0	0	-1	550
30927675	9923	1024	0	-100	0	230	101300000	1000	0	0	-1	550
30940235	9925	1030	0	-100	0	230	101300000	1000	0	0	-1	550
30952795	9936	1033	0	-100	0	230	101300000	1000	0	0	-1	550
30965355	9936	1028	0	-100	0	230	101300000	1000	0	0	-1	550
30977915	9931	1027	0	-100	0	230	101300000	1000	0	0	-1	550
30990475	9917	1025	0	-100	0	230	101300000	1000	0	0	-1	550
31003035	9925	1028	0	-100	0	230	101300000	1000	0	0	-1	550
31015595	9928	1034	0	-100	0	230	101300000	1000	0	0	-1	550
31028155	9931	1037	0	-100	0	230	101300000	1000	0	0	-1	550
31040715	9939	1029	0	-100	0	230	101300000	1000	0	0	-1	550
31053275	9933	1024	0	-100	0	230	101300000	1000	0	0	-1	550
31065835	9923	1021	0	-100	0	230	101300000	1000	0	0	-1	550
31078395	9920	1024	0	-100	0	230	101300000	1000	0	0	-1	550
31090955	9925	1029	0	-100	0	230	101300000	1000	0	0	-1	550
31103515	9939	1035	0	-100	0	230	101300000	1000	0	0	-1	550
31116075	9933	1031	0	-100	0	230	101300000	1000	0	0	-1	550
31128635	9923	1035	0	-100	0	230	101300000	1000	0	0	-1	550
31141195	9923	1036	0	-100	0	230	101300000	1000	0	0	-1	550
31153755	9931	1038	0	-100	0	230	101300000	1000	0	0	-1	550
31166315	9928	1040	0	-100	0	230	101300000	1000	0	0	-1	550
31178875	9933	1036	0	-100	0	230	101300000	1000	0	0	-1	550
31191435	9939	1032	0	-100	0	230	101300000	1000	0	0	-1	550
31203995	9917	1029	0	-100	0	230	101300000	1000	0	0	-1	550
31216555	9925	1023	0	-100	0	230	101300000	1000	0	0	-1	550
31229115	9931	1027	0	-100	0	230	101300000	1000	0	0	-1	550
31241675	9925	1030	0	-100	0	230	101300000	1000	0	0	-1	550
31254235	9939	1035	0	-100	0	230	101300000	1000	0	0	-1	550
31266795	9939	1029	0	-100	0	230	101300000	1000	0	0	-1	550
31279355	9931	1022	0	-100	0	230	101300000	1000	0	0	-1	550
31291915	9920	1025	0	-100	0	230	101300000	1000	0	0	-1	550
31304475	9933	1035	0	-100	0	230	101300000	1000	0	0	-1	550
31317035	9925	1041	0	-100	0	230	101300000	1000	0	0	-1	550
31329595	9931	1037	0	-100	0	230	101300000	1000	0	0	-1	550
31342155	9928	1032	0	-100	0	230	101300000	1000	0	0	-1	550
31354715	9936	1028	0	-100	0	230	101300000	1000	0	0	-1	550
31367275	9928	1022	0	-100	0	230	101300000	1000	0	0	-1	550
31379835	9933	1024	0	-100	0	230	101300000	1000	0	0	-1	550
31392395	9920	1021	0	-100	0	230	101300000	1000	0	0	-1	550
31404955	9912	1022	0	-100	0	230	101300000	1000	0	0	-1	550
31417515	9928	1027	0	-100	0	230	101300000	1000	0	0	-1	550
31430075	9931	1029	0	-100	0	230	101300000	1000	0	0	-1	550
31442635	9928	1034	0	-100	0	230	101300000	1000	0	0	-1	550
31455195	9925	1035	0	-100	0	230	101300000	1000	0	0	-1	550
31467755	9925	1032	0	-100	0	230	101300000	1000	0	0	-1	550
31480315	9928	1028	0	-100	0	230	101300000	1000	0	0	-1	550
31492875	9925	1026	0	-100	0	230	101300000	1000	0	0	-1	550
31505435	9928	1029	0	-100	0	230	101300000	1000	0	0	-1	550
31517995	9925	1022	0	-100	0	230	101300000	1000	0	0	-1	550
31530555	9925	1032	0	-100	0	230	101300000	1000	0	0	-1	550
31543115	9939	1029	0	-100	0	230	101300000	1000	0	0	-1	550
31555675	9939	1026	0	-100	0	230	101300000	1000	0	0	-1	550
31568235	9933	1026	0	-100	0	230	101300000	1000	0	0	-1	550
31580795	9931	1024	0	-100	0	230	101300000	1000	0	0	-1	550
31593355	9933	1026	0	-100	0	230	101300000	1000	0	0	-1	550
31605915	9925	1025	0	-100	0	230	101300000	1000	0	0	-1	550
31618475	9917	1025	0	-100	0	230	101300000	1000	0	0	-1	550
31631035	9925	1030	0	-100	0	230	101300000	1000	0	0	-1	550
31643595	9928	1032	0	-100	0	230	101300000	1000	0	0	-1	550
31656155	9931	1035	0	-100	0	230	101300000	1000	0	0	-1	550
31668715	9933	1032	0	-100	0	230	101300000	1000	0	0	-1	550
31681275	9925	1029	0	-100	0	230	101300000	1000	0	0	-1	550
31693835	9928	1029	0	-100	0	230	101300000	1000	0	0	-1	550
31706395	9928	1030	0	-100	0	230	101300000	1000	0	0	-1	550
31718955	9933	1028	0	-100	0	230	101300000	1000	0	0	-1	550
31731515	9917	1022	0	-100	0	230	101300000	1000	0	0	-1	550
31744075	9928	1028	0	-100	0	230	101300000	1000	0	0	-1	550
31756635	9928	1034	0	-100	0	230	101300000	1000	0	0	-1	550
31769195	9928	1031	0	-100	0	230	101300000	1000	0	0	-1	550
31781755	9928	1021	0	-100	0	230	101300000	1000	0	0	-1	550
31794315	9928	1025	0	-100	0	230	101300000	1000	0	0	-1	550
31806875	9923	1031	0	-100	0	230	101300000	1000	0	0	-1	550
31819435	9939	1034	0	-100	0	230	101300000	1000	0	0	-1	550
31831995	9936	1032	0	-100	0	230	101300000	1000	0	0	-1	550
31844555	9933	1026	0	-100	0	230	101300000	1000	0	0	-1	550
31857115	9915	1022	0	-100	0	230	101300000	1000	0	0	-1	550
31869675	9928	1030	0	-100	0	230	101300000	1000	0	0	-1	550
31882235	9933	1036	0	-100	0	230	101300000	1000	0	0	-1	550
31894795	9936	1028	0	-100	0	230	101300000	1000	0	0	-1	550
31907355	9920	1023	0	-100	0	230	101300000	1000	0	0	-1	550
31919915	9920	1025	0	-100	0	230	101300000	1000	0	0	-1	550
31932475	9931	1031	0	-100	0	230	101300000	1000	0	0	-1	550
31945035	9936	1033	0	-100	0	230	101300000	1000	0	0	-1	550
31957595	9933	1030	0	-100	0	230	101300000	1000	0	0	-1	550
31970155	9920	1028	0	-100	0	230	101300000	1000	0	0	-1	550
31982715	9931	1026	0	-100	0	230	101300000	1000	0	0	-1	550
31995275	9931	1030	0	-100	0	230	101300000	1000	0	0	-1	550
32007835	9936	1032	0	-100	0	230	101300000	1000	0	0	-1	550
32020395	9933	1024	0	-100	0	230	101300000	1000	0	0	-1	550
32032955	9917	1022	0	-100	0	230	101300000	1000	0	0	-1	550
32045515	9931	1025	0	-100	0	230	101300000	1000	0	0	-1	550
32058075	9928	1030	0	-100	0	230	101300000	1000	0	0	-1	550
32070635	9917	1027	0	-100	0	230	101300000	1000	0	0	-1	550
32083195	9928	1028	0	-100	0	230	101300000	1000	0	0	-1	550
32095755	9931	1027	0	-100	0	230	101300000	1000	0	0	-1	550
32108315	9928	1026	0	-100	0	230	101300000	1000	0	0	-1	550
32120875	9923	1029	0	-100	0	230	101300000	1000	0	0	-1	550
32133435	9933	1029	0	-100	0	230	101300000	1000	0	0	-1	550
32145995	9933	1026	0	-100	0	230	101300000	1000	0	0	-1	550
32158555	9933	1031	0	-100	0	230	101300000	1000	0	0	-1	550
32171115	9931	1031	0	-100	0	230	101300000	1000	0	0	-1	550
32183675	9928	1027	0	-100	0	230	101300000	1000	0	0	-1	550
32196235	9925	1021	0	-100	0	230	101300000	1000	0	0	-1	550
32208795	9925	1025	0	-100	0	230	101300000	1000	0	0	-1	550
32221355	9931	1025	0	-100	0	230	101300000	1000	0	0	-1	550
32233915	9915	1023	0	-100	0	230	101300000	1000	0	0	-1	550
32246475	9925	1027	0	-100	0	230	101300000	1000	0	0	-1	550
32259035	9931	1025	0	-100	0	230	101300000	1000	0	0	-1	550
32271595	9915	1020	0	-100	0	230	101300000	1000	0	0	-1	550
32284155	9920	1023	0	-100	0	230	101300000	1000	0	0	-1	550
32296715	9939	1025	0	-100	0	230	101300000	1000	0	0	-1	550
32309275	9931	1024	0	-100	0	230	101300000	1000	0	0	-1	550
32321835	9931	1022	0	-100	0	230	101300000	1000	0	0	-1	550
32334395	9931	1028	0	-100	0	230	101300000	1000	0	0	-1	550
32346955	9933	1026	0	-100	0	230	101300000	1000	0	0	-1	550
32359515	9923	1021	0	-100	0	230	101300000	1000	0	0	-1	550
32372075	9925	1024	0	-100	0	230	101300000	1000	0	0	-1	550
32384635	9928	1025	0	-100	0	230	101300000	1000	0	0	-1	550
32397195	9915	1021	0	-100	0	230	101300000	1000	0	0	-1	550
32409755	9928	1025	0	-100	0	230	101300000	1000	0	0	-1	550
32422315	9933	1024	0	-100	0	230	101300000	1000	0	0	-1	550
32434875	9933	1024	0	-100	0	230	101300000	1000	0	0	-1	550
32447435	9928	1027	0	-100	0	230	101300000	1000	0	0	-1	550
32459995	9933	1025	0	-100	0	230	101300000	1000	0	0	-1	550
32472555	9939	1033	0	-100	0	230	101300000	1000	0	0	-1	550
32485115	9933	1031	0	-100	0	230	101300000	1000	0	0	-1	550
32497675	9931	1034	0	-100	0	230	101300000	1000	0	0	-1	550
32510235	9933	1031	0	-100	0	230	101300000	1000	0	0	-1	550
32522795	9931	1029	0	-100	0	230	101300000	1000	0	0	-1	550
32535355	9936	1028	0	-100	0	230	101300000	1000	0	0	-1	550
32547915	9920	1027	0	-100	0	230	101300000	1000	0	0	-1	550
32560475	9931	1029	0	-100	0	230	101300000	1000	0	0	-1	550
32573035	9928	1030	0	-100	0	230	101300000	1000	0	0	-1	550
32585595	9933	1033	0	-100	0	230	101300000	1000	0	0	-1	550
32598155	9928	1032	0	-100	0	230	101300000	1000	0	0	-1	550
32610715	9936	1029	0	-100	0	230	101300000	1000	0	0	-1	550
32623275	9931	1027	0	-100	0	230	101300000	1000	0	0	-1	550
32635835	9928	1023	0	-100	0	230	101300000	1000	0	0	-1	550
32648395	9931	1025	0	-100	0	230	101300000	1000	0	0	-1	550
32660955	9917	1020	0	-100	0	230	101300000	1000	0	0	-1	550
32673515	9923	1026	0	-100	0	230	101300000	1000	0	0	-1	550
32686075	9933	1026	0	-100	0	230	101300000	1000	0	0	-1	550
32698635	9931	1025	0	-100	0	230	101300000	1000	0	0	-1	550
32711195	9936	1024	0	-100	0	230	101300000	1000	0	0	-1	550
32723755	9917	1023	0	-100	0	230	101300000	1000	0	0	-1	550
32736315	9923	1026	0	-100	0	230	101300000	1000	0	0	-1	550
32748875	9936	1026	0	-100	0	230	101300000	1000	0	0	-1	550
32761435	9931	1023	0	-100	0	230	101300000	1000	0	0	-1	550
32773995	9925	1027	0	-100	0	230	101300000	1000	0	0	-1	550
32786555	9936	1026	0	-100	0	230	101300000	1000	0	0	-1	550
32799115	9928	1025	0	-100	0	230	101300000	1000	0	0	-1	550
32811675	9931	1025	0	-100	0	230	101300000	1000	0	0	-1	550
32824235	9933	1028	0	-100	0	230	101300000	1000	0	0	-1	550
32836795	9917	1028	0	-100	0	230	101300000	1000	0	0	-1	550
32849355	9931	1031	0	-100	0	230	101300000	1000	0	0	-1	550
32861915	9936	1028	0	-100	0	230	101300000	1000	0	0	-1	550
32874475	9931	1025	0	-100	0	230	101300000	1000	0	0	-1	550
32887035	9923	1024	0	-100	0	230	101300000	1000	0	0	-1	550
32899595	9928	1023	0	-100	0	230	101300000	1000	0	0	-1	550
32912155	9931	1028	0	-100	0	230	101300000	1000	0	0	-1	550
32924715	9928	1025	0	-100	0	230	101300000	1000	0	0	-1	550
32937275	9931	1025	0	-100	0	230	101300000	1000	0	0	-1	550
32949835	9933	1030	0	-100	0	230	101300000	1000	0	0	-1	550
32962395	9939	1026	0	-100	0	230	101300000	1000	0	0	-1	550
32974955	9933	1026	0	-100	0	230	101300000	1000	0	0	-1	550
32987515	9933	1029	0	-100	0	230	101300000	1000	0	0	-1	550
33000075	9933	1026	0	-100	0	230	101300000	1000	0	0	-1	550
33012635	9925	1025	0	-100	0	230	101300000	1000	0	0	-1	550
33025195	9933	1024	0	-100	0	230	101300000	1000	0	0	-1	550
33037755	9917	1021	0	-100	0	230	101300000	1000	0	0	-1	550
33050315	9931	1026	0	-100	0	230	101300000	1000	0	0	-1	550
33062875	9928	1030	0	-100	0	230	101300000	1000	0	0	-1	550
33075435	9915	1025	0	-100	0	230	101300000	1000	0	0	-1	550
33087995	9920	1023	0	-100	0	230	101300000	1000	0	0	-1	550
33100555	9928	1028	0	-100	0	230	101300000	1000	0	0	-1	550
33113115	9920	1023	0	-100	0	230	101300000	1000	0	0	-1	550
33125675	9936	1031	0	-100	0	230	101300000	1000	0	0	-1	550
33138235	9931	1029	0	-100	0	230	101300000	1000	0	0	-1	550
33150795	9920	1027	0	-100	0	230	101300000	1000	0	0	-1	550
33163355	9923	1031	0	-100	0	230	101300000	1000	0	0	-1	550
33175915	9928	1029	0	-100	0	230	101300000	1000	0	0	-1	550
33188475	9925	1023	0	-100	0	230	101300000	1000	0	0	-1	550
33201035	9931	1023	0	-100	0	230	101300000	1000	0	0	-1	550
33213595	9931	1025	0	-100	0	230	101300000	1000	0	0	-1	550
33226155	9928	1032	0	-100	0	230	101300000	1000	0	0	-1	550
33238715	9917	1030	0	-100	0	230	101300000	1000	0	0	-1	550
33251275	9928	1033	0	-100	0	230	101300000	1000	0	0	-1	550
33263835	9923	1029	0	-100	0	230	101300000	1000	0	0	-1	550
33276395	9923	1025	0	-100	0	230	101300000	1000	0	0	-1	550
33288955	9920	1023	0	-100	0	230	101300000	1000	0	0	-1	550
33301515	9925	1023	0	-100	0	230	101300000	1000	0	0	-1	550
33314075	9931	1025	0	-100	0	230	101300000	1000	0	0	-1	550
33326635	9931	1032	0	-100	0	230	101300000	1000	0	0	-1	550
33339195	9931	1029	0	-100	0	230	101300000	1000	0	0	-1	550
33351755	9931	1025	0	-100	0	230	101300000	1000	0	0	-1	550
33364315	9931	1025	0	-100	0	230	101300000	1000	0	0	-1	550
33376875	9931	1025	0	-100	0	230	101300000	1000	0	0	-1	550
33389435	9923	1021	0	-100	0	230	101300000	1000	0	0	-1	550
33401995	9933	1032	0	-100	0	230	101300000	1000	0	0	-1	550
33414555	9925	1024	0	-100	0	230	101300000	1000	0	0	-1	550
33427115	9939	1029	0	-100	0	230	101300000	1000	0	0	-1	550
33439675	9925	1024	0	-100	0	230	101300000	1000	0	0	-1	550
33452235	9928	1032	0	-100	0	230	101300000	1000	0	0	-1	550
33464795	9931	1033	0	-100	0	230	101300000	1000	0	0	-1	550
