timestamp	voltage	current	windSpeed	pitchAngle	rpm	temperature	ambientPressure	humidity	accelerationX	accelerationY	accelerationZ	currentSink
7040070	5017	0	0	-100	0	230	101300000	1000	0	0	-1	0
7047523	5020	0	0	-100	0	230	101300000	1000	0	0	-1	0
7060083	5015	4	0	-100	0	230	101300000	1000	0	0	-1	0
7072643	5022	0	0	-100	0	230	101300000	1000	0	0	-1	0
7085203	5012	0	0	-100	0	230	101300000	1000	0	0	-1	0
7097763	5014	0	0	-100	0	230	101300000	1000	0	0	-1	0
7110323	5016	0	0	-100	0	230	101300000	1000	0	0	-1	0
7122883	5010	2	0	-100	0	230	101300000	1000	0	0	-1	0
7135443	5017	0	0	-100	0	230	101300000	1000	0	0	-1	0
7148004	5016	3	0	-100	0	230	101300000	1000	0	0	-1	0
7160563	5012	0	0	-100	0	230	101300000	1000	0	0	-1	0
7173123	5018	0	0	-100	0	230	101300000	1000	0	0	-1	0
7185683	5012	0	0	-100	0	230	101300000	1000	0	0	-1	0
7198243	5021	0	0	-100	0	230	101300000	1000	0	0	-1	0
7210803	5011	0	0	-100	0	230	101300000	1000	0	0	-1	0
7223363	5021	0	0	-100	0	230	101300000	1000	0	0	-1	0
7235923	5016	0	0	-100	0	230	101300000	1000	0	0	-1	0
7248483	5017	0	0	-100	0	230	101300000	1000	0	0	-1	0
7261043	5012	0	0	-100	0	230	101300000	1000	0	0	-1	0
7273603	5016	0	0	-100	0	230	101300000	1000	0	0	-1	0
7286163	5013	0	0	-100	0	230	101300000	1000	0	0	-1	0
7298723	5015	1	0	-100	0	230	101300000	1000	0	0	-1	0
7311283	5015	0	0	-100	0	230	101300000	1000	0	0	-1	0
7323843	5015	0	0	-100	0	230	101300000	1000	0	0	-1	0
7336403	5015	0	0	-100	0	230	101300000	1000	0	0	-1	0
7348963	5012	0	0	-100	0	230	101300000	1000	0	0	-1	0
7697235	4995	75	0	-100	0	230	101300000	1000	0	0	-1	50
7709795	5000	68	0	-100	0	230	101300000	1000	0	0	-1	50
7722355	4995	75	0	-100	0	230	101300000	1000	0	0	-1	50
7734915	4995	67	0	-100	0	230	101300000	1000	0	0	-1	50
7747475	5001	67	0	-100	0	230	101300000	1000	0	0	-1	50
7760035	4994	73	0	-100	0	230	101300000	1000	0	0	-1	50
7772595	4998	67	0	-100	0	230	101300000	1000	0	0	-1	50
7785155	4996	67	0	-100	0	230	101300000	1000	0	0	-1	50
7797715	4995	75	0	-100	0	230	101300000	1000	0	0	-1	50
7810275	4999	68	0	-100	0	230	101300000	1000	0	0	-1	50
7822835	4995	71	0	-100	0	230	101300000	1000	0	0	-1	50
7835395	4994	71	0	-100	0	230	101300000	1000	0	0	-1	50
7847955	5000	67	0	-100	0	230	101300000	1000	0	0	-1	50
7860515	4995	71	0	-100	0	230	101300000	1000	0	0	-1	50
7873075	4995	69	0	-100	0	230	101300000	1000	0	0	-1	50
7885635	5005	69	0	-100	0	230	101300000	1000	0	0	-1	50
7898195	4995	75	0	-100	0	230	101300000	1000	0	0	-1	50
7910755	4999	67	0	-100	0	230	101300000	1000	0	0	-1	50
7923315	5001	68	0	-100	0	230	101300000	1000	0	0	-1	50
7935875	4995	74	0	-100	0	230	101300000	1000	0	0	-1	50
7948435	4994	67	0	-100	0	230	101300000	1000	0	0	-1	50
7960995	5000	75	0	-100	0	230	101300000	1000	0	0	-1	50
7973555	4995	72	0	-100	0	230	101300000	1000	0	0	-1	50
7986115	5001	70	0	-100	0	230	101300000	1000	0	0	-1	50
7998675	5000	75	0	-100	0	230	101300000	1000	0	0	-1	50
8011235	5001	67	0	-100	0	230	101300000	1000	0	0	-1	50
8023795	4995	73	0	-100	0	230	101300000	1000	0	0	-1	50
8036355	4996	68	0	-100	0	230	101300000	1000	0	0	-1	50
8048915	4998	71	0	-100	0	230	101300000	1000	0	0	-1	50
8061475	4993	70	0	-100	0	230	101300000	1000	0	0	-1	50
8074035	5001	67	0	-100	0	230	101300000	1000	0	0	-1	50
8086595	4993	71	0	-100	0	230	101300000	1000	0	0	-1	50
8099155	4999	71	0	-100	0	230	101300000	1000	0	0	-1	50
8111715	4997	71	0	-100	0	230	101300000	1000	0	0	-1	50
8124275	5002	67	0	-100	0	230	101300000	1000	0	0	-1	50
8136835	4998	75	0	-100	0	230	101300000	1000	0	0	-1	50
8149395	4999	67	0	-100	0	230	101300000	1000	0	0	-1	50
8161955	4994	75	0	-100	0	230	101300000	1000	0	0	-1	50
8174515	5001	68	0	-100	0	230	101300000	1000	0	0	-1	50
8187075	4997	74	0	-100	0	230	101300000	1000	0	0	-1	50
8199635	5000	70	0	-100	0	230	101300000	1000	0	0	-1	50
8212195	4992	73	0	-100	0	230	101300000	1000	0	0	-1	50
8224755	4994	68	0	-100	0	230	101300000	1000	0	0	-1	50
8237315	5005	69	0	-100	0	230	101300000	1000	0	0	-1	50
8249875	4994	75	0	-100	0	230	101300000	1000	0	0	-1	50
8262435	4999	67	0	-100	0	230	101300000	1000	0	0	-1	50
8274995	4995	67	0	-100	0	230	101300000	1000	0	0	-1	50
8287555	4999	67	0	-100	0	230	101300000	1000	0	0	-1	50
8300115	4995	72	0	-100	0	230	101300000	1000	0	0	-1	50
8312675	4991	71	0	-100	0	230	101300000	1000	0	0	-1	50
8325235	4999	67	0	-100	0	230	101300000	1000	0	0	-1	50
8337795	4997	75	0	-100	0	230	101300000	1000	0	0	-1	50
8350355	5001	67	0	-100	0	230	101300000	1000	0	0	-1	50
8362915	4995	73	0	-100	0	230	101300000	1000	0	0	-1	50
8375475	5000	67	0	-100	0	230	101300000	1000	0	0	-1	50
8388035	4993	72	0	-100	0	230	101300000	1000	0	0	-1	50
8400595	5002	70	0	-100	0	230	101300000	1000	0	0	-1	50
8413155	4987	73	0	-100	0	230	101300000	1000	0	0	-1	50
8425715	5000	68	0	-100	0	230	101300000	1000	0	0	-1	50
8438275	4995	67	0	-100	0	230	101300000	1000	0	0	-1	50
8450835	4995	72	0	-100	0	230	101300000	1000	0	0	-1	50
8463395	5000	67	0	-100	0	230	101300000	1000	0	0	-1	50
8475955	4994	73	0	-100	0	230	101300000	1000	0	0	-1	50
8488515	4999	67	0	-100	0	230	101300000	1000	0	0	-1	50
8501075	4994	72	0	-100	0	230	101300000	1000	0	0	-1	50
8513635	4996	68	0	-100	0	230	101300000	1000	0	0	-1	50
8526195	4995	72	0	-100	0	230	101300000	1000	0	0	-1	50
8538755	4997	67	0	-100	0	230	101300000	1000	0	0	-1	50
8551315	4998	70	0	-100	0	230	101300000	1000	0	0	-1	50
8563875	4997	70	0	-100	0	230	101300000	1000	0	0	-1	50
8576435	5001	68	0	-100	0	230	101300000	1000	0	0	-1	50
8588995	4991	69	0	-100	0	230	101300000	1000	0	0	-1	50
8601555	5001	69	0	-100	0	230	101300000	1000	0	0	-1	50
8614115	4993	72	0	-100	0	230	101300000	1000	0	0	-1	50
8626675	5000	67	0	-100	0	230	101300000	1000	0	0	-1	50
8639235	4995	71	0	-100	0	230	101300000	1000	0	0	-1	50
8651795	4999	69	0	-100	0	230	101300000	1000	0	0	-1	50
8664355	4998	68	0	-100	0	230	101300000	1000	0	0	-1	50
8676915	5000	68	0	-100	0	230	101300000	1000	0	0	-1	50
8689475	4993	71	0	-100	0	230	101300000	1000	0	0	-1	50
8702035	5003	68	0	-100	0	230	101300000	1000	0	0	-1	50
8714595	4993	70	0	-100	0	230	101300000	1000	0	0	-1	50
8727155	4993	71	0	-100	0	230	101300000	1000	0	0	-1	50
8739715	4994	71	0	-100	0	230	101300000	1000	0	0	-1	50
8752275	5003	69	0	-100	0	230	101300000	1000	0	0	-1	50
8764835	4994	71	0	-100	0	230	101300000	1000	0	0	-1	50
8777395	4998	69	0	-100	0	230	101300000	1000	0	0	-1	50
8789955	4994	70	0	-100	0	230	101300000	1000	0	0	-1	50
8802515	5003	67	0	-100	0	230	101300000	1000	0	0	-1	50
8815075	4994	71	0	-100	0	230	101300000	1000	0	0	-1	50
8827635	5002	67	0	-100	0	230	101300000	1000	0	0	-1	50
8840195	4997	75	0	-100	0	230	101300000	1000	0	0	-1	50
8852755	5003	68	0	-100	0	230	101300000	1000	0	0	-1	50
8865315	4993	74	0	-100	0	230	101300000	1000	0	0	-1	50
8877875	4997	66	0	-100	0	230	101300000	1000	0	0	-1	50
8890435	4997	71	0	-100	0	230	101300000	1000	0	0	-1	50
8902995	5000	75	0	-100	0	230	101300000	1000	0	0	-1	50
8915555	4994	76	0	-100	0	230	101300000	1000	0	0	-1	50
8928115	5001	67	0	-100	0	230	101300000	1000	0	0	-1	50
8940675	4993	71	0	-100	0	230	101300000	1000	0	0	-1	50
8953235	5003	67	0	-100	0	230	101300000	1000	0	0	-1	50
8965795	4993	72	0	-100	0	230	101300000	1000	0	0	-1	50
8978355	5000	68	0	-100	0	230	101300000	1000	0	0	-1	50
8990915	4997	74	0	-100	0	230	101300000	1000	0	0	-1	50
9003475	5001	68	0	-100	0	230	101300000	1000	0	0	-1	50
9016035	4993	73	0	-100	0	230	101300000	1000	0	0	-1	50
9028595	4997	67	0	-100	0	230	101300000	1000	0	0	-1	50
9041155	4993	70	0	-100	0	230	101300000	1000	0	0	-1	50
9053715	4993	72	0	-100	0	230	101300000	1000	0	0	-1	50
9066275	5002	68	0	-100	0	230	101300000	1000	0	0	-1	50
9078835	4997	72	0	-100	0	230	101300000	1000	0	0	-1	50
9091395	5001	67	0	-100	0	230	101300000	1000	0	0	-1	50
9103955	4995	74	0	-100	0	230	101300000	1000	0	0	-1	50
9116515	5000	68	0	-100	0	230	101300000	1000	0	0	-1	50
9129075	4994	74	0	-100	0	230	101300000	1000	0	0	-1	50
9141635	4999	67	0	-100	0	230	101300000	1000	0	0	-1	50
9154195	4993	72	0	-100	0	230	101300000	1000	0	0	-1	50
9166755	4991	71	0	-100	0	230	101300000	1000	0	0	-1	50
9179315	4999	69	0	-100	0	230	101300000	1000	0	0	-1	50
9191875	4993	72	0	-100	0	230	101300000	1000	0	0	-1	50
9204435	4995	71	0	-100	0	230	101300000	1000	0	0	-1	50
9216995	5001	75	0	-100	0	230	101300000	1000	0	0	-1	50
9229555	4997	73	0	-100	0	230	101300000	1000	0	0	-1	50
9242115	4995	67	0	-100	0	230	101300000	1000	0	0	-1	50
9254675	5003	70	0	-100	0	230	101300000	1000	0	0	-1	50
9267235	4994	74	0	-100	0	230	101300000	1000	0	0	-1	50
9279795	4995	67	0	-100	0	230	101300000	1000	0	0	-1	50
9292355	4998	71	0	-100	0	230	101300000	1000	0	0	-1	50
9304915	4993	72	0	-100	0	230	101300000	1000	0	0	-1	50
9317475	5000	67	0	-100	0	230	101300000	1000	0	0	-1	50
9330035	4995	75	0	-100	0	230	101300000	1000	0	0	-1	50
9342595	4999	69	0	-100	0	230	101300000	1000	0	0	-1	50
9355155	4990	74	0	-100	0	230	101300000	1000	0	0	-1	50
9367715	5000	67	0	-100	0	230	101300000	1000	0	0	-1	50
9380275	4997	71	0	-100	0	230	101300000	1000	0	0	-1	50
9392835	4994	71	0	-100	0	230	101300000	1000	0	0	-1	50
9405395	5005	69	0	-100	0	230	101300000	1000	0	0	-1	50
9417955	4997	71	0	-100	0	230	101300000	1000	0	0	-1	50
9430515	5000	69	0	-100	0	230	101300000	1000	0	0	-1	50
9443075	4995	72	0	-100	0	230	101300000	1000	0	0	-1	50
9455635	4991	72	0	-100	0	230	101300000	1000	0	0	-1	50
9468195	5004	69	0	-100	0	230	101300000	1000	0	0	-1	50
9480755	4997	75	0	-100	0	230	101300000	1000	0	0	-1	50
9493315	4997	68	0	-100	0	230	101300000	1000	0	0	-1	50
9505875	4998	69	0	-100	0	230	101300000	1000	0	0	-1	50
9518435	4991	72	0	-100	0	230	101300000	1000	0	0	-1	50
9530995	5000	73	0	-100	0	230	101300000	1000	0	0	-1	50
9543555	4995	75	0	-100	0	230	101300000	1000	0	0	-1	50
9556115	4994	68	0	-100	0	230	101300000	1000	0	0	-1	50
9568675	5002	67	0	-100	0	230	101300000	1000	0	0	-1	50
9581235	4994	71	0	-100	0	230	101300000	1000	0	0	-1	50
9593795	5005	69	0	-100	0	230	101300000	1000	0	0	-1	50
9606355	4993	72	0	-100	0	230	101300000	1000	0	0	-1	50
9618915	4995	70	0	-100	0	230	101300000	1000	0	0	-1	50
9631475	4998	66	0	-100	0	230	101300000	1000	0	0	-1	50
9644035	4994	76	0	-100	0	230	101300000	1000	0	0	-1	50
9656595	5003	68	0	-100	0	230	101300000	1000	0	0	-1	50
9669155	4993	68	0	-100	0	230	101300000	1000	0	0	-1	50
9681715	4994	73	0	-100	0	230	101300000	1000	0	0	-1	50
9694275	4999	66	0	-100	0	230	101300000	1000	0	0	-1	50
9706835	4994	72	0	-100	0	230	101300000	1000	0	0	-1	50
9719395	4997	71	0	-100	0	230	101300000	1000	0	0	-1	50
9731955	5001	64	0	-100	0	230	101300000	1000	0	0	-1	50
9744515	4995	67	0	-100	0	230	101300000	1000	0	0	-1	50
9757075	4995	74	0	-100	0	230	101300000	1000	0	0	-1	50
9769635	5003	67	0	-100	0	230	101300000	1000	0	0	-1	50
9782195	4998	67	0	-100	0	230	101300000	1000	0	0	-1	50
9794755	4995	75	0	-100	0	230	101300000	1000	0	0	-1	50
9807315	4999	67	0	-100	0	230	101300000	1000	0	0	-1	50
9819875	4995	69	0	-100	0	230	101300000	1000	0	0	-1	50
9832435	4995	71	0	-100	0	230	101300000	1000	0	0	-1	50
9844995	4994	67	0	-100	0	230	101300000	1000	0	0	-1	50
9857555	4995	72	0	-100	0	230	101300000	1000	0	0	-1	50
9870115	4998	67	0	-100	0	230	101300000	1000	0	0	-1	50
9882675	4997	75	0	-100	0	230	101300000	1000	0	0	-1	50
9895235	4999	67	0	-100	0	230	101300000	1000	0	0	-1	50
9907795	4995	72	0	-100	0	230	101300000	1000	0	0	-1	50
9920355	4995	68	0	-100	0	230	101300000	1000	0	0	-1	50
9932915	5001	69	0	-100	0	230	101300000	1000	0	0	-1	50
9945475	4989	71	0	-100	0	230	101300000	1000	0	0	-1	50
9958035	5004	67	0	-100	0	230	101300000	1000	0	0	-1	50
9970595	4999	72	0	-100	0	230	101300000	1000	0	0	-1	50
9983155	4994	68	0	-100	0	230	101300000	1000	0	0	-1	50
9995715	4994	74	0	-100	0	230	101300000	1000	0	0	-1	50
10008275	4994	68	0	-100	0	230	101300000	1000	0	0	-1	50
10020835	5001	66	0	-100	0	230	101300000	1000	0	0	-1	50
10033395	4995	74	0	-100	0	230	101300000	1000	0	0	-1	50
10045955	4995	69	0	-100	0	230	101300000	1000	0	0	-1	50
10058515	5005	67	0	-100	0	230	101300000	1000	0	0	-1	50
10071075	4992	70	0	-100	0	230	101300000	1000	0	0	-1	50
10083635	4997	70	0	-100	0	230	101300000	1000	0	0	-1	50
10096195	4995	70	0	-100	0	230	101300000	1000	0	0	-1	50
10108755	4999	70	0	-100	0	230	101300000	1000	0	0	-1	50
10121315	4995	68	0	-100	0	230	101300000	1000	0	0	-1	50
10133875	4997	69	0	-100	0	230	101300000	1000	0	0	-1	50
10146435	4993	71	0	-100	0	230	101300000	1000	0	0	-1	50
10158995	4999	75	0	-100	0	230	101300000	1000	0	0	-1	50
10171555	4993	69	0	-100	0	230	101300000	1000	0	0	-1	50
10184115	4998	70	0	-100	0	230	101300000	1000	0	0	-1	50
10196675	4994	68	0	-100	0	230	101300000	1000	0	0	-1	50
10209235	5002	68	0	-100	0	230	101300000	1000	0	0	-1	50
10221795	4998	68	0	-100	0	230	101300000	1000	0	0	-1	50
10234355	4993	71	0	-100	0	230	101300000	1000	0	0	-1	50
10246915	4999	67	0	-100	0	230	101300000	1000	0	0	-1	50
10259475	4997	71	0	-100	0	230	101300000	1000	0	0	-1	50
10272035	4999	68	0	-100	0	230	101300000	1000	0	0	-1	50
10284595	4995	68	0	-100	0	230	101300000	1000	0	0	-1	50
10297155	4990	76	0	-100	0	230	101300000	1000	0	0	-1	50
10309715	4999	67	0	-100	0	230	101300000	1000	0	0	-1	50
10322275	4994	71	0	-100	0	230	101300000	1000	0	0	-1	50
10334835	4995	70	0	-100	0	230	101300000	1000	0	0	-1	50
10347395	5000	67	0	-100	0	230	101300000	1000	0	0	-1	50
10359955	4994	73	0	-100	0	230	101300000	1000	0	0	-1	50
10372515	5001	68	0	-100	0	230	101300000	1000	0	0	-1	50
10385075	4990	75	0	-100	0	230	101300000	1000	0	0	-1	50
10397635	4999	67	0	-100	0	230	101300000	1000	0	0	-1	50
10410195	4993	71	0	-100	0	230	101300000	1000	0	0	-1	50
10422755	4997	68	0	-100	0	230	101300000	1000	0	0	-1	50
10435315	4995	72	0	-100	0	230	101300000	1000	0	0	-1	50
10447875	5000	67	0	-100	0	230	101300000	1000	0	0	-1	50
10460435	4995	71	0	-100	0	230	101300000	1000	0	0	-1	50
10472995	4999	75	0	-100	0	230	101300000	1000	0	0	-1	50
10485555	4994	68	0	-100	0	230	101300000	1000	0	0	-1	50
10498115	4994	72	0	-100	0	230	101300000	1000	0	0	-1	50
10510675	4999	67	0	-100	0	230	101300000	1000	0	0	-1	50
10523235	4995	73	0	-100	0	230	101300000	1000	0	0	-1	50
10535795	4999	69	0	-100	0	230	101300000	1000	0	0	-1	50
10548355	4994	74	0	-100	0	230	101300000	1000	0	0	-1	50
10560915	5000	69	0	-100	0	230	101300000	1000	0	0	-1	50
10573475	4997	74	0	-100	0	230	101300000	1000	0	0	-1	50
10586035	5008	66	0	-100	0	230	101300000	1000	0	0	-1	50
10598595	4998	68	0	-100	0	230	101300000	1000	0	0	-1	50
10611155	4999	71	0	-100	0	230	101300000	1000	0	0	-1	50
10623715	5004	66	0	-100	0	230	101300000	1000	0	0	-1	50
10636275	4999	71	0	-100	0	230	101300000	1000	0	0	-1	50
10648835	5006	64	0	-100	0	230	101300000	1000	0	0	-1	50
10661395	4998	71	0	-100	0	230	101300000	1000	0	0	-1	50
10673955	5000	69	0	-100	0	230	101300000	1000	0	0	-1	50
10686515	5004	66	0	-100	0	230	101300000	1000	0	0	-1	50
10699075	5003	72	0	-100	0	230	101300000	1000	0	0	-1	50
10711635	5004	67	0	-100	0	230	101300000	1000	0	0	-1	50
10724195	5003	71	0	-100	0	230	101300000	1000	0	0	-1	50
10736755	5004	67	0	-100	0	230	101300000	1000	0	0	-1	50
10749315	4999	72	0	-100	0	230	101300000	1000	0	0	-1	50
10761875	5006	66	0	-100	0	230	101300000	1000	0	0	-1	50
10774435	5000	73	0	-100	0	230	101300000	1000	0	0	-1	50
10786995	5000	65	0	-100	0	230	101300000	1000	0	0	-1	50
10799555	4995	74	0	-100	0	230	101300000	1000	0	0	-1	50
10812115	5004	66	0	-100	0	230	101300000	1000	0	0	-1	50
10824675	5000	73	0	-100	0	230	101300000	1000	0	0	-1	50
10837235	5002	67	0	-100	0	230	101300000	1000	0	0	-1	50
10849795	4999	71	0	-100	0	230	101300000	1000	0	0	-1	50
10862355	5006	67	0	-100	0	230	101300000	1000	0	0	-1	50
10874915	4999	73	0	-100	0	230	101300000	1000	0	0	-1	50
10887475	5002	67	0	-100	0	230	101300000	1000	0	0	-1	50
10900035	5003	71	0	-100	0	230	101300000	1000	0	0	-1	50
10912595	5003	66	0	-100	0	230	101300000	1000	0	0	-1	50
10925155	4995	69	0	-100	0	230	101300000	1000	0	0	-1	50
10937715	5001	67	0	-100	0	230	101300000	1000	0	0	-1	50
10950275	4999	73	0	-100	0	230	101300000	1000	0	0	-1	50
10962835	5007	64	0	-100	0	230	101300000	1000	0	0	-1	50
10975395	4997	70	0	-100	0	230	101300000	1000	0	0	-1	50
10987955	5005	65	0	-100	0	230	101300000	1000	0	0	-1	50
11000515	4997	67	0	-100	0	230	101300000	1000	0	0	-1	50
11013075	5001	67	0	-100	0	230	101300000	1000	0	0	-1	50
11025635	4995	72	0	-100	0	230	101300000	1000	0	0	-1	50
11038195	5002	68	0	-100	0	230	101300000	1000	0	0	-1	50
11050755	4994	71	0	-100	0	230	101300000	1000	0	0	-1	50
11063315	5002	69	0	-100	0	230	101300000	1000	0	0	-1	50
11075875	4993	70	0	-100	0	230	101300000	1000	0	0	-1	50
11088435	5004	68	0	-100	0	230	101300000	1000	0	0	-1	50
11100995	4994	65	0	-100	0	230	101300000	1000	0	0	-1	50
11113555	4995	72	0	-100	0	230	101300000	1000	0	0	-1	50
11126115	4999	69	0	-100	0	230	101300000	1000	0	0	-1	50
11138675	4994	75	0	-100	0	230	101300000	1000	0	0	-1	50
11151235	4999	65	0	-100	0	230	101300000	1000	0	0	-1	50
11163795	4997	71	0	-100	0	230	101300000	1000	0	0	-1	50
11176355	5004	69	0	-100	0	230	101300000	1000	0	0	-1	50
11188915	4994	71	0	-100	0	230	101300000	1000	0	0	-1	50
11201475	5006	67	0	-100	0	230	101300000	1000	0	0	-1	50
11214035	4999	71	0	-100	0	230	101300000	1000	0	0	-1	50
11226595	5000	65	0	-100	0	230	101300000	1000	0	0	-1	50
11239155	4989	75	0	-100	0	230	101300000	1000	0	0	-1	50
11251715	4998	67	0	-100	0	230	101300000	1000	0	0	-1	50
11264275	4992	71	0	-100	0	230	101300000	1000	0	0	-1	50
11276835	4998	67	0	-100	0	230	101300000	1000	0	0	-1	50
11289395	4995	71	0	-100	0	230	101300000	1000	0	0	-1	50
11301955	4995	68	0	-100	0	230	101300000	1000	0	0	-1	50
11314515	5001	69	0	-100	0	230	101300000	1000	0	0	-1	50
11327075	4998	74	0	-100	0	230	101300000	1000	0	0	-1	50
11339635	4999	69	0	-100	0	230	101300000	1000	0	0	-1	50
11352195	4993	73	0	-100	0	230	101300000	1000	0	0	-1	50
11364755	4993	68	0	-100	0	230	101300000	1000	0	0	-1	50
11377315	5002	68	0	-100	0	230	101300000	1000	0	0	-1	50
11389875	4999	73	0	-100	0	230	101300000	1000	0	0	-1	50
11402435	5001	64	0	-100	0	230	101300000	1000	0	0	-1	50
11414995	4994	67	0	-100	0	230	101300000	1000	0	0	-1	50
11427555	5000	67	0	-100	0	230	101300000	1000	0	0	-1	50
11440115	4999	67	0	-100	0	230	101300000	1000	0	0	-1	50
11452675	4994	72	0	-100	0	230	101300000	1000	0	0	-1	50
11465235	4999	67	0	-100	0	230	101300000	1000	0	0	-1	50
11477795	4995	71	0	-100	0	230	101300000	1000	0	0	-1	50
11490355	5000	67	0	-100	0	230	101300000	1000	0	0	-1	50
11502915	4994	71	0	-100	0	230	101300000	1000	0	0	-1	50
11515475	5000	67	0	-100	0	230	101300000	1000	0	0	-1	50
11528035	4995	75	0	-100	0	230	101300000	1000	0	0	-1	50
11540595	5002	69	0	-100	0	230	101300000	1000	0	0	-1	50
11553155	4991	68	0	-100	0	230	101300000	1000	0	0	-1	50
11565715	4998	72	0	-100	0	230	101300000	1000	0	0	-1	50
11578275	5001	68	0	-100	0	230	101300000	1000	0	0	-1	50
11590835	4994	70	0	-100	0	230	101300000	1000	0	0	-1	50
11603395	5002	68	0	-100	0	230	101300000	1000	0	0	-1	50
11615955	4994	71	0	-100	0	230	101300000	1000	0	0	-1	50
11628515	4998	70	0	-100	0	230	101300000	1000	0	0	-1	50
11641075	4995	68	0	-100	0	230	101300000	1000	0	0	-1	50
11653635	4995	71	0	-100	0	230	101300000	1000	0	0	-1	50
11666195	4995	67	0	-100	0	230	101300000	1000	0	0	-1	50
11678755	4995	75	0	-100	0	230	101300000	1000	0	0	-1	50
11691315	5000	65	0	-100	0	230	101300000	1000	0	0	-1	50
11703875	4999	71	0	-100	0	230	101300000	1000	0	0	-1	50
11716435	5001	66	0	-100	0	230	101300000	1000	0	0	-1	50
11728995	4997	67	0	-100	0	230	101300000	1000	0	0	-1	50
11741555	4999	67	0	-100	0	230	101300000	1000	0	0	-1	50
11754115	4997	75	0	-100	0	230	101300000	1000	0	0	-1	50
11766675	5001	67	0	-100	0	230	101300000	1000	0	0	-1	50
11779235	4995	74	0	-100	0	230	101300000	1000	0	0	-1	50
11791795	5000	67	0	-100	0	230	101300000	1000	0	0	-1	50
11804355	4995	74	0	-100	0	230	101300000	1000	0	0	-1	50
11816915	4994	68	0	-100	0	230	101300000	1000	0	0	-1	50
11829475	5004	67	0	-100	0	230	101300000	1000	0	0	-1	50
11842035	5000	75	0	-100	0	230	101300000	1000	0	0	-1	50
11854595	4998	67	0	-100	0	230	101300000	1000	0	0	-1	50
11867155	4990	70	0	-100	0	230	101300000	1000	0	0	-1	50
11879715	4997	71	0	-100	0	230	101300000	1000	0	0	-1	50
11892275	5002	68	0	-100	0	230	101300000	1000	0	0	-1	50
11904835	4993	71	0	-100	0	230	101300000	1000	0	0	-1	50
11917395	4995	71	0	-100	0	230	101300000	1000	0	0	-1	50
11929955	5000	67	0	-100	0	230	101300000	1000	0	0	-1	50
11942515	4995	70	0	-100	0	230	101300000	1000	0	0	-1	50
11955075	4997	69	0	-100	0	230	101300000	1000	0	0	-1	50
11967635	5000	67	0	-100	0	230	101300000	1000	0	0	-1	50
11980195	4995	71	0	-100	0	230	101300000	1000	0	0	-1	50
11992755	4994	71	0	-100	0	230	101300000	1000	0	0	-1	50
12005315	5000	67	0	-100	0	230	101300000	1000	0	0	-1	50
12017875	4994	72	0	-100	0	230	101300000	1000	0	0	-1	50
12030435	4994	74	0	-100	0	230	101300000	1000	0	0	-1	50
12042995	5001	75	0	-100	0	230	101300000	1000	0	0	-1	50
12055555	4994	71	0	-100	0	230	101300000	1000	0	0	-1	50
12068115	4994	74	0	-100	0	230	101300000	1000	0	0	-1	50
12080675	5001	64	0	-100	0	230	101300000	1000	0	0	-1	50
12093235	4994	71	0	-100	0	230	101300000	1000	0	0	-1	50
12105795	4989	72	0	-100	0	230	101300000	1000	0	0	-1	50
12118355	4999	68	0	-100	0	230	101300000	1000	0	0	-1	50
12130915	4999	74	0	-100	0	230	101300000	1000	0	0	-1	50
12143475	5005	68	0	-100	0	230	101300000	1000	0	0	-1	50
12156035	4997	68	0	-100	0	230	101300000	1000	0	0	-1	50
12168595	4995	72	0	-100	0	230	101300000	1000	0	0	-1	50
12181155	4995	68	0	-100	0	230	101300000	1000	0	0	-1	50
12193715	4994	67	0	-100	0	230	101300000	1000	0	0	-1	50
12206275	4995	73	0	-100	0	230	101300000	1000	0	0	-1	50
12218835	5004	67	0	-100	0	230	101300000	1000	0	0	-1	50
12231395	4998	67	0	-100	0	230	101300000	1000	0	0	-1	50
12243955	4994	71	0	-100	0	230	101300000	1000	0	0	-1	50
12256515	4993	72	0	-100	0	230	101300000	1000	0	0	-1	50
12269075	5001	67	0	-100	0	230	101300000	1000	0	0	-1	50
12281635	4999	68	0	-100	0	230	101300000	1000	0	0	-1	50
12294195	4993	75	0	-100	0	230	101300000	1000	0	0	-1	50
12306755	4998	69	0	-100	0	230	101300000	1000	0	0	-1	50
12319315	5001	68	0	-100	0	230	101300000	1000	0	0	-1	50
12331875	4993	71	0	-100	0	230	101300000	1000	0	0	-1	50
12344435	4995	73	0	-100	0	230	101300000	1000	0	0	-1	50
12356995	5005	75	0	-100	0	230	101300000	1000	0	0	-1	50
12369555	5000	67	0	-100	0	230	101300000	1000	0	0	-1	50
12382115	4994	70	0	-100	0	230	101300000	1000	0	0	-1	50
12394675	4995	71	0	-100	0	230	101300000	1000	0	0	-1	50
12407235	4998	67	0	-100	0	230	101300000	1000	0	0	-1	50
12419795	4994	75	0	-100	0	230	101300000	1000	0	0	-1	50
12432355	4998	68	0	-100	0	230	101300000	1000	0	0	-1	50
12444915	4998	67	0	-100	0	230	101300000	1000	0	0	-1	50
12457475	4997	74	0	-100	0	230	101300000	1000	0	0	-1	50
12470035	5001	67	0	-100	0	230	101300000	1000	0	0	-1	50
12482595	4998	76	0	-100	0	230	101300000	1000	0	0	-1	50
12495155	4998	71	0	-100	0	230	101300000	1000	0	0	-1	50
12507715	4998	69	0	-100	0	230	101300000	1000	0	0	-1	50
12520275	4998	71	0	-100	0	230	101300000	1000	0	0	-1	50
12532835	5001	67	0	-100	0	230	101300000	1000	0	0	-1	50
12545395	4997	73	0	-100	0	230	101300000	1000	0	0	-1	50
12557955	5008	68	0	-100	0	230	101300000	1000	0	0	-1	50
12570515	5000	67	0	-100	0	230	101300000	1000	0	0	-1	50
12583075	4998	74	0	-100	0	230	101300000	1000	0	0	-1	50
12595635	5004	68	0	-100	0	230	101300000	1000	0	0	-1	50
12608195	4998	67	0	-100	0	230	101300000	1000	0	0	-1	50
12620755	4993	75	0	-100	0	230	101300000	1000	0	0	-1	50
12633315	5005	69	0	-100	0	230	101300000	1000	0	0	-1	50
12645875	4997	67	0	-100	0	230	101300000	1000	0	0	-1	50
12658435	4997	72	0	-100	0	230	101300000	1000	0	0	-1	50
12670995	4999	72	0	-100	0	230	101300000	1000	0	0	-1	50
12683555	4999	71	0	-100	0	230	101300000	1000	0	0	-1	50
12696115	5003	68	0	-100	0	230	101300000	1000	0	0	-1	50
12708675	4995	68	0	-100	0	230	101300000	1000	0	0	-1	50
12721235	4995	73	0	-100	0	230	101300000	1000	0	0	-1	50
12733795	4999	68	0	-100	0	230	101300000	1000	0	0	-1	50
12746355	4998	69	0	-100	0	230	101300000	1000	0	0	-1	50
12758915	4998	75	0	-100	0	230	101300000	1000	0	0	-1	50
12771475	4998	68	0	-100	0	230	101300000	1000	0	0	-1	50
12784035	5000	67	0	-100	0	230	101300000	1000	0	0	-1	50
12796595	4997	71	0	-100	0	230	101300000	1000	0	0	-1	50
12809155	4989	71	0	-100	0	230	101300000	1000	0	0	-1	50
12821715	4996	68	0	-100	0	230	101300000	1000	0	0	-1	50
12834275	4993	75	0	-100	0	230	101300000	1000	0	0	-1	50
12846835	5003	69	0	-100	0	230	101300000	1000	0	0	-1	50
12859395	5000	66	0	-100	0	230	101300000	1000	0	0	-1	50
12871955	4993	70	0	-100	0	230	101300000	1000	0	0	-1	50
12884515	4998	70	0	-100	0	230	101300000	1000	0	0	-1	50
12897075	4999	67	0	-100	0	230	101300000	1000	0	0	-1	50
12909635	4994	72	0	-100	0	230	101300000	1000	0	0	-1	50
12922195	4999	68	0	-100	0	230	101300000	1000	0	0	-1	50
12934755	4995	72	0	-100	0	230	101300000	1000	0	0	-1	50
12947315	4999	67	0	-100	0	230	101300000	1000	0	0	-1	50
12959875	4995	74	0	-100	0	230	101300000	1000	0	0	-1	50
12972435	5002	64	0	-100	0	230	101300000	1000	0	0	-1	50
12984995	4994	65	0	-100	0	230	101300000	1000	0	0	-1	50
12997555	4994	72	0	-100	0	230	101300000	1000	0	0	-1	50
13010115	4999	69	0	-100	0	230	101300000	1000	0	0	-1	50
13022675	4997	70	0	-100	0	230	101300000	1000	0	0	-1	50
13035235	4997	71	0	-100	0	230	101300000	1000	0	0	-1	50
13047795	5000	69	0	-100	0	230	101300000	1000	0	0	-1	50
13060355	4993	71	0	-100	0	230	101300000	1000	0	0	-1	50
13072915	4995	71	0	-100	0	230	101300000	1000	0	0	-1	50
13085475	5000	66	0	-100	0	230	101300000	1000	0	0	-1	50
13098035	4994	70	0	-100	0	230	101300000	1000	0	0	-1	50
13110595	4995	71	0	-100	0	230	101300000	1000	0	0	-1	50
13123155	4995	68	0	-100	0	230	101300000	1000	0	0	-1	50
13135715	4995	71	0	-100	0	230	101300000	1000	0	0	-1	50
13148275	4998	71	0	-100	0	230	101300000	1000	0	0	-1	50
13160835	5001	66	0	-100	0	230	101300000	1000	0	0	-1	50
13173395	4993	71	0	-100	0	230	101300000	1000	0	0	-1	50
13185955	4994	73	0	-100	0	230	101300000	1000	0	0	-1	50
13198515	5001	66	0	-100	0	230	101300000	1000	0	0	-1	50
13211075	4994	71	0	-100	0	230	101300000	1000	0	0	-1	50
13223635	4995	70	0	-100	0	230	101300000	1000	0	0	-1	50
13236195	5001	67	0	-100	0	230	101300000	1000	0	0	-1	50
13248755	4994	71	0	-100	0	230	101300000	1000	0	0	-1	50
13261315	4998	69	0	-100	0	230	101300000	1000	0	0	-1	50
13273875	4997	67	0	-100	0	230	101300000	1000	0	0	-1	50
13286435	4995	72	0	-100	0	230	101300000	1000	0	0	-1	50
13298995	5001	70	0	-100	0	230	101300000	1000	0	0	-1	50
13311555	4995	75	0	-100	0	230	101300000	1000	0	0	-1	50
13324115	5001	67	0	-100	0	230	101300000	1000	0	0	-1	50
13336675	4997	76	0	-100	0	230	101300000	1000	0	0	-1	50
13349235	5001	67	0	-100	0	230	101300000	1000	0	0	-1	50
13361795	4998	74	0	-100	0	230	101300000	1000	0	0	-1	50
13374355	5002	65	0	-100	0	230	101300000	1000	0	0	-1	50
13386915	4995	76	0	-100	0	230	101300000	1000	0	0	-1	50
13399475	5002	64	0	-100	0	230	101300000	1000	0	0	-1	50
13412035	4994	75	0	-100	0	230	101300000	1000	0	0	-1	50
13424595	5001	67	0	-100	0	230	101300000	1000	0	0	-1	50
13437155	4989	75	0	-100	0	230	101300000	1000	0	0	-1	50
13449715	4999	68	0	-100	0	230	101300000	1000	0	0	-1	50
13462275	4992	71	0	-100	0	230	101300000	1000	0	0	-1	50
13474835	4998	66	0	-100	0	230	101300000	1000	0	0	-1	50
13487395	4997	74	0	-100	0	230	101300000	1000	0	0	-1	50
13499955	5001	66	0	-100	0	230	101300000	1000	0	0	-1	50
13512515	4993	71	0	-100	0	230	101300000	1000	0	0	-1	50
13525075	5001	67	0	-100	0	230	101300000	1000	0	0	-1	50
13537635	4995	71	0	-100	0	230	101300000	1000	0	0	-1	50
13550195	4997	71	0	-100	0	230	101300000	1000	0	0	-1	50
13562755	5000	67	0	-100	0	230	101300000	1000	0	0	-1	50
13575315	4992	73	0	-100	0	230	101300000	1000	0	0	-1	50
13587875	5000	67	0	-100	0	230	101300000	1000	0	0	-1	50
13600435	4997	71	0	-100	0	230	101300000	1000	0	0	-1	50
13612995	5001	68	0	-100	0	230	101300000	1000	0	0	-1	50
13625555	4999	72	0	-100	0	230	101300000	1000	0	0	-1	50
13638115	4999	67	0	-100	0	230	101300000	1000	0	0	-1	50
13650675	4995	70	0	-100	0	230	101300000	1000	0	0	-1	50
13663235	4995	71	0	-100	0	230	101300000	1000	0	0	-1	50
13675795	5001	69	0	-100	0	230	101300000	1000	0	0	-1	50
13688355	4991	71	0	-100	0	230	101300000	1000	0	0	-1	50
13700915	5008	71	0	-100	0	230	101300000	1000	0	0	-1	50
13713475	4999	75	0	-100	0	230	101300000	1000	0	0	-1	50
13726035	5001	67	0	-100	0	230	101300000	1000	0	0	-1	50
13738595	4994	73	0	-100	0	230	101300000	1000	0	0	-1	50
13751155	4988	71	0	-100	0	230	101300000	1000	0	0	-1	50
13763715	5002	68	0	-100	0	230	101300000	1000	0	0	-1	50
13776275	4998	72	0	-100	0	230	101300000	1000	0	0	-1	50
13788835	5000	67	0	-100	0	230	101300000	1000	0	0	-1	50
13801395	4997	71	0	-100	0	230	101300000	1000	0	0	-1	50
13813955	5002	68	0	-100	0	230	101300000	1000	0	0	-1	50
13826515	4993	71	0	-100	0	230	101300000	1000	0	0	-1	50
13839075	4998	68	0	-100	0	230	101300000	1000	0	0	-1	50
13851635	4997	70	0	-100	0	230	101300000	1000	0	0	-1	50
13864195	5005	67	0	-100	0	230	101300000	1000	0	0	-1	50
13876755	4997	71	0	-100	0	230	101300000	1000	0	0	-1	50
13889315	5000	68	0	-100	0	230	101300000	1000	0	0	-1	50
13901875	4997	67	0	-100	0	230	101300000	1000	0	0	-1	50
13914435	4994	74	0	-100	0	230	101300000	1000	0	0	-1	50
13926995	5000	72	0	-100	0	230	101300000	1000	0	0	-1	50
13939555	4997	71	0	-100	0	230	101300000	1000	0	0	-1	50
13952115	4998	69	0	-100	0	230	101300000	1000	0	0	-1	50
13964675	4998	67	0	-100	0	230	101300000	1000	0	0	-1	50
13977235	4994	73	0	-100	0	230	101300000	1000	0	0	-1	50
13989795	5001	67	0	-100	0	230	101300000	1000	0	0	-1	50
14002355	4998	71	0	-100	0	230	101300000	1000	0	0	-1	50
14014915	5004	69	0	-100	0	230	101300000	1000	0	0	-1	50
14027475	4997	68	0	-100	0	230	101300000	1000	0	0	-1	50
14040035	4993	72	0	-100	0	230	101300000	1000	0	0	-1	50
14052595	4997	67	0	-100	0	230	101300000	1000	0	0	-1	50
14065155	4988	71	0	-100	0	230	101300000	1000	0	0	-1	50
14077715	4993	70	0	-100	0	230	101300000	1000	0	0	-1	50
14090275	5000	67	0	-100	0	230	101300000	1000	0	0	-1	50
14102835	4991	71	0	-100	0	230	101300000	1000	0	0	-1	50
14115395	5002	66	0	-100	0	230	101300000	1000	0	0	-1	50
14127955	4997	76	0	-100	0	230	101300000	1000	0	0	-1	50
14140515	5001	67	0	-100	0	230	101300000	1000	0	0	-1	50
14153075	4995	72	0	-100	0	230	101300000	1000	0	0	-1	50
14165635	4995	67	0	-100	0	230	101300000	1000	0	0	-1	50
14178195	5001	69	0	-100	0	230	101300000	1000	0	0	-1	50
14190755	4994	71	0	-100	0	230	101300000	1000	0	0	-1	50
14203315	5001	64	0	-100	0	230	101300000	1000	0	0	-1	50
14215875	4995	74	0	-100	0	230	101300000	1000	0	0	-1	50
14228435	5001	67	0	-100	0	230	101300000	1000	0	0	-1	50
14240995	4997	68	0	-100	0	230	101300000	1000	0	0	-1	50
14253555	4999	68	0	-100	0	230	101300000	1000	0	0	-1	50
14266115	5002	68	0	-100	0	230	101300000	1000	0	0	-1	50
14278675	4990	72	0	-100	0	230	101300000	1000	0	0	-1	50
14291235	5001	67	0	-100	0	230	101300000	1000	0	0	-1	50
14303795	4995	71	0	-100	0	230	101300000	1000	0	0	-1	50
14316355	5004	68	0	-100	0	230	101300000	1000	0	0	-1	50
14328915	4993	71	0	-100	0	230	101300000	1000	0	0	-1	50
14341475	5002	66	0	-100	0	230	101300000	1000	0	0	-1	50
14354035	4997	75	0	-100	0	230	101300000	1000	0	0	-1	50
14366595	4998	66	0	-100	0	230	101300000	1000	0	0	-1	50
14379155	4993	71	0	-100	0	230	101300000	1000	0	0	-1	50
14391715	4999	74	0	-100	0	230	101300000	1000	0	0	-1	50
14404275	4996	67	0	-100	0	230	101300000	1000	0	0	-1	50
14416835	5001	68	0	-100	0	230	101300000	1000	0	0	-1	50
14429395	4994	74	0	-100	0	230	101300000	1000	0	0	-1	50
14441955	4993	71	0	-100	0	230	101300000	1000	0	0	-1	50
14454515	4996	67	0	-100	0	230	101300000	1000	0	0	-1	50
14467075	4999	67	0	-100	0	230	101300000	1000	0	0	-1	50
14479635	4995	74	0	-100	0	230	101300000	1000	0	0	-1	50
14492195	4997	67	0	-100	0	230	101300000	1000	0	0	-1	50
14504755	5004	67	0	-100	0	230	101300000	1000	0	0	-1	50
14517315	4993	72	0	-100	0	230	101300000	1000	0	0	-1	50
14529875	4993	71	0	-100	0	230	101300000	1000	0	0	-1	50
14542435	4999	66	0	-100	0	230	101300000	1000	0	0	-1	50
14554995	5000	75	0	-100	0	230	101300000	1000	0	0	-1	50
14567555	4995	75	0	-100	0	230	101300000	1000	0	0	-1	50
14580115	4999	67	0	-100	0	230	101300000	1000	0	0	-1	50
14592675	5003	68	0	-100	0	230	101300000	1000	0	0	-1	50
14605235	4994	74	0	-100	0	230	101300000	1000	0	0	-1	50
14617795	5001	67	0	-100	0	230	101300000	1000	0	0	-1	50
14630355	4999	70	0	-100	0	230	101300000	1000	0	0	-1	50
14642915	4998	74	0	-100	0	230	101300000	1000	0	0	-1	50
14655475	4999	67	0	-100	0	230	101300000	1000	0	0	-1	50
14668035	4994	72	0	-100	0	230	101300000	1000	0	0	-1	50
14680595	4996	68	0	-100	0	230	101300000	1000	0	0	-1	50
14693155	4990	74	0	-100	0	230	101300000	1000	0	0	-1	50
14705715	4994	70	0	-100	0	230	101300000	1000	0	0	-1	50
14718275	5003	69	0	-100	0	230	101300000	1000	0	0	-1	50
14730835	4997	74	0	-100	0	230	101300000	1000	0	0	-1	50
14743395	5000	67	0	-100	0	230	101300000	1000	0	0	-1	50
14755955	4997	76	0	-100	0	230	101300000	1000	0	0	-1	50
14768515	5000	67	0	-100	0	230	101300000	1000	0	0	-1	50
14781075	4993	71	0	-100	0	230	101300000	1000	0	0	-1	50
14793635	5004	68	0	-100	0	230	101300000	1000	0	0	-1	50
14806195	4995	75	0	-100	0	230	101300000	1000	0	0	-1	50
14818755	4998	66	0	-100	0	230	101300000	1000	0	0	-1	50
14831315	4995	71	0	-100	0	230	101300000	1000	0	0	-1	50
14843875	4997	68	0	-100	0	230	101300000	1000	0	0	-1	50
14856435	4999	69	0	-100	0	230	101300000	1000	0	0	-1	50
14868995	4994	69	0	-100	0	230	101300000	1000	0	0	-1	50
14881555	5002	67	0	-100	0	230	101300000	1000	0	0	-1	50
14894115	4994	74	0	-100	0	230	101300000	1000	0	0	-1	50
14906675	5001	67	0	-100	0	230	101300000	1000	0	0	-1	50
14919235	4998	70	0	-100	0	230	101300000	1000	0	0	-1	50
14931795	4991	72	0	-100	0	230	101300000	1000	0	0	-1	50
14944355	4999	67	0	-100	0	230	101300000	1000	0	0	-1	50
14956915	4994	72	0	-100	0	230	101300000	1000	0	0	-1	50
14969475	4997	66	0	-100	0	230	101300000	1000	0	0	-1	50
14982035	4995	75	0	-100	0	230	101300000	1000	0	0	-1	50
14994595	5001	67	0	-100	0	230	101300000	1000	0	0	-1	50
15007155	4990	76	0	-100	0	230	101300000	1000	0	0	-1	50
15019715	4999	68	0	-100	0	230	101300000	1000	0	0	-1	50
15032275	4997	71	0	-100	0	230	101300000	1000	0	0	-1	50
15044835	5001	69	0	-100	0	230	101300000	1000	0	0	-1	50
15057395	4992	71	0	-100	0	230	101300000	1000	0	0	-1	50
15069955	4998	68	0	-100	0	230	101300000	1000	0	0	-1	50
15082515	4994	67	0	-100	0	230	101300000	1000	0	0	-1	50
15095075	4994	73	0	-100	0	230	101300000	1000	0	0	-1	50
15107635	5000	68	0	-100	0	230	101300000	1000	0	0	-1	50
15120195	4995	71	0	-100	0	230	101300000	1000	0	0	-1	50
15132755	4999	68	0	-100	0	230	101300000	1000	0	0	-1	50
15145315	4995	71	0	-100	0	230	101300000	1000	0	0	-1	50
15157875	4999	67	0	-100	0	230	101300000	1000	0	0	-1	50
15170435	4994	74	0	-100	0	230	101300000	1000	0	0	-1	50
15182995	4999	70	0	-100	0	230	101300000	1000	0	0	-1	50
15195555	4994	74	0	-100	0	230	101300000	1000	0	0	-1	50
15208115	5003	69	0	-100	0	230	101300000	1000	0	0	-1	50
15220675	4994	69	0	-100	0	230	101300000	1000	0	0	-1	50
15233235	4997	71	0	-100	0	230	101300000	1000	0	0	-1	50
15245795	4999	68	0	-100	0	230	101300000	1000	0	0	-1	50
15258355	4994	72	0	-100	0	230	101300000	1000	0	0	-1	50
15270915	4999	67	0	-100	0	230	101300000	1000	0	0	-1	50
15283475	4994	72	0	-100	0	230	101300000	1000	0	0	-1	50
15296035	4996	68	0	-100	0	230	101300000	1000	0	0	-1	50
15308595	4994	74	0	-100	0	230	101300000	1000	0	0	-1	50
15321155	4994	70	0	-100	0	230	101300000	1000	0	0	-1	50
15333715	4989	70	0	-100	0	230	101300000	1000	0	0	-1	50
15346275	4998	71	0	-100	0	230	101300000	1000	0	0	-1	50
15358835	4999	67	0	-100	0	230	101300000	1000	0	0	-1	50
15371395	4995	75	0	-100	0	230	101300000	1000	0	0	-1	50
15383955	5004	66	0	-100	0	230	101300000	1000	0	0	-1	50
15396515	4998	72	0	-100	0	230	101300000	1000	0	0	-1	50
15409075	5001	67	0	-100	0	230	101300000	1000	0	0	-1	50
15421635	4999	67	0	-100	0	230	101300000	1000	0	0	-1	50
15434195	4994	73	0	-100	0	230	101300000	1000	0	0	-1	50
15446755	5001	68	0	-100	0	230	101300000	1000	0	0	-1	50
15459315	4993	70	0	-100	0	230	101300000	1000	0	0	-1	50
15471875	4995	72	0	-100	0	230	101300000	1000	0	0	-1	50
15484435	5003	67	0	-100	0	230	101300000	1000	0	0	-1	50
15496995	4990	67	0	-100	0	230	101300000	1000	0	0	-1	50
15509555	4994	73	0	-100	0	230	101300000	1000	0	0	-1	50
15522115	5000	65	0	-100	0	230	101300000	1000	0	0	-1	50
15534675	4995	71	0	-100	0	230	101300000	1000	0	0	-1	50
15547235	4993	73	0	-100	0	230	101300000	1000	0	0	-1	50
15559795	5005	67	0	-100	0	230	101300000	1000	0	0	-1	50
15572355	4997	68	0	-100	0	230	101300000	1000	0	0	-1	50
15584915	5000	70	0	-100	0	230	101300000	1000	0	0	-1	50
15597475	5002	66	0	-100	0	230	101300000	1000	0	0	-1	50
15610035	5003	70	0	-100	0	230	101300000	1000	0	0	-1	50
15622595	5001	67	0	-100	0	230	101300000	1000	0	0	-1	50
15635155	4996	69	0	-100	0	230	101300000	1000	0	0	-1	50
15647715	4999	69	0	-100	0	230	101300000	1000	0	0	-1	50
15660275	5002	67	0	-100	0	230	101300000	1000	0	0	-1	50
15672835	5000	70	0	-100	0	230	101300000	1000	0	0	-1	50
15685395	5006	66	0	-100	0	230	101300000	1000	0	0	-1	50
15697955	4999	69	0	-100	0	230	101300000	1000	0	0	-1	50
15710515	5001	67	0	-100	0	230	101300000	1000	0	0	-1	50
15723075	5000	67	0	-100	0	230	101300000	1000	0	0	-1	50
15735635	5002	70	0	-100	0	230	101300000	1000	0	0	-1	50
15748195	5001	66	0	-100	0	230	101300000	1000	0	0	-1	50
15760755	5001	69	0	-100	0	230	101300000	1000	0	0	-1	50
15773315	5001	66	0	-100	0	230	101300000	1000	0	0	-1	50
15785875	4999	71	0	-100	0	230	101300000	1000	0	0	-1	50
15798435	5006	65	0	-100	0	230	101300000	1000	0	0	-1	50
15810995	4995	67	0	-100	0	230	101300000	1000	0	0	-1	50
15823555	5006	67	0	-100	0	230	101300000	1000	0	0	-1	50
15836115	5000	74	0	-100	0	230	101300000	1000	0	0	-1	50
15848675	5010	67	0	-100	0	230	101300000	1000	0	0	-1	50
15861235	4999	68	0	-100	0	230	101300000	1000	0	0	-1	50
15873795	4999	71	0	-100	0	230	101300000	1000	0	0	-1	50
15886355	5004	67	0	-100	0	230	101300000	1000	0	0	-1	50
15898915	5003	69	0	-100	0	230	101300000	1000	0	0	-1	50
15911475	4999	65	0	-100	0	230	101300000	1000	0	0	-1	50
15924035	4999	66	0	-100	0	230	101300000	1000	0	0	-1	50
15936595	4996	71	0	-100	0	230	101300000	1000	0	0	-1	50
15949155	5002	65	0	-100	0	230	101300000	1000	0	0	-1	50
15961715	5000	72	0	-100	0	230	101300000	1000	0	0	-1	50
15974275	5004	65	0	-100	0	230	101300000	1000	0	0	-1	50
15986835	5001	71	0	-100	0	230	101300000	1000	0	0	-1	50
15999395	5005	67	0	-100	0	230	101300000	1000	0	0	-1	50
16011955	5000	72	0	-100	0	230	101300000	1000	0	0	-1	50
16024515	5004	67	0	-100	0	230	101300000	1000	0	0	-1	50
16037075	5000	73	0	-100	0	230	101300000	1000	0	0	-1	50
16049635	5005	65	0	-100	0	230	101300000	1000	0	0	-1	50
16062195	5000	70	0	-100	0	230	101300000	1000	0	0	-1	50
16074755	5003	66	0	-100	0	230	101300000	1000	0	0	-1	50
16087315	5002	71	0	-100	0	230	101300000	1000	0	0	-1	50
16099875	5002	67	0	-100	0	230	101300000	1000	0	0	-1	50
16112435	5000	75	0	-100	0	230	101300000	1000	0	0	-1	50
16124995	5004	72	0	-100	0	230	101300000	1000	0	0	-1	50
16137555	5001	69	0	-100	0	230	101300000	1000	0	0	-1	50
16150115	4998	70	0	-100	0	230	101300000	1000	0	0	-1	50
16162675	5005	67	0	-100	0	230	101300000	1000	0	0	-1	50
16175235	5000	72	0	-100	0	230	101300000	1000	0	0	-1	50
16187795	5002	66	0	-100	0	230	101300000	1000	0	0	-1	50
16200355	5000	72	0	-100	0	230	101300000	1000	0	0	-1	50
16212915	5005	63	0	-100	0	230	101300000	1000	0	0	-1	50
16225475	4997	69	0	-100	0	230	101300000	1000	0	0	-1	50
16238035	5000	69	0	-100	0	230	101300000	1000	0	0	-1	50
16250595	5004	65	0	-100	0	230	101300000	1000	0	0	-1	50
16263155	4995	74	0	-100	0	230	101300000	1000	0	0	-1	50
16275715	5006	67	0	-100	0	230	101300000	1000	0	0	-1	50
16288275	5001	70	0	-100	0	230	101300000	1000	0	0	-1	50
16300835	5009	64	0	-100	0	230	101300000	1000	0	0	-1	50
16313395	5001	72	0	-100	0	230	101300000	1000	0	0	-1	50
16325955	5000	68	0	-100	0	230	101300000	1000	0	0	-1	50
16338515	5006	67	0	-100	0	230	101300000	1000	0	0	-1	50
16351075	5001	69	0	-100	0	230	101300000	1000	0	0	-1	50
16363635	5000	71	0	-100	0	230	101300000	1000	0	0	-1	50
16376195	5006	66	0	-100	0	230	101300000	1000	0	0	-1	50
16388755	5003	65	0	-100	0	230	101300000	1000	0	0	-1	50
16401315	4999	73	0	-100	0	230	101300000	1000	0	0	-1	50
16413875	5009	67	0	-100	0	230	101300000	1000	0	0	-1	50
16426435	5009	65	0	-100	0	230	101300000	1000	0	0	-1	50
16438995	4996	68	0	-100	0	230	101300000	1000	0	0	-1	50
16451555	5000	71	0	-100	0	230	101300000	1000	0	0	-1	50
16464115	5008	67	0	-100	0	230	101300000	1000	0	0	-1	50
16476675	4999	68	0	-100	0	230	101300000	1000	0	0	-1	50
16489235	5000	71	0	-100	0	230	101300000	1000	0	0	-1	50
16501795	5005	67	0	-100	0	230	101300000	1000	0	0	-1	50
16514355	5003	75	0	-100	0	230	101300000	1000	0	0	-1	50
16526915	5010	66	0	-100	0	230	101300000	1000	0	0	-1	50
16539475	5003	66	0	-100	0	230	101300000	1000	0	0	-1	50
16552035	5001	71	0	-100	0	230	101300000	1000	0	0	-1	50
16564595	5004	65	0	-100	0	230	101300000	1000	0	0	-1	50
16577155	4995	71	0	-100	0	230	101300000	1000	0	0	-1	50
16589715	5006	64	0	-100	0	230	101300000	1000	0	0	-1	50
16602275	5000	71	0	-100	0	230	101300000	1000	0	0	-1	50
16614835	5006	66	0	-100	0	230	101300000	1000	0	0	-1	50
16627395	4999	73	0	-100	0	230	101300000	1000	0	0	-1	50
16639955	5001	67	0	-100	0	230	101300000	1000	0	0	-1	50
16652515	4998	73	0	-100	0	230	101300000	1000	0	0	-1	50
16665075	5006	67	0	-100	0	230	101300000	1000	0	0	-1	50
16677635	5003	75	0	-100	0	230	101300000	1000	0	0	-1	50
16690195	5005	66	0	-100	0	230	101300000	1000	0	0	-1	50
16702755	4998	73	0	-100	0	230	101300000	1000	0	0	-1	50
16715315	5002	66	0	-100	0	230	101300000	1000	0	0	-1	50
16727875	4998	72	0	-100	0	230	101300000	1000	0	0	-1	50
16740435	5006	65	0	-100	0	230	101300000	1000	0	0	-1	50
16752995	4998	67	0	-100	0	230	101300000	1000	0	0	-1	50
16765555	5005	68	0	-100	0	230	101300000	1000	0	0	-1	50
16778115	5004	67	0	-100	0	230	101300000	1000	0	0	-1	50
16790675	4999	72	0	-100	0	230	101300000	1000	0	0	-1	50
16803235	5010	67	0	-100	0	230	101300000	1000	0	0	-1	50
16815795	4999	68	0	-100	0	230	101300000	1000	0	0	-1	50
16828355	4997	71	0	-100	0	230	101300000	1000	0	0	-1	50
16840915	5006	63	0	-100	0	230	101300000	1000	0	0	-1	50
16853475	5000	68	0	-100	0	230	101300000	1000	0	0	-1	50
16866035	5008	66	0	-100	0	230	101300000	1000	0	0	-1	50
16878595	4998	71	0	-100	0	230	101300000	1000	0	0	-1	50
16891155	5001	68	0	-100	0	230	101300000	1000	0	0	-1	50
16903715	5001	67	0	-100	0	230	101300000	1000	0	0	-1	50
16916275	5000	70	0	-100	0	230	101300000	1000	0	0	-1	50
16928835	5001	67	0	-100	0	230	101300000	1000	0	0	-1	50
16941395	4998	71	0	-100	0	230	101300000	1000	0	0	-1	50
16953955	5002	67	0	-100	0	230	101300000	1000	0	0	-1	50
16966515	5000	71	0	-100	0	230	101300000	1000	0	0	-1	50
16979075	5005	66	0	-100	0	230	101300000	1000	0	0	-1	50
16991635	4998	73	0	-100	0	230	101300000	1000	0	0	-1	50
17004195	5006	63	0	-100	0	230	101300000	1000	0	0	-1	50
17016755	5001	70	0	-100	0	230	101300000	1000	0	0	-1	50
17029315	5007	68	0	-100	0	230	101300000	1000	0	0	-1	50
17041875	5001	70	0	-100	0	230	101300000	1000	0	0	-1	50
17054435	5004	67	0	-100	0	230	101300000	1000	0	0	-1	50
17066995	5001	67	0	-100	0	230	101300000	1000	0	0	-1	50
17079555	4999	71	0	-100	0	230	101300000	1000	0	0	-1	50
17092115	5005	66	0	-100	0	230	101300000	1000	0	0	-1	50
17104675	5000	70	0	-100	0	230	101300000	1000	0	0	-1	50
17117235	5004	66	0	-100	0	230	101300000	1000	0	0	-1	50
17129795	4998	71	0	-100	0	230	101300000	1000	0	0	-1	50
17142355	5000	68	0	-100	0	230	101300000	1000	0	0	-1	50
17154915	5005	67	0	-100	0	230	101300000	1000	0	0	-1	50
17167475	4997	67	0	-100	0	230	101300000	1000	0	0	-1	50
17180035	5003	70	0	-100	0	230	101300000	1000	0	0	-1	50
17192595	5002	67	0	-100	0	230	101300000	1000	0	0	-1	50
17205155	4995	73	0	-100	0	230	101300000	1000	0	0	-1	50
17217715	5005	67	0	-100	0	230	101300000	1000	0	0	-1	50
17230275	5001	73	0	-100	0	230	101300000	1000	0	0	-1	50
17242835	5005	66	0	-100	0	230	101300000	1000	0	0	-1	50
17255395	4999	74	0	-100	0	230	101300000	1000	0	0	-1	50
17267955	5006	67	0	-100	0	230	101300000	1000	0	0	-1	50
17280515	4998	72	0	-100	0	230	101300000	1000	0	0	-1	50
17293075	5004	64	0	-100	0	230	101300000	1000	0	0	-1	50
17305635	5003	72	0	-100	0	230	101300000	1000	0	0	-1	50
17318195	5005	66	0	-100	0	230	101300000	1000	0	0	-1	50
17330755	5000	74	0	-100	0	230	101300000	1000	0	0	-1	50
17343315	5005	65	0	-100	0	230	101300000	1000	0	0	-1	50
17355875	5000	73	0	-100	0	230	101300000	1000	0	0	-1	50
17368435	5005	67	0	-100	0	230	101300000	1000	0	0	-1	50
17380995	5001	67	0	-100	0	230	101300000	1000	0	0	-1	50
17393555	5006	67	0	-100	0	230	101300000	1000	0	0	-1	50
17406115	5000	65	0	-100	0	230	101300000	1000	0	0	-1	50
17418675	4998	71	0	-100	0	230	101300000	1000	0	0	-1	50
17431235	5006	66	0	-100	0	230	101300000	1000	0	0	-1	50
17443795	5000	68	0	-100	0	230	101300000	1000	0	0	-1	50
17456355	4998	67	0	-100	0	230	101300000	1000	0	0	-1	50
17468915	5001	65	0	-100	0	230	101300000	1000	0	0	-1	50
17481475	5000	71	0	-100	0	230	101300000	1000	0	0	-1	50
17494035	5004	66	0	-100	0	230	101300000	1000	0	0	-1	50
17506595	4999	69	0	-100	0	230	101300000	1000	0	0	-1	50
17519155	4996	68	0	-100	0	230	101300000	1000	0	0	-1	50
17531715	5000	67	0	-100	0	230	101300000	1000	0	0	-1	50
17544275	5002	70	0	-100	0	230	101300000	1000	0	0	-1	50
17556835	5004	67	0	-100	0	230	101300000	1000	0	0	-1	50
17569395	5000	70	0	-100	0	230	101300000	1000	0	0	-1	50
17581955	5001	67	0	-100	0	230	101300000	1000	0	0	-1	50
17594515	5004	71	0	-100	0	230	101300000	1000	0	0	-1	50
17607075	4998	67	0	-100	0	230	101300000	1000	0	0	-1	50
17619635	5008	67	0	-100	0	230	101300000	1000	0	0	-1	50
17632195	4996	71	0	-100	0	230	101300000	1000	0	0	-1	50
17644755	5003	70	0	-100	0	230	101300000	1000	0	0	-1	50
17657315	5002	65	0	-100	0	230	101300000	1000	0	0	-1	50
17669875	5001	74	0	-100	0	230	101300000	1000	0	0	-1	50
17682435	5001	66	0	-100	0	230	101300000	1000	0	0	-1	50
17694995	4999	64	0	-100	0	230	101300000	1000	0	0	-1	50
17707555	4999	68	0	-100	0	230	101300000	1000	0	0	-1	50
17720115	5002	66	0	-100	0	230	101300000	1000	0	0	-1	50
17732675	5002	70	0	-100	0	230	101300000	1000	0	0	-1	50
17745235	5009	66	0	-100	0	230	101300000	1000	0	0	-1	50
17757795	4998	67	0	-100	0	230	101300000	1000	0	0	-1	50
17770355	5000	72	0	-100	0	230	101300000	1000	0	0	-1	50
17782915	5004	64	0	-100	0	230	101300000	1000	0	0	-1	50
17795475	4999	72	0	-100	0	230	101300000	1000	0	0	-1	50
17808035	5001	65	0	-100	0	230	101300000	1000	0	0	-1	50
17820595	5000	71	0	-100	0	230	101300000	1000	0	0	-1	50
17833155	4997	69	0	-100	0	230	101300000	1000	0	0	-1	50
17845715	5002	71	0	-100	0	230	101300000	1000	0	0	-1	50
17858275	5007	65	0	-100	0	230	101300000	1000	0	0	-1	50
17870835	5001	74	0	-100	0	230	101300000	1000	0	0	-1	50
17883395	5005	63	0	-100	0	230	101300000	1000	0	0	-1	50
17895955	5000	73	0	-100	0	230	101300000	1000	0	0	-1	50
17908515	5005	66	0	-100	0	230	101300000	1000	0	0	-1	50
17921075	5001	70	0	-100	0	230	101300000	1000	0	0	-1	50
17933635	5009	67	0	-100	0	230	101300000	1000	0	0	-1	50
17946195	5001	65	0	-100	0	230	101300000	1000	0	0	-1	50
17958755	5003	73	0	-100	0	230	101300000	1000	0	0	-1	50
17971315	5002	67	0	-100	0	230	101300000	1000	0	0	-1	50
17983875	4994	67	0	-100	0	230	101300000	1000	0	0	-1	50
17996435	4997	71	0	-100	0	230	101300000	1000	0	0	-1	50
18008995	5000	71	0	-100	0	230	101300000	1000	0	0	-1	50
18021555	4993	72	0	-100	0	230	101300000	1000	0	0	-1	50
18034115	4995	71	0	-100	0	230	101300000	1000	0	0	-1	50
18046675	5001	67	0	-100	0	230	101300000	1000	0	0	-1	50
18059235	4997	72	0	-100	0	230	101300000	1000	0	0	-1	50
18071795	4999	68	0	-100	0	230	101300000	1000	0	0	-1	50
18084355	4992	73	0	-100	0	230	101300000	1000	0	0	-1	50
18096915	4994	69	0	-100	0	230	101300000	1000	0	0	-1	50
18109475	5005	68	0	-100	0	230	101300000	1000	0	0	-1	50
18122035	4990	71	0	-100	0	230	101300000	1000	0	0	-1	50
18134595	5004	67	0	-100	0	230	101300000	1000	0	0	-1	50
18147155	4989	73	0	-100	0	230	101300000	1000	0	0	-1	50
18159715	4995	70	0	-100	0	230	101300000	1000	0	0	-1	50
18172275	4996	67	0	-100	0	230	101300000	1000	0	0	-1	50
18184835	4998	76	0	-100	0	230	101300000	1000	0	0	-1	50
18197395	4998	69	0	-100	0	230	101300000	1000	0	0	-1	50
18209955	4998	67	0	-100	0	230	101300000	1000	0	0	-1	50
18222515	4997	75	0	-100	0	230	101300000	1000	0	0	-1	50
18235075	5000	67	0	-100	0	230	101300000	1000	0	0	-1	50
18247635	4998	67	0	-100	0	230	101300000	1000	0	0	-1	50
18260195	4997	75	0	-100	0	230	101300000	1000	0	0	-1	50
18272755	5001	65	0	-100	0	230	101300000	1000	0	0	-1	50
18285315	4995	75	0	-100	0	230	101300000	1000	0	0	-1	50
18297875	5000	64	0	-100	0	230	101300000	1000	0	0	-1	50
18310435	4993	70	0	-100	0	230	101300000	1000	0	0	-1	50
18322995	4997	71	0	-100	0	230	101300000	1000	0	0	-1	50
18335555	4998	67	0	-100	0	230	101300000	1000	0	0	-1	50
18348115	4997	73	0	-100	0	230	101300000	1000	0	0	-1	50
18360675	4997	71	0	-100	0	230	101300000	1000	0	0	-1	50
18373235	5001	67	0	-100	0	230	101300000	1000	0	0	-1	50
18385795	4993	71	0	-100	0	230	101300000	1000	0	0	-1	50
18398355	4997	74	0	-100	0	230	101300000	1000	0	0	-1	50
18410915	5001	69	0	-100	0	230	101300000	1000	0	0	-1	50
18423475	4999	67	0	-100	0	230	101300000	1000	0	0	-1	50
18436035	4994	71	0	-100	0	230	101300000	1000	0	0	-1	50
18448595	4999	70	0	-100	0	230	101300000	1000	0	0	-1	50
18461155	4993	68	0	-100	0	230	101300000	1000	0	0	-1	50
18473715	4998	73	0	-100	0	230	101300000	1000	0	0	-1	50
18486275	4995	71	0	-100	0	230	101300000	1000	0	0	-1	50
18498835	4999	67	0	-100	0	230	101300000	1000	0	0	-1	50
18511395	4993	72	0	-100	0	230	101300000	1000	0	0	-1	50
18523955	4999	67	0	-100	0	230	101300000	1000	0	0	-1	50
18536515	4997	68	0	-100	0	230	101300000	1000	0	0	-1	50
18549075	4993	74	0	-100	0	230	101300000	1000	0	0	-1	50
18561635	5000	67	0	-100	0	230	101300000	1000	0	0	-1	50
18574195	4997	76	0	-100	0	230	101300000	1000	0	0	-1	50
18586755	5000	67	0	-100	0	230	101300000	1000	0	0	-1	50
18599315	4994	69	0	-100	0	230	101300000	1000	0	0	-1	50
18611875	4993	72	0	-100	0	230	101300000	1000	0	0	-1	50
18624435	4999	69	0	-100	0	230	101300000	1000	0	0	-1	50
18636995	4997	69	0	-100	0	230	101300000	1000	0	0	-1	50
18649555	4998	67	0	-100	0	230	101300000	1000	0	0	-1	50
18662115	4994	67	0	-100	0	230	101300000	1000	0	0	-1	50
18674675	4994	71	0	-100	0	230	101300000	1000	0	0	-1	50
18687235	5000	67	0	-100	0	230	101300000	1000	0	0	-1	50
18699795	4994	74	0	-100	0	230	101300000	1000	0	0	-1	50
18712355	5000	65	0	-100	0	230	101300000	1000	0	0	-1	50
18724915	4997	67	0	-100	0	230	101300000	1000	0	0	-1	50
18737475	4992	74	0	-100	0	230	101300000	1000	0	0	-1	50
18750035	5004	67	0	-100	0	230	101300000	1000	0	0	-1	50
18762595	4994	68	0	-100	0	230	101300000	1000	0	0	-1	50
18775155	4987	74	0	-100	0	230	101300000	1000	0	0	-1	50
18787715	5000	67	0	-100	0	230	101300000	1000	0	0	-1	50
18800275	4995	75	0	-100	0	230	101300000	1000	0	0	-1	50
18812835	5001	70	0	-100	0	230	101300000	1000	0	0	-1	50
18825395	4993	71	0	-100	0	230	101300000	1000	0	0	-1	50
18837955	4995	72	0	-100	0	230	101300000	1000	0	0	-1	50
18850515	4999	67	0	-100	0	230	101300000	1000	0	0	-1	50
18863075	4994	71	0	-100	0	230	101300000	1000	0	0	-1	50
18875635	4999	71	0	-100	0	230	101300000	1000	0	0	-1	50
18888195	4998	67	0	-100	0	230	101300000	1000	0	0	-1	50
18900755	4998	72	0	-100	0	230	101300000	1000	0	0	-1	50
18913315	5000	67	0	-100	0	230	101300000	1000	0	0	-1	50
18925875	4993	70	0	-100	0	230	101300000	1000	0	0	-1	50
18938435	4994	73	0	-100	0	230	101300000	1000	0	0	-1	50
18950995	5001	72	0	-100	0	230	101300000	1000	0	0	-1	50
18963555	4994	73	0	-100	0	230	101300000	1000	0	0	-1	50
18976115	4998	71	0	-100	0	230	101300000	1000	0	0	-1	50
18988675	4999	67	0	-100	0	230	101300000	1000	0	0	-1	50
19001235	4994	72	0	-100	0	230	101300000	1000	0	0	-1	50
19013795	5001	67	0	-100	0	230	101300000	1000	0	0	-1	50
19026355	4995	73	0	-100	0	230	101300000	1000	0	0	-1	50
19038915	4999	68	0	-100	0	230	101300000	1000	0	0	-1	50
19051475	4993	73	0	-100	0	230	101300000	1000	0	0	-1	50
19064035	4995	67	0	-100	0	230	101300000	1000	0	0	-1	50
19076595	4997	75	0	-100	0	230	101300000	1000	0	0	-1	50
19089155	4995	70	0	-100	0	230	101300000	1000	0	0	-1	50
19101715	4995	75	0	-100	0	230	101300000	1000	0	0	-1	50
19114275	4995	68	0	-100	0	230	101300000	1000	0	0	-1	50
19126835	5001	67	0	-100	0	230	101300000	1000	0	0	-1	50
19139395	4992	71	0	-100	0	230	101300000	1000	0	0	-1	50
19151955	4995	73	0	-100	0	230	101300000	1000	0	0	-1	50
19164515	4998	68	0	-100	0	230	101300000	1000	0	0	-1	50
19177075	5003	65	0	-100	0	230	101300000	1000	0	0	-1	50
19189635	4994	68	0	-100	0	230	101300000	1000	0	0	-1	50
19202195	4992	74	0	-100	0	230	101300000	1000	0	0	-1	50
19214755	5000	67	0	-100	0	230	101300000	1000	0	0	-1	50
19227315	4998	67	0	-100	0	230	101300000	1000	0	0	-1	50
19239875	4995	75	0	-100	0	230	101300000	1000	0	0	-1	50
19252435	5007	67	0	-100	0	230	101300000	1000	0	0	-1	50
19264995	4995	69	0	-100	0	230	101300000	1000	0	0	-1	50
19277555	4993	73	0	-100	0	230	101300000	1000	0	0	-1	50
19290115	5000	67	0	-100	0	230	101300000	1000	0	0	-1	50
19302675	4991	70	0	-100	0	230	101300000	1000	0	0	-1	50
19315235	4998	70	0	-100	0	230	101300000	1000	0	0	-1	50
19327795	4997	68	0	-100	0	230	101300000	1000	0	0	-1	50
19340355	4995	74	0	-100	0	230	101300000	1000	0	0	-1	50
19352915	5000	65	0	-100	0	230	101300000	1000	0	0	-1	50
19365475	4997	71	0	-100	0	230	101300000	1000	0	0	-1	50
19378035	4998	69	0	-100	0	230	101300000	1000	0	0	-1	50
19390595	4999	67	0	-100	0	230	101300000	1000	0	0	-1	50
19403155	4989	75	0	-100	0	230	101300000	1000	0	0	-1	50
19415715	4998	68	0	-100	0	230	101300000	1000	0	0	-1	50
19428275	4994	74	0	-100	0	230	101300000	1000	0	0	-1	50
19440835	5000	68	0	-100	0	230	101300000	1000	0	0	-1	50
19453395	4994	75	0	-100	0	230	101300000	1000	0	0	-1	50
19465955	5000	67	0	-100	0	230	101300000	1000	0	0	-1	50
19478515	4993	69	0	-100	0	230	101300000	1000	0	0	-1	50
19491075	4998	75	0	-100	0	230	101300000	1000	0	0	-1	50
19503635	5004	67	0	-100	0	230	101300000	1000	0	0	-1	50
19516195	4993	71	0	-100	0	230	101300000	1000	0	0	-1	50
19528755	4997	71	0	-100	0	230	101300000	1000	0	0	-1	50
19541315	4999	68	0	-100	0	230	101300000	1000	0	0	-1	50
19553875	4999	75	0	-100	0	230	101300000	1000	0	0	-1	50
19566435	5000	66	0	-100	0	230	101300000	1000	0	0	-1	50
19578995	4993	69	0	-100	0	230	101300000	1000	0	0	-1	50
19591555	4995	72	0	-100	0	230	101300000	1000	0	0	-1	50
19604115	4999	66	0	-100	0	230	101300000	1000	0	0	-1	50
19616675	4993	74	0	-100	0	230	101300000	1000	0	0	-1	50
19629235	5001	68	0	-100	0	230	101300000	1000	0	0	-1	50
19641795	4998	71	0	-100	0	230	101300000	1000	0	0	-1	50
19654355	5002	69	0	-100	0	230	101300000	1000	0	0	-1	50
19666915	4994	71	0	-100	0	230	101300000	1000	0	0	-1	50
19679475	5003	67	0	-100	0	230	101300000	1000	0	0	-1	50
19692035	4994	68	0	-100	0	230	101300000	1000	0	0	-1	50
19704595	4997	70	0	-100	0	230	101300000	1000	0	0	-1	50
19717155	4989	69	0	-100	0	230	101300000	1000	0	0	-1	50
19729715	4994	74	0	-100	0	230	101300000	1000	0	0	-1	50
19742275	5000	67	0	-100	0	230	101300000	1000	0	0	-1	50
19754835	4992	71	0	-100	0	230	101300000	1000	0	0	-1	50
19767395	4998	67	0	-100	0	230	101300000	1000	0	0	-1	50
19779955	4993	75	0	-100	0	230	101300000	1000	0	0	-1	50
19792515	4998	67	0	-100	0	230	101300000	1000	0	0	-1	50
19805075	4993	72	0	-100	0	230	101300000	1000	0	0	-1	50
19817635	4995	68	0	-100	0	230	101300000	1000	0	0	-1	50
19830195	4999	67	0	-100	0	230	101300000	1000	0	0	-1	50
19842755	4994	72	0	-100	0	230	101300000	1000	0	0	-1	50
19855315	5002	69	0	-100	0	230	101300000	1000	0	0	-1	50
19867875	4993	71	0	-100	0	230	101300000	1000	0	0	-1	50
19880435	5000	67	0	-100	0	230	101300000	1000	0	0	-1	50
19892995	4997	68	0	-100	0	230	101300000	1000	0	0	-1	50
19905555	4998	67	0	-100	0	230	101300000	1000	0	0	-1	50
19918115	4997	75	0	-100	0	230	101300000	1000	0	0	-1	50
19930675	4999	67	0	-100	0	230	101300000	1000	0	0	-1	50
19943235	4995	71	0	-100	0	230	101300000	1000	0	0	-1	50
19955795	4995	69	0	-100	0	230	101300000	1000	0	0	-1	50
19968355	4999	70	0	-100	0	230	101300000	1000	0	0	-1	50
19980915	4998	67	0	-100	0	230	101300000	1000	0	0	-1	50
19993475	4993	74	0	-100	0	230	101300000	1000	0	0	-1	50
20006035	4998	67	0	-100	0	230	101300000	1000	0	0	-1	50
20018595	4997	75	0	-100	0	230	101300000	1000	0	0	-1	50
20031155	4995	69	0	-100	0	230	101300000	1000	0	0	-1	50
20043715	4990	72	0	-100	0	230	101300000	1000	0	0	-1	50
20056275	4995	71	0	-100	0	230	101300000	1000	0	0	-1	50
20068835	4997	67	0	-100	0	230	101300000	1000	0	0	-1	50
20081395	4993	71	0	-100	0	230	101300000	1000	0	0	-1	50
20093955	4994	67	0	-100	0	230	101300000	1000	0	0	-1	50
20106515	4998	70	0	-100	0	230	101300000	1000	0	0	-1	50
20119075	4995	68	0	-100	0	230	101300000	1000	0	0	-1	50
20131635	4994	71	0	-100	0	230	101300000	1000	0	0	-1	50
20144195	4999	67	0	-100	0	230	101300000	1000	0	0	-1	50
20156755	4995	73	0	-100	0	230	101300000	1000	0	0	-1	50
20169315	4999	67	0	-100	0	230	101300000	1000	0	0	-1	50
20181875	4995	73	0	-100	0	230	101300000	1000	0	0	-1	50
20194435	5001	66	0	-100	0	230	101300000	1000	0	0	-1	50
20206995	4998	67	0	-100	0	230	101300000	1000	0	0	-1	50
20219555	5002	64	0	-100	0	230	101300000	1000	0	0	-1	50
20232115	4994	71	0	-100	0	230	101300000	1000	0	0	-1	50
20244675	5000	66	0	-100	0	230	101300000	1000	0	0	-1	50
20257235	4993	75	0	-100	0	230	101300000	1000	0	0	-1	50
20269795	4999	67	0	-100	0	230	101300000	1000	0	0	-1	50
20282355	4993	72	0	-100	0	230	101300000	1000	0	0	-1	50
20294915	5000	67	0	-100	0	230	101300000	1000	0	0	-1	50
20307475	4998	67	0	-100	0	230	101300000	1000	0	0	-1	50
20320035	4993	71	0	-100	0	230	101300000	1000	0	0	-1	50
20332595	5003	67	0	-100	0	230	101300000	1000	0	0	-1	50
20345155	4987	76	0	-100	0	230	101300000	1000	0	0	-1	50
20357715	5003	67	0	-100	0	230	101300000	1000	0	0	-1	50
20370275	4993	71	0	-100	0	230	101300000	1000	0	0	-1	50
20382835	4995	69	0	-100	0	230	101300000	1000	0	0	-1	50
20395395	4997	67	0	-100	0	230	101300000	1000	0	0	-1	50
20407955	4993	74	0	-100	0	230	101300000	1000	0	0	-1	50
20420515	5000	67	0	-100	0	230	101300000	1000	0	0	-1	50
20433075	4995	72	0	-100	0	230	101300000	1000	0	0	-1	50
20445635	5007	69	0	-100	0	230	101300000	1000	0	0	-1	50
20458195	4998	67	0	-100	0	230	101300000	1000	0	0	-1	50
20470755	4997	73	0	-100	0	230	101300000	1000	0	0	-1	50
20483315	4999	67	0	-100	0	230	101300000	1000	0	0	-1	50
20495875	4993	68	0	-100	0	230	101300000	1000	0	0	-1	50
20508435	4993	73	0	-100	0	230	101300000	1000	0	0	-1	50
20520995	4999	71	0	-100	0	230	101300000	1000	0	0	-1	50
20533555	4994	71	0	-100	0	230	101300000	1000	0	0	-1	50
20546115	4992	71	0	-100	0	230	101300000	1000	0	0	-1	50
20558675	4999	69	0	-100	0	230	101300000	1000	0	0	-1	50
20571235	4995	75	0	-100	0	230	101300000	1000	0	0	-1	50
20583795	5003	67	0	-100	0	230	101300000	1000	0	0	-1	50
20596355	4992	71	0	-100	0	230	101300000	1000	0	0	-1	50
20608915	5000	70	0	-100	0	230	101300000	1000	0	0	-1	50
20621475	4994	67	0	-100	0	230	101300000	1000	0	0	-1	50
20634035	4994	71	0	-100	0	230	101300000	1000	0	0	-1	50
20646595	4999	67	0	-100	0	230	101300000	1000	0	0	-1	50
20659155	4990	75	0	-100	0	230	101300000	1000	0	0	-1	50
20671715	5001	66	0	-100	0	230	101300000	1000	0	0	-1	50
20684275	4994	71	0	-100	0	230	101300000	1000	0	0	-1	50
20696835	5001	67	0	-100	0	230	101300000	1000	0	0	-1	50
20709395	4993	72	0	-100	0	230	101300000	1000	0	0	-1	50
20721955	5000	69	0	-100	0	230	101300000	1000	0	0	-1	50
20734515	4998	68	0	-100	0	230	101300000	1000	0	0	-1	50
20747075	5002	67	0	-100	0	230	101300000	1000	0	0	-1	50
20759635	4995	70	0	-100	0	230	101300000	1000	0	0	-1	50
20772195	5000	69	0	-100	0	230	101300000	1000	0	0	-1	50
20784755	4994	71	0	-100	0	230	101300000	1000	0	0	-1	50
20797315	4997	68	0	-100	0	230	101300000	1000	0	0	-1	50
20809875	4993	67	0	-100	0	230	101300000	1000	0	0	-1	50
20822435	4993	75	0	-100	0	230	101300000	1000	0	0	-1	50
20834995	5001	71	0	-100	0	230	101300000	1000	0	0	-1	50
20847555	4993	72	0	-100	0	230	101300000	1000	0	0	-1	50
20860115	4995	71	0	-100	0	230	101300000	1000	0	0	-1	50
20872675	5004	67	0	-100	0	230	101300000	1000	0	0	-1	50
20885235	4995	74	0	-100	0	230	101300000	1000	0	0	-1	50
20897795	5003	68	0	-100	0	230	101300000	1000	0	0	-1	50
20910355	4995	69	0	-100	0	230	101300000	1000	0	0	-1	50
20922915	4994	73	0	-100	0	230	101300000	1000	0	0	-1	50
20935475	4999	67	0	-100	0	230	101300000	1000	0	0	-1	50
20948035	4991	67	0	-100	0	230	101300000	1000	0	0	-1	50
20960595	4993	73	0	-100	0	230	101300000	1000	0	0	-1	50
20973155	4994	68	0	-100	0	230	101300000	1000	0	0	-1	50
20985715	4991	72	0	-100	0	230	101300000	1000	0	0	-1	50
20998275	4997	69	0	-100	0	230	101300000	1000	0	0	-1	50
21010835	4996	67	0	-100	0	230	101300000	1000	0	0	-1	50
21023395	4994	74	0	-100	0	230	101300000	1000	0	0	-1	50
21035955	5000	64	0	-100	0	230	101300000	1000	0	0	-1	50
21048515	4990	71	0	-100	0	230	101300000	1000	0	0	-1	50
21061075	4995	71	0	-100	0	230	101300000	1000	0	0	-1	50
21073635	4998	66	0	-100	0	230	101300000	1000	0	0	-1	50
21086195	4995	75	0	-100	0	230	101300000	1000	0	0	-1	50
21098755	5000	65	0	-100	0	230	101300000	1000	0	0	-1	50
21111315	4997	76	0	-100	0	230	101300000	1000	0	0	-1	50
21123875	5000	66	0	-100	0	230	101300000	1000	0	0	-1	50
21136435	4993	71	0	-100	0	230	101300000	1000	0	0	-1	50
21148995	4997	71	0	-100	0	230	101300000	1000	0	0	-1	50
21161555	4999	68	0	-100	0	230	101300000	1000	0	0	-1	50
21174115	4991	71	0	-100	0	230	101300000	1000	0	0	-1	50
21186675	4998	70	0	-100	0	230	101300000	1000	0	0	-1	50
21199235	4995	67	0	-100	0	230	101300000	1000	0	0	-1	50
21211795	4995	71	0	-100	0	230	101300000	1000	0	0	-1	50
21224355	4999	67	0	-100	0	230	101300000	1000	0	0	-1	50
21236915	4992	73	0	-100	0	230	101300000	1000	0	0	-1	50
21249475	4999	66	0	-100	0	230	101300000	1000	0	0	-1	50
21262035	4995	75	0	-100	0	230	101300000	1000	0	0	-1	50
21274595	4999	69	0	-100	0	230	101300000	1000	0	0	-1	50
21287155	4984	71	0	-100	0	230	101300000	1000	0	0	-1	50
21299715	4995	71	0	-100	0	230	101300000	1000	0	0	-1	50
21312275	5001	68	0	-100	0	230	101300000	1000	0	0	-1	50
21324835	4994	75	0	-100	0	230	101300000	1000	0	0	-1	50
21337395	5002	67	0	-100	0	230	101300000	1000	0	0	-1	50
21349955	4994	69	0	-100	0	230	101300000	1000	0	0	-1	50
21362515	4998	71	0	-100	0	230	101300000	1000	0	0	-1	50
21375075	4999	69	0	-100	0	230	101300000	1000	0	0	-1	50
21387635	4995	76	0	-100	0	230	101300000	1000	0	0	-1	50
21400195	5001	69	0	-100	0	230	101300000	1000	0	0	-1	50
21412755	4995	69	0	-100	0	230	101300000	1000	0	0	-1	50
21425315	4998	71	0	-100	0	230	101300000	1000	0	0	-1	50
21437875	4999	67	0	-100	0	230	101300000	1000	0	0	-1	50
21450435	4998	73	0	-100	0	230	101300000	1000	0	0	-1	50
21462995	5001	74	0	-100	0	230	101300000	1000	0	0	-1	50
21475555	4995	70	0	-100	0	230	101300000	1000	0	0	-1	50
21488115	5000	67	0	-100	0	230	101300000	1000	0	0	-1	50
21500675	4993	69	0	-100	0	230	101300000	1000	0	0	-1	50
21513235	4995	73	0	-100	0	230	101300000	1000	0	0	-1	50
21525795	5001	68	0	-100	0	230	101300000	1000	0	0	-1	50
21538355	4993	71	0	-100	0	230	101300000	1000	0	0	-1	50
21550915	4998	71	0	-100	0	230	101300000	1000	0	0	-1	50
21563475	4996	68	0	-100	0	230	101300000	1000	0	0	-1	50
21576035	4997	73	0	-100	0	230	101300000	1000	0	0	-1	50
21588595	5000	65	0	-100	0	230	101300000	1000	0	0	-1	50
21601155	4989	78	0	-100	0	230	101300000	1000	0	0	-1	50
21613715	4997	66	0	-100	0	230	101300000	1000	0	0	-1	50
21626275	4992	75	0	-100	0	230	101300000	1000	0	0	-1	50
21638835	4998	71	0	-100	0	230	101300000	1000	0	0	-1	50
21651395	4999	67	0	-100	0	230	101300000	1000	0	0	-1	50
21663955	4994	75	0	-100	0	230	101300000	1000	0	0	-1	50
21676515	4999	68	0	-100	0	230	101300000	1000	0	0	-1	50
21689075	4995	75	0	-100	0	230	101300000	1000	0	0	-1	50
21701635	5001	68	0	-100	0	230	101300000	1000	0	0	-1	50
21714195	4993	75	0	-100	0	230	101300000	1000	0	0	-1	50
21726755	4997	69	0	-100	0	230	101300000	1000	0	0	-1	50
21739315	4991	71	0	-100	0	230	101300000	1000	0	0	-1	50
21751875	4994	71	0	-100	0	230	101300000	1000	0	0	-1	50
21764435	4998	67	0	-100	0	230	101300000	1000	0	0	-1	50
21776995	4993	71	0	-100	0	230	101300000	1000	0	0	-1	50
21789555	4999	67	0	-100	0	230	101300000	1000	0	0	-1	50
21802115	4997	73	0	-100	0	230	101300000	1000	0	0	-1	50
21814675	5001	68	0	-100	0	230	101300000	1000	0	0	-1	50
21827235	4999	71	0	-100	0	230	101300000	1000	0	0	-1	50
21839795	5001	68	0	-100	0	230	101300000	1000	0	0	-1	50
21852355	4990	71	0	-100	0	230	101300000	1000	0	0	-1	50
21864915	4999	67	0	-100	0	230	101300000	1000	0	0	-1	50
21877475	4990	71	0	-100	0	230	101300000	1000	0	0	-1	50
21890035	5000	65	0	-100	0	230	101300000	1000	0	0	-1	50
21902595	4998	75	0	-100	0	230	101300000	1000	0	0	-1	50
21915155	4995	68	0	-100	0	230	101300000	1000	0	0	-1	50
21927715	4994	75	0	-100	0	230	101300000	1000	0	0	-1	50
21940275	5001	67	0	-100	0	230	101300000	1000	0	0	-1	50
21952835	4997	71	0	-100	0	230	101300000	1000	0	0	-1	50
21965395	5001	65	0	-100	0	230	101300000	1000	0	0	-1	50
21977955	4997	76	0	-100	0	230	101300000	1000	0	0	-1	50
21990515	5004	67	0	-100	0	230	101300000	1000	0	0	-1	50
22003075	4993	75	0	-100	0	230	101300000	1000	0	0	-1	50
22015635	4998	68	0	-100	0	230	101300000	1000	0	0	-1	50
22028195	4994	72	0	-100	0	230	101300000	1000	0	0	-1	50
22040755	4998	67	0	-100	0	230	101300000	1000	0	0	-1	50
22053315	4995	71	0	-100	0	230	101300000	1000	0	0	-1	50
22065875	4995	67	0	-100	0	230	101300000	1000	0	0	-1	50
22078435	4993	74	0	-100	0	230	101300000	1000	0	0	-1	50
22090995	4999	71	0	-100	0	230	101300000	1000	0	0	-1	50
22103555	4995	75	0	-100	0	230	101300000	1000	0	0	-1	50
22116115	5001	66	0	-100	0	230	101300000	1000	0	0	-1	50
22128675	4998	74	0	-100	0	230	101300000	1000	0	0	-1	50
22141235	4996	69	0	-100	0	230	101300000	1000	0	0	-1	50
22153795	4995	74	0	-100	0	230	101300000	1000	0	0	-1	50
22166355	4998	67	0	-100	0	230	101300000	1000	0	0	-1	50
22178915	4995	73	0	-100	0	230	101300000	1000	0	0	-1	50
22191475	4998	68	0	-100	0	230	101300000	1000	0	0	-1	50
22204035	4997	71	0	-100	0	230	101300000	1000	0	0	-1	50
22216595	4993	72	0	-100	0	230	101300000	1000	0	0	-1	50
22229155	4995	65	0	-100	0	230	101300000	1000	0	0	-1	50
22241715	4993	75	0	-100	0	230	101300000	1000	0	0	-1	50
22254275	4998	67	0	-100	0	230	101300000	1000	0	0	-1	50
22266835	4998	70	0	-100	0	230	101300000	1000	0	0	-1	50
22279395	4990	70	0	-100	0	230	101300000	1000	0	0	-1	50
22291955	5003	67	0	-100	0	230	101300000	1000	0	0	-1	50
22304515	4999	75	0	-100	0	230	101300000	1000	0	0	-1	50
22317075	4996	68	0	-100	0	230	101300000	1000	0	0	-1	50
22329635	4995	70	0	-100	0	230	101300000	1000	0	0	-1	50
22342195	4995	69	0	-100	0	230	101300000	1000	0	0	-1	50
22354755	4999	68	0	-100	0	230	101300000	1000	0	0	-1	50
22367315	4995	74	0	-100	0	230	101300000	1000	0	0	-1	50
22379875	4996	67	0	-100	0	230	101300000	1000	0	0	-1	50
22392435	4995	71	0	-100	0	230	101300000	1000	0	0	-1	50
22404995	4994	68	0	-100	0	230	101300000	1000	0	0	-1	50
22417555	5000	67	0	-100	0	230	101300000	1000	0	0	-1	50
22430115	4993	75	0	-100	0	230	101300000	1000	0	0	-1	50
22442675	4995	67	0	-100	0	230	101300000	1000	0	0	-1	50
22455235	4997	71	0	-100	0	230	101300000	1000	0	0	-1	50
22467795	4991	71	0	-100	0	230	101300000	1000	0	0	-1	50
22480355	4999	69	0	-100	0	230	101300000	1000	0	0	-1	50
22492915	4994	73	0	-100	0	230	101300000	1000	0	0	-1	50
22505475	4995	70	0	-100	0	230	101300000	1000	0	0	-1	50
22518035	5000	67	0	-100	0	230	101300000	1000	0	0	-1	50
22530595	4997	74	0	-100	0	230	101300000	1000	0	0	-1	50
22543155	4991	69	0	-100	0	230	101300000	1000	0	0	-1	50
22555715	5004	67	0	-100	0	230	101300000	1000	0	0	-1	50
22568275	4993	75	0	-100	0	230	101300000	1000	0	0	-1	50
22580835	5000	67	0	-100	0	230	101300000	1000	0	0	-1	50
22593395	4994	71	0	-100	0	230	101300000	1000	0	0	-1	50
22605955	4993	70	0	-100	0	230	101300000	1000	0	0	-1	50
22618515	5003	68	0	-100	0	230	101300000	1000	0	0	-1	50
22631075	4999	73	0	-100	0	230	101300000	1000	0	0	-1	50
22643635	5005	68	0	-100	0	230	101300000	1000	0	0	-1	50
22656195	4992	71	0	-100	0	230	101300000	1000	0	0	-1	50
22668755	5000	71	0	-100	0	230	101300000	1000	0	0	-1	50
22681315	4994	68	0	-100	0	230	101300000	1000	0	0	-1	50
22693875	4993	71	0	-100	0	230	101300000	1000	0	0	-1	50
22706435	4998	67	0	-100	0	230	101300000	1000	0	0	-1	50
22718995	4994	67	0	-100	0	230	101300000	1000	0	0	-1	50
22731555	5001	65	0	-100	0	230	101300000	1000	0	0	-1	50
22744115	4999	71	0	-100	0	230	101300000	1000	0	0	-1	50
22756675	4999	71	0	-100	0	230	101300000	1000	0	0	-1	50
22769235	4999	67	0	-100	0	230	101300000	1000	0	0	-1	50
22781795	4994	74	0	-100	0	230	101300000	1000	0	0	-1	50
22794355	4996	67	0	-100	0	230	101300000	1000	0	0	-1	50
22806915	4994	75	0	-100	0	230	101300000	1000	0	0	-1	50
22819475	5001	68	0	-100	0	230	101300000	1000	0	0	-1	50
22832035	4993	72	0	-100	0	230	101300000	1000	0	0	-1	50
22844595	4999	68	0	-100	0	230	101300000	1000	0	0	-1	50
22857155	4989	69	0	-100	0	230	101300000	1000	0	0	-1	50
22869715	4995	71	0	-100	0	230	101300000	1000	0	0	-1	50
22882275	4998	69	0	-100	0	230	101300000	1000	0	0	-1	50
22894835	4997	75	0	-100	0	230	101300000	1000	0	0	-1	50
22907395	5001	67	0	-100	0	230	101300000	1000	0	0	-1	50
22919955	4994	75	0	-100	0	230	101300000	1000	0	0	-1	50
22932515	5002	66	0	-100	0	230	101300000	1000	0	0	-1	50
22945075	4993	71	0	-100	0	230	101300000	1000	0	0	-1	50
22957635	4997	71	0	-100	0	230	101300000	1000	0	0	-1	50
22970195	4997	67	0	-100	0	230	101300000	1000	0	0	-1	50
22982755	4995	71	0	-100	0	230	101300000	1000	0	0	-1	50
22995315	4997	67	0	-100	0	230	101300000	1000	0	0	-1	50
23007875	4995	74	0	-100	0	230	101300000	1000	0	0	-1	50
23020435	5001	67	0	-100	0	230	101300000	1000	0	0	-1	50
23032995	4998	68	0	-100	0	230	101300000	1000	0	0	-1	50
23045555	5001	69	0	-100	0	230	101300000	1000	0	0	-1	50
23058115	4992	71	0	-100	0	230	101300000	1000	0	0	-1	50
23070675	4999	70	0	-100	0	230	101300000	1000	0	0	-1	50
23083235	4996	68	0	-100	0	230	101300000	1000	0	0	-1	50
23095795	4993	75	0	-100	0	230	101300000	1000	0	0	-1	50
23108355	5003	67	0	-100	0	230	101300000	1000	0	0	-1	50
23120915	4998	67	0	-100	0	230	101300000	1000	0	0	-1	50
23133475	4994	75	0	-100	0	230	101300000	1000	0	0	-1	50
23146035	5001	68	0	-100	0	230	101300000	1000	0	0	-1	50
23158595	4997	69	0	-100	0	230	101300000	1000	0	0	-1	50
23171155	4990	75	0	-100	0	230	101300000	1000	0	0	-1	50
23183715	4999	68	0	-100	0	230	101300000	1000	0	0	-1	50
23196275	4993	75	0	-100	0	230	101300000	1000	0	0	-1	50
23208835	5000	65	0	-100	0	230	101300000	1000	0	0	-1	50
23221395	4999	73	0	-100	0	230	101300000	1000	0	0	-1	50
23233955	5003	67	0	-100	0	230	101300000	1000	0	0	-1	50
23246515	4995	71	0	-100	0	230	101300000	1000	0	0	-1	50
23259075	4995	74	0	-100	0	230	101300000	1000	0	0	-1	50
23271635	5005	67	0	-100	0	230	101300000	1000	0	0	-1	50
23284195	4998	67	0	-100	0	230	101300000	1000	0	0	-1	50
23296755	4995	75	0	-100	0	230	101300000	1000	0	0	-1	50
23309315	5003	67	0	-100	0	230	101300000	1000	0	0	-1	50
23321875	4994	67	0	-100	0	230	101300000	1000	0	0	-1	50
23334435	4994	74	0	-100	0	230	101300000	1000	0	0	-1	50
23346995	5004	76	0	-100	0	230	101300000	1000	0	0	-1	50
23359555	4995	68	0	-100	0	230	101300000	1000	0	0	-1	50
23372115	4994	73	0	-100	0	230	101300000	1000	0	0	-1	50
23384675	4998	67	0	-100	0	230	101300000	1000	0	0	-1	50
23422355	4997	75	0	-100	0	230	101300000	1000	0	0	-1	50
23434915	5001	67	0	-100	0	230	101300000	1000	0	0	-1	50
23447475	4995	74	0	-100	0	230	101300000	1000	0	0	-1	50
23460035	5000	68	0	-100	0	230	101300000	1000	0	0	-1	50
23472595	4995	75	0	-100	0	230	101300000	1000	0	0	-1	50
23485155	4993	69	0	-100	0	230	101300000	1000	0	0	-1	50
23497715	4998	73	0	-100	0	230	101300000	1000	0	0	-1	50
23510275	4995	70	0	-100	0	230	101300000	1000	0	0	-1	50
23522835	5000	67	0	-100	0	230	101300000	1000	0	0	-1	50
23535395	4995	75	0	-100	0	230	101300000	1000	0	0	-1	50
23547955	5000	65	0	-100	0	230	101300000	1000	0	0	-1	50
23560515	4990	71	0	-100	0	230	101300000	1000	0	0	-1	50
23635875	4990	71	0	-100	0	230	101300000	1000	0	0	-1	50
23648435	4995	69	0	-100	0	230	101300000	1000	0	0	-1	50
23660995	4994	68	0	-100	0	230	101300000	1000	0	0	-1	50
23673555	4997	69	0	-100	0	230	101300000	1000	0	0	-1	50
23686115	4998	69	0	-100	0	230	101300000	1000	0	0	-1	50
23698675	4993	73	0	-100	0	230	101300000	1000	0	0	-1	50
23711235	4996	67	0	-100	0	230	101300000	1000	0	0	-1	50
23723795	4994	74	0	-100	0	230	101300000	1000	0	0	-1	50
23736355	4999	67	0	-100	0	230	101300000	1000	0	0	-1	50
23748915	4995	74	0	-100	0	230	101300000	1000	0	0	-1	50
23761475	5001	67	0	-100	0	230	101300000	1000	0	0	-1	50
23774035	4994	73	0	-100	0	230	101300000	1000	0	0	-1	50
23786595	5001	67	0	-100	0	230	101300000	1000	0	0	-1	50
23799155	4993	77	0	-100	0	230	101300000	1000	0	0	-1	50
23811715	4999	67	0	-100	0	230	101300000	1000	0	0	-1	50
23824275	4994	71	0	-100	0	230	101300000	1000	0	0	-1	50
23836835	5003	68	0	-100	0	230	101300000	1000	0	0	-1	50
23849395	4994	71	0	-100	0	230	101300000	1000	0	0	-1	50
23861955	5000	67	0	-100	0	230	101300000	1000	0	0	-1	50
23874515	4995	75	0	-100	0	230	101300000	1000	0	0	-1	50
23887075	4997	67	0	-100	0	230	101300000	1000	0	0	-1	50
23899635	5004	67	0	-100	0	230	101300000	1000	0	0	-1	50
23912195	4995	74	0	-100	0	230	101300000	1000	0	0	-1	50
23924755	4995	68	0	-100	0	230	101300000	1000	0	0	-1	50
23937315	4995	71	0	-100	0	230	101300000	1000	0	0	-1	50
23949875	4995	68	0	-100	0	230	101300000	1000	0	0	-1	50
23962435	4997	74	0	-100	0	230	101300000	1000	0	0	-1	50
23974995	4999	69	0	-100	0	230	101300000	1000	0	0	-1	50
23987555	4994	71	0	-100	0	230	101300000	1000	0	0	-1	50
24000115	4993	70	0	-100	0	230	101300000	1000	0	0	-1	50
24012675	5001	66	0	-100	0	230	101300000	1000	0	0	-1	50
24025235	4994	74	0	-100	0	230	101300000	1000	0	0	-1	50
24037795	4999	68	0	-100	0	230	101300000	1000	0	0	-1	50
24050355	4994	74	0	-100	0	230	101300000	1000	0	0	-1	50
24062915	5001	67	0	-100	0	230	101300000	1000	0	0	-1	50
24075475	4998	73	0	-100	0	230	101300000	1000	0	0	-1	50
24088035	4998	67	0	-100	0	230	101300000	1000	0	0	-1	50
24100595	4995	74	0	-100	0	230	101300000	1000	0	0	-1	50
24113155	4994	71	0	-100	0	230	101300000	1000	0	0	-1	50
24125715	4995	75	0	-100	0	230	101300000	1000	0	0	-1	50
24138275	5003	67	0	-100	0	230	101300000	1000	0	0	-1	50
24150835	4994	69	0	-100	0	230	101300000	1000	0	0	-1	50
24163395	4995	72	0	-100	0	230	101300000	1000	0	0	-1	50
24175955	4996	67	0	-100	0	230	101300000	1000	0	0	-1	50
24188515	4995	74	0	-100	0	230	101300000	1000	0	0	-1	50
24201075	5005	67	0	-100	0	230	101300000	1000	0	0	-1	50
24213635	4994	71	0	-100	0	230	101300000	1000	0	0	-1	50
24226195	4995	71	0	-100	0	230	101300000	1000	0	0	-1	50
24238755	5001	68	0	-100	0	230	101300000	1000	0	0	-1	50
24251315	4995	75	0	-100	0	230	101300000	1000	0	0	-1	50
24263875	4999	67	0	-100	0	230	101300000	1000	0	0	-1	50
24276435	4995	71	0	-100	0	230	101300000	1000	0	0	-1	50
24288995	4998	69	0	-100	0	230	101300000	1000	0	0	-1	50
24301555	4994	68	0	-100	0	230	101300000	1000	0	0	-1	50
24314115	4998	72	0	-100	0	230	101300000	1000	0	0	-1	50
24326675	5001	67	0	-100	0	230	101300000	1000	0	0	-1	50
24339235	4998	69	0	-100	0	230	101300000	1000	0	0	-1	50
24351795	4992	74	0	-100	0	230	101300000	1000	0	0	-1	50
24364355	4997	68	0	-100	0	230	101300000	1000	0	0	-1	50
24376915	5000	69	0	-100	0	230	101300000	1000	0	0	-1	50
24389475	4994	72	0	-100	0	230	101300000	1000	0	0	-1	50
24402035	4997	68	0	-100	0	230	101300000	1000	0	0	-1	50
24414595	5005	68	0	-100	0	230	101300000	1000	0	0	-1	50
24427155	4990	78	0	-100	0	230	101300000	1000	0	0	-1	50
24439715	5000	68	0	-100	0	230	101300000	1000	0	0	-1	50
24452275	5001	65	0	-100	0	230	101300000	1000	0	0	-1	50
24464835	4995	72	0	-100	0	230	101300000	1000	0	0	-1	50
24477395	4993	73	0	-100	0	230	101300000	1000	0	0	-1	50
24489955	4997	67	0	-100	0	230	101300000	1000	0	0	-1	50
24502515	4995	69	0	-100	0	230	101300000	1000	0	0	-1	50
24515075	4994	71	0	-100	0	230	101300000	1000	0	0	-1	50
24527635	5000	64	0	-100	0	230	101300000	1000	0	0	-1	50
24540195	4998	75	0	-100	0	230	101300000	1000	0	0	-1	50
24552755	5001	66	0	-100	0	230	101300000	1000	0	0	-1	50
24565315	4994	75	0	-100	0	230	101300000	1000	0	0	-1	50
24577875	4999	68	0	-100	0	230	101300000	1000	0	0	-1	50
24590435	4993	75	0	-100	0	230	101300000	1000	0	0	-1	50
24602995	5000	67	0	-100	0	230	101300000	1000	0	0	-1	50
24615555	5000	68	0	-100	0	230	101300000	1000	0	0	-1	50
24628115	4995	70	0	-100	0	230	101300000	1000	0	0	-1	50
24640675	5000	66	0	-100	0	230	101300000	1000	0	0	-1	50
24653235	4998	74	0	-100	0	230	101300000	1000	0	0	-1	50
24665795	4997	67	0	-100	0	230	101300000	1000	0	0	-1	50
24678355	4994	73	0	-100	0	230	101300000	1000	0	0	-1	50
24690915	5000	67	0	-100	0	230	101300000	1000	0	0	-1	50
24703475	4991	71	0	-100	0	230	101300000	1000	0	0	-1	50
24716035	5003	67	0	-100	0	230	101300000	1000	0	0	-1	50
24728595	4997	71	0	-100	0	230	101300000	1000	0	0	-1	50
24741155	4996	70	0	-100	0	230	101300000	1000	0	0	-1	50
24753715	4994	75	0	-100	0	230	101300000	1000	0	0	-1	50
24766275	5000	64	0	-100	0	230	101300000	1000	0	0	-1	50
24778835	4993	71	0	-100	0	230	101300000	1000	0	0	-1	50
24791395	5001	68	0	-100	0	230	101300000	1000	0	0	-1	50
24803955	4994	73	0	-100	0	230	101300000	1000	0	0	-1	50
24816515	5000	63	0	-100	0	230	101300000	1000	0	0	-1	50
24829075	4994	71	0	-100	0	230	101300000	1000	0	0	-1	50
24841635	5000	67	0	-100	0	230	101300000	1000	0	0	-1	50
24854195	4991	71	0	-100	0	230	101300000	1000	0	0	-1	50
24866755	5001	67	0	-100	0	230	101300000	1000	0	0	-1	50
24879315	4993	70	0	-100	0	230	101300000	1000	0	0	-1	50
24891875	4997	69	0	-100	0	230	101300000	1000	0	0	-1	50
24904435	4998	67	0	-100	0	230	101300000	1000	0	0	-1	50
24916995	4995	68	0	-100	0	230	101300000	1000	0	0	-1	50
24929555	5003	68	0	-100	0	230	101300000	1000	0	0	-1	50
24942115	4993	70	0	-100	0	230	101300000	1000	0	0	-1	50
24954675	4998	69	0	-100	0	230	101300000	1000	0	0	-1	50
24967235	5001	67	0	-100	0	230	101300000	1000	0	0	-1	50
24979795	4995	70	0	-100	0	230	101300000	1000	0	0	-1	50
24992355	4997	76	0	-100	0	230	101300000	1000	0	0	-1	50
25004915	4998	70	0	-100	0	230	101300000	1000	0	0	-1	50
25017475	4999	67	0	-100	0	230	101300000	1000	0	0	-1	50
25030035	4994	67	0	-100	0	230	101300000	1000	0	0	-1	50
25042595	4998	74	0	-100	0	230	101300000	1000	0	0	-1	50
25055155	4989	75	0	-100	0	230	101300000	1000	0	0	-1	50
25067715	5002	69	0	-100	0	230	101300000	1000	0	0	-1	50
25080275	4999	67	0	-100	0	230	101300000	1000	0	0	-1	50
25092835	4993	71	0	-100	0	230	101300000	1000	0	0	-1	50
25105395	4992	75	0	-100	0	230	101300000	1000	0	0	-1	50
25117955	4999	68	0	-100	0	230	101300000	1000	0	0	-1	50
25130515	5001	66	0	-100	0	230	101300000	1000	0	0	-1	50
25143075	4999	68	0	-100	0	230	101300000	1000	0	0	-1	50
25155635	4997	67	0	-100	0	230	101300000	1000	0	0	-1	50
25168195	4993	71	0	-100	0	230	101300000	1000	0	0	-1	50
25180755	4995	74	0	-100	0	230	101300000	1000	0	0	-1	50
25193315	5000	67	0	-100	0	230	101300000	1000	0	0	-1	50
25205875	4997	67	0	-100	0	230	101300000	1000	0	0	-1	50
25218435	4995	75	0	-100	0	230	101300000	1000	0	0	-1	50
25230995	4995	70	0	-100	0	230	101300000	1000	0	0	-1	50
25243555	5002	69	0	-100	0	230	101300000	1000	0	0	-1	50
25256115	5000	67	0	-100	0	230	101300000	1000	0	0	-1	50
25268675	4995	67	0	-100	0	230	101300000	1000	0	0	-1	50
25281235	4994	76	0	-100	0	230	101300000	1000	0	0	-1	50
25293795	4993	71	0	-100	0	230	101300000	1000	0	0	-1	50
25306355	5000	68	0	-100	0	230	101300000	1000	0	0	-1	50
25318915	4994	71	0	-100	0	230	101300000	1000	0	0	-1	50
25331475	4992	71	0	-100	0	230	101300000	1000	0	0	-1	50
25344035	4999	66	0	-100	0	230	101300000	1000	0	0	-1	50
25356595	4993	68	0	-100	0	230	101300000	1000	0	0	-1	50
25369155	4989	76	0	-100	0	230	101300000	1000	0	0	-1	50
25381715	4997	68	0	-100	0	230	101300000	1000	0	0	-1	50
25394275	4999	68	0	-100	0	230	101300000	1000	0	0	-1	50
25406835	4997	67	0	-100	0	230	101300000	1000	0	0	-1	50
25419395	5002	75	0	-100	0	230	101300000	1000	0	0	-1	50
25431955	4995	71	0	-100	0	230	101300000	1000	0	0	-1	50
25444515	5005	69	0	-100	0	230	101300000	1000	0	0	-1	50
25457075	4999	67	0	-100	0	230	101300000	1000	0	0	-1	50
25469635	4998	73	0	-100	0	230	101300000	1000	0	0	-1	50
25482195	4993	72	0	-100	0	230	101300000	1000	0	0	-1	50
25494755	4999	67	0	-100	0	230	101300000	1000	0	0	-1	50
25507315	4998	66	0	-100	0	230	101300000	1000	0	0	-1	50
25519875	4995	72	0	-100	0	230	101300000	1000	0	0	-1	50
25532435	4995	73	0	-100	0	230	101300000	1000	0	0	-1	50
25544995	5000	73	0	-100	0	230	101300000	1000	0	0	-1	50
25557555	4995	71	0	-100	0	230	101300000	1000	0	0	-1	50
25570115	4995	71	0	-100	0	230	101300000	1000	0	0	-1	50
25582675	5003	68	0	-100	0	230	101300000	1000	0	0	-1	50
25595235	4990	71	0	-100	0	230	101300000	1000	0	0	-1	50
25607795	4994	71	0	-100	0	230	101300000	1000	0	0	-1	50
25620355	4998	67	0	-100	0	230	101300000	1000	0	0	-1	50
25632915	4993	71	0	-100	0	230	101300000	1000	0	0	-1	50
25645475	4993	75	0	-100	0	230	101300000	1000	0	0	-1	50
25658035	5001	68	0	-100	0	230	101300000	1000	0	0	-1	50
25670595	4999	67	0	-100	0	230	101300000	1000	0	0	-1	50
25683155	4990	75	0	-100	0	230	101300000	1000	0	0	-1	50
25695715	5000	69	0	-100	0	230	101300000	1000	0	0	-1	50
25708275	4994	67	0	-100	0	230	101300000	1000	0	0	-1	50
25720835	4997	75	0	-100	0	230	101300000	1000	0	0	-1	50
25733395	5002	69	0	-100	0	230	101300000	1000	0	0	-1	50
25745955	4997	75	0	-100	0	230	101300000	1000	0	0	-1	50
25758515	5001	67	0	-100	0	230	101300000	1000	0	0	-1	50
25771075	4995	67	0	-100	0	230	101300000	1000	0	0	-1	50
25783635	4994	74	0	-100	0	230	101300000	1000	0	0	-1	50
25796195	5001	68	0	-100	0	230	101300000	1000	0	0	-1	50
25808755	4995	67	0	-100	0	230	101300000	1000	0	0	-1	50
25821315	4990	75	0	-100	0	230	101300000	1000	0	0	-1	50
25833875	5000	69	0	-100	0	230	101300000	1000	0	0	-1	50
25846435	4994	68	0	-100	0	230	101300000	1000	0	0	-1	50
25858995	4994	70	0	-100	0	230	101300000	1000	0	0	-1	50
25871555	4998	68	0	-100	0	230	101300000	1000	0	0	-1	50
25884115	4994	74	0	-100	0	230	101300000	1000	0	0	-1	50
25896675	4999	66	0	-100	0	230	101300000	1000	0	0	-1	50
25909235	4995	74	0	-100	0	230	101300000	1000	0	0	-1	50
25921795	5000	67	0	-100	0	230	101300000	1000	0	0	-1	50
25934355	4994	69	0	-100	0	230	101300000	1000	0	0	-1	50
25946915	4993	72	0	-100	0	230	101300000	1000	0	0	-1	50
25959475	4999	67	0	-100	0	230	101300000	1000	0	0	-1	50
25972035	4991	72	0	-100	0	230	101300000	1000	0	0	-1	50
25984595	4995	71	0	-100	0	230	101300000	1000	0	0	-1	50
25997155	4991	67	0	-100	0	230	101300000	1000	0	0	-1	50
26009715	4995	75	0	-100	0	230	101300000	1000	0	0	-1	50
26022275	4997	67	0	-100	0	230	101300000	1000	0	0	-1	50
26034835	4996	67	0	-100	0	230	101300000	1000	0	0	-1	50
26047395	4993	75	0	-100	0	230	101300000	1000	0	0	-1	50
26059955	5004	67	0	-100	0	230	101300000	1000	0	0	-1	50
26072515	4994	68	0	-100	0	230	101300000	1000	0	0	-1	50
26085075	4994	73	0	-100	0	230	101300000	1000	0	0	-1	50
26097635	5000	67	0	-100	0	230	101300000	1000	0	0	-1	50
26110195	4994	70	0	-100	0	230	101300000	1000	0	0	-1	50
26122755	4995	69	0	-100	0	230	101300000	1000	0	0	-1	50
26135315	4995	69	0	-100	0	230	101300000	1000	0	0	-1	50
26147875	4993	75	0	-100	0	230	101300000	1000	0	0	-1	50
26160435	5000	67	0	-100	0	230	101300000	1000	0	0	-1	50
26172995	4999	71	0	-100	0	230	101300000	1000	0	0	-1	50
26185555	4994	72	0	-100	0	230	101300000	1000	0	0	-1	50
26198115	4994	72	0	-100	0	230	101300000	1000	0	0	-1	50
26210675	4996	66	0	-100	0	230	101300000	1000	0	0	-1	50
26223235	4997	67	0	-100	0	230	101300000	1000	0	0	-1	50
26235795	4995	75	0	-100	0	230	101300000	1000	0	0	-1	50
26248355	4997	69	0	-100	0	230	101300000	1000	0	0	-1	50
26260915	4996	68	0	-100	0	230	101300000	1000	0	0	-1	50
26273475	4995	75	0	-100	0	230	101300000	1000	0	0	-1	50
26286035	5004	68	0	-100	0	230	101300000	1000	0	0	-1	50
26298595	4998	67	0	-100	0	230	101300000	1000	0	0	-1	50
26311155	4987	75	0	-100	0	230	101300000	1000	0	0	-1	50
26323715	5003	67	0	-100	0	230	101300000	1000	0	0	-1	50
26336275	4995	68	0	-100	0	230	101300000	1000	0	0	-1	50
26348835	4994	75	0	-100	0	230	101300000	1000	0	0	-1	50
26361395	4994	70	0	-100	0	230	101300000	1000	0	0	-1	50
26373955	4995	68	0	-100	0	230	101300000	1000	0	0	-1	50
26386515	4997	72	0	-100	0	230	101300000	1000	0	0	-1	50
26399075	4998	72	0	-100	0	230	101300000	1000	0	0	-1	50
26411635	5001	68	0	-100	0	230	101300000	1000	0	0	-1	50
26424195	4997	70	0	-100	0	230	101300000	1000	0	0	-1	50
26436755	4994	73	0	-100	0	230	101300000	1000	0	0	-1	50
26449315	5000	64	0	-100	0	230	101300000	1000	0	0	-1	50
26461875	4997	70	0	-100	0	230	101300000	1000	0	0	-1	50
26474435	5003	68	0	-100	0	230	101300000	1000	0	0	-1	50
26562355	4990	71	0	-100	0	230	101300000	1000	0	0	-1	50
26574915	4993	72	0	-100	0	230	101300000	1000	0	0	-1	50
26587475	5003	68	0	-100	0	230	101300000	1000	0	0	-1	50
26600035	4998	73	0	-100	0	230	101300000	1000	0	0	-1	50
26612595	5001	68	0	-100	0	230	101300000	1000	0	0	-1	50
26625155	4988	72	0	-100	0	230	101300000	1000	0	0	-1	50
26637715	4997	71	0	-100	0	230	101300000	1000	0	0	-1	50
26650275	4997	67	0	-100	0	230	101300000	1000	0	0	-1	50
26662835	4995	74	0	-100	0	230	101300000	1000	0	0	-1	50
26675395	5003	68	0	-100	0	230	101300000	1000	0	0	-1	50
26687955	4993	71	0	-100	0	230	101300000	1000	0	0	-1	50
26738195	4997	73	0	-100	0	230	101300000	1000	0	0	-1	50
26750755	4999	65	0	-100	0	230	101300000	1000	0	0	-1	50
26763315	4995	67	0	-100	0	230	101300000	1000	0	0	-1	50
26775875	4994	70	0	-100	0	230	101300000	1000	0	0	-1	50
26788435	4993	72	0	-100	0	230	101300000	1000	0	0	-1	50
26800995	5000	74	0	-100	0	230	101300000	1000	0	0	-1	50
26813555	4995	68	0	-100	0	230	101300000	1000	0	0	-1	50
26826115	4995	70	0	-100	0	230	101300000	1000	0	0	-1	50
26838675	4995	72	0	-100	0	230	101300000	1000	0	0	-1	50
26851235	5004	68	0	-100	0	230	101300000	1000	0	0	-1	50
26863795	4999	67	0	-100	0	230	101300000	1000	0	0	-1	50
26876355	4993	67	0	-100	0	230	101300000	1000	0	0	-1	50
26888915	4997	72	0	-100	0	230	101300000	1000	0	0	-1	50
26901475	4994	72	0	-100	0	230	101300000	1000	0	0	-1	50
26914035	4997	69	0	-100	0	230	101300000	1000	0	0	-1	50
26926595	5001	68	0	-100	0	230	101300000	1000	0	0	-1	50
26939155	4995	67	0	-100	0	230	101300000	1000	0	0	-1	50
26951715	5001	67	0	-100	0	230	101300000	1000	0	0	-1	50
26964275	4993	71	0	-100	0	230	101300000	1000	0	0	-1	50
26976835	4993	74	0	-100	0	230	101300000	1000	0	0	-1	50
26989395	4995	71	0	-100	0	230	101300000	1000	0	0	-1	50
27001955	4998	68	0	-100	0	230	101300000	1000	0	0	-1	50
27014515	4991	71	0	-100	0	230	101300000	1000	0	0	-1	50
27027075	4993	75	0	-100	0	230	101300000	1000	0	0	-1	50
27039635	5001	64	0	-100	0	230	101300000	1000	0	0	-1	50
27052195	4995	73	0	-100	0	230	101300000	1000	0	0	-1	50
27064755	4992	72	0	-100	0	230	101300000	1000	0	0	-1	50
27077315	5002	69	0	-100	0	230	101300000	1000	0	0	-1	50
27089875	4998	67	0	-100	0	230	101300000	1000	0	0	-1	50
27102435	4994	71	0	-100	0	230	101300000	1000	0	0	-1	50
27114995	4998	67	0	-100	0	230	101300000	1000	0	0	-1	50
27127555	4994	73	0	-100	0	230	101300000	1000	0	0	-1	50
27140115	5001	66	0	-100	0	230	101300000	1000	0	0	-1	50
27152675	4995	71	0	-100	0	230	101300000	1000	0	0	-1	50
27165235	4998	69	0	-100	0	230	101300000	1000	0	0	-1	50
27177795	4999	68	0	-100	0	230	101300000	1000	0	0	-1	50
27190355	4993	75	0	-100	0	230	101300000	1000	0	0	-1	50
27202915	5000	67	0	-100	0	230	101300000	1000	0	0	-1	50
27215475	4994	75	0	-100	0	230	101300000	1000	0	0	-1	50
27228035	5000	66	0	-100	0	230	101300000	1000	0	0	-1	50
27240595	4998	75	0	-100	0	230	101300000	1000	0	0	-1	50
27253155	4995	68	0	-100	0	230	101300000	1000	0	0	-1	50
27265715	4993	71	0	-100	0	230	101300000	1000	0	0	-1	50
27278275	5005	67	0	-100	0	230	101300000	1000	0	0	-1	50
27290835	4991	71	0	-100	0	230	101300000	1000	0	0	-1	50
27303395	4994	71	0	-100	0	230	101300000	1000	0	0	-1	50
27315955	4998	67	0	-100	0	230	101300000	1000	0	0	-1	50
27328515	4993	74	0	-100	0	230	101300000	1000	0	0	-1	50
27341075	5001	67	0	-100	0	230	101300000	1000	0	0	-1	50
27353635	5000	74	0	-100	0	230	101300000	1000	0	0	-1	50
27366195	5000	69	0	-100	0	230	101300000	1000	0	0	-1	50
27378755	4993	72	0	-100	0	230	101300000	1000	0	0	-1	50
27391315	5000	69	0	-100	0	230	101300000	1000	0	0	-1	50
27403875	4999	67	0	-100	0	230	101300000	1000	0	0	-1	50
27416435	4994	73	0	-100	0	230	101300000	1000	0	0	-1	50
27428995	5001	72	0	-100	0	230	101300000	1000	0	0	-1	50
27441555	4997	75	0	-100	0	230	101300000	1000	0	0	-1	50
27454115	5002	69	0	-100	0	230	101300000	1000	0	0	-1	50
27466675	4994	68	0	-100	0	230	101300000	1000	0	0	-1	50
27479235	4993	73	0	-100	0	230	101300000	1000	0	0	-1	50
27491795	5001	67	0	-100	0	230	101300000	1000	0	0	-1	50
27504355	4991	71	0	-100	0	230	101300000	1000	0	0	-1	50
27516915	4994	71	0	-100	0	230	101300000	1000	0	0	-1	50
27529475	4997	67	0	-100	0	230	101300000	1000	0	0	-1	50
27542035	4994	75	0	-100	0	230	101300000	1000	0	0	-1	50
27554595	5001	67	0	-100	0	230	101300000	1000	0	0	-1	50
27567155	4990	77	0	-100	0	230	101300000	1000	0	0	-1	50
27579715	5004	69	0	-100	0	230	101300000	1000	0	0	-1	50
27592275	4995	70	0	-100	0	230	101300000	1000	0	0	-1	50
27604835	5004	68	0	-100	0	230	101300000	1000	0	0	-1	50
27617395	4997	67	0	-100	0	230	101300000	1000	0	0	-1	50
27629955	4995	75	0	-100	0	230	101300000	1000	0	0	-1	50
27642515	4997	67	0	-100	0	230	101300000	1000	0	0	-1	50
27655075	5001	69	0	-100	0	230	101300000	1000	0	0	-1	50
27667635	4993	69	0	-100	0	230	101300000	1000	0	0	-1	50
27680195	4995	73	0	-100	0	230	101300000	1000	0	0	-1	50
27692755	4999	65	0	-100	0	230	101300000	1000	0	0	-1	50
27705315	4997	70	0	-100	0	230	101300000	1000	0	0	-1	50
27717875	4995	73	0	-100	0	230	101300000	1000	0	0	-1	50
27730435	5000	66	0	-100	0	230	101300000	1000	0	0	-1	50
27742995	4991	65	0	-100	0	230	101300000	1000	0	0	-1	50
27755555	4992	71	0	-100	0	230	101300000	1000	0	0	-1	50
27768115	4999	68	0	-100	0	230	101300000	1000	0	0	-1	50
27780675	4991	71	0	-100	0	230	101300000	1000	0	0	-1	50
27793235	4993	72	0	-100	0	230	101300000	1000	0	0	-1	50
27805795	4996	67	0	-100	0	230	101300000	1000	0	0	-1	50
27818355	4991	71	0	-100	0	230	101300000	1000	0	0	-1	50
27830915	4999	70	0	-100	0	230	101300000	1000	0	0	-1	50
27843475	4999	68	0	-100	0	230	101300000	1000	0	0	-1	50
27856035	4995	75	0	-100	0	230	101300000	1000	0	0	-1	50
27868595	5001	67	0	-100	0	230	101300000	1000	0	0	-1	50
27881155	4988	73	0	-100	0	230	101300000	1000	0	0	-1	50
27893715	4999	71	0	-100	0	230	101300000	1000	0	0	-1	50
27906275	4998	68	0	-100	0	230	101300000	1000	0	0	-1	50
27918835	4993	75	0	-100	0	230	101300000	1000	0	0	-1	50
27931395	5004	68	0	-100	0	230	101300000	1000	0	0	-1	50
27943955	4994	67	0	-100	0	230	101300000	1000	0	0	-1	50
27956515	4997	75	0	-100	0	230	101300000	1000	0	0	-1	50
27969075	5000	67	0	-100	0	230	101300000	1000	0	0	-1	50
27981635	4995	70	0	-100	0	230	101300000	1000	0	0	-1	50
27994195	4990	72	0	-100	0	230	101300000	1000	0	0	-1	50
28006755	5000	67	0	-100	0	230	101300000	1000	0	0	-1	50
28019315	4994	67	0	-100	0	230	101300000	1000	0	0	-1	50
28031875	4997	74	0	-100	0	230	101300000	1000	0	0	-1	50
28044435	5001	68	0	-100	0	230	101300000	1000	0	0	-1	50
28056995	4994	68	0	-100	0	230	101300000	1000	0	0	-1	50
28069555	4995	75	0	-100	0	230	101300000	1000	0	0	-1	50
28082115	4999	68	0	-100	0	230	101300000	1000	0	0	-1	50
28094675	4998	67	0	-100	0	230	101300000	1000	0	0	-1	50
28107235	4994	71	0	-100	0	230	101300000	1000	0	0	-1	50
28119795	4998	68	0	-100	0	230	101300000	1000	0	0	-1	50
28132355	4994	75	0	-100	0	230	101300000	1000	0	0	-1	50
28144915	5000	67	0	-100	0	230	101300000	1000	0	0	-1	50
28157475	4994	72	0	-100	0	230	101300000	1000	0	0	-1	50
28170035	4998	71	0	-100	0	230	101300000	1000	0	0	-1	50
28182595	5000	67	0	-100	0	230	101300000	1000	0	0	-1	50
28195155	4993	75	0	-100	0	230	101300000	1000	0	0	-1	50
28207715	4999	67	0	-100	0	230	101300000	1000	0	0	-1	50
28220275	4998	67	0	-100	0	230	101300000	1000	0	0	-1	50
28232835	4995	73	0	-100	0	230	101300000	1000	0	0	-1	50
28245395	4998	68	0	-100	0	230	101300000	1000	0	0	-1	50
28257955	4994	71	0	-100	0	230	101300000	1000	0	0	-1	50
28270515	5003	67	0	-100	0	230	101300000	1000	0	0	-1	50
28283075	4996	67	0	-100	0	230	101300000	1000	0	0	-1	50
28295635	4997	75	0	-100	0	230	101300000	1000	0	0	-1	50
28308195	5004	64	0	-100	0	230	101300000	1000	0	0	-1	50
28320755	4991	70	0	-100	0	230	101300000	1000	0	0	-1	50
28333315	4997	73	0	-100	0	230	101300000	1000	0	0	-1	50
28345875	5000	67	0	-100	0	230	101300000	1000	0	0	-1	50
28358435	4998	74	0	-100	0	230	101300000	1000	0	0	-1	50
28370995	5000	74	0	-100	0	230	101300000	1000	0	0	-1	50
28383555	4997	73	0	-100	0	230	101300000	1000	0	0	-1	50
28396115	5004	67	0	-100	0	230	101300000	1000	0	0	-1	50
28408675	4997	68	0	-100	0	230	101300000	1000	0	0	-1	50
28421235	4997	71	0	-100	0	230	101300000	1000	0	0	-1	50
28433795	4994	66	0	-100	0	230	101300000	1000	0	0	-1	50
28446355	4993	75	0	-100	0	230	101300000	1000	0	0	-1	50
28458915	5001	69	0	-100	0	230	101300000	1000	0	0	-1	50
28471475	4997	67	0	-100	0	230	101300000	1000	0	0	-1	50
28484035	4995	72	0	-100	0	230	101300000	1000	0	0	-1	50
28496595	4999	68	0	-100	0	230	101300000	1000	0	0	-1	50
28509155	4985	72	0	-100	0	230	101300000	1000	0	0	-1	50
28521715	4994	73	0	-100	0	230	101300000	1000	0	0	-1	50
28534275	5000	66	0	-100	0	230	101300000	1000	0	0	-1	50
28546835	4992	71	0	-100	0	230	101300000	1000	0	0	-1	50
28559395	4993	71	0	-100	0	230	101300000	1000	0	0	-1	50
28571955	5001	67	0	-100	0	230	101300000	1000	0	0	-1	50
28584515	4995	72	0	-100	0	230	101300000	1000	0	0	-1	50
28597075	4994	72	0	-100	0	230	101300000	1000	0	0	-1	50
28609635	4999	67	0	-100	0	230	101300000	1000	0	0	-1	50
28622195	4997	76	0	-100	0	230	101300000	1000	0	0	-1	50
28634755	5003	67	0	-100	0	230	101300000	1000	0	0	-1	50
28647315	4994	69	0	-100	0	230	101300000	1000	0	0	-1	50
28659875	4994	71	0	-100	0	230	101300000	1000	0	0	-1	50
28672435	4997	67	0	-100	0	230	101300000	1000	0	0	-1	50
28684995	4998	71	0	-100	0	230	101300000	1000	0	0	-1	50
28697555	4995	70	0	-100	0	230	101300000	1000	0	0	-1	50
28710115	5000	69	0	-100	0	230	101300000	1000	0	0	-1	50
28722675	4990	71	0	-100	0	230	101300000	1000	0	0	-1	50
28735235	4998	70	0	-100	0	230	101300000	1000	0	0	-1	50
28747795	4993	68	0	-100	0	230	101300000	1000	0	0	-1	50
28760355	4995	74	0	-100	0	230	101300000	1000	0	0	-1	50
28772915	5001	67	0	-100	0	230	101300000	1000	0	0	-1	50
28785475	4998	72	0	-100	0	230	101300000	1000	0	0	-1	50
28798035	5001	67	0	-100	0	230	101300000	1000	0	0	-1	50
28810595	4998	68	0	-100	0	230	101300000	1000	0	0	-1	50
28823155	4986	73	0	-100	0	230	101300000	1000	0	0	-1	50
28835715	4997	67	0	-100	0	230	101300000	1000	0	0	-1	50
28848275	4994	74	0	-100	0	230	101300000	1000	0	0	-1	50
28860835	5001	65	0	-100	0	230	101300000	1000	0	0	-1	50
28873395	4994	71	0	-100	0	230	101300000	1000	0	0	-1	50
28885955	4998	74	0	-100	0	230	101300000	1000	0	0	-1	50
28898515	5002	68	0	-100	0	230	101300000	1000	0	0	-1	50
28911075	4990	71	0	-100	0	230	101300000	1000	0	0	-1	50
28923635	4998	71	0	-100	0	230	101300000	1000	0	0	-1	50
28936195	4996	68	0	-100	0	230	101300000	1000	0	0	-1	50
28948755	4992	73	0	-100	0	230	101300000	1000	0	0	-1	50
28961315	5000	67	0	-100	0	230	101300000	1000	0	0	-1	50
28973875	4998	75	0	-100	0	230	101300000	1000	0	0	-1	50
28986435	5004	68	0	-100	0	230	101300000	1000	0	0	-1	50
28998995	4990	67	0	-100	0	230	101300000	1000	0	0	-1	50
29011555	4999	71	0	-100	0	230	101300000	1000	0	0	-1	50
29024115	5001	67	0	-100	0	230	101300000	1000	0	0	-1	50
29036675	4993	75	0	-100	0	230	101300000	1000	0	0	-1	50
29049235	5001	68	0	-100	0	230	101300000	1000	0	0	-1	50
29061795	4994	70	0	-100	0	230	101300000	1000	0	0	-1	50
29074355	4997	71	0	-100	0	230	101300000	1000	0	0	-1	50
29086915	4999	67	0	-100	0	230	101300000	1000	0	0	-1	50
29099475	4994	75	0	-100	0	230	101300000	1000	0	0	-1	50
29112035	4999	67	0	-100	0	230	101300000	1000	0	0	-1	50
29124595	4991	68	0	-100	0	230	101300000	1000	0	0	-1	50
29137155	4990	75	0	-100	0	230	101300000	1000	0	0	-1	50
29149715	5001	68	0	-100	0	230	101300000	1000	0	0	-1	50
29162275	4993	71	0	-100	0	230	101300000	1000	0	0	-1	50
29174835	4998	72	0	-100	0	230	101300000	1000	0	0	-1	50
29187395	5001	67	0	-100	0	230	101300000	1000	0	0	-1	50
29199955	4994	75	0	-100	0	230	101300000	1000	0	0	-1	50
29212515	4999	69	0	-100	0	230	101300000	1000	0	0	-1	50
29225075	4996	67	0	-100	0	230	101300000	1000	0	0	-1	50
29237635	4999	76	0	-100	0	230	101300000	1000	0	0	-1	50
29250195	5004	68	0	-100	0	230	101300000	1000	0	0	-1	50
29262755	4993	72	0	-100	0	230	101300000	1000	0	0	-1	50
29275315	5000	67	0	-100	0	230	101300000	1000	0	0	-1	50
29287875	4995	68	0	-100	0	230	101300000	1000	0	0	-1	50
29300435	4990	72	0	-100	0	230	101300000	1000	0	0	-1	50
29312995	5000	71	0	-100	0	230	101300000	1000	0	0	-1	50
29325555	4993	71	0	-100	0	230	101300000	1000	0	0	-1	50
29338115	4995	71	0	-100	0	230	101300000	1000	0	0	-1	50
29350675	5001	67	0	-100	0	230	101300000	1000	0	0	-1	50
29363235	4994	71	0	-100	0	230	101300000	1000	0	0	-1	50
29375795	4995	72	0	-100	0	230	101300000	1000	0	0	-1	50
29388355	5000	67	0	-100	0	230	101300000	1000	0	0	-1	50
29400915	4993	71	0	-100	0	230	101300000	1000	0	0	-1	50
29413475	4995	72	0	-100	0	230	101300000	1000	0	0	-1	50
29488835	4998	71	0	-100	0	230	101300000	1000	0	0	-1	50
29501395	4998	66	0	-100	0	230	101300000	1000	0	0	-1	50
29513955	4994	76	0	-100	0	230	101300000	1000	0	0	-1	50
29526515	5000	68	0	-100	0	230	101300000	1000	0	0	-1	50
29539075	4997	68	0	-100	0	230	101300000	1000	0	0	-1	50
29551635	4998	70	0	-100	0	230	101300000	1000	0	0	-1	50
29564195	4999	67	0	-100	0	230	101300000	1000	0	0	-1	50
29576755	4995	75	0	-100	0	230	101300000	1000	0	0	-1	50
29589315	5000	68	0	-100	0	230	101300000	1000	0	0	-1	50
29601875	4993	71	0	-100	0	230	101300000	1000	0	0	-1	50
29614435	4995	70	0	-100	0	230	101300000	1000	0	0	-1	50
29689795	4998	69	0	-100	0	230	101300000	1000	0	0	-1	50
29702355	4998	67	0	-100	0	230	101300000	1000	0	0	-1	50
29714915	4994	76	0	-100	0	230	101300000	1000	0	0	-1	50
29727475	5004	67	0	-100	0	230	101300000	1000	0	0	-1	50
29740035	4999	67	0	-100	0	230	101300000	1000	0	0	-1	50
29752595	4997	75	0	-100	0	230	101300000	1000	0	0	-1	50
29765155	4991	71	0	-100	0	230	101300000	1000	0	0	-1	50
29777715	4998	67	0	-100	0	230	101300000	1000	0	0	-1	50
29790275	4997	74	0	-100	0	230	101300000	1000	0	0	-1	50
29802835	5004	68	0	-100	0	230	101300000	1000	0	0	-1	50
29815395	4995	69	0	-100	0	230	101300000	1000	0	0	-1	50
29827955	4995	72	0	-100	0	230	101300000	1000	0	0	-1	50
29840515	4999	67	0	-100	0	230	101300000	1000	0	0	-1	50
29853075	4995	75	0	-100	0	230	101300000	1000	0	0	-1	50
29865635	5005	67	0	-100	0	230	101300000	1000	0	0	-1	50
29878195	4998	67	0	-100	0	230	101300000	1000	0	0	-1	50
29890755	4994	74	0	-100	0	230	101300000	1000	0	0	-1	50
29903315	5000	67	0	-100	0	230	101300000	1000	0	0	-1	50
29915875	4992	71	0	-100	0	230	101300000	1000	0	0	-1	50
29928435	4993	72	0	-100	0	230	101300000	1000	0	0	-1	50
29940995	5004	72	0	-100	0	230	101300000	1000	0	0	-1	50
29953555	4997	75	0	-100	0	230	101300000	1000	0	0	-1	50
29966115	5000	69	0	-100	0	230	101300000	1000	0	0	-1	50
29978675	4997	67	0	-100	0	230	101300000	1000	0	0	-1	50
29991235	4994	74	0	-100	0	230	101300000	1000	0	0	-1	50
30003795	5005	68	0	-100	0	230	101300000	1000	0	0	-1	50
30016355	4999	67	0	-100	0	230	101300000	1000	0	0	-1	50
30028915	4998	75	0	-100	0	230	101300000	1000	0	0	-1	50
30041475	4997	71	0	-100	0	230	101300000	1000	0	0	-1	50
30054035	5000	68	0	-100	0	230	101300000	1000	0	0	-1	50
30066595	4990	72	0	-100	0	230	101300000	1000	0	0	-1	50
30079155	4989	73	0	-100	0	230	101300000	1000	0	0	-1	50
30091715	5000	66	0	-100	0	230	101300000	1000	0	0	-1	50
30104275	4993	69	0	-100	0	230	101300000	1000	0	0	-1	50
30116835	4994	71	0	-100	0	230	101300000	1000	0	0	-1	50
30129395	5000	68	0	-100	0	230	101300000	1000	0	0	-1	50
30141955	4994	72	0	-100	0	230	101300000	1000	0	0	-1	50
30154515	4995	71	0	-100	0	230	101300000	1000	0	0	-1	50
30167075	5001	67	0	-100	0	230	101300000	1000	0	0	-1	50
30179635	4993	70	0	-100	0	230	101300000	1000	0	0	-1	50
30192195	4993	75	0	-100	0	230	101300000	1000	0	0	-1	50
30204755	5001	68	0	-100	0	230	101300000	1000	0	0	-1	50
30217315	4996	68	0	-100	0	230	101300000	1000	0	0	-1	50
30229875	4998	75	0	-100	0	230	101300000	1000	0	0	-1	50
30242435	4997	71	0	-100	0	230	101300000	1000	0	0	-1	50
30254995	5001	72	0	-100	0	230	101300000	1000	0	0	-1	50
30267555	4998	67	0	-100	0	230	101300000	1000	0	0	-1	50
30280115	4994	75	0	-100	0	230	101300000	1000	0	0	-1	50
30292675	5001	69	0	-100	0	230	101300000	1000	0	0	-1	50
30305235	4995	68	0	-100	0	230	101300000	1000	0	0	-1	50
30317795	4992	74	0	-100	0	230	101300000	1000	0	0	-1	50
30330355	5007	67	0	-100	0	230	101300000	1000	0	0	-1	50
30342915	4995	67	0	-100	0	230	101300000	1000	0	0	-1	50
30355475	4995	75	0	-100	0	230	101300000	1000	0	0	-1	50
30368035	4997	70	0	-100	0	230	101300000	1000	0	0	-1	50
30380595	4998	67	0	-100	0	230	101300000	1000	0	0	-1	50
30393155	4988	77	0	-100	0	230	101300000	1000	0	0	-1	50
30405715	5000	66	0	-100	0	230	101300000	1000	0	0	-1	50
30418275	4993	70	0	-100	0	230	101300000	1000	0	0	-1	50
30430835	4994	71	0	-100	0	230	101300000	1000	0	0	-1	50
30443395	4995	67	0	-100	0	230	101300000	1000	0	0	-1	50
30455955	4997	75	0	-100	0	230	101300000	1000	0	0	-1	50
30468515	5004	68	0	-100	0	230	101300000	1000	0	0	-1	50
30481075	4998	67	0	-100	0	230	101300000	1000	0	0	-1	50
30493635	4993	74	0	-100	0	230	101300000	1000	0	0	-1	50
30506195	5001	67	0	-100	0	230	101300000	1000	0	0	-1	50
30518755	4996	68	0	-100	0	230	101300000	1000	0	0	-1	50
30531315	4999	73	0	-100	0	230	101300000	1000	0	0	-1	50
30543875	4995	72	0	-100	0	230	101300000	1000	0	0	-1	50
30556435	4999	66	0	-100	0	230	101300000	1000	0	0	-1	50
30568995	4994	67	0	-100	0	230	101300000	1000	0	0	-1	50
30581555	4997	73	0	-100	0	230	101300000	1000	0	0	-1	50
30594115	5000	69	0	-100	0	230	101300000	1000	0	0	-1	50
30606675	4997	76	0	-100	0	230	101300000	1000	0	0	-1	50
30619235	5000	66	0	-100	0	230	101300000	1000	0	0	-1	50
30631795	4999	71	0	-100	0	230	101300000	1000	0	0	-1	50
30644355	5003	67	0	-100	0	230	101300000	1000	0	0	-1	50
30656915	4991	71	0	-100	0	230	101300000	1000	0	0	-1	50
30669475	4999	69	0	-100	0	230	101300000	1000	0	0	-1	50
30682035	4993	68	0	-100	0	230	101300000	1000	0	0	-1	50
30694595	4994	74	0	-100	0	230	101300000	1000	0	0	-1	50
30707155	4993	67	0	-100	0	230	101300000	1000	0	0	-1	50
30719715	4999	74	0	-100	0	230	101300000	1000	0	0	-1	50
30732275	5000	65	0	-100	0	230	101300000	1000	0	0	-1	50
30744835	4994	72	0	-100	0	230	101300000	1000	0	0	-1	50
30757395	4995	70	0	-100	0	230	101300000	1000	0	0	-1	50
30769955	4999	67	0	-100	0	230	101300000	1000	0	0	-1	50
30782515	4997	75	0	-100	0	230	101300000	1000	0	0	-1	50
30795075	5000	68	0	-100	0	230	101300000	1000	0	0	-1	50
30807635	4997	68	0	-100	0	230	101300000	1000	0	0	-1	50
30820195	4994	75	0	-100	0	230	101300000	1000	0	0	-1	50
30832755	4997	70	0	-100	0	230	101300000	1000	0	0	-1	50
30845315	4996	68	0	-100	0	230	101300000	1000	0	0	-1	50
30857875	4995	71	0	-100	0	230	101300000	1000	0	0	-1	50
30870435	4995	71	0	-100	0	230	101300000	1000	0	0	-1	50
30882995	4998	70	0	-100	0	230	101300000	1000	0	0	-1	50
30895555	4998	75	0	-100	0	230	101300000	1000	0	0	-1	50
30908115	5001	67	0	-100	0	230	101300000	1000	0	0	-1	50
30920675	4993	70	0	-100	0	230	101300000	1000	0	0	-1	50
30933235	4993	71	0	-100	0	230	101300000	1000	0	0	-1	50
30945795	4996	68	0	-100	0	230	101300000	1000	0	0	-1	50
30958355	4995	75	0	-100	0	230	101300000	1000	0	0	-1	50
30970915	5001	69	0	-100	0	230	101300000	1000	0	0	-1	50
30983475	4993	70	0	-100	0	230	101300000	1000	0	0	-1	50
30996035	5000	68	0	-100	0	230	101300000	1000	0	0	-1	50
31008595	4995	67	0	-100	0	230	101300000	1000	0	0	-1	50
31021155	4989	76	0	-100	0	230	101300000	1000	0	0	-1	50
31033715	5000	67	0	-100	0	230	101300000	1000	0	0	-1	50
31046275	4995	75	0	-100	0	230	101300000	1000	0	0	-1	50
31058835	5002	69	0	-100	0	230	101300000	1000	0	0	-1	50
31071395	4995	75	0	-100	0	230	101300000	1000	0	0	-1	50
31083955	5001	67	0	-100	0	230	101300000	1000	0	0	-1	50
31096515	4997	75	0	-100	0	230	101300000	1000	0	0	-1	50
31109075	4998	67	0	-100	0	230	101300000	1000	0	0	-1	50
31121635	4995	73	0	-100	0	230	101300000	1000	0	0	-1	50
31134195	4998	67	0	-100	0	230	101300000	1000	0	0	-1	50
31146755	4998	73	0	-100	0	230	101300000	1000	0	0	-1	50
31159315	4996	69	0	-100	0	230	101300000	1000	0	0	-1	50
31171875	4997	76	0	-100	0	230	101300000	1000	0	0	-1	50
31184435	5002	65	0	-100	0	230	101300000	1000	0	0	-1	50
31196995	4997	67	0	-100	0	230	101300000	1000	0	0	-1	50
31209555	5001	66	0	-100	0	230	101300000	1000	0	0	-1	50
31222115	4990	71	0	-100	0	230	101300000	1000	0	0	-1	50
31234675	5004	65	0	-100	0	230	101300000	1000	0	0	-1	50
31247235	4993	71	0	-100	0	230	101300000	1000	0	0	-1	50
31259795	5001	69	0	-100	0	230	101300000	1000	0	0	-1	50
31272355	4993	70	0	-100	0	230	101300000	1000	0	0	-1	50
31284915	4993	71	0	-100	0	230	101300000	1000	0	0	-1	50
31297475	5000	68	0	-100	0	230	101300000	1000	0	0	-1	50
31310035	4995	75	0	-100	0	230	101300000	1000	0	0	-1	50
31322595	5004	67	0	-100	0	230	101300000	1000	0	0	-1	50
31335155	4988	73	0	-100	0	230	101300000	1000	0	0	-1	50
31347715	5005	69	0	-100	0	230	101300000	1000	0	0	-1	50
31360275	4995	70	0	-100	0	230	101300000	1000	0	0	-1	50
31372835	4993	71	0	-100	0	230	101300000	1000	0	0	-1	50
31385395	5001	68	0	-100	0	230	101300000	1000	0	0	-1	50
31397955	4993	70	0	-100	0	230	101300000	1000	0	0	-1	50
31410515	4997	70	0	-100	0	230	101300000	1000	0	0	-1	50
31423075	4996	67	0	-100	0	230	101300000	1000	0	0	-1	50
31435635	4997	71	0	-100	0	230	101300000	1000	0	0	-1	50
31448195	4994	68	0	-100	0	230	101300000	1000	0	0	-1	50
31460755	5005	67	0	-100	0	230	101300000	1000	0	0	-1	50
31473315	4995	76	0	-100	0	230	101300000	1000	0	0	-1	50
31485875	4999	68	0	-100	0	230	101300000	1000	0	0	-1	50
31498435	4995	71	0	-100	0	230	101300000	1000	0	0	-1	50
31510995	4994	69	0	-100	0	230	101300000	1000	0	0	-1	50
31523555	5000	68	0	-100	0	230	101300000	1000	0	0	-1	50
31536115	4994	67	0	-100	0	230	101300000	1000	0	0	-1	50
31548675	4994	73	0	-100	0	230	101300000	1000	0	0	-1	50
31561235	4996	67	0	-100	0	230	101300000	1000	0	0	-1	50
31573795	4995	74	0	-100	0	230	101300000	1000	0	0	-1	50
31586355	5000	67	0	-100	0	230	101300000	1000	0	0	-1	50
31598915	4998	76	0	-100	0	230	101300000	1000	0	0	-1	50
31611475	5005	67	0	-100	0	230	101300000	1000	0	0	-1	50
31624035	4995	69	0	-100	0	230	101300000	1000	0	0	-1	50
31636595	4993	71	0	-100	0	230	101300000	1000	0	0	-1	50
31649155	4993	70	0	-100	0	230	101300000	1000	0	0	-1	50
31661715	4995	74	0	-100	0	230	101300000	1000	0	0	-1	50
31674275	5000	64	0	-100	0	230	101300000	1000	0	0	-1	50
31686835	4994	72	0	-100	0	230	101300000	1000	0	0	-1	50
31699395	4995	71	0	-100	0	230	101300000	1000	0	0	-1	50
31711955	5000	67	0	-100	0	230	101300000	1000	0	0	-1	50
31724515	4994	75	0	-100	0	230	101300000	1000	0	0	-1	50
31737075	4999	67	0	-100	0	230	101300000	1000	0	0	-1	50
31749635	4998	72	0	-100	0	230	101300000	1000	0	0	-1	50
31762195	5003	68	0	-100	0	230	101300000	1000	0	0	-1	50
31774755	4993	70	0	-100	0	230	101300000	1000	0	0	-1	50
31787315	4997	71	0	-100	0	230	101300000	1000	0	0	-1	50
31799875	4997	67	0	-100	0	230	101300000	1000	0	0	-1	50
31812435	4997	74	0	-100	0	230	101300000	1000	0	0	-1	50
31824995	5001	74	0	-100	0	230	101300000	1000	0	0	-1	50
31837555	4995	70	0	-100	0	230	101300000	1000	0	0	-1	50
31850115	4995	71	0	-100	0	230	101300000	1000	0	0	-1	50
31862675	4993	69	0	-100	0	230	101300000	1000	0	0	-1	50
31875235	5000	68	0	-100	0	230	101300000	1000	0	0	-1	50
31887795	4997	67	0	-100	0	230	101300000	1000	0	0	-1	50
31900355	4997	71	0	-100	0	230	101300000	1000	0	0	-1	50
31912915	4998	67	0	-100	0	230	101300000	1000	0	0	-1	50
31925475	4995	72	0	-100	0	230	101300000	1000	0	0	-1	50
31938035	5000	67	0	-100	0	230	101300000	1000	0	0	-1	50
31950595	4997	73	0	-100	0	230	101300000	1000	0	0	-1	50
31963155	4995	69	0	-100	0	230	101300000	1000	0	0	-1	50
31975715	4994	71	0	-100	0	230	101300000	1000	0	0	-1	50
31988275	4998	69	0	-100	0	230	101300000	1000	0	0	-1	50
32000835	4999	67	0	-100	0	230	101300000	1000	0	0	-1	50
32013395	4995	76	0	-100	0	230	101300000	1000	0	0	-1	50
32025955	5001	69	0	-100	0	230	101300000	1000	0	0	-1	50
32038515	4996	67	0	-100	0	230	101300000	1000	0	0	-1	50
32051075	4993	71	0	-100	0	230	101300000	1000	0	0	-1	50
32063635	4997	69	0	-100	0	230	101300000	1000	0	0	-1	50
32076195	5000	67	0	-100	0	230	101300000	1000	0	0	-1	50
32088755	4994	76	0	-100	0	230	101300000	1000	0	0	-1	50
32101315	5002	69	0	-100	0	230	101300000	1000	0	0	-1	50
32113875	4999	67	0	-100	0	230	101300000	1000	0	0	-1	50
32126435	4998	73	0	-100	0	230	101300000	1000	0	0	-1	50
32138995	4998	73	0	-100	0	230	101300000	1000	0	0	-1	50
32151555	5000	68	0	-100	0	230	101300000	1000	0	0	-1	50
32164115	4993	71	0	-100	0	230	101300000	1000	0	0	-1	50
32176675	4995	71	0	-100	0	230	101300000	1000	0	0	-1	50
32189235	4999	67	0	-100	0	230	101300000	1000	0	0	-1	50
32201795	4995	71	0	-100	0	230	101300000	1000	0	0	-1	50
32214355	4997	75	0	-100	0	230	101300000	1000	0	0	-1	50
32226915	5004	67	0	-100	0	230	101300000	1000	0	0	-1	50
32239475	4990	71	0	-100	0	230	101300000	1000	0	0	-1	50
32252035	4994	72	0	-100	0	230	101300000	1000	0	0	-1	50
32264595	4998	67	0	-100	0	230	101300000	1000	0	0	-1	50
32277155	4993	74	0	-100	0	230	101300000	1000	0	0	-1	50
32289715	5001	67	0	-100	0	230	101300000	1000	0	0	-1	50
32302275	4994	71	0	-100	0	230	101300000	1000	0	0	-1	50
32314835	5000	69	0	-100	0	230	101300000	1000	0	0	-1	50
32327395	4994	70	0	-100	0	230	101300000	1000	0	0	-1	50
32339955	4997	71	0	-100	0	230	101300000	1000	0	0	-1	50
32352515	4999	67	0	-100	0	230	101300000	1000	0	0	-1	50
32365075	4994	74	0	-100	0	230	101300000	1000	0	0	-1	50
32402755	5000	68	0	-100	0	230	101300000	1000	0	0	-1	50
32415315	4998	74	0	-100	0	230	101300000	1000	0	0	-1	50
32427875	5003	68	0	-100	0	230	101300000	1000	0	0	-1	50
32440435	4995	76	0	-100	0	230	101300000	1000	0	0	-1	50
32452995	5001	74	0	-100	0	230	101300000	1000	0	0	-1	50
32465555	4994	71	0	-100	0	230	101300000	1000	0	0	-1	50
32478115	5003	68	0	-100	0	230	101300000	1000	0	0	-1	50
32490675	5000	72	0	-100	0	230	101300000	1000	0	0	-1	50
32503235	5001	65	0	-100	0	230	101300000	1000	0	0	-1	50
32515795	4997	75	0	-100	0	230	101300000	1000	0	0	-1	50
32528355	4994	67	0	-100	0	230	101300000	1000	0	0	-1	50
32540915	5001	67	0	-100	0	230	101300000	1000	0	0	-1	50
32628835	4997	67	0	-100	0	230	101300000	1000	0	0	-1	50
32641395	5002	68	0	-100	0	230	101300000	1000	0	0	-1	50
32653955	4995	75	0	-100	0	230	101300000	1000	0	0	-1	50
32666515	4994	67	0	-100	0	230	101300000	1000	0	0	-1	50
32679075	5002	69	0	-100	0	230	101300000	1000	0	0	-1	50
32691635	4995	74	0	-100	0	230	101300000	1000	0	0	-1	50
32704195	4995	67	0	-100	0	230	101300000	1000	0	0	-1	50
32716755	4997	71	0	-100	0	230	101300000	1000	0	0	-1	50
32729315	4995	71	0	-100	0	230	101300000	1000	0	0	-1	50
32741875	4999	66	0	-100	0	230	101300000	1000	0	0	-1	50
32754435	4994	71	0	-100	0	230	101300000	1000	0	0	-1	50
32766995	4999	75	0	-100	0	230	101300000	1000	0	0	-1	50
32779555	4993	71	0	-100	0	230	101300000	1000	0	0	-1	50
32792115	5001	68	0	-100	0	230	101300000	1000	0	0	-1	50
32804675	4995	71	0	-100	0	230	101300000	1000	0	0	-1	50
32817235	5001	67	0	-100	0	230	101300000	1000	0	0	-1	50
32829795	4994	70	0	-100	0	230	101300000	1000	0	0	-1	50
32842355	4997	71	0	-100	0	230	101300000	1000	0	0	-1	50
32854915	4995	67	0	-100	0	230	101300000	1000	0	0	-1	50
32867475	4995	71	0	-100	0	230	101300000	1000	0	0	-1	50
32880035	4993	70	0	-100	0	230	101300000	1000	0	0	-1	50
32892595	5002	69	0	-100	0	230	101300000	1000	0	0	-1	50
32905155	4989	73	0	-100	0	230	101300000	1000	0	0	-1	50
32917715	5000	64	0	-100	0	230	101300000	1000	0	0	-1	50
32930275	4995	73	0	-100	0	230	101300000	1000	0	0	-1	50
32942835	5000	66	0	-100	0	230	101300000	1000	0	0	-1	50
32955395	4995	76	0	-100	0	230	101300000	1000	0	0	-1	50
32967955	5000	65	0	-100	0	230	101300000	1000	0	0	-1	50
32980515	4994	71	0	-100	0	230	101300000	1000	0	0	-1	50
32993075	4998	68	0	-100	0	230	101300000	1000	0	0	-1	50
33005635	4997	67	0	-100	0	230	101300000	1000	0	0	-1	50
33018195	4995	74	0	-100	0	230	101300000	1000	0	0	-1	50
33030755	4999	67	0	-100	0	230	101300000	1000	0	0	-1	50
33043315	4991	69	0	-100	0	230	101300000	1000	0	0	-1	50
33055875	4995	74	0	-100	0	230	101300000	1000	0	0	-1	50
33068435	4999	66	0	-100	0	230	101300000	1000	0	0	-1	50
33080995	4994	66	0	-100	0	230	101300000	1000	0	0	-1	50
33093555	4995	72	0	-100	0	230	101300000	1000	0	0	-1	50
33106115	5003	68	0	-100	0	230	101300000	1000	0	0	-1	50
33118675	4999	73	0	-100	0	230	101300000	1000	0	0	-1	50
33131235	4999	69	0	-100	0	230	101300000	1000	0	0	-1	50
33143795	5000	67	0	-100	0	230	101300000	1000	0	0	-1	50
33156355	4997	75	0	-100	0	230	101300000	1000	0	0	-1	50
33168915	5001	67	0	-100	0	230	101300000	1000	0	0	-1	50
33181475	4993	69	0	-100	0	230	101300000	1000	0	0	-1	50
33194035	4994	75	0	-100	0	230	101300000	1000	0	0	-1	50
33206595	5004	69	0	-100	0	230	101300000	1000	0	0	-1	50
33219155	4994	68	0	-100	0	230	101300000	1000	0	0	-1	50
33231715	4995	72	0	-100	0	230	101300000	1000	0	0	-1	50
33244275	4994	71	0	-100	0	230	101300000	1000	0	0	-1	50
33256835	5001	68	0	-100	0	230	101300000	1000	0	0	-1	50
33269395	4997	67	0	-100	0	230	101300000	1000	0	0	-1	50
33281955	4993	75	0	-100	0	230	101300000	1000	0	0	-1	50
33294515	5003	67	0	-100	0	230	101300000	1000	0	0	-1	50
33307075	4996	68	0	-100	0	230	101300000	1000	0	0	-1	50
33319635	4997	73	0	-100	0	230	101300000	1000	0	0	-1	50
33332195	5000	68	0	-100	0	230	101300000	1000	0	0	-1	50
33344755	4998	72	0	-100	0	230	101300000	1000	0	0	-1	50
33357315	5000	68	0	-100	0	230	101300000	1000	0	0	-1	50
33369875	4998	67	0	-100	0	230	101300000	1000	0	0	-1	50
33382435	4998	75	0	-100	0	230	101300000	1000	0	0	-1	50
33394995	5000	75	0	-100	0	230	101300000	1000	0	0	-1	50
33407555	5000	69	0	-100	0	230	101300000	1000	0	0	-1	50
33420115	4994	69	0	-100	0	230	101300000	1000	0	0	-1	50
33432675	4993	75	0	-100	0	230	101300000	1000	0	0	-1	50
33445235	5002	70	0	-100	0	230	101300000	1000	0	0	-1	50
33457795	4998	67	0	-100	0	230	101300000	1000	0	0	-1	50
33470355	4998	75	0	-100	0	230	101300000	1000	0	0	-1	50
33482915	4998	68	0	-100	0	230	101300000	1000	0	0	-1	50
33495475	4996	67	0	-100	0	230	101300000	1000	0	0	-1	50
33508035	4995	74	0	-100	0	230	101300000	1000	0	0	-1	50
33520595	5001	67	0	-100	0	230	101300000	1000	0	0	-1	50
33533155	4993	75	0	-100	0	230	101300000	1000	0	0	-1	50
33545715	5000	64	0	-100	0	230	101300000	1000	0	0	-1	50
33558275	4997	73	0	-100	0	230	101300000	1000	0	0	-1	50
33570835	5003	67	0	-100	0	230	101300000	1000	0	0	-1	50
33583395	4995	71	0	-100	0	230	101300000	1000	0	0	-1	50
33595955	4994	71	0	-100	0	230	101300000	1000	0	0	-1	50
33608515	4999	67	0	-100	0	230	101300000	1000	0	0	-1	50
33621075	4993	71	0	-100	0	230	101300000	1000	0	0	-1	50
33633635	4999	69	0	-100	0	230	101300000	1000	0	0	-1	50
33646195	4993	71	0	-100	0	230	101300000	1000	0	0	-1	50
33658755	5000	67	0	-100	0	230	101300000	1000	0	0	-1	50
33671315	4994	70	0	-100	0	230	101300000	1000	0	0	-1	50
33683875	5002	69	0	-100	0	230	101300000	1000	0	0	-1	50
33696435	4997	73	0	-100	0	230	101300000	1000	0	0	-1	50
33708995	5000	75	0	-100	0	230	101300000	1000	0	0	-1	50
33721555	4997	74	0	-100	0	230	101300000	1000	0	0	-1	50
33734115	4996	67	0	-100	0	230	101300000	1000	0	0	-1	50
33746675	4995	71	0	-100	0	230	101300000	1000	0	0	-1	50
33759235	4999	67	0	-100	0	230	101300000	1000	0	0	-1	50
33771795	4994	74	0	-100	0	230	101300000	1000	0	0	-1	50
33784355	4996	68	0	-100	0	230	101300000	1000	0	0	-1	50
33796915	4994	71	0	-100	0	230	101300000	1000	0	0	-1	50
33809475	4998	71	0	-100	0	230	101300000	1000	0	0	-1	50
33822035	4999	67	0	-100	0	230	101300000	1000	0	0	-1	50
33834595	4994	75	0	-100	0	230	101300000	1000	0	0	-1	50
33847155	4992	66	0	-100	0	230	101300000	1000	0	0	-1	50
33859715	4994	72	0	-100	0	230	101300000	1000	0	0	-1	50
33872275	4990	72	0	-100	0	230	101300000	1000	0	0	-1	50
33884835	5000	67	0	-100	0	230	101300000	1000	0	0	-1	50
33897395	4995	73	0	-100	0	230	101300000	1000	0	0	-1	50
33909955	5000	64	0	-100	0	230	101300000	1000	0	0	-1	50
33922515	4994	71	0	-100	0	230	101300000	1000	0	0	-1	50
33935075	4998	68	0	-100	0	230	101300000	1000	0	0	-1	50
33947635	4994	67	0	-100	0	230	101300000	1000	0	0	-1	50
33960195	4995	73	0	-100	0	230	101300000	1000	0	0	-1	50
33972755	5003	69	0	-100	0	230	101300000	1000	0	0	-1	50
33985315	4994	71	0	-100	0	230	101300000	1000	0	0	-1	50
33997875	4995	71	0	-100	0	230	101300000	1000	0	0	-1	50
34010435	5001	67	0	-100	0	230	101300000	1000	0	0	-1	50
34022995	5000	67	0	-100	0	230	101300000	1000	0	0	-1	50
34035555	4998	70	0	-100	0	230	101300000	1000	0	0	-1	50
34048115	4999	67	0	-100	0	230	101300000	1000	0	0	-1	50
34060675	4994	73	0	-100	0	230	101300000	1000	0	0	-1	50
34073235	5000	67	0	-100	0	230	101300000	1000	0	0	-1	50
34085795	4994	71	0	-100	0	230	101300000	1000	0	0	-1	50
34098355	4997	68	0	-100	0	230	101300000	1000	0	0	-1	50
34110915	4994	67	0	-100	0	230	101300000	1000	0	0	-1	50
34123475	4993	75	0	-100	0	230	101300000	1000	0	0	-1	50
34136035	4997	65	0	-100	0	230	101300000	1000	0	0	-1	50
34148595	4993	71	0	-100	0	230	101300000	1000	0	0	-1	50
34161155	4993	71	0	-100	0	230	101300000	1000	0	0	-1	50
34173715	4997	68	0	-100	0	230	101300000	1000	0	0	-1	50
34186275	4993	74	0	-100	0	230	101300000	1000	0	0	-1	50
34198835	5003	67	0	-100	0	230	101300000	1000	0	0	-1	50
34211395	4997	73	0	-100	0	230	101300000	1000	0	0	-1	50
34223955	4990	71	0	-100	0	230	101300000	1000	0	0	-1	50
34236515	4994	75	0	-100	0	230	101300000	1000	0	0	-1	50
34249075	5003	68	0	-100	0	230	101300000	1000	0	0	-1	50
34261635	4999	67	0	-100	0	230	101300000	1000	0	0	-1	50
34274195	4993	71	0	-100	0	230	101300000	1000	0	0	-1	50
34286755	4993	71	0	-100	0	230	101300000	1000	0	0	-1	50
34299315	5005	68	0	-100	0	230	101300000	1000	0	0	-1	50
34311875	4999	67	0	-100	0	230	101300000	1000	0	0	-1	50
34324435	4998	76	0	-100	0	230	101300000	1000	0	0	-1	50
34336995	4995	71	0	-100	0	230	101300000	1000	0	0	-1	50
34349555	5002	67	0	-100	0	230	101300000	1000	0	0	-1	50
34362115	4998	67	0	-100	0	230	101300000	1000	0	0	-1	50
34374675	4993	71	0	-100	0	230	101300000	1000	0	0	-1	50
34387235	4995	71	0	-100	0	230	101300000	1000	0	0	-1	50
34399795	5002	68	0	-100	0	230	101300000	1000	0	0	-1	50
34412355	5000	67	0	-100	0	230	101300000	1000	0	0	-1	50
34424915	4991	71	0	-100	0	230	101300000	1000	0	0	-1	50
34437475	4993	75	0	-100	0	230	101300000	1000	0	0	-1	50
34450035	4995	69	0	-100	0	230	101300000	1000	0	0	-1	50
34462595	5001	67	0	-100	0	230	101300000	1000	0	0	-1	50
34475155	4990	75	0	-100	0	230	101300000	1000	0	0	-1	50
34487715	4997	68	0	-100	0	230	101300000	1000	0	0	-1	50
34500275	4998	67	0	-100	0	230	101300000	1000	0	0	-1	50
34512835	4997	74	0	-100	0	230	101300000	1000	0	0	-1	50
34525395	5001	66	0	-100	0	230	101300000	1000	0	0	-1	50
34537955	4995	69	0	-100	0	230	101300000	1000	0	0	-1	50
34550515	4997	72	0	-100	0	230	101300000	1000	0	0	-1	50
34563075	5001	67	0	-100	0	230	101300000	1000	0	0	-1	50
34575635	4998	75	0	-100	0	230	101300000	1000	0	0	-1	50
34588195	4999	67	0	-100	0	230	101300000	1000	0	0	-1	50
34600755	4996	67	0	-100	0	230	101300000	1000	0	0	-1	50
34613315	4998	72	0	-100	0	230	101300000	1000	0	0	-1	50
34625875	4997	68	0	-100	0	230	101300000	1000	0	0	-1	50
34638435	4999	68	0	-100	0	230	101300000	1000	0	0	-1	50
34650995	4993	68	0	-100	0	230	101300000	1000	0	0	-1	50
34663555	4997	70	0	-100	0	230	101300000	1000	0	0	-1	50
34676115	4995	67	0	-100	0	230	101300000	1000	0	0	-1	50
34688675	4995	73	0	-100	0	230	101300000	1000	0	0	-1	50
34701235	5001	66	0	-100	0	230	101300000	1000	0	0	-1	50
34713795	4991	71	0	-100	0	230	101300000	1000	0	0	-1	50
34726355	4994	72	0	-100	0	230	101300000	1000	0	0	-1	50
34738915	5001	68	0	-100	0	230	101300000	1000	0	0	-1	50
34751475	4992	71	0	-100	0	230	101300000	1000	0	0	-1	50
34764035	4994	72	0	-100	0	230	101300000	1000	0	0	-1	50
34776595	5001	77	0	-100	0	230	101300000	1000	0	0	-1	50
34789155	4993	75	0	-100	0	230	101300000	1000	0	0	-1	50
34801715	5000	67	0	-100	0	230	101300000	1000	0	0	-1	50
34814275	4999	67	0	-100	0	230	101300000	1000	0	0	-1	50
34826835	4995	75	0	-100	0	230	101300000	1000	0	0	-1	50
34839395	5004	68	0	-100	0	230	101300000	1000	0	0	-1	50
34851955	4997	68	0	-100	0	230	101300000	1000	0	0	-1	50
34864515	4997	71	0	-100	0	230	101300000	1000	0	0	-1	50
34877075	5000	68	0	-100	0	230	101300000	1000	0	0	-1	50
34889635	4998	74	0	-100	0	230	101300000	1000	0	0	-1	50
34902195	5000	68	0	-100	0	230	101300000	1000	0	0	-1	50
34914755	5000	67	0	-100	0	230	101300000	1000	0	0	-1	50
34927315	4991	71	0	-100	0	230	101300000	1000	0	0	-1	50
34939875	4993	73	0	-100	0	230	101300000	1000	0	0	-1	50
34952435	5000	68	0	-100	0	230	101300000	1000	0	0	-1	50
34964995	4989	67	0	-100	0	230	101300000	1000	0	0	-1	50
34977555	4995	72	0	-100	0	230	101300000	1000	0	0	-1	50
34990115	5001	68	0	-100	0	230	101300000	1000	0	0	-1	50
35002675	4996	67	0	-100	0	230	101300000	1000	0	0	-1	50
35015235	4995	75	0	-100	0	230	101300000	1000	0	0	-1	50
35027795	5004	68	0	-100	0	230	101300000	1000	0	0	-1	50
35040355	4993	71	0	-100	0	230	101300000	1000	0	0	-1	50
35052915	4993	71	0	-100	0	230	101300000	1000	0	0	-1	50
35065475	5003	66	0	-100	0	230	101300000	1000	0	0	-1	50
35078035	4997	66	0	-100	0	230	101300000	1000	0	0	-1	50
35090595	4994	75	0	-100	0	230	101300000	1000	0	0	-1	50
35103155	4993	70	0	-100	0	230	101300000	1000	0	0	-1	50
35115715	4995	67	0	-100	0	230	101300000	1000	0	0	-1	50
35128275	4994	75	0	-100	0	230	101300000	1000	0	0	-1	50
35140835	5000	67	0	-100	0	230	101300000	1000	0	0	-1	50
35153395	4997	67	0	-100	0	230	101300000	1000	0	0	-1	50
35165955	4997	75	0	-100	0	230	101300000	1000	0	0	-1	50
35178515	5004	68	0	-100	0	230	101300000	1000	0	0	-1	50
35191075	4998	66	0	-100	0	230	101300000	1000	0	0	-1	50
35203635	4998	75	0	-100	0	230	101300000	1000	0	0	-1	50
35216195	4995	71	0	-100	0	230	101300000	1000	0	0	-1	50
