timestamp	voltage	current	windSpeed	pitchAngle	rpm	temperature	ambientPressure	humidity	accelerationX	accelerationY	accelerationZ	currentSink
7036070	5016	0	0	-100	0	230	101300000	1000	0	0	-1	0
7043523	5012	0	0	-100	0	230	101300000	1000	0	0	-1	0
7056083	5017	4	0	-100	0	230	101300000	1000	0	0	-1	0
7068643	5014	0	0	-100	0	230	101300000	1000	0	0	-1	0
7081203	5022	0	0	-100	0	230	101300000	1000	0	0	-1	0
7093763	5012	0	0	-100	0	230	101300000	1000	0	0	-1	0
7106323	5017	2	0	-100	0	230	101300000	1000	0	0	-1	0
7118883	5019	0	0	-100	0	230	101300000	1000	0	0	-1	0
7131443	5018	0	0	-100	0	230	101300000	1000	0	0	-1	0
7144004	5019	0	0	-100	0	230	101300000	1000	0	0	-1	0
7156563	5015	0	0	-100	0	230	101300000	1000	0	0	-1	0
7169123	5022	0	0	-100	0	230	101300000	1000	0	0	-1	0
7181683	5015	0	0	-100	0	230	101300000	1000	0	0	-1	0
7194243	5012	0	0	-100	0	230	101300000	1000	0	0	-1	0
7206803	5015	2	0	-100	0	230	101300000	1000	0	0	-1	0
7219363	5018	0	0	-100	0	230	101300000	1000	0	0	-1	0
7231923	5019	0	0	-100	0	230	101300000	1000	0	0	-1	0
7244483	5017	0	0	-100	0	230	101300000	1000	0	0	-1	0
7257043	5016	1	0	-100	0	230	101300000	1000	0	0	-1	0
7269603	5012	0	0	-100	0	230	101300000	1000	0	0	-1	0
7282163	5020	0	0	-100	0	230	101300000	1000	0	0	-1	0
7294723	5026	0	0	-100	0	230	101300000	1000	0	0	-1	0
7307283	5015	0	0	-100	0	230	101300000	1000	0	0	-1	0
7319843	5014	2	0	-100	0	230	101300000	1000	0	0	-1	0
7332403	5017	0	0	-100	0	230	101300000	1000	0	0	-1	0
7344963	5018	0	0	-100	0	230	101300000	1000	0	0	-1	0
7690675	9931	1210	0	-100	0	230	101300000	1000	0	0	-1	600
7703235	9933	1208	0	-100	0	230	101300000	1000	0	0	-1	600
7715795	9931	1206	0	-100	0	230	101300000	1000	0	0	-1	600
7728355	9925	1211	0	-100	0	230	101300000	1000	0	0	-1	600
7740915	9923	1204	0	-100	0	230	101300000	1000	0	0	-1	600
7753475	9931	1205	0	-100	0	230	101300000	1000	0	0	-1	600
7766035	9931	1206	0	-100	0	230	101300000	1000	0	0	-1	600
7778595	9931	1211	0	-100	0	230	101300000	1000	0	0	-1	600
7791155	9928	1205	0	-100	0	230	101300000	1000	0	0	-1	600
7803715	9917	1206	0	-100	0	230	101300000	1000	0	0	-1	600
7816275	9931	1210	0	-100	0	230	101300000	1000	0	0	-1	600
7828835	9928	1202	0	-100	0	230	101300000	1000	0	0	-1	600
7841395	9931	1204	0	-100	0	230	101300000	1000	0	0	-1	600
7853955	9936	1214	0	-100	0	230	101300000	1000	0	0	-1	600
7866515	9928	1202	0	-100	0	230	101300000	1000	0	0	-1	600
7879075	9933	1208	0	-100	0	230	101300000	1000	0	0	-1	600
7891635	9936	1205	0	-100	0	230	101300000	1000	0	0	-1	600
7904195	9925	1202	0	-100	0	230	101300000	1000	0	0	-1	600
7916755	9931	1206	0	-100	0	230	101300000	1000	0	0	-1	600
7929315	9920	1198	0	-100	0	230	101300000	1000	0	0	-1	600
7941875	9925	1209	0	-100	0	230	101300000	1000	0	0	-1	600
7954435	9933	1204	0	-100	0	230	101300000	1000	0	0	-1	600
7966995	9928	1207	0	-100	0	230	101300000	1000	0	0	-1	600
7979555	9933	1207	0	-100	0	230	101300000	1000	0	0	-1	600
7992115	9925	1203	0	-100	0	230	101300000	1000	0	0	-1	600
8004675	9933	1200	0	-100	0	230	101300000	1000	0	0	-1	600
8017235	9928	1198	0	-100	0	230	101300000	1000	0	0	-1	600
8029795	9936	1206	0	-100	0	230	101300000	1000	0	0	-1	600
8042355	9931	1207	0	-100	0	230	101300000	1000	0	0	-1	600
8054915	9925	1201	0	-100	0	230	101300000	1000	0	0	-1	600
8067475	9928	1196	0	-100	0	230	101300000	1000	0	0	-1	600
8080035	9933	1201	0	-100	0	230	101300000	1000	0	0	-1	600
8092595	9928	1205	0	-100	0	230	101300000	1000	0	0	-1	600
8105155	9917	1203	0	-100	0	230	101300000	1000	0	0	-1	600
8117715	9931	1201	0	-100	0	230	101300000	1000	0	0	-1	600
8130275	9925	1199	0	-100	0	230	101300000	1000	0	0	-1	600
8142835	9917	1201	0	-100	0	230	101300000	1000	0	0	-1	600
8155395	9939	1206	0	-100	0	230	101300000	1000	0	0	-1	600
8167955	9936	1199	0	-100	0	230	101300000	1000	0	0	-1	600
8180515	9931	1198	0	-100	0	230	101300000	1000	0	0	-1	600
8193075	9920	1206	0	-100	0	230	101300000	1000	0	0	-1	600
8205635	9939	1199	0	-100	0	230	101300000	1000	0	0	-1	600
8218195	9923	1196	0	-100	0	230	101300000	1000	0	0	-1	600
8230755	9933	1204	0	-100	0	230	101300000	1000	0	0	-1	600
8243315	9923	1194	0	-100	0	230	101300000	1000	0	0	-1	600
8255875	9925	1198	0	-100	0	230	101300000	1000	0	0	-1	600
8268435	9928	1195	0	-100	0	230	101300000	1000	0	0	-1	600
8280995	9928	1192	0	-100	0	230	101300000	1000	0	0	-1	600
8293555	9928	1188	0	-100	0	230	101300000	1000	0	0	-1	600
8306115	9928	1193	0	-100	0	230	101300000	1000	0	0	-1	600
8318675	9912	1184	0	-100	0	230	101300000	1000	0	0	-1	600
8331235	9933	1187	0	-100	0	230	101300000	1000	0	0	-1	600
8343795	9931	1194	0	-100	0	230	101300000	1000	0	0	-1	600
8356355	9920	1183	0	-100	0	230	101300000	1000	0	0	-1	600
8368915	9920	1183	0	-100	0	230	101300000	1000	0	0	-1	600
8381475	9920	1190	0	-100	0	230	101300000	1000	0	0	-1	600
8394035	9925	1186	0	-100	0	230	101300000	1000	0	0	-1	600
8406595	9925	1182	0	-100	0	230	101300000	1000	0	0	-1	600
8419155	9923	1194	0	-100	0	230	101300000	1000	0	0	-1	600
8431715	9936	1196	0	-100	0	230	101300000	1000	0	0	-1	600
8444275	9931	1196	0	-100	0	230	101300000	1000	0	0	-1	600
8456835	9931	1201	0	-100	0	230	101300000	1000	0	0	-1	600
8469395	9936	1200	0	-100	0	230	101300000	1000	0	0	-1	600
8481955	9936	1197	0	-100	0	230	101300000	1000	0	0	-1	600
8494515	9933	1202	0	-100	0	230	101300000	1000	0	0	-1	600
8507075	9933	1198	0	-100	0	230	101300000	1000	0	0	-1	600
8519635	9933	1198	0	-100	0	230	101300000	1000	0	0	-1	600
8532195	9933	1200	0	-100	0	230	101300000	1000	0	0	-1	600
8544755	9928	1194	0	-100	0	230	101300000	1000	0	0	-1	600
8557315	9915	1199	0	-100	0	230	101300000	1000	0	0	-1	600
8569875	9923	1196	0	-100	0	230	101300000	1000	0	0	-1	600
8582435	9931	1200	0	-100	0	230	101300000	1000	0	0	-1	600
8594995	9923	1201	0	-100	0	230	101300000	1000	0	0	-1	600
8607555	9928	1202	0	-100	0	230	101300000	1000	0	0	-1	600
8620115	9931	1197	0	-100	0	230	101300000	1000	0	0	-1	600
8632675	9936	1197	0	-100	0	230	101300000	1000	0	0	-1	600
8645235	9931	1202	0	-100	0	230	101300000	1000	0	0	-1	600
8657795	9915	1189	0	-100	0	230	101300000	1000	0	0	-1	600
8670355	9925	1195	0	-100	0	230	101300000	1000	0	0	-1	600
8682915	9920	1191	0	-100	0	230	101300000	1000	0	0	-1	600
8695475	9928	1200	0	-100	0	230	101300000	1000	0	0	-1	600
8708035	9933	1198	0	-100	0	230	101300000	1000	0	0	-1	600
8720595	9933	1199	0	-100	0	230	101300000	1000	0	0	-1	600
8733155	9931	1195	0	-100	0	230	101300000	1000	0	0	-1	600
8745715	9915	1196	0	-100	0	230	101300000	1000	0	0	-1	600
8758275	9928	1189	0	-100	0	230	101300000	1000	0	0	-1	600
8770835	9928	1200	0	-100	0	230	101300000	1000	0	0	-1	600
8783395	9933	1193	0	-100	0	230	101300000	1000	0	0	-1	600
8795955	9931	1201	0	-100	0	230	101300000	1000	0	0	-1	600
8808515	9933	1195	0	-100	0	230	101300000	1000	0	0	-1	600
8821075	9915	1196	0	-100	0	230	101300000	1000	0	0	-1	600
8833635	9931	1189	0	-100	0	230	101300000	1000	0	0	-1	600
8846195	9928	1198	0	-100	0	230	101300000	1000	0	0	-1	600
8858755	9936	1195	0	-100	0	230	101300000	1000	0	0	-1	600
8871315	9925	1197	0	-100	0	230	101300000	1000	0	0	-1	600
8883875	9928	1187	0	-100	0	230	101300000	1000	0	0	-1	600
8896435	9928	1181	0	-100	0	230	101300000	1000	0	0	-1	600
8908995	9925	1184	0	-100	0	230	101300000	1000	0	0	-1	600
8921555	9936	1189	0	-100	0	230	101300000	1000	0	0	-1	600
8934115	9923	1180	0	-100	0	230	101300000	1000	0	0	-1	600
8946675	9917	1183	0	-100	0	230	101300000	1000	0	0	-1	600
8959235	9933	1189	0	-100	0	230	101300000	1000	0	0	-1	600
8971795	9931	1184	0	-100	0	230	101300000	1000	0	0	-1	600
8984355	9931	1186	0	-100	0	230	101300000	1000	0	0	-1	600
8996915	9933	1187	0	-100	0	230	101300000	1000	0	0	-1	600
9009475	9928	1179	0	-100	0	230	101300000	1000	0	0	-1	600
9022035	9928	1183	0	-100	0	230	101300000	1000	0	0	-1	600
9034595	9923	1191	0	-100	0	230	101300000	1000	0	0	-1	600
9047155	9925	1190	0	-100	0	230	101300000	1000	0	0	-1	600
9059715	9925	1198	0	-100	0	230	101300000	1000	0	0	-1	600
9072275	9925	1190	0	-100	0	230	101300000	1000	0	0	-1	600
9084835	9933	1199	0	-100	0	230	101300000	1000	0	0	-1	600
9097395	9933	1193	0	-100	0	230	101300000	1000	0	0	-1	600
9109955	9915	1193	0	-100	0	230	101300000	1000	0	0	-1	600
9122515	9928	1191	0	-100	0	230	101300000	1000	0	0	-1	600
9135075	9933	1191	0	-100	0	230	101300000	1000	0	0	-1	600
9147635	9939	1185	0	-100	0	230	101300000	1000	0	0	-1	600
9160195	9928	1180	0	-100	0	230	101300000	1000	0	0	-1	600
9172755	9931	1180	0	-100	0	230	101300000	1000	0	0	-1	600
9185315	9925	1187	0	-100	0	230	101300000	1000	0	0	-1	600
9197875	9933	1183	0	-100	0	230	101300000	1000	0	0	-1	600
9210435	9915	1189	0	-100	0	230	101300000	1000	0	0	-1	600
9222995	9928	1197	0	-100	0	230	101300000	1000	0	0	-1	600
9235555	9936	1195	0	-100	0	230	101300000	1000	0	0	-1	600
9248115	9931	1196	0	-100	0	230	101300000	1000	0	0	-1	600
9260675	9931	1190	0	-100	0	230	101300000	1000	0	0	-1	600
9273235	9920	1195	0	-100	0	230	101300000	1000	0	0	-1	600
9285795	9920	1183	0	-100	0	230	101300000	1000	0	0	-1	600
9298355	9936	1190	0	-100	0	230	101300000	1000	0	0	-1	600
9310915	9928	1189	0	-100	0	230	101300000	1000	0	0	-1	600
9323475	9925	1194	0	-100	0	230	101300000	1000	0	0	-1	600
9336035	9925	1189	0	-100	0	230	101300000	1000	0	0	-1	600
9348595	9928	1196	0	-100	0	230	101300000	1000	0	0	-1	600
9361155	9920	1190	0	-100	0	230	101300000	1000	0	0	-1	600
9373715	9928	1191	0	-100	0	230	101300000	1000	0	0	-1	600
9386275	9931	1190	0	-100	0	230	101300000	1000	0	0	-1	600
9398835	9936	1197	0	-100	0	230	101300000	1000	0	0	-1	600
9411395	9931	1194	0	-100	0	230	101300000	1000	0	0	-1	600
9423955	9925	1186	0	-100	0	230	101300000	1000	0	0	-1	600
9436515	9928	1192	0	-100	0	230	101300000	1000	0	0	-1	600
9449075	9933	1189	0	-100	0	230	101300000	1000	0	0	-1	600
9461635	9933	1191	0	-100	0	230	101300000	1000	0	0	-1	600
9474195	9920	1186	0	-100	0	230	101300000	1000	0	0	-1	600
9486755	9928	1179	0	-100	0	230	101300000	1000	0	0	-1	600
9499315	9917	1181	0	-100	0	230	101300000	1000	0	0	-1	600
9511875	9939	1182	0	-100	0	230	101300000	1000	0	0	-1	600
9524435	9925	1182	0	-100	0	230	101300000	1000	0	0	-1	600
9536995	9933	1187	0	-100	0	230	101300000	1000	0	0	-1	600
9549555	9931	1183	0	-100	0	230	101300000	1000	0	0	-1	600
9562115	9931	1176	0	-100	0	230	101300000	1000	0	0	-1	600
9574675	9928	1186	0	-100	0	230	101300000	1000	0	0	-1	600
9587235	9933	1177	0	-100	0	230	101300000	1000	0	0	-1	600
9599795	9931	1184	0	-100	0	230	101300000	1000	0	0	-1	600
9612355	9912	1174	0	-100	0	230	101300000	1000	0	0	-1	600
9624915	9925	1181	0	-100	0	230	101300000	1000	0	0	-1	600
9637475	9925	1175	0	-100	0	230	101300000	1000	0	0	-1	600
9650035	9925	1185	0	-100	0	230	101300000	1000	0	0	-1	600
9662595	9923	1179	0	-100	0	230	101300000	1000	0	0	-1	600
9675155	9931	1186	0	-100	0	230	101300000	1000	0	0	-1	600
9687715	9939	1180	0	-100	0	230	101300000	1000	0	0	-1	600
9700275	9909	1175	0	-100	0	230	101300000	1000	0	0	-1	600
9712835	9925	1182	0	-100	0	230	101300000	1000	0	0	-1	600
9725395	9933	1176	0	-100	0	230	101300000	1000	0	0	-1	600
9737955	9925	1175	0	-100	0	230	101300000	1000	0	0	-1	600
9750515	9933	1188	0	-100	0	230	101300000	1000	0	0	-1	600
9763075	9933	1183	0	-100	0	230	101300000	1000	0	0	-1	600
9775635	9917	1174	0	-100	0	230	101300000	1000	0	0	-1	600
9788195	9928	1180	0	-100	0	230	101300000	1000	0	0	-1	600
9800755	9936	1185	0	-100	0	230	101300000	1000	0	0	-1	600
9813315	9928	1178	0	-100	0	230	101300000	1000	0	0	-1	600
9825875	9923	1175	0	-100	0	230	101300000	1000	0	0	-1	600
9838435	9928	1184	0	-100	0	230	101300000	1000	0	0	-1	600
9850995	9928	1178	0	-100	0	230	101300000	1000	0	0	-1	600
9863555	9931	1175	0	-100	0	230	101300000	1000	0	0	-1	600
9876115	9928	1175	0	-100	0	230	101300000	1000	0	0	-1	600
9888675	9925	1178	0	-100	0	230	101300000	1000	0	0	-1	600
9901235	9928	1181	0	-100	0	230	101300000	1000	0	0	-1	600
9913795	9933	1177	0	-100	0	230	101300000	1000	0	0	-1	600
9926355	9931	1177	0	-100	0	230	101300000	1000	0	0	-1	600
9938915	9931	1181	0	-100	0	230	101300000	1000	0	0	-1	600
9951475	9928	1178	0	-100	0	230	101300000	1000	0	0	-1	600
9964035	9931	1174	0	-100	0	230	101300000	1000	0	0	-1	600
9976595	9936	1183	0	-100	0	230	101300000	1000	0	0	-1	600
9989155	9933	1181	0	-100	0	230	101300000	1000	0	0	-1	600
10001715	9925	1176	0	-100	0	230	101300000	1000	0	0	-1	600
10014275	9933	1185	0	-100	0	230	101300000	1000	0	0	-1	600
10026835	9925	1178	0	-100	0	230	101300000	1000	0	0	-1	600
10039395	9925	1175	0	-100	0	230	101300000	1000	0	0	-1	600
10051955	9925	1179	0	-100	0	230	101300000	1000	0	0	-1	600
10064515	9933	1184	0	-100	0	230	101300000	1000	0	0	-1	600
10077075	9936	1178	0	-100	0	230	101300000	1000	0	0	-1	600
10089635	9925	1179	0	-100	0	230	101300000	1000	0	0	-1	600
10102195	9931	1182	0	-100	0	230	101300000	1000	0	0	-1	600
10114755	9931	1176	0	-100	0	230	101300000	1000	0	0	-1	600
10127315	9925	1181	0	-100	0	230	101300000	1000	0	0	-1	600
10139875	9933	1175	0	-100	0	230	101300000	1000	0	0	-1	600
10152435	9928	1176	0	-100	0	230	101300000	1000	0	0	-1	600
10164995	9931	1176	0	-100	0	230	101300000	1000	0	0	-1	600
10177555	9928	1174	0	-100	0	230	101300000	1000	0	0	-1	600
10190115	9917	1176	0	-100	0	230	101300000	1000	0	0	-1	600
10202675	9925	1178	0	-100	0	230	101300000	1000	0	0	-1	600
10215235	9928	1174	0	-100	0	230	101300000	1000	0	0	-1	600
10227795	9923	1177	0	-100	0	230	101300000	1000	0	0	-1	600
10240355	9933	1182	0	-100	0	230	101300000	1000	0	0	-1	600
10252915	9931	1177	0	-100	0	230	101300000	1000	0	0	-1	600
10265475	9925	1174	0	-100	0	230	101300000	1000	0	0	-1	600
10278035	9931	1176	0	-100	0	230	101300000	1000	0	0	-1	600
10290595	9933	1179	0	-100	0	230	101300000	1000	0	0	-1	600
10303155	9928	1184	0	-100	0	230	101300000	1000	0	0	-1	600
10315715	9939	1181	0	-100	0	230	101300000	1000	0	0	-1	600
10328275	9912	1175	0	-100	0	230	101300000	1000	0	0	-1	600
10340835	9928	1175	0	-100	0	230	101300000	1000	0	0	-1	600
10353395	9925	1178	0	-100	0	230	101300000	1000	0	0	-1	600
10365955	9925	1181	0	-100	0	230	101300000	1000	0	0	-1	600
10378515	9925	1182	0	-100	0	230	101300000	1000	0	0	-1	600
10391075	9939	1182	0	-100	0	230	101300000	1000	0	0	-1	600
10403635	9931	1173	0	-100	0	230	101300000	1000	0	0	-1	600
10416195	9933	1178	0	-100	0	230	101300000	1000	0	0	-1	600
10428755	9925	1173	0	-100	0	230	101300000	1000	0	0	-1	600
10441315	9925	1178	0	-100	0	230	101300000	1000	0	0	-1	600
10453875	9933	1177	0	-100	0	230	101300000	1000	0	0	-1	600
10466435	9925	1176	0	-100	0	230	101300000	1000	0	0	-1	600
10478995	9931	1184	0	-100	0	230	101300000	1000	0	0	-1	600
10491555	9933	1178	0	-100	0	230	101300000	1000	0	0	-1	600
10504115	9933	1185	0	-100	0	230	101300000	1000	0	0	-1	600
10516675	9933	1178	0	-100	0	230	101300000	1000	0	0	-1	600
10529235	9928	1174	0	-100	0	230	101300000	1000	0	0	-1	600
10541795	9936	1184	0	-100	0	230	101300000	1000	0	0	-1	600
10554355	9936	1177	0	-100	0	230	101300000	1000	0	0	-1	600
10566915	9920	1174	0	-100	0	230	101300000	1000	0	0	-1	600
10579475	9925	1182	0	-100	0	230	101300000	1000	0	0	-1	600
10592035	9928	1176	0	-100	0	230	101300000	1000	0	0	-1	600
10604595	9928	1171	0	-100	0	230	101300000	1000	0	0	-1	600
10617155	9925	1173	0	-100	0	230	101300000	1000	0	0	-1	600
10629715	9931	1184	0	-100	0	230	101300000	1000	0	0	-1	600
10642275	9923	1176	0	-100	0	230	101300000	1000	0	0	-1	600
10654835	9925	1170	0	-100	0	230	101300000	1000	0	0	-1	600
10667395	9928	1175	0	-100	0	230	101300000	1000	0	0	-1	600
10679955	9933	1191	0	-100	0	230	101300000	1000	0	0	-1	600
10692515	9931	1185	0	-100	0	230	101300000	1000	0	0	-1	600
10705075	9931	1181	0	-100	0	230	101300000	1000	0	0	-1	600
10717635	9931	1181	0	-100	0	230	101300000	1000	0	0	-1	600
10730195	9933	1191	0	-100	0	230	101300000	1000	0	0	-1	600
10742755	9933	1183	0	-100	0	230	101300000	1000	0	0	-1	600
10755315	9931	1183	0	-100	0	230	101300000	1000	0	0	-1	600
10767875	9920	1174	0	-100	0	230	101300000	1000	0	0	-1	600
10780435	9923	1176	0	-100	0	230	101300000	1000	0	0	-1	600
10792995	9928	1177	0	-100	0	230	101300000	1000	0	0	-1	600
10805555	9939	1185	0	-100	0	230	101300000	1000	0	0	-1	600
10818115	9936	1177	0	-100	0	230	101300000	1000	0	0	-1	600
10830675	9928	1173	0	-100	0	230	101300000	1000	0	0	-1	600
10843235	9936	1184	0	-100	0	230	101300000	1000	0	0	-1	600
10855795	9936	1174	0	-100	0	230	101300000	1000	0	0	-1	600
10868355	9933	1178	0	-100	0	230	101300000	1000	0	0	-1	600
10880915	9915	1175	0	-100	0	230	101300000	1000	0	0	-1	600
10893475	9931	1181	0	-100	0	230	101300000	1000	0	0	-1	600
10906035	9928	1173	0	-100	0	230	101300000	1000	0	0	-1	600
10918595	9931	1176	0	-100	0	230	101300000	1000	0	0	-1	600
10931155	9933	1183	0	-100	0	230	101300000	1000	0	0	-1	600
10943715	9931	1183	0	-100	0	230	101300000	1000	0	0	-1	600
10956275	9920	1173	0	-100	0	230	101300000	1000	0	0	-1	600
10968835	9931	1176	0	-100	0	230	101300000	1000	0	0	-1	600
10981395	9925	1178	0	-100	0	230	101300000	1000	0	0	-1	600
10993955	9928	1177	0	-100	0	230	101300000	1000	0	0	-1	600
11006515	9920	1170	0	-100	0	230	101300000	1000	0	0	-1	600
11019075	9923	1173	0	-100	0	230	101300000	1000	0	0	-1	600
11031635	9923	1184	0	-100	0	230	101300000	1000	0	0	-1	600
11044195	9925	1178	0	-100	0	230	101300000	1000	0	0	-1	600
11056755	9931	1170	0	-100	0	230	101300000	1000	0	0	-1	600
11069315	9920	1174	0	-100	0	230	101300000	1000	0	0	-1	600
11081875	9939	1182	0	-100	0	230	101300000	1000	0	0	-1	600
11094435	9925	1171	0	-100	0	230	101300000	1000	0	0	-1	600
11106995	9928	1176	0	-100	0	230	101300000	1000	0	0	-1	600
11119555	9931	1181	0	-100	0	230	101300000	1000	0	0	-1	600
11132115	9928	1173	0	-100	0	230	101300000	1000	0	0	-1	600
11144675	9933	1178	0	-100	0	230	101300000	1000	0	0	-1	600
11157235	9933	1184	0	-100	0	230	101300000	1000	0	0	-1	600
11169795	9925	1173	0	-100	0	230	101300000	1000	0	0	-1	600
11182355	9928	1181	0	-100	0	230	101300000	1000	0	0	-1	600
11194915	9939	1186	0	-100	0	230	101300000	1000	0	0	-1	600
11207475	9923	1180	0	-100	0	230	101300000	1000	0	0	-1	600
11220035	9933	1193	0	-100	0	230	101300000	1000	0	0	-1	600
11232595	9917	1183	0	-100	0	230	101300000	1000	0	0	-1	600
11245155	9928	1180	0	-100	0	230	101300000	1000	0	0	-1	600
11257715	9933	1192	0	-100	0	230	101300000	1000	0	0	-1	600
11270275	9928	1185	0	-100	0	230	101300000	1000	0	0	-1	600
11282835	9933	1180	0	-100	0	230	101300000	1000	0	0	-1	600
11295395	9925	1181	0	-100	0	230	101300000	1000	0	0	-1	600
11307955	9931	1189	0	-100	0	230	101300000	1000	0	0	-1	600
11320515	9925	1179	0	-100	0	230	101300000	1000	0	0	-1	600
11333075	9936	1188	0	-100	0	230	101300000	1000	0	0	-1	600
11345635	9923	1182	0	-100	0	230	101300000	1000	0	0	-1	600
11358195	9939	1185	0	-100	0	230	101300000	1000	0	0	-1	600
11370755	9915	1183	0	-100	0	230	101300000	1000	0	0	-1	600
11383315	9925	1183	0	-100	0	230	101300000	1000	0	0	-1	600
11395875	9933	1188	0	-100	0	230	101300000	1000	0	0	-1	600
11408435	9925	1179	0	-100	0	230	101300000	1000	0	0	-1	600
11420995	9928	1183	0	-100	0	230	101300000	1000	0	0	-1	600
11433555	9917	1185	0	-100	0	230	101300000	1000	0	0	-1	600
11446115	9923	1180	0	-100	0	230	101300000	1000	0	0	-1	600
11458675	9920	1181	0	-100	0	230	101300000	1000	0	0	-1	600
11471235	9925	1188	0	-100	0	230	101300000	1000	0	0	-1	600
11483795	9920	1179	0	-100	0	230	101300000	1000	0	0	-1	600
11496355	9925	1183	0	-100	0	230	101300000	1000	0	0	-1	600
11508915	9920	1188	0	-100	0	230	101300000	1000	0	0	-1	600
11521475	9933	1183	0	-100	0	230	101300000	1000	0	0	-1	600
11534035	9928	1179	0	-100	0	230	101300000	1000	0	0	-1	600
11546595	9933	1186	0	-100	0	230	101300000	1000	0	0	-1	600
11559155	9923	1184	0	-100	0	230	101300000	1000	0	0	-1	600
11571715	9931	1189	0	-100	0	230	101300000	1000	0	0	-1	600
11584275	9931	1181	0	-100	0	230	101300000	1000	0	0	-1	600
11596835	9928	1185	0	-100	0	230	101300000	1000	0	0	-1	600
11609395	9928	1187	0	-100	0	230	101300000	1000	0	0	-1	600
11621955	9939	1189	0	-100	0	230	101300000	1000	0	0	-1	600
11634515	9923	1176	0	-100	0	230	101300000	1000	0	0	-1	600
11647075	9931	1183	0	-100	0	230	101300000	1000	0	0	-1	600
11659635	9928	1186	0	-100	0	230	101300000	1000	0	0	-1	600
11672195	9936	1188	0	-100	0	230	101300000	1000	0	0	-1	600
11684755	9920	1182	0	-100	0	230	101300000	1000	0	0	-1	600
11697315	9931	1183	0	-100	0	230	101300000	1000	0	0	-1	600
11709875	9928	1188	0	-100	0	230	101300000	1000	0	0	-1	600
11722435	9933	1185	0	-100	0	230	101300000	1000	0	0	-1	600
11734995	9933	1187	0	-100	0	230	101300000	1000	0	0	-1	600
11747555	9925	1185	0	-100	0	230	101300000	1000	0	0	-1	600
11760115	9933	1191	0	-100	0	230	101300000	1000	0	0	-1	600
11772675	9928	1181	0	-100	0	230	101300000	1000	0	0	-1	600
11785235	9931	1181	0	-100	0	230	101300000	1000	0	0	-1	600
11797795	9928	1185	0	-100	0	230	101300000	1000	0	0	-1	600
11810355	9936	1188	0	-100	0	230	101300000	1000	0	0	-1	600
11822915	9931	1179	0	-100	0	230	101300000	1000	0	0	-1	600
11835475	9933	1189	0	-100	0	230	101300000	1000	0	0	-1	600
11848035	9928	1181	0	-100	0	230	101300000	1000	0	0	-1	600
11860595	9931	1181	0	-100	0	230	101300000	1000	0	0	-1	600
11873155	9928	1184	0	-100	0	230	101300000	1000	0	0	-1	600
11885715	9936	1188	0	-100	0	230	101300000	1000	0	0	-1	600
11898275	9928	1179	0	-100	0	230	101300000	1000	0	0	-1	600
11910835	9936	1183	0	-100	0	230	101300000	1000	0	0	-1	600
11923395	9931	1179	0	-100	0	230	101300000	1000	0	0	-1	600
11935955	9931	1193	0	-100	0	230	101300000	1000	0	0	-1	600
11948515	9928	1184	0	-100	0	230	101300000	1000	0	0	-1	600
11961075	9936	1184	0	-100	0	230	101300000	1000	0	0	-1	600
11973635	9915	1178	0	-100	0	230	101300000	1000	0	0	-1	600
11986195	9928	1185	0	-100	0	230	101300000	1000	0	0	-1	600
11998755	9931	1186	0	-100	0	230	101300000	1000	0	0	-1	600
12011315	9928	1181	0	-100	0	230	101300000	1000	0	0	-1	600
12023875	9915	1184	0	-100	0	230	101300000	1000	0	0	-1	600
12036435	9939	1184	0	-100	0	230	101300000	1000	0	0	-1	600
12048995	9915	1182	0	-100	0	230	101300000	1000	0	0	-1	600
12061555	9909	1180	0	-100	0	230	101300000	1000	0	0	-1	600
12074115	9931	1185	0	-100	0	230	101300000	1000	0	0	-1	600
12086675	9928	1179	0	-100	0	230	101300000	1000	0	0	-1	600
12099235	9931	1180	0	-100	0	230	101300000	1000	0	0	-1	600
12111795	9917	1178	0	-100	0	230	101300000	1000	0	0	-1	600
12124355	9925	1184	0	-100	0	230	101300000	1000	0	0	-1	600
12136915	9931	1188	0	-100	0	230	101300000	1000	0	0	-1	600
12149475	9939	1189	0	-100	0	230	101300000	1000	0	0	-1	600
12162035	9933	1189	0	-100	0	230	101300000	1000	0	0	-1	600
12174595	9931	1184	0	-100	0	230	101300000	1000	0	0	-1	600
12187155	9925	1179	0	-100	0	230	101300000	1000	0	0	-1	600
12199715	9931	1184	0	-100	0	230	101300000	1000	0	0	-1	600
12212275	9936	1188	0	-100	0	230	101300000	1000	0	0	-1	600
12224835	9925	1179	0	-100	0	230	101300000	1000	0	0	-1	600
12237395	9925	1178	0	-100	0	230	101300000	1000	0	0	-1	600
12249955	9928	1179	0	-100	0	230	101300000	1000	0	0	-1	600
12262515	9909	1180	0	-100	0	230	101300000	1000	0	0	-1	600
12275075	9936	1187	0	-100	0	230	101300000	1000	0	0	-1	600
12287635	9925	1185	0	-100	0	230	101300000	1000	0	0	-1	600
12300195	9928	1179	0	-100	0	230	101300000	1000	0	0	-1	600
12312755	9933	1177	0	-100	0	230	101300000	1000	0	0	-1	600
12325315	9933	1181	0	-100	0	230	101300000	1000	0	0	-1	600
12337875	9936	1187	0	-100	0	230	101300000	1000	0	0	-1	600
12350435	9928	1187	0	-100	0	230	101300000	1000	0	0	-1	600
12362995	9936	1185	0	-100	0	230	101300000	1000	0	0	-1	600
12375555	9928	1180	0	-100	0	230	101300000	1000	0	0	-1	600
12388115	9931	1181	0	-100	0	230	101300000	1000	0	0	-1	600
12400675	9931	1182	0	-100	0	230	101300000	1000	0	0	-1	600
12413235	9923	1182	0	-100	0	230	101300000	1000	0	0	-1	600
12425795	9936	1189	0	-100	0	230	101300000	1000	0	0	-1	600
12438355	9939	1183	0	-100	0	230	101300000	1000	0	0	-1	600
12450915	9925	1178	0	-100	0	230	101300000	1000	0	0	-1	600
12463475	9925	1180	0	-100	0	230	101300000	1000	0	0	-1	600
12476035	9933	1186	0	-100	0	230	101300000	1000	0	0	-1	600
12488595	9931	1181	0	-100	0	230	101300000	1000	0	0	-1	600
12501155	9928	1181	0	-100	0	230	101300000	1000	0	0	-1	600
12513715	9936	1183	0	-100	0	230	101300000	1000	0	0	-1	600
12526275	9917	1186	0	-100	0	230	101300000	1000	0	0	-1	600
12538835	9923	1179	0	-100	0	230	101300000	1000	0	0	-1	600
12551395	9928	1179	0	-100	0	230	101300000	1000	0	0	-1	600
12563955	9915	1179	0	-100	0	230	101300000	1000	0	0	-1	600
12576515	9928	1188	0	-100	0	230	101300000	1000	0	0	-1	600
12589075	9931	1185	0	-100	0	230	101300000	1000	0	0	-1	600
12601635	9933	1183	0	-100	0	230	101300000	1000	0	0	-1	600
12614195	9931	1181	0	-100	0	230	101300000	1000	0	0	-1	600
12626755	9931	1181	0	-100	0	230	101300000	1000	0	0	-1	600
12639315	9920	1186	0	-100	0	230	101300000	1000	0	0	-1	600
12651875	9933	1183	0	-100	0	230	101300000	1000	0	0	-1	600
12664435	9925	1178	0	-100	0	230	101300000	1000	0	0	-1	600
12676995	9931	1178	0	-100	0	230	101300000	1000	0	0	-1	600
12689555	9931	1185	0	-100	0	230	101300000	1000	0	0	-1	600
12702115	9933	1177	0	-100	0	230	101300000	1000	0	0	-1	600
12714675	9925	1173	0	-100	0	230	101300000	1000	0	0	-1	600
12727235	9912	1173	0	-100	0	230	101300000	1000	0	0	-1	600
12739795	9936	1180	0	-100	0	230	101300000	1000	0	0	-1	600
12752355	9933	1174	0	-100	0	230	101300000	1000	0	0	-1	600
12764915	9923	1171	0	-100	0	230	101300000	1000	0	0	-1	600
12777475	9931	1177	0	-100	0	230	101300000	1000	0	0	-1	600
12790035	9931	1178	0	-100	0	230	101300000	1000	0	0	-1	600
12802595	9931	1168	0	-100	0	230	101300000	1000	0	0	-1	600
12815155	9925	1171	0	-100	0	230	101300000	1000	0	0	-1	600
12827715	9933	1180	0	-100	0	230	101300000	1000	0	0	-1	600
12840275	9933	1170	0	-100	0	230	101300000	1000	0	0	-1	600
12852835	9933	1174	0	-100	0	230	101300000	1000	0	0	-1	600
12865395	9931	1173	0	-100	0	230	101300000	1000	0	0	-1	600
12877955	9933	1170	0	-100	0	230	101300000	1000	0	0	-1	600
12890515	9933	1175	0	-100	0	230	101300000	1000	0	0	-1	600
12903075	9933	1170	0	-100	0	230	101300000	1000	0	0	-1	600
12915635	9936	1172	0	-100	0	230	101300000	1000	0	0	-1	600
12928195	9923	1174	0	-100	0	230	101300000	1000	0	0	-1	600
12940755	9933	1172	0	-100	0	230	101300000	1000	0	0	-1	600
12953315	9923	1180	0	-100	0	230	101300000	1000	0	0	-1	600
12965875	9936	1176	0	-100	0	230	101300000	1000	0	0	-1	600
12978435	9917	1177	0	-100	0	230	101300000	1000	0	0	-1	600
12990995	9936	1175	0	-100	0	230	101300000	1000	0	0	-1	600
13003555	9931	1173	0	-100	0	230	101300000	1000	0	0	-1	600
13016115	9933	1175	0	-100	0	230	101300000	1000	0	0	-1	600
13028675	9931	1175	0	-100	0	230	101300000	1000	0	0	-1	600
13041235	9920	1168	0	-100	0	230	101300000	1000	0	0	-1	600
13053795	9931	1176	0	-100	0	230	101300000	1000	0	0	-1	600
13066355	9920	1174	0	-100	0	230	101300000	1000	0	0	-1	600
13078915	9928	1169	0	-100	0	230	101300000	1000	0	0	-1	600
13091475	9923	1173	0	-100	0	230	101300000	1000	0	0	-1	600
13104035	9933	1177	0	-100	0	230	101300000	1000	0	0	-1	600
13116595	9931	1170	0	-100	0	230	101300000	1000	0	0	-1	600
13129155	9928	1178	0	-100	0	230	101300000	1000	0	0	-1	600
13141715	9920	1170	0	-100	0	230	101300000	1000	0	0	-1	600
13154275	9915	1175	0	-100	0	230	101300000	1000	0	0	-1	600
13166835	9925	1173	0	-100	0	230	101300000	1000	0	0	-1	600
13179395	9917	1176	0	-100	0	230	101300000	1000	0	0	-1	600
13191955	9933	1173	0	-100	0	230	101300000	1000	0	0	-1	600
13204515	9915	1174	0	-100	0	230	101300000	1000	0	0	-1	600
13217075	9931	1168	0	-100	0	230	101300000	1000	0	0	-1	600
13229635	9931	1172	0	-100	0	230	101300000	1000	0	0	-1	600
13242195	9925	1169	0	-100	0	230	101300000	1000	0	0	-1	600
13254755	9931	1174	0	-100	0	230	101300000	1000	0	0	-1	600
13267315	9931	1171	0	-100	0	230	101300000	1000	0	0	-1	600
13279875	9931	1172	0	-100	0	230	101300000	1000	0	0	-1	600
13292435	9933	1170	0	-100	0	230	101300000	1000	0	0	-1	600
13304995	9925	1175	0	-100	0	230	101300000	1000	0	0	-1	600
13317555	9933	1170	0	-100	0	230	101300000	1000	0	0	-1	600
13330115	9931	1175	0	-100	0	230	101300000	1000	0	0	-1	600
13342675	9928	1180	0	-100	0	230	101300000	1000	0	0	-1	600
13355235	9931	1173	0	-100	0	230	101300000	1000	0	0	-1	600
13367795	9936	1169	0	-100	0	230	101300000	1000	0	0	-1	600
13380355	9933	1174	0	-100	0	230	101300000	1000	0	0	-1	600
13392915	9928	1167	0	-100	0	230	101300000	1000	0	0	-1	600
13405475	9925	1171	0	-100	0	230	101300000	1000	0	0	-1	600
13418035	9936	1175	0	-100	0	230	101300000	1000	0	0	-1	600
13430595	9931	1168	0	-100	0	230	101300000	1000	0	0	-1	600
13443155	9925	1172	0	-100	0	230	101300000	1000	0	0	-1	600
13455715	9931	1170	0	-100	0	230	101300000	1000	0	0	-1	600
13468275	9931	1170	0	-100	0	230	101300000	1000	0	0	-1	600
13480835	9931	1175	0	-100	0	230	101300000	1000	0	0	-1	600
13493395	9936	1170	0	-100	0	230	101300000	1000	0	0	-1	600
13505955	9933	1174	0	-100	0	230	101300000	1000	0	0	-1	600
13518515	9931	1168	0	-100	0	230	101300000	1000	0	0	-1	600
13531075	9920	1172	0	-100	0	230	101300000	1000	0	0	-1	600
13543635	9920	1167	0	-100	0	230	101300000	1000	0	0	-1	600
13556195	9928	1178	0	-100	0	230	101300000	1000	0	0	-1	600
13568755	9931	1170	0	-100	0	230	101300000	1000	0	0	-1	600
13581315	9931	1171	0	-100	0	230	101300000	1000	0	0	-1	600
13593875	9928	1171	0	-100	0	230	101300000	1000	0	0	-1	600
13606435	9931	1168	0	-100	0	230	101300000	1000	0	0	-1	600
13618995	9928	1169	0	-100	0	230	101300000	1000	0	0	-1	600
13631555	9925	1165	0	-100	0	230	101300000	1000	0	0	-1	600
13644115	9920	1172	0	-100	0	230	101300000	1000	0	0	-1	600
13656675	9915	1167	0	-100	0	230	101300000	1000	0	0	-1	600
13669235	9933	1177	0	-100	0	230	101300000	1000	0	0	-1	600
13681795	9925	1168	0	-100	0	230	101300000	1000	0	0	-1	600
13694355	9933	1174	0	-100	0	230	101300000	1000	0	0	-1	600
13706915	9928	1167	0	-100	0	230	101300000	1000	0	0	-1	600
13719475	9931	1177	0	-100	0	230	101300000	1000	0	0	-1	600
13732035	9931	1167	0	-100	0	230	101300000	1000	0	0	-1	600
13744595	9920	1172	0	-100	0	230	101300000	1000	0	0	-1	600
13757155	9933	1166	0	-100	0	230	101300000	1000	0	0	-1	600
13769715	9936	1176	0	-100	0	230	101300000	1000	0	0	-1	600
13782275	9936	1170	0	-100	0	230	101300000	1000	0	0	-1	600
13794835	9923	1167	0	-100	0	230	101300000	1000	0	0	-1	600
13807395	9931	1172	0	-100	0	230	101300000	1000	0	0	-1	600
13819955	9936	1168	0	-100	0	230	101300000	1000	0	0	-1	600
13832515	9928	1167	0	-100	0	230	101300000	1000	0	0	-1	600
13845075	9931	1170	0	-100	0	230	101300000	1000	0	0	-1	600
13857635	9936	1175	0	-100	0	230	101300000	1000	0	0	-1	600
13870195	9925	1165	0	-100	0	230	101300000	1000	0	0	-1	600
13882755	9936	1174	0	-100	0	230	101300000	1000	0	0	-1	600
13895315	9923	1165	0	-100	0	230	101300000	1000	0	0	-1	600
13907875	9931	1172	0	-100	0	230	101300000	1000	0	0	-1	600
13920435	9931	1170	0	-100	0	230	101300000	1000	0	0	-1	600
13932995	9915	1172	0	-100	0	230	101300000	1000	0	0	-1	600
13945555	9931	1171	0	-100	0	230	101300000	1000	0	0	-1	600
13958115	9915	1162	0	-100	0	230	101300000	1000	0	0	-1	600
13970675	9931	1179	0	-100	0	230	101300000	1000	0	0	-1	600
13983235	9931	1165	0	-100	0	230	101300000	1000	0	0	-1	600
13995795	9931	1173	0	-100	0	230	101300000	1000	0	0	-1	600
14008355	9925	1165	0	-100	0	230	101300000	1000	0	0	-1	600
14020915	9936	1175	0	-100	0	230	101300000	1000	0	0	-1	600
14033475	9925	1165	0	-100	0	230	101300000	1000	0	0	-1	600
14046035	9936	1172	0	-100	0	230	101300000	1000	0	0	-1	600
14058595	9928	1169	0	-100	0	230	101300000	1000	0	0	-1	600
14071155	9933	1166	0	-100	0	230	101300000	1000	0	0	-1	600
14083715	9933	1170	0	-100	0	230	101300000	1000	0	0	-1	600
14096275	9933	1170	0	-100	0	230	101300000	1000	0	0	-1	600
14108835	9933	1166	0	-100	0	230	101300000	1000	0	0	-1	600
14121395	9933	1172	0	-100	0	230	101300000	1000	0	0	-1	600
14133955	9928	1164	0	-100	0	230	101300000	1000	0	0	-1	600
14146515	9925	1171	0	-100	0	230	101300000	1000	0	0	-1	600
14159075	9928	1165	0	-100	0	230	101300000	1000	0	0	-1	600
14171635	9917	1168	0	-100	0	230	101300000	1000	0	0	-1	600
14184195	9933	1168	0	-100	0	230	101300000	1000	0	0	-1	600
14196755	9923	1170	0	-100	0	230	101300000	1000	0	0	-1	600
14209315	9931	1169	0	-100	0	230	101300000	1000	0	0	-1	600
14221875	9928	1167	0	-100	0	230	101300000	1000	0	0	-1	600
14234435	9939	1168	0	-100	0	230	101300000	1000	0	0	-1	600
14246995	9925	1169	0	-100	0	230	101300000	1000	0	0	-1	600
14259555	9933	1166	0	-100	0	230	101300000	1000	0	0	-1	600
14272115	9933	1166	0	-100	0	230	101300000	1000	0	0	-1	600
14284675	9933	1168	0	-100	0	230	101300000	1000	0	0	-1	600
14297235	9925	1162	0	-100	0	230	101300000	1000	0	0	-1	600
14309795	9933	1174	0	-100	0	230	101300000	1000	0	0	-1	600
14322355	9925	1165	0	-100	0	230	101300000	1000	0	0	-1	600
14334915	9933	1176	0	-100	0	230	101300000	1000	0	0	-1	600
14347475	9925	1164	0	-100	0	230	101300000	1000	0	0	-1	600
14360035	9933	1166	0	-100	0	230	101300000	1000	0	0	-1	600
14372595	9936	1175	0	-100	0	230	101300000	1000	0	0	-1	600
14385155	9917	1163	0	-100	0	230	101300000	1000	0	0	-1	600
14397715	9925	1172	0	-100	0	230	101300000	1000	0	0	-1	600
14410275	9920	1162	0	-100	0	230	101300000	1000	0	0	-1	600
14422835	9925	1169	0	-100	0	230	101300000	1000	0	0	-1	600
14435395	9928	1163	0	-100	0	230	101300000	1000	0	0	-1	600
14447955	9928	1171	0	-100	0	230	101300000	1000	0	0	-1	600
14460515	9931	1163	0	-100	0	230	101300000	1000	0	0	-1	600
14473075	9920	1163	0	-100	0	230	101300000	1000	0	0	-1	600
14485635	9936	1173	0	-100	0	230	101300000	1000	0	0	-1	600
14498195	9928	1163	0	-100	0	230	101300000	1000	0	0	-1	600
14510755	9931	1172	0	-100	0	230	101300000	1000	0	0	-1	600
14523315	9920	1163	0	-100	0	230	101300000	1000	0	0	-1	600
14535875	9931	1171	0	-100	0	230	101300000	1000	0	0	-1	600
14548435	9936	1166	0	-100	0	230	101300000	1000	0	0	-1	600
14560995	9933	1167	0	-100	0	230	101300000	1000	0	0	-1	600
14573555	9933	1164	0	-100	0	230	101300000	1000	0	0	-1	600
14586115	9925	1165	0	-100	0	230	101300000	1000	0	0	-1	600
14598675	9928	1171	0	-100	0	230	101300000	1000	0	0	-1	600
14611235	9936	1167	0	-100	0	230	101300000	1000	0	0	-1	600
14623795	9928	1167	0	-100	0	230	101300000	1000	0	0	-1	600
14636355	9931	1170	0	-100	0	230	101300000	1000	0	0	-1	600
14648915	9936	1166	0	-100	0	230	101300000	1000	0	0	-1	600
14661475	9931	1167	0	-100	0	230	101300000	1000	0	0	-1	600
14674035	9931	1168	0	-100	0	230	101300000	1000	0	0	-1	600
14686595	9933	1166	0	-100	0	230	101300000	1000	0	0	-1	600
14699155	9928	1164	0	-100	0	230	101300000	1000	0	0	-1	600
14711715	9933	1173	0	-100	0	230	101300000	1000	0	0	-1	600
14724275	9928	1168	0	-100	0	230	101300000	1000	0	0	-1	600
14736835	9925	1161	0	-100	0	230	101300000	1000	0	0	-1	600
14749395	9933	1166	0	-100	0	230	101300000	1000	0	0	-1	600
14761955	9925	1171	0	-100	0	230	101300000	1000	0	0	-1	600
14774515	9917	1164	0	-100	0	230	101300000	1000	0	0	-1	600
14787075	9928	1166	0	-100	0	230	101300000	1000	0	0	-1	600
14799635	9925	1162	0	-100	0	230	101300000	1000	0	0	-1	600
14812195	9931	1172	0	-100	0	230	101300000	1000	0	0	-1	600
14824755	9928	1161	0	-100	0	230	101300000	1000	0	0	-1	600
14837315	9928	1164	0	-100	0	230	101300000	1000	0	0	-1	600
14849875	9931	1171	0	-100	0	230	101300000	1000	0	0	-1	600
14862435	9928	1161	0	-100	0	230	101300000	1000	0	0	-1	600
14874995	9925	1163	0	-100	0	230	101300000	1000	0	0	-1	600
14887555	9933	1165	0	-100	0	230	101300000	1000	0	0	-1	600
14900115	9928	1167	0	-100	0	230	101300000	1000	0	0	-1	600
14912675	9912	1160	0	-100	0	230	101300000	1000	0	0	-1	600
14925235	9931	1173	0	-100	0	230	101300000	1000	0	0	-1	600
14937795	9923	1158	0	-100	0	230	101300000	1000	0	0	-1	600
14950355	9936	1172	0	-100	0	230	101300000	1000	0	0	-1	600
14962915	9925	1161	0	-100	0	230	101300000	1000	0	0	-1	600
14975475	9928	1170	0	-100	0	230	101300000	1000	0	0	-1	600
14988035	9923	1162	0	-100	0	230	101300000	1000	0	0	-1	600
15000595	9933	1168	0	-100	0	230	101300000	1000	0	0	-1	600
15013155	9931	1163	0	-100	0	230	101300000	1000	0	0	-1	600
15025715	9912	1165	0	-100	0	230	101300000	1000	0	0	-1	600
15038275	9933	1167	0	-100	0	230	101300000	1000	0	0	-1	600
15050835	9920	1164	0	-100	0	230	101300000	1000	0	0	-1	600
15063395	9923	1163	0	-100	0	230	101300000	1000	0	0	-1	600
15075955	9931	1168	0	-100	0	230	101300000	1000	0	0	-1	600
15088515	9931	1164	0	-100	0	230	101300000	1000	0	0	-1	600
15101075	9928	1167	0	-100	0	230	101300000	1000	0	0	-1	600
15113635	9931	1168	0	-100	0	230	101300000	1000	0	0	-1	600
15126195	9928	1160	0	-100	0	230	101300000	1000	0	0	-1	600
15138755	9925	1167	0	-100	0	230	101300000	1000	0	0	-1	600
15151315	9931	1164	0	-100	0	230	101300000	1000	0	0	-1	600
15163875	9923	1166	0	-100	0	230	101300000	1000	0	0	-1	600
15176435	9928	1162	0	-100	0	230	101300000	1000	0	0	-1	600
15188995	9928	1167	0	-100	0	230	101300000	1000	0	0	-1	600
15201555	9917	1160	0	-100	0	230	101300000	1000	0	0	-1	600
15214115	9933	1165	0	-100	0	230	101300000	1000	0	0	-1	600
15226675	9928	1165	0	-100	0	230	101300000	1000	0	0	-1	600
15239235	9936	1163	0	-100	0	230	101300000	1000	0	0	-1	600
15251795	9920	1166	0	-100	0	230	101300000	1000	0	0	-1	600
15264355	9923	1160	0	-100	0	230	101300000	1000	0	0	-1	600
15276915	9925	1171	0	-100	0	230	101300000	1000	0	0	-1	600
15289475	9925	1161	0	-100	0	230	101300000	1000	0	0	-1	600
15302035	9928	1167	0	-100	0	230	101300000	1000	0	0	-1	600
15314595	9936	1163	0	-100	0	230	101300000	1000	0	0	-1	600
15327155	9931	1160	0	-100	0	230	101300000	1000	0	0	-1	600
15339715	9942	1166	0	-100	0	230	101300000	1000	0	0	-1	600
15352275	9928	1162	0	-100	0	230	101300000	1000	0	0	-1	600
15364835	9931	1167	0	-100	0	230	101300000	1000	0	0	-1	600
15377395	9928	1160	0	-100	0	230	101300000	1000	0	0	-1	600
15389955	9936	1167	0	-100	0	230	101300000	1000	0	0	-1	600
15402515	9928	1160	0	-100	0	230	101300000	1000	0	0	-1	600
15415075	9931	1172	0	-100	0	230	101300000	1000	0	0	-1	600
15427635	9920	1158	0	-100	0	230	101300000	1000	0	0	-1	600
15440195	9939	1170	0	-100	0	230	101300000	1000	0	0	-1	600
15452755	9925	1159	0	-100	0	230	101300000	1000	0	0	-1	600
15465315	9933	1169	0	-100	0	230	101300000	1000	0	0	-1	600
15477875	9928	1160	0	-100	0	230	101300000	1000	0	0	-1	600
15490435	9933	1169	0	-100	0	230	101300000	1000	0	0	-1	600
15502995	9925	1166	0	-100	0	230	101300000	1000	0	0	-1	600
15515555	9925	1166	0	-100	0	230	101300000	1000	0	0	-1	600
15528115	9925	1162	0	-100	0	230	101300000	1000	0	0	-1	600
15540675	9928	1166	0	-100	0	230	101300000	1000	0	0	-1	600
15553235	9925	1161	0	-100	0	230	101300000	1000	0	0	-1	600
15565795	9933	1170	0	-100	0	230	101300000	1000	0	0	-1	600
15578355	9928	1158	0	-100	0	230	101300000	1000	0	0	-1	600
15590915	9931	1166	0	-100	0	230	101300000	1000	0	0	-1	600
15603475	9925	1161	0	-100	0	230	101300000	1000	0	0	-1	600
15616035	9931	1167	0	-100	0	230	101300000	1000	0	0	-1	600
15628595	9931	1162	0	-100	0	230	101300000	1000	0	0	-1	600
15641155	9928	1167	0	-100	0	230	101300000	1000	0	0	-1	600
15653715	9923	1162	0	-100	0	230	101300000	1000	0	0	-1	600
15666275	9931	1165	0	-100	0	230	101300000	1000	0	0	-1	600
15678835	9928	1161	0	-100	0	230	101300000	1000	0	0	-1	600
15691395	9931	1168	0	-100	0	230	101300000	1000	0	0	-1	600
15703955	9931	1162	0	-100	0	230	101300000	1000	0	0	-1	600
15716515	9925	1165	0	-100	0	230	101300000	1000	0	0	-1	600
15729075	9923	1159	0	-100	0	230	101300000	1000	0	0	-1	600
15741635	9912	1167	0	-100	0	230	101300000	1000	0	0	-1	600
15754195	9933	1164	0	-100	0	230	101300000	1000	0	0	-1	600
15766755	9920	1166	0	-100	0	230	101300000	1000	0	0	-1	600
15779315	9931	1164	0	-100	0	230	101300000	1000	0	0	-1	600
15791875	9931	1165	0	-100	0	230	101300000	1000	0	0	-1	600
15804435	9931	1161	0	-100	0	230	101300000	1000	0	0	-1	600
15816995	9928	1167	0	-100	0	230	101300000	1000	0	0	-1	600
15829555	9928	1161	0	-100	0	230	101300000	1000	0	0	-1	600
15842115	9925	1164	0	-100	0	230	101300000	1000	0	0	-1	600
15854675	9928	1161	0	-100	0	230	101300000	1000	0	0	-1	600
15867235	9928	1167	0	-100	0	230	101300000	1000	0	0	-1	600
15879795	9925	1160	0	-100	0	230	101300000	1000	0	0	-1	600
15892355	9928	1161	0	-100	0	230	101300000	1000	0	0	-1	600
15904915	9920	1166	0	-100	0	230	101300000	1000	0	0	-1	600
15917475	9933	1165	0	-100	0	230	101300000	1000	0	0	-1	600
15930035	9923	1161	0	-100	0	230	101300000	1000	0	0	-1	600
15942595	9931	1165	0	-100	0	230	101300000	1000	0	0	-1	600
15955155	9928	1167	0	-100	0	230	101300000	1000	0	0	-1	600
15967715	9936	1163	0	-100	0	230	101300000	1000	0	0	-1	600
15980275	9917	1160	0	-100	0	230	101300000	1000	0	0	-1	600
15992835	9933	1167	0	-100	0	230	101300000	1000	0	0	-1	600
16005395	9925	1159	0	-100	0	230	101300000	1000	0	0	-1	600
16017955	9933	1168	0	-100	0	230	101300000	1000	0	0	-1	600
16030515	9925	1158	0	-100	0	230	101300000	1000	0	0	-1	600
16043075	9931	1163	0	-100	0	230	101300000	1000	0	0	-1	600
16055635	9925	1161	0	-100	0	230	101300000	1000	0	0	-1	600
16068195	9933	1165	0	-100	0	230	101300000	1000	0	0	-1	600
16080755	9933	1163	0	-100	0	230	101300000	1000	0	0	-1	600
16093315	9912	1158	0	-100	0	230	101300000	1000	0	0	-1	600
16105875	9936	1165	0	-100	0	230	101300000	1000	0	0	-1	600
16118435	9923	1158	0	-100	0	230	101300000	1000	0	0	-1	600
16130995	9936	1167	0	-100	0	230	101300000	1000	0	0	-1	600
16143555	9933	1159	0	-100	0	230	101300000	1000	0	0	-1	600
16156115	9931	1168	0	-100	0	230	101300000	1000	0	0	-1	600
16168675	9928	1160	0	-100	0	230	101300000	1000	0	0	-1	600
16181235	9925	1165	0	-100	0	230	101300000	1000	0	0	-1	600
16193795	9923	1159	0	-100	0	230	101300000	1000	0	0	-1	600
16206355	9933	1162	0	-100	0	230	101300000	1000	0	0	-1	600
16218915	9928	1162	0	-100	0	230	101300000	1000	0	0	-1	600
16231475	9923	1157	0	-100	0	230	101300000	1000	0	0	-1	600
16244035	9933	1164	0	-100	0	230	101300000	1000	0	0	-1	600
16256595	9933	1163	0	-100	0	230	101300000	1000	0	0	-1	600
16269155	9933	1163	0	-100	0	230	101300000	1000	0	0	-1	600
16281715	9931	1164	0	-100	0	230	101300000	1000	0	0	-1	600
16294275	9933	1162	0	-100	0	230	101300000	1000	0	0	-1	600
16306835	9925	1162	0	-100	0	230	101300000	1000	0	0	-1	600
16319395	9928	1162	0	-100	0	230	101300000	1000	0	0	-1	600
16331955	9923	1163	0	-100	0	230	101300000	1000	0	0	-1	600
16344515	9931	1158	0	-100	0	230	101300000	1000	0	0	-1	600
16357075	9923	1165	0	-100	0	230	101300000	1000	0	0	-1	600
16369635	9915	1158	0	-100	0	230	101300000	1000	0	0	-1	600
16382195	9936	1171	0	-100	0	230	101300000	1000	0	0	-1	600
16394755	9928	1158	0	-100	0	230	101300000	1000	0	0	-1	600
16407315	9936	1168	0	-100	0	230	101300000	1000	0	0	-1	600
16419875	9920	1158	0	-100	0	230	101300000	1000	0	0	-1	600
16432435	9912	1162	0	-100	0	230	101300000	1000	0	0	-1	600
16444995	9939	1166	0	-100	0	230	101300000	1000	0	0	-1	600
16457555	9925	1158	0	-100	0	230	101300000	1000	0	0	-1	600
16470115	9931	1168	0	-100	0	230	101300000	1000	0	0	-1	600
16482675	9925	1157	0	-100	0	230	101300000	1000	0	0	-1	600
16495235	9925	1165	0	-100	0	230	101300000	1000	0	0	-1	600
16507795	9936	1162	0	-100	0	230	101300000	1000	0	0	-1	600
16520355	9912	1158	0	-100	0	230	101300000	1000	0	0	-1	600
16532915	9931	1171	0	-100	0	230	101300000	1000	0	0	-1	600
16545475	9923	1156	0	-100	0	230	101300000	1000	0	0	-1	600
16558035	9933	1166	0	-100	0	230	101300000	1000	0	0	-1	600
16570595	9925	1160	0	-100	0	230	101300000	1000	0	0	-1	600
16583155	9920	1161	0	-100	0	230	101300000	1000	0	0	-1	600
16595715	9931	1167	0	-100	0	230	101300000	1000	0	0	-1	600
16608275	9917	1157	0	-100	0	230	101300000	1000	0	0	-1	600
16620835	9936	1169	0	-100	0	230	101300000	1000	0	0	-1	600
16633395	9928	1159	0	-100	0	230	101300000	1000	0	0	-1	600
16645955	9933	1168	0	-100	0	230	101300000	1000	0	0	-1	600
16658515	9928	1162	0	-100	0	230	101300000	1000	0	0	-1	600
16671075	9925	1165	0	-100	0	230	101300000	1000	0	0	-1	600
16683635	9928	1160	0	-100	0	230	101300000	1000	0	0	-1	600
16696195	9928	1163	0	-100	0	230	101300000	1000	0	0	-1	600
16708755	9931	1160	0	-100	0	230	101300000	1000	0	0	-1	600
16721315	9928	1161	0	-100	0	230	101300000	1000	0	0	-1	600
16733875	9928	1166	0	-100	0	230	101300000	1000	0	0	-1	600
16746435	9925	1159	0	-100	0	230	101300000	1000	0	0	-1	600
16758995	9928	1158	0	-100	0	230	101300000	1000	0	0	-1	600
16771555	9925	1157	0	-100	0	230	101300000	1000	0	0	-1	600
16784115	9928	1169	0	-100	0	230	101300000	1000	0	0	-1	600
16796675	9928	1159	0	-100	0	230	101300000	1000	0	0	-1	600
16809235	9931	1167	0	-100	0	230	101300000	1000	0	0	-1	600
16821795	9920	1160	0	-100	0	230	101300000	1000	0	0	-1	600
16834355	9928	1165	0	-100	0	230	101300000	1000	0	0	-1	600
16846915	9925	1161	0	-100	0	230	101300000	1000	0	0	-1	600
16859475	9931	1164	0	-100	0	230	101300000	1000	0	0	-1	600
16872035	9933	1163	0	-100	0	230	101300000	1000	0	0	-1	600
16884595	9917	1161	0	-100	0	230	101300000	1000	0	0	-1	600
16897155	9928	1163	0	-100	0	230	101300000	1000	0	0	-1	600
16909715	9928	1167	0	-100	0	230	101300000	1000	0	0	-1	600
16922275	9931	1159	0	-100	0	230	101300000	1000	0	0	-1	600
16934835	9925	1165	0	-100	0	230	101300000	1000	0	0	-1	600
16947395	9912	1158	0	-100	0	230	101300000	1000	0	0	-1	600
16959955	9933	1167	0	-100	0	230	101300000	1000	0	0	-1	600
16972515	9917	1157	0	-100	0	230	101300000	1000	0	0	-1	600
16985075	9928	1163	0	-100	0	230	101300000	1000	0	0	-1	600
16997635	9933	1160	0	-100	0	230	101300000	1000	0	0	-1	600
17010195	9931	1167	0	-100	0	230	101300000	1000	0	0	-1	600
17022755	9931	1162	0	-100	0	230	101300000	1000	0	0	-1	600
17035315	9933	1168	0	-100	0	230	101300000	1000	0	0	-1	600
17047875	9928	1163	0	-100	0	230	101300000	1000	0	0	-1	600
17060435	9933	1177	0	-100	0	230	101300000	1000	0	0	-1	600
17072995	9928	1178	0	-100	0	230	101300000	1000	0	0	-1	600
17085555	9931	1175	0	-100	0	230	101300000	1000	0	0	-1	600
17098115	9928	1170	0	-100	0	230	101300000	1000	0	0	-1	600
17110675	9920	1173	0	-100	0	230	101300000	1000	0	0	-1	600
17123235	9928	1171	0	-100	0	230	101300000	1000	0	0	-1	600
17135795	9925	1172	0	-100	0	230	101300000	1000	0	0	-1	600
17148355	9923	1169	0	-100	0	230	101300000	1000	0	0	-1	600
17160915	9925	1175	0	-100	0	230	101300000	1000	0	0	-1	600
17173475	9925	1169	0	-100	0	230	101300000	1000	0	0	-1	600
17186035	9936	1182	0	-100	0	230	101300000	1000	0	0	-1	600
17198595	9928	1171	0	-100	0	230	101300000	1000	0	0	-1	600
17211155	9912	1171	0	-100	0	230	101300000	1000	0	0	-1	600
17223715	9923	1168	0	-100	0	230	101300000	1000	0	0	-1	600
17236275	9931	1177	0	-100	0	230	101300000	1000	0	0	-1	600
17248835	9917	1168	0	-100	0	230	101300000	1000	0	0	-1	600
17261395	9936	1174	0	-100	0	230	101300000	1000	0	0	-1	600
17273955	9936	1171	0	-100	0	230	101300000	1000	0	0	-1	600
17286515	9923	1172	0	-100	0	230	101300000	1000	0	0	-1	600
17299075	9933	1175	0	-100	0	230	101300000	1000	0	0	-1	600
17311635	9931	1172	0	-100	0	230	101300000	1000	0	0	-1	600
17324195	9917	1175	0	-100	0	230	101300000	1000	0	0	-1	600
17336755	9931	1168	0	-100	0	230	101300000	1000	0	0	-1	600
17349315	9925	1171	0	-100	0	230	101300000	1000	0	0	-1	600
17361875	9931	1176	0	-100	0	230	101300000	1000	0	0	-1	600
17374435	9936	1173	0	-100	0	230	101300000	1000	0	0	-1	600
17386995	9933	1168	0	-100	0	230	101300000	1000	0	0	-1	600
17399555	9917	1168	0	-100	0	230	101300000	1000	0	0	-1	600
17412115	9928	1180	0	-100	0	230	101300000	1000	0	0	-1	600
17424675	9931	1172	0	-100	0	230	101300000	1000	0	0	-1	600
17437235	9936	1179	0	-100	0	230	101300000	1000	0	0	-1	600
17449795	9933	1170	0	-100	0	230	101300000	1000	0	0	-1	600
17462355	9936	1172	0	-100	0	230	101300000	1000	0	0	-1	600
17474915	9920	1170	0	-100	0	230	101300000	1000	0	0	-1	600
17487475	9939	1171	0	-100	0	230	101300000	1000	0	0	-1	600
17500035	9933	1173	0	-100	0	230	101300000	1000	0	0	-1	600
17512595	9925	1173	0	-100	0	230	101300000	1000	0	0	-1	600
17525155	9928	1168	0	-100	0	230	101300000	1000	0	0	-1	600
17537715	9923	1175	0	-100	0	230	101300000	1000	0	0	-1	600
17550275	9939	1173	0	-100	0	230	101300000	1000	0	0	-1	600
17562835	9933	1171	0	-100	0	230	101300000	1000	0	0	-1	600
17575395	9912	1173	0	-100	0	230	101300000	1000	0	0	-1	600
17587955	9920	1167	0	-100	0	230	101300000	1000	0	0	-1	600
17600515	9931	1170	0	-100	0	230	101300000	1000	0	0	-1	600
17613075	9931	1174	0	-100	0	230	101300000	1000	0	0	-1	600
17625635	9928	1169	0	-100	0	230	101300000	1000	0	0	-1	600
17638195	9915	1169	0	-100	0	230	101300000	1000	0	0	-1	600
17650755	9936	1177	0	-100	0	230	101300000	1000	0	0	-1	600
17663315	9928	1170	0	-100	0	230	101300000	1000	0	0	-1	600
17675875	9933	1170	0	-100	0	230	101300000	1000	0	0	-1	600
17688435	9931	1173	0	-100	0	230	101300000	1000	0	0	-1	600
17700995	9933	1173	0	-100	0	230	101300000	1000	0	0	-1	600
17713555	9925	1173	0	-100	0	230	101300000	1000	0	0	-1	600
17726115	9933	1176	0	-100	0	230	101300000	1000	0	0	-1	600
17738675	9923	1166	0	-100	0	230	101300000	1000	0	0	-1	600
17751235	9931	1175	0	-100	0	230	101300000	1000	0	0	-1	600
17763795	9931	1172	0	-100	0	230	101300000	1000	0	0	-1	600
17776355	9915	1163	0	-100	0	230	101300000	1000	0	0	-1	600
17788915	9928	1171	0	-100	0	230	101300000	1000	0	0	-1	600
17801475	9923	1174	0	-100	0	230	101300000	1000	0	0	-1	600
17814035	9928	1167	0	-100	0	230	101300000	1000	0	0	-1	600
17826595	9931	1174	0	-100	0	230	101300000	1000	0	0	-1	600
17839155	9936	1175	0	-100	0	230	101300000	1000	0	0	-1	600
17851715	9931	1171	0	-100	0	230	101300000	1000	0	0	-1	600
17864275	9936	1175	0	-100	0	230	101300000	1000	0	0	-1	600
17876835	9931	1170	0	-100	0	230	101300000	1000	0	0	-1	600
17889395	9936	1169	0	-100	0	230	101300000	1000	0	0	-1	600
17901955	9917	1173	0	-100	0	230	101300000	1000	0	0	-1	600
17914515	9925	1168	0	-100	0	230	101300000	1000	0	0	-1	600
17927075	9928	1171	0	-100	0	230	101300000	1000	0	0	-1	600
17939635	9928	1173	0	-100	0	230	101300000	1000	0	0	-1	600
17952195	9931	1169	0	-100	0	230	101300000	1000	0	0	-1	600
17964755	9936	1179	0	-100	0	230	101300000	1000	0	0	-1	600
17977315	9928	1168	0	-100	0	230	101300000	1000	0	0	-1	600
17989875	9936	1170	0	-100	0	230	101300000	1000	0	0	-1	600
18002435	9933	1174	0	-100	0	230	101300000	1000	0	0	-1	600
18014995	9928	1174	0	-100	0	230	101300000	1000	0	0	-1	600
18027555	9925	1169	0	-100	0	230	101300000	1000	0	0	-1	600
18040115	9925	1176	0	-100	0	230	101300000	1000	0	0	-1	600
18052675	9928	1167	0	-100	0	230	101300000	1000	0	0	-1	600
18065235	9931	1172	0	-100	0	230	101300000	1000	0	0	-1	600
18077795	9933	1180	0	-100	0	230	101300000	1000	0	0	-1	600
18090355	9928	1167	0	-100	0	230	101300000	1000	0	0	-1	600
18102915	9928	1173	0	-100	0	230	101300000	1000	0	0	-1	600
18115475	9923	1171	0	-100	0	230	101300000	1000	0	0	-1	600
18128035	9933	1167	0	-100	0	230	101300000	1000	0	0	-1	600
18140595	9928	1174	0	-100	0	230	101300000	1000	0	0	-1	600
18153155	9936	1172	0	-100	0	230	101300000	1000	0	0	-1	600
18165715	9928	1167	0	-100	0	230	101300000	1000	0	0	-1	600
18178275	9931	1175	0	-100	0	230	101300000	1000	0	0	-1	600
18190835	9931	1170	0	-100	0	230	101300000	1000	0	0	-1	600
18203395	9936	1178	0	-100	0	230	101300000	1000	0	0	-1	600
18215955	9933	1171	0	-100	0	230	101300000	1000	0	0	-1	600
18228515	9925	1166	0	-100	0	230	101300000	1000	0	0	-1	600
18241075	9936	1173	0	-100	0	230	101300000	1000	0	0	-1	600
18253635	9920	1165	0	-100	0	230	101300000	1000	0	0	-1	600
18266195	9936	1175	0	-100	0	230	101300000	1000	0	0	-1	600
18278755	9925	1167	0	-100	0	230	101300000	1000	0	0	-1	600
18291315	9936	1172	0	-100	0	230	101300000	1000	0	0	-1	600
18303875	9920	1088	0	-100	0	230	101300000	1000	0	0	-1	600
18316435	9931	1079	0	-100	0	230	101300000	1000	0	0	-1	600
18328995	9933	1050	0	-100	0	230	101300000	1000	0	0	-1	600
18341555	9917	1083	0	-100	0	230	101300000	1000	0	0	-1	600
18354115	9933	1093	0	-100	0	230	101300000	1000	0	0	-1	600
18366675	9933	1082	0	-100	0	230	101300000	1000	0	0	-1	600
18379235	9928	1097	0	-100	0	230	101300000	1000	0	0	-1	600
18391795	9928	1093	0	-100	0	230	101300000	1000	0	0	-1	600
18404355	9920	1082	0	-100	0	230	101300000	1000	0	0	-1	600
18416915	9928	1082	0	-100	0	230	101300000	1000	0	0	-1	600
18429475	9928	1087	0	-100	0	230	101300000	1000	0	0	-1	600
18442035	9928	1078	0	-100	0	230	101300000	1000	0	0	-1	600
18454595	9925	1089	0	-100	0	230	101300000	1000	0	0	-1	600
18467155	9923	1095	0	-100	0	230	101300000	1000	0	0	-1	600
18479715	9933	1085	0	-100	0	230	101300000	1000	0	0	-1	600
18492275	9923	1092	0	-100	0	230	101300000	1000	0	0	-1	600
18504835	9923	1074	0	-100	0	230	101300000	1000	0	0	-1	600
18517395	9928	1090	0	-100	0	230	101300000	1000	0	0	-1	600
18529955	9928	1077	0	-100	0	230	101300000	1000	0	0	-1	600
18542515	9928	1057	0	-100	0	230	101300000	1000	0	0	-1	600
18555075	9931	1073	0	-100	0	230	101300000	1000	0	0	-1	600
18567635	9925	1093	0	-100	0	230	101300000	1000	0	0	-1	600
18580195	9923	1102	0	-100	0	230	101300000	1000	0	0	-1	600
18592755	9931	1092	0	-100	0	230	101300000	1000	0	0	-1	600
18605315	9928	1085	0	-100	0	230	101300000	1000	0	0	-1	600
18617875	9928	1069	0	-100	0	230	101300000	1000	0	0	-1	600
18630435	9925	1119	0	-100	0	230	101300000	1000	0	0	-1	600
18642995	9920	1158	0	-100	0	230	101300000	1000	0	0	-1	600
18655555	9928	1164	0	-100	0	230	101300000	1000	0	0	-1	600
18668115	9933	1167	0	-100	0	230	101300000	1000	0	0	-1	600
18680675	9933	1162	0	-100	0	230	101300000	1000	0	0	-1	600
18693235	9928	1096	0	-100	0	230	101300000	1000	0	0	-1	600
18705795	9936	1121	0	-100	0	230	101300000	1000	0	0	-1	600
18718355	9933	1153	0	-100	0	230	101300000	1000	0	0	-1	600
18730915	9928	1162	0	-100	0	230	101300000	1000	0	0	-1	600
18743475	9933	1171	0	-100	0	230	101300000	1000	0	0	-1	600
18756035	9936	1164	0	-100	0	230	101300000	1000	0	0	-1	600
18768595	9928	1158	0	-100	0	230	101300000	1000	0	0	-1	600
18781155	9933	1166	0	-100	0	230	101300000	1000	0	0	-1	600
18793715	9931	1168	0	-100	0	230	101300000	1000	0	0	-1	600
18806275	9933	1178	0	-100	0	230	101300000	1000	0	0	-1	600
18818835	9931	1171	0	-100	0	230	101300000	1000	0	0	-1	600
18831395	9933	1178	0	-100	0	230	101300000	1000	0	0	-1	600
18843955	9931	1172	0	-100	0	230	101300000	1000	0	0	-1	600
18856515	9931	1174	0	-100	0	230	101300000	1000	0	0	-1	600
18869075	9931	1172	0	-100	0	230	101300000	1000	0	0	-1	600
18881635	9925	1174	0	-100	0	230	101300000	1000	0	0	-1	600
18894195	9931	1064	0	-100	0	230	101300000	1000	0	0	-1	600
18906755	9928	1099	0	-100	0	230	101300000	1000	0	0	-1	600
18919315	9933	1090	0	-100	0	230	101300000	1000	0	0	-1	600
18931875	9933	1085	0	-100	0	230	101300000	1000	0	0	-1	600
18944435	9931	1084	0	-100	0	230	101300000	1000	0	0	-1	600
18956995	9933	1081	0	-100	0	230	101300000	1000	0	0	-1	600
18969555	9931	1080	0	-100	0	230	101300000	1000	0	0	-1	600
18982115	9928	1076	0	-100	0	230	101300000	1000	0	0	-1	600
18994675	9925	1072	0	-100	0	230	101300000	1000	0	0	-1	600
19007235	9933	1083	0	-100	0	230	101300000	1000	0	0	-1	600
19019795	9933	1081	0	-100	0	230	101300000	1000	0	0	-1	600
19032355	9931	1087	0	-100	0	230	101300000	1000	0	0	-1	600
19044915	9931	1084	0	-100	0	230	101300000	1000	0	0	-1	600
19057475	9931	1077	0	-100	0	230	101300000	1000	0	0	-1	600
19070035	9928	1087	0	-100	0	230	101300000	1000	0	0	-1	600
19082595	9928	1082	0	-100	0	230	101300000	1000	0	0	-1	600
19095155	9915	1043	0	-100	0	230	101300000	1000	0	0	-1	600
19107715	9928	1088	0	-100	0	230	101300000	1000	0	0	-1	600
19120275	9931	1084	0	-100	0	230	101300000	1000	0	0	-1	600
19132835	9931	1066	0	-100	0	230	101300000	1000	0	0	-1	600
19145395	9931	1070	0	-100	0	230	101300000	1000	0	0	-1	600
19157955	9928	1055	0	-100	0	230	101300000	1000	0	0	-1	600
19170515	9931	1084	0	-100	0	230	101300000	1000	0	0	-1	600
19183075	9936	1086	0	-100	0	230	101300000	1000	0	0	-1	600
19195635	9931	1085	0	-100	0	230	101300000	1000	0	0	-1	600
19208195	9923	1058	0	-100	0	230	101300000	1000	0	0	-1	600
19220755	9923	1087	0	-100	0	230	101300000	1000	0	0	-1	600
19233315	9917	1082	0	-100	0	230	101300000	1000	0	0	-1	600
19245875	9925	1083	0	-100	0	230	101300000	1000	0	0	-1	600
19258435	9928	1078	0	-100	0	230	101300000	1000	0	0	-1	600
19270995	9928	1082	0	-100	0	230	101300000	1000	0	0	-1	600
19283555	9925	1076	0	-100	0	230	101300000	1000	0	0	-1	600
19296115	9933	1064	0	-100	0	230	101300000	1000	0	0	-1	600
19308675	9939	1092	0	-100	0	230	101300000	1000	0	0	-1	600
19321235	9931	1084	0	-100	0	230	101300000	1000	0	0	-1	600
19333795	9917	1091	0	-100	0	230	101300000	1000	0	0	-1	600
19346355	9928	1088	0	-100	0	230	101300000	1000	0	0	-1	600
19358915	9931	1086	0	-100	0	230	101300000	1000	0	0	-1	600
19371475	9933	1073	0	-100	0	230	101300000	1000	0	0	-1	600
19384035	9923	1062	0	-100	0	230	101300000	1000	0	0	-1	600
19396595	9920	1045	0	-100	0	230	101300000	1000	0	0	-1	600
19409155	9936	1088	0	-100	0	230	101300000	1000	0	0	-1	600
19421715	9928	1087	0	-100	0	230	101300000	1000	0	0	-1	600
19434275	9917	1079	0	-100	0	230	101300000	1000	0	0	-1	600
19446835	9925	1086	0	-100	0	230	101300000	1000	0	0	-1	600
19459395	9925	1082	0	-100	0	230	101300000	1000	0	0	-1	600
19471955	9936	1083	0	-100	0	230	101300000	1000	0	0	-1	600
19484515	9931	1085	0	-100	0	230	101300000	1000	0	0	-1	600
19497075	9936	1096	0	-100	0	230	101300000	1000	0	0	-1	600
19509635	9923	1087	0	-100	0	230	101300000	1000	0	0	-1	600
19522195	9931	1088	0	-100	0	230	101300000	1000	0	0	-1	600
19534755	9928	1078	0	-100	0	230	101300000	1000	0	0	-1	600
19547315	9928	1063	0	-100	0	230	101300000	1000	0	0	-1	600
19559875	9925	1081	0	-100	0	230	101300000	1000	0	0	-1	600
19572435	9936	1084	0	-100	0	230	101300000	1000	0	0	-1	600
19584995	9923	1056	0	-100	0	230	101300000	1000	0	0	-1	600
19597555	9917	1085	0	-100	0	230	101300000	1000	0	0	-1	600
19610115	9925	1080	0	-100	0	230	101300000	1000	0	0	-1	600
19622675	9936	1086	0	-100	0	230	101300000	1000	0	0	-1	600
19635235	9933	1083	0	-100	0	230	101300000	1000	0	0	-1	600
19647795	9920	1083	0	-100	0	230	101300000	1000	0	0	-1	600
19660355	9931	1083	0	-100	0	230	101300000	1000	0	0	-1	600
19672915	9936	1073	0	-100	0	230	101300000	1000	0	0	-1	600
19685475	9928	1080	0	-100	0	230	101300000	1000	0	0	-1	600
19698035	9923	1070	0	-100	0	230	101300000	1000	0	0	-1	600
19710595	9933	1060	0	-100	0	230	101300000	1000	0	0	-1	600
19723155	9931	1082	0	-100	0	230	101300000	1000	0	0	-1	600
19735715	9928	1078	0	-100	0	230	101300000	1000	0	0	-1	600
19748275	9933	1075	0	-100	0	230	101300000	1000	0	0	-1	600
19760835	9928	1061	0	-100	0	230	101300000	1000	0	0	-1	600
19773395	9928	1087	0	-100	0	230	101300000	1000	0	0	-1	600
19785955	9925	1072	0	-100	0	230	101300000	1000	0	0	-1	600
19798515	9931	1079	0	-100	0	230	101300000	1000	0	0	-1	600
19811075	9936	1078	0	-100	0	230	101300000	1000	0	0	-1	600
19823635	9931	1063	0	-100	0	230	101300000	1000	0	0	-1	600
19836195	9933	1088	0	-100	0	230	101300000	1000	0	0	-1	600
19848755	9925	1065	0	-100	0	230	101300000	1000	0	0	-1	600
19861315	9928	1074	0	-100	0	230	101300000	1000	0	0	-1	600
19873875	9920	1089	0	-100	0	230	101300000	1000	0	0	-1	600
19886435	9933	1084	0	-100	0	230	101300000	1000	0	0	-1	600
19898995	9928	1053	0	-100	0	230	101300000	1000	0	0	-1	600
19911555	9933	1056	0	-100	0	230	101300000	1000	0	0	-1	600
19924115	9936	1094	0	-100	0	230	101300000	1000	0	0	-1	600
19936675	9925	1089	0	-100	0	230	101300000	1000	0	0	-1	600
19949235	9928	1083	0	-100	0	230	101300000	1000	0	0	-1	600
19961795	9928	1049	0	-100	0	230	101300000	1000	0	0	-1	600
19974355	9936	1085	0	-100	0	230	101300000	1000	0	0	-1	600
19986915	9920	1082	0	-100	0	230	101300000	1000	0	0	-1	600
19999475	9933	1084	0	-100	0	230	101300000	1000	0	0	-1	600
20012035	9925	1071	0	-100	0	230	101300000	1000	0	0	-1	600
20024595	9931	1067	0	-100	0	230	101300000	1000	0	0	-1	600
20037155	9915	1083	0	-100	0	230	101300000	1000	0	0	-1	600
20049715	9925	1082	0	-100	0	230	101300000	1000	0	0	-1	600
20062275	9925	1085	0	-100	0	230	101300000	1000	0	0	-1	600
20074835	9923	1092	0	-100	0	230	101300000	1000	0	0	-1	600
20087395	9931	1074	0	-100	0	230	101300000	1000	0	0	-1	600
20099955	9931	1065	0	-100	0	230	101300000	1000	0	0	-1	600
20112515	9931	1084	0	-100	0	230	101300000	1000	0	0	-1	600
20125075	9923	1067	0	-100	0	230	101300000	1000	0	0	-1	600
20137635	9923	1062	0	-100	0	230	101300000	1000	0	0	-1	600
20150195	9933	1056	0	-100	0	230	101300000	1000	0	0	-1	600
20162755	9931	1059	0	-100	0	230	101300000	1000	0	0	-1	600
20175315	9931	1097	0	-100	0	230	101300000	1000	0	0	-1	600
20187875	9925	1093	0	-100	0	230	101300000	1000	0	0	-1	600
20200435	9933	1094	0	-100	0	230	101300000	1000	0	0	-1	600
20212995	9936	1087	0	-100	0	230	101300000	1000	0	0	-1	600
20225555	9931	1083	0	-100	0	230	101300000	1000	0	0	-1	600
20238115	9917	1086	0	-100	0	230	101300000	1000	0	0	-1	600
20250675	9933	1078	0	-100	0	230	101300000	1000	0	0	-1	600
20263235	9931	1089	0	-100	0	230	101300000	1000	0	0	-1	600
20275795	9931	1089	0	-100	0	230	101300000	1000	0	0	-1	600
20288355	9931	1081	0	-100	0	230	101300000	1000	0	0	-1	600
20300915	9925	1070	0	-100	0	230	101300000	1000	0	0	-1	600
20313475	9931	1088	0	-100	0	230	101300000	1000	0	0	-1	600
20326035	9923	1088	0	-100	0	230	101300000	1000	0	0	-1	600
20338595	9931	1091	0	-100	0	230	101300000	1000	0	0	-1	600
20351155	9939	1089	0	-100	0	230	101300000	1000	0	0	-1	600
20363715	9931	1082	0	-100	0	230	101300000	1000	0	0	-1	600
20376275	9931	1084	0	-100	0	230	101300000	1000	0	0	-1	600
20388835	9917	1125	0	-100	0	230	101300000	1000	0	0	-1	600
20401395	9928	1157	0	-100	0	230	101300000	1000	0	0	-1	600
20413955	9933	1170	0	-100	0	230	101300000	1000	0	0	-1	600
20426515	9939	1169	0	-100	0	230	101300000	1000	0	0	-1	600
20439075	9933	1170	0	-100	0	230	101300000	1000	0	0	-1	600
20451635	9939	1173	0	-100	0	230	101300000	1000	0	0	-1	600
20464195	9925	1169	0	-100	0	230	101300000	1000	0	0	-1	600
20476755	9931	1172	0	-100	0	230	101300000	1000	0	0	-1	600
20489315	9933	1174	0	-100	0	230	101300000	1000	0	0	-1	600
20501875	9915	1168	0	-100	0	230	101300000	1000	0	0	-1	600
20514435	9939	1173	0	-100	0	230	101300000	1000	0	0	-1	600
20526995	9931	1175	0	-100	0	230	101300000	1000	0	0	-1	600
20539555	9928	1168	0	-100	0	230	101300000	1000	0	0	-1	600
20552115	9931	1172	0	-100	0	230	101300000	1000	0	0	-1	600
20564675	9931	1178	0	-100	0	230	101300000	1000	0	0	-1	600
20577235	9936	1180	0	-100	0	230	101300000	1000	0	0	-1	600
20589795	9931	1173	0	-100	0	230	101300000	1000	0	0	-1	600
20602355	9917	1168	0	-100	0	230	101300000	1000	0	0	-1	600
20614915	9928	1169	0	-100	0	230	101300000	1000	0	0	-1	600
20627475	9931	1175	0	-100	0	230	101300000	1000	0	0	-1	600
20640035	9931	1174	0	-100	0	230	101300000	1000	0	0	-1	600
20652595	9928	1178	0	-100	0	230	101300000	1000	0	0	-1	600
20665155	9939	1180	0	-100	0	230	101300000	1000	0	0	-1	600
20677715	9931	1177	0	-100	0	230	101300000	1000	0	0	-1	600
20690275	9931	1171	0	-100	0	230	101300000	1000	0	0	-1	600
20702835	9931	1175	0	-100	0	230	101300000	1000	0	0	-1	600
20715395	9928	1170	0	-100	0	230	101300000	1000	0	0	-1	600
20727955	9923	1166	0	-100	0	230	101300000	1000	0	0	-1	600
20740515	9923	1168	0	-100	0	230	101300000	1000	0	0	-1	600
20753075	9933	1174	0	-100	0	230	101300000	1000	0	0	-1	600
20765635	9933	1169	0	-100	0	230	101300000	1000	0	0	-1	600
20778195	9933	1176	0	-100	0	230	101300000	1000	0	0	-1	600
20790755	9925	1176	0	-100	0	230	101300000	1000	0	0	-1	600
20803315	9933	1178	0	-100	0	230	101300000	1000	0	0	-1	600
20815875	9928	1175	0	-100	0	230	101300000	1000	0	0	-1	600
20828435	9933	1174	0	-100	0	230	101300000	1000	0	0	-1	600
20840995	9925	1172	0	-100	0	230	101300000	1000	0	0	-1	600
20853555	9933	1171	0	-100	0	230	101300000	1000	0	0	-1	600
20866115	9917	1170	0	-100	0	230	101300000	1000	0	0	-1	600
20878675	9928	1174	0	-100	0	230	101300000	1000	0	0	-1	600
20891235	9915	1169	0	-100	0	230	101300000	1000	0	0	-1	600
20903795	9931	1173	0	-100	0	230	101300000	1000	0	0	-1	600
20916355	9928	1171	0	-100	0	230	101300000	1000	0	0	-1	600
20928915	9915	1169	0	-100	0	230	101300000	1000	0	0	-1	600
20941475	9931	1170	0	-100	0	230	101300000	1000	0	0	-1	600
20954035	9915	1169	0	-100	0	230	101300000	1000	0	0	-1	600
20966595	9933	1175	0	-100	0	230	101300000	1000	0	0	-1	600
20979155	9928	1175	0	-100	0	230	101300000	1000	0	0	-1	600
20991715	9925	1173	0	-100	0	230	101300000	1000	0	0	-1	600
21004275	9925	1176	0	-100	0	230	101300000	1000	0	0	-1	600
21016835	9928	1175	0	-100	0	230	101300000	1000	0	0	-1	600
21029395	9920	1174	0	-100	0	230	101300000	1000	0	0	-1	600
21041955	9931	1173	0	-100	0	230	101300000	1000	0	0	-1	600
21054515	9925	1169	0	-100	0	230	101300000	1000	0	0	-1	600
21067075	9920	1166	0	-100	0	230	101300000	1000	0	0	-1	600
21079635	9933	1170	0	-100	0	230	101300000	1000	0	0	-1	600
21092195	9936	1175	0	-100	0	230	101300000	1000	0	0	-1	600
21104755	9933	1176	0	-100	0	230	101300000	1000	0	0	-1	600
21117315	9933	1181	0	-100	0	230	101300000	1000	0	0	-1	600
21129875	9931	1177	0	-100	0	230	101300000	1000	0	0	-1	600
21142435	9928	1175	0	-100	0	230	101300000	1000	0	0	-1	600
21154995	9931	1181	0	-100	0	230	101300000	1000	0	0	-1	600
21167555	9925	1166	0	-100	0	230	101300000	1000	0	0	-1	600
21180115	9933	1170	0	-100	0	230	101300000	1000	0	0	-1	600
21192675	9923	1174	0	-100	0	230	101300000	1000	0	0	-1	600
21205235	9936	1179	0	-100	0	230	101300000	1000	0	0	-1	600
21217795	9933	1172	0	-100	0	230	101300000	1000	0	0	-1	600
21230355	9931	1169	0	-100	0	230	101300000	1000	0	0	-1	600
21242915	9931	1172	0	-100	0	230	101300000	1000	0	0	-1	600
21255475	9928	1178	0	-100	0	230	101300000	1000	0	0	-1	600
21268035	9933	1176	0	-100	0	230	101300000	1000	0	0	-1	600
21280595	9931	1172	0	-100	0	230	101300000	1000	0	0	-1	600
21293155	9925	1167	0	-100	0	230	101300000	1000	0	0	-1	600
21305715	9928	1168	0	-100	0	230	101300000	1000	0	0	-1	600
21318275	9928	1175	0	-100	0	230	101300000	1000	0	0	-1	600
21330835	9917	1174	0	-100	0	230	101300000	1000	0	0	-1	600
21343395	9925	1173	0	-100	0	230	101300000	1000	0	0	-1	600
21355955	9925	1170	0	-100	0	230	101300000	1000	0	0	-1	600
21368515	9933	1171	0	-100	0	230	101300000	1000	0	0	-1	600
21381075	9925	1173	0	-100	0	230	101300000	1000	0	0	-1	600
21393635	9923	1169	0	-100	0	230	101300000	1000	0	0	-1	600
21406195	9925	1168	0	-100	0	230	101300000	1000	0	0	-1	600
21418755	9936	1173	0	-100	0	230	101300000	1000	0	0	-1	600
21431315	9931	1174	0	-100	0	230	101300000	1000	0	0	-1	600
21443875	9931	1175	0	-100	0	230	101300000	1000	0	0	-1	600
21456435	9931	1172	0	-100	0	230	101300000	1000	0	0	-1	600
21468995	9939	1177	0	-100	0	230	101300000	1000	0	0	-1	600
21481555	9925	1171	0	-100	0	230	101300000	1000	0	0	-1	600
21494115	9928	1174	0	-100	0	230	101300000	1000	0	0	-1	600
21506675	9931	1168	0	-100	0	230	101300000	1000	0	0	-1	600
21519235	9928	1168	0	-100	0	230	101300000	1000	0	0	-1	600
21531795	9933	1174	0	-100	0	230	101300000	1000	0	0	-1	600
21544355	9939	1174	0	-100	0	230	101300000	1000	0	0	-1	600
21556915	9939	1177	0	-100	0	230	101300000	1000	0	0	-1	600
21569475	9933	1181	0	-100	0	230	101300000	1000	0	0	-1	600
21582035	9928	1175	0	-100	0	230	101300000	1000	0	0	-1	600
21594595	9931	1172	0	-100	0	230	101300000	1000	0	0	-1	600
21607155	9936	1173	0	-100	0	230	101300000	1000	0	0	-1	600
21619715	9925	1169	0	-100	0	230	101300000	1000	0	0	-1	600
21632275	9920	1167	0	-100	0	230	101300000	1000	0	0	-1	600
21644835	9933	1171	0	-100	0	230	101300000	1000	0	0	-1	600
21657395	9936	1173	0	-100	0	230	101300000	1000	0	0	-1	600
21669955	9933	1174	0	-100	0	230	101300000	1000	0	0	-1	600
21682515	9936	1171	0	-100	0	230	101300000	1000	0	0	-1	600
21695075	9928	1171	0	-100	0	230	101300000	1000	0	0	-1	600
21707635	9931	1175	0	-100	0	230	101300000	1000	0	0	-1	600
21720195	9936	1179	0	-100	0	230	101300000	1000	0	0	-1	600
21732755	9931	1171	0	-100	0	230	101300000	1000	0	0	-1	600
21745315	9928	1169	0	-100	0	230	101300000	1000	0	0	-1	600
21757875	9915	1167	0	-100	0	230	101300000	1000	0	0	-1	600
21770435	9931	1173	0	-100	0	230	101300000	1000	0	0	-1	600
21782995	9936	1172	0	-100	0	230	101300000	1000	0	0	-1	600
21795555	9933	1174	0	-100	0	230	101300000	1000	0	0	-1	600
21808115	9928	1169	0	-100	0	230	101300000	1000	0	0	-1	600
21820675	9912	1168	0	-100	0	230	101300000	1000	0	0	-1	600
21833235	9923	1168	0	-100	0	230	101300000	1000	0	0	-1	600
21845795	9936	1172	0	-100	0	230	101300000	1000	0	0	-1	600
21858355	9912	1166	0	-100	0	230	101300000	1000	0	0	-1	600
21870915	9931	1169	0	-100	0	230	101300000	1000	0	0	-1	600
21883475	9933	1174	0	-100	0	230	101300000	1000	0	0	-1	600
21896035	9928	1172	0	-100	0	230	101300000	1000	0	0	-1	600
21908595	9933	1179	0	-100	0	230	101300000	1000	0	0	-1	600
21921155	9931	1176	0	-100	0	230	101300000	1000	0	0	-1	600
21933715	9925	1173	0	-100	0	230	101300000	1000	0	0	-1	600
21946275	9933	1169	0	-100	0	230	101300000	1000	0	0	-1	600
21958835	9931	1172	0	-100	0	230	101300000	1000	0	0	-1	600
21971395	9931	1169	0	-100	0	230	101300000	1000	0	0	-1	600
21983955	9928	1169	0	-100	0	230	101300000	1000	0	0	-1	600
21996515	9931	1171	0	-100	0	230	101300000	1000	0	0	-1	600
22009075	9933	1170	0	-100	0	230	101300000	1000	0	0	-1	600
22021635	9936	1172	0	-100	0	230	101300000	1000	0	0	-1	600
22034195	9931	1172	0	-100	0	230	101300000	1000	0	0	-1	600
22046755	9931	1172	0	-100	0	230	101300000	1000	0	0	-1	600
22059315	9933	1178	0	-100	0	230	101300000	1000	0	0	-1	600
22071875	9917	1174	0	-100	0	230	101300000	1000	0	0	-1	600
22084435	9933	1174	0	-100	0	230	101300000	1000	0	0	-1	600
22096995	9920	1170	0	-100	0	230	101300000	1000	0	0	-1	600
22109555	9931	1170	0	-100	0	230	101300000	1000	0	0	-1	600
22122115	9928	1168	0	-100	0	230	101300000	1000	0	0	-1	600
22134675	9936	1170	0	-100	0	230	101300000	1000	0	0	-1	600
22147235	9928	1174	0	-100	0	230	101300000	1000	0	0	-1	600
22159795	9931	1174	0	-100	0	230	101300000	1000	0	0	-1	600
22172355	9928	1170	0	-100	0	230	101300000	1000	0	0	-1	600
22184915	9925	1165	0	-100	0	230	101300000	1000	0	0	-1	600
22197475	9925	1173	0	-100	0	230	101300000	1000	0	0	-1	600
22210035	9936	1178	0	-100	0	230	101300000	1000	0	0	-1	600
22222595	9933	1171	0	-100	0	230	101300000	1000	0	0	-1	600
22235155	9931	1170	0	-100	0	230	101300000	1000	0	0	-1	600
22247715	9928	1171	0	-100	0	230	101300000	1000	0	0	-1	600
22260275	9931	1172	0	-100	0	230	101300000	1000	0	0	-1	600
22272835	9923	1175	0	-100	0	230	101300000	1000	0	0	-1	600
22285395	9920	1170	0	-100	0	230	101300000	1000	0	0	-1	600
22297955	9928	1168	0	-100	0	230	101300000	1000	0	0	-1	600
22310515	9920	1166	0	-100	0	230	101300000	1000	0	0	-1	600
22323075	9933	1175	0	-100	0	230	101300000	1000	0	0	-1	600
22335635	9936	1179	0	-100	0	230	101300000	1000	0	0	-1	600
22348195	9925	1175	0	-100	0	230	101300000	1000	0	0	-1	600
22360755	9923	1168	0	-100	0	230	101300000	1000	0	0	-1	600
22373315	9931	1171	0	-100	0	230	101300000	1000	0	0	-1	600
22385875	9917	1168	0	-100	0	230	101300000	1000	0	0	-1	600
22398435	9936	1178	0	-100	0	230	101300000	1000	0	0	-1	600
22410995	9928	1171	0	-100	0	230	101300000	1000	0	0	-1	600
22423555	9928	1168	0	-100	0	230	101300000	1000	0	0	-1	600
22436115	9928	1170	0	-100	0	230	101300000	1000	0	0	-1	600
22448675	9917	1167	0	-100	0	230	101300000	1000	0	0	-1	600
22461235	9928	1175	0	-100	0	230	101300000	1000	0	0	-1	600
22473795	9928	1174	0	-100	0	230	101300000	1000	0	0	-1	600
22486355	9920	1168	0	-100	0	230	101300000	1000	0	0	-1	600
22498915	9925	1169	0	-100	0	230	101300000	1000	0	0	-1	600
22511475	9928	1175	0	-100	0	230	101300000	1000	0	0	-1	600
22524035	9933	1174	0	-100	0	230	101300000	1000	0	0	-1	600
22536595	9936	1172	0	-100	0	230	101300000	1000	0	0	-1	600
22549155	9939	1172	0	-100	0	230	101300000	1000	0	0	-1	600
22561715	9933	1174	0	-100	0	230	101300000	1000	0	0	-1	600
22574275	9928	1172	0	-100	0	230	101300000	1000	0	0	-1	600
22586835	9917	1165	0	-100	0	230	101300000	1000	0	0	-1	600
22599395	9925	1167	0	-100	0	230	101300000	1000	0	0	-1	600
22611955	9912	1173	0	-100	0	230	101300000	1000	0	0	-1	600
22624515	9912	1169	0	-100	0	230	101300000	1000	0	0	-1	600
22637075	9931	1167	0	-100	0	230	101300000	1000	0	0	-1	600
22649635	9931	1168	0	-100	0	230	101300000	1000	0	0	-1	600
22662195	9936	1177	0	-100	0	230	101300000	1000	0	0	-1	600
22674755	9931	1175	0	-100	0	230	101300000	1000	0	0	-1	600
22687315	9931	1171	0	-100	0	230	101300000	1000	0	0	-1	600
22699875	9939	1173	0	-100	0	230	101300000	1000	0	0	-1	600
22712435	9920	1176	0	-100	0	230	101300000	1000	0	0	-1	600
22724995	9920	1170	0	-100	0	230	101300000	1000	0	0	-1	600
22737555	9928	1167	0	-100	0	230	101300000	1000	0	0	-1	600
22750115	9925	1170	0	-100	0	230	101300000	1000	0	0	-1	600
22762675	9933	1178	0	-100	0	230	101300000	1000	0	0	-1	600
22775235	9915	1171	0	-100	0	230	101300000	1000	0	0	-1	600
22787795	9925	1168	0	-100	0	230	101300000	1000	0	0	-1	600
22800355	9928	1169	0	-100	0	230	101300000	1000	0	0	-1	600
22812915	9931	1179	0	-100	0	230	101300000	1000	0	0	-1	600
22825475	9933	1170	0	-100	0	230	101300000	1000	0	0	-1	600
22838035	9920	1170	0	-100	0	230	101300000	1000	0	0	-1	600
22850595	9928	1175	0	-100	0	230	101300000	1000	0	0	-1	600
22863155	9936	1173	0	-100	0	230	101300000	1000	0	0	-1	600
22875715	9936	1170	0	-100	0	230	101300000	1000	0	0	-1	600
22888275	9936	1175	0	-100	0	230	101300000	1000	0	0	-1	600
22900835	9920	1176	0	-100	0	230	101300000	1000	0	0	-1	600
22913395	9923	1171	0	-100	0	230	101300000	1000	0	0	-1	600
22925955	9928	1167	0	-100	0	230	101300000	1000	0	0	-1	600
22938515	9928	1171	0	-100	0	230	101300000	1000	0	0	-1	600
22951075	9933	1170	0	-100	0	230	101300000	1000	0	0	-1	600
22963635	9928	1173	0	-100	0	230	101300000	1000	0	0	-1	600
22976195	9933	1174	0	-100	0	230	101300000	1000	0	0	-1	600
22988755	9925	1167	0	-100	0	230	101300000	1000	0	0	-1	600
23001315	9931	1172	0	-100	0	230	101300000	1000	0	0	-1	600
23013875	9933	1178	0	-100	0	230	101300000	1000	0	0	-1	600
23026435	9928	1166	0	-100	0	230	101300000	1000	0	0	-1	600
23038995	9931	1175	0	-100	0	230	101300000	1000	0	0	-1	600
23051555	9912	1170	0	-100	0	230	101300000	1000	0	0	-1	600
23064115	9933	1178	0	-100	0	230	101300000	1000	0	0	-1	600
23076675	9928	1170	0	-100	0	230	101300000	1000	0	0	-1	600
23089235	9936	1171	0	-100	0	230	101300000	1000	0	0	-1	600
23101795	9931	1168	0	-100	0	230	101300000	1000	0	0	-1	600
23114355	9915	1175	0	-100	0	230	101300000	1000	0	0	-1	600
23126915	9928	1176	0	-100	0	230	101300000	1000	0	0	-1	600
23139475	9917	1168	0	-100	0	230	101300000	1000	0	0	-1	600
23152035	9931	1172	0	-100	0	230	101300000	1000	0	0	-1	600
23164595	9915	1163	0	-100	0	230	101300000	1000	0	0	-1	600
23177155	9933	1174	0	-100	0	230	101300000	1000	0	0	-1	600
23189715	9933	1175	0	-100	0	230	101300000	1000	0	0	-1	600
23202275	9936	1172	0	-100	0	230	101300000	1000	0	0	-1	600
23214835	9928	1169	0	-100	0	230	101300000	1000	0	0	-1	600
23227395	9925	1169	0	-100	0	230	101300000	1000	0	0	-1	600
23239955	9928	1171	0	-100	0	230	101300000	1000	0	0	-1	600
23252515	9920	1174	0	-100	0	230	101300000	1000	0	0	-1	600
23265075	9933	1179	0	-100	0	230	101300000	1000	0	0	-1	600
23277635	9923	1171	0	-100	0	230	101300000	1000	0	0	-1	600
23290195	9931	1169	0	-100	0	230	101300000	1000	0	0	-1	600
23302755	9923	1167	0	-100	0	230	101300000	1000	0	0	-1	600
23315315	9928	1166	0	-100	0	230	101300000	1000	0	0	-1	600
23327875	9928	1172	0	-100	0	230	101300000	1000	0	0	-1	600
23340435	9928	1174	0	-100	0	230	101300000	1000	0	0	-1	600
23352995	9931	1172	0	-100	0	230	101300000	1000	0	0	-1	600
23365555	9928	1168	0	-100	0	230	101300000	1000	0	0	-1	600
23378115	9936	1175	0	-100	0	230	101300000	1000	0	0	-1	600
23390675	9933	1170	0	-100	0	230	101300000	1000	0	0	-1	600
23403235	9928	1170	0	-100	0	230	101300000	1000	0	0	-1	600
23415795	9928	1177	0	-100	0	230	101300000	1000	0	0	-1	600
23428355	9925	1169	0	-100	0	230	101300000	1000	0	0	-1	600
23440915	9920	1167	0	-100	0	230	101300000	1000	0	0	-1	600
23453475	9936	1174	0	-100	0	230	101300000	1000	0	0	-1	600
23466035	9928	1174	0	-100	0	230	101300000	1000	0	0	-1	600
23478595	9928	1175	0	-100	0	230	101300000	1000	0	0	-1	600
23491155	9931	1170	0	-100	0	230	101300000	1000	0	0	-1	600
23503715	9925	1165	0	-100	0	230	101300000	1000	0	0	-1	600
23516275	9936	1176	0	-100	0	230	101300000	1000	0	0	-1	600
23528835	9928	1171	0	-100	0	230	101300000	1000	0	0	-1	600
23541395	9928	1169	0	-100	0	230	101300000	1000	0	0	-1	600
23553955	9923	1169	0	-100	0	230	101300000	1000	0	0	-1	600
23566515	9928	1170	0	-100	0	230	101300000	1000	0	0	-1	600
23579075	9939	1179	0	-100	0	230	101300000	1000	0	0	-1	600
23591635	9920	1171	0	-100	0	230	101300000	1000	0	0	-1	600
23604195	9933	1170	0	-100	0	230	101300000	1000	0	0	-1	600
23616755	9931	1168	0	-100	0	230	101300000	1000	0	0	-1	600
23629315	9928	1175	0	-100	0	230	101300000	1000	0	0	-1	600
23641875	9917	1174	0	-100	0	230	101300000	1000	0	0	-1	600
23654435	9933	1172	0	-100	0	230	101300000	1000	0	0	-1	600
23666995	9925	1176	0	-100	0	230	101300000	1000	0	0	-1	600
23679555	9931	1177	0	-100	0	230	101300000	1000	0	0	-1	600
23692115	9923	1171	0	-100	0	230	101300000	1000	0	0	-1	600
23704675	9923	1168	0	-100	0	230	101300000	1000	0	0	-1	600
23717235	9931	1175	0	-100	0	230	101300000	1000	0	0	-1	600
23729795	9928	1177	0	-100	0	230	101300000	1000	0	0	-1	600
23742355	9925	1173	0	-100	0	230	101300000	1000	0	0	-1	600
23754915	9928	1171	0	-100	0	230	101300000	1000	0	0	-1	600
23767475	9920	1165	0	-100	0	230	101300000	1000	0	0	-1	600
23780035	9933	1173	0	-100	0	230	101300000	1000	0	0	-1	600
23792595	9931	1177	0	-100	0	230	101300000	1000	0	0	-1	600
23805155	9928	1168	0	-100	0	230	101300000	1000	0	0	-1	600
23817715	9928	1167	0	-100	0	230	101300000	1000	0	0	-1	600
23830275	9933	1177	0	-100	0	230	101300000	1000	0	0	-1	600
23842835	9931	1172	0	-100	0	230	101300000	1000	0	0	-1	600
23855395	9933	1170	0	-100	0	230	101300000	1000	0	0	-1	600
23867955	9931	1168	0	-100	0	230	101300000	1000	0	0	-1	600
23880515	9928	1171	0	-100	0	230	101300000	1000	0	0	-1	600
23893075	9931	1173	0	-100	0	230	101300000	1000	0	0	-1	600
23905635	9925	1173	0	-100	0	230	101300000	1000	0	0	-1	600
23918195	9912	1168	0	-100	0	230	101300000	1000	0	0	-1	600
23930755	9928	1169	0	-100	0	230	101300000	1000	0	0	-1	600
23943315	9928	1168	0	-100	0	230	101300000	1000	0	0	-1	600
23955875	9920	1170	0	-100	0	230	101300000	1000	0	0	-1	600
23968435	9917	1170	0	-100	0	230	101300000	1000	0	0	-1	600
23980995	9928	1176	0	-100	0	230	101300000	1000	0	0	-1	600
23993555	9939	1174	0	-100	0	230	101300000	1000	0	0	-1	600
24006115	9933	1180	0	-100	0	230	101300000	1000	0	0	-1	600
24018675	9931	1170	0	-100	0	230	101300000	1000	0	0	-1	600
24031235	9928	1168	0	-100	0	230	101300000	1000	0	0	-1	600
24043795	9933	1178	0	-100	0	230	101300000	1000	0	0	-1	600
24056355	9909	1171	0	-100	0	230	101300000	1000	0	0	-1	600
24068915	9933	1171	0	-100	0	230	101300000	1000	0	0	-1	600
24081475	9928	1168	0	-100	0	230	101300000	1000	0	0	-1	600
24094035	9933	1174	0	-100	0	230	101300000	1000	0	0	-1	600
24106595	9923	1176	0	-100	0	230	101300000	1000	0	0	-1	600
24119155	9933	1169	0	-100	0	230	101300000	1000	0	0	-1	600
24131715	9925	1169	0	-100	0	230	101300000	1000	0	0	-1	600
24144275	9912	1172	0	-100	0	230	101300000	1000	0	0	-1	600
24156835	9936	1171	0	-100	0	230	101300000	1000	0	0	-1	600
24169395	9933	1177	0	-100	0	230	101300000	1000	0	0	-1	600
24181955	9931	1172	0	-100	0	230	101300000	1000	0	0	-1	600
24194515	9933	1173	0	-100	0	230	101300000	1000	0	0	-1	600
24207075	9931	1173	0	-100	0	230	101300000	1000	0	0	-1	600
24219635	9920	1168	0	-100	0	230	101300000	1000	0	0	-1	600
24232195	9923	1172	0	-100	0	230	101300000	1000	0	0	-1	600
24244755	9920	1168	0	-100	0	230	101300000	1000	0	0	-1	600
24257315	9931	1170	0	-100	0	230	101300000	1000	0	0	-1	600
24269875	9928	1170	0	-100	0	230	101300000	1000	0	0	-1	600
24282435	9925	1170	0	-100	0	230	101300000	1000	0	0	-1	600
24294995	9925	1171	0	-100	0	230	101300000	1000	0	0	-1	600
24307555	9925	1166	0	-100	0	230	101300000	1000	0	0	-1	600
24320115	9928	1170	0	-100	0	230	101300000	1000	0	0	-1	600
24332675	9931	1172	0	-100	0	230	101300000	1000	0	0	-1	600
24345235	9931	1171	0	-100	0	230	101300000	1000	0	0	-1	600
24357795	9928	1175	0	-100	0	230	101300000	1000	0	0	-1	600
24370355	9931	1168	0	-100	0	230	101300000	1000	0	0	-1	600
24382915	9925	1172	0	-100	0	230	101300000	1000	0	0	-1	600
24395475	9933	1170	0	-100	0	230	101300000	1000	0	0	-1	600
24408035	9931	1175	0	-100	0	230	101300000	1000	0	0	-1	600
24420595	9936	1174	0	-100	0	230	101300000	1000	0	0	-1	600
24433155	9931	1168	0	-100	0	230	101300000	1000	0	0	-1	600
24445715	9917	1173	0	-100	0	230	101300000	1000	0	0	-1	600
24458275	9925	1167	0	-100	0	230	101300000	1000	0	0	-1	600
24470835	9928	1169	0	-100	0	230	101300000	1000	0	0	-1	600
24483395	9936	1178	0	-100	0	230	101300000	1000	0	0	-1	600
24495955	9931	1170	0	-100	0	230	101300000	1000	0	0	-1	600
24508515	9931	1175	0	-100	0	230	101300000	1000	0	0	-1	600
24521075	9920	1166	0	-100	0	230	101300000	1000	0	0	-1	600
24533635	9931	1169	0	-100	0	230	101300000	1000	0	0	-1	600
24546195	9928	1178	0	-100	0	230	101300000	1000	0	0	-1	600
24558755	9925	1165	0	-100	0	230	101300000	1000	0	0	-1	600
24571315	9925	1169	0	-100	0	230	101300000	1000	0	0	-1	600
24583875	9928	1175	0	-100	0	230	101300000	1000	0	0	-1	600
24596435	9928	1169	0	-100	0	230	101300000	1000	0	0	-1	600
24608995	9939	1170	0	-100	0	230	101300000	1000	0	0	-1	600
24621555	9931	1172	0	-100	0	230	101300000	1000	0	0	-1	600
24634115	9931	1168	0	-100	0	230	101300000	1000	0	0	-1	600
24646675	9915	1171	0	-100	0	230	101300000	1000	0	0	-1	600
24659235	9928	1168	0	-100	0	230	101300000	1000	0	0	-1	600
24671795	9931	1169	0	-100	0	230	101300000	1000	0	0	-1	600
24684355	9936	1178	0	-100	0	230	101300000	1000	0	0	-1	600
24696915	9931	1169	0	-100	0	230	101300000	1000	0	0	-1	600
24709475	9936	1168	0	-100	0	230	101300000	1000	0	0	-1	600
24722035	9936	1172	0	-100	0	230	101300000	1000	0	0	-1	600
24734595	9925	1175	0	-100	0	230	101300000	1000	0	0	-1	600
24747155	9931	1173	0	-100	0	230	101300000	1000	0	0	-1	600
24759715	9931	1167	0	-100	0	230	101300000	1000	0	0	-1	600
24772275	9933	1170	0	-100	0	230	101300000	1000	0	0	-1	600
24784835	9933	1166	0	-100	0	230	101300000	1000	0	0	-1	600
24797395	9928	1172	0	-100	0	230	101300000	1000	0	0	-1	600
24809955	9920	1212	0	-100	0	230	101300000	1000	0	0	-1	600
24822515	9928	1210	0	-100	0	230	101300000	1000	0	0	-1	600
24835075	9931	1189	0	-100	0	230	101300000	1000	0	0	-1	600
24847635	9923	1170	0	-100	0	230	101300000	1000	0	0	-1	600
24860195	9939	1194	0	-100	0	230	101300000	1000	0	0	-1	600
24872755	9928	1286	0	-100	0	230	101300000	1000	0	0	-1	600
24885315	9925	1313	0	-100	0	230	101300000	1000	0	0	-1	600
24897875	9928	1307	0	-100	0	230	101300000	1000	0	0	-1	600
24910435	9928	1304	0	-100	0	230	101300000	1000	0	0	-1	600
24922995	9931	1306	0	-100	0	230	101300000	1000	0	0	-1	600
24935555	9933	1325	0	-100	0	230	101300000	1000	0	0	-1	600
24948115	9928	1328	0	-100	0	230	101300000	1000	0	0	-1	600
24960675	9936	1336	0	-100	0	230	101300000	1000	0	0	-1	600
24973235	9920	1330	0	-100	0	230	101300000	1000	0	0	-1	600
24985795	9925	1329	0	-100	0	230	101300000	1000	0	0	-1	600
24998355	9933	1335	0	-100	0	230	101300000	1000	0	0	-1	600
25010915	9933	1330	0	-100	0	230	101300000	1000	0	0	-1	600
25023475	9925	1336	0	-100	0	230	101300000	1000	0	0	-1	600
25036035	9931	1330	0	-100	0	230	101300000	1000	0	0	-1	600
25048595	9939	1339	0	-100	0	230	101300000	1000	0	0	-1	600
25061155	9915	1379	0	-100	0	230	101300000	1000	0	0	-1	600
25073715	1246	1665	0	-100	0	230	101300000	1000	0	0	-1	600
25086275	1646	1701	0	-100	0	230	101300000	1000	0	0	-1	600
25098835	4104	1596	0	-100	0	230	101300000	1000	0	0	-1	600
25111395	9176	1384	0	-100	0	230	101300000	1000	0	0	-1	600
25123955	9928	1335	0	-100	0	230	101300000	1000	0	0	-1	600
25136515	9925	1241	0	-100	0	230	101300000	1000	0	0	-1	600
25149075	9936	1189	0	-100	0	230	101300000	1000	0	0	-1	600
25161635	9933	1178	0	-100	0	230	101300000	1000	0	0	-1	600
25174195	9933	1173	0	-100	0	230	101300000	1000	0	0	-1	600
25186755	9923	1169	0	-100	0	230	101300000	1000	0	0	-1	600
25199315	9936	1176	0	-100	0	230	101300000	1000	0	0	-1	600
25211875	9925	1169	0	-100	0	230	101300000	1000	0	0	-1	600
25224435	9920	1172	0	-100	0	230	101300000	1000	0	0	-1	600
25236995	9936	1175	0	-100	0	230	101300000	1000	0	0	-1	600
25249555	9928	1167	0	-100	0	230	101300000	1000	0	0	-1	600
25262115	9939	1180	0	-100	0	230	101300000	1000	0	0	-1	600
25274675	9928	1167	0	-100	0	230	101300000	1000	0	0	-1	600
25287235	9933	1233	0	-100	0	230	101300000	1000	0	0	-1	600
25299795	9931	1204	0	-100	0	230	101300000	1000	0	0	-1	600
25312355	9920	1220	0	-100	0	230	101300000	1000	0	0	-1	600
25324915	9931	1197	0	-100	0	230	101300000	1000	0	0	-1	600
25337475	9933	1174	0	-100	0	230	101300000	1000	0	0	-1	600
25350035	9936	1172	0	-100	0	230	101300000	1000	0	0	-1	600
25362595	9923	1172	0	-100	0	230	101300000	1000	0	0	-1	600
25375155	9933	1166	0	-100	0	230	101300000	1000	0	0	-1	600
25387715	9925	1173	0	-100	0	230	101300000	1000	0	0	-1	600
25400275	9939	1248	0	-100	0	230	101300000	1000	0	0	-1	600
25412835	9933	1308	0	-100	0	230	101300000	1000	0	0	-1	600
25425395	9939	1323	0	-100	0	230	101300000	1000	0	0	-1	600
25437955	9925	1333	0	-100	0	230	101300000	1000	0	0	-1	600
25450515	9928	1241	0	-100	0	230	101300000	1000	0	0	-1	600
25463075	9933	1236	0	-100	0	230	101300000	1000	0	0	-1	600
25475635	9931	1282	0	-100	0	230	101300000	1000	0	0	-1	600
25488195	9923	1315	0	-100	0	230	101300000	1000	0	0	-1	600
25500755	9939	1333	0	-100	0	230	101300000	1000	0	0	-1	600
25513315	9915	1326	0	-100	0	230	101300000	1000	0	0	-1	600
25525875	9928	1339	0	-100	0	230	101300000	1000	0	0	-1	600
25538435	9928	1329	0	-100	0	230	101300000	1000	0	0	-1	600
25550995	9925	1328	0	-100	0	230	101300000	1000	0	0	-1	600
25563555	9933	1335	0	-100	0	230	101300000	1000	0	0	-1	600
25576115	9933	1332	0	-100	0	230	101300000	1000	0	0	-1	600
25588675	9928	1339	0	-100	0	230	101300000	1000	0	0	-1	600
25601235	9920	1327	0	-100	0	230	101300000	1000	0	0	-1	600
25613795	9925	1335	0	-100	0	230	101300000	1000	0	0	-1	600
25626355	9928	1334	0	-100	0	230	101300000	1000	0	0	-1	600
25638915	9933	1330	0	-100	0	230	101300000	1000	0	0	-1	600
25651475	9928	1337	0	-100	0	230	101300000	1000	0	0	-1	600
25664035	9939	1331	0	-100	0	230	101300000	1000	0	0	-1	600
25676595	9920	1328	0	-100	0	230	101300000	1000	0	0	-1	600
25689155	9942	1338	0	-100	0	230	101300000	1000	0	0	-1	600
25701715	9933	1330	0	-100	0	230	101300000	1000	0	0	-1	600
25714275	9933	1331	0	-100	0	230	101300000	1000	0	0	-1	600
25726835	9931	1337	0	-100	0	230	101300000	1000	0	0	-1	600
25739395	9933	1326	0	-100	0	230	101300000	1000	0	0	-1	600
25751955	9917	1327	0	-100	0	230	101300000	1000	0	0	-1	600
25764515	9933	1336	0	-100	0	230	101300000	1000	0	0	-1	600
25777075	9925	1329	0	-100	0	230	101300000	1000	0	0	-1	600
25789635	9931	1329	0	-100	0	230	101300000	1000	0	0	-1	600
25802195	9925	1338	0	-100	0	230	101300000	1000	0	0	-1	600
25814755	9915	1324	0	-100	0	230	101300000	1000	0	0	-1	600
25827315	9931	1331	0	-100	0	230	101300000	1000	0	0	-1	600
25839875	9933	1336	0	-100	0	230	101300000	1000	0	0	-1	600
25852435	9925	1326	0	-100	0	230	101300000	1000	0	0	-1	600
25864995	9931	1329	0	-100	0	230	101300000	1000	0	0	-1	600
25877555	9933	1332	0	-100	0	230	101300000	1000	0	0	-1	600
25890115	9928	1325	0	-100	0	230	101300000	1000	0	0	-1	600
25902675	9928	1328	0	-100	0	230	101300000	1000	0	0	-1	600
25915235	9928	1336	0	-100	0	230	101300000	1000	0	0	-1	600
25927795	9936	1332	0	-100	0	230	101300000	1000	0	0	-1	600
25940355	9933	1326	0	-100	0	230	101300000	1000	0	0	-1	600
25952915	9925	1333	0	-100	0	230	101300000	1000	0	0	-1	600
25965475	9928	1335	0	-100	0	230	101300000	1000	0	0	-1	600
25978035	9936	1329	0	-100	0	230	101300000	1000	0	0	-1	600
25990595	9925	1328	0	-100	0	230	101300000	1000	0	0	-1	600
26003155	9936	1337	0	-100	0	230	101300000	1000	0	0	-1	600
26015715	9936	1330	0	-100	0	230	101300000	1000	0	0	-1	600
26028275	9928	1331	0	-100	0	230	101300000	1000	0	0	-1	600
26040835	9936	1349	0	-100	0	230	101300000	1000	0	0	-1	600
26053395	9933	1334	0	-100	0	230	101300000	1000	0	0	-1	600
26065955	9925	1325	0	-100	0	230	101300000	1000	0	0	-1	600
26078515	9928	1330	0	-100	0	230	101300000	1000	0	0	-1	600
26091075	9928	1339	0	-100	0	230	101300000	1000	0	0	-1	600
26103635	9933	1330	0	-100	0	230	101300000	1000	0	0	-1	600
26116195	9925	1327	0	-100	0	230	101300000	1000	0	0	-1	600
26128755	9928	1328	0	-100	0	230	101300000	1000	0	0	-1	600
26141315	9936	1332	0	-100	0	230	101300000	1000	0	0	-1	600
26153875	9923	1331	0	-100	0	230	101300000	1000	0	0	-1	600
26166435	9917	1330	0	-100	0	230	101300000	1000	0	0	-1	600
26178995	9917	1327	0	-100	0	230	101300000	1000	0	0	-1	600
26191555	9936	1328	0	-100	0	230	101300000	1000	0	0	-1	600
26204115	9925	1331	0	-100	0	230	101300000	1000	0	0	-1	600
26216675	9925	1326	0	-100	0	230	101300000	1000	0	0	-1	600
26229235	9928	1331	0	-100	0	230	101300000	1000	0	0	-1	600
26241795	9933	1329	0	-100	0	230	101300000	1000	0	0	-1	600
26254355	9931	1327	0	-100	0	230	101300000	1000	0	0	-1	600
26266915	9917	1328	0	-100	0	230	101300000	1000	0	0	-1	600
26279475	9923	1324	0	-100	0	230	101300000	1000	0	0	-1	600
26292035	9933	1335	0	-100	0	230	101300000	1000	0	0	-1	600
26304595	9915	1323	0	-100	0	230	101300000	1000	0	0	-1	600
26317155	9933	1330	0	-100	0	230	101300000	1000	0	0	-1	600
26329715	9912	1324	0	-100	0	230	101300000	1000	0	0	-1	600
26342275	9936	1337	0	-100	0	230	101300000	1000	0	0	-1	600
26354835	9931	1324	0	-100	0	230	101300000	1000	0	0	-1	600
26367395	9931	1335	0	-100	0	230	101300000	1000	0	0	-1	600
26379955	9909	1320	0	-100	0	230	101300000	1000	0	0	-1	600
26392515	9936	1332	0	-100	0	230	101300000	1000	0	0	-1	600
26405075	9925	1328	0	-100	0	230	101300000	1000	0	0	-1	600
26417635	9936	1334	0	-100	0	230	101300000	1000	0	0	-1	600
26430195	9931	1329	0	-100	0	230	101300000	1000	0	0	-1	600
26442755	9931	1333	0	-100	0	230	101300000	1000	0	0	-1	600
26455315	9928	1327	0	-100	0	230	101300000	1000	0	0	-1	600
26467875	9936	1334	0	-100	0	230	101300000	1000	0	0	-1	600
26480435	9928	1327	0	-100	0	230	101300000	1000	0	0	-1	600
26492995	9928	1332	0	-100	0	230	101300000	1000	0	0	-1	600
26505555	9928	1327	0	-100	0	230	101300000	1000	0	0	-1	600
26518115	9936	1333	0	-100	0	230	101300000	1000	0	0	-1	600
26530675	9933	1329	0	-100	0	230	101300000	1000	0	0	-1	600
26543235	9928	1337	0	-100	0	230	101300000	1000	0	0	-1	600
26555795	9925	1331	0	-100	0	230	101300000	1000	0	0	-1	600
26568355	9931	1337	0	-100	0	230	101300000	1000	0	0	-1	600
26580915	9931	1327	0	-100	0	230	101300000	1000	0	0	-1	600
26593475	9923	1334	0	-100	0	230	101300000	1000	0	0	-1	600
26606035	9928	1329	0	-100	0	230	101300000	1000	0	0	-1	600
26618595	9933	1332	0	-100	0	230	101300000	1000	0	0	-1	600
26631155	9936	1328	0	-100	0	230	101300000	1000	0	0	-1	600
26643715	9931	1333	0	-100	0	230	101300000	1000	0	0	-1	600
26656275	9933	1330	0	-100	0	230	101300000	1000	0	0	-1	600
26668835	9928	1328	0	-100	0	230	101300000	1000	0	0	-1	600
26681395	9933	1335	0	-100	0	230	101300000	1000	0	0	-1	600
26693955	9933	1329	0	-100	0	230	101300000	1000	0	0	-1	600
26706515	9923	1330	0	-100	0	230	101300000	1000	0	0	-1	600
26719075	9923	1330	0	-100	0	230	101300000	1000	0	0	-1	600
26731635	9923	1274	0	-100	0	230	101300000	1000	0	0	-1	600
26744195	9933	1216	0	-100	0	230	101300000	1000	0	0	-1	600
26756755	9928	1186	0	-100	0	230	101300000	1000	0	0	-1	600
26769315	9912	1167	0	-100	0	230	101300000	1000	0	0	-1	600
26781875	9936	1177	0	-100	0	230	101300000	1000	0	0	-1	600
26794435	9925	1167	0	-100	0	230	101300000	1000	0	0	-1	600
26806995	9925	1171	0	-100	0	230	101300000	1000	0	0	-1	600
26819555	9920	1163	0	-100	0	230	101300000	1000	0	0	-1	600
26832115	9928	1169	0	-100	0	230	101300000	1000	0	0	-1	600
26844675	9928	1172	0	-100	0	230	101300000	1000	0	0	-1	600
26857235	9923	1164	0	-100	0	230	101300000	1000	0	0	-1	600
26869795	9917	1175	0	-100	0	230	101300000	1000	0	0	-1	600
26882355	9931	1168	0	-100	0	230	101300000	1000	0	0	-1	600
26894915	9931	1177	0	-100	0	230	101300000	1000	0	0	-1	600
26907475	9915	1166	0	-100	0	230	101300000	1000	0	0	-1	600
26920035	9931	1168	0	-100	0	230	101300000	1000	0	0	-1	600
26932595	9933	1174	0	-100	0	230	101300000	1000	0	0	-1	600
26945155	9928	1164	0	-100	0	230	101300000	1000	0	0	-1	600
26957715	9931	1173	0	-100	0	230	101300000	1000	0	0	-1	600
26970275	9925	1165	0	-100	0	230	101300000	1000	0	0	-1	600
26982835	9912	1162	0	-100	0	230	101300000	1000	0	0	-1	600
26995395	9931	1176	0	-100	0	230	101300000	1000	0	0	-1	600
27007955	9925	1165	0	-100	0	230	101300000	1000	0	0	-1	600
27020515	9931	1174	0	-100	0	230	101300000	1000	0	0	-1	600
27033075	9925	1165	0	-100	0	230	101300000	1000	0	0	-1	600
27045635	9931	1174	0	-100	0	230	101300000	1000	0	0	-1	600
27058195	9928	1167	0	-100	0	230	101300000	1000	0	0	-1	600
27070755	9933	1170	0	-100	0	230	101300000	1000	0	0	-1	600
27083315	9925	1169	0	-100	0	230	101300000	1000	0	0	-1	600
27095875	9917	1166	0	-100	0	230	101300000	1000	0	0	-1	600
27108435	9928	1171	0	-100	0	230	101300000	1000	0	0	-1	600
27120995	9909	1169	0	-100	0	230	101300000	1000	0	0	-1	600
27133555	9936	1178	0	-100	0	230	101300000	1000	0	0	-1	600
27146115	9928	1167	0	-100	0	230	101300000	1000	0	0	-1	600
27158675	9931	1174	0	-100	0	230	101300000	1000	0	0	-1	600
27171235	9939	1173	0	-100	0	230	101300000	1000	0	0	-1	600
27183795	9928	1164	0	-100	0	230	101300000	1000	0	0	-1	600
27196355	9933	1175	0	-100	0	230	101300000	1000	0	0	-1	600
27208915	9936	1171	0	-100	0	230	101300000	1000	0	0	-1	600
27221475	9931	1166	0	-100	0	230	101300000	1000	0	0	-1	600
27234035	9933	1172	0	-100	0	230	101300000	1000	0	0	-1	600
27246595	9936	1176	0	-100	0	230	101300000	1000	0	0	-1	600
27259155	9931	1167	0	-100	0	230	101300000	1000	0	0	-1	600
27271715	9912	1169	0	-100	0	230	101300000	1000	0	0	-1	600
27284275	9936	1170	0	-100	0	230	101300000	1000	0	0	-1	600
27296835	9931	1172	0	-100	0	230	101300000	1000	0	0	-1	600
27309395	9912	1161	0	-100	0	230	101300000	1000	0	0	-1	600
27321955	9939	1180	0	-100	0	230	101300000	1000	0	0	-1	600
27334515	9925	1165	0	-100	0	230	101300000	1000	0	0	-1	600
27347075	9928	1174	0	-100	0	230	101300000	1000	0	0	-1	600
27359635	9928	1168	0	-100	0	230	101300000	1000	0	0	-1	600
27372195	9925	1169	0	-100	0	230	101300000	1000	0	0	-1	600
27384755	9912	1169	0	-100	0	230	101300000	1000	0	0	-1	600
27397315	9933	1169	0	-100	0	230	101300000	1000	0	0	-1	600
27409875	9931	1172	0	-100	0	230	101300000	1000	0	0	-1	600
27422435	9920	1166	0	-100	0	230	101300000	1000	0	0	-1	600
27434995	9931	1166	0	-100	0	230	101300000	1000	0	0	-1	600
27447555	9928	1165	0	-100	0	230	101300000	1000	0	0	-1	600
27460115	9909	1160	0	-100	0	230	101300000	1000	0	0	-1	600
27472675	9933	1173	0	-100	0	230	101300000	1000	0	0	-1	600
27485235	9925	1166	0	-100	0	230	101300000	1000	0	0	-1	600
27497795	9923	1163	0	-100	0	230	101300000	1000	0	0	-1	600
27510355	9931	1173	0	-100	0	230	101300000	1000	0	0	-1	600
27522915	9928	1167	0	-100	0	230	101300000	1000	0	0	-1	600
27535475	9917	1170	0	-100	0	230	101300000	1000	0	0	-1	600
27548035	9931	1170	0	-100	0	230	101300000	1000	0	0	-1	600
27560595	9931	1170	0	-100	0	230	101300000	1000	0	0	-1	600
27573155	9931	1169	0	-100	0	230	101300000	1000	0	0	-1	600
27585715	9933	1174	0	-100	0	230	101300000	1000	0	0	-1	600
27598275	9917	1164	0	-100	0	230	101300000	1000	0	0	-1	600
27610835	9928	1171	0	-100	0	230	101300000	1000	0	0	-1	600
27623395	9928	1168	0	-100	0	230	101300000	1000	0	0	-1	600
27635955	9928	1174	0	-100	0	230	101300000	1000	0	0	-1	600
27648515	9931	1165	0	-100	0	230	101300000	1000	0	0	-1	600
27661075	9939	1173	0	-100	0	230	101300000	1000	0	0	-1	600
27673635	9928	1166	0	-100	0	230	101300000	1000	0	0	-1	600
27686195	9920	1166	0	-100	0	230	101300000	1000	0	0	-1	600
27698755	9928	1171	0	-100	0	230	101300000	1000	0	0	-1	600
27711315	9931	1165	0	-100	0	230	101300000	1000	0	0	-1	600
27723875	9936	1176	0	-100	0	230	101300000	1000	0	0	-1	600
27736435	9928	1168	0	-100	0	230	101300000	1000	0	0	-1	600
27748995	9928	1170	0	-100	0	230	101300000	1000	0	0	-1	600
27761555	9931	1168	0	-100	0	230	101300000	1000	0	0	-1	600
27774115	9936	1168	0	-100	0	230	101300000	1000	0	0	-1	600
27786675	9925	1170	0	-100	0	230	101300000	1000	0	0	-1	600
27799235	9923	1163	0	-100	0	230	101300000	1000	0	0	-1	600
27811795	9928	1172	0	-100	0	230	101300000	1000	0	0	-1	600
27824355	9923	1162	0	-100	0	230	101300000	1000	0	0	-1	600
27836915	9920	1169	0	-100	0	230	101300000	1000	0	0	-1	600
27849475	9925	1169	0	-100	0	230	101300000	1000	0	0	-1	600
27862035	9931	1165	0	-100	0	230	101300000	1000	0	0	-1	600
27874595	9912	1165	0	-100	0	230	101300000	1000	0	0	-1	600
27887155	9923	1172	0	-100	0	230	101300000	1000	0	0	-1	600
27899715	9925	1168	0	-100	0	230	101300000	1000	0	0	-1	600
27912275	9928	1163	0	-100	0	230	101300000	1000	0	0	-1	600
27924835	9939	1173	0	-100	0	230	101300000	1000	0	0	-1	600
27937395	9920	1169	0	-100	0	230	101300000	1000	0	0	-1	600
27949955	9928	1164	0	-100	0	230	101300000	1000	0	0	-1	600
27962515	9928	1171	0	-100	0	230	101300000	1000	0	0	-1	600
27975075	9931	1164	0	-100	0	230	101300000	1000	0	0	-1	600
27987635	9920	1167	0	-100	0	230	101300000	1000	0	0	-1	600
28000195	9917	1163	0	-100	0	230	101300000	1000	0	0	-1	600
28012755	9931	1167	0	-100	0	230	101300000	1000	0	0	-1	600
28025315	9928	1169	0	-100	0	230	101300000	1000	0	0	-1	600
28037875	9923	1165	0	-100	0	230	101300000	1000	0	0	-1	600
28050435	9923	1170	0	-100	0	230	101300000	1000	0	0	-1	600
28062995	9925	1169	0	-100	0	230	101300000	1000	0	0	-1	600
28075555	9925	1171	0	-100	0	230	101300000	1000	0	0	-1	600
28088115	9928	1165	0	-100	0	230	101300000	1000	0	0	-1	600
28100675	9933	1165	0	-100	0	230	101300000	1000	0	0	-1	600
28113235	9928	1167	0	-100	0	230	101300000	1000	0	0	-1	600
28125795	9925	1164	0	-100	0	230	101300000	1000	0	0	-1	600
28138355	9925	1169	0	-100	0	230	101300000	1000	0	0	-1	600
28150915	9936	1170	0	-100	0	230	101300000	1000	0	0	-1	600
28163475	9925	1166	0	-100	0	230	101300000	1000	0	0	-1	600
28176035	9920	1164	0	-100	0	230	101300000	1000	0	0	-1	600
28188595	9925	1169	0	-100	0	230	101300000	1000	0	0	-1	600
28201155	9936	1169	0	-100	0	230	101300000	1000	0	0	-1	600
28213715	9925	1167	0	-100	0	230	101300000	1000	0	0	-1	600
28226275	9928	1170	0	-100	0	230	101300000	1000	0	0	-1	600
28238835	9928	1166	0	-100	0	230	101300000	1000	0	0	-1	600
28251395	9936	1178	0	-100	0	230	101300000	1000	0	0	-1	600
28263955	9928	1165	0	-100	0	230	101300000	1000	0	0	-1	600
28276515	9928	1170	0	-100	0	230	101300000	1000	0	0	-1	600
28289075	9936	1172	0	-100	0	230	101300000	1000	0	0	-1	600
28301635	9933	1167	0	-100	0	230	101300000	1000	0	0	-1	600
28314195	9928	1167	0	-100	0	230	101300000	1000	0	0	-1	600
28326755	9923	1169	0	-100	0	230	101300000	1000	0	0	-1	600
28339315	9933	1169	0	-100	0	230	101300000	1000	0	0	-1	600
28351875	9923	1171	0	-100	0	230	101300000	1000	0	0	-1	600
28364435	9939	1169	0	-100	0	230	101300000	1000	0	0	-1	600
28376995	9931	1166	0	-100	0	230	101300000	1000	0	0	-1	600
28389555	9912	1162	0	-100	0	230	101300000	1000	0	0	-1	600
28402115	9925	1173	0	-100	0	230	101300000	1000	0	0	-1	600
28414675	9931	1164	0	-100	0	230	101300000	1000	0	0	-1	600
28427235	9928	1170	0	-100	0	230	101300000	1000	0	0	-1	600
28439795	9931	1167	0	-100	0	230	101300000	1000	0	0	-1	600
28452355	9931	1168	0	-100	0	230	101300000	1000	0	0	-1	600
28464915	9925	1165	0	-100	0	230	101300000	1000	0	0	-1	600
28477475	9915	1164	0	-100	0	230	101300000	1000	0	0	-1	600
28490035	9931	1167	0	-100	0	230	101300000	1000	0	0	-1	600
28502595	9928	1168	0	-100	0	230	101300000	1000	0	0	-1	600
28515155	9920	1158	0	-100	0	230	101300000	1000	0	0	-1	600
28527715	9912	1166	0	-100	0	230	101300000	1000	0	0	-1	600
28540275	9931	1165	0	-100	0	230	101300000	1000	0	0	-1	600
28552835	9925	1169	0	-100	0	230	101300000	1000	0	0	-1	600
28565395	9909	1160	0	-100	0	230	101300000	1000	0	0	-1	600
28577955	9933	1175	0	-100	0	230	101300000	1000	0	0	-1	600
28590515	9931	1164	0	-100	0	230	101300000	1000	0	0	-1	600
28603075	9920	1170	0	-100	0	230	101300000	1000	0	0	-1	600
28615635	9931	1164	0	-100	0	230	101300000	1000	0	0	-1	600
28628195	9928	1173	0	-100	0	230	101300000	1000	0	0	-1	600
28640755	9931	1163	0	-100	0	230	101300000	1000	0	0	-1	600
28653315	9931	1172	0	-100	0	230	101300000	1000	0	0	-1	600
28665875	9920	1164	0	-100	0	230	101300000	1000	0	0	-1	600
28678435	9933	1173	0	-100	0	230	101300000	1000	0	0	-1	600
28690995	9923	1168	0	-100	0	230	101300000	1000	0	0	-1	600
28703555	9931	1173	0	-100	0	230	101300000	1000	0	0	-1	600
28716115	9915	1164	0	-100	0	230	101300000	1000	0	0	-1	600
28728675	9936	1172	0	-100	0	230	101300000	1000	0	0	-1	600
28741235	9917	1160	0	-100	0	230	101300000	1000	0	0	-1	600
28753795	9928	1171	0	-100	0	230	101300000	1000	0	0	-1	600
28766355	9928	1165	0	-100	0	230	101300000	1000	0	0	-1	600
28778915	9928	1167	0	-100	0	230	101300000	1000	0	0	-1	600
28791475	9912	1163	0	-100	0	230	101300000	1000	0	0	-1	600
28804035	9931	1164	0	-100	0	230	101300000	1000	0	0	-1	600
28816595	9917	1169	0	-100	0	230	101300000	1000	0	0	-1	600
28829155	9928	1164	0	-100	0	230	101300000	1000	0	0	-1	600
28841715	9931	1168	0	-100	0	230	101300000	1000	0	0	-1	600
28854275	9933	1168	0	-100	0	230	101300000	1000	0	0	-1	600
28866835	9931	1164	0	-100	0	230	101300000	1000	0	0	-1	600
28879395	9923	1166	0	-100	0	230	101300000	1000	0	0	-1	600
28891955	9933	1166	0	-100	0	230	101300000	1000	0	0	-1	600
28904515	9933	1170	0	-100	0	230	101300000	1000	0	0	-1	600
28917075	9933	1165	0	-100	0	230	101300000	1000	0	0	-1	600
28929635	9920	1164	0	-100	0	230	101300000	1000	0	0	-1	600
28942195	9923	1163	0	-100	0	230	101300000	1000	0	0	-1	600
28954755	9931	1169	0	-100	0	230	101300000	1000	0	0	-1	600
28967315	9923	1164	0	-100	0	230	101300000	1000	0	0	-1	600
28979875	9933	1164	0	-100	0	230	101300000	1000	0	0	-1	600
28992435	9936	1171	0	-100	0	230	101300000	1000	0	0	-1	600
29004995	9923	1164	0	-100	0	230	101300000	1000	0	0	-1	600
29017555	9925	1170	0	-100	0	230	101300000	1000	0	0	-1	600
29030115	9917	1162	0	-100	0	230	101300000	1000	0	0	-1	600
29042675	9928	1168	0	-100	0	230	101300000	1000	0	0	-1	600
29055235	9931	1164	0	-100	0	230	101300000	1000	0	0	-1	600
29067795	9923	1167	0	-100	0	230	101300000	1000	0	0	-1	600
29080355	9925	1161	0	-100	0	230	101300000	1000	0	0	-1	600
29092915	9931	1171	0	-100	0	230	101300000	1000	0	0	-1	600
29105475	9936	1165	0	-100	0	230	101300000	1000	0	0	-1	600
29118035	9920	1170	0	-100	0	230	101300000	1000	0	0	-1	600
29130595	9931	1163	0	-100	0	230	101300000	1000	0	0	-1	600
29143155	9936	1171	0	-100	0	230	101300000	1000	0	0	-1	600
29155715	9925	1163	0	-100	0	230	101300000	1000	0	0	-1	600
29168275	9936	1169	0	-100	0	230	101300000	1000	0	0	-1	600
29180835	9923	1163	0	-100	0	230	101300000	1000	0	0	-1	600
29193395	9928	1163	0	-100	0	230	101300000	1000	0	0	-1	600
29205955	9936	1172	0	-100	0	230	101300000	1000	0	0	-1	600
29218515	9925	1163	0	-100	0	230	101300000	1000	0	0	-1	600
29231075	9917	1170	0	-100	0	230	101300000	1000	0	0	-1	600
29243635	9936	1165	0	-100	0	230	101300000	1000	0	0	-1	600
29256195	9925	1165	0	-100	0	230	101300000	1000	0	0	-1	600
29268755	9933	1171	0	-100	0	230	101300000	1000	0	0	-1	600
29281315	9917	1161	0	-100	0	230	101300000	1000	0	0	-1	600
29293875	9933	1167	0	-100	0	230	101300000	1000	0	0	-1	600
29306435	9928	1169	0	-100	0	230	101300000	1000	0	0	-1	600
29318995	9933	1175	0	-100	0	230	101300000	1000	0	0	-1	600
29331555	9923	1167	0	-100	0	230	101300000	1000	0	0	-1	600
29344115	9925	1165	0	-100	0	230	101300000	1000	0	0	-1	600
29356675	9925	1166	0	-100	0	230	101300000	1000	0	0	-1	600
29369235	9936	1163	0	-100	0	230	101300000	1000	0	0	-1	600
29381795	9917	1170	0	-100	0	230	101300000	1000	0	0	-1	600
29394355	9925	1162	0	-100	0	230	101300000	1000	0	0	-1	600
29406915	9917	1169	0	-100	0	230	101300000	1000	0	0	-1	600
29419475	9925	1161	0	-100	0	230	101300000	1000	0	0	-1	600
29432035	9933	1174	0	-100	0	230	101300000	1000	0	0	-1	600
29444595	9928	1162	0	-100	0	230	101300000	1000	0	0	-1	600
29457155	9933	1170	0	-100	0	230	101300000	1000	0	0	-1	600
29469715	9925	1163	0	-100	0	230	101300000	1000	0	0	-1	600
29482275	9939	1169	0	-100	0	230	101300000	1000	0	0	-1	600
29494835	9931	1166	0	-100	0	230	101300000	1000	0	0	-1	600
29507395	9939	1166	0	-100	0	230	101300000	1000	0	0	-1	600
29519955	9917	1165	0	-100	0	230	101300000	1000	0	0	-1	600
29532515	9933	1169	0	-100	0	230	101300000	1000	0	0	-1	600
29545075	9928	1161	0	-100	0	230	101300000	1000	0	0	-1	600
29557635	9920	1166	0	-100	0	230	101300000	1000	0	0	-1	600
29570195	9936	1162	0	-100	0	230	101300000	1000	0	0	-1	600
29582755	9931	1171	0	-100	0	230	101300000	1000	0	0	-1	600
29595315	9928	1158	0	-100	0	230	101300000	1000	0	0	-1	600
29607875	9931	1168	0	-100	0	230	101300000	1000	0	0	-1	600
29620435	9933	1166	0	-100	0	230	101300000	1000	0	0	-1	600
29632995	9931	1164	0	-100	0	230	101300000	1000	0	0	-1	600
29645555	9928	1165	0	-100	0	230	101300000	1000	0	0	-1	600
29658115	9931	1162	0	-100	0	230	101300000	1000	0	0	-1	600
29670675	9931	1170	0	-100	0	230	101300000	1000	0	0	-1	600
29683235	9917	1161	0	-100	0	230	101300000	1000	0	0	-1	600
29695795	9936	1163	0	-100	0	230	101300000	1000	0	0	-1	600
29708355	9931	1168	0	-100	0	230	101300000	1000	0	0	-1	600
29720915	9920	1160	0	-100	0	230	101300000	1000	0	0	-1	600
29733475	9915	1164	0	-100	0	230	101300000	1000	0	0	-1	600
29746035	9933	1167	0	-100	0	230	101300000	1000	0	0	-1	600
29758595	9936	1164	0	-100	0	230	101300000	1000	0	0	-1	600
29771155	9933	1170	0	-100	0	230	101300000	1000	0	0	-1	600
29783715	9923	1161	0	-100	0	230	101300000	1000	0	0	-1	600
29796275	9931	1163	0	-100	0	230	101300000	1000	0	0	-1	600
29808835	9936	1171	0	-100	0	230	101300000	1000	0	0	-1	600
29821395	9931	1166	0	-100	0	230	101300000	1000	0	0	-1	600
29833955	9925	1165	0	-100	0	230	101300000	1000	0	0	-1	600
29846515	9920	1164	0	-100	0	230	101300000	1000	0	0	-1	600
29859075	9931	1162	0	-100	0	230	101300000	1000	0	0	-1	600
29871635	9939	1173	0	-100	0	230	101300000	1000	0	0	-1	600
29884195	9931	1163	0	-100	0	230	101300000	1000	0	0	-1	600
29896755	9931	1161	0	-100	0	230	101300000	1000	0	0	-1	600
29909315	9923	1168	0	-100	0	230	101300000	1000	0	0	-1	600
29921875	9933	1163	0	-100	0	230	101300000	1000	0	0	-1	600
29934435	9925	1167	0	-100	0	230	101300000	1000	0	0	-1	600
29946995	9928	1167	0	-100	0	230	101300000	1000	0	0	-1	600
29959555	9925	1159	0	-100	0	230	101300000	1000	0	0	-1	600
29972115	9915	1167	0	-100	0	230	101300000	1000	0	0	-1	600
29984675	9928	1164	0	-100	0	230	101300000	1000	0	0	-1	600
29997235	9933	1172	0	-100	0	230	101300000	1000	0	0	-1	600
30009795	9928	1162	0	-100	0	230	101300000	1000	0	0	-1	600
30022355	9925	1164	0	-100	0	230	101300000	1000	0	0	-1	600
30034915	9917	1164	0	-100	0	230	101300000	1000	0	0	-1	600
30047475	9931	1163	0	-100	0	230	101300000	1000	0	0	-1	600
30060035	9923	1162	0	-100	0	230	101300000	1000	0	0	-1	600
30072595	9928	1166	0	-100	0	230	101300000	1000	0	0	-1	600
30085155	9928	1162	0	-100	0	230	101300000	1000	0	0	-1	600
30097715	9933	1166	0	-100	0	230	101300000	1000	0	0	-1	600
30110275	9925	1161	0	-100	0	230	101300000	1000	0	0	-1	600
30122835	9931	1165	0	-100	0	230	101300000	1000	0	0	-1	600
30135395	9931	1165	0	-100	0	230	101300000	1000	0	0	-1	600
30147955	9933	1167	0	-100	0	230	101300000	1000	0	0	-1	600
30160515	9928	1162	0	-100	0	230	101300000	1000	0	0	-1	600
30173075	9933	1173	0	-100	0	230	101300000	1000	0	0	-1	600
30185635	9920	1164	0	-100	0	230	101300000	1000	0	0	-1	600
30198195	9928	1169	0	-100	0	230	101300000	1000	0	0	-1	600
30210755	9933	1172	0	-100	0	230	101300000	1000	0	0	-1	600
30223315	9931	1165	0	-100	0	230	101300000	1000	0	0	-1	600
30235875	9933	1174	0	-100	0	230	101300000	1000	0	0	-1	600
30248435	9936	1170	0	-100	0	230	101300000	1000	0	0	-1	600
30260995	9931	1166	0	-100	0	230	101300000	1000	0	0	-1	600
30273555	9931	1168	0	-100	0	230	101300000	1000	0	0	-1	600
30286115	9931	1177	0	-100	0	230	101300000	1000	0	0	-1	600
30298675	9928	1163	0	-100	0	230	101300000	1000	0	0	-1	600
30311235	9931	1170	0	-100	0	230	101300000	1000	0	0	-1	600
30323795	9931	1168	0	-100	0	230	101300000	1000	0	0	-1	600
30336355	9928	1164	0	-100	0	230	101300000	1000	0	0	-1	600
30348915	9931	1172	0	-100	0	230	101300000	1000	0	0	-1	600
30361475	9933	1169	0	-100	0	230	101300000	1000	0	0	-1	600
30374035	9928	1171	0	-100	0	230	101300000	1000	0	0	-1	600
30386595	9920	1162	0	-100	0	230	101300000	1000	0	0	-1	600
30399155	9933	1170	0	-100	0	230	101300000	1000	0	0	-1	600
30411715	9933	1169	0	-100	0	230	101300000	1000	0	0	-1	600
30424275	9928	1168	0	-100	0	230	101300000	1000	0	0	-1	600
30436835	9931	1171	0	-100	0	230	101300000	1000	0	0	-1	600
30449395	9915	1163	0	-100	0	230	101300000	1000	0	0	-1	600
30461955	9936	1176	0	-100	0	230	101300000	1000	0	0	-1	600
30474515	9933	1170	0	-100	0	230	101300000	1000	0	0	-1	600
30487075	9928	1166	0	-100	0	230	101300000	1000	0	0	-1	600
30499635	9920	1168	0	-100	0	230	101300000	1000	0	0	-1	600
30512195	9931	1167	0	-100	0	230	101300000	1000	0	0	-1	600
30524755	9936	1177	0	-100	0	230	101300000	1000	0	0	-1	600
30537315	9923	1166	0	-100	0	230	101300000	1000	0	0	-1	600
30549875	9931	1171	0	-100	0	230	101300000	1000	0	0	-1	600
30562435	9915	1159	0	-100	0	230	101300000	1000	0	0	-1	600
30574995	9928	1164	0	-100	0	230	101300000	1000	0	0	-1	600
30587555	9936	1168	0	-100	0	230	101300000	1000	0	0	-1	600
30600115	9931	1173	0	-100	0	230	101300000	1000	0	0	-1	600
30612675	9931	1165	0	-100	0	230	101300000	1000	0	0	-1	600
30625235	9915	1165	0	-100	0	230	101300000	1000	0	0	-1	600
30637795	9936	1174	0	-100	0	230	101300000	1000	0	0	-1	600
30650355	9928	1167	0	-100	0	230	101300000	1000	0	0	-1	600
30662915	9925	1168	0	-100	0	230	101300000	1000	0	0	-1	600
30675475	9933	1170	0	-100	0	230	101300000	1000	0	0	-1	600
30688035	9931	1168	0	-100	0	230	101300000	1000	0	0	-1	600
30700595	9928	1175	0	-100	0	230	101300000	1000	0	0	-1	600
30713155	9936	1166	0	-100	0	230	101300000	1000	0	0	-1	600
30725715	9917	1165	0	-100	0	230	101300000	1000	0	0	-1	600
30738275	9933	1173	0	-100	0	230	101300000	1000	0	0	-1	600
30750835	9928	1166	0	-100	0	230	101300000	1000	0	0	-1	600
30763395	9925	1169	0	-100	0	230	101300000	1000	0	0	-1	600
30775955	9928	1170	0	-100	0	230	101300000	1000	0	0	-1	600
30788515	9912	1160	0	-100	0	230	101300000	1000	0	0	-1	600
30801075	9931	1172	0	-100	0	230	101300000	1000	0	0	-1	600
30813635	9928	1169	0	-100	0	230	101300000	1000	0	0	-1	600
30826195	9923	1164	0	-100	0	230	101300000	1000	0	0	-1	600
30838755	9931	1174	0	-100	0	230	101300000	1000	0	0	-1	600
30851315	9936	1165	0	-100	0	230	101300000	1000	0	0	-1	600
30863875	9928	1171	0	-100	0	230	101300000	1000	0	0	-1	600
30876435	9920	1170	0	-100	0	230	101300000	1000	0	0	-1	600
30888995	9936	1170	0	-100	0	230	101300000	1000	0	0	-1	600
30901555	9931	1174	0	-100	0	230	101300000	1000	0	0	-1	600
30914115	9923	1167	0	-100	0	230	101300000	1000	0	0	-1	600
30926675	9917	1164	0	-100	0	230	101300000	1000	0	0	-1	600
30939235	9931	1172	0	-100	0	230	101300000	1000	0	0	-1	600
30951795	9933	1169	0	-100	0	230	101300000	1000	0	0	-1	600
30964355	9928	1172	0	-100	0	230	101300000	1000	0	0	-1	600
30976915	9923	1161	0	-100	0	230	101300000	1000	0	0	-1	600
30989475	9933	1172	0	-100	0	230	101300000	1000	0	0	-1	600
31002035	9936	1173	0	-100	0	230	101300000	1000	0	0	-1	600
31014595	9925	1164	0	-100	0	230	101300000	1000	0	0	-1	600
31027155	9933	1173	0	-100	0	230	101300000	1000	0	0	-1	600
31039715	9928	1165	0	-100	0	230	101300000	1000	0	0	-1	600
31052275	9933	1173	0	-100	0	230	101300000	1000	0	0	-1	600
31064835	9925	1169	0	-100	0	230	101300000	1000	0	0	-1	600
31077395	9917	1160	0	-100	0	230	101300000	1000	0	0	-1	600
31089955	9928	1172	0	-100	0	230	101300000	1000	0	0	-1	600
31102515	9931	1166	0	-100	0	230	101300000	1000	0	0	-1	600
31115075	9931	1168	0	-100	0	230	101300000	1000	0	0	-1	600
31127635	9933	1173	0	-100	0	230	101300000	1000	0	0	-1	600
31140195	9931	1164	0	-100	0	230	101300000	1000	0	0	-1	600
31152755	9933	1166	0	-100	0	230	101300000	1000	0	0	-1	600
31165315	9939	1176	0	-100	0	230	101300000	1000	0	0	-1	600
31177875	9928	1162	0	-100	0	230	101300000	1000	0	0	-1	600
31190435	9928	1171	0	-100	0	230	101300000	1000	0	0	-1	600
31202995	9931	1169	0	-100	0	230	101300000	1000	0	0	-1	600
31215555	9928	1167	0	-100	0	230	101300000	1000	0	0	-1	600
31228115	9917	1166	0	-100	0	230	101300000	1000	0	0	-1	600
31240675	9939	1175	0	-100	0	230	101300000	1000	0	0	-1	600
31253235	9923	1168	0	-100	0	230	101300000	1000	0	0	-1	600
31265795	9923	1163	0	-100	0	230	101300000	1000	0	0	-1	600
31278355	9931	1175	0	-100	0	230	101300000	1000	0	0	-1	600
31290915	9933	1171	0	-100	0	230	101300000	1000	0	0	-1	600
31303475	9928	1164	0	-100	0	230	101300000	1000	0	0	-1	600
31316035	9931	1168	0	-100	0	230	101300000	1000	0	0	-1	600
31328595	9928	1171	0	-100	0	230	101300000	1000	0	0	-1	600
31341155	9920	1167	0	-100	0	230	101300000	1000	0	0	-1	600
31353715	9931	1168	0	-100	0	230	101300000	1000	0	0	-1	600
31366275	9933	1174	0	-100	0	230	101300000	1000	0	0	-1	600
31378835	9928	1168	0	-100	0	230	101300000	1000	0	0	-1	600
31391395	9925	1165	0	-100	0	230	101300000	1000	0	0	-1	600
31403955	9928	1171	0	-100	0	230	101300000	1000	0	0	-1	600
31416515	9931	1168	0	-100	0	230	101300000	1000	0	0	-1	600
31429075	9928	1171	0	-100	0	230	101300000	1000	0	0	-1	600
31441635	9928	1167	0	-100	0	230	101300000	1000	0	0	-1	600
31454195	9920	1162	0	-100	0	230	101300000	1000	0	0	-1	600
31466755	9915	1167	0	-100	0	230	101300000	1000	0	0	-1	600
31479315	9931	1169	0	-100	0	230	101300000	1000	0	0	-1	600
31491875	9933	1167	0	-100	0	230	101300000	1000	0	0	-1	600
31504435	9925	1175	0	-100	0	230	101300000	1000	0	0	-1	600
31516995	9928	1175	0	-100	0	230	101300000	1000	0	0	-1	600
31529555	9925	1166	0	-100	0	230	101300000	1000	0	0	-1	600
31542115	9931	1175	0	-100	0	230	101300000	1000	0	0	-1	600
31554675	9939	1171	0	-100	0	230	101300000	1000	0	0	-1	600
31567235	9936	1170	0	-100	0	230	101300000	1000	0	0	-1	600
31579795	9928	1171	0	-100	0	230	101300000	1000	0	0	-1	600
31592355	9931	1167	0	-100	0	230	101300000	1000	0	0	-1	600
31604915	9931	1177	0	-100	0	230	101300000	1000	0	0	-1	600
31617475	9925	1164	0	-100	0	230	101300000	1000	0	0	-1	600
31630035	9920	1170	0	-100	0	230	101300000	1000	0	0	-1	600
31642595	9931	1166	0	-100	0	230	101300000	1000	0	0	-1	600
31655155	9925	1169	0	-100	0	230	101300000	1000	0	0	-1	600
31667715	9933	1170	0	-100	0	230	101300000	1000	0	0	-1	600
31680275	9936	1168	0	-100	0	230	101300000	1000	0	0	-1	600
31692835	9925	1170	0	-100	0	230	101300000	1000	0	0	-1	600
31705395	9928	1169	0	-100	0	230	101300000	1000	0	0	-1	600
31717955	9928	1171	0	-100	0	230	101300000	1000	0	0	-1	600
31730515	9933	1166	0	-100	0	230	101300000	1000	0	0	-1	600
31743075	9928	1171	0	-100	0	230	101300000	1000	0	0	-1	600
31755635	9931	1164	0	-100	0	230	101300000	1000	0	0	-1	600
31768195	9933	1170	0	-100	0	230	101300000	1000	0	0	-1	600
31780755	9931	1174	0	-100	0	230	101300000	1000	0	0	-1	600
31793315	9925	1164	0	-100	0	230	101300000	1000	0	0	-1	600
31805875	9925	1169	0	-100	0	230	101300000	1000	0	0	-1	600
31818435	9933	1170	0	-100	0	230	101300000	1000	0	0	-1	600
31830995	9933	1168	0	-100	0	230	101300000	1000	0	0	-1	600
31843555	9933	1171	0	-100	0	230	101300000	1000	0	0	-1	600
31856115	9925	1165	0	-100	0	230	101300000	1000	0	0	-1	600
31868675	9923	1162	0	-100	0	230	101300000	1000	0	0	-1	600
31881235	9925	1169	0	-100	0	230	101300000	1000	0	0	-1	600
31893795	9933	1169	0	-100	0	230	101300000	1000	0	0	-1	600
31906355	9928	1171	0	-100	0	230	101300000	1000	0	0	-1	600
31918915	9925	1164	0	-100	0	230	101300000	1000	0	0	-1	600
31931475	9928	1168	0	-100	0	230	101300000	1000	0	0	-1	600
31944035	9933	1166	0	-100	0	230	101300000	1000	0	0	-1	600
31956595	9933	1167	0	-100	0	230	101300000	1000	0	0	-1	600
31969155	9933	1171	0	-100	0	230	101300000	1000	0	0	-1	600
31981715	9928	1167	0	-100	0	230	101300000	1000	0	0	-1	600
31994275	9915	1166	0	-100	0	230	101300000	1000	0	0	-1	600
32006835	9933	1168	0	-100	0	230	101300000	1000	0	0	-1	600
32019395	9931	1166	0	-100	0	230	101300000	1000	0	0	-1	600
32031955	9933	1171	0	-100	0	230	101300000	1000	0	0	-1	600
32044515	9933	1164	0	-100	0	230	101300000	1000	0	0	-1	600
32057075	9917	1168	0	-100	0	230	101300000	1000	0	0	-1	600
32069635	9912	1164	0	-100	0	230	101300000	1000	0	0	-1	600
32082195	9933	1168	0	-100	0	230	101300000	1000	0	0	-1	600
32094755	9923	1167	0	-100	0	230	101300000	1000	0	0	-1	600
32107315	9923	1163	0	-100	0	230	101300000	1000	0	0	-1	600
32119875	9920	1169	0	-100	0	230	101300000	1000	0	0	-1	600
32132435	9936	1170	0	-100	0	230	101300000	1000	0	0	-1	600
32144995	9928	1169	0	-100	0	230	101300000	1000	0	0	-1	600
32157555	9925	1170	0	-100	0	230	101300000	1000	0	0	-1	600
32170115	9931	1169	0	-100	0	230	101300000	1000	0	0	-1	600
32182675	9933	1167	0	-100	0	230	101300000	1000	0	0	-1	600
32195235	9915	1167	0	-100	0	230	101300000	1000	0	0	-1	600
32207795	9933	1172	0	-100	0	230	101300000	1000	0	0	-1	600
32220355	9931	1166	0	-100	0	230	101300000	1000	0	0	-1	600
32232915	9925	1173	0	-100	0	230	101300000	1000	0	0	-1	600
32245475	9928	1163	0	-100	0	230	101300000	1000	0	0	-1	600
32258035	9931	1170	0	-100	0	230	101300000	1000	0	0	-1	600
32270595	9928	1166	0	-100	0	230	101300000	1000	0	0	-1	600
32283155	9931	1168	0	-100	0	230	101300000	1000	0	0	-1	600
32295715	9939	1169	0	-100	0	230	101300000	1000	0	0	-1	600
32308275	9923	1167	0	-100	0	230	101300000	1000	0	0	-1	600
32320835	9928	1168	0	-100	0	230	101300000	1000	0	0	-1	600
32333395	9931	1164	0	-100	0	230	101300000	1000	0	0	-1	600
32345955	9933	1175	0	-100	0	230	101300000	1000	0	0	-1	600
32358515	9917	1162	0	-100	0	230	101300000	1000	0	0	-1	600
32371075	9928	1165	0	-100	0	230	101300000	1000	0	0	-1	600
32383635	9925	1165	0	-100	0	230	101300000	1000	0	0	-1	600
32396195	9928	1171	0	-100	0	230	101300000	1000	0	0	-1	600
32408755	9928	1164	0	-100	0	230	101300000	1000	0	0	-1	600
32421315	9931	1172	0	-100	0	230	101300000	1000	0	0	-1	600
32433875	9915	1163	0	-100	0	230	101300000	1000	0	0	-1	600
32446435	9931	1168	0	-100	0	230	101300000	1000	0	0	-1	600
32458995	9933	1166	0	-100	0	230	101300000	1000	0	0	-1	600
32471555	9933	1168	0	-100	0	230	101300000	1000	0	0	-1	600
32484115	9936	1172	0	-100	0	230	101300000	1000	0	0	-1	600
32496675	9933	1168	0	-100	0	230	101300000	1000	0	0	-1	600
32509235	9928	1174	0	-100	0	230	101300000	1000	0	0	-1	600
32521795	9923	1167	0	-100	0	230	101300000	1000	0	0	-1	600
32534355	9920	1170	0	-100	0	230	101300000	1000	0	0	-1	600
32546915	9931	1167	0	-100	0	230	101300000	1000	0	0	-1	600
32559475	9928	1172	0	-100	0	230	101300000	1000	0	0	-1	600
32572035	9933	1166	0	-100	0	230	101300000	1000	0	0	-1	600
32584595	9936	1170	0	-100	0	230	101300000	1000	0	0	-1	600
32597155	9931	1169	0	-100	0	230	101300000	1000	0	0	-1	600
32609715	9928	1167	0	-100	0	230	101300000	1000	0	0	-1	600
32622275	9928	1172	0	-100	0	230	101300000	1000	0	0	-1	600
32634835	9925	1164	0	-100	0	230	101300000	1000	0	0	-1	600
32647395	9928	1171	0	-100	0	230	101300000	1000	0	0	-1	600
32659955	9923	1167	0	-100	0	230	101300000	1000	0	0	-1	600
32672515	9915	1164	0	-100	0	230	101300000	1000	0	0	-1	600
32685075	9928	1168	0	-100	0	230	101300000	1000	0	0	-1	600
32697635	9925	1165	0	-100	0	230	101300000	1000	0	0	-1	600
32710195	9925	1172	0	-100	0	230	101300000	1000	0	0	-1	600
32722755	9928	1164	0	-100	0	230	101300000	1000	0	0	-1	600
32735315	9915	1171	0	-100	0	230	101300000	1000	0	0	-1	600
32747875	9917	1165	0	-100	0	230	101300000	1000	0	0	-1	600
32760435	9928	1174	0	-100	0	230	101300000	1000	0	0	-1	600
32772995	9936	1167	0	-100	0	230	101300000	1000	0	0	-1	600
32785555	9931	1171	0	-100	0	230	101300000	1000	0	0	-1	600
32798115	9917	1164	0	-100	0	230	101300000	1000	0	0	-1	600
32810675	9928	1169	0	-100	0	230	101300000	1000	0	0	-1	600
32823235	9925	1165	0	-100	0	230	101300000	1000	0	0	-1	600
32835795	9920	1168	0	-100	0	230	101300000	1000	0	0	-1	600
32848355	9928	1167	0	-100	0	230	101300000	1000	0	0	-1	600
32860915	9915	1167	0	-100	0	230	101300000	1000	0	0	-1	600
32873475	9923	1165	0	-100	0	230	101300000	1000	0	0	-1	600
32886035	9923	1169	0	-100	0	230	101300000	1000	0	0	-1	600
32898595	9912	1163	0	-100	0	230	101300000	1000	0	0	-1	600
32911155	9917	1172	0	-100	0	230	101300000	1000	0	0	-1	600
32923715	9931	1166	0	-100	0	230	101300000	1000	0	0	-1	600
32936275	9923	1163	0	-100	0	230	101300000	1000	0	0	-1	600
32948835	9936	1175	0	-100	0	230	101300000	1000	0	0	-1	600
32961395	9936	1168	0	-100	0	230	101300000	1000	0	0	-1	600
32973955	9925	1169	0	-100	0	230	101300000	1000	0	0	-1	600
32986515	9928	1166	0	-100	0	230	101300000	1000	0	0	-1	600
32999075	9928	1170	0	-100	0	230	101300000	1000	0	0	-1	600
33011635	9939	1172	0	-100	0	230	101300000	1000	0	0	-1	600
33024195	9933	1169	0	-100	0	230	101300000	1000	0	0	-1	600
33036755	9936	1173	0	-100	0	230	101300000	1000	0	0	-1	600
33049315	9915	1166	0	-100	0	230	101300000	1000	0	0	-1	600
33061875	9915	1162	0	-100	0	230	101300000	1000	0	0	-1	600
33074435	9928	1171	0	-100	0	230	101300000	1000	0	0	-1	600
33086995	9931	1172	0	-100	0	230	101300000	1000	0	0	-1	600
33099555	9933	1172	0	-100	0	230	101300000	1000	0	0	-1	600
33112115	9931	1174	0	-100	0	230	101300000	1000	0	0	-1	600
33124675	9931	1165	0	-100	0	230	101300000	1000	0	0	-1	600
33137235	9928	1171	0	-100	0	230	101300000	1000	0	0	-1	600
33149795	9931	1174	0	-100	0	230	101300000	1000	0	0	-1	600
33162355	9931	1168	0	-100	0	230	101300000	1000	0	0	-1	600
33174915	9917	1162	0	-100	0	230	101300000	1000	0	0	-1	600
33187475	9925	1173	0	-100	0	230	101300000	1000	0	0	-1	600
33200035	9928	1165	0	-100	0	230	101300000	1000	0	0	-1	600
33212595	9928	1166	0	-100	0	230	101300000	1000	0	0	-1	600
33225155	9931	1170	0	-100	0	230	101300000	1000	0	0	-1	600
33237715	9920	1163	0	-100	0	230	101300000	1000	0	0	-1	600
33250275	9928	1167	0	-100	0	230	101300000	1000	0	0	-1	600
33262835	9931	1173	0	-100	0	230	101300000	1000	0	0	-1	600
33275395	9931	1170	0	-100	0	230	101300000	1000	0	0	-1	600
33287955	9931	1167	0	-100	0	230	101300000	1000	0	0	-1	600
33300515	9923	1167	0	-100	0	230	101300000	1000	0	0	-1	600
33313075	9920	1170	0	-100	0	230	101300000	1000	0	0	-1	600
33325635	9931	1165	0	-100	0	230	101300000	1000	0	0	-1	600
33338195	9931	1169	0	-100	0	230	101300000	1000	0	0	-1	600
33350755	9933	1172	0	-100	0	230	101300000	1000	0	0	-1	600
33363315	9920	1170	0	-100	0	230	101300000	1000	0	0	-1	600
33375875	9928	1168	0	-100	0	230	101300000	1000	0	0	-1	600
