power	voltage	current	rpm	windSpeed	pitchAngle	temperature	ambientPressure	humidity	accelerationX	accelerationY	accelerationZ	currentSink	timestamp
0	2004	0	2444	76	200	230	101300000	1000	0	0	-1	0	255689996
0	2000	0	2450	76	200	230	101300000	1000	0	0	-1	0	255702556
0	2034	0	2416	76	200	230	101300000	1000	0	0	-1	0	255715116
0	2057	0	2430	76	200	230	101300000	1000	0	0	-1	0	255727676
0	2042	0	2441	76	200	230	101300000	1000	0	0	-1	0	255740236
0	2039	0	2446	76	200	230	101300000	1000	0	0	-1	0	255752796
2.075	2075	1	2422	76	200	230	101300000	1000	0	0	-1	0	255765356
0	2073	0	2437	76	200	230	101300000	1000	0	0	-1	0	255777916
0	2076	0	2425	76	200	230	101300000	1000	0	0	-1	0	255790476
0	2092	0	2421	76	200	230	101300000	1000	0	0	-1	0	255803036
0	2016	0	2440	76	200	230	101300000	1000	0	0	-1	0	255815596
0	2059	0	2419	76	200	230	101300000	1000	0	0	-1	0	255828156
0	2046	0	2416	76	200	230	101300000	1000	0	0	-1	0	255840716
0	2073	0	2444	76	200	230	101300000	1000	0	0	-1	0	255853276
8.328	2082	4	2416	76	200	230	101300000	1000	0	0	-1	0	255865836
0	2108	0	2434	76	200	230	101300000	1000	0	0	-1	0	255878396
6.246	2082	3	2428	76	200	230	101300000	1000	0	0	-1	0	255890956
0	2121	0	2433	76	200	230	101300000	1000	0	0	-1	0	255903516
0	2112	0	2437	76	200	230	101300000	1000	0	0	-1	0	255916076
0	2101	0	2425	76	200	230	101300000	1000	0	0	-1	0	255928636
0	2120	0	2421	76	200	230	101300000	1000	0	0	-1	0	255941196
0	2058	0	2440	76	200	230	101300000	1000	0	0	-1	0	255953756
0	2083	0	2422	76	200	230	101300000	1000	0	0	-1	0	255966316
0	2050	0	2434	76	200	230	101300000	1000	0	0	-1	0	255978876
0	2053	0	2425	76	200	230	101300000	1000	0	0	-1	0	255991436
0	2069	0	2436	76	200	230	101300000	1000	0	0	-1	0	256003996
0	2116	0	2427	76	200	230	101300000	1000	0	0	-1	0	256016556
0	2064	0	2440	76	200	230	101300000	1000	0	0	-1	0	256029116
0	2080	0	2430	76	200	230	101300000	1000	0	0	-1	0	256041676
0	2104	0	2433	76	200	230	101300000	1000	0	0	-1	0	256054236
6.3	2100	3	2431	76	200	230	101300000	1000	0	0	-1	0	256066796
0	2046	0	2431	76	200	230	101300000	1000	0	0	-1	0	256079356
0	2075	0	2425	76	200	230	101300000	1000	0	0	-1	0	256091916
0	2055	0	2427	76	200	230	101300000	1000	0	0	-1	0	256104476
0	2051	0	2434	76	200	230	101300000	1000	0	0	-1	0	256117036
0	2030	0	2438	76	200	230	101300000	1000	0	0	-1	0	256129596
0	2080	0	2418	76	200	230	101300000	1000	0	0	-1	0	256142156
0	2042	0	2425	76	200	230	101300000	1000	0	0	-1	0	256154716
6.117	2039	3	2438	76	200	230	101300000	1000	0	0	-1	0	256167276
0	2042	0	2427	76	200	230	101300000	1000	0	0	-1	0	256179836
0	2071	0	2419	76	200	230	101300000	1000	0	0	-1	0	256192396
6.102	2034	3	2431	76	200	230	101300000	1000	0	0	-1	0	256204956
0	2056	0	2428	76	200	230	101300000	1000	0	0	-1	0	256217516
0	2020	0	2430	76	200	230	101300000	1000	0	0	-1	0	256230076
6.015	2005	3	2421	76	200	230	101300000	1000	0	0	-1	0	256242636
0	1982	0	2431	76	200	230	101300000	1000	0	0	-1	0	256255196
0	2019	0	2419	76	200	230	101300000	1000	0	0	-1	0	256267756
0	2000	0	2437	76	200	230	101300000	1000	0	0	-1	0	256280316
0	2021	0	2441	76	200	230	101300000	1000	0	0	-1	0	256292876
0	2050	0	2414	76	200	230	101300000	1000	0	0	-1	0	256305436
6.126	2042	3	2430	76	200	230	101300000	1000	0	0	-1	0	256317996
6.12	2040	3	2427	76	200	230	101300000	1000	0	0	-1	0	256330556
0	2036	0	2427	76	200	230	101300000	1000	0	0	-1	0	256343116
0	2048	0	2430	76	200	230	101300000	1000	0	0	-1	0	256355676
0	2031	0	2411	76	200	230	101300000	1000	0	0	-1	0	256368236
0	2036	0	2424	76	200	230	101300000	1000	0	0	-1	0	256380796
3.948	1974	2	2430	76	200	230	101300000	1000	0	0	-1	0	256393356
0	2043	0	2424	76	200	230	101300000	1000	0	0	-1	0	256405916
0	2039	0	2425	76	200	230	101300000	1000	0	0	-1	0	256418476
4.068	2034	2	2411	76	200	230	101300000	1000	0	0	-1	0	256431036
0	2012	0	2437	76	200	230	101300000	1000	0	0	-1	0	256443596
0	2039	0	2428	76	200	230	101300000	1000	0	0	-1	0	256456156
6.213	2071	3	2414	76	200	230	101300000	1000	0	0	-1	0	256468716
0	2063	0	2424	76	200	230	101300000	1000	0	0	-1	0	256481276
0	2085	0	2427	76	200	230	101300000	1000	0	0	-1	0	256493836
0	2042	0	2428	76	200	230	101300000	1000	0	0	-1	0	256506396
8.284	2071	4	2415	76	200	230	101300000	1000	0	0	-1	0	256518956
0	2065	0	2412	76	200	230	101300000	1000	0	0	-1	0	256531516
0	2031	0	2444	76	200	230	101300000	1000	0	0	-1	0	256544076
2.027	2027	1	2409	76	200	230	101300000	1000	0	0	-1	0	256556636
0	2067	0	2422	76	200	230	101300000	1000	0	0	-1	0	256569196
0	2056	0	2424	76	200	230	101300000	1000	0	0	-1	0	256581756
6.249	2083	3	2428	76	200	230	101300000	1000	0	0	-1	0	256594316
0	2075	0	2427	76	200	230	101300000	1000	0	0	-1	0	256606876
0	2079	0	2424	76	200	230	101300000	1000	0	0	-1	0	256619436
0	2105	0	2434	76	200	230	101300000	1000	0	0	-1	0	256631996
4.242	2121	2	2412	76	200	230	101300000	1000	0	0	-1	0	256644556
0	2116	0	2437	76	200	230	101300000	1000	0	0	-1	0	256657116
0	2085	0	2421	76	200	230	101300000	1000	0	0	-1	0	256669676
2.087	2087	1	2436	76	200	230	101300000	1000	0	0	-1	0	256682236
0	2078	0	2414	76	200	230	101300000	1000	0	0	-1	0	256694796
0	2068	0	2440	76	200	230	101300000	1000	0	0	-1	0	256707356
0	2040	0	2412	76	200	230	101300000	1000	0	0	-1	0	256719916
4.142	2071	2	2416	76	200	230	101300000	1000	0	0	-1	0	256732476
0	2044	0	2437	76	200	230	101300000	1000	0	0	-1	0	256745036
0	2088	0	2416	76	200	230	101300000	1000	0	0	-1	0	256757596
0	2067	0	2433	76	200	230	101300000	1000	0	0	-1	0	256770156
0	2069	0	2424	76	200	230	101300000	1000	0	0	-1	0	256782716
0	2085	0	2430	76	200	230	101300000	1000	0	0	-1	0	256795276
0	2106	0	2419	76	200	230	101300000	1000	0	0	-1	0	256807836
0	2082	0	2443	76	200	230	101300000	1000	0	0	-1	0	256820396
0	2070	0	2424	76	200	230	101300000	1000	0	0	-1	0	256832956
0	2054	0	2428	76	200	230	101300000	1000	0	0	-1	0	256845516
0	2049	0	2431	76	200	230	101300000	1000	0	0	-1	0	256858076
4.022	2011	2	2411	76	200	230	101300000	1000	0	0	-1	0	256870636
0	2032	0	2428	76	200	230	101300000	1000	0	0	-1	0	256883196
0	2005	0	2437	76	200	230	101300000	1000	0	0	-1	0	256895756
0	2051	0	2414	76	200	230	101300000	1000	0	0	-1	0	256908316
0	2034	0	2412	76	200	230	101300000	1000	0	0	-1	0	256920876
0	2068	0	2427	76	200	230	101300000	1000	0	0	-1	0	256933436
123.692	1819	68	2400	76	200	230	101300000	1000	0	0	-1	50	264592596
133.2	1800	74	2389	76	200	230	101300000	1000	0	0	-1	50	264605156
126.7	1810	70	2399	76	200	230	101300000	1000	0	0	-1	50	264617716
128.013	1803	71	2393	76	200	230	101300000	1000	0	0	-1	50	264630276
124.959	1811	69	2399	76	200	230	101300000	1000	0	0	-1	50	264642836
124.407	1803	69	2390	76	200	230	101300000	1000	0	0	-1	50	264655396
129.6	1800	72	2396	76	200	230	101300000	1000	0	0	-1	50	264667956
125.718	1822	69	2405	76	200	230	101300000	1000	0	0	-1	50	264680516
134.014	1811	74	2392	76	200	230	101300000	1000	0	0	-1	50	264693076
127.098	1842	69	2392	76	200	230	101300000	1000	0	0	-1	50	264705636
134.925	1799	75	2396	76	200	230	101300000	1000	0	0	-1	50	264718196
121.806	1818	67	2403	76	200	230	101300000	1000	0	0	-1	50	264730756
129.646	1826	71	2390	76	200	230	101300000	1000	0	0	-1	50	264743316
121.806	1818	67	2393	76	200	230	101300000	1000	0	0	-1	50	264755876
129.788	1828	71	2396	76	200	230	101300000	1000	0	0	-1	50	264768436
128.94	1842	70	2396	76	200	230	101300000	1000	0	0	-1	50	264780996
131.688	1829	72	2399	76	200	230	101300000	1000	0	0	-1	50	264793556
129.099	1871	69	2392	76	200	230	101300000	1000	0	0	-1	50	264806116
127.167	1843	69	2395	76	200	230	101300000	1000	0	0	-1	50	264818676
133.056	1848	72	2393	76	200	230	101300000	1000	0	0	-1	50	264831236
130.34	1862	70	2400	76	200	230	101300000	1000	0	0	-1	50	264843796
135.707	1859	73	2392	76	200	230	101300000	1000	0	0	-1	50	264856356
125.596	1847	68	2393	76	200	230	101300000	1000	0	0	-1	50	264868916
124.508	1831	68	2400	76	200	230	101300000	1000	0	0	-1	50	264881476
137.788	1862	74	2393	76	200	230	101300000	1000	0	0	-1	50	264894036
136.296	1893	72	2392	76	200	230	101300000	1000	0	0	-1	50	264906596
126.412	1859	68	2395	76	200	230	101300000	1000	0	0	-1	50	264919156
123.481	1843	67	2390	76	200	230	101300000	1000	0	0	-1	50	264931716
141.36	1860	76	2397	76	200	230	101300000	1000	0	0	-1	50	264944276
132.09	1887	70	2389	76	200	230	101300000	1000	0	0	-1	50	264956836
130.06	1858	70	2396	76	200	230	101300000	1000	0	0	-1	50	264969396
131.832	1831	72	2400	76	200	230	101300000	1000	0	0	-1	50	264981956
137.788	1862	74	2395	76	200	230	101300000	1000	0	0	-1	50	264994516
131.81	1883	70	2392	76	200	230	101300000	1000	0	0	-1	50	265007076
133.764	1884	71	2396	76	200	230	101300000	1000	0	0	-1	50	265019636
138.6	1848	75	2396	76	200	230	101300000	1000	0	0	-1	50	265032196
127.16	1870	68	2400	76	200	230	101300000	1000	0	0	-1	50	265044756
132.02	1886	70	2387	76	200	230	101300000	1000	0	0	-1	50	265057316
124.084	1852	67	2405	76	200	230	101300000	1000	0	0	-1	50	265069876
130.711	1841	71	2392	76	200	230	101300000	1000	0	0	-1	50	265082436
124.754	1862	67	2399	76	200	230	101300000	1000	0	0	-1	50	265094996
125.136	1896	66	2389	76	200	230	101300000	1000	0	0	-1	50	265107556
135.642	1833	74	2397	76	200	230	101300000	1000	0	0	-1	50	265120116
125.718	1822	69	2402	76	200	230	101300000	1000	0	0	-1	50	265132676
137.64	1860	74	2390	76	200	230	101300000	1000	0	0	-1	50	265145236
123.883	1849	67	2392	76	200	230	101300000	1000	0	0	-1	50	265157796
133.125	1875	71	2399	76	200	230	101300000	1000	0	0	-1	50	265170356
129.646	1826	71	2402	76	200	230	101300000	1000	0	0	-1	50	265182916
127.788	1852	69	2393	76	200	230	101300000	1000	0	0	-1	50	265195476
136.53	1845	74	2395	76	200	230	101300000	1000	0	0	-1	50	265208036
128.8	1840	70	2397	76	200	230	101300000	1000	0	0	-1	50	265220596
138.677	1801	77	2402	76	200	230	101300000	1000	0	0	-1	50	265233156
122.945	1835	67	2392	76	200	230	101300000	1000	0	0	-1	50	265245716
128.66	1838	70	2392	76	200	230	101300000	1000	0	0	-1	50	265258276
124.89	1810	69	2405	76	200	230	101300000	1000	0	0	-1	50	265270836
129.816	1803	72	2395	76	200	230	101300000	1000	0	0	-1	50	265283396
126.822	1838	69	2395	76	200	230	101300000	1000	0	0	-1	50	265295956
136.95	1826	75	2390	76	200	230	101300000	1000	0	0	-1	50	265308516
131.46	1878	70	2397	76	200	230	101300000	1000	0	0	-1	50	265321076
135.975	1813	75	2405	76	200	230	101300000	1000	0	0	-1	50	265333636
127.443	1847	69	2396	76	200	230	101300000	1000	0	0	-1	50	265346196
143.22	1860	77	2384	76	200	230	101300000	1000	0	0	-1	50	265358756
122.034	1849	66	2399	76	200	230	101300000	1000	0	0	-1	50	265371316
140.025	1867	75	2399	76	200	230	101300000	1000	0	0	-1	50	265383876
119.795	1843	65	2395	76	200	230	101300000	1000	0	0	-1	50	265396436
129.168	1872	69	2392	76	200	230	101300000	1000	0	0	-1	50	265408996
127.032	1896	67	2393	76	200	230	101300000	1000	0	0	-1	50	265421556
143.682	1866	77	2400	76	200	230	101300000	1000	0	0	-1	50	265434116
129.168	1872	69	2395	76	200	230	101300000	1000	0	0	-1	50	265446676
133.551	1881	71	2395	76	200	230	101300000	1000	0	0	-1	50	265459236
129.54	1905	68	2393	76	200	230	101300000	1000	0	0	-1	50	265471796
128.588	1891	68	2405	76	200	230	101300000	1000	0	0	-1	50	265484356
131.918	1858	71	2393	76	200	230	101300000	1000	0	0	-1	50	265496916
126.956	1867	68	2393	76	200	230	101300000	1000	0	0	-1	50	265509476
140.325	1871	75	2403	76	200	230	101300000	1000	0	0	-1	50	265522036
132.86	1898	70	2393	76	200	230	101300000	1000	0	0	-1	50	265534596
143.488	1888	76	2396	76	200	230	101300000	1000	0	0	-1	50	265547156
133.409	1879	71	2393	76	200	230	101300000	1000	0	0	-1	50	265559716
134.496	1868	72	2405	76	200	230	101300000	1000	0	0	-1	50	265572276
131.24	1930	68	2390	76	200	230	101300000	1000	0	0	-1	50	265584836
126.956	1867	68	2400	76	200	230	101300000	1000	0	0	-1	50	265597396
141.45	1886	75	2390	76	200	230	101300000	1000	0	0	-1	50	265609956
130.22	1915	68	2395	76	200	230	101300000	1000	0	0	-1	50	265622516
137.314	1934	71	2402	76	200	230	101300000	1000	0	0	-1	50	265635076
139.786	1889	74	2392	76	200	230	101300000	1000	0	0	-1	50	265647636
126.563	1889	67	2392	76	200	230	101300000	1000	0	0	-1	50	265660196
133.56	1855	72	2403	76	200	230	101300000	1000	0	0	-1	50	265672756
131.376	1932	68	2390	76	200	230	101300000	1000	0	0	-1	50	265685316
137.304	1907	72	2397	76	200	230	101300000	1000	0	0	-1	50	265697876
130.893	1897	69	2395	76	200	230	101300000	1000	0	0	-1	50	265710436
133.14	1902	70	2390	76	200	230	101300000	1000	0	0	-1	50	265722996
146.072	1922	76	2399	76	200	230	101300000	1000	0	0	-1	50	265735556
133.906	1886	71	2395	76	200	230	101300000	1000	0	0	-1	50	265748116
130.272	1888	69	2392	76	200	230	101300000	1000	0	0	-1	50	265760676
134.9	1900	71	2392	76	200	230	101300000	1000	0	0	-1	50	265773236
130.583	1949	67	2405	76	200	230	101300000	1000	0	0	-1	50	265785796
143.108	1883	76	2390	76	200	230	101300000	1000	0	0	-1	50	265798356
133	1900	70	2392	76	200	230	101300000	1000	0	0	-1	50	265810916
128.044	1883	68	2390	76	200	230	101300000	1000	0	0	-1	50	265823476
143.475	1913	75	2399	76	200	230	101300000	1000	0	0	-1	50	265836036
217.626	1577	138	2312	76	200	230	101300000	1000	0	0	-1	100	274381836
221.946	1563	142	2310	76	200	230	101300000	1000	0	0	-1	100	274394396
223.234	1529	146	2315	76	200	230	101300000	1000	0	0	-1	100	274406956
228.96	1590	144	2314	76	200	230	101300000	1000	0	0	-1	100	274419516
219.696	1592	138	2312	76	200	230	101300000	1000	0	0	-1	100	274432076
229.392	1593	144	2305	76	200	230	101300000	1000	0	0	-1	100	274444636
236.812	1622	146	2315	76	200	230	101300000	1000	0	0	-1	100	274457196
220.5	1575	140	2307	76	200	230	101300000	1000	0	0	-1	100	274469756
231.819	1577	147	2305	76	200	230	101300000	1000	0	0	-1	100	274482316
234.33	1605	146	2314	76	200	230	101300000	1000	0	0	-1	100	274494876
231.56	1654	140	2318	76	200	230	101300000	1000	0	0	-1	100	274507436
234.3	1650	142	2311	76	200	230	101300000	1000	0	0	-1	100	274519996
227.808	1582	144	2321	76	200	230	101300000	1000	0	0	-1	100	274532556
242.844	1652	147	2298	76	200	230	101300000	1000	0	0	-1	100	274545116
222.817	1603	139	2317	76	200	230	101300000	1000	0	0	-1	100	274557676
231.231	1617	143	2308	76	200	230	101300000	1000	0	0	-1	100	274570236
244.348	1651	148	2308	76	200	230	101300000	1000	0	0	-1	100	274582796
237.303	1683	141	2314	76	200	230	101300000	1000	0	0	-1	100	274595356
233.022	1641	142	2314	76	200	230	101300000	1000	0	0	-1	100	274607916
237.258	1614	147	2311	76	200	230	101300000	1000	0	0	-1	100	274620476
231.12	1605	144	2307	76	200	230	101300000	1000	0	0	-1	100	274633036
226.164	1604	141	2312	76	200	230	101300000	1000	0	0	-1	100	274645596
238.71	1635	146	2307	76	200	230	101300000	1000	0	0	-1	100	274658156
236.964	1612	147	2304	76	200	230	101300000	1000	0	0	-1	100	274670716
228.62	1610	142	2312	76	200	230	101300000	1000	0	0	-1	100	274683276
229.46	1639	140	2304	76	200	230	101300000	1000	0	0	-1	100	274695836
235.2	1600	147	2312	76	200	230	101300000	1000	0	0	-1	100	274708396
227.505	1569	145	2305	76	200	230	101300000	1000	0	0	-1	100	274720956
226.8	1575	144	2314	76	200	230	101300000	1000	0	0	-1	100	274733516
223.485	1585	141	2312	76	200	230	101300000	1000	0	0	-1	100	274746076
237.993	1619	147	2302	76	200	230	101300000	1000	0	0	-1	100	274758636
231.231	1573	147	2317	76	200	230	101300000	1000	0	0	-1	100	274771196
221.62	1583	140	2307	76	200	230	101300000	1000	0	0	-1	100	274783756
227.556	1548	147	2312	76	200	230	101300000	1000	0	0	-1	100	274796316
228.085	1573	145	2305	76	200	230	101300000	1000	0	0	-1	100	274808876
228.8	1600	143	2308	76	200	230	101300000	1000	0	0	-1	100	274821436
225.654	1578	143	2307	76	200	230	101300000	1000	0	0	-1	100	274833996
230.096	1576	146	2315	76	200	230	101300000	1000	0	0	-1	100	274846556
215.97	1565	138	2308	76	200	230	101300000	1000	0	0	-1	100	274859116
223.223	1561	143	2310	76	200	230	101300000	1000	0	0	-1	100	274871676
238.14	1620	147	2311	76	200	230	101300000	1000	0	0	-1	100	274884236
234.868	1654	142	2318	76	200	230	101300000	1000	0	0	-1	100	274896796
239.44	1640	146	2310	76	200	230	101300000	1000	0	0	-1	100	274909356
234.9	1620	145	2323	76	200	230	101300000	1000	0	0	-1	100	274921916
231.381	1641	141	2299	76	200	230	101300000	1000	0	0	-1	100	274934476
234.318	1594	147	2317	76	200	230	101300000	1000	0	0	-1	100	274947036
242.721	1629	149	2308	76	200	230	101300000	1000	0	0	-1	100	274959596
230.466	1623	142	2314	76	200	230	101300000	1000	0	0	-1	100	274972156
245.817	1719	143	2310	76	200	230	101300000	1000	0	0	-1	100	274984716
248.085	1665	149	2320	76	200	230	101300000	1000	0	0	-1	100	274997276
233.214	1654	141	2308	76	200	230	101300000	1000	0	0	-1	100	275009836
233.015	1607	145	2314	76	200	230	101300000	1000	0	0	-1	100	275022396
237.357	1593	149	2312	76	200	230	101300000	1000	0	0	-1	100	275034956
235.092	1644	143	2307	76	200	230	101300000	1000	0	0	-1	100	275047516
225.68	1612	140	2305	76	200	230	101300000	1000	0	0	-1	100	275060076
248.85	1659	150	2311	76	200	230	101300000	1000	0	0	-1	100	275072636
231.946	1622	143	2308	76	200	230	101300000	1000	0	0	-1	100	275085196
228.371	1597	143	2311	76	200	230	101300000	1000	0	0	-1	100	275097756
225.94	1580	143	2305	76	200	230	101300000	1000	0	0	-1	100	275110316
231.844	1556	149	2315	76	200	230	101300000	1000	0	0	-1	100	275122876
227.37	1590	143	2311	76	200	230	101300000	1000	0	0	-1	100	275135436
232.272	1613	144	2302	76	200	230	101300000	1000	0	0	-1	100	275147996
240.635	1615	149	2308	76	200	230	101300000	1000	0	0	-1	100	275160556
228.478	1609	142	2308	76	200	230	101300000	1000	0	0	-1	100	275173116
227.65	1570	145	2311	76	200	230	101300000	1000	0	0	-1	100	275185676
220.1	1550	142	2314	76	200	230	101300000	1000	0	0	-1	100	275198236
220.526	1553	142	2307	76	200	230	101300000	1000	0	0	-1	100	275210796
234.171	1593	147	2312	76	200	230	101300000	1000	0	0	-1	100	275223356
227.484	1602	142	2317	76	200	230	101300000	1000	0	0	-1	100	275235916
235.935	1605	147	2304	76	200	230	101300000	1000	0	0	-1	100	275248476
224.36	1580	142	2310	76	200	230	101300000	1000	0	0	-1	100	275261036
225.6	1600	141	2305	76	200	230	101300000	1000	0	0	-1	100	275273596
241.984	1592	152	2314	76	200	230	101300000	1000	0	0	-1	100	275286156
232.947	1629	143	2310	76	200	230	101300000	1000	0	0	-1	100	275298716
236.004	1662	142	2308	76	200	230	101300000	1000	0	0	-1	100	275311276
245.979	1629	151	2305	76	200	230	101300000	1000	0	0	-1	100	275323836
231.034	1627	142	2320	76	200	230	101300000	1000	0	0	-1	100	275336396
228.42	1620	141	2305	76	200	230	101300000	1000	0	0	-1	100	275348956
233.334	1566	149	2320	76	200	230	101300000	1000	0	0	-1	100	275361516
245.808	1707	144	2301	76	200	230	101300000	1000	0	0	-1	100	275374076
230.516	1612	143	2315	76	200	230	101300000	1000	0	0	-1	100	275386636
244.461	1663	147	2305	76	200	230	101300000	1000	0	0	-1	100	275399196
235.807	1649	143	2308	76	200	230	101300000	1000	0	0	-1	100	275411756
227.64	1626	140	2310	76	200	230	101300000	1000	0	0	-1	100	275424316
229.515	1605	143	2314	76	200	230	101300000	1000	0	0	-1	100	275436876
237.552	1616	147	2304	76	200	230	101300000	1000	0	0	-1	100	275449436
233.874	1647	142	2315	76	200	230	101300000	1000	0	0	-1	100	275461996
228.62	1610	142	2307	76	200	230	101300000	1000	0	0	-1	100	275474556
224.754	1594	141	2304	76	200	230	101300000	1000	0	0	-1	100	275487116
236.466	1566	151	2301	76	200	230	101300000	1000	0	0	-1	100	275499676
225.654	1578	143	2312	76	200	230	101300000	1000	0	0	-1	100	275512236
219.52	1568	140	2299	76	200	230	101300000	1000	0	0	-1	100	275524796
231.855	1599	145	2312	76	200	230	101300000	1000	0	0	-1	100	275537356
229.086	1602	143	2302	76	200	230	101300000	1000	0	0	-1	100	275549916
227.768	1604	142	2311	76	200	230	101300000	1000	0	0	-1	100	275562476
232.887	1563	149	2311	76	200	230	101300000	1000	0	0	-1	100	275575036
221.078	1546	143	2296	76	200	230	101300000	1000	0	0	-1	100	275587596
225.922	1591	142	2305	76	200	230	101300000	1000	0	0	-1	100	275600156
242.1	1614	150	2312	76	200	230	101300000	1000	0	0	-1	100	275612716
229.372	1604	143	2311	76	200	230	101300000	1000	0	0	-1	100	275625276
277.296	1272	218	2159	76	200	230	101300000	1000	0	0	-1	150	288849796
293.706	1323	222	2167	76	200	230	101300000	1000	0	0	-1	150	288862356
281.005	1307	215	2151	76	200	230	101300000	1000	0	0	-1	150	288874916
297.696	1329	224	2159	76	200	230	101300000	1000	0	0	-1	150	288887476
296.916	1362	218	2153	76	200	230	101300000	1000	0	0	-1	150	288900036
295.698	1326	223	2166	76	200	230	101300000	1000	0	0	-1	150	288912596
284.708	1306	218	2154	76	200	230	101300000	1000	0	0	-1	150	288925156
278.681	1261	221	2160	76	200	230	101300000	1000	0	0	-1	150	288937716
290.394	1314	221	2160	76	200	230	101300000	1000	0	0	-1	150	288950276
279.444	1276	219	2153	76	200	230	101300000	1000	0	0	-1	150	288962836
278.388	1254	222	2169	76	200	230	101300000	1000	0	0	-1	150	288975396
276.48	1280	216	2153	76	200	230	101300000	1000	0	0	-1	150	288987956
295.2	1312	225	2159	76	200	230	101300000	1000	0	0	-1	150	289000516
284.053	1309	217	2154	76	200	230	101300000	1000	0	0	-1	150	289013076
292.584	1336	219	2163	76	200	230	101300000	1000	0	0	-1	150	289025636
290.7	1292	225	2159	76	200	230	101300000	1000	0	0	-1	150	289038196
292.12	1340	218	2162	76	200	230	101300000	1000	0	0	-1	150	289050756
284.48	1270	224	2159	76	200	230	101300000	1000	0	0	-1	150	289063316
285.362	1309	218	2153	76	200	230	101300000	1000	0	0	-1	150	289075876
271.48	1234	220	2157	76	200	230	101300000	1000	0	0	-1	150	289088436
279.72	1295	216	2159	76	200	230	101300000	1000	0	0	-1	150	289100996
278.604	1278	218	2169	76	200	230	101300000	1000	0	0	-1	150	289113556
295.477	1337	221	2150	76	200	230	101300000	1000	0	0	-1	150	289126116
280.758	1282	219	2159	76	200	230	101300000	1000	0	0	-1	150	289138676
303.3	1348	225	2151	76	200	230	101300000	1000	0	0	-1	150	289151236
284.015	1321	215	2166	76	200	230	101300000	1000	0	0	-1	150	289163796
299.925	1333	225	2156	76	200	230	101300000	1000	0	0	-1	150	289176356
283.182	1299	218	2160	76	200	230	101300000	1000	0	0	-1	150	289188916
280.06	1273	220	2159	76	200	230	101300000	1000	0	0	-1	150	289201476
286.637	1297	221	2154	76	200	230	101300000	1000	0	0	-1	150	289214036
272.064	1248	218	2167	76	200	230	101300000	1000	0	0	-1	150	289226596
293.738	1294	227	2156	76	200	230	101300000	1000	0	0	-1	150	289239156
279.713	1289	217	2160	76	200	230	101300000	1000	0	0	-1	150	289251716
296.361	1341	221	2153	76	200	230	101300000	1000	0	0	-1	150	289264276
281.415	1285	219	2163	76	200	230	101300000	1000	0	0	-1	150	289276836
302.834	1358	223	2157	76	200	230	101300000	1000	0	0	-1	150	289289396
282.528	1308	216	2163	76	200	230	101300000	1000	0	0	-1	150	289301956
295.698	1326	223	2159	76	200	230	101300000	1000	0	0	-1	150	289314516
275.334	1263	218	2154	76	200	230	101300000	1000	0	0	-1	150	289327076
293.022	1314	223	2154	76	200	230	101300000	1000	0	0	-1	150	289339636
274.68	1260	218	2160	76	200	230	101300000	1000	0	0	-1	150	289352196
282.095	1265	223	2163	76	200	230	101300000	1000	0	0	-1	150	289364756
278.386	1277	218	2151	76	200	230	101300000	1000	0	0	-1	150	289377316
294.583	1321	223	2162	76	200	230	101300000	1000	0	0	-1	150	289389876
282.968	1304	217	2156	76	200	230	101300000	1000	0	0	-1	150	289402436
292.825	1325	221	2162	76	200	230	101300000	1000	0	0	-1	150	289414996
294.117	1343	219	2156	76	200	230	101300000	1000	0	0	-1	150	289427556
286	1300	220	2163	76	200	230	101300000	1000	0	0	-1	150	289440116
281.449	1297	217	2156	76	200	230	101300000	1000	0	0	-1	150	289452676
281.333	1273	221	2157	76	200	230	101300000	1000	0	0	-1	150	289465236
278.64	1290	216	2167	76	200	230	101300000	1000	0	0	-1	150	289477796
279.276	1258	222	2159	76	200	230	101300000	1000	0	0	-1	150	289490356
276.48	1280	216	2160	76	200	230	101300000	1000	0	0	-1	150	289502916
286.272	1278	224	2154	76	200	230	101300000	1000	0	0	-1	150	289515476
284.272	1304	218	2156	76	200	230	101300000	1000	0	0	-1	150	289528036
289.856	1294	224	2157	76	200	230	101300000	1000	0	0	-1	150	289540596
289.286	1327	218	2165	76	200	230	101300000	1000	0	0	-1	150	289553156
292.576	1312	223	2159	76	200	230	101300000	1000	0	0	-1	150	289565716
287.978	1321	218	2165	76	200	230	101300000	1000	0	0	-1	150	289578276
279.642	1254	223	2151	76	200	230	101300000	1000	0	0	-1	150	289590836
286.671	1309	219	2162	76	200	230	101300000	1000	0	0	-1	150	289603396
272.5	1250	218	2165	76	200	230	101300000	1000	0	0	-1	150	289615956
286.824	1292	222	2159	76	200	230	101300000	1000	0	0	-1	150	289628516
272.335	1255	217	2157	76	200	230	101300000	1000	0	0	-1	150	289641076
297.259	1333	223	2151	76	200	230	101300000	1000	0	0	-1	150	289653636
281.664	1304	216	2163	76	200	230	101300000	1000	0	0	-1	150	289666196
301.476	1358	222	2157	76	200	230	101300000	1000	0	0	-1	150	289678756
288.176	1328	217	2159	76	200	230	101300000	1000	0	0	-1	150	289691316
290.594	1333	218	2157	76	200	230	101300000	1000	0	0	-1	150	289703876
287.268	1294	222	2151	76	200	230	101300000	1000	0	0	-1	150	289716436
284.771	1277	223	2153	76	200	230	101300000	1000	0	0	-1	150	289728996
281.82	1281	220	2154	76	200	230	101300000	1000	0	0	-1	150	289741556
273.969	1251	219	2157	76	200	230	101300000	1000	0	0	-1	150	289754116
287.447	1289	223	2153	76	200	230	101300000	1000	0	0	-1	150	289766676
293.022	1338	219	2154	76	200	230	101300000	1000	0	0	-1	150	289779236
297.705	1335	223	2156	76	200	230	101300000	1000	0	0	-1	150	289791796
280.364	1292	217	2163	76	200	230	101300000	1000	0	0	-1	150	289804356
304.395	1365	223	2156	76	200	230	101300000	1000	0	0	-1	150	289816916
281.656	1292	218	2166	76	200	230	101300000	1000	0	0	-1	150	289829476
285.336	1321	216	2153	76	200	230	101300000	1000	0	0	-1	150	289842036
279.9	1244	225	2159	76	200	230	101300000	1000	0	0	-1	150	289854596
284.206	1286	221	2162	76	200	230	101300000	1000	0	0	-1	150	289867156
273.154	1253	218	2160	76	200	230	101300000	1000	0	0	-1	150	289879716
284.175	1263	225	2159	76	200	230	101300000	1000	0	0	-1	150	289892276
276.024	1272	217	2153	76	200	230	101300000	1000	0	0	-1	150	289904836
295.456	1319	224	2163	76	200	230	101300000	1000	0	0	-1	150	289917396
285.144	1308	218	2157	76	200	230	101300000	1000	0	0	-1	150	289929956
295.698	1338	221	2162	76	200	230	101300000	1000	0	0	-1	150	289942516
291.684	1338	218	2154	76	200	230	101300000	1000	0	0	-1	150	289955076
291.051	1329	219	2156	76	200	230	101300000	1000	0	0	-1	150	289967636
282.828	1274	222	2151	76	200	230	101300000	1000	0	0	-1	150	289980196
284.919	1301	219	2159	76	200	230	101300000	1000	0	0	-1	150	289992756
284.826	1283	222	2160	76	200	230	101300000	1000	0	0	-1	150	290005316
280.147	1291	217	2154	76	200	230	101300000	1000	0	0	-1	150	290017876
279.565	1265	221	2156	76	200	230	101300000	1000	0	0	-1	150	290030436
298.546	1321	226	2156	76	200	230	101300000	1000	0	0	-1	150	290042996
282.096	1306	216	2163	76	200	230	101300000	1000	0	0	-1	150	290055556
294.8	1340	220	2153	76	200	230	101300000	1000	0	0	-1	150	290068116
287.496	1331	216	2165	76	200	230	101300000	1000	0	0	-1	150	290080676
290.346	1302	223	2153	76	200	230	101300000	1000	0	0	-1	150	290093236
282.828	962	294	2081	76	200	230	101300000	1000	0	0	-1	200	305587916
267.003	899	297	2078	76	200	230	101300000	1000	0	0	-1	200	305600476
278.369	931	299	2074	76	200	230	101300000	1000	0	0	-1	200	305613036
280.8	936	300	2083	76	200	230	101300000	1000	0	0	-1	200	305625596
284.517	939	303	2074	76	200	230	101300000	1000	0	0	-1	200	305638156
283.276	938	302	2083	76	200	230	101300000	1000	0	0	-1	200	305650716
272.67	894	305	2077	76	200	230	101300000	1000	0	0	-1	200	305663276
260.452	874	298	2077	76	200	230	101300000	1000	0	0	-1	200	305675836
256.04	865	296	2075	76	200	230	101300000	1000	0	0	-1	200	305688396
266.923	911	293	2078	76	200	230	101300000	1000	0	0	-1	200	305700956
262.55	890	295	2080	76	200	230	101300000	1000	0	0	-1	200	305713516
290.248	994	292	2074	76	200	230	101300000	1000	0	0	-1	200	305726076
289.69	982	295	2085	76	200	230	101300000	1000	0	0	-1	200	305738636
285.545	955	299	2074	76	200	230	101300000	1000	0	0	-1	200	305751196
280.833	933	301	2077	76	200	230	101300000	1000	0	0	-1	200	305763756
267.306	894	299	2085	76	200	230	101300000	1000	0	0	-1	200	305776316
276.415	937	295	2077	76	200	230	101300000	1000	0	0	-1	200	305788876
292.236	994	294	2091	76	200	230	101300000	1000	0	0	-1	200	305801436
288.236	964	299	2065	76	200	230	101300000	1000	0	0	-1	200	305813996
282.24	960	294	2078	76	200	230	101300000	1000	0	0	-1	200	305826556
301.35	1025	294	2074	76	200	230	101300000	1000	0	0	-1	200	305839116
275.772	938	294	2081	76	200	230	101300000	1000	0	0	-1	200	305851676
277.648	938	296	2081	76	200	230	101300000	1000	0	0	-1	200	305864236
281.358	957	294	2083	76	200	230	101300000	1000	0	0	-1	200	305876796
272.616	921	296	2075	76	200	230	101300000	1000	0	0	-1	200	305889356
298.782	1006	297	2078	76	200	230	101300000	1000	0	0	-1	200	305901916
285.9	953	300	2081	76	200	230	101300000	1000	0	0	-1	200	305914476
297.689	989	301	2078	76	200	230	101300000	1000	0	0	-1	200	305927036
310.154	1027	302	2078	76	200	230	101300000	1000	0	0	-1	200	305939596
285.175	935	305	2077	76	200	230	101300000	1000	0	0	-1	200	305952156
283.024	931	304	2074	76	200	230	101300000	1000	0	0	-1	200	305964716
282.699	933	303	2074	76	200	230	101300000	1000	0	0	-1	200	305977276
282.672	936	302	2075	76	200	230	101300000	1000	0	0	-1	200	305989836
287.33	974	295	2083	76	200	230	101300000	1000	0	0	-1	200	306002396
302.232	1028	294	2075	76	200	230	101300000	1000	0	0	-1	200	306014956
292.345	991	295	2088	76	200	230	101300000	1000	0	0	-1	200	306027516
291.755	989	295	2069	76	200	230	101300000	1000	0	0	-1	200	306040076
282.15	950	297	2075	76	200	230	101300000	1000	0	0	-1	200	306052636
270.882	909	298	2083	76	200	230	101300000	1000	0	0	-1	200	306065196
287.1	957	300	2080	76	200	230	101300000	1000	0	0	-1	200	306077756
304.818	1006	303	2081	76	200	230	101300000	1000	0	0	-1	200	306090316
297.616	979	304	2071	76	200	230	101300000	1000	0	0	-1	200	306102876
295.711	989	299	2080	76	200	230	101300000	1000	0	0	-1	200	306115436
301.455	1015	297	2071	76	200	230	101300000	1000	0	0	-1	200	306127996
281.358	957	294	2084	76	200	230	101300000	1000	0	0	-1	200	306140556
282.315	957	295	2074	76	200	230	101300000	1000	0	0	-1	200	306153116
277.3	940	295	2075	76	200	230	101300000	1000	0	0	-1	200	306165676
270.976	928	292	2074	76	200	230	101300000	1000	0	0	-1	200	306178236
296.352	1008	294	2075	76	200	230	101300000	1000	0	0	-1	200	306190796
280.608	948	296	2081	76	200	230	101300000	1000	0	0	-1	200	306203356
303.3	1011	300	2075	76	200	230	101300000	1000	0	0	-1	200	306215916
309.9	1033	300	2080	76	200	230	101300000	1000	0	0	-1	200	306228476
278.034	933	298	2072	76	200	230	101300000	1000	0	0	-1	200	306241036
281.06	940	299	2075	76	200	230	101300000	1000	0	0	-1	200	306253596
282.338	938	301	2084	76	200	230	101300000	1000	0	0	-1	200	306266156
276.874	926	299	2075	76	200	230	101300000	1000	0	0	-1	200	306278716
296.786	986	301	2084	76	200	230	101300000	1000	0	0	-1	200	306291276
311.664	1032	302	2066	76	200	230	101300000	1000	0	0	-1	200	306303836
295.96	980	302	2077	76	200	230	101300000	1000	0	0	-1	200	306316396
301.182	994	303	2063	76	200	230	101300000	1000	0	0	-1	200	306328956
282.555	945	299	2077	76	200	230	101300000	1000	0	0	-1	200	306341516
272.987	913	299	2077	76	200	230	101300000	1000	0	0	-1	200	306354076
285.186	957	298	2072	76	200	230	101300000	1000	0	0	-1	200	306366636
294.814	986	299	2078	76	200	230	101300000	1000	0	0	-1	200	306379196
295.412	988	299	2075	76	200	230	101300000	1000	0	0	-1	200	306391756
299.796	996	301	2077	76	200	230	101300000	1000	0	0	-1	200	306404316
295.711	989	299	2077	76	200	230	101300000	1000	0	0	-1	200	306416876
290.7	969	300	2081	76	200	230	101300000	1000	0	0	-1	200	306429436
280.77	955	294	2071	76	200	230	101300000	1000	0	0	-1	200	306441996
278.967	933	299	2080	76	200	230	101300000	1000	0	0	-1	200	306454556
277.101	933	297	2074	76	200	230	101300000	1000	0	0	-1	200	306467116
295.295	1001	295	2075	76	200	230	101300000	1000	0	0	-1	200	306479676
282.315	957	295	2081	76	200	230	101300000	1000	0	0	-1	200	306492236
301.49	1022	295	2074	76	200	230	101300000	1000	0	0	-1	200	306504796
303.841	1037	293	2084	76	200	230	101300000	1000	0	0	-1	200	306517356
274.055	929	295	2071	76	200	230	101300000	1000	0	0	-1	200	306529916
281.435	935	301	2074	76	200	230	101300000	1000	0	0	-1	200	306542476
281.736	936	301	2090	76	200	230	101300000	1000	0	0	-1	200	306555036
281.487	929	303	2078	76	200	230	101300000	1000	0	0	-1	200	306567596
299.886	993	302	2080	76	200	230	101300000	1000	0	0	-1	200	306580156
303.408	1008	301	2069	76	200	230	101300000	1000	0	0	-1	200	306592716
295.122	974	303	2075	76	200	230	101300000	1000	0	0	-1	200	306605276
296.808	996	298	2071	76	200	230	101300000	1000	0	0	-1	200	306617836
274.458	921	298	2080	76	200	230	101300000	1000	0	0	-1	200	306630396
271.105	919	295	2075	76	200	230	101300000	1000	0	0	-1	200	306642956
285.474	971	294	2072	76	200	230	101300000	1000	0	0	-1	200	306655516
288.414	981	294	2071	76	200	230	101300000	1000	0	0	-1	200	306668076
291.264	984	296	2080	76	200	230	101300000	1000	0	0	-1	200	306680636
289.1	980	295	2078	76	200	230	101300000	1000	0	0	-1	200	306693196
287.712	972	296	2072	76	200	230	101300000	1000	0	0	-1	200	306705756
281.725	955	295	2078	76	200	230	101300000	1000	0	0	-1	200	306718316
278.185	943	295	2077	76	200	230	101300000	1000	0	0	-1	200	306730876
269.399	901	299	2071	76	200	230	101300000	1000	0	0	-1	200	306743436
273.914	907	302	2080	76	200	230	101300000	1000	0	0	-1	200	306755996
294.3	981	300	2072	76	200	230	101300000	1000	0	0	-1	200	306768556
277.472	928	299	2084	76	200	230	101300000	1000	0	0	-1	200	306781116
297.804	996	299	2069	76	200	230	101300000	1000	0	0	-1	200	306793676
302.216	1021	296	2075	76	200	230	101300000	1000	0	0	-1	200	306806236
274.096	926	296	2066	76	200	230	101300000	1000	0	0	-1	200	306818796
277.89	942	295	2074	76	200	230	101300000	1000	0	0	-1	200	306831356
254.448	684	372	2047	76	200	230	101300000	1000	0	0	-1	250	319763436
277.512	746	372	2047	76	200	230	101300000	1000	0	0	-1	250	319775996
281.232	756	372	2044	76	200	230	101300000	1000	0	0	-1	250	319788556
275.632	749	368	2041	76	200	230	101300000	1000	0	0	-1	250	319801116
274.134	749	366	2050	76	200	230	101300000	1000	0	0	-1	250	319813676
299.892	804	373	2040	76	200	230	101300000	1000	0	0	-1	250	319826236
259.469	707	367	2052	76	200	230	101300000	1000	0	0	-1	250	319838796
262.922	703	374	2040	76	200	230	101300000	1000	0	0	-1	250	319851356
282.59	770	367	2044	76	200	230	101300000	1000	0	0	-1	250	319863916
298.078	797	374	2041	76	200	230	101300000	1000	0	0	-1	250	319876476
279.258	763	366	2049	76	200	230	101300000	1000	0	0	-1	250	319889036
284.599	763	373	2044	76	200	230	101300000	1000	0	0	-1	250	319901596
301.392	819	368	2044	76	200	230	101300000	1000	0	0	-1	250	319914156
259.656	698	372	2049	76	200	230	101300000	1000	0	0	-1	250	319926716
264.252	722	366	2046	76	200	230	101300000	1000	0	0	-1	250	319939276
281.976	758	372	2040	76	200	230	101300000	1000	0	0	-1	250	319951836
287.31	785	366	2049	76	200	230	101300000	1000	0	0	-1	250	319964396
280.874	751	374	2043	76	200	230	101300000	1000	0	0	-1	250	319976956
278.495	763	365	2050	76	200	230	101300000	1000	0	0	-1	250	319989516
301.92	816	370	2041	76	200	230	101300000	1000	0	0	-1	250	320002076
255.065	695	367	2044	76	200	230	101300000	1000	0	0	-1	250	320014636
255.5	700	365	2043	76	200	230	101300000	1000	0	0	-1	250	320027196
281.988	756	373	2044	76	200	230	101300000	1000	0	0	-1	250	320039756
283.446	783	362	2055	76	200	230	101300000	1000	0	0	-1	250	320052316
276.012	748	369	2041	76	200	230	101300000	1000	0	0	-1	250	320064876
276.718	754	367	2056	76	200	230	101300000	1000	0	0	-1	250	320077436
294.476	809	364	2036	76	200	230	101300000	1000	0	0	-1	250	320089996
254.331	693	367	2044	76	200	230	101300000	1000	0	0	-1	250	320102556
257.103	693	371	2058	76	200	230	101300000	1000	0	0	-1	250	320115116
276.696	756	366	2047	76	200	230	101300000	1000	0	0	-1	250	320127676
289.85	775	374	2056	76	200	230	101300000	1000	0	0	-1	250	320140236
278.208	756	368	2034	76	200	230	101300000	1000	0	0	-1	250	320152796
272.304	744	366	2049	76	200	230	101300000	1000	0	0	-1	250	320165356
297.542	802	371	2041	76	200	230	101300000	1000	0	0	-1	250	320177916
252.496	688	367	2049	76	200	230	101300000	1000	0	0	-1	250	320190476
261.1	700	373	2049	76	200	230	101300000	1000	0	0	-1	250	320203036
275.964	754	366	2043	76	200	230	101300000	1000	0	0	-1	250	320215596
278.186	758	367	2046	76	200	230	101300000	1000	0	0	-1	250	320228156
276.766	742	373	2043	76	200	230	101300000	1000	0	0	-1	250	320240716
274.866	751	366	2052	76	200	230	101300000	1000	0	0	-1	250	320253276
298.344	802	372	2046	76	200	230	101300000	1000	0	0	-1	250	320265836
256.2	700	366	2050	76	200	230	101300000	1000	0	0	-1	250	320278396
261.75	698	375	2041	76	200	230	101300000	1000	0	0	-1	250	320290956
273.364	751	364	2049	76	200	230	101300000	1000	0	0	-1	250	320303516
281.218	758	371	2047	76	200	230	101300000	1000	0	0	-1	250	320316076
270.465	741	365	2046	76	200	230	101300000	1000	0	0	-1	250	320328636
281.996	754	374	2049	76	200	230	101300000	1000	0	0	-1	250	320341196
300.76	824	365	2046	76	200	230	101300000	1000	0	0	-1	250	320353756
262.922	703	374	2049	76	200	230	101300000	1000	0	0	-1	250	320366316
262.405	715	367	2047	76	200	230	101300000	1000	0	0	-1	250	320378876
282	752	375	2046	76	200	230	101300000	1000	0	0	-1	250	320391436
287.04	780	368	2049	76	200	230	101300000	1000	0	0	-1	250	320403996
277.87	751	370	2044	76	200	230	101300000	1000	0	0	-1	250	320416556
276.351	753	367	2055	76	200	230	101300000	1000	0	0	-1	250	320429116
299.839	817	367	2043	76	200	230	101300000	1000	0	0	-1	250	320441676
263.41	710	371	2046	76	200	230	101300000	1000	0	0	-1	250	320454236
263.856	717	368	2044	76	200	230	101300000	1000	0	0	-1	250	320466796
283.853	761	373	2046	76	200	230	101300000	1000	0	0	-1	250	320479356
283.691	773	367	2059	76	200	230	101300000	1000	0	0	-1	250	320491916
279.72	756	370	2037	76	200	230	101300000	1000	0	0	-1	250	320504476
280.809	761	369	2059	76	200	230	101300000	1000	0	0	-1	250	320517036
302.128	821	368	2037	76	200	230	101300000	1000	0	0	-1	250	320529596
263.004	707	372	2052	76	200	230	101300000	1000	0	0	-1	250	320542156
259.407	703	369	2056	76	200	230	101300000	1000	0	0	-1	250	320554716
269.328	744	362	2050	76	200	230	101300000	1000	0	0	-1	250	320567276
269.306	722	373	2052	76	200	230	101300000	1000	0	0	-1	250	320579836
276.368	751	368	2043	76	200	230	101300000	1000	0	0	-1	250	320592396
279.624	764	366	2052	76	200	230	101300000	1000	0	0	-1	250	320604956
296.484	797	372	2046	76	200	230	101300000	1000	0	0	-1	250	320617516
262.788	718	366	2053	76	200	230	101300000	1000	0	0	-1	250	320630076
260.145	705	369	2050	76	200	230	101300000	1000	0	0	-1	250	320642636
271.58	734	370	2043	76	200	230	101300000	1000	0	0	-1	250	320655196
259.86	710	366	2044	76	200	230	101300000	1000	0	0	-1	250	320667756
276.024	744	371	2050	76	200	230	101300000	1000	0	0	-1	250	320680316
279.258	763	366	2050	76	200	230	101300000	1000	0	0	-1	250	320692876
286.041	771	371	2047	76	200	230	101300000	1000	0	0	-1	250	320705436
268.263	727	369	2050	76	200	230	101300000	1000	0	0	-1	250	320717996
262.219	703	373	2047	76	200	230	101300000	1000	0	0	-1	250	320730556
271.56	744	365	2046	76	200	230	101300000	1000	0	0	-1	250	320743116
264.792	708	374	2052	76	200	230	101300000	1000	0	0	-1	250	320755676
277.452	756	367	2043	76	200	230	101300000	1000	0	0	-1	250	320768236
283.65	775	366	2052	76	200	230	101300000	1000	0	0	-1	250	320780796
280.476	756	371	2047	76	200	230	101300000	1000	0	0	-1	250	320793356
272.314	734	371	2052	76	200	230	101300000	1000	0	0	-1	250	320805916
262.08	720	364	2047	76	200	230	101300000	1000	0	0	-1	250	320818476
262.405	715	367	2046	76	200	230	101300000	1000	0	0	-1	250	320831036
255.878	686	373	2056	76	200	230	101300000	1000	0	0	-1	250	320843596
269.73	729	370	2046	76	200	230	101300000	1000	0	0	-1	250	320856156
277.452	756	367	2061	76	200	230	101300000	1000	0	0	-1	250	320868716
267.156	724	369	2041	76	200	230	101300000	1000	0	0	-1	250	320881276
263.41	710	371	2046	76	200	230	101300000	1000	0	0	-1	250	320893836
244.854	669	366	2036	76	200	230	101300000	1000	0	0	-1	250	320906396
270.474	739	366	2050	76	200	230	101300000	1000	0	0	-1	250	320918956
263.41	710	371	2058	76	200	230	101300000	1000	0	0	-1	250	320931516
295.65	810	365	2037	76	200	230	101300000	1000	0	0	-1	250	320944076
294.093	797	369	2055	76	200	230	101300000	1000	0	0	-1	250	320956636
283.728	771	368	2040	76	200	230	101300000	1000	0	0	-1	250	320969196
286.994	782	367	2050	76	200	230	101300000	1000	0	0	-1	250	320981756
271.952	739	368	2052	76	200	230	101300000	1000	0	0	-1	250	320994316
262.435	719	365	2053	76	200	230	101300000	1000	0	0	-1	250	321006876
136.35	303	450	1904	76	200	230	101300000	1000	0	0	-1	300	343820276
132.455	295	449	1911	76	200	230	101300000	1000	0	0	-1	300	343832836
171.325	385	445	1898	76	200	230	101300000	1000	0	0	-1	300	343845396
170.818	383	446	1913	76	200	230	101300000	1000	0	0	-1	300	343857956
162.06	365	444	1898	76	200	230	101300000	1000	0	0	-1	300	343870516
152.086	341	446	1891	76	200	230	101300000	1000	0	0	-1	300	343883076
149.856	336	446	1894	76	200	230	101300000	1000	0	0	-1	300	343895636
173.25	385	450	1899	76	200	230	101300000	1000	0	0	-1	300	343908196
180.238	397	454	1907	76	200	230	101300000	1000	0	0	-1	300	343920756
170.856	378	452	1901	76	200	230	101300000	1000	0	0	-1	300	343933316
160.912	356	452	1901	76	200	230	101300000	1000	0	0	-1	300	343945876
149.966	334	449	1898	76	200	230	101300000	1000	0	0	-1	300	343958436
169.342	373	454	1899	76	200	230	101300000	1000	0	0	-1	300	343970996
174.195	395	441	1899	76	200	230	101300000	1000	0	0	-1	300	343983556
161.535	363	445	1888	76	200	230	101300000	1000	0	0	-1	300	343996116
154.456	344	449	1905	76	200	230	101300000	1000	0	0	-1	300	344008676
158.097	349	453	1902	76	200	230	101300000	1000	0	0	-1	300	344021236
169.5	375	452	1896	76	200	230	101300000	1000	0	0	-1	300	344033796
173.94	390	446	1914	76	200	230	101300000	1000	0	0	-1	300	344046356
167.696	376	446	1888	76	200	230	101300000	1000	0	0	-1	300	344058916
156.897	351	447	1895	76	200	230	101300000	1000	0	0	-1	300	344071476
174.44	392	445	1898	76	200	230	101300000	1000	0	0	-1	300	344084036
165.75	375	442	1892	76	200	230	101300000	1000	0	0	-1	300	344096596
154.86	348	445	1907	76	200	230	101300000	1000	0	0	-1	300	344109156
152.048	344	442	1896	76	200	230	101300000	1000	0	0	-1	300	344121716
132.312	298	444	1902	76	200	230	101300000	1000	0	0	-1	300	344134276
146.744	332	442	1896	76	200	230	101300000	1000	0	0	-1	300	344146836
153.624	346	444	1895	76	200	230	101300000	1000	0	0	-1	300	344159396
146.076	329	444	1901	76	200	230	101300000	1000	0	0	-1	300	344171956
166.125	375	443	1889	76	200	230	101300000	1000	0	0	-1	300	344184516
151.506	342	443	1901	76	200	230	101300000	1000	0	0	-1	300	344197076
159.562	361	442	1904	76	200	230	101300000	1000	0	0	-1	300	344209636
170.435	383	445	1889	76	200	230	101300000	1000	0	0	-1	300	344222196
154.956	349	444	1908	76	200	230	101300000	1000	0	0	-1	300	344234756
165.466	371	446	1888	76	200	230	101300000	1000	0	0	-1	300	344247316
146.734	329	446	1895	76	200	230	101300000	1000	0	0	-1	300	344259876
150.516	339	444	1905	76	200	230	101300000	1000	0	0	-1	300	344272436
172.215	387	445	1889	76	200	230	101300000	1000	0	0	-1	300	344284996
168.596	373	452	1905	76	200	230	101300000	1000	0	0	-1	300	344297556
170.478	378	451	1894	76	200	230	101300000	1000	0	0	-1	300	344310116
171.967	383	449	1895	76	200	230	101300000	1000	0	0	-1	300	344322676
169.1	380	445	1898	76	200	230	101300000	1000	0	0	-1	300	344335236
206.514	462	447	1889	76	200	230	101300000	1000	0	0	-1	300	344347796
209.568	472	444	1898	76	200	230	101300000	1000	0	0	-1	300	344360356
204.24	460	444	1896	76	200	230	101300000	1000	0	0	-1	300	344372916
203.81	458	445	1896	76	200	230	101300000	1000	0	0	-1	300	344385476
207.815	467	445	1898	76	200	230	101300000	1000	0	0	-1	300	344398036
233.258	523	446	1885	76	200	230	101300000	1000	0	0	-1	300	344410596
236.91	530	447	1901	76	200	230	101300000	1000	0	0	-1	300	344423156
209.62	470	446	1886	76	200	230	101300000	1000	0	0	-1	300	344435716
219.83	494	445	1891	76	200	230	101300000	1000	0	0	-1	300	344448276
226.505	509	445	1910	76	200	230	101300000	1000	0	0	-1	300	344460836
237.54	535	444	1891	76	200	230	101300000	1000	0	0	-1	300	344473396
248.422	557	446	1902	76	200	230	101300000	1000	0	0	-1	300	344485956
214.592	479	448	1892	76	200	230	101300000	1000	0	0	-1	300	344498516
224.949	501	449	1894	76	200	230	101300000	1000	0	0	-1	300	344511076
233.1	518	450	1899	76	200	230	101300000	1000	0	0	-1	300	344523636
217.382	482	451	1891	76	200	230	101300000	1000	0	0	-1	300	344536196
217.44	480	453	1898	76	200	230	101300000	1000	0	0	-1	300	344548756
193.908	429	452	1892	76	200	230	101300000	1000	0	0	-1	300	344561316
166.95	371	450	1895	76	200	230	101300000	1000	0	0	-1	300	344573876
183.752	412	446	1901	76	200	230	101300000	1000	0	0	-1	300	344586436
115.062	254	453	1880	76	200	230	101300000	1000	0	0	-1	300	344598996
121.408	271	448	1901	76	200	230	101300000	1000	0	0	-1	300	344611556
114.108	257	444	1886	76	200	230	101300000	1000	0	0	-1	300	344624116
117.744	264	446	1891	76	200	230	101300000	1000	0	0	-1	300	344636676
139.216	308	452	1908	76	200	230	101300000	1000	0	0	-1	300	344649236
124.476	276	451	1888	76	200	230	101300000	1000	0	0	-1	300	344661796
114.408	252	454	1902	76	200	230	101300000	1000	0	0	-1	300	344674356
143.04	320	447	1892	76	200	230	101300000	1000	0	0	-1	300	344686916
148.964	334	446	1892	76	200	230	101300000	1000	0	0	-1	300	344699476
159.132	356	447	1901	76	200	230	101300000	1000	0	0	-1	300	344712036
158.85	353	450	1888	76	200	230	101300000	1000	0	0	-1	300	344724596
139.992	307	456	1898	76	200	230	101300000	1000	0	0	-1	300	344737156
144	320	450	1894	76	200	230	101300000	1000	0	0	-1	300	344749716
161.006	361	446	1895	76	200	230	101300000	1000	0	0	-1	300	344762276
164.28	370	444	1898	76	200	230	101300000	1000	0	0	-1	300	344774836
167.832	378	444	1885	76	200	230	101300000	1000	0	0	-1	300	344787396
153.424	344	446	1899	76	200	230	101300000	1000	0	0	-1	300	344799956
157.599	351	449	1899	76	200	230	101300000	1000	0	0	-1	300	344812516
179.6	400	449	1889	76	200	230	101300000	1000	0	0	-1	300	344825076
165.066	366	451	1908	76	200	230	101300000	1000	0	0	-1	300	344837636
155.008	346	448	1888	76	200	230	101300000	1000	0	0	-1	300	344850196
133.802	298	449	1888	76	200	230	101300000	1000	0	0	-1	300	344862756
130.464	288	453	1892	76	200	230	101300000	1000	0	0	-1	300	344875316
163.894	361	454	1889	76	200	230	101300000	1000	0	0	-1	300	344887876
168.596	373	452	1899	76	200	230	101300000	1000	0	0	-1	300	344900436
156.003	349	447	1896	76	200	230	101300000	1000	0	0	-1	300	344912996
151.302	334	453	1898	76	200	230	101300000	1000	0	0	-1	300	344925556
202.048	448	451	1891	76	200	230	101300000	1000	0	0	-1	300	344938116
235.492	521	452	1891	76	200	230	101300000	1000	0	0	-1	300	344950676
235.873	523	451	1895	76	200	230	101300000	1000	0	0	-1	300	344963236
224.147	497	451	1882	76	200	230	101300000	1000	0	0	-1	300	344975796
212.8	475	448	1898	76	200	230	101300000	1000	0	0	-1	300	344988356
220.05	489	450	1896	76	200	230	101300000	1000	0	0	-1	300	345000916
235.492	521	452	1886	76	200	230	101300000	1000	0	0	-1	300	345013476
226.135	497	455	1905	76	200	230	101300000	1000	0	0	-1	300	345026036
230.461	511	451	1886	76	200	230	101300000	1000	0	0	-1	300	345038596
211.551	467	453	1885	76	200	230	101300000	1000	0	0	-1	300	345051156
237.752	526	452	1899	76	200	230	101300000	1000	0	0	-1	300	345063716
34.505	67	515	1822	76	200	230	101300000	1000	0	0	-1	350	355153876
36.12	70	516	1810	76	200	230	101300000	1000	0	0	-1	350	355166436
69.93	135	518	1809	76	200	230	101300000	1000	0	0	-1	350	355178996
38.775	75	517	1822	76	200	230	101300000	1000	0	0	-1	350	355191556
35.84	70	512	1809	76	200	230	101300000	1000	0	0	-1	350	355204116
38.85	75	518	1817	76	200	230	101300000	1000	0	0	-1	350	355216676
42.23	82	515	1822	76	200	230	101300000	1000	0	0	-1	350	355229236
48.786	94	519	1809	76	200	230	101300000	1000	0	0	-1	350	355241796
35.041	67	523	1820	76	200	230	101300000	1000	0	0	-1	350	355254356
39.375	75	525	1810	76	200	230	101300000	1000	0	0	-1	350	355266916
58.873	113	521	1810	76	200	230	101300000	1000	0	0	-1	350	355279476
40.271	77	523	1820	76	200	230	101300000	1000	0	0	-1	350	355292036
33.735	65	519	1813	76	200	230	101300000	1000	0	0	-1	350	355304596
45.066	87	518	1819	76	200	230	101300000	1000	0	0	-1	350	355317156
45.924	89	516	1820	76	200	230	101300000	1000	0	0	-1	350	355329716
46.102	89	518	1809	76	200	230	101300000	1000	0	0	-1	350	355342276
34.974	67	522	1820	76	200	230	101300000	1000	0	0	-1	350	355354836
37.152	72	516	1812	76	200	230	101300000	1000	0	0	-1	350	355367396
60.088	116	518	1810	76	200	230	101300000	1000	0	0	-1	350	355379956
57.387	111	517	1820	76	200	230	101300000	1000	0	0	-1	350	355392516
39.732	77	516	1813	76	200	230	101300000	1000	0	0	-1	350	355405076
37.008	72	514	1817	76	200	230	101300000	1000	0	0	-1	350	355417636
60.77	118	515	1816	76	200	230	101300000	1000	0	0	-1	350	355430196
81.012	157	516	1810	76	200	230	101300000	1000	0	0	-1	350	355442756
50.343	97	519	1823	76	200	230	101300000	1000	0	0	-1	350	355455316
34.773	67	519	1809	76	200	230	101300000	1000	0	0	-1	350	355467876
36.82	70	526	1813	76	200	230	101300000	1000	0	0	-1	350	355480436
60.088	116	518	1813	76	200	230	101300000	1000	0	0	-1	350	355492996
62.92	121	520	1810	76	200	230	101300000	1000	0	0	-1	350	355505556
42.558	82	519	1819	76	200	230	101300000	1000	0	0	-1	350	355518116
34.304	67	512	1819	76	200	230	101300000	1000	0	0	-1	350	355530676
44.805	87	515	1813	76	200	230	101300000	1000	0	0	-1	350	355543236
39.809	77	517	1825	76	200	230	101300000	1000	0	0	-1	350	355555796
32.256	63	512	1807	76	200	230	101300000	1000	0	0	-1	350	355568356
45.327	87	521	1810	76	200	230	101300000	1000	0	0	-1	350	355580916
34.706	67	518	1809	76	200	230	101300000	1000	0	0	-1	350	355593476
36.47	70	521	1813	76	200	230	101300000	1000	0	0	-1	350	355606036
43.68	84	520	1819	76	200	230	101300000	1000	0	0	-1	350	355618596
40.764	79	516	1812	76	200	230	101300000	1000	0	0	-1	350	355631156
66.048	128	516	1816	76	200	230	101300000	1000	0	0	-1	350	355643716
39.963	77	519	1822	76	200	230	101300000	1000	0	0	-1	350	355656276
34.572	67	516	1806	76	200	230	101300000	1000	0	0	-1	350	355668836
43.428	84	517	1809	76	200	230	101300000	1000	0	0	-1	350	355681396
57.498	111	518	1807	76	200	230	101300000	1000	0	0	-1	350	355693956
87.88	169	520	1809	76	200	230	101300000	1000	0	0	-1	350	355706516
60.9	116	525	1819	76	200	230	101300000	1000	0	0	-1	350	355719076
40.348	77	524	1809	76	200	230	101300000	1000	0	0	-1	350	355731636
61.596	118	522	1814	76	200	230	101300000	1000	0	0	-1	350	355744196
79.496	152	523	1814	76	200	230	101300000	1000	0	0	-1	350	355756756
157.56	303	520	1807	76	200	230	101300000	1000	0	0	-1	350	355769316
145.116	278	522	1813	76	200	230	101300000	1000	0	0	-1	350	355781876
146.963	281	523	1806	76	200	230	101300000	1000	0	0	-1	350	355794436
189.954	366	519	1810	76	200	230	101300000	1000	0	0	-1	350	355806996
176.736	336	526	1816	76	200	230	101300000	1000	0	0	-1	350	355819556
156.748	298	526	1809	76	200	230	101300000	1000	0	0	-1	350	355832116
168.406	322	523	1813	76	200	230	101300000	1000	0	0	-1	350	355844676
147.443	283	521	1814	76	200	230	101300000	1000	0	0	-1	350	355857236
179.224	344	521	1804	76	200	230	101300000	1000	0	0	-1	350	355869796
157.685	305	517	1812	76	200	230	101300000	1000	0	0	-1	350	355882356
153.105	295	519	1806	76	200	230	101300000	1000	0	0	-1	350	355894916
176.638	341	518	1806	76	200	230	101300000	1000	0	0	-1	350	355907476
152.81	295	518	1814	76	200	230	101300000	1000	0	0	-1	350	355920036
165.242	319	518	1807	76	200	230	101300000	1000	0	0	-1	350	355932596
172.12	331	520	1812	76	200	230	101300000	1000	0	0	-1	350	355945156
181.467	351	517	1813	76	200	230	101300000	1000	0	0	-1	350	355957716
171.08	329	520	1806	76	200	230	101300000	1000	0	0	-1	350	355970276
163.176	312	523	1809	76	200	230	101300000	1000	0	0	-1	350	355982836
161.482	307	526	1801	76	200	230	101300000	1000	0	0	-1	350	355995396
186.204	354	526	1804	76	200	230	101300000	1000	0	0	-1	350	356007956
168.728	322	524	1817	76	200	230	101300000	1000	0	0	-1	350	356020516
148.009	283	523	1804	76	200	230	101300000	1000	0	0	-1	350	356033076
149.184	288	518	1816	76	200	230	101300000	1000	0	0	-1	350	356045636
178.536	344	519	1809	76	200	230	101300000	1000	0	0	-1	350	356058196
198.66	385	516	1807	76	200	230	101300000	1000	0	0	-1	350	356070756
162.855	315	517	1813	76	200	230	101300000	1000	0	0	-1	350	356083316
148.148	286	518	1804	76	200	230	101300000	1000	0	0	-1	350	356095876
171.08	329	520	1806	76	200	230	101300000	1000	0	0	-1	350	356108436
189.52	368	515	1816	76	200	230	101300000	1000	0	0	-1	350	356120996
175.728	336	523	1806	76	200	230	101300000	1000	0	0	-1	350	356133556
158.7	300	529	1816	76	200	230	101300000	1000	0	0	-1	350	356146116
147.525	281	525	1807	76	200	230	101300000	1000	0	0	-1	350	356158676
201.355	385	523	1803	76	200	230	101300000	1000	0	0	-1	350	356171236
172.451	331	521	1814	76	200	230	101300000	1000	0	0	-1	350	356183796
163.17	315	518	1800	76	200	230	101300000	1000	0	0	-1	350	356196356
169.386	327	518	1807	76	200	230	101300000	1000	0	0	-1	350	356208916
148.148	286	518	1817	76	200	230	101300000	1000	0	0	-1	350	356221476
173.636	332	523	1804	76	200	230	101300000	1000	0	0	-1	350	356234036
160.735	305	527	1813	76	200	230	101300000	1000	0	0	-1	350	356246596
155.17	295	526	1803	76	200	230	101300000	1000	0	0	-1	350	356259156
176.588	337	524	1810	76	200	230	101300000	1000	0	0	-1	350	356271716
151.32	291	520	1810	76	200	230	101300000	1000	0	0	-1	350	356284276
166.152	322	516	1803	76	200	230	101300000	1000	0	0	-1	350	356296836
173.346	334	519	1810	76	200	230	101300000	1000	0	0	-1	350	356309396
171.348	327	524	1814	76	200	230	101300000	1000	0	0	-1	350	356321956
162.44	310	524	1807	76	200	230	101300000	1000	0	0	-1	350	356334516
162.008	308	526	1814	76	200	230	101300000	1000	0	0	-1	350	356347076
163.488	312	524	1806	76	200	230	101300000	1000	0	0	-1	350	356359636
179.228	346	518	1803	76	200	230	101300000	1000	0	0	-1	350	356372196
154.364	298	518	1813	76	200	230	101300000	1000	0	0	-1	350	356384756
144.56	278	520	1800	76	200	230	101300000	1000	0	0	-1	350	356397316
37.386	67	558	1744	76	200	230	101300000	1000	0	0	-1	400	369441076
39.48	70	564	1738	76	200	230	101300000	1000	0	0	-1	400	369453636
36.985	65	569	1740	76	200	230	101300000	1000	0	0	-1	400	369466196
42.675	75	569	1747	76	200	230	101300000	1000	0	0	-1	400	369478756
41.256	72	573	1744	76	200	230	101300000	1000	0	0	-1	400	369491316
41.688	72	579	1744	76	200	230	101300000	1000	0	0	-1	400	369503876
37.57	65	578	1747	76	200	230	101300000	1000	0	0	-1	400	369516436
37.855	67	565	1740	76	200	230	101300000	1000	0	0	-1	400	369528996
40.392	72	561	1737	76	200	230	101300000	1000	0	0	-1	400	369541556
35.62	65	548	1744	76	200	230	101300000	1000	0	0	-1	400	369554116
37.252	67	556	1741	76	200	230	101300000	1000	0	0	-1	400	369566676
35.532	63	564	1746	76	200	230	101300000	1000	0	0	-1	400	369579236
40.536	72	563	1747	76	200	230	101300000	1000	0	0	-1	400	369591796
44.951	79	569	1740	76	200	230	101300000	1000	0	0	-1	400	369604356
37.57	65	578	1747	76	200	230	101300000	1000	0	0	-1	400	369616916
46.08	80	576	1746	76	200	230	101300000	1000	0	0	-1	400	369629476
41.832	72	581	1746	76	200	230	101300000	1000	0	0	-1	400	369642036
40.88	70	584	1747	76	200	230	101300000	1000	0	0	-1	400	369654596
41.472	72	576	1740	76	200	230	101300000	1000	0	0	-1	400	369667156
39.396	67	588	1744	76	200	230	101300000	1000	0	0	-1	400	369679716
39.195	67	585	1740	76	200	230	101300000	1000	0	0	-1	400	369692276
43.5	75	580	1741	76	200	230	101300000	1000	0	0	-1	400	369704836
39.262	67	586	1746	76	200	230	101300000	1000	0	0	-1	400	369717396
43.275	75	577	1746	76	200	230	101300000	1000	0	0	-1	400	369729956
66.444	113	588	1743	76	200	230	101300000	1000	0	0	-1	400	369742516
44.583	77	579	1749	76	200	230	101300000	1000	0	0	-1	400	369755076
41.51	70	593	1740	76	200	230	101300000	1000	0	0	-1	400	369767636
49.308	84	587	1740	76	200	230	101300000	1000	0	0	-1	400	369780196
42.048	72	584	1740	76	200	230	101300000	1000	0	0	-1	400	369792756
41.44	70	592	1743	76	200	230	101300000	1000	0	0	-1	400	369805316
45.43	77	590	1743	76	200	230	101300000	1000	0	0	-1	400	369817876
42.264	72	587	1747	76	200	230	101300000	1000	0	0	-1	400	369830436
49.224	84	586	1735	76	200	230	101300000	1000	0	0	-1	400	369842996
41.976	72	583	1747	76	200	230	101300000	1000	0	0	-1	400	369855556
42.048	72	584	1743	76	200	230	101300000	1000	0	0	-1	400	369868116
62.646	106	591	1738	76	200	230	101300000	1000	0	0	-1	400	369880676
44.429	77	577	1744	76	200	230	101300000	1000	0	0	-1	400	369893236
38.391	67	573	1735	76	200	230	101300000	1000	0	0	-1	400	369905796
39.061	67	583	1740	76	200	230	101300000	1000	0	0	-1	400	369918356
40.896	72	568	1744	76	200	230	101300000	1000	0	0	-1	400	369930916
37.855	67	565	1737	76	200	230	101300000	1000	0	0	-1	400	369943476
38.793	67	579	1743	76	200	230	101300000	1000	0	0	-1	400	369956036
44.429	77	577	1744	76	200	230	101300000	1000	0	0	-1	400	369968596
50.46	87	580	1738	76	200	230	101300000	1000	0	0	-1	400	369981156
41.09	70	587	1746	76	200	230	101300000	1000	0	0	-1	400	369993716
41.65	70	595	1737	76	200	230	101300000	1000	0	0	-1	400	370006276
69.384	118	588	1738	76	200	230	101300000	1000	0	0	-1	400	370018836
54.99	94	585	1744	76	200	230	101300000	1000	0	0	-1	400	370031396
41.51	70	593	1737	76	200	230	101300000	1000	0	0	-1	400	370043956
52.688	89	592	1741	76	200	230	101300000	1000	0	0	-1	400	370056516
52.065	89	585	1747	76	200	230	101300000	1000	0	0	-1	400	370069076
41.3	70	590	1738	76	200	230	101300000	1000	0	0	-1	400	370081636
41.58	70	594	1746	76	200	230	101300000	1000	0	0	-1	400	370094196
54.004	92	587	1740	76	200	230	101300000	1000	0	0	-1	400	370106756
46.294	79	586	1740	76	200	230	101300000	1000	0	0	-1	400	370119316
42.768	72	594	1746	76	200	230	101300000	1000	0	0	-1	400	370131876
43.95	75	586	1734	76	200	230	101300000	1000	0	0	-1	400	370144436
58.509	99	591	1740	76	200	230	101300000	1000	0	0	-1	400	370156996
51.243	87	589	1741	76	200	230	101300000	1000	0	0	-1	400	370169556
39.463	67	589	1737	76	200	230	101300000	1000	0	0	-1	400	370182116
49.476	84	589	1741	76	200	230	101300000	1000	0	0	-1	400	370194676
45.584	77	592	1744	76	200	230	101300000	1000	0	0	-1	400	370207236
42.12	72	585	1735	76	200	230	101300000	1000	0	0	-1	400	370219796
43.95	75	586	1743	76	200	230	101300000	1000	0	0	-1	400	370232356
46.96	80	587	1740	76	200	230	101300000	1000	0	0	-1	400	370244916
45.276	77	588	1737	76	200	230	101300000	1000	0	0	-1	400	370257476
42.048	72	584	1741	76	200	230	101300000	1000	0	0	-1	400	370270036
43.65	75	582	1735	76	200	230	101300000	1000	0	0	-1	400	370282596
39.195	67	585	1740	76	200	230	101300000	1000	0	0	-1	400	370295156
40.81	70	583	1744	76	200	230	101300000	1000	0	0	-1	400	370307716
37.245	65	573	1735	76	200	230	101300000	1000	0	0	-1	400	370320276
38.257	67	571	1741	76	200	230	101300000	1000	0	0	-1	400	370332836
40.176	72	558	1743	76	200	230	101300000	1000	0	0	-1	400	370345396
38.5	70	550	1735	76	200	230	101300000	1000	0	0	-1	400	370357956
32.7	60	545	1741	76	200	230	101300000	1000	0	0	-1	400	370370516
36.85	67	550	1737	76	200	230	101300000	1000	0	0	-1	400	370383076
35.945	65	553	1734	76	200	230	101300000	1000	0	0	-1	400	370395636
34.02	63	540	1744	76	200	230	101300000	1000	0	0	-1	400	370408196
34.255	65	527	1743	76	200	230	101300000	1000	0	0	-1	400	370420756
35.644	67	532	1741	76	200	230	101300000	1000	0	0	-1	400	370433316
34.775	65	535	1746	76	200	230	101300000	1000	0	0	-1	400	370445876
31.92	60	532	1735	76	200	230	101300000	1000	0	0	-1	400	370458436
39.024	72	542	1738	76	200	230	101300000	1000	0	0	-1	400	370470996
35.778	67	534	1744	76	200	230	101300000	1000	0	0	-1	400	370483556
34.905	65	537	1740	76	200	230	101300000	1000	0	0	-1	400	370496116
39.48	70	564	1743	76	200	230	101300000	1000	0	0	-1	400	370508676
40.25	70	575	1747	76	200	230	101300000	1000	0	0	-1	400	370521236
46.08	80	576	1743	76	200	230	101300000	1000	0	0	-1	400	370533796
38.257	67	571	1747	76	200	230	101300000	1000	0	0	-1	400	370546356
42.975	75	573	1738	76	200	230	101300000	1000	0	0	-1	400	370558916
42.975	75	573	1741	76	200	230	101300000	1000	0	0	-1	400	370571476
39.55	70	565	1746	76	200	230	101300000	1000	0	0	-1	400	370584036
37.654	67	562	1740	76	200	230	101300000	1000	0	0	-1	400	370596596
37.57	65	578	1741	76	200	230	101300000	1000	0	0	-1	400	370609156
40.81	70	583	1749	76	200	230	101300000	1000	0	0	-1	400	370621716
42.192	72	586	1740	76	200	230	101300000	1000	0	0	-1	400	370634276
39.396	67	588	1746	76	200	230	101300000	1000	0	0	-1	400	370646836
39.463	67	589	1746	76	200	230	101300000	1000	0	0	-1	400	370659396
60.944	104	586	1740	76	200	230	101300000	1000	0	0	-1	400	370671956
40.67	70	581	1749	76	200	230	101300000	1000	0	0	-1	400	370684516
41.93	70	599	1760	76	200	230	101300000	1000	0	0	-1	450	386970876
44.1	75	588	1757	76	200	230	101300000	1000	0	0	-1	450	386983436
47.92	80	599	1762	76	200	230	101300000	1000	0	0	-1	450	386995996
40.88	70	584	1763	76	200	230	101300000	1000	0	0	-1	450	387008556
42.408	72	589	1756	76	200	230	101300000	1000	0	0	-1	450	387021116
40.88	70	584	1765	76	200	230	101300000	1000	0	0	-1	450	387033676
40.25	70	575	1759	76	200	230	101300000	1000	0	0	-1	450	387046236
44.175	75	589	1757	76	200	230	101300000	1000	0	0	-1	450	387058796
38.793	67	579	1760	76	200	230	101300000	1000	0	0	-1	450	387071356
40.824	72	567	1757	76	200	230	101300000	1000	0	0	-1	450	387083916
39.061	67	583	1759	76	200	230	101300000	1000	0	0	-1	450	387096476
38.592	67	576	1766	76	200	230	101300000	1000	0	0	-1	450	387109036
44.044	77	572	1757	76	200	230	101300000	1000	0	0	-1	450	387121596
40.81	70	583	1763	76	200	230	101300000	1000	0	0	-1	450	387134156
38.86	67	580	1760	76	200	230	101300000	1000	0	0	-1	450	387146716
40.536	72	563	1757	76	200	230	101300000	1000	0	0	-1	450	387159276
35.815	65	551	1763	76	200	230	101300000	1000	0	0	-1	450	387171836
34.524	63	548	1757	76	200	230	101300000	1000	0	0	-1	450	387184396
39.024	72	542	1756	76	200	230	101300000	1000	0	0	-1	450	387196956
37.38	70	534	1763	76	200	230	101300000	1000	0	0	-1	450	387209516
33.642	63	534	1757	76	200	230	101300000	1000	0	0	-1	450	387222076
35.62	65	548	1763	76	200	230	101300000	1000	0	0	-1	450	387234636
34.272	63	544	1763	76	200	230	101300000	1000	0	0	-1	450	387247196
37.73	70	539	1757	76	200	230	101300000	1000	0	0	-1	450	387259756
41.175	75	549	1766	76	200	230	101300000	1000	0	0	-1	450	387272316
38.257	67	571	1759	76	200	230	101300000	1000	0	0	-1	450	387284876
37.115	65	571	1759	76	200	230	101300000	1000	0	0	-1	450	387297436
35.425	65	545	1766	76	200	230	101300000	1000	0	0	-1	450	387309996
35.778	67	534	1757	76	200	230	101300000	1000	0	0	-1	450	387322556
34.146	63	542	1763	76	200	230	101300000	1000	0	0	-1	450	387335116
34.461	63	547	1768	76	200	230	101300000	1000	0	0	-1	450	387347676
37.45	70	535	1760	76	200	230	101300000	1000	0	0	-1	450	387360236
36.247	67	541	1768	76	200	230	101300000	1000	0	0	-1	450	387372796
35.425	65	545	1762	76	200	230	101300000	1000	0	0	-1	450	387385356
36.85	67	550	1763	76	200	230	101300000	1000	0	0	-1	450	387397916
35.165	65	541	1763	76	200	230	101300000	1000	0	0	-1	450	387410476
37.94	70	542	1759	76	200	230	101300000	1000	0	0	-1	450	387423036
38.57	70	551	1762	76	200	230	101300000	1000	0	0	-1	450	387435596
32.82	60	547	1769	76	200	230	101300000	1000	0	0	-1	450	387448156
34.461	63	547	1763	76	200	230	101300000	1000	0	0	-1	450	387460716
39.6	72	550	1769	76	200	230	101300000	1000	0	0	-1	450	387473276
38.29	70	547	1766	76	200	230	101300000	1000	0	0	-1	450	387485836
35.555	65	547	1762	76	200	230	101300000	1000	0	0	-1	450	387498396
34.713	63	551	1770	76	200	230	101300000	1000	0	0	-1	450	387510956
35.49	65	546	1763	76	200	230	101300000	1000	0	0	-1	450	387523516
41.325	75	551	1760	76	200	230	101300000	1000	0	0	-1	450	387536076
37.051	67	553	1770	76	200	230	101300000	1000	0	0	-1	450	387548636
36.14	65	556	1762	76	200	230	101300000	1000	0	0	-1	450	387561196
37.922	67	566	1769	76	200	230	101300000	1000	0	0	-1	450	387573756
36.14	65	556	1770	76	200	230	101300000	1000	0	0	-1	450	387586316
42.889	77	557	1762	76	200	230	101300000	1000	0	0	-1	450	387598876
40.32	72	560	1773	76	200	230	101300000	1000	0	0	-1	450	387611436
39.34	70	562	1760	76	200	230	101300000	1000	0	0	-1	450	387623996
42	75	560	1765	76	200	230	101300000	1000	0	0	-1	450	387636556
36.716	67	548	1770	76	200	230	101300000	1000	0	0	-1	450	387649116
34.461	63	547	1766	76	200	230	101300000	1000	0	0	-1	450	387661676
35.343	63	561	1768	76	200	230	101300000	1000	0	0	-1	450	387674236
34.776	63	552	1772	76	200	230	101300000	1000	0	0	-1	450	387686796
39.312	72	546	1765	76	200	230	101300000	1000	0	0	-1	450	387699356
36.783	67	549	1772	76	200	230	101300000	1000	0	0	-1	450	387711916
36.14	65	556	1766	76	200	230	101300000	1000	0	0	-1	450	387724476
37.587	67	561	1766	76	200	230	101300000	1000	0	0	-1	450	387737036
36.01	65	554	1770	76	200	230	101300000	1000	0	0	-1	450	387749596
38.64	70	552	1765	76	200	230	101300000	1000	0	0	-1	450	387762156
39.06	70	558	1770	76	200	230	101300000	1000	0	0	-1	450	387774716
36.335	65	559	1773	76	200	230	101300000	1000	0	0	-1	450	387787276
36.725	65	565	1763	76	200	230	101300000	1000	0	0	-1	450	387799836
36.855	65	567	1772	76	200	230	101300000	1000	0	0	-1	450	387812396
36.27	65	558	1769	76	200	230	101300000	1000	0	0	-1	450	387824956
41.55	75	554	1769	76	200	230	101300000	1000	0	0	-1	450	387837516
40.032	72	556	1772	76	200	230	101300000	1000	0	0	-1	450	387850076
38.92	70	556	1763	76	200	230	101300000	1000	0	0	-1	450	387862636
37.587	67	561	1766	76	200	230	101300000	1000	0	0	-1	450	387875196
37.252	67	556	1773	76	200	230	101300000	1000	0	0	-1	450	387887756
36.335	65	559	1770	76	200	230	101300000	1000	0	0	-1	450	387900316
37.05	65	570	1772	76	200	230	101300000	1000	0	0	-1	450	387912876
33.66	60	561	1772	76	200	230	101300000	1000	0	0	-1	450	387925436
42.812	77	556	1768	76	200	230	101300000	1000	0	0	-1	450	387937996
38.85	70	555	1775	76	200	230	101300000	1000	0	0	-1	450	387950556
34.965	63	555	1768	76	200	230	101300000	1000	0	0	-1	450	387963116
37.453	67	559	1768	76	200	230	101300000	1000	0	0	-1	450	387975676
37.587	67	561	1773	76	200	230	101300000	1000	0	0	-1	450	387988236
33.3	60	555	1772	76	200	230	101300000	1000	0	0	-1	450	388000796
35.28	63	560	1773	76	200	230	101300000	1000	0	0	-1	450	388013356
37.051	67	553	1776	76	200	230	101300000	1000	0	0	-1	450	388025916
39.6	72	550	1765	76	200	230	101300000	1000	0	0	-1	450	388038476
37.185	67	555	1778	76	200	230	101300000	1000	0	0	-1	450	388051036
36.01	65	554	1768	76	200	230	101300000	1000	0	0	-1	450	388063596
37.118	67	554	1769	76	200	230	101300000	1000	0	0	-1	450	388076156
35.88	65	552	1776	76	200	230	101300000	1000	0	0	-1	450	388088716
35.815	65	551	1768	76	200	230	101300000	1000	0	0	-1	450	388101276
39.27	70	561	1773	76	200	230	101300000	1000	0	0	-1	450	388113836
37.252	67	556	1778	76	200	230	101300000	1000	0	0	-1	450	388126396
36.14	65	556	1769	76	200	230	101300000	1000	0	0	-1	450	388138956
39.41	70	563	1778	76	200	230	101300000	1000	0	0	-1	450	388151516
39.62	70	566	1773	76	200	230	101300000	1000	0	0	-1	450	388164076
36.465	65	561	1770	76	200	230	101300000	1000	0	0	-1	450	388176636
36.465	65	561	1775	76	200	230	101300000	1000	0	0	-1	450	388189196
37.252	67	556	1772	76	200	230	101300000	1000	0	0	-1	450	388201756
41.925	75	559	1772	76	200	230	101300000	1000	0	0	-1	450	388214316
41.688	72	579	1763	76	200	230	101300000	1000	0	0	-1	500	399698276
43.2	75	576	1754	76	200	230	101300000	1000	0	0	-1	500	399710836
42.408	72	589	1763	76	200	230	101300000	1000	0	0	-1	500	399723396
41.58	70	594	1757	76	200	230	101300000	1000	0	0	-1	500	399735956
43.875	75	585	1756	76	200	230	101300000	1000	0	0	-1	500	399748516
41.256	72	573	1765	76	200	230	101300000	1000	0	0	-1	500	399761076
41.256	72	573	1751	76	200	230	101300000	1000	0	0	-1	500	399773636
40.6	70	580	1754	76	200	230	101300000	1000	0	0	-1	500	399786196
46.046	77	598	1762	76	200	230	101300000	1000	0	0	-1	500	399798756
42.42	70	606	1754	76	200	230	101300000	1000	0	0	-1	500	399811316
43.19	70	617	1759	76	200	230	101300000	1000	0	0	-1	500	399823876
44.208	72	614	1757	76	200	230	101300000	1000	0	0	-1	500	399836436
45.9	75	612	1756	76	200	230	101300000	1000	0	0	-1	500	399848996
50.184	82	612	1762	76	200	230	101300000	1000	0	0	-1	500	399861556
49.938	82	609	1750	76	200	230	101300000	1000	0	0	-1	500	399874116
47.432	77	616	1753	76	200	230	101300000	1000	0	0	-1	500	399886676
42.77	70	611	1762	76	200	230	101300000	1000	0	0	-1	500	399899236
42.42	70	606	1753	76	200	230	101300000	1000	0	0	-1	500	399911796
46.05	75	614	1757	76	200	230	101300000	1000	0	0	-1	500	399924356
44.352	72	616	1759	76	200	230	101300000	1000	0	0	-1	500	399936916
50.43	82	615	1749	76	200	230	101300000	1000	0	0	-1	500	399949476
48.506	79	614	1759	76	200	230	101300000	1000	0	0	-1	500	399962036
48.664	79	616	1753	76	200	230	101300000	1000	0	0	-1	500	399974596
48.048	77	624	1750	76	200	230	101300000	1000	0	0	-1	500	399987156
43.05	70	615	1756	76	200	230	101300000	1000	0	0	-1	500	399999716
44.64	72	620	1750	76	200	230	101300000	1000	0	0	-1	500	400012276
48.356	77	628	1751	76	200	230	101300000	1000	0	0	-1	500	400024836
44.712	72	621	1757	76	200	230	101300000	1000	0	0	-1	500	400037396
44.28	72	615	1749	76	200	230	101300000	1000	0	0	-1	500	400049956
49.36	80	617	1756	76	200	230	101300000	1000	0	0	-1	500	400062516
50.348	82	614	1754	76	200	230	101300000	1000	0	0	-1	500	400075076
50.102	82	611	1747	76	200	230	101300000	1000	0	0	-1	500	400087636
50.43	82	615	1756	76	200	230	101300000	1000	0	0	-1	500	400100196
45.3	75	604	1749	76	200	230	101300000	1000	0	0	-1	500	400112756
43.416	72	603	1746	76	200	230	101300000	1000	0	0	-1	500	400125316
41.86	70	598	1757	76	200	230	101300000	1000	0	0	-1	500	400137876
42.264	72	587	1747	76	200	230	101300000	1000	0	0	-1	500	400150436
45.122	77	586	1754	76	200	230	101300000	1000	0	0	-1	500	400162996
42.336	72	588	1754	76	200	230	101300000	1000	0	0	-1	500	400175556
41.3	70	590	1743	76	200	230	101300000	1000	0	0	-1	500	400188116
44.25	75	590	1754	76	200	230	101300000	1000	0	0	-1	500	400200676
43.725	75	583	1750	76	200	230	101300000	1000	0	0	-1	500	400213236
41.616	72	578	1746	76	200	230	101300000	1000	0	0	-1	500	400225796
38.793	67	579	1751	76	200	230	101300000	1000	0	0	-1	500	400238356
40.74	70	582	1747	76	200	230	101300000	1000	0	0	-1	500	400250916
40.25	70	575	1750	76	200	230	101300000	1000	0	0	-1	500	400263476
41.184	72	572	1754	76	200	230	101300000	1000	0	0	-1	500	400276036
39.97	70	571	1744	76	200	230	101300000	1000	0	0	-1	500	400288596
39.396	67	588	1753	76	200	230	101300000	1000	0	0	-1	500	400301156
39.195	67	585	1751	76	200	230	101300000	1000	0	0	-1	500	400313716
43.35	75	578	1749	76	200	230	101300000	1000	0	0	-1	500	400326276
41.256	72	573	1751	76	200	230	101300000	1000	0	0	-1	500	400338836
37.788	67	564	1746	76	200	230	101300000	1000	0	0	-1	500	400351396
37.721	67	563	1746	76	200	230	101300000	1000	0	0	-1	500	400363956
35.28	63	560	1753	76	200	230	101300000	1000	0	0	-1	500	400376516
39.96	72	555	1750	76	200	230	101300000	1000	0	0	-1	500	400389076
40.104	72	557	1751	76	200	230	101300000	1000	0	0	-1	500	400401636
37.185	67	555	1754	76	200	230	101300000	1000	0	0	-1	500	400414196
36.14	65	556	1743	76	200	230	101300000	1000	0	0	-1	500	400426756
33.6	60	560	1750	76	200	230	101300000	1000	0	0	-1	500	400439316
37.252	67	556	1751	76	200	230	101300000	1000	0	0	-1	500	400451876
39.456	72	548	1746	76	200	230	101300000	1000	0	0	-1	500	400464436
38.5	70	550	1753	76	200	230	101300000	1000	0	0	-1	500	400476996
36.649	67	547	1750	76	200	230	101300000	1000	0	0	-1	500	400489556
35.028	63	556	1750	76	200	230	101300000	1000	0	0	-1	500	400502116
37.051	67	553	1757	76	200	230	101300000	1000	0	0	-1	500	400514676
34.902	63	554	1747	76	200	230	101300000	1000	0	0	-1	500	400527236
35.945	65	553	1756	76	200	230	101300000	1000	0	0	-1	500	400539796
38.36	70	548	1754	76	200	230	101300000	1000	0	0	-1	500	400552356
35.425	65	545	1751	76	200	230	101300000	1000	0	0	-1	500	400564916
33.12	60	552	1751	76	200	230	101300000	1000	0	0	-1	500	400577476
36.85	67	550	1749	76	200	230	101300000	1000	0	0	-1	500	400590036
38.78	70	554	1750	76	200	230	101300000	1000	0	0	-1	500	400602596
34.398	63	546	1756	76	200	230	101300000	1000	0	0	-1	500	400615156
34.587	63	549	1754	76	200	230	101300000	1000	0	0	-1	500	400627716
32.94	60	549	1754	76	200	230	101300000	1000	0	0	-1	500	400640276
34.083	63	541	1756	76	200	230	101300000	1000	0	0	-1	500	400652836
34.905	65	537	1749	76	200	230	101300000	1000	0	0	-1	500	400665396
38.01	70	543	1753	76	200	230	101300000	1000	0	0	-1	500	400677956
36.247	67	541	1751	76	200	230	101300000	1000	0	0	-1	500	400690516
36.247	67	541	1753	76	200	230	101300000	1000	0	0	-1	500	400703076
34.461	63	547	1756	76	200	230	101300000	1000	0	0	-1	500	400715636
31.726	58	547	1757	76	200	230	101300000	1000	0	0	-1	500	400728196
35.945	65	553	1754	76	200	230	101300000	1000	0	0	-1	500	400740756
34.335	63	545	1760	76	200	230	101300000	1000	0	0	-1	500	400753316
36.113	67	539	1751	76	200	230	101300000	1000	0	0	-1	500	400765876
38.22	70	546	1753	76	200	230	101300000	1000	0	0	-1	500	400778436
36.113	67	539	1753	76	200	230	101300000	1000	0	0	-1	500	400790996
31.668	58	546	1754	76	200	230	101300000	1000	0	0	-1	500	400803556
34.335	63	545	1759	76	200	230	101300000	1000	0	0	-1	500	400816116
39.096	72	543	1760	76	200	230	101300000	1000	0	0	-1	500	400828676
36.582	67	546	1753	76	200	230	101300000	1000	0	0	-1	500	400841236
34.713	63	551	1762	76	200	230	101300000	1000	0	0	-1	500	400853796
35.49	65	546	1756	76	200	230	101300000	1000	0	0	-1	500	400866356
35.62	65	548	1753	76	200	230	101300000	1000	0	0	-1	500	400878916
36.448	67	544	1759	76	200	230	101300000	1000	0	0	-1	500	400891476
37.8	70	540	1754	76	200	230	101300000	1000	0	0	-1	500	400904036
35.75	65	550	1757	76	200	230	101300000	1000	0	0	-1	500	400916596
33	60	550	1762	76	200	230	101300000	1000	0	0	-1	500	400929156
35.425	65	545	1754	76	200	230	101300000	1000	0	0	-1	500	400941716
36.917	67	551	1754	76	200	230	101300000	1000	0	0	-1	550	411244996
39.816	72	553	1760	76	200	230	101300000	1000	0	0	-1	550	411257556
37.118	67	554	1754	76	200	230	101300000	1000	0	0	-1	550	411270116
39.48	70	564	1756	76	200	230	101300000	1000	0	0	-1	550	411282676
40.032	72	556	1762	76	200	230	101300000	1000	0	0	-1	550	411295236
37.587	67	561	1754	76	200	230	101300000	1000	0	0	-1	550	411307796
40.392	72	561	1760	76	200	230	101300000	1000	0	0	-1	550	411320356
38.71	70	553	1762	76	200	230	101300000	1000	0	0	-1	550	411332916
37.252	67	556	1753	76	200	230	101300000	1000	0	0	-1	550	411345476
36.205	65	557	1760	76	200	230	101300000	1000	0	0	-1	550	411358036
40.032	72	556	1756	76	200	230	101300000	1000	0	0	-1	550	411370596
37.721	67	563	1754	76	200	230	101300000	1000	0	0	-1	550	411383156
38.85	70	555	1762	76	200	230	101300000	1000	0	0	-1	550	411395716
37.252	67	556	1757	76	200	230	101300000	1000	0	0	-1	550	411408276
38.056	67	568	1760	76	200	230	101300000	1000	0	0	-1	550	411420836
42.3	75	564	1765	76	200	230	101300000	1000	0	0	-1	550	411433396
38.056	67	568	1753	76	200	230	101300000	1000	0	0	-1	550	411445956
37.505	65	577	1756	76	200	230	101300000	1000	0	0	-1	550	411458516
44.275	77	575	1757	76	200	230	101300000	1000	0	0	-1	550	411471076
38.726	67	578	1756	76	200	230	101300000	1000	0	0	-1	550	411483636
38.726	67	578	1759	76	200	230	101300000	1000	0	0	-1	550	411496196
42.825	75	571	1754	76	200	230	101300000	1000	0	0	-1	550	411508756
40.81	70	583	1760	76	200	230	101300000	1000	0	0	-1	550	411521316
44.044	77	572	1766	76	200	230	101300000	1000	0	0	-1	550	411533876
38.458	67	574	1753	76	200	230	101300000	1000	0	0	-1	550	411546436
42.192	72	586	1765	76	200	230	101300000	1000	0	0	-1	550	411558996
41.616	72	578	1756	76	200	230	101300000	1000	0	0	-1	550	411571556
41.44	70	592	1757	76	200	230	101300000	1000	0	0	-1	550	411584116
47.44	80	593	1760	76	200	230	101300000	1000	0	0	-1	550	411596676
42.696	72	593	1750	76	200	230	101300000	1000	0	0	-1	550	411609236
45.15	75	602	1757	76	200	230	101300000	1000	0	0	-1	550	411621796
45.507	77	591	1762	76	200	230	101300000	1000	0	0	-1	550	411634356
41.3	70	590	1756	76	200	230	101300000	1000	0	0	-1	550	411646916
42.07	70	601	1759	76	200	230	101300000	1000	0	0	-1	550	411659476
44.025	75	587	1757	76	200	230	101300000	1000	0	0	-1	550	411672036
43.725	75	583	1754	76	200	230	101300000	1000	0	0	-1	550	411684596
39.597	67	591	1759	76	200	230	101300000	1000	0	0	-1	550	411697156
41.37	70	591	1753	76	200	230	101300000	1000	0	0	-1	550	411709716
41.688	72	579	1753	76	200	230	101300000	1000	0	0	-1	550	411722276
43.2	75	576	1762	76	200	230	101300000	1000	0	0	-1	550	411734836
37.7	65	580	1756	76	200	230	101300000	1000	0	0	-1	550	411747396
40.88	70	584	1757	76	200	230	101300000	1000	0	0	-1	550	411759956
43.05	75	574	1762	76	200	230	101300000	1000	0	0	-1	550	411772516
42.6	75	568	1750	76	200	230	101300000	1000	0	0	-1	550	411785076
39.865	67	595	1754	76	200	230	101300000	1000	0	0	-1	550	411797636
40.066	67	598	1756	76	200	230	101300000	1000	0	0	-1	550	411810196
42.768	72	594	1753	76	200	230	101300000	1000	0	0	-1	550	411822756
44.475	75	593	1759	76	200	230	101300000	1000	0	0	-1	550	411835316
42.984	72	597	1756	76	200	230	101300000	1000	0	0	-1	550	411847876
42.768	72	594	1756	76	200	230	101300000	1000	0	0	-1	550	411860436
43.575	75	581	1763	76	200	230	101300000	1000	0	0	-1	550	411872996
38.86	67	580	1747	76	200	230	101300000	1000	0	0	-1	550	411885556
38.726	67	578	1754	76	200	230	101300000	1000	0	0	-1	550	411898116
42.375	75	565	1759	76	200	230	101300000	1000	0	0	-1	550	411910676
39.48	70	564	1751	76	200	230	101300000	1000	0	0	-1	550	411923236
38.659	67	577	1756	76	200	230	101300000	1000	0	0	-1	550	411935796
40.04	70	572	1760	76	200	230	101300000	1000	0	0	-1	550	411948356
42.225	75	563	1751	76	200	230	101300000	1000	0	0	-1	550	411960916
39.41	70	563	1760	76	200	230	101300000	1000	0	0	-1	550	411973476
39.83	70	569	1754	76	200	230	101300000	1000	0	0	-1	550	411986036
37.18	65	572	1753	76	200	230	101300000	1000	0	0	-1	550	411998596
39.48	70	564	1760	76	200	230	101300000	1000	0	0	-1	550	412011156
40.32	72	560	1750	76	200	230	101300000	1000	0	0	-1	550	412023716
37.245	65	573	1754	76	200	230	101300000	1000	0	0	-1	550	412036276
38.324	67	572	1753	76	200	230	101300000	1000	0	0	-1	550	412048836
37.855	67	565	1753	76	200	230	101300000	1000	0	0	-1	550	412061396
37.855	67	565	1759	76	200	230	101300000	1000	0	0	-1	550	412073956
39.55	70	565	1757	76	200	230	101300000	1000	0	0	-1	550	412086516
43.659	77	567	1757	76	200	230	101300000	1000	0	0	-1	550	412099076
40.464	72	562	1760	76	200	230	101300000	1000	0	0	-1	550	412111636
39.48	70	564	1751	76	200	230	101300000	1000	0	0	-1	550	412124196
41.112	72	571	1753	76	200	230	101300000	1000	0	0	-1	550	412136756
38.056	67	568	1754	76	200	230	101300000	1000	0	0	-1	550	412149316
37.05	65	570	1756	76	200	230	101300000	1000	0	0	-1	550	412161876
37.18	65	572	1757	76	200	230	101300000	1000	0	0	-1	550	412174436
41.112	72	571	1762	76	200	230	101300000	1000	0	0	-1	550	412186996
42.075	75	561	1753	76	200	230	101300000	1000	0	0	-1	550	412199556
40.68	72	565	1760	76	200	230	101300000	1000	0	0	-1	550	412212116
36.985	65	569	1756	76	200	230	101300000	1000	0	0	-1	550	412224676
36.099	63	573	1753	76	200	230	101300000	1000	0	0	-1	550	412237236
37.989	67	567	1759	76	200	230	101300000	1000	0	0	-1	550	412249796
40.392	72	561	1753	76	200	230	101300000	1000	0	0	-1	550	412262356
40.752	72	566	1757	76	200	230	101300000	1000	0	0	-1	550	412274916
36.725	65	565	1762	76	200	230	101300000	1000	0	0	-1	550	412287476
36.595	65	563	1753	76	200	230	101300000	1000	0	0	-1	550	412300036
40.896	72	568	1762	76	200	230	101300000	1000	0	0	-1	550	412312596
39.9	70	570	1756	76	200	230	101300000	1000	0	0	-1	550	412325156
41.256	72	573	1754	76	200	230	101300000	1000	0	0	-1	550	412337716
32.828	58	566	1763	76	200	230	101300000	1000	0	0	-1	550	412350276
40.608	72	564	1750	76	200	230	101300000	1000	0	0	-1	550	412362836
44.121	77	573	1751	76	200	230	101300000	1000	0	0	-1	550	412375396
36.855	65	567	1762	76	200	230	101300000	1000	0	0	-1	550	412387956
36.855	65	567	1751	76	200	230	101300000	1000	0	0	-1	550	412400516
40.896	72	568	1759	76	200	230	101300000	1000	0	0	-1	550	412413076
40.11	70	573	1759	76	200	230	101300000	1000	0	0	-1	550	412425636
38.659	67	577	1754	76	200	230	101300000	1000	0	0	-1	550	412438196
37.31	65	574	1760	76	200	230	101300000	1000	0	0	-1	550	412450756
40.752	72	566	1753	76	200	230	101300000	1000	0	0	-1	550	412463316
41.112	72	571	1754	76	200	230	101300000	1000	0	0	-1	550	412475876
40.25	70	575	1759	76	200	230	101300000	1000	0	0	-1	550	412488436
44.064	72	612	1725	76	200	230	101300000	1000	0	0	-1	600	424387636
46.97	77	610	1719	76	200	230	101300000	1000	0	0	-1	600	424400196
51.408	84	612	1724	76	200	230	101300000	1000	0	0	-1	600	424412756
48.56	80	607	1728	76	200	230	101300000	1000	0	0	-1	600	424425316
45.225	75	603	1724	76	200	230	101300000	1000	0	0	-1	600	424437876
45.975	75	613	1724	76	200	230	101300000	1000	0	0	-1	600	424450436
45.15	75	602	1732	76	200	230	101300000	1000	0	0	-1	600	424462996
42.49	70	607	1718	76	200	230	101300000	1000	0	0	-1	600	424475556
44.064	72	612	1727	76	200	230	101300000	1000	0	0	-1	600	424488116
43.56	72	605	1725	76	200	230	101300000	1000	0	0	-1	600	424500676
48.08	80	601	1722	76	200	230	101300000	1000	0	0	-1	600	424513236
47.92	80	599	1727	76	200	230	101300000	1000	0	0	-1	600	424525796
45.075	75	601	1719	76	200	230	101300000	1000	0	0	-1	600	424538356
45.675	75	609	1724	76	200	230	101300000	1000	0	0	-1	600	424550916
42.84	70	612	1729	76	200	230	101300000	1000	0	0	-1	600	424563476
43.704	72	607	1721	76	200	230	101300000	1000	0	0	-1	600	424576036
50.102	82	611	1728	76	200	230	101300000	1000	0	0	-1	600	424588596
40.602	67	606	1727	76	200	230	101300000	1000	0	0	-1	600	424601156
42.56	70	608	1721	76	200	230	101300000	1000	0	0	-1	600	424613716
48.64	80	608	1724	76	200	230	101300000	1000	0	0	-1	600	424626276
45.225	75	603	1721	76	200	230	101300000	1000	0	0	-1	600	424638836
46.816	77	608	1718	76	200	230	101300000	1000	0	0	-1	600	424651396
42.7	70	610	1728	76	200	230	101300000	1000	0	0	-1	600	424663956
47.795	79	605	1727	76	200	230	101300000	1000	0	0	-1	600	424676516
43.992	72	611	1724	76	200	230	101300000	1000	0	0	-1	600	424689076
40.803	67	609	1728	76	200	230	101300000	1000	0	0	-1	600	424701636
49.364	82	602	1719	76	200	230	101300000	1000	0	0	-1	600	424714196
43.848	72	609	1719	76	200	230	101300000	1000	0	0	-1	600	424726756
44.064	72	612	1724	76	200	230	101300000	1000	0	0	-1	600	424739316
45.15	75	602	1721	76	200	230	101300000	1000	0	0	-1	600	424751876
47.795	79	605	1722	76	200	230	101300000	1000	0	0	-1	600	424764436
47.795	79	605	1728	76	200	230	101300000	1000	0	0	-1	600	424776996
45.675	75	609	1718	76	200	230	101300000	1000	0	0	-1	600	424789556
42.77	70	611	1727	76	200	230	101300000	1000	0	0	-1	600	424802116
47.637	79	603	1725	76	200	230	101300000	1000	0	0	-1	600	424814676
43.56	72	605	1719	76	200	230	101300000	1000	0	0	-1	600	424827236
43.992	72	611	1728	76	200	230	101300000	1000	0	0	-1	600	424839796
44.064	72	612	1718	76	200	230	101300000	1000	0	0	-1	600	424852356
48.72	80	609	1718	76	200	230	101300000	1000	0	0	-1	600	424864916
48.24	80	603	1725	76	200	230	101300000	1000	0	0	-1	600	424877476
46.585	77	605	1721	76	200	230	101300000	1000	0	0	-1	600	424890036
48.8	80	610	1719	76	200	230	101300000	1000	0	0	-1	600	424902596
43.56	72	605	1728	76	200	230	101300000	1000	0	0	-1	600	424915156
43.488	72	604	1718	76	200	230	101300000	1000	0	0	-1	600	424927716
44.208	72	614	1724	76	200	230	101300000	1000	0	0	-1	600	424940276
43.92	72	610	1722	76	200	230	101300000	1000	0	0	-1	600	424952836
46.97	77	610	1721	76	200	230	101300000	1000	0	0	-1	600	424965396
42.98	70	614	1727	76	200	230	101300000	1000	0	0	-1	600	424977956
43.92	72	610	1713	76	200	230	101300000	1000	0	0	-1	600	424990516
50.348	82	614	1716	76	200	230	101300000	1000	0	0	-1	600	425003076
48.24	80	603	1725	76	200	230	101300000	1000	0	0	-1	600	425015636
46.816	77	608	1718	76	200	230	101300000	1000	0	0	-1	600	425028196
47.586	77	618	1719	76	200	230	101300000	1000	0	0	-1	600	425040756
43.992	72	611	1727	76	200	230	101300000	1000	0	0	-1	600	425053316
45.975	75	613	1712	76	200	230	101300000	1000	0	0	-1	600	425065876
43.33	70	619	1722	76	200	230	101300000	1000	0	0	-1	600	425078436
46.739	77	607	1722	76	200	230	101300000	1000	0	0	-1	600	425090996
45.825	75	611	1718	76	200	230	101300000	1000	0	0	-1	600	425103556
43.12	70	616	1716	76	200	230	101300000	1000	0	0	-1	600	425116116
44.28	72	615	1713	76	200	230	101300000	1000	0	0	-1	600	425128676
43.05	70	615	1715	76	200	230	101300000	1000	0	0	-1	600	425141236
42.91	70	613	1721	76	200	230	101300000	1000	0	0	-1	600	425153796
42.98	70	614	1721	76	200	230	101300000	1000	0	0	-1	600	425166356
46.275	75	617	1719	76	200	230	101300000	1000	0	0	-1	600	425178916
44.136	72	613	1722	76	200	230	101300000	1000	0	0	-1	600	425191476
42.42	70	606	1712	76	200	230	101300000	1000	0	0	-1	600	425204036
46.275	75	617	1716	76	200	230	101300000	1000	0	0	-1	600	425216596
43.848	72	609	1719	76	200	230	101300000	1000	0	0	-1	600	425229156
45.3	75	604	1715	76	200	230	101300000	1000	0	0	-1	600	425241716
48.8	80	610	1719	76	200	230	101300000	1000	0	0	-1	600	425254276
45.525	75	607	1721	76	200	230	101300000	1000	0	0	-1	600	425266836
47.201	77	613	1718	76	200	230	101300000	1000	0	0	-1	600	425279396
44.136	72	613	1719	76	200	230	101300000	1000	0	0	-1	600	425291956
42.7	70	610	1721	76	200	230	101300000	1000	0	0	-1	600	425304516
46.585	77	605	1713	76	200	230	101300000	1000	0	0	-1	600	425317076
49.364	82	602	1725	76	200	230	101300000	1000	0	0	-1	600	425329636
46.508	77	604	1710	76	200	230	101300000	1000	0	0	-1	600	425342196
47.201	77	613	1715	76	200	230	101300000	1000	0	0	-1	600	425354756
43.776	72	608	1719	76	200	230	101300000	1000	0	0	-1	600	425367316
43.56	72	605	1712	76	200	230	101300000	1000	0	0	-1	600	425379876
46.662	77	606	1721	76	200	230	101300000	1000	0	0	-1	600	425392436
48.8	80	610	1722	76	200	230	101300000	1000	0	0	-1	600	425404996
47.242	79	598	1710	76	200	230	101300000	1000	0	0	-1	600	425417556
42.42	70	606	1718	76	200	230	101300000	1000	0	0	-1	600	425430116
46.2	75	616	1718	76	200	230	101300000	1000	0	0	-1	600	425442676
45.975	75	613	1716	76	200	230	101300000	1000	0	0	-1	600	425455236
45.6	75	608	1722	76	200	230	101300000	1000	0	0	-1	600	425467796
48.72	80	609	1712	76	200	230	101300000	1000	0	0	-1	600	425480356
43.92	72	610	1716	76	200	230	101300000	1000	0	0	-1	600	425492916
44.424	72	617	1719	76	200	230	101300000	1000	0	0	-1	600	425505476
40.87	67	610	1713	76	200	230	101300000	1000	0	0	-1	600	425518036
47.278	77	614	1718	76	200	230	101300000	1000	0	0	-1	600	425530596
46.662	77	606	1722	76	200	230	101300000	1000	0	0	-1	600	425543156
45.3	75	604	1712	76	200	230	101300000	1000	0	0	-1	600	425555716
43.33	70	619	1721	76	200	230	101300000	1000	0	0	-1	600	425568276
46.97	77	610	1715	76	200	230	101300000	1000	0	0	-1	600	425580836
49.938	82	609	1713	76	200	230	101300000	1000	0	0	-1	600	425593396
45.825	75	611	1721	76	200	230	101300000	1000	0	0	-1	600	425605956
46.425	75	619	1712	76	200	230	101300000	1000	0	0	-1	600	425618516
46.2	75	616	1718	76	200	230	101300000	1000	0	0	-1	600	425631076
48.664	77	632	1709	76	200	230	101300000	1000	0	0	-1	650	435133956
53.172	84	633	1708	76	200	230	101300000	1000	0	0	-1	650	435146516
50.56	80	632	1703	76	200	230	101300000	1000	0	0	-1	650	435159076
48.818	77	634	1709	76	200	230	101300000	1000	0	0	-1	650	435171636
51.988	82	634	1703	76	200	230	101300000	1000	0	0	-1	650	435184196
50.72	80	634	1699	76	200	230	101300000	1000	0	0	-1	650	435196756
51.28	80	641	1709	76	200	230	101300000	1000	0	0	-1	650	435209316
48.356	77	628	1700	76	200	230	101300000	1000	0	0	-1	650	435221876
49.511	77	643	1706	76	200	230	101300000	1000	0	0	-1	650	435234436
47.55	75	634	1702	76	200	230	101300000	1000	0	0	-1	650	435246996
51.824	82	632	1702	76	200	230	101300000	1000	0	0	-1	650	435259556
50.955	79	645	1709	76	200	230	101300000	1000	0	0	-1	650	435272116
53.256	84	634	1709	76	200	230	101300000	1000	0	0	-1	650	435284676
50.96	80	637	1703	76	200	230	101300000	1000	0	0	-1	650	435297236
49.126	77	638	1709	76	200	230	101300000	1000	0	0	-1	650	435309796
52.152	82	636	1705	76	200	230	101300000	1000	0	0	-1	650	435322356
51.2	80	640	1700	76	200	230	101300000	1000	0	0	-1	650	435334916
50.086	79	634	1709	76	200	230	101300000	1000	0	0	-1	650	435347476
50.402	79	638	1700	76	200	230	101300000	1000	0	0	-1	650	435360036
52.48	82	640	1706	76	200	230	101300000	1000	0	0	-1	650	435372596
49.049	77	637	1709	76	200	230	101300000	1000	0	0	-1	650	435385156
45.504	72	632	1702	76	200	230	101300000	1000	0	0	-1	650	435397716
50.96	80	637	1708	76	200	230	101300000	1000	0	0	-1	650	435410276
51.04	80	638	1710	76	200	230	101300000	1000	0	0	-1	650	435422836
51.578	82	629	1702	76	200	230	101300000	1000	0	0	-1	650	435435396
49.742	77	646	1708	76	200	230	101300000	1000	0	0	-1	650	435447956
48.741	77	633	1705	76	200	230	101300000	1000	0	0	-1	650	435460516
53.004	84	631	1700	76	200	230	101300000	1000	0	0	-1	650	435473076
48.895	77	635	1710	76	200	230	101300000	1000	0	0	-1	650	435485636
53.34	84	635	1700	76	200	230	101300000	1000	0	0	-1	650	435498196
52.644	82	642	1706	76	200	230	101300000	1000	0	0	-1	650	435510756
50.56	80	632	1708	76	200	230	101300000	1000	0	0	-1	650	435523316
49.126	77	638	1705	76	200	230	101300000	1000	0	0	-1	650	435535876
49.203	77	639	1706	76	200	230	101300000	1000	0	0	-1	650	435548436
53.844	84	641	1710	76	200	230	101300000	1000	0	0	-1	650	435560996
47.7	75	636	1702	76	200	230	101300000	1000	0	0	-1	650	435573556
52.234	82	637	1703	76	200	230	101300000	1000	0	0	-1	650	435586116
51.2	80	640	1706	76	200	230	101300000	1000	0	0	-1	650	435598676
48.356	77	628	1703	76	200	230	101300000	1000	0	0	-1	650	435611236
52.316	82	638	1709	76	200	230	101300000	1000	0	0	-1	650	435623796
50.323	79	637	1710	76	200	230	101300000	1000	0	0	-1	650	435636356
53.172	84	633	1705	76	200	230	101300000	1000	0	0	-1	650	435648916
47.7	75	636	1708	76	200	230	101300000	1000	0	0	-1	650	435661476
49.049	77	637	1706	76	200	230	101300000	1000	0	0	-1	650	435674036
52.152	82	636	1705	76	200	230	101300000	1000	0	0	-1	650	435686596
44.73	70	639	1712	76	200	230	101300000	1000	0	0	-1	650	435699156
53.172	84	633	1703	76	200	230	101300000	1000	0	0	-1	650	435711716
49.357	77	641	1703	76	200	230	101300000	1000	0	0	-1	650	435724276
53.088	84	632	1708	76	200	230	101300000	1000	0	0	-1	650	435736836
50.72	80	634	1703	76	200	230	101300000	1000	0	0	-1	650	435749396
55.68	87	640	1708	76	200	230	101300000	1000	0	0	-1	650	435761956
49.665	77	645	1712	76	200	230	101300000	1000	0	0	-1	650	435774516
50.32	80	629	1706	76	200	230	101300000	1000	0	0	-1	650	435787076
50.96	80	637	1709	76	200	230	101300000	1000	0	0	-1	650	435799636
48.15	75	642	1709	76	200	230	101300000	1000	0	0	-1	650	435812196
51.824	82	632	1703	76	200	230	101300000	1000	0	0	-1	650	435824756
48.075	75	641	1713	76	200	230	101300000	1000	0	0	-1	650	435837316
49.28	77	640	1700	76	200	230	101300000	1000	0	0	-1	650	435849876
49.434	77	642	1706	76	200	230	101300000	1000	0	0	-1	650	435862436
52.398	82	639	1708	76	200	230	101300000	1000	0	0	-1	650	435874996
49.434	77	642	1705	76	200	230	101300000	1000	0	0	-1	650	435887556
56.96	89	640	1703	76	200	230	101300000	1000	0	0	-1	650	435900116
49.511	77	643	1712	76	200	230	101300000	1000	0	0	-1	650	435912676
47.625	75	635	1702	76	200	230	101300000	1000	0	0	-1	650	435925236
49.434	77	642	1709	76	200	230	101300000	1000	0	0	-1	650	435937796
49.203	77	639	1709	76	200	230	101300000	1000	0	0	-1	650	435950356
52.752	84	628	1703	76	200	230	101300000	1000	0	0	-1	650	435962916
49.511	77	643	1708	76	200	230	101300000	1000	0	0	-1	650	435975476
50.8	80	635	1700	76	200	230	101300000	1000	0	0	-1	650	435988036
51.824	82	632	1702	76	200	230	101300000	1000	0	0	-1	650	436000596
45.01	70	643	1709	76	200	230	101300000	1000	0	0	-1	650	436013156
53.088	84	632	1710	76	200	230	101300000	1000	0	0	-1	650	436025716
49.588	77	644	1706	76	200	230	101300000	1000	0	0	-1	650	436038276
48.51	77	630	1712	76	200	230	101300000	1000	0	0	-1	650	436050836
49.849	79	631	1700	76	200	230	101300000	1000	0	0	-1	650	436063396
51.68	80	646	1705	76	200	230	101300000	1000	0	0	-1	650	436075956
51.742	82	631	1708	76	200	230	101300000	1000	0	0	-1	650	436088516
49.28	77	640	1705	76	200	230	101300000	1000	0	0	-1	650	436101076
48.225	75	643	1705	76	200	230	101300000	1000	0	0	-1	650	436113636
53.508	84	637	1712	76	200	230	101300000	1000	0	0	-1	650	436126196
48.895	77	635	1703	76	200	230	101300000	1000	0	0	-1	650	436138756
55.245	87	635	1709	76	200	230	101300000	1000	0	0	-1	650	436151316
49.511	77	643	1709	76	200	230	101300000	1000	0	0	-1	650	436163876
50.88	80	636	1703	76	200	230	101300000	1000	0	0	-1	650	436176436
52.398	82	639	1713	76	200	230	101300000	1000	0	0	-1	650	436188996
49.434	77	642	1700	76	200	230	101300000	1000	0	0	-1	650	436201556
49.357	77	641	1703	76	200	230	101300000	1000	0	0	-1	650	436214116
48.587	77	631	1709	76	200	230	101300000	1000	0	0	-1	650	436226676
51.824	82	632	1708	76	200	230	101300000	1000	0	0	-1	650	436239236
55.767	87	641	1706	76	200	230	101300000	1000	0	0	-1	650	436251796
49.849	79	631	1712	76	200	230	101300000	1000	0	0	-1	650	436264356
49.049	77	637	1702	76	200	230	101300000	1000	0	0	-1	650	436276916
48.375	75	645	1710	76	200	230	101300000	1000	0	0	-1	650	436289476
55.332	87	636	1708	76	200	230	101300000	1000	0	0	-1	650	436302036
51.742	82	631	1706	76	200	230	101300000	1000	0	0	-1	650	436314596
49.126	77	638	1712	76	200	230	101300000	1000	0	0	-1	650	436327156
52.152	82	636	1703	76	200	230	101300000	1000	0	0	-1	650	436339716
50.007	79	633	1699	76	200	230	101300000	1000	0	0	-1	650	436352276
49.434	77	642	1710	76	200	230	101300000	1000	0	0	-1	650	436364836
48.15	75	642	1705	76	200	230	101300000	1000	0	0	-1	650	436377396
49.612	79	628	1687	76	200	230	101300000	1000	0	0	-1	705	443546876
48.664	77	632	1683	76	200	230	101300000	1000	0	0	-1	705	443559436
53.928	84	642	1688	76	200	230	101300000	1000	0	0	-1	705	443571996
49.049	77	637	1693	76	200	230	101300000	1000	0	0	-1	705	443584556
50.48	80	631	1686	76	200	230	101300000	1000	0	0	-1	705	443597116
49.049	77	637	1688	76	200	230	101300000	1000	0	0	-1	705	443609676
47.625	75	635	1688	76	200	230	101300000	1000	0	0	-1	705	443622236
48.972	77	636	1684	76	200	230	101300000	1000	0	0	-1	705	443634796
47.775	75	637	1694	76	200	230	101300000	1000	0	0	-1	705	443647356
49.77	79	630	1680	76	200	230	101300000	1000	0	0	-1	705	443659916
48.818	77	634	1684	76	200	230	101300000	1000	0	0	-1	705	443672476
50.16	80	627	1687	76	200	230	101300000	1000	0	0	-1	705	443685036
47.775	75	637	1686	76	200	230	101300000	1000	0	0	-1	705	443697596
51.824	82	632	1686	76	200	230	101300000	1000	0	0	-1	705	443710156
52.398	82	639	1691	76	200	230	101300000	1000	0	0	-1	705	443722716
51.25	82	625	1681	76	200	230	101300000	1000	0	0	-1	705	443735276
49.357	77	641	1691	76	200	230	101300000	1000	0	0	-1	705	443747836
49.849	79	631	1687	76	200	230	101300000	1000	0	0	-1	705	443760396
50.08	80	626	1686	76	200	230	101300000	1000	0	0	-1	705	443772956
47.775	75	637	1684	76	200	230	101300000	1000	0	0	-1	705	443785516
51.742	82	631	1686	76	200	230	101300000	1000	0	0	-1	705	443798076
48.51	77	630	1680	76	200	230	101300000	1000	0	0	-1	705	443810636
50.4	80	630	1691	76	200	230	101300000	1000	0	0	-1	705	443823196
47.7	75	636	1688	76	200	230	101300000	1000	0	0	-1	705	443835756
50.16	80	627	1686	76	200	230	101300000	1000	0	0	-1	705	443848316
48.664	77	632	1688	76	200	230	101300000	1000	0	0	-1	705	443860876
50.4	80	630	1686	76	200	230	101300000	1000	0	0	-1	705	443873436
49.28	77	640	1681	76	200	230	101300000	1000	0	0	-1	705	443885996
50.16	80	627	1691	76	200	230	101300000	1000	0	0	-1	705	443898556
48.587	77	631	1681	76	200	230	101300000	1000	0	0	-1	705	443911116
50.56	80	632	1686	76	200	230	101300000	1000	0	0	-1	705	443923676
52.92	84	630	1688	76	200	230	101300000	1000	0	0	-1	705	443936236
49.849	79	631	1681	76	200	230	101300000	1000	0	0	-1	705	443948796
53.34	84	635	1687	76	200	230	101300000	1000	0	0	-1	705	443961356
48.741	77	633	1694	76	200	230	101300000	1000	0	0	-1	705	443973916
51.414	82	627	1683	76	200	230	101300000	1000	0	0	-1	705	443986476
48.15	75	642	1688	76	200	230	101300000	1000	0	0	-1	705	443999036
51.742	82	631	1690	76	200	230	101300000	1000	0	0	-1	705	444011596
47.25	75	630	1686	76	200	230	101300000	1000	0	0	-1	705	444024156
51.824	82	632	1693	76	200	230	101300000	1000	0	0	-1	705	444036716
49.434	77	642	1681	76	200	230	101300000	1000	0	0	-1	705	444049276
48.356	77	628	1681	76	200	230	101300000	1000	0	0	-1	705	444061836
49.126	77	638	1691	76	200	230	101300000	1000	0	0	-1	705	444074396
47.775	75	637	1687	76	200	230	101300000	1000	0	0	-1	705	444086956
51.988	82	634	1686	76	200	230	101300000	1000	0	0	-1	705	444099516
45.504	72	632	1688	76	200	230	101300000	1000	0	0	-1	705	444112076
50.24	80	628	1684	76	200	230	101300000	1000	0	0	-1	705	444124636
49.049	77	637	1691	76	200	230	101300000	1000	0	0	-1	705	444137196
51.66	82	630	1688	76	200	230	101300000	1000	0	0	-1	705	444149756
48.202	77	626	1684	76	200	230	101300000	1000	0	0	-1	705	444162316
51.988	82	634	1686	76	200	230	101300000	1000	0	0	-1	705	444174876
48.895	77	635	1687	76	200	230	101300000	1000	0	0	-1	705	444187436
51.824	82	632	1683	76	200	230	101300000	1000	0	0	-1	705	444199996
48.15	75	642	1688	76	200	230	101300000	1000	0	0	-1	705	444212556
51.742	82	631	1691	76	200	230	101300000	1000	0	0	-1	705	444225116
48.664	77	632	1686	76	200	230	101300000	1000	0	0	-1	705	444237676
51.988	82	634	1688	76	200	230	101300000	1000	0	0	-1	705	444250236
48.741	77	633	1688	76	200	230	101300000	1000	0	0	-1	705	444262796
51.66	82	630	1683	76	200	230	101300000	1000	0	0	-1	705	444275356
47.55	75	634	1694	76	200	230	101300000	1000	0	0	-1	705	444287916
47.55	75	634	1681	76	200	230	101300000	1000	0	0	-1	705	444300476
55.158	87	634	1686	76	200	230	101300000	1000	0	0	-1	705	444313036
48.972	77	636	1688	76	200	230	101300000	1000	0	0	-1	705	444325596
45.216	72	628	1686	76	200	230	101300000	1000	0	0	-1	705	444338156
50.323	79	637	1687	76	200	230	101300000	1000	0	0	-1	705	444350716
48.279	77	627	1691	76	200	230	101300000	1000	0	0	-1	705	444363276
49.454	79	626	1681	76	200	230	101300000	1000	0	0	-1	705	444375836
45.864	72	637	1690	76	200	230	101300000	1000	0	0	-1	705	444388396
52.92	84	630	1688	76	200	230	101300000	1000	0	0	-1	705	444400956
47.4	75	632	1687	76	200	230	101300000	1000	0	0	-1	705	444413516
51.742	82	631	1686	76	200	230	101300000	1000	0	0	-1	705	444426076
49.049	77	637	1683	76	200	230	101300000	1000	0	0	-1	705	444438636
50.32	80	629	1681	76	200	230	101300000	1000	0	0	-1	705	444451196
49.77	79	630	1691	76	200	230	101300000	1000	0	0	-1	705	444463756
48.741	77	633	1684	76	200	230	101300000	1000	0	0	-1	705	444476316
52.752	84	628	1686	76	200	230	101300000	1000	0	0	-1	705	444488876
47.475	75	633	1688	76	200	230	101300000	1000	0	0	-1	705	444501436
47.4	75	632	1686	76	200	230	101300000	1000	0	0	-1	705	444513996
49.203	77	639	1690	76	200	230	101300000	1000	0	0	-1	705	444526556
48.51	77	630	1690	76	200	230	101300000	1000	0	0	-1	705	444539116
49.84	80	623	1683	76	200	230	101300000	1000	0	0	-1	705	444551676
50.323	79	637	1687	76	200	230	101300000	1000	0	0	-1	705	444564236
45.72	72	635	1687	76	200	230	101300000	1000	0	0	-1	705	444576796
52.332	84	623	1684	76	200	230	101300000	1000	0	0	-1	705	444589356
50.64	80	633	1687	76	200	230	101300000	1000	0	0	-1	705	444601916
48.741	77	633	1693	76	200	230	101300000	1000	0	0	-1	705	444614476
50	80	625	1686	76	200	230	101300000	1000	0	0	-1	705	444627036
47.925	75	639	1687	76	200	230	101300000	1000	0	0	-1	705	444639596
48.741	77	633	1690	76	200	230	101300000	1000	0	0	-1	705	444652156
51.12	80	639	1684	76	200	230	101300000	1000	0	0	-1	705	444664716
50.48	80	631	1694	76	200	230	101300000	1000	0	0	-1	705	444677276
50.56	80	632	1681	76	200	230	101300000	1000	0	0	-1	705	444689836
47.625	75	635	1684	76	200	230	101300000	1000	0	0	-1	705	444702396
51.66	82	630	1690	76	200	230	101300000	1000	0	0	-1	705	444714956
48.741	77	633	1687	76	200	230	101300000	1000	0	0	-1	705	444727516
51.824	82	632	1687	76	200	230	101300000	1000	0	0	-1	705	444740076
47.55	75	634	1691	76	200	230	101300000	1000	0	0	-1	705	444752636
44.31	70	633	1683	76	200	230	101300000	1000	0	0	-1	705	444765196
55.332	87	636	1694	76	200	230	101300000	1000	0	0	-1	705	444777756
48.741	77	633	1690	76	200	230	101300000	1000	0	0	-1	705	444790316
51.824	82	632	1678	76	200	230	101300000	1000	0	0	-1	750	454346516
49.203	77	639	1683	76	200	230	101300000	1000	0	0	-1	750	454359076
49.049	77	637	1690	76	200	230	101300000	1000	0	0	-1	750	454371636
51.414	82	627	1675	76	200	230	101300000	1000	0	0	-1	750	454384196
49.357	77	641	1686	76	200	230	101300000	1000	0	0	-1	750	454396756
51.578	82	629	1684	76	200	230	101300000	1000	0	0	-1	750	454409316
50.24	80	628	1681	76	200	230	101300000	1000	0	0	-1	750	454421876
48.15	75	642	1681	76	200	230	101300000	1000	0	0	-1	750	454434436
48.433	77	629	1678	76	200	230	101300000	1000	0	0	-1	750	454446996
52.752	84	628	1677	76	200	230	101300000	1000	0	0	-1	750	454459556
47.55	75	634	1687	76	200	230	101300000	1000	0	0	-1	750	454472116
50.481	79	639	1684	76	200	230	101300000	1000	0	0	-1	750	454484676
50.48	80	631	1683	76	200	230	101300000	1000	0	0	-1	750	454497236
51.66	82	630	1684	76	200	230	101300000	1000	0	0	-1	750	454509796
48.587	77	631	1683	76	200	230	101300000	1000	0	0	-1	750	454522356
51.36	80	642	1677	76	200	230	101300000	1000	0	0	-1	750	454534916
47.475	75	633	1688	76	200	230	101300000	1000	0	0	-1	750	454547476
51.496	82	628	1677	76	200	230	101300000	1000	0	0	-1	750	454560036
49.049	77	637	1683	76	200	230	101300000	1000	0	0	-1	750	454572596
47.475	75	633	1683	76	200	230	101300000	1000	0	0	-1	750	454585156
48.664	77	632	1681	76	200	230	101300000	1000	0	0	-1	750	454597716
53.508	84	637	1683	76	200	230	101300000	1000	0	0	-1	750	454610276
54.984	87	632	1690	76	200	230	101300000	1000	0	0	-1	750	454622836
48.356	77	628	1681	76	200	230	101300000	1000	0	0	-1	750	454635396
48.972	77	636	1684	76	200	230	101300000	1000	0	0	-1	750	454647956
51.12	80	639	1684	76	200	230	101300000	1000	0	0	-1	750	454660516
47.55	75	634	1683	76	200	230	101300000	1000	0	0	-1	750	454673076
50.64	80	633	1687	76	200	230	101300000	1000	0	0	-1	750	454685636
53.088	84	632	1677	76	200	230	101300000	1000	0	0	-1	750	454698196
47.85	75	638	1678	76	200	230	101300000	1000	0	0	-1	750	454710756
49.049	77	637	1687	76	200	230	101300000	1000	0	0	-1	750	454723316
51.824	82	632	1681	76	200	230	101300000	1000	0	0	-1	750	454735876
55.071	87	633	1680	76	200	230	101300000	1000	0	0	-1	750	454748436
45.144	72	627	1686	76	200	230	101300000	1000	0	0	-1	750	454760996
47.325	75	631	1681	76	200	230	101300000	1000	0	0	-1	750	454773556
50.56	80	632	1686	76	200	230	101300000	1000	0	0	-1	750	454786116
52.92	84	630	1684	76	200	230	101300000	1000	0	0	-1	750	454798676
45.36	72	630	1681	76	200	230	101300000	1000	0	0	-1	750	454811236
49.357	77	641	1681	76	200	230	101300000	1000	0	0	-1	750	454823796
47.4	75	632	1681	76	200	230	101300000	1000	0	0	-1	750	454836356
52.5	84	625	1678	76	200	230	101300000	1000	0	0	-1	750	454848916
47.85	75	638	1683	76	200	230	101300000	1000	0	0	-1	750	454861476
49.049	77	637	1688	76	200	230	101300000	1000	0	0	-1	750	454874036
49.375	79	625	1681	76	200	230	101300000	1000	0	0	-1	750	454886596
50.086	79	634	1681	76	200	230	101300000	1000	0	0	-1	750	454899156
48.587	77	631	1683	76	200	230	101300000	1000	0	0	-1	750	454911716
47.85	75	638	1680	76	200	230	101300000	1000	0	0	-1	750	454924276
47.4	75	632	1688	76	200	230	101300000	1000	0	0	-1	750	454936836
51.742	82	631	1675	76	200	230	101300000	1000	0	0	-1	750	454949396
50.165	79	635	1678	76	200	230	101300000	1000	0	0	-1	750	454961956
45.72	72	635	1684	76	200	230	101300000	1000	0	0	-1	750	454974516
48.895	77	635	1683	76	200	230	101300000	1000	0	0	-1	750	454987076
53.088	84	632	1680	76	200	230	101300000	1000	0	0	-1	750	454999636
52.152	82	636	1687	76	200	230	101300000	1000	0	0	-1	750	455012196
45.36	72	630	1677	76	200	230	101300000	1000	0	0	-1	750	455024756
52.234	82	637	1687	76	200	230	101300000	1000	0	0	-1	750	455037316
47.625	75	635	1684	76	200	230	101300000	1000	0	0	-1	750	455049876
49.454	79	626	1680	76	200	230	101300000	1000	0	0	-1	750	455062436
52.398	82	639	1681	76	200	230	101300000	1000	0	0	-1	750	455074996
48.895	77	635	1680	76	200	230	101300000	1000	0	0	-1	750	455087556
48.664	77	632	1678	76	200	230	101300000	1000	0	0	-1	750	455100116
52.07	82	635	1684	76	200	230	101300000	1000	0	0	-1	750	455112676
49.049	77	637	1687	76	200	230	101300000	1000	0	0	-1	750	455125236
51.66	82	630	1680	76	200	230	101300000	1000	0	0	-1	750	455137796
48.356	77	628	1681	76	200	230	101300000	1000	0	0	-1	750	455150356
50.165	79	635	1683	76	200	230	101300000	1000	0	0	-1	750	455162916
52.668	84	627	1680	76	200	230	101300000	1000	0	0	-1	750	455175476
45.576	72	633	1688	76	200	230	101300000	1000	0	0	-1	750	455188036
48.972	77	636	1672	76	200	230	101300000	1000	0	0	-1	750	455200596
50.007	79	633	1681	76	200	230	101300000	1000	0	0	-1	750	455213156
49.126	77	638	1683	76	200	230	101300000	1000	0	0	-1	750	455225716
48.279	77	627	1678	76	200	230	101300000	1000	0	0	-1	750	455238276
48	75	640	1683	76	200	230	101300000	1000	0	0	-1	750	455250836
48.664	77	632	1684	76	200	230	101300000	1000	0	0	-1	750	455263396
50.16	80	627	1675	76	200	230	101300000	1000	0	0	-1	750	455275956
48.15	75	642	1684	76	200	230	101300000	1000	0	0	-1	750	455288516
51.906	82	633	1683	76	200	230	101300000	1000	0	0	-1	750	455301076
48.279	77	627	1681	76	200	230	101300000	1000	0	0	-1	750	455313636
51.988	82	634	1683	76	200	230	101300000	1000	0	0	-1	750	455326196
47.625	75	635	1678	76	200	230	101300000	1000	0	0	-1	750	455338756
52.752	84	628	1675	76	200	230	101300000	1000	0	0	-1	750	455351316
45.72	72	635	1684	76	200	230	101300000	1000	0	0	-1	750	455363876
50.32	80	629	1675	76	200	230	101300000	1000	0	0	-1	750	455376436
53.676	84	639	1681	76	200	230	101300000	1000	0	0	-1	750	455388996
47.625	75	635	1681	76	200	230	101300000	1000	0	0	-1	750	455401556
50.32	80	629	1683	76	200	230	101300000	1000	0	0	-1	750	455414116
47.85	75	638	1681	76	200	230	101300000	1000	0	0	-1	750	455426676
51.496	82	628	1687	76	200	230	101300000	1000	0	0	-1	750	455439236
47.475	75	633	1677	76	200	230	101300000	1000	0	0	-1	750	455451796
51.988	82	634	1680	76	200	230	101300000	1000	0	0	-1	750	455464356
47.625	75	635	1683	76	200	230	101300000	1000	0	0	-1	750	455476916
51.414	82	627	1680	76	200	230	101300000	1000	0	0	-1	750	455489476
52.07	82	635	1681	76	200	230	101300000	1000	0	0	-1	750	455502036
50.72	80	634	1686	76	200	230	101300000	1000	0	0	-1	750	455514596
49.375	79	625	1677	76	200	230	101300000	1000	0	0	-1	750	455527156
49.28	77	640	1686	76	200	230	101300000	1000	0	0	-1	750	455539716
50.56	80	632	1681	76	200	230	101300000	1000	0	0	-1	750	455552276
50.88	80	636	1681	76	200	230	101300000	1000	0	0	-1	750	455564836
50.48	80	631	1684	76	200	230	101300000	1000	0	0	-1	750	455577396
47.55	75	634	1680	76	200	230	101300000	1000	0	0	-1	750	455589956
47.775	75	637	1686	76	200	230	101300000	1000	0	0	-1	800	464764596
45.432	72	631	1678	76	200	230	101300000	1000	0	0	-1	800	464777156
56.515	89	635	1683	76	200	230	101300000	1000	0	0	-1	800	464789716
48.741	77	633	1683	76	200	230	101300000	1000	0	0	-1	800	464802276
48.818	77	634	1680	76	200	230	101300000	1000	0	0	-1	800	464814836
52.234	82	637	1683	76	200	230	101300000	1000	0	0	-1	800	464827396
49.126	77	638	1690	76	200	230	101300000	1000	0	0	-1	800	464839956
48.664	77	632	1677	76	200	230	101300000	1000	0	0	-1	800	464852516
55.332	87	636	1684	76	200	230	101300000	1000	0	0	-1	800	464865076
48.664	77	632	1686	76	200	230	101300000	1000	0	0	-1	800	464877636
51.824	82	632	1683	76	200	230	101300000	1000	0	0	-1	800	464890196
52.07	82	635	1683	76	200	230	101300000	1000	0	0	-1	800	464902756
47.7	75	636	1677	76	200	230	101300000	1000	0	0	-1	800	464915316
49.28	77	640	1680	76	200	230	101300000	1000	0	0	-1	800	464927876
50.4	80	630	1687	76	200	230	101300000	1000	0	0	-1	800	464940436
48.895	77	635	1686	76	200	230	101300000	1000	0	0	-1	800	464952996
48.972	77	636	1683	76	200	230	101300000	1000	0	0	-1	800	464965556
50.56	80	632	1686	76	200	230	101300000	1000	0	0	-1	800	464978116
47.625	75	635	1681	76	200	230	101300000	1000	0	0	-1	800	464990676
53.34	84	635	1680	76	200	230	101300000	1000	0	0	-1	800	465003236
47.625	75	635	1687	76	200	230	101300000	1000	0	0	-1	800	465015796
53.004	84	631	1680	76	200	230	101300000	1000	0	0	-1	800	465028356
49.28	77	640	1684	76	200	230	101300000	1000	0	0	-1	800	465040916
53.004	84	631	1686	76	200	230	101300000	1000	0	0	-1	800	465053476
47.325	75	631	1677	76	200	230	101300000	1000	0	0	-1	800	465066036
49.357	77	641	1687	76	200	230	101300000	1000	0	0	-1	800	465078596
49.849	79	631	1690	76	200	230	101300000	1000	0	0	-1	800	465091156
50.4	80	630	1678	76	200	230	101300000	1000	0	0	-1	800	465103716
49.357	77	641	1686	76	200	230	101300000	1000	0	0	-1	800	465116276
49.049	77	637	1686	76	200	230	101300000	1000	0	0	-1	800	465128836
52.92	84	630	1681	76	200	230	101300000	1000	0	0	-1	800	465141396
48	75	640	1684	76	200	230	101300000	1000	0	0	-1	800	465153956
51.824	82	632	1678	76	200	230	101300000	1000	0	0	-1	800	465166516
47.85	75	638	1681	76	200	230	101300000	1000	0	0	-1	800	465179076
51.824	82	632	1687	76	200	230	101300000	1000	0	0	-1	800	465191636
47.85	75	638	1686	76	200	230	101300000	1000	0	0	-1	800	465204196
52.234	82	637	1683	76	200	230	101300000	1000	0	0	-1	800	465216756
51.742	82	631	1690	76	200	230	101300000	1000	0	0	-1	800	465229316
49.049	77	637	1678	76	200	230	101300000	1000	0	0	-1	800	465241876
52.152	82	636	1680	76	200	230	101300000	1000	0	0	-1	800	465254436
50.88	80	636	1686	76	200	230	101300000	1000	0	0	-1	800	465266996
47.325	75	631	1683	76	200	230	101300000	1000	0	0	-1	800	465279556
53.172	84	633	1683	76	200	230	101300000	1000	0	0	-1	800	465292116
51.04	80	638	1681	76	200	230	101300000	1000	0	0	-1	800	465304676
50.32	80	629	1678	76	200	230	101300000	1000	0	0	-1	800	465317236
50.8	80	635	1688	76	200	230	101300000	1000	0	0	-1	800	465329796
45.864	72	637	1687	76	200	230	101300000	1000	0	0	-1	800	465342356
53.004	84	631	1683	76	200	230	101300000	1000	0	0	-1	800	465354916
47.775	75	637	1686	76	200	230	101300000	1000	0	0	-1	800	465367476
51.824	82	632	1683	76	200	230	101300000	1000	0	0	-1	800	465380036
47.775	75	637	1681	76	200	230	101300000	1000	0	0	-1	800	465392596
47.175	75	629	1688	76	200	230	101300000	1000	0	0	-1	800	465405156
51.906	82	633	1678	76	200	230	101300000	1000	0	0	-1	800	465417716
49.434	77	642	1681	76	200	230	101300000	1000	0	0	-1	800	465430276
49.691	79	629	1684	76	200	230	101300000	1000	0	0	-1	800	465442836
48.664	77	632	1681	76	200	230	101300000	1000	0	0	-1	800	465455396
50.64	80	633	1683	76	200	230	101300000	1000	0	0	-1	800	465467956
51.824	82	632	1688	76	200	230	101300000	1000	0	0	-1	800	465480516
45.648	72	634	1678	76	200	230	101300000	1000	0	0	-1	800	465493076
49.588	77	644	1684	76	200	230	101300000	1000	0	0	-1	800	465505636
52.92	84	630	1684	76	200	230	101300000	1000	0	0	-1	800	465518196
47.4	75	632	1681	76	200	230	101300000	1000	0	0	-1	800	465530756
47.925	75	639	1683	76	200	230	101300000	1000	0	0	-1	800	465543316
51.824	82	632	1678	76	200	230	101300000	1000	0	0	-1	800	465555876
51.988	82	634	1674	76	200	230	101300000	1000	0	0	-1	800	465568436
47.475	75	633	1688	76	200	230	101300000	1000	0	0	-1	800	465580996
50.48	80	631	1683	76	200	230	101300000	1000	0	0	-1	800	465593556
47.7	75	636	1681	76	200	230	101300000	1000	0	0	-1	800	465606116
47.625	75	635	1684	76	200	230	101300000	1000	0	0	-1	800	465618676
51.742	82	631	1681	76	200	230	101300000	1000	0	0	-1	800	465631236
50.718	79	642	1677	76	200	230	101300000	1000	0	0	-1	800	465643796
51.742	82	631	1686	76	200	230	101300000	1000	0	0	-1	800	465656356
48.356	77	628	1680	76	200	230	101300000	1000	0	0	-1	800	465668916
49.665	77	645	1683	76	200	230	101300000	1000	0	0	-1	800	465681476
53.004	84	631	1684	76	200	230	101300000	1000	0	0	-1	800	465694036
45.576	72	633	1678	76	200	230	101300000	1000	0	0	-1	800	465706596
47.925	75	639	1683	76	200	230	101300000	1000	0	0	-1	800	465719156
51.742	82	631	1687	76	200	230	101300000	1000	0	0	-1	800	465731716
49.612	79	628	1678	76	200	230	101300000	1000	0	0	-1	800	465744276
49.434	77	642	1684	76	200	230	101300000	1000	0	0	-1	800	465756836
51.906	82	633	1683	76	200	230	101300000	1000	0	0	-1	800	465769396
50.4	80	630	1681	76	200	230	101300000	1000	0	0	-1	800	465781956
49.126	77	638	1681	76	200	230	101300000	1000	0	0	-1	800	465794516
49.28	77	640	1677	76	200	230	101300000	1000	0	0	-1	800	465807076
53.172	84	633	1678	76	200	230	101300000	1000	0	0	-1	800	465819636
48	75	640	1686	76	200	230	101300000	1000	0	0	-1	800	465832196
50.48	80	631	1683	76	200	230	101300000	1000	0	0	-1	800	465844756
52.234	82	637	1681	76	200	230	101300000	1000	0	0	-1	800	465857316
49.049	77	637	1684	76	200	230	101300000	1000	0	0	-1	800	465869876
51.824	82	632	1681	76	200	230	101300000	1000	0	0	-1	800	465882436
49.434	77	642	1687	76	200	230	101300000	1000	0	0	-1	800	465894996
50.086	79	634	1686	76	200	230	101300000	1000	0	0	-1	800	465907556
49.612	79	628	1680	76	200	230	101300000	1000	0	0	-1	800	465920116
48.15	75	642	1684	76	200	230	101300000	1000	0	0	-1	800	465932676
47.625	75	635	1681	76	200	230	101300000	1000	0	0	-1	800	465945236
52.668	84	627	1681	76	200	230	101300000	1000	0	0	-1	800	465957796
48	75	640	1684	76	200	230	101300000	1000	0	0	-1	800	465970356
52.398	82	639	1688	76	200	230	101300000	1000	0	0	-1	800	465982916
51.578	82	629	1680	76	200	230	101300000	1000	0	0	-1	800	465995476
52.07	82	635	1683	76	200	230	101300000	1000	0	0	-1	800	466008036
52.48	82	640	1696	76	200	230	101300000	1000	0	0	-1	850	477869996
51.2	80	640	1694	76	200	230	101300000	1000	0	0	-1	850	477882556
48.075	75	641	1693	76	200	230	101300000	1000	0	0	-1	850	477895116
51.742	82	631	1694	76	200	230	101300000	1000	0	0	-1	850	477907676
48.972	77	636	1688	76	200	230	101300000	1000	0	0	-1	850	477920236
49.588	77	644	1686	76	200	230	101300000	1000	0	0	-1	850	477932796
48.972	77	636	1694	76	200	230	101300000	1000	0	0	-1	850	477945356
45.576	72	633	1690	76	200	230	101300000	1000	0	0	-1	850	477957916
55.593	87	639	1690	76	200	230	101300000	1000	0	0	-1	850	477970476
49.203	77	639	1694	76	200	230	101300000	1000	0	0	-1	850	477983036
52.92	84	630	1686	76	200	230	101300000	1000	0	0	-1	850	477995596
46.368	72	644	1697	76	200	230	101300000	1000	0	0	-1	850	478008156
53.424	84	636	1694	76	200	230	101300000	1000	0	0	-1	850	478020716
48.818	77	634	1688	76	200	230	101300000	1000	0	0	-1	850	478033276
50.88	80	636	1694	76	200	230	101300000	1000	0	0	-1	850	478045836
49.203	77	639	1691	76	200	230	101300000	1000	0	0	-1	850	478058396
50.72	80	634	1688	76	200	230	101300000	1000	0	0	-1	850	478070956
50.96	80	637	1693	76	200	230	101300000	1000	0	0	-1	850	478083516
48	75	640	1688	76	200	230	101300000	1000	0	0	-1	850	478096076
53.34	84	635	1691	76	200	230	101300000	1000	0	0	-1	850	478108636
47.85	75	638	1693	76	200	230	101300000	1000	0	0	-1	850	478121196
47.85	75	638	1688	76	200	230	101300000	1000	0	0	-1	850	478133756
53.424	84	636	1691	76	200	230	101300000	1000	0	0	-1	850	478146316
49.357	77	641	1700	76	200	230	101300000	1000	0	0	-1	850	478158876
49.691	79	629	1686	76	200	230	101300000	1000	0	0	-1	850	478171436
52.808	82	644	1693	76	200	230	101300000	1000	0	0	-1	850	478183996
50.481	79	639	1694	76	200	230	101300000	1000	0	0	-1	850	478196556
52.752	84	628	1690	76	200	230	101300000	1000	0	0	-1	850	478209116
49.28	77	640	1690	76	200	230	101300000	1000	0	0	-1	850	478221676
52.07	82	635	1684	76	200	230	101300000	1000	0	0	-1	850	478234236
48.895	77	635	1690	76	200	230	101300000	1000	0	0	-1	850	478246796
50.88	80	636	1693	76	200	230	101300000	1000	0	0	-1	850	478259356
49.049	77	637	1693	76	200	230	101300000	1000	0	0	-1	850	478271916
50.88	80	636	1691	76	200	230	101300000	1000	0	0	-1	850	478284476
48.664	77	632	1697	76	200	230	101300000	1000	0	0	-1	850	478297036
50.56	80	632	1687	76	200	230	101300000	1000	0	0	-1	850	478309596
48.15	75	642	1687	76	200	230	101300000	1000	0	0	-1	850	478322156
50.56	80	632	1693	76	200	230	101300000	1000	0	0	-1	850	478334716
45.792	72	636	1693	76	200	230	101300000	1000	0	0	-1	850	478347276
50.323	79	637	1690	76	200	230	101300000	1000	0	0	-1	850	478359836
47.925	75	639	1693	76	200	230	101300000	1000	0	0	-1	850	478372396
50.48	80	631	1686	76	200	230	101300000	1000	0	0	-1	850	478384956
51.04	80	638	1697	76	200	230	101300000	1000	0	0	-1	850	478397516
53.34	84	635	1693	76	200	230	101300000	1000	0	0	-1	850	478410076
48.741	77	633	1688	76	200	230	101300000	1000	0	0	-1	850	478422636
53.424	84	636	1693	76	200	230	101300000	1000	0	0	-1	850	478435196
51.52	80	644	1691	76	200	230	101300000	1000	0	0	-1	850	478447756
55.158	87	634	1686	76	200	230	101300000	1000	0	0	-1	850	478460316
49.511	77	643	1696	76	200	230	101300000	1000	0	0	-1	850	478472876
50.88	80	636	1686	76	200	230	101300000	1000	0	0	-1	850	478485436
52.398	82	639	1693	76	200	230	101300000	1000	0	0	-1	850	478497996
46.152	72	641	1693	76	200	230	101300000	1000	0	0	-1	850	478510556
53.172	84	633	1691	76	200	230	101300000	1000	0	0	-1	850	478523116
51.6	80	645	1691	76	200	230	101300000	1000	0	0	-1	850	478535676
53.172	84	633	1697	76	200	230	101300000	1000	0	0	-1	850	478548236
50.72	80	634	1687	76	200	230	101300000	1000	0	0	-1	850	478560796
51.36	80	642	1688	76	200	230	101300000	1000	0	0	-1	850	478573356
53.172	84	633	1691	76	200	230	101300000	1000	0	0	-1	850	478585916
51.04	80	638	1688	76	200	230	101300000	1000	0	0	-1	850	478598476
49.126	77	638	1691	76	200	230	101300000	1000	0	0	-1	850	478611036
50.64	80	633	1684	76	200	230	101300000	1000	0	0	-1	850	478623596
48	75	640	1690	76	200	230	101300000	1000	0	0	-1	850	478636156
52.234	82	637	1694	76	200	230	101300000	1000	0	0	-1	850	478648716
52.562	82	641	1691	76	200	230	101300000	1000	0	0	-1	850	478661276
52.152	82	636	1691	76	200	230	101300000	1000	0	0	-1	850	478673836
53.34	84	635	1696	76	200	230	101300000	1000	0	0	-1	850	478686396
48.225	75	643	1686	76	200	230	101300000	1000	0	0	-1	850	478698956
53.508	84	637	1687	76	200	230	101300000	1000	0	0	-1	850	478711516
49.126	77	638	1694	76	200	230	101300000	1000	0	0	-1	850	478724076
51.824	82	632	1690	76	200	230	101300000	1000	0	0	-1	850	478736636
51.76	80	647	1688	76	200	230	101300000	1000	0	0	-1	850	478749196
52.07	82	635	1693	76	200	230	101300000	1000	0	0	-1	850	478761756
48.895	77	635	1684	76	200	230	101300000	1000	0	0	-1	850	478774316
52.48	82	640	1696	76	200	230	101300000	1000	0	0	-1	850	478786876
49.434	77	642	1691	76	200	230	101300000	1000	0	0	-1	850	478799436
53.424	84	636	1687	76	200	230	101300000	1000	0	0	-1	850	478811996
51.52	80	644	1693	76	200	230	101300000	1000	0	0	-1	850	478824556
51.906	82	633	1688	76	200	230	101300000	1000	0	0	-1	850	478837116
51.2	80	640	1684	76	200	230	101300000	1000	0	0	-1	850	478849676
53.256	84	634	1694	76	200	230	101300000	1000	0	0	-1	850	478862236
49.511	77	643	1686	76	200	230	101300000	1000	0	0	-1	850	478874796
52.152	82	636	1691	76	200	230	101300000	1000	0	0	-1	850	478887356
47.775	75	637	1690	76	200	230	101300000	1000	0	0	-1	850	478899916
48.51	77	630	1688	76	200	230	101300000	1000	0	0	-1	850	478912476
49.511	77	643	1691	76	200	230	101300000	1000	0	0	-1	850	478925036
48.818	77	634	1697	76	200	230	101300000	1000	0	0	-1	850	478937596
48.433	77	629	1686	76	200	230	101300000	1000	0	0	-1	850	478950156
51.52	80	644	1687	76	200	230	101300000	1000	0	0	-1	850	478962716
52.152	82	636	1691	76	200	230	101300000	1000	0	0	-1	850	478975276
49.126	77	638	1688	76	200	230	101300000	1000	0	0	-1	850	478987836
49.049	77	637	1688	76	200	230	101300000	1000	0	0	-1	850	479000396
49.434	77	642	1696	76	200	230	101300000	1000	0	0	-1	850	479012956
47.775	75	637	1687	76	200	230	101300000	1000	0	0	-1	850	479025516
50.72	80	634	1693	76	200	230	101300000	1000	0	0	-1	850	479038076
47.925	75	639	1693	76	200	230	101300000	1000	0	0	-1	850	479050636
50.56	80	632	1688	76	200	230	101300000	1000	0	0	-1	850	479063196
48.818	77	634	1696	76	200	230	101300000	1000	0	0	-1	850	479075756
53.424	84	636	1686	76	200	230	101300000	1000	0	0	-1	850	479088316
51.52	80	644	1686	76	200	230	101300000	1000	0	0	-1	850	479100876
50.48	80	631	1696	76	200	230	101300000	1000	0	0	-1	850	479113436
51.52	80	644	1706	76	200	230	101300000	1000	0	0	-1	900	486203436
54.18	84	645	1706	76	200	230	101300000	1000	0	0	-1	900	486215996
53.592	84	638	1710	76	200	230	101300000	1000	0	0	-1	900	486228556
49.28	77	640	1702	76	200	230	101300000	1000	0	0	-1	900	486241116
52.08	80	651	1712	76	200	230	101300000	1000	0	0	-1	900	486253676
49.665	77	645	1708	76	200	230	101300000	1000	0	0	-1	900	486266236
51.2	80	640	1705	76	200	230	101300000	1000	0	0	-1	900	486278796
52.89	82	645	1706	76	200	230	101300000	1000	0	0	-1	900	486291356
56.115	87	645	1705	76	200	230	101300000	1000	0	0	-1	900	486303916
52.48	82	640	1700	76	200	230	101300000	1000	0	0	-1	900	486316476
48.675	75	649	1710	76	200	230	101300000	1000	0	0	-1	900	486329036
51.84	80	648	1708	76	200	230	101300000	1000	0	0	-1	900	486341596
48	75	640	1706	76	200	230	101300000	1000	0	0	-1	900	486354156
53.844	84	641	1709	76	200	230	101300000	1000	0	0	-1	900	486366716
