timestamp	voltage	current	windSpeed	pitchAngle	rpm	temperature	ambientPressure	humidity	accelerationX	accelerationY	accelerationZ	currentSink
7039070	6014	863	0	-100	0	230	101300000	1000	0	0	-1	0
7046523	6016	866	0	-100	0	230	101300000	1000	0	0	-1	0
7059083	6021	843	0	-100	0	230	101300000	1000	0	0	-1	0
7071643	6029	854	0	-100	0	230	101300000	1000	0	0	-1	0
7084203	6015	866	0	-100	0	230	101300000	1000	0	0	-1	0
7096763	6014	859	0	-100	0	230	101300000	1000	0	0	-1	0
7109323	6014	854	0	-100	0	230	101300000	1000	0	0	-1	0
7121883	6020	847	0	-100	0	230	101300000	1000	0	0	-1	0
7134443	6020	844	0	-100	0	230	101300000	1000	0	0	-1	0
7147004	6016	860	0	-100	0	230	101300000	1000	0	0	-1	0
7159563	6020	851	0	-100	0	230	101300000	1000	0	0	-1	0
7172123	6017	863	0	-100	0	230	101300000	1000	0	0	-1	0
7184683	6014	848	0	-100	0	230	101300000	1000	0	0	-1	0
7197243	6016	858	0	-100	0	230	101300000	1000	0	0	-1	0
7209803	6016	848	0	-100	0	230	101300000	1000	0	0	-1	0
7222363	6013	854	0	-100	0	230	101300000	1000	0	0	-1	0
7234923	6023	866	0	-100	0	230	101300000	1000	0	0	-1	0
7247483	6023	870	0	-100	0	230	101300000	1000	0	0	-1	0
7260043	6022	851	0	-100	0	230	101300000	1000	0	0	-1	0
7272603	6017	863	0	-100	0	230	101300000	1000	0	0	-1	0
7285163	6021	857	0	-100	0	230	101300000	1000	0	0	-1	0
7297723	6015	862	0	-100	0	230	101300000	1000	0	0	-1	0
7310283	6017	857	0	-100	0	230	101300000	1000	0	0	-1	0
7322843	6022	863	0	-100	0	230	101300000	1000	0	0	-1	0
7335403	6019	859	0	-100	0	230	101300000	1000	0	0	-1	0
7347963	6023	843	0	-100	0	230	101300000	1000	0	0	-1	0
7721355	6021	856	0	-100	0	230	101300000	1000	0	0	-1	0
7733915	6017	869	0	-100	0	230	101300000	1000	0	0	-1	0
7746475	6016	854	0	-100	0	230	101300000	1000	0	0	-1	0
7759035	6025	855	0	-100	0	230	101300000	1000	0	0	-1	0
7771595	6021	849	0	-100	0	230	101300000	1000	0	0	-1	0
7784155	6018	851	0	-100	0	230	101300000	1000	0	0	-1	0
7796715	6021	853	0	-100	0	230	101300000	1000	0	0	-1	0
7809275	6013	855	0	-100	0	230	101300000	1000	0	0	-1	0
7821835	6021	867	0	-100	0	230	101300000	1000	0	0	-1	0
7834395	6018	858	0	-100	0	230	101300000	1000	0	0	-1	0
7846955	6020	860	0	-100	0	230	101300000	1000	0	0	-1	0
7859515	6016	849	0	-100	0	230	101300000	1000	0	0	-1	0
7872075	6016	852	0	-100	0	230	101300000	1000	0	0	-1	0
7884635	6021	858	0	-100	0	230	101300000	1000	0	0	-1	0
7897195	6023	851	0	-100	0	230	101300000	1000	0	0	-1	0
7909755	6021	846	0	-100	0	230	101300000	1000	0	0	-1	0
7922315	6021	857	0	-100	0	230	101300000	1000	0	0	-1	0
7934875	6023	867	0	-100	0	230	101300000	1000	0	0	-1	0
7947435	6021	854	0	-100	0	230	101300000	1000	0	0	-1	0
7959995	6021	849	0	-100	0	230	101300000	1000	0	0	-1	0
7972555	6021	853	0	-100	0	230	101300000	1000	0	0	-1	0
7985115	6017	857	0	-100	0	230	101300000	1000	0	0	-1	0
7997675	6012	865	0	-100	0	230	101300000	1000	0	0	-1	0
8010235	6022	853	0	-100	0	230	101300000	1000	0	0	-1	0
8022795	6021	861	0	-100	0	230	101300000	1000	0	0	-1	0
8035355	6021	857	0	-100	0	230	101300000	1000	0	0	-1	0
8047915	6022	855	0	-100	0	230	101300000	1000	0	0	-1	0
8060475	6017	855	0	-100	0	230	101300000	1000	0	0	-1	0
8073035	6020	855	0	-100	0	230	101300000	1000	0	0	-1	0
8085595	6019	853	0	-100	0	230	101300000	1000	0	0	-1	0
8098155	6021	847	0	-100	0	230	101300000	1000	0	0	-1	0
8110715	6025	849	0	-100	0	230	101300000	1000	0	0	-1	0
8123275	6020	853	0	-100	0	230	101300000	1000	0	0	-1	0
8135835	6016	848	0	-100	0	230	101300000	1000	0	0	-1	0
8148395	6014	852	0	-100	0	230	101300000	1000	0	0	-1	0
8160955	6021	857	0	-100	0	230	101300000	1000	0	0	-1	0
8173515	6021	852	0	-100	0	230	101300000	1000	0	0	-1	0
8186075	6024	863	0	-100	0	230	101300000	1000	0	0	-1	0
8198635	6017	862	0	-100	0	230	101300000	1000	0	0	-1	0
8211195	6017	844	0	-100	0	230	101300000	1000	0	0	-1	0
8223755	6021	850	0	-100	0	230	101300000	1000	0	0	-1	0
8236315	6026	860	0	-100	0	230	101300000	1000	0	0	-1	0
8248875	6017	846	0	-100	0	230	101300000	1000	0	0	-1	0
8261435	6015	861	0	-100	0	230	101300000	1000	0	0	-1	0
8273995	6022	855	0	-100	0	230	101300000	1000	0	0	-1	0
8286555	6024	858	0	-100	0	230	101300000	1000	0	0	-1	0
8299115	6017	853	0	-100	0	230	101300000	1000	0	0	-1	0
8311675	6014	854	0	-100	0	230	101300000	1000	0	0	-1	0
8324235	6014	855	0	-100	0	230	101300000	1000	0	0	-1	0
8336795	6021	863	0	-100	0	230	101300000	1000	0	0	-1	0
8349355	6021	855	0	-100	0	230	101300000	1000	0	0	-1	0
8361915	6021	855	0	-100	0	230	101300000	1000	0	0	-1	0
8374475	6021	864	0	-100	0	230	101300000	1000	0	0	-1	0
8387035	6016	852	0	-100	0	230	101300000	1000	0	0	-1	0
8399595	6017	857	0	-100	0	230	101300000	1000	0	0	-1	0
8412155	6017	851	0	-100	0	230	101300000	1000	0	0	-1	0
8424715	6020	851	0	-100	0	230	101300000	1000	0	0	-1	0
8437275	6015	855	0	-100	0	230	101300000	1000	0	0	-1	0
8449835	6017	861	0	-100	0	230	101300000	1000	0	0	-1	0
8462395	6025	863	0	-100	0	230	101300000	1000	0	0	-1	0
8474955	6023	860	0	-100	0	230	101300000	1000	0	0	-1	0
8487515	6025	863	0	-100	0	230	101300000	1000	0	0	-1	0
8500075	6015	853	0	-100	0	230	101300000	1000	0	0	-1	0
8512635	6020	855	0	-100	0	230	101300000	1000	0	0	-1	0
8525195	6021	844	0	-100	0	230	101300000	1000	0	0	-1	0
8537755	6021	858	0	-100	0	230	101300000	1000	0	0	-1	0
8550315	6025	861	0	-100	0	230	101300000	1000	0	0	-1	0
8562875	6025	854	0	-100	0	230	101300000	1000	0	0	-1	0
8575435	6027	852	0	-100	0	230	101300000	1000	0	0	-1	0
8587995	6026	860	0	-100	0	230	101300000	1000	0	0	-1	0
8600555	6020	859	0	-100	0	230	101300000	1000	0	0	-1	0
8613115	6017	856	0	-100	0	230	101300000	1000	0	0	-1	0
8625675	6020	861	0	-100	0	230	101300000	1000	0	0	-1	0
8638235	6018	855	0	-100	0	230	101300000	1000	0	0	-1	0
8650795	6022	851	0	-100	0	230	101300000	1000	0	0	-1	0
8663355	6023	849	0	-100	0	230	101300000	1000	0	0	-1	0
8675915	6027	859	0	-100	0	230	101300000	1000	0	0	-1	0
8688475	6021	854	0	-100	0	230	101300000	1000	0	0	-1	0
8701035	6017	859	0	-100	0	230	101300000	1000	0	0	-1	0
8713595	6020	859	0	-100	0	230	101300000	1000	0	0	-1	0
8726155	6018	857	0	-100	0	230	101300000	1000	0	0	-1	0
8738715	6014	859	0	-100	0	230	101300000	1000	0	0	-1	0
8751275	6017	852	0	-100	0	230	101300000	1000	0	0	-1	0
8763835	6016	853	0	-100	0	230	101300000	1000	0	0	-1	0
8776395	6023	854	0	-100	0	230	101300000	1000	0	0	-1	0
8788955	6024	852	0	-100	0	230	101300000	1000	0	0	-1	0
8801515	6020	853	0	-100	0	230	101300000	1000	0	0	-1	0
8814075	6019	860	0	-100	0	230	101300000	1000	0	0	-1	0
8826635	6019	848	0	-100	0	230	101300000	1000	0	0	-1	0
8839195	6017	859	0	-100	0	230	101300000	1000	0	0	-1	0
8851755	6018	858	0	-100	0	230	101300000	1000	0	0	-1	0
8864315	6021	850	0	-100	0	230	101300000	1000	0	0	-1	0
8876875	6014	857	0	-100	0	230	101300000	1000	0	0	-1	0
8889435	6014	855	0	-100	0	230	101300000	1000	0	0	-1	0
8901995	6016	848	0	-100	0	230	101300000	1000	0	0	-1	0
8914555	6017	852	0	-100	0	230	101300000	1000	0	0	-1	0
8927115	6021	852	0	-100	0	230	101300000	1000	0	0	-1	0
8939675	6021	851	0	-100	0	230	101300000	1000	0	0	-1	0
8952235	6022	859	0	-100	0	230	101300000	1000	0	0	-1	0
8964795	6025	855	0	-100	0	230	101300000	1000	0	0	-1	0
8977355	6027	867	0	-100	0	230	101300000	1000	0	0	-1	0
8989915	6022	852	0	-100	0	230	101300000	1000	0	0	-1	0
9002475	6018	860	0	-100	0	230	101300000	1000	0	0	-1	0
9015035	6017	854	0	-100	0	230	101300000	1000	0	0	-1	0
9027595	6021	848	0	-100	0	230	101300000	1000	0	0	-1	0
9040155	6016	849	0	-100	0	230	101300000	1000	0	0	-1	0
9052715	6016	858	0	-100	0	230	101300000	1000	0	0	-1	0
9065275	6021	856	0	-100	0	230	101300000	1000	0	0	-1	0
9077835	6019	857	0	-100	0	230	101300000	1000	0	0	-1	0
9090395	6021	865	0	-100	0	230	101300000	1000	0	0	-1	0
9102955	6018	850	0	-100	0	230	101300000	1000	0	0	-1	0
9115515	6021	862	0	-100	0	230	101300000	1000	0	0	-1	0
9128075	6022	855	0	-100	0	230	101300000	1000	0	0	-1	0
9140635	6016	865	0	-100	0	230	101300000	1000	0	0	-1	0
9153195	6012	860	0	-100	0	230	101300000	1000	0	0	-1	0
9165755	6017	854	0	-100	0	230	101300000	1000	0	0	-1	0
9178315	6019	860	0	-100	0	230	101300000	1000	0	0	-1	0
9190875	6020	853	0	-100	0	230	101300000	1000	0	0	-1	0
9203435	6025	857	0	-100	0	230	101300000	1000	0	0	-1	0
9215995	6025	865	0	-100	0	230	101300000	1000	0	0	-1	0
9228555	6023	856	0	-100	0	230	101300000	1000	0	0	-1	0
9241115	6029	862	0	-100	0	230	101300000	1000	0	0	-1	0
9253675	6022	859	0	-100	0	230	101300000	1000	0	0	-1	0
9266235	6019	847	0	-100	0	230	101300000	1000	0	0	-1	0
9278795	6016	862	0	-100	0	230	101300000	1000	0	0	-1	0
9303915	6023	857	0	-100	0	230	101300000	1000	0	0	-1	0
9316475	6016	856	0	-100	0	230	101300000	1000	0	0	-1	0
9329035	6018	857	0	-100	0	230	101300000	1000	0	0	-1	0
9341595	6020	849	0	-100	0	230	101300000	1000	0	0	-1	0
9354155	6023	850	0	-100	0	230	101300000	1000	0	0	-1	0
9366715	6021	840	0	-100	0	230	101300000	1000	0	0	-1	0
9379275	6024	857	0	-100	0	230	101300000	1000	0	0	-1	0
9391835	6021	860	0	-100	0	230	101300000	1000	0	0	-1	0
9404395	6018	860	0	-100	0	230	101300000	1000	0	0	-1	0
9416955	6020	864	0	-100	0	230	101300000	1000	0	0	-1	0
9429515	6015	851	0	-100	0	230	101300000	1000	0	0	-1	0
9442075	6019	851	0	-100	0	230	101300000	1000	0	0	-1	0
9454635	6017	864	0	-100	0	230	101300000	1000	0	0	-1	0
9467195	6022	849	0	-100	0	230	101300000	1000	0	0	-1	0
9479755	6023	862	0	-100	0	230	101300000	1000	0	0	-1	0
9492315	6019	866	0	-100	0	230	101300000	1000	0	0	-1	0
9504875	6013	849	0	-100	0	230	101300000	1000	0	0	-1	0
9517435	6020	856	0	-100	0	230	101300000	1000	0	0	-1	0
9529995	6014	848	0	-100	0	230	101300000	1000	0	0	-1	0
9542555	6020	859	0	-100	0	230	101300000	1000	0	0	-1	0
9555115	6021	855	0	-100	0	230	101300000	1000	0	0	-1	0
9567675	6025	867	0	-100	0	230	101300000	1000	0	0	-1	0
9580235	6027	867	0	-100	0	230	101300000	1000	0	0	-1	0
9592795	6016	853	0	-100	0	230	101300000	1000	0	0	-1	0
9605355	6021	860	0	-100	0	230	101300000	1000	0	0	-1	0
9617915	6012	857	0	-100	0	230	101300000	1000	0	0	-1	0
9630475	6016	854	0	-100	0	230	101300000	1000	0	0	-1	0
9643035	6021	855	0	-100	0	230	101300000	1000	0	0	-1	0
9655595	6025	858	0	-100	0	230	101300000	1000	0	0	-1	0
9668155	6020	855	0	-100	0	230	101300000	1000	0	0	-1	0
9680715	6021	852	0	-100	0	230	101300000	1000	0	0	-1	0
9693275	6016	861	0	-100	0	230	101300000	1000	0	0	-1	0
9705835	6016	858	0	-100	0	230	101300000	1000	0	0	-1	0
9718395	6020	860	0	-100	0	230	101300000	1000	0	0	-1	0
9730955	6017	848	0	-100	0	230	101300000	1000	0	0	-1	0
9743515	6027	860	0	-100	0	230	101300000	1000	0	0	-1	0
9756075	6016	853	0	-100	0	230	101300000	1000	0	0	-1	0
9768635	6019	850	0	-100	0	230	101300000	1000	0	0	-1	0
9781195	6014	853	0	-100	0	230	101300000	1000	0	0	-1	0
9793755	6012	864	0	-100	0	230	101300000	1000	0	0	-1	0
9806315	6018	852	0	-100	0	230	101300000	1000	0	0	-1	0
9818875	6019	857	0	-100	0	230	101300000	1000	0	0	-1	0
9831435	6025	855	0	-100	0	230	101300000	1000	0	0	-1	0
9843995	6018	854	0	-100	0	230	101300000	1000	0	0	-1	0
9856555	6016	858	0	-100	0	230	101300000	1000	0	0	-1	0
9869115	6018	851	0	-100	0	230	101300000	1000	0	0	-1	0
9881675	6012	849	0	-100	0	230	101300000	1000	0	0	-1	0
9894235	6019	871	0	-100	0	230	101300000	1000	0	0	-1	0
9906795	6021	868	0	-100	0	230	101300000	1000	0	0	-1	0
9919355	6017	859	0	-100	0	230	101300000	1000	0	0	-1	0
9931915	6016	869	0	-100	0	230	101300000	1000	0	0	-1	0
9944475	6021	858	0	-100	0	230	101300000	1000	0	0	-1	0
9957035	6023	850	0	-100	0	230	101300000	1000	0	0	-1	0
9969595	6029	852	0	-100	0	230	101300000	1000	0	0	-1	0
9982155	6020	854	0	-100	0	230	101300000	1000	0	0	-1	0
9994715	6020	877	0	-100	0	230	101300000	1000	0	0	-1	0
10007275	6019	862	0	-100	0	230	101300000	1000	0	0	-1	0
10019835	6014	848	0	-100	0	230	101300000	1000	0	0	-1	0
10032395	6017	855	0	-100	0	230	101300000	1000	0	0	-1	0
10044955	6025	862	0	-100	0	230	101300000	1000	0	0	-1	0
10057515	6019	863	0	-100	0	230	101300000	1000	0	0	-1	0
10070075	6018	854	0	-100	0	230	101300000	1000	0	0	-1	0
10082635	6018	861	0	-100	0	230	101300000	1000	0	0	-1	0
10095195	6013	855	0	-100	0	230	101300000	1000	0	0	-1	0
10107755	6016	847	0	-100	0	230	101300000	1000	0	0	-1	0
10120315	6018	855	0	-100	0	230	101300000	1000	0	0	-1	0
10132875	6018	851	0	-100	0	230	101300000	1000	0	0	-1	0
10145435	6016	855	0	-100	0	230	101300000	1000	0	0	-1	0
10157995	6016	854	0	-100	0	230	101300000	1000	0	0	-1	0
10170555	6021	850	0	-100	0	230	101300000	1000	0	0	-1	0
10183115	6021	857	0	-100	0	230	101300000	1000	0	0	-1	0
10195675	6021	858	0	-100	0	230	101300000	1000	0	0	-1	0
10208235	6020	855	0	-100	0	230	101300000	1000	0	0	-1	0
10220795	6016	855	0	-100	0	230	101300000	1000	0	0	-1	0
10233355	6014	860	0	-100	0	230	101300000	1000	0	0	-1	0
10245915	6021	869	0	-100	0	230	101300000	1000	0	0	-1	0
10258475	6025	861	0	-100	0	230	101300000	1000	0	0	-1	0
10271035	6025	861	0	-100	0	230	101300000	1000	0	0	-1	0
10283595	6027	850	0	-100	0	230	101300000	1000	0	0	-1	0
10296155	6020	849	0	-100	0	230	101300000	1000	0	0	-1	0
10308715	6022	851	0	-100	0	230	101300000	1000	0	0	-1	0
10321275	6021	845	0	-100	0	230	101300000	1000	0	0	-1	0
10333835	6023	860	0	-100	0	230	101300000	1000	0	0	-1	0
10346395	6021	857	0	-100	0	230	101300000	1000	0	0	-1	0
10358955	6024	850	0	-100	0	230	101300000	1000	0	0	-1	0
10371515	6023	860	0	-100	0	230	101300000	1000	0	0	-1	0
10384075	6022	852	0	-100	0	230	101300000	1000	0	0	-1	0
10396635	6023	856	0	-100	0	230	101300000	1000	0	0	-1	0
10409195	6021	854	0	-100	0	230	101300000	1000	0	0	-1	0
10421755	6021	853	0	-100	0	230	101300000	1000	0	0	-1	0
10434315	6016	854	0	-100	0	230	101300000	1000	0	0	-1	0
10446875	6019	867	0	-100	0	230	101300000	1000	0	0	-1	0
10459435	6016	862	0	-100	0	230	101300000	1000	0	0	-1	0
10471995	6017	880	0	-100	0	230	101300000	1000	0	0	-1	0
10484555	6012	876	0	-100	0	230	101300000	1000	0	0	-1	0
10497115	6019	864	0	-100	0	230	101300000	1000	0	0	-1	0
10509675	6024	869	0	-100	0	230	101300000	1000	0	0	-1	0
10522235	6020	854	0	-100	0	230	101300000	1000	0	0	-1	0
10534795	6021	855	0	-100	0	230	101300000	1000	0	0	-1	0
10547355	6016	857	0	-100	0	230	101300000	1000	0	0	-1	0
10559915	6014	861	0	-100	0	230	101300000	1000	0	0	-1	0
10572475	6017	856	0	-100	0	230	101300000	1000	0	0	-1	0
10585035	6024	852	0	-100	0	230	101300000	1000	0	0	-1	0
10597595	6021	858	0	-100	0	230	101300000	1000	0	0	-1	0
10610155	6021	849	0	-100	0	230	101300000	1000	0	0	-1	0
10622715	6020	860	0	-100	0	230	101300000	1000	0	0	-1	0
10635275	6017	863	0	-100	0	230	101300000	1000	0	0	-1	0
10647835	6017	867	0	-100	0	230	101300000	1000	0	0	-1	0
10660395	6017	852	0	-100	0	230	101300000	1000	0	0	-1	0
10672955	6027	858	0	-100	0	230	101300000	1000	0	0	-1	0
10685515	6025	862	0	-100	0	230	101300000	1000	0	0	-1	0
10698075	6017	848	0	-100	0	230	101300000	1000	0	0	-1	0
10710635	6016	863	0	-100	0	230	101300000	1000	0	0	-1	0
10723195	6020	860	0	-100	0	230	101300000	1000	0	0	-1	0
10735755	6021	848	0	-100	0	230	101300000	1000	0	0	-1	0
10748315	6021	852	0	-100	0	230	101300000	1000	0	0	-1	0
10760875	6018	843	0	-100	0	230	101300000	1000	0	0	-1	0
10773435	6016	851	0	-100	0	230	101300000	1000	0	0	-1	0
10785995	6017	852	0	-100	0	230	101300000	1000	0	0	-1	0
10798555	6018	860	0	-100	0	230	101300000	1000	0	0	-1	0
10811115	6025	870	0	-100	0	230	101300000	1000	0	0	-1	0
10823675	6023	863	0	-100	0	230	101300000	1000	0	0	-1	0
10836235	6023	854	0	-100	0	230	101300000	1000	0	0	-1	0
10848795	6016	860	0	-100	0	230	101300000	1000	0	0	-1	0
10861355	6017	863	0	-100	0	230	101300000	1000	0	0	-1	0
10873915	6017	856	0	-100	0	230	101300000	1000	0	0	-1	0
10886475	6021	860	0	-100	0	230	101300000	1000	0	0	-1	0
10899035	6015	855	0	-100	0	230	101300000	1000	0	0	-1	0
10911595	6021	863	0	-100	0	230	101300000	1000	0	0	-1	0
10924155	6024	856	0	-100	0	230	101300000	1000	0	0	-1	0
10936715	6022	856	0	-100	0	230	101300000	1000	0	0	-1	0
10949275	6025	851	0	-100	0	230	101300000	1000	0	0	-1	0
10961835	6020	855	0	-100	0	230	101300000	1000	0	0	-1	0
10974395	6022	856	0	-100	0	230	101300000	1000	0	0	-1	0
10986955	6016	851	0	-100	0	230	101300000	1000	0	0	-1	0
10999515	6016	847	0	-100	0	230	101300000	1000	0	0	-1	0
11012075	6017	857	0	-100	0	230	101300000	1000	0	0	-1	0
11024635	6015	860	0	-100	0	230	101300000	1000	0	0	-1	0
11037195	6021	863	0	-100	0	230	101300000	1000	0	0	-1	0
11049755	6024	856	0	-100	0	230	101300000	1000	0	0	-1	0
11062315	6030	862	0	-100	0	230	101300000	1000	0	0	-1	0
11074875	6022	863	0	-100	0	230	101300000	1000	0	0	-1	0
11087435	6016	847	0	-100	0	230	101300000	1000	0	0	-1	0
11099995	6016	851	0	-100	0	230	101300000	1000	0	0	-1	0
11112555	6021	855	0	-100	0	230	101300000	1000	0	0	-1	0
11125115	6016	861	0	-100	0	230	101300000	1000	0	0	-1	0
11137675	6018	861	0	-100	0	230	101300000	1000	0	0	-1	0
11150235	6025	858	0	-100	0	230	101300000	1000	0	0	-1	0
11162795	6025	847	0	-100	0	230	101300000	1000	0	0	-1	0
11175355	6020	851	0	-100	0	230	101300000	1000	0	0	-1	0
11187915	6016	853	0	-100	0	230	101300000	1000	0	0	-1	0
11200475	6016	850	0	-100	0	230	101300000	1000	0	0	-1	0
11213035	6016	858	0	-100	0	230	101300000	1000	0	0	-1	0
11225595	6018	861	0	-100	0	230	101300000	1000	0	0	-1	0
11238155	6014	862	0	-100	0	230	101300000	1000	0	0	-1	0
11250715	6019	852	0	-100	0	230	101300000	1000	0	0	-1	0
11263275	6012	860	0	-100	0	230	101300000	1000	0	0	-1	0
11275835	6018	850	0	-100	0	230	101300000	1000	0	0	-1	0
11288395	6025	864	0	-100	0	230	101300000	1000	0	0	-1	0
11300955	6020	865	0	-100	0	230	101300000	1000	0	0	-1	0
11313515	6021	855	0	-100	0	230	101300000	1000	0	0	-1	0
11326075	6016	863	0	-100	0	230	101300000	1000	0	0	-1	0
11338635	6016	857	0	-100	0	230	101300000	1000	0	0	-1	0
11351195	6016	858	0	-100	0	230	101300000	1000	0	0	-1	0
11363755	6017	867	0	-100	0	230	101300000	1000	0	0	-1	0
11376315	6016	848	0	-100	0	230	101300000	1000	0	0	-1	0
11388875	6018	858	0	-100	0	230	101300000	1000	0	0	-1	0
11401435	6016	856	0	-100	0	230	101300000	1000	0	0	-1	0
11413995	6019	851	0	-100	0	230	101300000	1000	0	0	-1	0
11426555	6019	856	0	-100	0	230	101300000	1000	0	0	-1	0
11439115	6022	851	0	-100	0	230	101300000	1000	0	0	-1	0
11451675	6025	858	0	-100	0	230	101300000	1000	0	0	-1	0
11464235	6023	860	0	-100	0	230	101300000	1000	0	0	-1	0
11476795	6021	848	0	-100	0	230	101300000	1000	0	0	-1	0
11489355	6021	851	0	-100	0	230	101300000	1000	0	0	-1	0
11501915	6019	853	0	-100	0	230	101300000	1000	0	0	-1	0
11514475	6016	857	0	-100	0	230	101300000	1000	0	0	-1	0
11527035	6020	846	0	-100	0	230	101300000	1000	0	0	-1	0
11539595	6014	865	0	-100	0	230	101300000	1000	0	0	-1	0
11552155	6016	845	0	-100	0	230	101300000	1000	0	0	-1	0
11564715	6021	864	0	-100	0	230	101300000	1000	0	0	-1	0
11577275	6019	860	0	-100	0	230	101300000	1000	0	0	-1	0
11589835	6024	839	0	-100	0	230	101300000	1000	0	0	-1	0
11602395	6025	859	0	-100	0	230	101300000	1000	0	0	-1	0
11614955	6023	854	0	-100	0	230	101300000	1000	0	0	-1	0
11627515	6021	858	0	-100	0	230	101300000	1000	0	0	-1	0
11640075	6021	862	0	-100	0	230	101300000	1000	0	0	-1	0
11652635	6016	846	0	-100	0	230	101300000	1000	0	0	-1	0
11665195	6021	863	0	-100	0	230	101300000	1000	0	0	-1	0
11677755	6018	845	0	-100	0	230	101300000	1000	0	0	-1	0
11690315	6014	865	0	-100	0	230	101300000	1000	0	0	-1	0
11702875	6018	857	0	-100	0	230	101300000	1000	0	0	-1	0
11715435	6018	862	0	-100	0	230	101300000	1000	0	0	-1	0
11727995	6018	848	0	-100	0	230	101300000	1000	0	0	-1	0
11740555	6021	864	0	-100	0	230	101300000	1000	0	0	-1	0
11753115	6022	850	0	-100	0	230	101300000	1000	0	0	-1	0
11765675	6021	849	0	-100	0	230	101300000	1000	0	0	-1	0
11778235	6018	865	0	-100	0	230	101300000	1000	0	0	-1	0
11790795	6019	853	0	-100	0	230	101300000	1000	0	0	-1	0
11803355	6025	853	0	-100	0	230	101300000	1000	0	0	-1	0
11815915	6019	861	0	-100	0	230	101300000	1000	0	0	-1	0
11828475	6020	851	0	-100	0	230	101300000	1000	0	0	-1	0
11841035	6016	850	0	-100	0	230	101300000	1000	0	0	-1	0
11853595	6015	853	0	-100	0	230	101300000	1000	0	0	-1	0
11866155	6018	858	0	-100	0	230	101300000	1000	0	0	-1	0
11878715	6020	858	0	-100	0	230	101300000	1000	0	0	-1	0
11891275	6017	850	0	-100	0	230	101300000	1000	0	0	-1	0
11903835	6017	862	0	-100	0	230	101300000	1000	0	0	-1	0
11916395	6020	863	0	-100	0	230	101300000	1000	0	0	-1	0
11928955	6019	858	0	-100	0	230	101300000	1000	0	0	-1	0
11941515	6028	855	0	-100	0	230	101300000	1000	0	0	-1	0
11954075	6022	853	0	-100	0	230	101300000	1000	0	0	-1	0
11966635	6021	853	0	-100	0	230	101300000	1000	0	0	-1	0
11979195	6016	853	0	-100	0	230	101300000	1000	0	0	-1	0
11991755	6016	860	0	-100	0	230	101300000	1000	0	0	-1	0
12004315	6016	852	0	-100	0	230	101300000	1000	0	0	-1	0
12016875	6026	864	0	-100	0	230	101300000	1000	0	0	-1	0
12029435	6023	854	0	-100	0	230	101300000	1000	0	0	-1	0
12041995	6018	848	0	-100	0	230	101300000	1000	0	0	-1	0
12054555	6012	864	0	-100	0	230	101300000	1000	0	0	-1	0
12067115	6019	861	0	-100	0	230	101300000	1000	0	0	-1	0
12079675	6014	847	0	-100	0	230	101300000	1000	0	0	-1	0
12092235	6018	854	0	-100	0	230	101300000	1000	0	0	-1	0
12104795	6026	857	0	-100	0	230	101300000	1000	0	0	-1	0
12117355	6021	852	0	-100	0	230	101300000	1000	0	0	-1	0
12129915	6022	858	0	-100	0	230	101300000	1000	0	0	-1	0
12142475	6016	864	0	-100	0	230	101300000	1000	0	0	-1	0
12268075	6015	863	0	-100	0	230	101300000	1000	0	0	-1	0
12280635	6017	861	0	-100	0	230	101300000	1000	0	0	-1	0
12293195	6017	859	0	-100	0	230	101300000	1000	0	0	-1	0
12305755	6020	867	0	-100	0	230	101300000	1000	0	0	-1	0
12318315	6027	864	0	-100	0	230	101300000	1000	0	0	-1	0
12330875	6021	869	0	-100	0	230	101300000	1000	0	0	-1	0
12343435	6017	855	0	-100	0	230	101300000	1000	0	0	-1	0
12355995	6019	852	0	-100	0	230	101300000	1000	0	0	-1	0
12368555	6017	871	0	-100	0	230	101300000	1000	0	0	-1	0
12381115	6022	854	0	-100	0	230	101300000	1000	0	0	-1	0
12393675	6019	856	0	-100	0	230	101300000	1000	0	0	-1	0
12406235	6012	859	0	-100	0	230	101300000	1000	0	0	-1	0
12418795	6021	860	0	-100	0	230	101300000	1000	0	0	-1	0
12431355	6021	856	0	-100	0	230	101300000	1000	0	0	-1	0
12443915	6023	865	0	-100	0	230	101300000	1000	0	0	-1	0
12456475	6021	849	0	-100	0	230	101300000	1000	0	0	-1	0
12469035	6025	858	0	-100	0	230	101300000	1000	0	0	-1	0
12481595	6023	854	0	-100	0	230	101300000	1000	0	0	-1	0
12494155	6023	871	0	-100	0	230	101300000	1000	0	0	-1	0
12506715	6023	862	0	-100	0	230	101300000	1000	0	0	-1	0
12519275	6017	852	0	-100	0	230	101300000	1000	0	0	-1	0
12531835	6017	859	0	-100	0	230	101300000	1000	0	0	-1	0
12544395	6019	874	0	-100	0	230	101300000	1000	0	0	-1	0
12556955	6025	854	0	-100	0	230	101300000	1000	0	0	-1	0
12569515	6027	856	0	-100	0	230	101300000	1000	0	0	-1	0
12582075	6021	858	0	-100	0	230	101300000	1000	0	0	-1	0
12594635	6023	859	0	-100	0	230	101300000	1000	0	0	-1	0
12607195	6022	840	0	-100	0	230	101300000	1000	0	0	-1	0
12619755	6015	856	0	-100	0	230	101300000	1000	0	0	-1	0
12632315	6016	854	0	-100	0	230	101300000	1000	0	0	-1	0
12644875	6016	852	0	-100	0	230	101300000	1000	0	0	-1	0
12657435	6012	853	0	-100	0	230	101300000	1000	0	0	-1	0
12669995	6020	859	0	-100	0	230	101300000	1000	0	0	-1	0
12682555	6018	858	0	-100	0	230	101300000	1000	0	0	-1	0
12695115	6017	860	0	-100	0	230	101300000	1000	0	0	-1	0
12707675	6019	850	0	-100	0	230	101300000	1000	0	0	-1	0
12720235	6029	860	0	-100	0	230	101300000	1000	0	0	-1	0
12732795	6025	857	0	-100	0	230	101300000	1000	0	0	-1	0
12745355	6025	851	0	-100	0	230	101300000	1000	0	0	-1	0
12757915	6021	864	0	-100	0	230	101300000	1000	0	0	-1	0
12770475	6023	861	0	-100	0	230	101300000	1000	0	0	-1	0
12783035	6019	854	0	-100	0	230	101300000	1000	0	0	-1	0
12795595	6023	862	0	-100	0	230	101300000	1000	0	0	-1	0
12808155	6021	848	0	-100	0	230	101300000	1000	0	0	-1	0
12820715	6023	845	0	-100	0	230	101300000	1000	0	0	-1	0
12833275	6025	859	0	-100	0	230	101300000	1000	0	0	-1	0
12845835	6019	862	0	-100	0	230	101300000	1000	0	0	-1	0
12858395	6025	844	0	-100	0	230	101300000	1000	0	0	-1	0
12870955	6025	854	0	-100	0	230	101300000	1000	0	0	-1	0
12883515	6023	863	0	-100	0	230	101300000	1000	0	0	-1	0
12896075	6023	858	0	-100	0	230	101300000	1000	0	0	-1	0
12908635	6022	864	0	-100	0	230	101300000	1000	0	0	-1	0
12921195	6020	851	0	-100	0	230	101300000	1000	0	0	-1	0
12933755	6014	850	0	-100	0	230	101300000	1000	0	0	-1	0
12946315	6016	860	0	-100	0	230	101300000	1000	0	0	-1	0
12958875	6020	850	0	-100	0	230	101300000	1000	0	0	-1	0
12971435	6017	853	0	-100	0	230	101300000	1000	0	0	-1	0
12983995	6017	857	0	-100	0	230	101300000	1000	0	0	-1	0
12996555	6014	864	0	-100	0	230	101300000	1000	0	0	-1	0
13009115	6014	859	0	-100	0	230	101300000	1000	0	0	-1	0
13021675	6021	859	0	-100	0	230	101300000	1000	0	0	-1	0
13034235	6022	848	0	-100	0	230	101300000	1000	0	0	-1	0
13046795	6024	853	0	-100	0	230	101300000	1000	0	0	-1	0
13059355	6021	854	0	-100	0	230	101300000	1000	0	0	-1	0
13071915	6023	858	0	-100	0	230	101300000	1000	0	0	-1	0
13084475	6020	861	0	-100	0	230	101300000	1000	0	0	-1	0
13097035	6021	868	0	-100	0	230	101300000	1000	0	0	-1	0
13109595	6023	841	0	-100	0	230	101300000	1000	0	0	-1	0
13122155	6021	844	0	-100	0	230	101300000	1000	0	0	-1	0
13134715	6019	850	0	-100	0	230	101300000	1000	0	0	-1	0
13147275	6021	865	0	-100	0	230	101300000	1000	0	0	-1	0
13159835	6017	848	0	-100	0	230	101300000	1000	0	0	-1	0
13172395	6012	855	0	-100	0	230	101300000	1000	0	0	-1	0
13184955	6018	851	0	-100	0	230	101300000	1000	0	0	-1	0
13197515	6016	844	0	-100	0	230	101300000	1000	0	0	-1	0
13210075	6020	850	0	-100	0	230	101300000	1000	0	0	-1	0
13222635	6020	854	0	-100	0	230	101300000	1000	0	0	-1	0
13235195	6016	866	0	-100	0	230	101300000	1000	0	0	-1	0
13247755	6020	846	0	-100	0	230	101300000	1000	0	0	-1	0
13260315	6017	865	0	-100	0	230	101300000	1000	0	0	-1	0
13272875	6021	867	0	-100	0	230	101300000	1000	0	0	-1	0
13285435	6014	865	0	-100	0	230	101300000	1000	0	0	-1	0
13297995	6016	850	0	-100	0	230	101300000	1000	0	0	-1	0
13310555	6025	863	0	-100	0	230	101300000	1000	0	0	-1	0
13323115	6019	858	0	-100	0	230	101300000	1000	0	0	-1	0
13335675	6018	866	0	-100	0	230	101300000	1000	0	0	-1	0
13348235	6020	853	0	-100	0	230	101300000	1000	0	0	-1	0
13360795	6023	861	0	-100	0	230	101300000	1000	0	0	-1	0
13373355	6018	851	0	-100	0	230	101300000	1000	0	0	-1	0
13385915	6012	856	0	-100	0	230	101300000	1000	0	0	-1	0
13398475	6021	853	0	-100	0	230	101300000	1000	0	0	-1	0
13411035	6016	862	0	-100	0	230	101300000	1000	0	0	-1	0
13423595	6021	865	0	-100	0	230	101300000	1000	0	0	-1	0
13436155	6021	858	0	-100	0	230	101300000	1000	0	0	-1	0
13448715	6018	858	0	-100	0	230	101300000	1000	0	0	-1	0
13461275	6015	857	0	-100	0	230	101300000	1000	0	0	-1	0
13473835	6018	847	0	-100	0	230	101300000	1000	0	0	-1	0
13486395	6017	855	0	-100	0	230	101300000	1000	0	0	-1	0
13498955	6017	867	0	-100	0	230	101300000	1000	0	0	-1	0
13511515	6023	854	0	-100	0	230	101300000	1000	0	0	-1	0
13524075	6028	866	0	-100	0	230	101300000	1000	0	0	-1	0
13536635	6019	852	0	-100	0	230	101300000	1000	0	0	-1	0
13549195	6021	867	0	-100	0	230	101300000	1000	0	0	-1	0
13561755	6016	852	0	-100	0	230	101300000	1000	0	0	-1	0
13574315	6014	849	0	-100	0	230	101300000	1000	0	0	-1	0
13586875	6014	861	0	-100	0	230	101300000	1000	0	0	-1	0
13599435	6016	850	0	-100	0	230	101300000	1000	0	0	-1	0
13611995	6020	861	0	-100	0	230	101300000	1000	0	0	-1	0
13624555	6018	859	0	-100	0	230	101300000	1000	0	0	-1	0
13637115	6023	861	0	-100	0	230	101300000	1000	0	0	-1	0
13649675	6021	858	0	-100	0	230	101300000	1000	0	0	-1	0
13662235	6027	843	0	-100	0	230	101300000	1000	0	0	-1	0
13674795	6022	848	0	-100	0	230	101300000	1000	0	0	-1	0
13687355	6025	862	0	-100	0	230	101300000	1000	0	0	-1	0
13699915	6023	854	0	-100	0	230	101300000	1000	0	0	-1	0
13712475	6025	854	0	-100	0	230	101300000	1000	0	0	-1	0
13725035	6024	848	0	-100	0	230	101300000	1000	0	0	-1	0
13737595	6019	847	0	-100	0	230	101300000	1000	0	0	-1	0
13750155	6020	866	0	-100	0	230	101300000	1000	0	0	-1	0
13762715	6017	851	0	-100	0	230	101300000	1000	0	0	-1	0
13775275	6020	851	0	-100	0	230	101300000	1000	0	0	-1	0
13787835	6017	851	0	-100	0	230	101300000	1000	0	0	-1	0
13800395	6016	857	0	-100	0	230	101300000	1000	0	0	-1	0
13812955	6016	871	0	-100	0	230	101300000	1000	0	0	-1	0
13825515	6017	858	0	-100	0	230	101300000	1000	0	0	-1	0
13838075	6025	862	0	-100	0	230	101300000	1000	0	0	-1	0
13850635	6025	855	0	-100	0	230	101300000	1000	0	0	-1	0
13863195	6021	855	0	-100	0	230	101300000	1000	0	0	-1	0
13875755	6021	843	0	-100	0	230	101300000	1000	0	0	-1	0
13888315	6013	860	0	-100	0	230	101300000	1000	0	0	-1	0
13900875	6016	861	0	-100	0	230	101300000	1000	0	0	-1	0
13913435	6014	864	0	-100	0	230	101300000	1000	0	0	-1	0
13925995	6024	852	0	-100	0	230	101300000	1000	0	0	-1	0
13938555	6021	854	0	-100	0	230	101300000	1000	0	0	-1	0
13951115	6015	851	0	-100	0	230	101300000	1000	0	0	-1	0
13963675	6016	848	0	-100	0	230	101300000	1000	0	0	-1	0
13976235	6023	858	0	-100	0	230	101300000	1000	0	0	-1	0
13988795	6020	851	0	-100	0	230	101300000	1000	0	0	-1	0
14001355	6017	851	0	-100	0	230	101300000	1000	0	0	-1	0
14013915	6013	866	0	-100	0	230	101300000	1000	0	0	-1	0
14026475	6027	851	0	-100	0	230	101300000	1000	0	0	-1	0
14039035	6025	857	0	-100	0	230	101300000	1000	0	0	-1	0
14051595	6016	856	0	-100	0	230	101300000	1000	0	0	-1	0
14064155	6018	858	0	-100	0	230	101300000	1000	0	0	-1	0
14076715	6017	853	0	-100	0	230	101300000	1000	0	0	-1	0
14089275	6020	869	0	-100	0	230	101300000	1000	0	0	-1	0
14101835	6025	853	0	-100	0	230	101300000	1000	0	0	-1	0
14114395	6021	865	0	-100	0	230	101300000	1000	0	0	-1	0
14126955	6014	852	0	-100	0	230	101300000	1000	0	0	-1	0
14139515	6016	855	0	-100	0	230	101300000	1000	0	0	-1	0
14152075	6017	860	0	-100	0	230	101300000	1000	0	0	-1	0
14164635	6016	862	0	-100	0	230	101300000	1000	0	0	-1	0
14177195	6024	851	0	-100	0	230	101300000	1000	0	0	-1	0
14189755	6016	858	0	-100	0	230	101300000	1000	0	0	-1	0
14202315	6019	856	0	-100	0	230	101300000	1000	0	0	-1	0
14214875	6023	858	0	-100	0	230	101300000	1000	0	0	-1	0
14227435	6020	851	0	-100	0	230	101300000	1000	0	0	-1	0
14239995	6021	848	0	-100	0	230	101300000	1000	0	0	-1	0
14252555	6022	852	0	-100	0	230	101300000	1000	0	0	-1	0
14265115	6020	864	0	-100	0	230	101300000	1000	0	0	-1	0
14277675	6016	854	0	-100	0	230	101300000	1000	0	0	-1	0
14290235	6018	869	0	-100	0	230	101300000	1000	0	0	-1	0
14302795	6020	862	0	-100	0	230	101300000	1000	0	0	-1	0
14315355	6025	861	0	-100	0	230	101300000	1000	0	0	-1	0
14327915	6020	851	0	-100	0	230	101300000	1000	0	0	-1	0
14340475	6018	861	0	-100	0	230	101300000	1000	0	0	-1	0
14353035	6017	860	0	-100	0	230	101300000	1000	0	0	-1	0
14365595	6017	859	0	-100	0	230	101300000	1000	0	0	-1	0
14378155	6022	854	0	-100	0	230	101300000	1000	0	0	-1	0
14390715	6016	860	0	-100	0	230	101300000	1000	0	0	-1	0
14403275	6019	864	0	-100	0	230	101300000	1000	0	0	-1	0
14415835	6020	855	0	-100	0	230	101300000	1000	0	0	-1	0
14428395	6019	850	0	-100	0	230	101300000	1000	0	0	-1	0
14440955	6016	859	0	-100	0	230	101300000	1000	0	0	-1	0
14453515	6017	851	0	-100	0	230	101300000	1000	0	0	-1	0
14466075	6023	858	0	-100	0	230	101300000	1000	0	0	-1	0
14478635	6025	852	0	-100	0	230	101300000	1000	0	0	-1	0
14491195	6021	854	0	-100	0	230	101300000	1000	0	0	-1	0
14503755	6018	860	0	-100	0	230	101300000	1000	0	0	-1	0
14516315	6016	845	0	-100	0	230	101300000	1000	0	0	-1	0
14528875	6016	863	0	-100	0	230	101300000	1000	0	0	-1	0
14541435	6016	850	0	-100	0	230	101300000	1000	0	0	-1	0
14553995	6024	872	0	-100	0	230	101300000	1000	0	0	-1	0
14566555	6021	858	0	-100	0	230	101300000	1000	0	0	-1	0
14579115	6025	864	0	-100	0	230	101300000	1000	0	0	-1	0
14591675	6025	860	0	-100	0	230	101300000	1000	0	0	-1	0
14604235	6022	861	0	-100	0	230	101300000	1000	0	0	-1	0
14616795	6014	864	0	-100	0	230	101300000	1000	0	0	-1	0
14629355	6018	856	0	-100	0	230	101300000	1000	0	0	-1	0
14641915	6014	863	0	-100	0	230	101300000	1000	0	0	-1	0
14654475	6018	862	0	-100	0	230	101300000	1000	0	0	-1	0
14667035	6022	848	0	-100	0	230	101300000	1000	0	0	-1	0
14679595	6022	864	0	-100	0	230	101300000	1000	0	0	-1	0
14692155	6023	858	0	-100	0	230	101300000	1000	0	0	-1	0
14704715	6018	837	0	-100	0	230	101300000	1000	0	0	-1	0
14717275	6016	857	0	-100	0	230	101300000	1000	0	0	-1	0
14729835	6017	856	0	-100	0	230	101300000	1000	0	0	-1	0
14742395	6024	859	0	-100	0	230	101300000	1000	0	0	-1	0
14754955	6016	855	0	-100	0	230	101300000	1000	0	0	-1	0
14767515	6016	858	0	-100	0	230	101300000	1000	0	0	-1	0
14780075	6018	862	0	-100	0	230	101300000	1000	0	0	-1	0
14792635	6019	863	0	-100	0	230	101300000	1000	0	0	-1	0
14805195	6021	865	0	-100	0	230	101300000	1000	0	0	-1	0
14817755	6023	861	0	-100	0	230	101300000	1000	0	0	-1	0
14830315	6021	845	0	-100	0	230	101300000	1000	0	0	-1	0
14842875	6021	850	0	-100	0	230	101300000	1000	0	0	-1	0
14855435	6021	864	0	-100	0	230	101300000	1000	0	0	-1	0
14867995	6023	845	0	-100	0	230	101300000	1000	0	0	-1	0
14880555	6022	852	0	-100	0	230	101300000	1000	0	0	-1	0
14893115	6018	856	0	-100	0	230	101300000	1000	0	0	-1	0
14905675	6016	854	0	-100	0	230	101300000	1000	0	0	-1	0
14918235	6016	851	0	-100	0	230	101300000	1000	0	0	-1	0
14930795	6019	857	0	-100	0	230	101300000	1000	0	0	-1	0
14943355	6021	862	0	-100	0	230	101300000	1000	0	0	-1	0
14955915	6022	858	0	-100	0	230	101300000	1000	0	0	-1	0
14968475	6023	845	0	-100	0	230	101300000	1000	0	0	-1	0
14981035	6021	861	0	-100	0	230	101300000	1000	0	0	-1	0
14993595	6021	844	0	-100	0	230	101300000	1000	0	0	-1	0
15006155	6019	864	0	-100	0	230	101300000	1000	0	0	-1	0
15018715	6020	856	0	-100	0	230	101300000	1000	0	0	-1	0
15031275	6021	850	0	-100	0	230	101300000	1000	0	0	-1	0
15043835	6025	851	0	-100	0	230	101300000	1000	0	0	-1	0
15056395	6023	859	0	-100	0	230	101300000	1000	0	0	-1	0
15068955	6027	859	0	-100	0	230	101300000	1000	0	0	-1	0
15081515	6024	861	0	-100	0	230	101300000	1000	0	0	-1	0
15094075	6019	852	0	-100	0	230	101300000	1000	0	0	-1	0
15207115	6022	852	0	-100	0	230	101300000	1000	0	0	-1	0
15219675	6023	856	0	-100	0	230	101300000	1000	0	0	-1	0
15232235	6021	859	0	-100	0	230	101300000	1000	0	0	-1	0
15244795	6023	831	0	-100	0	230	101300000	1000	0	0	-1	0
15257355	6023	859	0	-100	0	230	101300000	1000	0	0	-1	0
15269915	6022	846	0	-100	0	230	101300000	1000	0	0	-1	0
15282475	6023	856	0	-100	0	230	101300000	1000	0	0	-1	0
15295035	6022	848	0	-100	0	230	101300000	1000	0	0	-1	0
15307595	6023	850	0	-100	0	230	101300000	1000	0	0	-1	0
15320155	6025	845	0	-100	0	230	101300000	1000	0	0	-1	0
15332715	6023	858	0	-100	0	230	101300000	1000	0	0	-1	0
15345275	6019	840	0	-100	0	230	101300000	1000	0	0	-1	0
15357835	6023	849	0	-100	0	230	101300000	1000	0	0	-1	0
15370395	6020	852	0	-100	0	230	101300000	1000	0	0	-1	0
15382955	6020	853	0	-100	0	230	101300000	1000	0	0	-1	0
15395515	6021	858	0	-100	0	230	101300000	1000	0	0	-1	0
15408075	6021	855	0	-100	0	230	101300000	1000	0	0	-1	0
15420635	6019	850	0	-100	0	230	101300000	1000	0	0	-1	0
15433195	6021	851	0	-100	0	230	101300000	1000	0	0	-1	0
15445755	6023	852	0	-100	0	230	101300000	1000	0	0	-1	0
15458315	6027	859	0	-100	0	230	101300000	1000	0	0	-1	0
15470875	6023	856	0	-100	0	230	101300000	1000	0	0	-1	0
15483435	6021	861	0	-100	0	230	101300000	1000	0	0	-1	0
15495995	6019	857	0	-100	0	230	101300000	1000	0	0	-1	0
15508555	6023	858	0	-100	0	230	101300000	1000	0	0	-1	0
15521115	6020	851	0	-100	0	230	101300000	1000	0	0	-1	0
15533675	6021	862	0	-100	0	230	101300000	1000	0	0	-1	0
15546235	6025	857	0	-100	0	230	101300000	1000	0	0	-1	0
15558795	6021	856	0	-100	0	230	101300000	1000	0	0	-1	0
15571355	6022	863	0	-100	0	230	101300000	1000	0	0	-1	0
15583915	6019	858	0	-100	0	230	101300000	1000	0	0	-1	0
15596475	6013	862	0	-100	0	230	101300000	1000	0	0	-1	0
15609035	6017	863	0	-100	0	230	101300000	1000	0	0	-1	0
15621595	6016	851	0	-100	0	230	101300000	1000	0	0	-1	0
15634155	6020	857	0	-100	0	230	101300000	1000	0	0	-1	0
15646715	6019	869	0	-100	0	230	101300000	1000	0	0	-1	0
15659275	6021	853	0	-100	0	230	101300000	1000	0	0	-1	0
15671835	6016	853	0	-100	0	230	101300000	1000	0	0	-1	0
15684395	6014	858	0	-100	0	230	101300000	1000	0	0	-1	0
15696955	6016	858	0	-100	0	230	101300000	1000	0	0	-1	0
15709515	6012	861	0	-100	0	230	101300000	1000	0	0	-1	0
15722075	6016	852	0	-100	0	230	101300000	1000	0	0	-1	0
15734635	6019	848	0	-100	0	230	101300000	1000	0	0	-1	0
15747195	6020	858	0	-100	0	230	101300000	1000	0	0	-1	0
15759755	6018	864	0	-100	0	230	101300000	1000	0	0	-1	0
15772315	6022	851	0	-100	0	230	101300000	1000	0	0	-1	0
15784875	6019	871	0	-100	0	230	101300000	1000	0	0	-1	0
15797435	6016	861	0	-100	0	230	101300000	1000	0	0	-1	0
15809995	6018	863	0	-100	0	230	101300000	1000	0	0	-1	0
15822555	6020	860	0	-100	0	230	101300000	1000	0	0	-1	0
15835115	6020	866	0	-100	0	230	101300000	1000	0	0	-1	0
15847675	6016	860	0	-100	0	230	101300000	1000	0	0	-1	0
15860235	6020	858	0	-100	0	230	101300000	1000	0	0	-1	0
15872795	6020	847	0	-100	0	230	101300000	1000	0	0	-1	0
15885355	6019	844	0	-100	0	230	101300000	1000	0	0	-1	0
15897915	6016	872	0	-100	0	230	101300000	1000	0	0	-1	0
15910475	6017	859	0	-100	0	230	101300000	1000	0	0	-1	0
15923035	6020	867	0	-100	0	230	101300000	1000	0	0	-1	0
15935595	6015	856	0	-100	0	230	101300000	1000	0	0	-1	0
15948155	6023	856	0	-100	0	230	101300000	1000	0	0	-1	0
15960715	6019	852	0	-100	0	230	101300000	1000	0	0	-1	0
15973275	6020	840	0	-100	0	230	101300000	1000	0	0	-1	0
15985835	6029	856	0	-100	0	230	101300000	1000	0	0	-1	0
15998395	6021	866	0	-100	0	230	101300000	1000	0	0	-1	0
16010955	6020	874	0	-100	0	230	101300000	1000	0	0	-1	0
16023515	6016	866	0	-100	0	230	101300000	1000	0	0	-1	0
16036075	6014	848	0	-100	0	230	101300000	1000	0	0	-1	0
16048635	6016	851	0	-100	0	230	101300000	1000	0	0	-1	0
16061195	6018	858	0	-100	0	230	101300000	1000	0	0	-1	0
16073755	6018	863	0	-100	0	230	101300000	1000	0	0	-1	0
16086315	6022	868	0	-100	0	230	101300000	1000	0	0	-1	0
16098875	6023	861	0	-100	0	230	101300000	1000	0	0	-1	0
16111435	6016	857	0	-100	0	230	101300000	1000	0	0	-1	0
16123995	6016	860	0	-100	0	230	101300000	1000	0	0	-1	0
16136555	6025	849	0	-100	0	230	101300000	1000	0	0	-1	0
16149115	6021	862	0	-100	0	230	101300000	1000	0	0	-1	0
16161675	6021	859	0	-100	0	230	101300000	1000	0	0	-1	0
16174235	6017	859	0	-100	0	230	101300000	1000	0	0	-1	0
16186795	6018	860	0	-100	0	230	101300000	1000	0	0	-1	0
16199355	6019	867	0	-100	0	230	101300000	1000	0	0	-1	0
16211915	6016	870	0	-100	0	230	101300000	1000	0	0	-1	0
16224475	6026	861	0	-100	0	230	101300000	1000	0	0	-1	0
16237035	6022	857	0	-100	0	230	101300000	1000	0	0	-1	0
16249595	6022	836	0	-100	0	230	101300000	1000	0	0	-1	0
16262155	6021	849	0	-100	0	230	101300000	1000	0	0	-1	0
16274715	6027	846	0	-100	0	230	101300000	1000	0	0	-1	0
16287275	6025	856	0	-100	0	230	101300000	1000	0	0	-1	0
16299835	6027	859	0	-100	0	230	101300000	1000	0	0	-1	0
16312395	6025	867	0	-100	0	230	101300000	1000	0	0	-1	0
16324955	6021	852	0	-100	0	230	101300000	1000	0	0	-1	0
16337515	6021	847	0	-100	0	230	101300000	1000	0	0	-1	0
16350075	6021	858	0	-100	0	230	101300000	1000	0	0	-1	0
16362635	6019	856	0	-100	0	230	101300000	1000	0	0	-1	0
16375195	6016	847	0	-100	0	230	101300000	1000	0	0	-1	0
16387755	6017	867	0	-100	0	230	101300000	1000	0	0	-1	0
16400315	6019	869	0	-100	0	230	101300000	1000	0	0	-1	0
16412875	6020	865	0	-100	0	230	101300000	1000	0	0	-1	0
16425435	6019	869	0	-100	0	230	101300000	1000	0	0	-1	0
16437995	6017	851	0	-100	0	230	101300000	1000	0	0	-1	0
16450555	6017	857	0	-100	0	230	101300000	1000	0	0	-1	0
16463115	6020	858	0	-100	0	230	101300000	1000	0	0	-1	0
16475675	6020	848	0	-100	0	230	101300000	1000	0	0	-1	0
16488235	6020	855	0	-100	0	230	101300000	1000	0	0	-1	0
16500795	6017	869	0	-100	0	230	101300000	1000	0	0	-1	0
16513355	6019	852	0	-100	0	230	101300000	1000	0	0	-1	0
16525915	6027	863	0	-100	0	230	101300000	1000	0	0	-1	0
16538475	6021	860	0	-100	0	230	101300000	1000	0	0	-1	0
16551035	6023	854	0	-100	0	230	101300000	1000	0	0	-1	0
16563595	6019	857	0	-100	0	230	101300000	1000	0	0	-1	0
16576155	6018	858	0	-100	0	230	101300000	1000	0	0	-1	0
16588715	6020	859	0	-100	0	230	101300000	1000	0	0	-1	0
16601275	6013	854	0	-100	0	230	101300000	1000	0	0	-1	0
16613835	6016	860	0	-100	0	230	101300000	1000	0	0	-1	0
16626395	6021	870	0	-100	0	230	101300000	1000	0	0	-1	0
16638955	6019	866	0	-100	0	230	101300000	1000	0	0	-1	0
16651515	6020	866	0	-100	0	230	101300000	1000	0	0	-1	0
16664075	6021	846	0	-100	0	230	101300000	1000	0	0	-1	0
16676635	6023	859	0	-100	0	230	101300000	1000	0	0	-1	0
16689195	6025	849	0	-100	0	230	101300000	1000	0	0	-1	0
16701755	6017	861	0	-100	0	230	101300000	1000	0	0	-1	0
16714315	6016	856	0	-100	0	230	101300000	1000	0	0	-1	0
16726875	6014	854	0	-100	0	230	101300000	1000	0	0	-1	0
16739435	6017	858	0	-100	0	230	101300000	1000	0	0	-1	0
16751995	6020	864	0	-100	0	230	101300000	1000	0	0	-1	0
16764555	6019	852	0	-100	0	230	101300000	1000	0	0	-1	0
16777115	6020	852	0	-100	0	230	101300000	1000	0	0	-1	0
16789675	6020	860	0	-100	0	230	101300000	1000	0	0	-1	0
16802235	6021	863	0	-100	0	230	101300000	1000	0	0	-1	0
16814795	6020	867	0	-100	0	230	101300000	1000	0	0	-1	0
16827355	6020	846	0	-100	0	230	101300000	1000	0	0	-1	0
16839915	6021	865	0	-100	0	230	101300000	1000	0	0	-1	0
16852475	6025	863	0	-100	0	230	101300000	1000	0	0	-1	0
16865035	6021	853	0	-100	0	230	101300000	1000	0	0	-1	0
16877595	6025	860	0	-100	0	230	101300000	1000	0	0	-1	0
16890155	6018	862	0	-100	0	230	101300000	1000	0	0	-1	0
16902715	6021	858	0	-100	0	230	101300000	1000	0	0	-1	0
16915275	6018	862	0	-100	0	230	101300000	1000	0	0	-1	0
16927835	6016	865	0	-100	0	230	101300000	1000	0	0	-1	0
16940395	6020	867	0	-100	0	230	101300000	1000	0	0	-1	0
16952955	6013	861	0	-100	0	230	101300000	1000	0	0	-1	0
16965515	6020	855	0	-100	0	230	101300000	1000	0	0	-1	0
16978075	6015	848	0	-100	0	230	101300000	1000	0	0	-1	0
16990635	6022	855	0	-100	0	230	101300000	1000	0	0	-1	0
17003195	6025	858	0	-100	0	230	101300000	1000	0	0	-1	0
17015755	6023	856	0	-100	0	230	101300000	1000	0	0	-1	0
17028315	6022	860	0	-100	0	230	101300000	1000	0	0	-1	0
17040875	6020	854	0	-100	0	230	101300000	1000	0	0	-1	0
17053435	6016	857	0	-100	0	230	101300000	1000	0	0	-1	0
17065995	6015	847	0	-100	0	230	101300000	1000	0	0	-1	0
17078555	6016	856	0	-100	0	230	101300000	1000	0	0	-1	0
17091115	6019	871	0	-100	0	230	101300000	1000	0	0	-1	0
17103675	6017	847	0	-100	0	230	101300000	1000	0	0	-1	0
17116235	6020	863	0	-100	0	230	101300000	1000	0	0	-1	0
17128795	6024	864	0	-100	0	230	101300000	1000	0	0	-1	0
17141355	6023	861	0	-100	0	230	101300000	1000	0	0	-1	0
17153915	6021	840	0	-100	0	230	101300000	1000	0	0	-1	0
17166475	6019	859	0	-100	0	230	101300000	1000	0	0	-1	0
17179035	6018	841	0	-100	0	230	101300000	1000	0	0	-1	0
17191595	6020	859	0	-100	0	230	101300000	1000	0	0	-1	0
17204155	6020	860	0	-100	0	230	101300000	1000	0	0	-1	0
17216715	6020	859	0	-100	0	230	101300000	1000	0	0	-1	0
17229275	6019	864	0	-100	0	230	101300000	1000	0	0	-1	0
17241835	6026	857	0	-100	0	230	101300000	1000	0	0	-1	0
17254395	6025	856	0	-100	0	230	101300000	1000	0	0	-1	0
17266955	6025	857	0	-100	0	230	101300000	1000	0	0	-1	0
17279515	6019	849	0	-100	0	230	101300000	1000	0	0	-1	0
17292075	6016	855	0	-100	0	230	101300000	1000	0	0	-1	0
17304635	6014	853	0	-100	0	230	101300000	1000	0	0	-1	0
17317195	6016	850	0	-100	0	230	101300000	1000	0	0	-1	0
17329755	6021	864	0	-100	0	230	101300000	1000	0	0	-1	0
17342315	6013	859	0	-100	0	230	101300000	1000	0	0	-1	0
17354875	6021	864	0	-100	0	230	101300000	1000	0	0	-1	0
17367435	6023	876	0	-100	0	230	101300000	1000	0	0	-1	0
17379995	6019	856	0	-100	0	230	101300000	1000	0	0	-1	0
17392555	6012	857	0	-100	0	230	101300000	1000	0	0	-1	0
17405115	6016	854	0	-100	0	230	101300000	1000	0	0	-1	0
17417675	6021	850	0	-100	0	230	101300000	1000	0	0	-1	0
17430235	6027	862	0	-100	0	230	101300000	1000	0	0	-1	0
17442795	6025	866	0	-100	0	230	101300000	1000	0	0	-1	0
17455355	6017	857	0	-100	0	230	101300000	1000	0	0	-1	0
17467915	6018	850	0	-100	0	230	101300000	1000	0	0	-1	0
17480475	6017	859	0	-100	0	230	101300000	1000	0	0	-1	0
17493035	6025	856	0	-100	0	230	101300000	1000	0	0	-1	0
17505595	6021	844	0	-100	0	230	101300000	1000	0	0	-1	0
17518155	6022	853	0	-100	0	230	101300000	1000	0	0	-1	0
17530715	6015	859	0	-100	0	230	101300000	1000	0	0	-1	0
17543275	6016	857	0	-100	0	230	101300000	1000	0	0	-1	0
17555835	6016	854	0	-100	0	230	101300000	1000	0	0	-1	0
17568395	6022	859	0	-100	0	230	101300000	1000	0	0	-1	0
17580955	6020	860	0	-100	0	230	101300000	1000	0	0	-1	0
17593515	6016	855	0	-100	0	230	101300000	1000	0	0	-1	0
17606075	6012	860	0	-100	0	230	101300000	1000	0	0	-1	0
17618635	6020	848	0	-100	0	230	101300000	1000	0	0	-1	0
17631195	6014	846	0	-100	0	230	101300000	1000	0	0	-1	0
17643755	6021	849	0	-100	0	230	101300000	1000	0	0	-1	0
17656315	6023	846	0	-100	0	230	101300000	1000	0	0	-1	0
17668875	6015	851	0	-100	0	230	101300000	1000	0	0	-1	0
17681435	6013	861	0	-100	0	230	101300000	1000	0	0	-1	0
17693995	6012	848	0	-100	0	230	101300000	1000	0	0	-1	0
17706555	6017	849	0	-100	0	230	101300000	1000	0	0	-1	0
17719115	6016	849	0	-100	0	230	101300000	1000	0	0	-1	0
17731675	6017	849	0	-100	0	230	101300000	1000	0	0	-1	0
17744235	6017	860	0	-100	0	230	101300000	1000	0	0	-1	0
17756795	6019	856	0	-100	0	230	101300000	1000	0	0	-1	0
17769355	6014	863	0	-100	0	230	101300000	1000	0	0	-1	0
17781915	6013	867	0	-100	0	230	101300000	1000	0	0	-1	0
17794475	6018	858	0	-100	0	230	101300000	1000	0	0	-1	0
17807035	6019	857	0	-100	0	230	101300000	1000	0	0	-1	0
17819595	6011	863	0	-100	0	230	101300000	1000	0	0	-1	0
17832155	6018	862	0	-100	0	230	101300000	1000	0	0	-1	0
17844715	6018	849	0	-100	0	230	101300000	1000	0	0	-1	0
17857275	6019	843	0	-100	0	230	101300000	1000	0	0	-1	0
17869835	6020	851	0	-100	0	230	101300000	1000	0	0	-1	0
17882395	6024	863	0	-100	0	230	101300000	1000	0	0	-1	0
17894955	6022	860	0	-100	0	230	101300000	1000	0	0	-1	0
17907515	6021	860	0	-100	0	230	101300000	1000	0	0	-1	0
17920075	6017	866	0	-100	0	230	101300000	1000	0	0	-1	0
17932635	6016	858	0	-100	0	230	101300000	1000	0	0	-1	0
17945195	6017	863	0	-100	0	230	101300000	1000	0	0	-1	0
17957755	6024	855	0	-100	0	230	101300000	1000	0	0	-1	0
17970315	6017	867	0	-100	0	230	101300000	1000	0	0	-1	0
17982875	6018	861	0	-100	0	230	101300000	1000	0	0	-1	0
17995435	6023	857	0	-100	0	230	101300000	1000	0	0	-1	0
18007995	6029	848	0	-100	0	230	101300000	1000	0	0	-1	0
18020555	6025	858	0	-100	0	230	101300000	1000	0	0	-1	0
18033115	6027	854	0	-100	0	230	101300000	1000	0	0	-1	0
18045675	6025	848	0	-100	0	230	101300000	1000	0	0	-1	0
18095915	6025	856	0	-100	0	230	101300000	1000	0	0	-1	0
18108475	6023	858	0	-100	0	230	101300000	1000	0	0	-1	0
18121035	6019	857	0	-100	0	230	101300000	1000	0	0	-1	0
18133595	6017	856	0	-100	0	230	101300000	1000	0	0	-1	0
18146155	6016	854	0	-100	0	230	101300000	1000	0	0	-1	0
18158715	6014	849	0	-100	0	230	101300000	1000	0	0	-1	0
18171275	6016	862	0	-100	0	230	101300000	1000	0	0	-1	0
18183835	6021	856	0	-100	0	230	101300000	1000	0	0	-1	0
18196395	6017	857	0	-100	0	230	101300000	1000	0	0	-1	0
18208955	6024	862	0	-100	0	230	101300000	1000	0	0	-1	0
18221515	6021	863	0	-100	0	230	101300000	1000	0	0	-1	0
18234075	6024	865	0	-100	0	230	101300000	1000	0	0	-1	0
18321995	6021	848	0	-100	0	230	101300000	1000	0	0	-1	0
18334555	6022	869	0	-100	0	230	101300000	1000	0	0	-1	0
18347115	6025	852	0	-100	0	230	101300000	1000	0	0	-1	0
18359675	6019	852	0	-100	0	230	101300000	1000	0	0	-1	0
18372235	6018	864	0	-100	0	230	101300000	1000	0	0	-1	0
18384795	6016	849	0	-100	0	230	101300000	1000	0	0	-1	0
18397355	6014	854	0	-100	0	230	101300000	1000	0	0	-1	0
18409915	6022	861	0	-100	0	230	101300000	1000	0	0	-1	0
18422475	6016	852	0	-100	0	230	101300000	1000	0	0	-1	0
18435035	6023	850	0	-100	0	230	101300000	1000	0	0	-1	0
18447595	6011	846	0	-100	0	230	101300000	1000	0	0	-1	0
18460155	6020	855	0	-100	0	230	101300000	1000	0	0	-1	0
18472715	6021	856	0	-100	0	230	101300000	1000	0	0	-1	0
18485275	6025	860	0	-100	0	230	101300000	1000	0	0	-1	0
18497835	6016	858	0	-100	0	230	101300000	1000	0	0	-1	0
18510395	6021	869	0	-100	0	230	101300000	1000	0	0	-1	0
18522955	6018	856	0	-100	0	230	101300000	1000	0	0	-1	0
18535515	6022	853	0	-100	0	230	101300000	1000	0	0	-1	0
18548075	6019	855	0	-100	0	230	101300000	1000	0	0	-1	0
18560635	6018	851	0	-100	0	230	101300000	1000	0	0	-1	0
18573195	6022	862	0	-100	0	230	101300000	1000	0	0	-1	0
18585755	6016	854	0	-100	0	230	101300000	1000	0	0	-1	0
18598315	6019	862	0	-100	0	230	101300000	1000	0	0	-1	0
18610875	6016	862	0	-100	0	230	101300000	1000	0	0	-1	0
18623435	6017	855	0	-100	0	230	101300000	1000	0	0	-1	0
18635995	6023	856	0	-100	0	230	101300000	1000	0	0	-1	0
18648555	6016	859	0	-100	0	230	101300000	1000	0	0	-1	0
18661115	6016	859	0	-100	0	230	101300000	1000	0	0	-1	0
18673675	6021	858	0	-100	0	230	101300000	1000	0	0	-1	0
18686235	6016	847	0	-100	0	230	101300000	1000	0	0	-1	0
18698795	6021	861	0	-100	0	230	101300000	1000	0	0	-1	0
18711355	6020	855	0	-100	0	230	101300000	1000	0	0	-1	0
18723915	6021	859	0	-100	0	230	101300000	1000	0	0	-1	0
18736475	6022	859	0	-100	0	230	101300000	1000	0	0	-1	0
18749035	6021	846	0	-100	0	230	101300000	1000	0	0	-1	0
18761595	6018	858	0	-100	0	230	101300000	1000	0	0	-1	0
18774155	6017	854	0	-100	0	230	101300000	1000	0	0	-1	0
18786715	6021	861	0	-100	0	230	101300000	1000	0	0	-1	0
18799275	6016	873	0	-100	0	230	101300000	1000	0	0	-1	0
18811835	6025	854	0	-100	0	230	101300000	1000	0	0	-1	0
18824395	6016	858	0	-100	0	230	101300000	1000	0	0	-1	0
18836955	6023	831	0	-100	0	230	101300000	1000	0	0	-1	0
18849515	6019	857	0	-100	0	230	101300000	1000	0	0	-1	0
18862075	6021	861	0	-100	0	230	101300000	1000	0	0	-1	0
18874635	6019	839	0	-100	0	230	101300000	1000	0	0	-1	0
18887195	6019	857	0	-100	0	230	101300000	1000	0	0	-1	0
18899755	6017	849	0	-100	0	230	101300000	1000	0	0	-1	0
18912315	6023	856	0	-100	0	230	101300000	1000	0	0	-1	0
18924875	6022	852	0	-100	0	230	101300000	1000	0	0	-1	0
18937435	6023	855	0	-100	0	230	101300000	1000	0	0	-1	0
18949995	6017	854	0	-100	0	230	101300000	1000	0	0	-1	0
18962555	6019	850	0	-100	0	230	101300000	1000	0	0	-1	0
18975115	6017	849	0	-100	0	230	101300000	1000	0	0	-1	0
18987675	6020	863	0	-100	0	230	101300000	1000	0	0	-1	0
19000235	6027	853	0	-100	0	230	101300000	1000	0	0	-1	0
19012795	6018	854	0	-100	0	230	101300000	1000	0	0	-1	0
19025355	6025	859	0	-100	0	230	101300000	1000	0	0	-1	0
19037915	6019	843	0	-100	0	230	101300000	1000	0	0	-1	0
19050475	6017	855	0	-100	0	230	101300000	1000	0	0	-1	0
19063035	6017	858	0	-100	0	230	101300000	1000	0	0	-1	0
19075595	6020	853	0	-100	0	230	101300000	1000	0	0	-1	0
19088155	6023	861	0	-100	0	230	101300000	1000	0	0	-1	0
19100715	6016	853	0	-100	0	230	101300000	1000	0	0	-1	0
19113275	6016	858	0	-100	0	230	101300000	1000	0	0	-1	0
19125835	6019	852	0	-100	0	230	101300000	1000	0	0	-1	0
19138395	6029	856	0	-100	0	230	101300000	1000	0	0	-1	0
19150955	6017	865	0	-100	0	230	101300000	1000	0	0	-1	0
19163515	6020	851	0	-100	0	230	101300000	1000	0	0	-1	0
19176075	6021	858	0	-100	0	230	101300000	1000	0	0	-1	0
19188635	6018	852	0	-100	0	230	101300000	1000	0	0	-1	0
19201195	6026	857	0	-100	0	230	101300000	1000	0	0	-1	0
19213755	6016	847	0	-100	0	230	101300000	1000	0	0	-1	0
19226315	6021	850	0	-100	0	230	101300000	1000	0	0	-1	0
19238875	6015	848	0	-100	0	230	101300000	1000	0	0	-1	0
19251435	6024	852	0	-100	0	230	101300000	1000	0	0	-1	0
19263995	6018	854	0	-100	0	230	101300000	1000	0	0	-1	0
19276555	6027	856	0	-100	0	230	101300000	1000	0	0	-1	0
19289115	6020	858	0	-100	0	230	101300000	1000	0	0	-1	0
19301675	6027	855	0	-100	0	230	101300000	1000	0	0	-1	0
19314235	6017	855	0	-100	0	230	101300000	1000	0	0	-1	0
19326795	6019	849	0	-100	0	230	101300000	1000	0	0	-1	0
19339355	6014	857	0	-100	0	230	101300000	1000	0	0	-1	0
19351915	6020	859	0	-100	0	230	101300000	1000	0	0	-1	0
19364475	6024	857	0	-100	0	230	101300000	1000	0	0	-1	0
19377035	6018	851	0	-100	0	230	101300000	1000	0	0	-1	0
19389595	6019	844	0	-100	0	230	101300000	1000	0	0	-1	0
19402155	6017	851	0	-100	0	230	101300000	1000	0	0	-1	0
19414715	6020	853	0	-100	0	230	101300000	1000	0	0	-1	0
19427275	6026	855	0	-100	0	230	101300000	1000	0	0	-1	0
19439835	6018	856	0	-100	0	230	101300000	1000	0	0	-1	0
19452395	6021	855	0	-100	0	230	101300000	1000	0	0	-1	0
19464955	6019	859	0	-100	0	230	101300000	1000	0	0	-1	0
19477515	6020	854	0	-100	0	230	101300000	1000	0	0	-1	0
19490075	6017	863	0	-100	0	230	101300000	1000	0	0	-1	0
19502635	6017	860	0	-100	0	230	101300000	1000	0	0	-1	0
19515195	6025	865	0	-100	0	230	101300000	1000	0	0	-1	0
19527755	6015	850	0	-100	0	230	101300000	1000	0	0	-1	0
19540315	6012	868	0	-100	0	230	101300000	1000	0	0	-1	0
19552875	6025	851	0	-100	0	230	101300000	1000	0	0	-1	0
19565435	6018	849	0	-100	0	230	101300000	1000	0	0	-1	0
19577995	6021	847	0	-100	0	230	101300000	1000	0	0	-1	0
19590555	6020	855	0	-100	0	230	101300000	1000	0	0	-1	0
19603115	6022	859	0	-100	0	230	101300000	1000	0	0	-1	0
19615675	6017	857	0	-100	0	230	101300000	1000	0	0	-1	0
19628235	6020	847	0	-100	0	230	101300000	1000	0	0	-1	0
19640795	6025	862	0	-100	0	230	101300000	1000	0	0	-1	0
19653355	6015	851	0	-100	0	230	101300000	1000	0	0	-1	0
19665915	6025	849	0	-100	0	230	101300000	1000	0	0	-1	0
19678475	6014	867	0	-100	0	230	101300000	1000	0	0	-1	0
19691035	6016	862	0	-100	0	230	101300000	1000	0	0	-1	0
19703595	6023	857	0	-100	0	230	101300000	1000	0	0	-1	0
19716155	6014	867	0	-100	0	230	101300000	1000	0	0	-1	0
19728715	6019	854	0	-100	0	230	101300000	1000	0	0	-1	0
19741275	6017	858	0	-100	0	230	101300000	1000	0	0	-1	0
19753835	6022	858	0	-100	0	230	101300000	1000	0	0	-1	0
19766395	6022	853	0	-100	0	230	101300000	1000	0	0	-1	0
19778955	6018	845	0	-100	0	230	101300000	1000	0	0	-1	0
19791515	6022	859	0	-100	0	230	101300000	1000	0	0	-1	0
19804075	6017	864	0	-100	0	230	101300000	1000	0	0	-1	0
19816635	6016	852	0	-100	0	230	101300000	1000	0	0	-1	0
19829195	6027	858	0	-100	0	230	101300000	1000	0	0	-1	0
19841755	6013	857	0	-100	0	230	101300000	1000	0	0	-1	0
19854315	6016	849	0	-100	0	230	101300000	1000	0	0	-1	0
19866875	6021	849	0	-100	0	230	101300000	1000	0	0	-1	0
19879435	6019	857	0	-100	0	230	101300000	1000	0	0	-1	0
19891995	6023	861	0	-100	0	230	101300000	1000	0	0	-1	0
19904555	6014	852	0	-100	0	230	101300000	1000	0	0	-1	0
19917115	6016	851	0	-100	0	230	101300000	1000	0	0	-1	0
19929675	6019	852	0	-100	0	230	101300000	1000	0	0	-1	0
19942235	6020	854	0	-100	0	230	101300000	1000	0	0	-1	0
19954795	6017	853	0	-100	0	230	101300000	1000	0	0	-1	0
19967355	6027	853	0	-100	0	230	101300000	1000	0	0	-1	0
19979915	6017	859	0	-100	0	230	101300000	1000	0	0	-1	0
19992475	6025	859	0	-100	0	230	101300000	1000	0	0	-1	0
20005035	6014	854	0	-100	0	230	101300000	1000	0	0	-1	0
20017595	6025	859	0	-100	0	230	101300000	1000	0	0	-1	0
20030155	6016	866	0	-100	0	230	101300000	1000	0	0	-1	0
20042715	6027	850	0	-100	0	230	101300000	1000	0	0	-1	0
20055275	6014	857	0	-100	0	230	101300000	1000	0	0	-1	0
20067835	6026	864	0	-100	0	230	101300000	1000	0	0	-1	0
20080395	6013	862	0	-100	0	230	101300000	1000	0	0	-1	0
20092955	6023	846	0	-100	0	230	101300000	1000	0	0	-1	0
20105515	6016	854	0	-100	0	230	101300000	1000	0	0	-1	0
20118075	6023	856	0	-100	0	230	101300000	1000	0	0	-1	0
20130635	6014	852	0	-100	0	230	101300000	1000	0	0	-1	0
20143195	6020	863	0	-100	0	230	101300000	1000	0	0	-1	0
20155755	6018	857	0	-100	0	230	101300000	1000	0	0	-1	0
20168315	6025	852	0	-100	0	230	101300000	1000	0	0	-1	0
20180875	6018	859	0	-100	0	230	101300000	1000	0	0	-1	0
20193435	6025	863	0	-100	0	230	101300000	1000	0	0	-1	0
20205995	6019	860	0	-100	0	230	101300000	1000	0	0	-1	0
20218555	6020	851	0	-100	0	230	101300000	1000	0	0	-1	0
20231115	6024	850	0	-100	0	230	101300000	1000	0	0	-1	0
20243675	6016	848	0	-100	0	230	101300000	1000	0	0	-1	0
20256235	6022	860	0	-100	0	230	101300000	1000	0	0	-1	0
20268795	6016	854	0	-100	0	230	101300000	1000	0	0	-1	0
20281355	6016	849	0	-100	0	230	101300000	1000	0	0	-1	0
20293915	6025	858	0	-100	0	230	101300000	1000	0	0	-1	0
20306475	6021	868	0	-100	0	230	101300000	1000	0	0	-1	0
20319035	6021	845	0	-100	0	230	101300000	1000	0	0	-1	0
20331595	6020	855	0	-100	0	230	101300000	1000	0	0	-1	0
20344155	6020	851	0	-100	0	230	101300000	1000	0	0	-1	0
20356715	6020	847	0	-100	0	230	101300000	1000	0	0	-1	0
20369275	6017	849	0	-100	0	230	101300000	1000	0	0	-1	0
20381835	6021	846	0	-100	0	230	101300000	1000	0	0	-1	0
20394395	6021	868	0	-100	0	230	101300000	1000	0	0	-1	0
20406955	6016	865	0	-100	0	230	101300000	1000	0	0	-1	0
20419515	6023	861	0	-100	0	230	101300000	1000	0	0	-1	0
20432075	6019	859	0	-100	0	230	101300000	1000	0	0	-1	0
20444635	6018	860	0	-100	0	230	101300000	1000	0	0	-1	0
20457195	6021	854	0	-100	0	230	101300000	1000	0	0	-1	0
20469755	6014	861	0	-100	0	230	101300000	1000	0	0	-1	0
20482315	6023	862	0	-100	0	230	101300000	1000	0	0	-1	0
20494875	6014	858	0	-100	0	230	101300000	1000	0	0	-1	0
20507435	6026	852	0	-100	0	230	101300000	1000	0	0	-1	0
20519995	6018	848	0	-100	0	230	101300000	1000	0	0	-1	0
20532555	6026	855	0	-100	0	230	101300000	1000	0	0	-1	0
20545115	6016	866	0	-100	0	230	101300000	1000	0	0	-1	0
20557675	6021	848	0	-100	0	230	101300000	1000	0	0	-1	0
20570235	6017	860	0	-100	0	230	101300000	1000	0	0	-1	0
20582795	6022	849	0	-100	0	230	101300000	1000	0	0	-1	0
20595355	6017	848	0	-100	0	230	101300000	1000	0	0	-1	0
20607915	6016	844	0	-100	0	230	101300000	1000	0	0	-1	0
20620475	6022	869	0	-100	0	230	101300000	1000	0	0	-1	0
20633035	6020	859	0	-100	0	230	101300000	1000	0	0	-1	0
20645595	6020	848	0	-100	0	230	101300000	1000	0	0	-1	0
20658155	6012	860	0	-100	0	230	101300000	1000	0	0	-1	0
20670715	6018	838	0	-100	0	230	101300000	1000	0	0	-1	0
20683275	6017	860	0	-100	0	230	101300000	1000	0	0	-1	0
20695835	6016	860	0	-100	0	230	101300000	1000	0	0	-1	0
20708395	6021	855	0	-100	0	230	101300000	1000	0	0	-1	0
20720955	6021	861	0	-100	0	230	101300000	1000	0	0	-1	0
20733515	6023	849	0	-100	0	230	101300000	1000	0	0	-1	0
20746075	6016	861	0	-100	0	230	101300000	1000	0	0	-1	0
20758635	6022	864	0	-100	0	230	101300000	1000	0	0	-1	0
20771195	6016	847	0	-100	0	230	101300000	1000	0	0	-1	0
20783755	6020	855	0	-100	0	230	101300000	1000	0	0	-1	0
20796315	6020	854	0	-100	0	230	101300000	1000	0	0	-1	0
20808875	6016	856	0	-100	0	230	101300000	1000	0	0	-1	0
20821435	6017	852	0	-100	0	230	101300000	1000	0	0	-1	0
20833995	6017	866	0	-100	0	230	101300000	1000	0	0	-1	0
20846555	6025	871	0	-100	0	230	101300000	1000	0	0	-1	0
20859115	6018	848	0	-100	0	230	101300000	1000	0	0	-1	0
20871675	6021	853	0	-100	0	230	101300000	1000	0	0	-1	0
20884235	6017	853	0	-100	0	230	101300000	1000	0	0	-1	0
20896795	6021	858	0	-100	0	230	101300000	1000	0	0	-1	0
20909355	6022	855	0	-100	0	230	101300000	1000	0	0	-1	0
20921915	6019	859	0	-100	0	230	101300000	1000	0	0	-1	0
20934475	6025	861	0	-100	0	230	101300000	1000	0	0	-1	0
20947035	6016	858	0	-100	0	230	101300000	1000	0	0	-1	0
20959595	6021	848	0	-100	0	230	101300000	1000	0	0	-1	0
20972155	6012	858	0	-100	0	230	101300000	1000	0	0	-1	0
20984715	6022	855	0	-100	0	230	101300000	1000	0	0	-1	0
20997275	6020	854	0	-100	0	230	101300000	1000	0	0	-1	0
21022395	6021	853	0	-100	0	230	101300000	1000	0	0	-1	0
21034955	6016	858	0	-100	0	230	101300000	1000	0	0	-1	0
21047515	6022	856	0	-100	0	230	101300000	1000	0	0	-1	0
21060075	6015	862	0	-100	0	230	101300000	1000	0	0	-1	0
21072635	6019	848	0	-100	0	230	101300000	1000	0	0	-1	0
21085195	6017	861	0	-100	0	230	101300000	1000	0	0	-1	0
21097755	6022	851	0	-100	0	230	101300000	1000	0	0	-1	0
21110315	6016	854	0	-100	0	230	101300000	1000	0	0	-1	0
21122875	6021	857	0	-100	0	230	101300000	1000	0	0	-1	0
21135435	6018	853	0	-100	0	230	101300000	1000	0	0	-1	0
21147995	6027	861	0	-100	0	230	101300000	1000	0	0	-1	0
21160555	6015	856	0	-100	0	230	101300000	1000	0	0	-1	0
21298715	6019	855	0	-100	0	230	101300000	1000	0	0	-1	0
21311275	6013	853	0	-100	0	230	101300000	1000	0	0	-1	0
21323835	6018	856	0	-100	0	230	101300000	1000	0	0	-1	0
21336395	6022	854	0	-100	0	230	101300000	1000	0	0	-1	0
21348955	6020	860	0	-100	0	230	101300000	1000	0	0	-1	0
21361515	6025	854	0	-100	0	230	101300000	1000	0	0	-1	0
21374075	6016	849	0	-100	0	230	101300000	1000	0	0	-1	0
21386635	6021	848	0	-100	0	230	101300000	1000	0	0	-1	0
21399195	6020	851	0	-100	0	230	101300000	1000	0	0	-1	0
21411755	6021	855	0	-100	0	230	101300000	1000	0	0	-1	0
21424315	6020	867	0	-100	0	230	101300000	1000	0	0	-1	0
21436875	6020	851	0	-100	0	230	101300000	1000	0	0	-1	0
21449435	6025	858	0	-100	0	230	101300000	1000	0	0	-1	0
21461995	6015	853	0	-100	0	230	101300000	1000	0	0	-1	0
21474555	6024	851	0	-100	0	230	101300000	1000	0	0	-1	0
21487115	6016	858	0	-100	0	230	101300000	1000	0	0	-1	0
21499675	6024	860	0	-100	0	230	101300000	1000	0	0	-1	0
21512235	6016	847	0	-100	0	230	101300000	1000	0	0	-1	0
21524795	6026	861	0	-100	0	230	101300000	1000	0	0	-1	0
21537355	6017	859	0	-100	0	230	101300000	1000	0	0	-1	0
21549915	6020	854	0	-100	0	230	101300000	1000	0	0	-1	0
21562475	6016	859	0	-100	0	230	101300000	1000	0	0	-1	0
21575035	6016	840	0	-100	0	230	101300000	1000	0	0	-1	0
21587595	6016	852	0	-100	0	230	101300000	1000	0	0	-1	0
21600155	6016	869	0	-100	0	230	101300000	1000	0	0	-1	0
21612715	6021	855	0	-100	0	230	101300000	1000	0	0	-1	0
21625275	6013	848	0	-100	0	230	101300000	1000	0	0	-1	0
21637835	6016	858	0	-100	0	230	101300000	1000	0	0	-1	0
21650395	6023	857	0	-100	0	230	101300000	1000	0	0	-1	0
21662955	6012	858	0	-100	0	230	101300000	1000	0	0	-1	0
21675515	6020	867	0	-100	0	230	101300000	1000	0	0	-1	0
21688075	6016	862	0	-100	0	230	101300000	1000	0	0	-1	0
21700635	6013	852	0	-100	0	230	101300000	1000	0	0	-1	0
21713195	6021	854	0	-100	0	230	101300000	1000	0	0	-1	0
21725755	6018	862	0	-100	0	230	101300000	1000	0	0	-1	0
21738315	6022	857	0	-100	0	230	101300000	1000	0	0	-1	0
21750875	6016	856	0	-100	0	230	101300000	1000	0	0	-1	0
21763435	6016	866	0	-100	0	230	101300000	1000	0	0	-1	0
21775995	6020	860	0	-100	0	230	101300000	1000	0	0	-1	0
21788555	6019	855	0	-100	0	230	101300000	1000	0	0	-1	0
21801115	6022	859	0	-100	0	230	101300000	1000	0	0	-1	0
21813675	6019	857	0	-100	0	230	101300000	1000	0	0	-1	0
21826235	6016	846	0	-100	0	230	101300000	1000	0	0	-1	0
21838795	6016	851	0	-100	0	230	101300000	1000	0	0	-1	0
21851355	6021	857	0	-100	0	230	101300000	1000	0	0	-1	0
21863915	6016	854	0	-100	0	230	101300000	1000	0	0	-1	0
21876475	6019	864	0	-100	0	230	101300000	1000	0	0	-1	0
21889035	6027	856	0	-100	0	230	101300000	1000	0	0	-1	0
21901595	6012	850	0	-100	0	230	101300000	1000	0	0	-1	0
21914155	6024	863	0	-100	0	230	101300000	1000	0	0	-1	0
21926715	6021	854	0	-100	0	230	101300000	1000	0	0	-1	0
21939275	6017	843	0	-100	0	230	101300000	1000	0	0	-1	0
21951835	6015	851	0	-100	0	230	101300000	1000	0	0	-1	0
21964395	6016	849	0	-100	0	230	101300000	1000	0	0	-1	0
21976955	6017	869	0	-100	0	230	101300000	1000	0	0	-1	0
21989515	6021	859	0	-100	0	230	101300000	1000	0	0	-1	0
22002075	6020	830	0	-100	0	230	101300000	1000	0	0	-1	0
22014635	6017	859	0	-100	0	230	101300000	1000	0	0	-1	0
22027195	6012	856	0	-100	0	230	101300000	1000	0	0	-1	0
22039755	6017	832	0	-100	0	230	101300000	1000	0	0	-1	0
22052315	6021	861	0	-100	0	230	101300000	1000	0	0	-1	0
22064875	6022	855	0	-100	0	230	101300000	1000	0	0	-1	0
22077435	6023	866	0	-100	0	230	101300000	1000	0	0	-1	0
22089995	6020	850	0	-100	0	230	101300000	1000	0	0	-1	0
22102555	6025	851	0	-100	0	230	101300000	1000	0	0	-1	0
22115115	6025	863	0	-100	0	230	101300000	1000	0	0	-1	0
22127675	6021	856	0	-100	0	230	101300000	1000	0	0	-1	0
22140235	6024	854	0	-100	0	230	101300000	1000	0	0	-1	0
22152795	6017	859	0	-100	0	230	101300000	1000	0	0	-1	0
22165355	6022	853	0	-100	0	230	101300000	1000	0	0	-1	0
22177915	6018	849	0	-100	0	230	101300000	1000	0	0	-1	0
22190475	6018	849	0	-100	0	230	101300000	1000	0	0	-1	0
22203035	6017	859	0	-100	0	230	101300000	1000	0	0	-1	0
22215595	6025	853	0	-100	0	230	101300000	1000	0	0	-1	0
22228155	6018	861	0	-100	0	230	101300000	1000	0	0	-1	0
22240715	6014	865	0	-100	0	230	101300000	1000	0	0	-1	0
22253275	6013	855	0	-100	0	230	101300000	1000	0	0	-1	0
22265835	6021	853	0	-100	0	230	101300000	1000	0	0	-1	0
22278395	6020	853	0	-100	0	230	101300000	1000	0	0	-1	0
22290955	6016	864	0	-100	0	230	101300000	1000	0	0	-1	0
22303515	6020	861	0	-100	0	230	101300000	1000	0	0	-1	0
22316075	6017	855	0	-100	0	230	101300000	1000	0	0	-1	0
22328635	6026	859	0	-100	0	230	101300000	1000	0	0	-1	0
22341195	6021	858	0	-100	0	230	101300000	1000	0	0	-1	0
22353755	6023	854	0	-100	0	230	101300000	1000	0	0	-1	0
22366315	6016	858	0	-100	0	230	101300000	1000	0	0	-1	0
22378875	6017	867	0	-100	0	230	101300000	1000	0	0	-1	0
22391435	6020	863	0	-100	0	230	101300000	1000	0	0	-1	0
22403995	6025	865	0	-100	0	230	101300000	1000	0	0	-1	0
22416555	6021	864	0	-100	0	230	101300000	1000	0	0	-1	0
22429115	6018	858	0	-100	0	230	101300000	1000	0	0	-1	0
22441675	6017	849	0	-100	0	230	101300000	1000	0	0	-1	0
22454235	6020	863	0	-100	0	230	101300000	1000	0	0	-1	0
22466795	6024	851	0	-100	0	230	101300000	1000	0	0	-1	0
22479355	6023	854	0	-100	0	230	101300000	1000	0	0	-1	0
22491915	6017	857	0	-100	0	230	101300000	1000	0	0	-1	0
22504475	6017	852	0	-100	0	230	101300000	1000	0	0	-1	0
22517035	6013	866	0	-100	0	230	101300000	1000	0	0	-1	0
22529595	6020	860	0	-100	0	230	101300000	1000	0	0	-1	0
22542155	6025	853	0	-100	0	230	101300000	1000	0	0	-1	0
22554715	6018	842	0	-100	0	230	101300000	1000	0	0	-1	0
22567275	6012	855	0	-100	0	230	101300000	1000	0	0	-1	0
22579835	6020	851	0	-100	0	230	101300000	1000	0	0	-1	0
22592395	6021	864	0	-100	0	230	101300000	1000	0	0	-1	0
22604955	6025	862	0	-100	0	230	101300000	1000	0	0	-1	0
22617515	6023	857	0	-100	0	230	101300000	1000	0	0	-1	0
22630075	6015	866	0	-100	0	230	101300000	1000	0	0	-1	0
22642635	6019	849	0	-100	0	230	101300000	1000	0	0	-1	0
22655195	6020	856	0	-100	0	230	101300000	1000	0	0	-1	0
22667755	6023	848	0	-100	0	230	101300000	1000	0	0	-1	0
22680315	6016	846	0	-100	0	230	101300000	1000	0	0	-1	0
22692875	6017	862	0	-100	0	230	101300000	1000	0	0	-1	0
22705435	6023	852	0	-100	0	230	101300000	1000	0	0	-1	0
22717995	6020	866	0	-100	0	230	101300000	1000	0	0	-1	0
22730555	6020	842	0	-100	0	230	101300000	1000	0	0	-1	0
22743115	6026	856	0	-100	0	230	101300000	1000	0	0	-1	0
22755675	6021	847	0	-100	0	230	101300000	1000	0	0	-1	0
22768235	6016	850	0	-100	0	230	101300000	1000	0	0	-1	0
22780795	6019	856	0	-100	0	230	101300000	1000	0	0	-1	0
22793355	6023	856	0	-100	0	230	101300000	1000	0	0	-1	0
22805915	6017	843	0	-100	0	230	101300000	1000	0	0	-1	0
22818475	6017	858	0	-100	0	230	101300000	1000	0	0	-1	0
22831035	6022	855	0	-100	0	230	101300000	1000	0	0	-1	0
22843595	6018	837	0	-100	0	230	101300000	1000	0	0	-1	0
22856155	6017	861	0	-100	0	230	101300000	1000	0	0	-1	0
22868715	6022	863	0	-100	0	230	101300000	1000	0	0	-1	0
22881275	6017	867	0	-100	0	230	101300000	1000	0	0	-1	0
22893835	6021	844	0	-100	0	230	101300000	1000	0	0	-1	0
22906395	6018	853	0	-100	0	230	101300000	1000	0	0	-1	0
22918955	6025	859	0	-100	0	230	101300000	1000	0	0	-1	0
22931515	6018	856	0	-100	0	230	101300000	1000	0	0	-1	0
22944075	6016	864	0	-100	0	230	101300000	1000	0	0	-1	0
22956635	6021	844	0	-100	0	230	101300000	1000	0	0	-1	0
22969195	6017	858	0	-100	0	230	101300000	1000	0	0	-1	0
22981755	6021	860	0	-100	0	230	101300000	1000	0	0	-1	0
22994315	6015	841	0	-100	0	230	101300000	1000	0	0	-1	0
23006875	6020	846	0	-100	0	230	101300000	1000	0	0	-1	0
23019435	6018	847	0	-100	0	230	101300000	1000	0	0	-1	0
23031995	6018	855	0	-100	0	230	101300000	1000	0	0	-1	0
23044555	6022	852	0	-100	0	230	101300000	1000	0	0	-1	0
23057115	6017	851	0	-100	0	230	101300000	1000	0	0	-1	0
23069675	6021	849	0	-100	0	230	101300000	1000	0	0	-1	0
23082235	6021	860	0	-100	0	230	101300000	1000	0	0	-1	0
23094795	6025	855	0	-100	0	230	101300000	1000	0	0	-1	0
23107355	6014	866	0	-100	0	230	101300000	1000	0	0	-1	0
23119915	6023	863	0	-100	0	230	101300000	1000	0	0	-1	0
23132475	6019	862	0	-100	0	230	101300000	1000	0	0	-1	0
23145035	6018	860	0	-100	0	230	101300000	1000	0	0	-1	0
23157595	6018	858	0	-100	0	230	101300000	1000	0	0	-1	0
23170155	6021	864	0	-100	0	230	101300000	1000	0	0	-1	0
23182715	6020	862	0	-100	0	230	101300000	1000	0	0	-1	0
23195275	6015	856	0	-100	0	230	101300000	1000	0	0	-1	0
23207835	6021	862	0	-100	0	230	101300000	1000	0	0	-1	0
23220395	6016	861	0	-100	0	230	101300000	1000	0	0	-1	0
23232955	6024	861	0	-100	0	230	101300000	1000	0	0	-1	0
23245515	6016	848	0	-100	0	230	101300000	1000	0	0	-1	0
23258075	6021	863	0	-100	0	230	101300000	1000	0	0	-1	0
23270635	6016	858	0	-100	0	230	101300000	1000	0	0	-1	0
23283195	6025	870	0	-100	0	230	101300000	1000	0	0	-1	0
23295755	6020	864	0	-100	0	230	101300000	1000	0	0	-1	0
23308315	6029	853	0	-100	0	230	101300000	1000	0	0	-1	0
23320875	6020	867	0	-100	0	230	101300000	1000	0	0	-1	0
23333435	6017	862	0	-100	0	230	101300000	1000	0	0	-1	0
23345995	6025	863	0	-100	0	230	101300000	1000	0	0	-1	0
23358555	6017	861	0	-100	0	230	101300000	1000	0	0	-1	0
23371115	6020	847	0	-100	0	230	101300000	1000	0	0	-1	0
23383675	6014	857	0	-100	0	230	101300000	1000	0	0	-1	0
23396235	6019	856	0	-100	0	230	101300000	1000	0	0	-1	0
23408795	6021	855	0	-100	0	230	101300000	1000	0	0	-1	0
23421355	6016	852	0	-100	0	230	101300000	1000	0	0	-1	0
23433915	6025	869	0	-100	0	230	101300000	1000	0	0	-1	0
23446475	6021	861	0	-100	0	230	101300000	1000	0	0	-1	0
23459035	6026	856	0	-100	0	230	101300000	1000	0	0	-1	0
23471595	6018	848	0	-100	0	230	101300000	1000	0	0	-1	0
23484155	6018	853	0	-100	0	230	101300000	1000	0	0	-1	0
23496715	6021	863	0	-100	0	230	101300000	1000	0	0	-1	0
23509275	6016	852	0	-100	0	230	101300000	1000	0	0	-1	0
23521835	6025	852	0	-100	0	230	101300000	1000	0	0	-1	0
23534395	6020	863	0	-100	0	230	101300000	1000	0	0	-1	0
23546955	6025	859	0	-100	0	230	101300000	1000	0	0	-1	0
23559515	6018	855	0	-100	0	230	101300000	1000	0	0	-1	0
23572075	6024	860	0	-100	0	230	101300000	1000	0	0	-1	0
23584635	6016	856	0	-100	0	230	101300000	1000	0	0	-1	0
23597195	6017	864	0	-100	0	230	101300000	1000	0	0	-1	0
23609755	6019	866	0	-100	0	230	101300000	1000	0	0	-1	0
23622315	6016	865	0	-100	0	230	101300000	1000	0	0	-1	0
23634875	6024	858	0	-100	0	230	101300000	1000	0	0	-1	0
23647435	6016	863	0	-100	0	230	101300000	1000	0	0	-1	0
23659995	6025	855	0	-100	0	230	101300000	1000	0	0	-1	0
23672555	6019	854	0	-100	0	230	101300000	1000	0	0	-1	0
23685115	6016	863	0	-100	0	230	101300000	1000	0	0	-1	0
23697675	6021	862	0	-100	0	230	101300000	1000	0	0	-1	0
23710235	6021	859	0	-100	0	230	101300000	1000	0	0	-1	0
23722795	6021	849	0	-100	0	230	101300000	1000	0	0	-1	0
23735355	6014	862	0	-100	0	230	101300000	1000	0	0	-1	0
23747915	6021	866	0	-100	0	230	101300000	1000	0	0	-1	0
23760475	6017	862	0	-100	0	230	101300000	1000	0	0	-1	0
23773035	6021	858	0	-100	0	230	101300000	1000	0	0	-1	0
23785595	6012	850	0	-100	0	230	101300000	1000	0	0	-1	0
23798155	6018	853	0	-100	0	230	101300000	1000	0	0	-1	0
23810715	6016	845	0	-100	0	230	101300000	1000	0	0	-1	0
23823275	6018	852	0	-100	0	230	101300000	1000	0	0	-1	0
23835835	6017	865	0	-100	0	230	101300000	1000	0	0	-1	0
23848395	6025	851	0	-100	0	230	101300000	1000	0	0	-1	0
23860955	6016	851	0	-100	0	230	101300000	1000	0	0	-1	0
23873515	6023	845	0	-100	0	230	101300000	1000	0	0	-1	0
23886075	6015	858	0	-100	0	230	101300000	1000	0	0	-1	0
23898635	6021	861	0	-100	0	230	101300000	1000	0	0	-1	0
23911195	6022	851	0	-100	0	230	101300000	1000	0	0	-1	0
23923755	6020	863	0	-100	0	230	101300000	1000	0	0	-1	0
23936315	6021	852	0	-100	0	230	101300000	1000	0	0	-1	0
23948875	6013	868	0	-100	0	230	101300000	1000	0	0	-1	0
23961435	6023	854	0	-100	0	230	101300000	1000	0	0	-1	0
23973995	6014	862	0	-100	0	230	101300000	1000	0	0	-1	0
23986555	6022	855	0	-100	0	230	101300000	1000	0	0	-1	0
23999115	6017	850	0	-100	0	230	101300000	1000	0	0	-1	0
24011675	6017	846	0	-100	0	230	101300000	1000	0	0	-1	0
24024235	6026	856	0	-100	0	230	101300000	1000	0	0	-1	0
24036795	6019	865	0	-100	0	230	101300000	1000	0	0	-1	0
24049355	6023	851	0	-100	0	230	101300000	1000	0	0	-1	0
24061915	6014	867	0	-100	0	230	101300000	1000	0	0	-1	0
24074475	6026	865	0	-100	0	230	101300000	1000	0	0	-1	0
24087035	6016	843	0	-100	0	230	101300000	1000	0	0	-1	0
24099595	6017	851	0	-100	0	230	101300000	1000	0	0	-1	0
24112155	6019	848	0	-100	0	230	101300000	1000	0	0	-1	0
24124715	6020	847	0	-100	0	230	101300000	1000	0	0	-1	0
24137275	6025	857	0	-100	0	230	101300000	1000	0	0	-1	0
24237755	6021	853	0	-100	0	230	101300000	1000	0	0	-1	0
24250315	6025	853	0	-100	0	230	101300000	1000	0	0	-1	0
24262875	6017	872	0	-100	0	230	101300000	1000	0	0	-1	0
24275435	6025	859	0	-100	0	230	101300000	1000	0	0	-1	0
24287995	6019	866	0	-100	0	230	101300000	1000	0	0	-1	0
24300555	6021	846	0	-100	0	230	101300000	1000	0	0	-1	0
24313115	6020	866	0	-100	0	230	101300000	1000	0	0	-1	0
24325675	6025	857	0	-100	0	230	101300000	1000	0	0	-1	0
24338235	6019	873	0	-100	0	230	101300000	1000	0	0	-1	0
24350795	6023	844	0	-100	0	230	101300000	1000	0	0	-1	0
24363355	6020	855	0	-100	0	230	101300000	1000	0	0	-1	0
24375915	6021	843	0	-100	0	230	101300000	1000	0	0	-1	0
24413595	6016	850	0	-100	0	230	101300000	1000	0	0	-1	0
24426155	6020	854	0	-100	0	230	101300000	1000	0	0	-1	0
24438715	6016	878	0	-100	0	230	101300000	1000	0	0	-1	0
24451275	6019	851	0	-100	0	230	101300000	1000	0	0	-1	0
24463835	6014	862	0	-100	0	230	101300000	1000	0	0	-1	0
24476395	6021	862	0	-100	0	230	101300000	1000	0	0	-1	0
24488955	6017	864	0	-100	0	230	101300000	1000	0	0	-1	0
24501515	6021	846	0	-100	0	230	101300000	1000	0	0	-1	0
24514075	6013	858	0	-100	0	230	101300000	1000	0	0	-1	0
24526635	6016	859	0	-100	0	230	101300000	1000	0	0	-1	0
24539195	6017	857	0	-100	0	230	101300000	1000	0	0	-1	0
24551755	6017	854	0	-100	0	230	101300000	1000	0	0	-1	0
24564315	6018	848	0	-100	0	230	101300000	1000	0	0	-1	0
24576875	6018	854	0	-100	0	230	101300000	1000	0	0	-1	0
24589435	6017	853	0	-100	0	230	101300000	1000	0	0	-1	0
24601995	6022	868	0	-100	0	230	101300000	1000	0	0	-1	0
24614555	6014	849	0	-100	0	230	101300000	1000	0	0	-1	0
24627115	6024	848	0	-100	0	230	101300000	1000	0	0	-1	0
24639675	6018	849	0	-100	0	230	101300000	1000	0	0	-1	0
24652235	6017	860	0	-100	0	230	101300000	1000	0	0	-1	0
24664795	6016	857	0	-100	0	230	101300000	1000	0	0	-1	0
24677355	6020	851	0	-100	0	230	101300000	1000	0	0	-1	0
24689915	6017	871	0	-100	0	230	101300000	1000	0	0	-1	0
24702475	6027	860	0	-100	0	230	101300000	1000	0	0	-1	0
24715035	6016	859	0	-100	0	230	101300000	1000	0	0	-1	0
24727595	6023	863	0	-100	0	230	101300000	1000	0	0	-1	0
24740155	6016	861	0	-100	0	230	101300000	1000	0	0	-1	0
24752715	6014	846	0	-100	0	230	101300000	1000	0	0	-1	0
24765275	6025	851	0	-100	0	230	101300000	1000	0	0	-1	0
24777835	6016	857	0	-100	0	230	101300000	1000	0	0	-1	0
24790395	6024	852	0	-100	0	230	101300000	1000	0	0	-1	0
24802955	6016	866	0	-100	0	230	101300000	1000	0	0	-1	0
24815515	6019	857	0	-100	0	230	101300000	1000	0	0	-1	0
24828075	6018	853	0	-100	0	230	101300000	1000	0	0	-1	0
24840635	6017	856	0	-100	0	230	101300000	1000	0	0	-1	0
24853195	6025	849	0	-100	0	230	101300000	1000	0	0	-1	0
24865755	6012	856	0	-100	0	230	101300000	1000	0	0	-1	0
24878315	6023	852	0	-100	0	230	101300000	1000	0	0	-1	0
24890875	6017	863	0	-100	0	230	101300000	1000	0	0	-1	0
24903435	6022	856	0	-100	0	230	101300000	1000	0	0	-1	0
24915995	6019	836	0	-100	0	230	101300000	1000	0	0	-1	0
24928555	6017	859	0	-100	0	230	101300000	1000	0	0	-1	0
24941115	6021	855	0	-100	0	230	101300000	1000	0	0	-1	0
24953675	6016	847	0	-100	0	230	101300000	1000	0	0	-1	0
24966235	6023	837	0	-100	0	230	101300000	1000	0	0	-1	0
24978795	6017	851	0	-100	0	230	101300000	1000	0	0	-1	0
24991355	6021	849	0	-100	0	230	101300000	1000	0	0	-1	0
25003915	6017	863	0	-100	0	230	101300000	1000	0	0	-1	0
25016475	6026	856	0	-100	0	230	101300000	1000	0	0	-1	0
25029035	6016	845	0	-100	0	230	101300000	1000	0	0	-1	0
25041595	6020	850	0	-100	0	230	101300000	1000	0	0	-1	0
25054155	6018	862	0	-100	0	230	101300000	1000	0	0	-1	0
25066715	6025	866	0	-100	0	230	101300000	1000	0	0	-1	0
25079275	6014	848	0	-100	0	230	101300000	1000	0	0	-1	0
25091835	6023	865	0	-100	0	230	101300000	1000	0	0	-1	0
25104395	6014	848	0	-100	0	230	101300000	1000	0	0	-1	0
25116955	6022	867	0	-100	0	230	101300000	1000	0	0	-1	0
25129515	6016	862	0	-100	0	230	101300000	1000	0	0	-1	0
25142075	6020	851	0	-100	0	230	101300000	1000	0	0	-1	0
25154635	6017	852	0	-100	0	230	101300000	1000	0	0	-1	0
25167195	6018	867	0	-100	0	230	101300000	1000	0	0	-1	0
25179755	6020	862	0	-100	0	230	101300000	1000	0	0	-1	0
25192315	6014	850	0	-100	0	230	101300000	1000	0	0	-1	0
25204875	6019	861	0	-100	0	230	101300000	1000	0	0	-1	0
25217435	6017	851	0	-100	0	230	101300000	1000	0	0	-1	0
25229995	6018	853	0	-100	0	230	101300000	1000	0	0	-1	0
25242555	6018	854	0	-100	0	230	101300000	1000	0	0	-1	0
25255115	6021	869	0	-100	0	230	101300000	1000	0	0	-1	0
25267675	6018	848	0	-100	0	230	101300000	1000	0	0	-1	0
25280235	6018	855	0	-100	0	230	101300000	1000	0	0	-1	0
25292795	6017	860	0	-100	0	230	101300000	1000	0	0	-1	0
25305355	6021	853	0	-100	0	230	101300000	1000	0	0	-1	0
25317915	6016	848	0	-100	0	230	101300000	1000	0	0	-1	0
25330475	6021	873	0	-100	0	230	101300000	1000	0	0	-1	0
25343035	6021	857	0	-100	0	230	101300000	1000	0	0	-1	0
25355595	6021	850	0	-100	0	230	101300000	1000	0	0	-1	0
25368155	6019	863	0	-100	0	230	101300000	1000	0	0	-1	0
25380715	6017	849	0	-100	0	230	101300000	1000	0	0	-1	0
25393275	6017	843	0	-100	0	230	101300000	1000	0	0	-1	0
25405835	6018	855	0	-100	0	230	101300000	1000	0	0	-1	0
25418395	6023	860	0	-100	0	230	101300000	1000	0	0	-1	0
25430955	6017	859	0	-100	0	230	101300000	1000	0	0	-1	0
25443515	6025	853	0	-100	0	230	101300000	1000	0	0	-1	0
25456075	6015	855	0	-100	0	230	101300000	1000	0	0	-1	0
25468635	6018	866	0	-100	0	230	101300000	1000	0	0	-1	0
25481195	6018	865	0	-100	0	230	101300000	1000	0	0	-1	0
25493755	6019	864	0	-100	0	230	101300000	1000	0	0	-1	0
25506315	6021	849	0	-100	0	230	101300000	1000	0	0	-1	0
25518875	6018	849	0	-100	0	230	101300000	1000	0	0	-1	0
25531435	6021	865	0	-100	0	230	101300000	1000	0	0	-1	0
25543995	6020	870	0	-100	0	230	101300000	1000	0	0	-1	0
25556555	6027	849	0	-100	0	230	101300000	1000	0	0	-1	0
25569115	6017	858	0	-100	0	230	101300000	1000	0	0	-1	0
25581675	6021	853	0	-100	0	230	101300000	1000	0	0	-1	0
25594235	6019	857	0	-100	0	230	101300000	1000	0	0	-1	0
25606795	6017	847	0	-100	0	230	101300000	1000	0	0	-1	0
25619355	6025	859	0	-100	0	230	101300000	1000	0	0	-1	0
25631915	6020	860	0	-100	0	230	101300000	1000	0	0	-1	0
25644475	6027	848	0	-100	0	230	101300000	1000	0	0	-1	0
25657035	6020	865	0	-100	0	230	101300000	1000	0	0	-1	0
25669595	6023	860	0	-100	0	230	101300000	1000	0	0	-1	0
25682155	6021	854	0	-100	0	230	101300000	1000	0	0	-1	0
25694715	6021	855	0	-100	0	230	101300000	1000	0	0	-1	0
25707275	6019	834	0	-100	0	230	101300000	1000	0	0	-1	0
25719835	6026	849	0	-100	0	230	101300000	1000	0	0	-1	0
25732395	6015	864	0	-100	0	230	101300000	1000	0	0	-1	0
25744955	6017	846	0	-100	0	230	101300000	1000	0	0	-1	0
25757515	6021	859	0	-100	0	230	101300000	1000	0	0	-1	0
25770075	6014	857	0	-100	0	230	101300000	1000	0	0	-1	0
25782635	6017	849	0	-100	0	230	101300000	1000	0	0	-1	0
25795195	6025	863	0	-100	0	230	101300000	1000	0	0	-1	0
25807755	6015	851	0	-100	0	230	101300000	1000	0	0	-1	0
25820315	6020	856	0	-100	0	230	101300000	1000	0	0	-1	0
25832875	6025	855	0	-100	0	230	101300000	1000	0	0	-1	0
25845435	6012	853	0	-100	0	230	101300000	1000	0	0	-1	0
25857995	6016	855	0	-100	0	230	101300000	1000	0	0	-1	0
25870555	6025	858	0	-100	0	230	101300000	1000	0	0	-1	0
25883115	6014	851	0	-100	0	230	101300000	1000	0	0	-1	0
25895675	6025	846	0	-100	0	230	101300000	1000	0	0	-1	0
25908235	6020	867	0	-100	0	230	101300000	1000	0	0	-1	0
25920795	6019	865	0	-100	0	230	101300000	1000	0	0	-1	0
25933355	6016	858	0	-100	0	230	101300000	1000	0	0	-1	0
25945915	6016	851	0	-100	0	230	101300000	1000	0	0	-1	0
25958475	6019	859	0	-100	0	230	101300000	1000	0	0	-1	0
25971035	6018	861	0	-100	0	230	101300000	1000	0	0	-1	0
25983595	6021	853	0	-100	0	230	101300000	1000	0	0	-1	0
25996155	6022	851	0	-100	0	230	101300000	1000	0	0	-1	0
26008715	6020	866	0	-100	0	230	101300000	1000	0	0	-1	0
26021275	6022	843	0	-100	0	230	101300000	1000	0	0	-1	0
26033835	6016	849	0	-100	0	230	101300000	1000	0	0	-1	0
26046395	6014	868	0	-100	0	230	101300000	1000	0	0	-1	0
26058955	6023	859	0	-100	0	230	101300000	1000	0	0	-1	0
26071515	6016	855	0	-100	0	230	101300000	1000	0	0	-1	0
26084075	6021	857	0	-100	0	230	101300000	1000	0	0	-1	0
26096635	6023	866	0	-100	0	230	101300000	1000	0	0	-1	0
26109195	6013	858	0	-100	0	230	101300000	1000	0	0	-1	0
26121755	6020	863	0	-100	0	230	101300000	1000	0	0	-1	0
26134315	6025	854	0	-100	0	230	101300000	1000	0	0	-1	0
26146875	6015	855	0	-100	0	230	101300000	1000	0	0	-1	0
26159435	6027	861	0	-100	0	230	101300000	1000	0	0	-1	0
26171995	6019	859	0	-100	0	230	101300000	1000	0	0	-1	0
26184555	6022	839	0	-100	0	230	101300000	1000	0	0	-1	0
26197115	6016	858	0	-100	0	230	101300000	1000	0	0	-1	0
26209675	6029	858	0	-100	0	230	101300000	1000	0	0	-1	0
26222235	6014	849	0	-100	0	230	101300000	1000	0	0	-1	0
26234795	6021	866	0	-100	0	230	101300000	1000	0	0	-1	0
26247355	6016	858	0	-100	0	230	101300000	1000	0	0	-1	0
26259915	6019	869	0	-100	0	230	101300000	1000	0	0	-1	0
26272475	6021	849	0	-100	0	230	101300000	1000	0	0	-1	0
26285035	6016	866	0	-100	0	230	101300000	1000	0	0	-1	0
26297595	6022	864	0	-100	0	230	101300000	1000	0	0	-1	0
26310155	6017	851	0	-100	0	230	101300000	1000	0	0	-1	0
26322715	6025	849	0	-100	0	230	101300000	1000	0	0	-1	0
26335275	6016	851	0	-100	0	230	101300000	1000	0	0	-1	0
26347835	6021	861	0	-100	0	230	101300000	1000	0	0	-1	0
26360395	6021	868	0	-100	0	230	101300000	1000	0	0	-1	0
26372955	6019	840	0	-100	0	230	101300000	1000	0	0	-1	0
26385515	6019	857	0	-100	0	230	101300000	1000	0	0	-1	0
26398075	6021	856	0	-100	0	230	101300000	1000	0	0	-1	0
26410635	6014	850	0	-100	0	230	101300000	1000	0	0	-1	0
26423195	6024	855	0	-100	0	230	101300000	1000	0	0	-1	0
26435755	6020	858	0	-100	0	230	101300000	1000	0	0	-1	0
26448315	6017	848	0	-100	0	230	101300000	1000	0	0	-1	0
26460875	6025	858	0	-100	0	230	101300000	1000	0	0	-1	0
26473435	6016	844	0	-100	0	230	101300000	1000	0	0	-1	0
26485995	6021	869	0	-100	0	230	101300000	1000	0	0	-1	0
26498555	6021	848	0	-100	0	230	101300000	1000	0	0	-1	0
26511115	6017	863	0	-100	0	230	101300000	1000	0	0	-1	0
26523675	6019	845	0	-100	0	230	101300000	1000	0	0	-1	0
26536235	6014	848	0	-100	0	230	101300000	1000	0	0	-1	0
26548795	6023	846	0	-100	0	230	101300000	1000	0	0	-1	0
26561355	6015	859	0	-100	0	230	101300000	1000	0	0	-1	0
26573915	6020	848	0	-100	0	230	101300000	1000	0	0	-1	0
26586475	6021	842	0	-100	0	230	101300000	1000	0	0	-1	0
26599035	6016	851	0	-100	0	230	101300000	1000	0	0	-1	0
26611595	6021	855	0	-100	0	230	101300000	1000	0	0	-1	0
26624155	6016	854	0	-100	0	230	101300000	1000	0	0	-1	0
26636715	6014	863	0	-100	0	230	101300000	1000	0	0	-1	0
26649275	6023	856	0	-100	0	230	101300000	1000	0	0	-1	0
26661835	6021	869	0	-100	0	230	101300000	1000	0	0	-1	0
26674395	6016	862	0	-100	0	230	101300000	1000	0	0	-1	0
26686955	6021	852	0	-100	0	230	101300000	1000	0	0	-1	0
26699515	6021	848	0	-100	0	230	101300000	1000	0	0	-1	0
26712075	6023	864	0	-100	0	230	101300000	1000	0	0	-1	0
26724635	6018	860	0	-100	0	230	101300000	1000	0	0	-1	0
26737195	6020	866	0	-100	0	230	101300000	1000	0	0	-1	0
26749755	6018	858	0	-100	0	230	101300000	1000	0	0	-1	0
26762315	6019	858	0	-100	0	230	101300000	1000	0	0	-1	0
26774875	6020	864	0	-100	0	230	101300000	1000	0	0	-1	0
26787435	6014	857	0	-100	0	230	101300000	1000	0	0	-1	0
26799995	6019	856	0	-100	0	230	101300000	1000	0	0	-1	0
26812555	6020	851	0	-100	0	230	101300000	1000	0	0	-1	0
26825115	6017	860	0	-100	0	230	101300000	1000	0	0	-1	0
26837675	6016	840	0	-100	0	230	101300000	1000	0	0	-1	0
26850235	6019	851	0	-100	0	230	101300000	1000	0	0	-1	0
26862795	6016	867	0	-100	0	230	101300000	1000	0	0	-1	0
26875355	6025	846	0	-100	0	230	101300000	1000	0	0	-1	0
26887915	6016	847	0	-100	0	230	101300000	1000	0	0	-1	0
26900475	6021	857	0	-100	0	230	101300000	1000	0	0	-1	0
26913035	6022	846	0	-100	0	230	101300000	1000	0	0	-1	0
26925595	6018	854	0	-100	0	230	101300000	1000	0	0	-1	0
26938155	6017	847	0	-100	0	230	101300000	1000	0	0	-1	0
26950715	6025	863	0	-100	0	230	101300000	1000	0	0	-1	0
26963275	6015	849	0	-100	0	230	101300000	1000	0	0	-1	0
26975835	6016	841	0	-100	0	230	101300000	1000	0	0	-1	0
26988395	6023	850	0	-100	0	230	101300000	1000	0	0	-1	0
27000955	6018	858	0	-100	0	230	101300000	1000	0	0	-1	0
27013515	6017	856	0	-100	0	230	101300000	1000	0	0	-1	0
27026075	6017	853	0	-100	0	230	101300000	1000	0	0	-1	0
27038635	6023	854	0	-100	0	230	101300000	1000	0	0	-1	0
27051195	6016	867	0	-100	0	230	101300000	1000	0	0	-1	0
