timestamp	voltage	current	windSpeed	pitchAngle	rpm	temperature	ambientPressure	humidity	accelerationX	accelerationY	accelerationZ	currentSink
7040070	6023	874	0	-100	0	230	101300000	1000	0	0	-1	0
7047523	6025	870	0	-100	0	230	101300000	1000	0	0	-1	0
7060083	6023	873	0	-100	0	230	101300000	1000	0	0	-1	0
7072643	6024	874	0	-100	0	230	101300000	1000	0	0	-1	0
7085203	6018	877	0	-100	0	230	101300000	1000	0	0	-1	0
7097763	6020	878	0	-100	0	230	101300000	1000	0	0	-1	0
7110323	6018	873	0	-100	0	230	101300000	1000	0	0	-1	0
7122883	6016	875	0	-100	0	230	101300000	1000	0	0	-1	0
7135443	6022	866	0	-100	0	230	101300000	1000	0	0	-1	0
7148004	6014	871	0	-100	0	230	101300000	1000	0	0	-1	0
7160563	6021	872	0	-100	0	230	101300000	1000	0	0	-1	0
7173123	6020	870	0	-100	0	230	101300000	1000	0	0	-1	0
7185683	6019	874	0	-100	0	230	101300000	1000	0	0	-1	0
7198243	6018	874	0	-100	0	230	101300000	1000	0	0	-1	0
7210803	6016	875	0	-100	0	230	101300000	1000	0	0	-1	0
7223363	6016	871	0	-100	0	230	101300000	1000	0	0	-1	0
7235923	6017	869	0	-100	0	230	101300000	1000	0	0	-1	0
7248483	6021	864	0	-100	0	230	101300000	1000	0	0	-1	0
7261043	6021	867	0	-100	0	230	101300000	1000	0	0	-1	0
7273603	6023	870	0	-100	0	230	101300000	1000	0	0	-1	0
7286163	6019	869	0	-100	0	230	101300000	1000	0	0	-1	0
7298723	6015	869	0	-100	0	230	101300000	1000	0	0	-1	0
7311283	6021	876	0	-100	0	230	101300000	1000	0	0	-1	0
7323843	6025	872	0	-100	0	230	101300000	1000	0	0	-1	0
7336403	6017	858	0	-100	0	230	101300000	1000	0	0	-1	0
7348963	6017	873	0	-100	0	230	101300000	1000	0	0	-1	0
7704675	5853	2066	0	-100	0	230	101300000	1000	0	0	-1	1000
7717235	5857	2062	0	-100	0	230	101300000	1000	0	0	-1	1000
7729795	5857	2060	0	-100	0	230	101300000	1000	0	0	-1	1000
7742355	5858	2065	0	-100	0	230	101300000	1000	0	0	-1	1000
7754915	5857	2070	0	-100	0	230	101300000	1000	0	0	-1	1000
7767475	5846	2065	0	-100	0	230	101300000	1000	0	0	-1	1000
7780035	5849	2068	0	-100	0	230	101300000	1000	0	0	-1	1000
7792595	5847	2068	0	-100	0	230	101300000	1000	0	0	-1	1000
7805155	5847	2066	0	-100	0	230	101300000	1000	0	0	-1	1000
7817715	5863	2070	0	-100	0	230	101300000	1000	0	0	-1	1000
7830275	5860	2073	0	-100	0	230	101300000	1000	0	0	-1	1000
7842835	5865	2067	0	-100	0	230	101300000	1000	0	0	-1	1000
7855395	5858	2070	0	-100	0	230	101300000	1000	0	0	-1	1000
7867955	5859	2067	0	-100	0	230	101300000	1000	0	0	-1	1000
7880515	5861	2067	0	-100	0	230	101300000	1000	0	0	-1	1000
7893075	5869	2067	0	-100	0	230	101300000	1000	0	0	-1	1000
7905635	5864	2067	0	-100	0	230	101300000	1000	0	0	-1	1000
7918195	5856	2070	0	-100	0	230	101300000	1000	0	0	-1	1000
7930755	5852	2063	0	-100	0	230	101300000	1000	0	0	-1	1000
7943315	5852	2068	0	-100	0	230	101300000	1000	0	0	-1	1000
7955875	5851	2074	0	-100	0	230	101300000	1000	0	0	-1	1000
7968435	5846	2074	0	-100	0	230	101300000	1000	0	0	-1	1000
7980995	5848	2069	0	-100	0	230	101300000	1000	0	0	-1	1000
7993555	5855	2065	0	-100	0	230	101300000	1000	0	0	-1	1000
8006115	5840	2064	0	-100	0	230	101300000	1000	0	0	-1	1000
8018675	5848	2074	0	-100	0	230	101300000	1000	0	0	-1	1000
8031235	5845	2066	0	-100	0	230	101300000	1000	0	0	-1	1000
8043795	5860	2073	0	-100	0	230	101300000	1000	0	0	-1	1000
8056355	5857	2072	0	-100	0	230	101300000	1000	0	0	-1	1000
8068915	5856	2070	0	-100	0	230	101300000	1000	0	0	-1	1000
8081475	5852	2065	0	-100	0	230	101300000	1000	0	0	-1	1000
8094035	5844	2068	0	-100	0	230	101300000	1000	0	0	-1	1000
8106595	5852	2073	0	-100	0	230	101300000	1000	0	0	-1	1000
8119155	5837	2069	0	-100	0	230	101300000	1000	0	0	-1	1000
8131715	5846	2074	0	-100	0	230	101300000	1000	0	0	-1	1000
8144275	5856	2066	0	-100	0	230	101300000	1000	0	0	-1	1000
8156835	5849	2062	0	-100	0	230	101300000	1000	0	0	-1	1000
8169395	5856	2074	0	-100	0	230	101300000	1000	0	0	-1	1000
8181955	5853	2074	0	-100	0	230	101300000	1000	0	0	-1	1000
8194515	5844	2073	0	-100	0	230	101300000	1000	0	0	-1	1000
8207075	5863	2074	0	-100	0	230	101300000	1000	0	0	-1	1000
8219635	5849	2072	0	-100	0	230	101300000	1000	0	0	-1	1000
8232195	5863	2065	0	-100	0	230	101300000	1000	0	0	-1	1000
8244755	5846	2063	0	-100	0	230	101300000	1000	0	0	-1	1000
8257315	5847	2073	0	-100	0	230	101300000	1000	0	0	-1	1000
8269875	5840	2074	0	-100	0	230	101300000	1000	0	0	-1	1000
8282435	5840	2064	0	-100	0	230	101300000	1000	0	0	-1	1000
8294995	5840	2070	0	-100	0	230	101300000	1000	0	0	-1	1000
8307555	5845	2067	0	-100	0	230	101300000	1000	0	0	-1	1000
8320115	5848	2078	0	-100	0	230	101300000	1000	0	0	-1	1000
8332675	5851	2069	0	-100	0	230	101300000	1000	0	0	-1	1000
8345235	5852	2078	0	-100	0	230	101300000	1000	0	0	-1	1000
8357795	5849	2069	0	-100	0	230	101300000	1000	0	0	-1	1000
8370355	5850	2073	0	-100	0	230	101300000	1000	0	0	-1	1000
8382915	5856	2070	0	-100	0	230	101300000	1000	0	0	-1	1000
8395475	5859	2067	0	-100	0	230	101300000	1000	0	0	-1	1000
8408035	5848	2067	0	-100	0	230	101300000	1000	0	0	-1	1000
8420595	5852	2067	0	-100	0	230	101300000	1000	0	0	-1	1000
8433155	5858	2069	0	-100	0	230	101300000	1000	0	0	-1	1000
8445715	5859	2073	0	-100	0	230	101300000	1000	0	0	-1	1000
8458275	5848	2070	0	-100	0	230	101300000	1000	0	0	-1	1000
8470835	5847	2069	0	-100	0	230	101300000	1000	0	0	-1	1000
8483395	5835	2071	0	-100	0	230	101300000	1000	0	0	-1	1000
8495955	5854	2071	0	-100	0	230	101300000	1000	0	0	-1	1000
8508515	5859	2063	0	-100	0	230	101300000	1000	0	0	-1	1000
8521075	5847	2058	0	-100	0	230	101300000	1000	0	0	-1	1000
8533635	5860	2068	0	-100	0	230	101300000	1000	0	0	-1	1000
8546195	5860	2070	0	-100	0	230	101300000	1000	0	0	-1	1000
8558755	5852	2067	0	-100	0	230	101300000	1000	0	0	-1	1000
8571315	5847	2067	0	-100	0	230	101300000	1000	0	0	-1	1000
8583875	5846	2076	0	-100	0	230	101300000	1000	0	0	-1	1000
8596435	5849	2074	0	-100	0	230	101300000	1000	0	0	-1	1000
8608995	5855	2068	0	-100	0	230	101300000	1000	0	0	-1	1000
8621555	5852	2068	0	-100	0	230	101300000	1000	0	0	-1	1000
8634115	5844	2068	0	-100	0	230	101300000	1000	0	0	-1	1000
8646675	5837	2068	0	-100	0	230	101300000	1000	0	0	-1	1000
8659235	5850	2071	0	-100	0	230	101300000	1000	0	0	-1	1000
8671795	5848	2065	0	-100	0	230	101300000	1000	0	0	-1	1000
8684355	5852	2068	0	-100	0	230	101300000	1000	0	0	-1	1000
8696915	5849	2066	0	-100	0	230	101300000	1000	0	0	-1	1000
8709475	5841	2073	0	-100	0	230	101300000	1000	0	0	-1	1000
8722035	5851	2072	0	-100	0	230	101300000	1000	0	0	-1	1000
8734595	5845	2069	0	-100	0	230	101300000	1000	0	0	-1	1000
8747155	5843	2068	0	-100	0	230	101300000	1000	0	0	-1	1000
8759715	5855	2077	0	-100	0	230	101300000	1000	0	0	-1	1000
8772275	5849	2072	0	-100	0	230	101300000	1000	0	0	-1	1000
8784835	5831	2068	0	-100	0	230	101300000	1000	0	0	-1	1000
8797395	5845	2066	0	-100	0	230	101300000	1000	0	0	-1	1000
8809955	5849	2071	0	-100	0	230	101300000	1000	0	0	-1	1000
8822515	5847	2080	0	-100	0	230	101300000	1000	0	0	-1	1000
8835075	5854	2073	0	-100	0	230	101300000	1000	0	0	-1	1000
8847635	5845	2071	0	-100	0	230	101300000	1000	0	0	-1	1000
8860195	5864	2064	0	-100	0	230	101300000	1000	0	0	-1	1000
8872755	5844	2074	0	-100	0	230	101300000	1000	0	0	-1	1000
8885315	5852	2076	0	-100	0	230	101300000	1000	0	0	-1	1000
8897875	5853	2074	0	-100	0	230	101300000	1000	0	0	-1	1000
8910435	5850	2073	0	-100	0	230	101300000	1000	0	0	-1	1000
8922995	5854	2076	0	-100	0	230	101300000	1000	0	0	-1	1000
8935555	5847	2071	0	-100	0	230	101300000	1000	0	0	-1	1000
8948115	5848	2070	0	-100	0	230	101300000	1000	0	0	-1	1000
8960675	5853	2081	0	-100	0	230	101300000	1000	0	0	-1	1000
8973235	5838	2076	0	-100	0	230	101300000	1000	0	0	-1	1000
8985795	5850	2073	0	-100	0	230	101300000	1000	0	0	-1	1000
8998355	5850	2077	0	-100	0	230	101300000	1000	0	0	-1	1000
9010915	5845	2065	0	-100	0	230	101300000	1000	0	0	-1	1000
9023475	5851	2052	0	-100	0	230	101300000	1000	0	0	-1	1000
9036035	5849	2070	0	-100	0	230	101300000	1000	0	0	-1	1000
9048595	5852	2067	0	-100	0	230	101300000	1000	0	0	-1	1000
9061155	5849	2063	0	-100	0	230	101300000	1000	0	0	-1	1000
9073715	5835	2067	0	-100	0	230	101300000	1000	0	0	-1	1000
9086275	5848	2063	0	-100	0	230	101300000	1000	0	0	-1	1000
9098835	5853	2076	0	-100	0	230	101300000	1000	0	0	-1	1000
9111395	5846	2062	0	-100	0	230	101300000	1000	0	0	-1	1000
9123955	5832	2058	0	-100	0	230	101300000	1000	0	0	-1	1000
9136515	5856	2072	0	-100	0	230	101300000	1000	0	0	-1	1000
9149075	5848	2073	0	-100	0	230	101300000	1000	0	0	-1	1000
9161635	5842	2070	0	-100	0	230	101300000	1000	0	0	-1	1000
9174195	5849	2067	0	-100	0	230	101300000	1000	0	0	-1	1000
9186755	5858	2074	0	-100	0	230	101300000	1000	0	0	-1	1000
9199315	5847	2076	0	-100	0	230	101300000	1000	0	0	-1	1000
9211875	5852	2081	0	-100	0	230	101300000	1000	0	0	-1	1000
9224435	5848	2069	0	-100	0	230	101300000	1000	0	0	-1	1000
9236995	5831	2064	0	-100	0	230	101300000	1000	0	0	-1	1000
9249555	5840	2073	0	-100	0	230	101300000	1000	0	0	-1	1000
9262115	5851	2065	0	-100	0	230	101300000	1000	0	0	-1	1000
9274675	5861	2075	0	-100	0	230	101300000	1000	0	0	-1	1000
9287235	5842	2071	0	-100	0	230	101300000	1000	0	0	-1	1000
9299795	5839	2075	0	-100	0	230	101300000	1000	0	0	-1	1000
9312355	5840	2070	0	-100	0	230	101300000	1000	0	0	-1	1000
9324915	5856	2071	0	-100	0	230	101300000	1000	0	0	-1	1000
9337475	5854	2072	0	-100	0	230	101300000	1000	0	0	-1	1000
9350035	5844	2075	0	-100	0	230	101300000	1000	0	0	-1	1000
9362595	5852	2076	0	-100	0	230	101300000	1000	0	0	-1	1000
9375155	5852	2070	0	-100	0	230	101300000	1000	0	0	-1	1000
9387715	5843	2067	0	-100	0	230	101300000	1000	0	0	-1	1000
9400275	5849	2067	0	-100	0	230	101300000	1000	0	0	-1	1000
9412835	5855	2064	0	-100	0	230	101300000	1000	0	0	-1	1000
9425395	5839	2080	0	-100	0	230	101300000	1000	0	0	-1	1000
9437955	5841	2064	0	-100	0	230	101300000	1000	0	0	-1	1000
9450515	5844	2077	0	-100	0	230	101300000	1000	0	0	-1	1000
9463075	5845	2072	0	-100	0	230	101300000	1000	0	0	-1	1000
9475635	5837	2071	0	-100	0	230	101300000	1000	0	0	-1	1000
9488195	5839	2075	0	-100	0	230	101300000	1000	0	0	-1	1000
9500755	5841	2064	0	-100	0	230	101300000	1000	0	0	-1	1000
9513315	5843	2067	0	-100	0	230	101300000	1000	0	0	-1	1000
9525875	5852	2074	0	-100	0	230	101300000	1000	0	0	-1	1000
9538435	5857	2070	0	-100	0	230	101300000	1000	0	0	-1	1000
9550995	5833	2065	0	-100	0	230	101300000	1000	0	0	-1	1000
9563555	5839	2076	0	-100	0	230	101300000	1000	0	0	-1	1000
9576115	5838	2070	0	-100	0	230	101300000	1000	0	0	-1	1000
9588675	5848	2075	0	-100	0	230	101300000	1000	0	0	-1	1000
9601235	5840	2061	0	-100	0	230	101300000	1000	0	0	-1	1000
9613795	5851	2065	0	-100	0	230	101300000	1000	0	0	-1	1000
9626355	5841	2068	0	-100	0	230	101300000	1000	0	0	-1	1000
9638915	5846	2066	0	-100	0	230	101300000	1000	0	0	-1	1000
9651475	5844	2067	0	-100	0	230	101300000	1000	0	0	-1	1000
9664035	5838	2081	0	-100	0	230	101300000	1000	0	0	-1	1000
9676595	5840	2070	0	-100	0	230	101300000	1000	0	0	-1	1000
9689155	5834	2061	0	-100	0	230	101300000	1000	0	0	-1	1000
9701715	5849	2071	0	-100	0	230	101300000	1000	0	0	-1	1000
9714275	5840	2073	0	-100	0	230	101300000	1000	0	0	-1	1000
9726835	5838	2068	0	-100	0	230	101300000	1000	0	0	-1	1000
9739395	5855	2067	0	-100	0	230	101300000	1000	0	0	-1	1000
9751955	5842	2065	0	-100	0	230	101300000	1000	0	0	-1	1000
9764515	5838	2067	0	-100	0	230	101300000	1000	0	0	-1	1000
9777075	5836	2064	0	-100	0	230	101300000	1000	0	0	-1	1000
9789635	5848	2060	0	-100	0	230	101300000	1000	0	0	-1	1000
9802195	5854	2076	0	-100	0	230	101300000	1000	0	0	-1	1000
9814755	5842	2069	0	-100	0	230	101300000	1000	0	0	-1	1000
9827315	5854	2070	0	-100	0	230	101300000	1000	0	0	-1	1000
9839875	5845	2068	0	-100	0	230	101300000	1000	0	0	-1	1000
9852435	5834	2065	0	-100	0	230	101300000	1000	0	0	-1	1000
9864995	5852	2071	0	-100	0	230	101300000	1000	0	0	-1	1000
9877555	5852	2075	0	-100	0	230	101300000	1000	0	0	-1	1000
9890115	5838	2073	0	-100	0	230	101300000	1000	0	0	-1	1000
9902675	5847	2072	0	-100	0	230	101300000	1000	0	0	-1	1000
9915235	5844	2077	0	-100	0	230	101300000	1000	0	0	-1	1000
9927795	5841	2067	0	-100	0	230	101300000	1000	0	0	-1	1000
9940355	5836	2072	0	-100	0	230	101300000	1000	0	0	-1	1000
9952915	5845	2063	0	-100	0	230	101300000	1000	0	0	-1	1000
9965475	5853	2069	0	-100	0	230	101300000	1000	0	0	-1	1000
9978035	5844	2069	0	-100	0	230	101300000	1000	0	0	-1	1000
9990595	5854	2070	0	-100	0	230	101300000	1000	0	0	-1	1000
10003155	5840	2073	0	-100	0	230	101300000	1000	0	0	-1	1000
10015715	5851	2066	0	-100	0	230	101300000	1000	0	0	-1	1000
10028275	5836	2066	0	-100	0	230	101300000	1000	0	0	-1	1000
10040835	5846	2072	0	-100	0	230	101300000	1000	0	0	-1	1000
10053395	5839	2071	0	-100	0	230	101300000	1000	0	0	-1	1000
10065955	5836	2075	0	-100	0	230	101300000	1000	0	0	-1	1000
10078515	5848	2074	0	-100	0	230	101300000	1000	0	0	-1	1000
10091075	5844	2068	0	-100	0	230	101300000	1000	0	0	-1	1000
10103635	5847	2068	0	-100	0	230	101300000	1000	0	0	-1	1000
10116195	5842	2067	0	-100	0	230	101300000	1000	0	0	-1	1000
10128755	5840	2068	0	-100	0	230	101300000	1000	0	0	-1	1000
10141315	5848	2069	0	-100	0	230	101300000	1000	0	0	-1	1000
10153875	5865	2075	0	-100	0	230	101300000	1000	0	0	-1	1000
10166435	5851	2074	0	-100	0	230	101300000	1000	0	0	-1	1000
10178995	5849	2074	0	-100	0	230	101300000	1000	0	0	-1	1000
10191555	5840	2065	0	-100	0	230	101300000	1000	0	0	-1	1000
10204115	5857	2072	0	-100	0	230	101300000	1000	0	0	-1	1000
10216675	5852	2083	0	-100	0	230	101300000	1000	0	0	-1	1000
10229235	5850	2066	0	-100	0	230	101300000	1000	0	0	-1	1000
10241795	5852	2064	0	-100	0	230	101300000	1000	0	0	-1	1000
10254355	5860	2071	0	-100	0	230	101300000	1000	0	0	-1	1000
10266915	5839	2074	0	-100	0	230	101300000	1000	0	0	-1	1000
10279475	5835	2071	0	-100	0	230	101300000	1000	0	0	-1	1000
10292035	5843	2070	0	-100	0	230	101300000	1000	0	0	-1	1000
10304595	5846	2066	0	-100	0	230	101300000	1000	0	0	-1	1000
10317155	5828	2071	0	-100	0	230	101300000	1000	0	0	-1	1000
10329715	5839	2067	0	-100	0	230	101300000	1000	0	0	-1	1000
10342275	5836	2070	0	-100	0	230	101300000	1000	0	0	-1	1000
10354835	5846	2066	0	-100	0	230	101300000	1000	0	0	-1	1000
10367395	5840	2074	0	-100	0	230	101300000	1000	0	0	-1	1000
10379955	5847	2070	0	-100	0	230	101300000	1000	0	0	-1	1000
10392515	5857	2072	0	-100	0	230	101300000	1000	0	0	-1	1000
10405075	5835	2070	0	-100	0	230	101300000	1000	0	0	-1	1000
10417635	5842	2069	0	-100	0	230	101300000	1000	0	0	-1	1000
10430195	5844	2069	0	-100	0	230	101300000	1000	0	0	-1	1000
10442755	5851	2067	0	-100	0	230	101300000	1000	0	0	-1	1000
10455315	5841	2076	0	-100	0	230	101300000	1000	0	0	-1	1000
10467875	5839	2064	0	-100	0	230	101300000	1000	0	0	-1	1000
10480435	5847	2066	0	-100	0	230	101300000	1000	0	0	-1	1000
10492995	5844	2074	0	-100	0	230	101300000	1000	0	0	-1	1000
10505555	5831	2069	0	-100	0	230	101300000	1000	0	0	-1	1000
10518115	5835	2071	0	-100	0	230	101300000	1000	0	0	-1	1000
10530675	5833	2071	0	-100	0	230	101300000	1000	0	0	-1	1000
10543235	5839	2075	0	-100	0	230	101300000	1000	0	0	-1	1000
10555795	5841	2077	0	-100	0	230	101300000	1000	0	0	-1	1000
10568355	5834	2067	0	-100	0	230	101300000	1000	0	0	-1	1000
10580915	5844	2070	0	-100	0	230	101300000	1000	0	0	-1	1000
10593475	5843	2064	0	-100	0	230	101300000	1000	0	0	-1	1000
10606035	5849	2067	0	-100	0	230	101300000	1000	0	0	-1	1000
10618595	5840	2055	0	-100	0	230	101300000	1000	0	0	-1	1000
10631155	5848	2066	0	-100	0	230	101300000	1000	0	0	-1	1000
10643715	5853	2065	0	-100	0	230	101300000	1000	0	0	-1	1000
10656275	5844	2074	0	-100	0	230	101300000	1000	0	0	-1	1000
10668835	5841	2068	0	-100	0	230	101300000	1000	0	0	-1	1000
10681395	5844	2067	0	-100	0	230	101300000	1000	0	0	-1	1000
10693955	5852	2066	0	-100	0	230	101300000	1000	0	0	-1	1000
10706515	5843	2064	0	-100	0	230	101300000	1000	0	0	-1	1000
10719075	5842	2067	0	-100	0	230	101300000	1000	0	0	-1	1000
10731635	5852	2063	0	-100	0	230	101300000	1000	0	0	-1	1000
10744195	5853	2070	0	-100	0	230	101300000	1000	0	0	-1	1000
10756755	5853	2073	0	-100	0	230	101300000	1000	0	0	-1	1000
10769315	5853	2071	0	-100	0	230	101300000	1000	0	0	-1	1000
10781875	5840	2074	0	-100	0	230	101300000	1000	0	0	-1	1000
10794435	5837	2077	0	-100	0	230	101300000	1000	0	0	-1	1000
10806995	5843	2069	0	-100	0	230	101300000	1000	0	0	-1	1000
10819555	5853	2065	0	-100	0	230	101300000	1000	0	0	-1	1000
10832115	5848	2068	0	-100	0	230	101300000	1000	0	0	-1	1000
10844675	5848	2070	0	-100	0	230	101300000	1000	0	0	-1	1000
10857235	5847	2083	0	-100	0	230	101300000	1000	0	0	-1	1000
10869795	5856	2065	0	-100	0	230	101300000	1000	0	0	-1	1000
10882355	5855	2073	0	-100	0	230	101300000	1000	0	0	-1	1000
10894915	5840	2069	0	-100	0	230	101300000	1000	0	0	-1	1000
10907475	5841	2074	0	-100	0	230	101300000	1000	0	0	-1	1000
10920035	5834	2071	0	-100	0	230	101300000	1000	0	0	-1	1000
10932595	5836	2067	0	-100	0	230	101300000	1000	0	0	-1	1000
10945155	5852	2068	0	-100	0	230	101300000	1000	0	0	-1	1000
10957715	5845	2068	0	-100	0	230	101300000	1000	0	0	-1	1000
10970275	5835	2067	0	-100	0	230	101300000	1000	0	0	-1	1000
10982835	5842	2067	0	-100	0	230	101300000	1000	0	0	-1	1000
10995395	5831	2072	0	-100	0	230	101300000	1000	0	0	-1	1000
11007955	5847	2081	0	-100	0	230	101300000	1000	0	0	-1	1000
11020515	5850	2075	0	-100	0	230	101300000	1000	0	0	-1	1000
11033075	5844	2066	0	-100	0	230	101300000	1000	0	0	-1	1000
11045635	5860	2068	0	-100	0	230	101300000	1000	0	0	-1	1000
11058195	5848	2063	0	-100	0	230	101300000	1000	0	0	-1	1000
11070755	5842	2081	0	-100	0	230	101300000	1000	0	0	-1	1000
11083315	5842	2067	0	-100	0	230	101300000	1000	0	0	-1	1000
11095875	5836	2053	0	-100	0	230	101300000	1000	0	0	-1	1000
11108435	5855	2068	0	-100	0	230	101300000	1000	0	0	-1	1000
11120995	5853	2061	0	-100	0	230	101300000	1000	0	0	-1	1000
11133555	5839	2068	0	-100	0	230	101300000	1000	0	0	-1	1000
11146115	5832	2070	0	-100	0	230	101300000	1000	0	0	-1	1000
11158675	5843	2059	0	-100	0	230	101300000	1000	0	0	-1	1000
11171235	5854	2068	0	-100	0	230	101300000	1000	0	0	-1	1000
11183795	5851	2070	0	-100	0	230	101300000	1000	0	0	-1	1000
11196355	5844	2070	0	-100	0	230	101300000	1000	0	0	-1	1000
11208915	5839	2058	0	-100	0	230	101300000	1000	0	0	-1	1000
11221475	5846	2066	0	-100	0	230	101300000	1000	0	0	-1	1000
11234035	5849	2065	0	-100	0	230	101300000	1000	0	0	-1	1000
11246595	5838	2073	0	-100	0	230	101300000	1000	0	0	-1	1000
11259155	5838	2074	0	-100	0	230	101300000	1000	0	0	-1	1000
11271715	5842	2067	0	-100	0	230	101300000	1000	0	0	-1	1000
11284275	5844	2070	0	-100	0	230	101300000	1000	0	0	-1	1000
11296835	5849	2080	0	-100	0	230	101300000	1000	0	0	-1	1000
11309395	5841	2065	0	-100	0	230	101300000	1000	0	0	-1	1000
11321955	5840	2071	0	-100	0	230	101300000	1000	0	0	-1	1000
11334515	5848	2072	0	-100	0	230	101300000	1000	0	0	-1	1000
11347075	5839	2074	0	-100	0	230	101300000	1000	0	0	-1	1000
11359635	5847	2068	0	-100	0	230	101300000	1000	0	0	-1	1000
11372195	5844	2066	0	-100	0	230	101300000	1000	0	0	-1	1000
11384755	5841	2075	0	-100	0	230	101300000	1000	0	0	-1	1000
11397315	5843	2066	0	-100	0	230	101300000	1000	0	0	-1	1000
11409875	5836	2063	0	-100	0	230	101300000	1000	0	0	-1	1000
11422435	5840	2068	0	-100	0	230	101300000	1000	0	0	-1	1000
11434995	5849	2067	0	-100	0	230	101300000	1000	0	0	-1	1000
11447555	5839	2061	0	-100	0	230	101300000	1000	0	0	-1	1000
11460115	5853	2070	0	-100	0	230	101300000	1000	0	0	-1	1000
11472675	5847	2071	0	-100	0	230	101300000	1000	0	0	-1	1000
11485235	5851	2072	0	-100	0	230	101300000	1000	0	0	-1	1000
11497795	5844	2069	0	-100	0	230	101300000	1000	0	0	-1	1000
11510355	5842	2075	0	-100	0	230	101300000	1000	0	0	-1	1000
11522915	5847	2075	0	-100	0	230	101300000	1000	0	0	-1	1000
11535475	5840	2058	0	-100	0	230	101300000	1000	0	0	-1	1000
11548035	5840	2066	0	-100	0	230	101300000	1000	0	0	-1	1000
11560595	5841	2069	0	-100	0	230	101300000	1000	0	0	-1	1000
11573155	5854	2068	0	-100	0	230	101300000	1000	0	0	-1	1000
11585715	5845	2060	0	-100	0	230	101300000	1000	0	0	-1	1000
11598275	5830	2065	0	-100	0	230	101300000	1000	0	0	-1	1000
11610835	5836	2063	0	-100	0	230	101300000	1000	0	0	-1	1000
11623395	5839	2068	0	-100	0	230	101300000	1000	0	0	-1	1000
11635955	5842	2074	0	-100	0	230	101300000	1000	0	0	-1	1000
11648515	5855	2068	0	-100	0	230	101300000	1000	0	0	-1	1000
11661075	5847	2076	0	-100	0	230	101300000	1000	0	0	-1	1000
11673635	5831	2074	0	-100	0	230	101300000	1000	0	0	-1	1000
11686195	5852	2071	0	-100	0	230	101300000	1000	0	0	-1	1000
11698755	5840	2067	0	-100	0	230	101300000	1000	0	0	-1	1000
11711315	5845	2067	0	-100	0	230	101300000	1000	0	0	-1	1000
11723875	5853	2073	0	-100	0	230	101300000	1000	0	0	-1	1000
11736435	5833	2073	0	-100	0	230	101300000	1000	0	0	-1	1000
11748995	5844	2076	0	-100	0	230	101300000	1000	0	0	-1	1000
11761555	5848	2073	0	-100	0	230	101300000	1000	0	0	-1	1000
11774115	5849	2069	0	-100	0	230	101300000	1000	0	0	-1	1000
11786675	5845	2073	0	-100	0	230	101300000	1000	0	0	-1	1000
11799235	5836	2065	0	-100	0	230	101300000	1000	0	0	-1	1000
11811795	5837	2063	0	-100	0	230	101300000	1000	0	0	-1	1000
11824355	5846	2072	0	-100	0	230	101300000	1000	0	0	-1	1000
11836915	5831	2072	0	-100	0	230	101300000	1000	0	0	-1	1000
11849475	5844	2067	0	-100	0	230	101300000	1000	0	0	-1	1000
11862035	5845	2067	0	-100	0	230	101300000	1000	0	0	-1	1000
11874595	5842	2064	0	-100	0	230	101300000	1000	0	0	-1	1000
11887155	5836	2075	0	-100	0	230	101300000	1000	0	0	-1	1000
11899715	5850	2069	0	-100	0	230	101300000	1000	0	0	-1	1000
11912275	5859	2073	0	-100	0	230	101300000	1000	0	0	-1	1000
11924835	5842	2071	0	-100	0	230	101300000	1000	0	0	-1	1000
11937395	5839	2075	0	-100	0	230	101300000	1000	0	0	-1	1000
11949955	5844	2065	0	-100	0	230	101300000	1000	0	0	-1	1000
11962515	5842	2071	0	-100	0	230	101300000	1000	0	0	-1	1000
11975075	5837	2066	0	-100	0	230	101300000	1000	0	0	-1	1000
11987635	5847	2070	0	-100	0	230	101300000	1000	0	0	-1	1000
12000195	5835	2076	0	-100	0	230	101300000	1000	0	0	-1	1000
12012755	5847	2071	0	-100	0	230	101300000	1000	0	0	-1	1000
12025315	5846	2072	0	-100	0	230	101300000	1000	0	0	-1	1000
12037875	5835	2078	0	-100	0	230	101300000	1000	0	0	-1	1000
12050435	5842	2067	0	-100	0	230	101300000	1000	0	0	-1	1000
12062995	5840	2062	0	-100	0	230	101300000	1000	0	0	-1	1000
12075555	5842	2056	0	-100	0	230	101300000	1000	0	0	-1	1000
12088115	5848	2064	0	-100	0	230	101300000	1000	0	0	-1	1000
12100675	5854	2073	0	-100	0	230	101300000	1000	0	0	-1	1000
12113235	5835	2079	0	-100	0	230	101300000	1000	0	0	-1	1000
12125795	5840	2067	0	-100	0	230	101300000	1000	0	0	-1	1000
12138355	5845	2064	0	-100	0	230	101300000	1000	0	0	-1	1000
12150915	5845	2068	0	-100	0	230	101300000	1000	0	0	-1	1000
12163475	5844	2080	0	-100	0	230	101300000	1000	0	0	-1	1000
12176035	5837	2070	0	-100	0	230	101300000	1000	0	0	-1	1000
12188595	5848	2065	0	-100	0	230	101300000	1000	0	0	-1	1000
12201155	5865	2077	0	-100	0	230	101300000	1000	0	0	-1	1000
12213715	5837	2075	0	-100	0	230	101300000	1000	0	0	-1	1000
12226275	5832	2067	0	-100	0	230	101300000	1000	0	0	-1	1000
12238835	5844	2071	0	-100	0	230	101300000	1000	0	0	-1	1000
12251395	5846	2068	0	-100	0	230	101300000	1000	0	0	-1	1000
12263955	5848	2073	0	-100	0	230	101300000	1000	0	0	-1	1000
12276515	5835	2081	0	-100	0	230	101300000	1000	0	0	-1	1000
12289075	5838	2069	0	-100	0	230	101300000	1000	0	0	-1	1000
12301635	5844	2069	0	-100	0	230	101300000	1000	0	0	-1	1000
12314195	5843	2065	0	-100	0	230	101300000	1000	0	0	-1	1000
12326755	5848	2064	0	-100	0	230	101300000	1000	0	0	-1	1000
12339315	5851	2073	0	-100	0	230	101300000	1000	0	0	-1	1000
12351875	5852	2071	0	-100	0	230	101300000	1000	0	0	-1	1000
12364435	5843	2068	0	-100	0	230	101300000	1000	0	0	-1	1000
12376995	5839	2065	0	-100	0	230	101300000	1000	0	0	-1	1000
12389555	5856	2077	0	-100	0	230	101300000	1000	0	0	-1	1000
12402115	5841	2066	0	-100	0	230	101300000	1000	0	0	-1	1000
12414675	5831	2070	0	-100	0	230	101300000	1000	0	0	-1	1000
12427235	5847	2065	0	-100	0	230	101300000	1000	0	0	-1	1000
12439795	5844	2069	0	-100	0	230	101300000	1000	0	0	-1	1000
12452355	5847	2068	0	-100	0	230	101300000	1000	0	0	-1	1000
12464915	5844	2066	0	-100	0	230	101300000	1000	0	0	-1	1000
12477475	5848	2078	0	-100	0	230	101300000	1000	0	0	-1	1000
12490035	5841	2068	0	-100	0	230	101300000	1000	0	0	-1	1000
12502595	5840	2062	0	-100	0	230	101300000	1000	0	0	-1	1000
12515155	5854	2074	0	-100	0	230	101300000	1000	0	0	-1	1000
12527715	5842	2062	0	-100	0	230	101300000	1000	0	0	-1	1000
12540275	5838	2074	0	-100	0	230	101300000	1000	0	0	-1	1000
12552835	5840	2078	0	-100	0	230	101300000	1000	0	0	-1	1000
12565395	5841	2066	0	-100	0	230	101300000	1000	0	0	-1	1000
12577955	5843	2074	0	-100	0	230	101300000	1000	0	0	-1	1000
12590515	5834	2071	0	-100	0	230	101300000	1000	0	0	-1	1000
12603075	5835	2078	0	-100	0	230	101300000	1000	0	0	-1	1000
12615635	5850	2072	0	-100	0	230	101300000	1000	0	0	-1	1000
12628195	5844	2065	0	-100	0	230	101300000	1000	0	0	-1	1000
12640755	5840	2075	0	-100	0	230	101300000	1000	0	0	-1	1000
12653315	5844	2067	0	-100	0	230	101300000	1000	0	0	-1	1000
12665875	5839	2070	0	-100	0	230	101300000	1000	0	0	-1	1000
12678435	5837	2071	0	-100	0	230	101300000	1000	0	0	-1	1000
12690995	5841	2069	0	-100	0	230	101300000	1000	0	0	-1	1000
12703555	5843	2065	0	-100	0	230	101300000	1000	0	0	-1	1000
12716115	5844	2073	0	-100	0	230	101300000	1000	0	0	-1	1000
12728675	5834	2068	0	-100	0	230	101300000	1000	0	0	-1	1000
12741235	5859	2075	0	-100	0	230	101300000	1000	0	0	-1	1000
12753795	5840	2074	0	-100	0	230	101300000	1000	0	0	-1	1000
12766355	5847	2075	0	-100	0	230	101300000	1000	0	0	-1	1000
12778915	5844	2074	0	-100	0	230	101300000	1000	0	0	-1	1000
12791475	5843	2073	0	-100	0	230	101300000	1000	0	0	-1	1000
12804035	5851	2065	0	-100	0	230	101300000	1000	0	0	-1	1000
12816595	5846	2081	0	-100	0	230	101300000	1000	0	0	-1	1000
12829155	5848	2065	0	-100	0	230	101300000	1000	0	0	-1	1000
12841715	5839	2075	0	-100	0	230	101300000	1000	0	0	-1	1000
12854275	5835	2058	0	-100	0	230	101300000	1000	0	0	-1	1000
12866835	5852	2071	0	-100	0	230	101300000	1000	0	0	-1	1000
12879395	5836	2063	0	-100	0	230	101300000	1000	0	0	-1	1000
12891955	5854	2073	0	-100	0	230	101300000	1000	0	0	-1	1000
12904515	5846	2074	0	-100	0	230	101300000	1000	0	0	-1	1000
12917075	5841	2070	0	-100	0	230	101300000	1000	0	0	-1	1000
12929635	5847	2064	0	-100	0	230	101300000	1000	0	0	-1	1000
12942195	5838	2068	0	-100	0	230	101300000	1000	0	0	-1	1000
12954755	5850	2073	0	-100	0	230	101300000	1000	0	0	-1	1000
12967315	5843	2075	0	-100	0	230	101300000	1000	0	0	-1	1000
12979875	5847	2076	0	-100	0	230	101300000	1000	0	0	-1	1000
12992435	5833	2069	0	-100	0	230	101300000	1000	0	0	-1	1000
13004995	5835	2072	0	-100	0	230	101300000	1000	0	0	-1	1000
13017555	5836	2074	0	-100	0	230	101300000	1000	0	0	-1	1000
13030115	5843	2067	0	-100	0	230	101300000	1000	0	0	-1	1000
13042675	5854	2076	0	-100	0	230	101300000	1000	0	0	-1	1000
13055235	5844	2069	0	-100	0	230	101300000	1000	0	0	-1	1000
13067795	5837	2075	0	-100	0	230	101300000	1000	0	0	-1	1000
13080355	5843	2067	0	-100	0	230	101300000	1000	0	0	-1	1000
13092915	5853	2062	0	-100	0	230	101300000	1000	0	0	-1	1000
13105475	5836	2070	0	-100	0	230	101300000	1000	0	0	-1	1000
13118035	5839	2066	0	-100	0	230	101300000	1000	0	0	-1	1000
13130595	5829	2071	0	-100	0	230	101300000	1000	0	0	-1	1000
13143155	5845	2069	0	-100	0	230	101300000	1000	0	0	-1	1000
13155715	5841	2076	0	-100	0	230	101300000	1000	0	0	-1	1000
13168275	5840	2071	0	-100	0	230	101300000	1000	0	0	-1	1000
13180835	5852	2075	0	-100	0	230	101300000	1000	0	0	-1	1000
13193395	5842	2074	0	-100	0	230	101300000	1000	0	0	-1	1000
13205955	5835	2073	0	-100	0	230	101300000	1000	0	0	-1	1000
13218515	5860	2074	0	-100	0	230	101300000	1000	0	0	-1	1000
13231075	5832	2069	0	-100	0	230	101300000	1000	0	0	-1	1000
13243635	5852	2073	0	-100	0	230	101300000	1000	0	0	-1	1000
13256195	5845	2068	0	-100	0	230	101300000	1000	0	0	-1	1000
13268755	5842	2062	0	-100	0	230	101300000	1000	0	0	-1	1000
13281315	5838	2067	0	-100	0	230	101300000	1000	0	0	-1	1000
13293875	5835	2065	0	-100	0	230	101300000	1000	0	0	-1	1000
13306435	5852	2061	0	-100	0	230	101300000	1000	0	0	-1	1000
13318995	5844	2065	0	-100	0	230	101300000	1000	0	0	-1	1000
13331555	5848	2077	0	-100	0	230	101300000	1000	0	0	-1	1000
13344115	5835	2068	0	-100	0	230	101300000	1000	0	0	-1	1000
13356675	5858	2069	0	-100	0	230	101300000	1000	0	0	-1	1000
13369235	5835	2073	0	-100	0	230	101300000	1000	0	0	-1	1000
13381795	5831	2069	0	-100	0	230	101300000	1000	0	0	-1	1000
13394355	5856	2063	0	-100	0	230	101300000	1000	0	0	-1	1000
13406915	5838	2064	0	-100	0	230	101300000	1000	0	0	-1	1000
13419475	5841	2069	0	-100	0	230	101300000	1000	0	0	-1	1000
13432035	5852	2073	0	-100	0	230	101300000	1000	0	0	-1	1000
13444595	5837	2072	0	-100	0	230	101300000	1000	0	0	-1	1000
13457155	5843	2073	0	-100	0	230	101300000	1000	0	0	-1	1000
13469715	5846	2065	0	-100	0	230	101300000	1000	0	0	-1	1000
13482275	5847	2075	0	-100	0	230	101300000	1000	0	0	-1	1000
13494835	5838	2070	0	-100	0	230	101300000	1000	0	0	-1	1000
13507395	5842	2071	0	-100	0	230	101300000	1000	0	0	-1	1000
13519955	5858	2060	0	-100	0	230	101300000	1000	0	0	-1	1000
13532515	5833	2071	0	-100	0	230	101300000	1000	0	0	-1	1000
13545075	5844	2063	0	-100	0	230	101300000	1000	0	0	-1	1000
13557635	5836	2063	0	-100	0	230	101300000	1000	0	0	-1	1000
13570195	5849	2068	0	-100	0	230	101300000	1000	0	0	-1	1000
13582755	5842	2065	0	-100	0	230	101300000	1000	0	0	-1	1000
13595315	5842	2072	0	-100	0	230	101300000	1000	0	0	-1	1000
13607875	5848	2072	0	-100	0	230	101300000	1000	0	0	-1	1000
13620435	5855	2070	0	-100	0	230	101300000	1000	0	0	-1	1000
13632995	5839	2070	0	-100	0	230	101300000	1000	0	0	-1	1000
13645555	5840	2083	0	-100	0	230	101300000	1000	0	0	-1	1000
13658115	5843	2078	0	-100	0	230	101300000	1000	0	0	-1	1000
13670675	5848	2074	0	-100	0	230	101300000	1000	0	0	-1	1000
13683235	5848	2076	0	-100	0	230	101300000	1000	0	0	-1	1000
13695795	5842	2075	0	-100	0	230	101300000	1000	0	0	-1	1000
13708355	5845	2060	0	-100	0	230	101300000	1000	0	0	-1	1000
13720915	5833	2066	0	-100	0	230	101300000	1000	0	0	-1	1000
13733475	5835	2071	0	-100	0	230	101300000	1000	0	0	-1	1000
13746035	5844	2067	0	-100	0	230	101300000	1000	0	0	-1	1000
13758595	5857	2078	0	-100	0	230	101300000	1000	0	0	-1	1000
13771155	5825	2071	0	-100	0	230	101300000	1000	0	0	-1	1000
13783715	5846	2071	0	-100	0	230	101300000	1000	0	0	-1	1000
13796275	5851	2074	0	-100	0	230	101300000	1000	0	0	-1	1000
13808835	5847	2072	0	-100	0	230	101300000	1000	0	0	-1	1000
13821395	5841	2069	0	-100	0	230	101300000	1000	0	0	-1	1000
13833955	5846	2072	0	-100	0	230	101300000	1000	0	0	-1	1000
13846515	5835	2065	0	-100	0	230	101300000	1000	0	0	-1	1000
13859075	5848	2073	0	-100	0	230	101300000	1000	0	0	-1	1000
13871635	5842	2076	0	-100	0	230	101300000	1000	0	0	-1	1000
13884195	5836	2075	0	-100	0	230	101300000	1000	0	0	-1	1000
13896755	5845	2074	0	-100	0	230	101300000	1000	0	0	-1	1000
13909315	5842	2070	0	-100	0	230	101300000	1000	0	0	-1	1000
13921875	5848	2079	0	-100	0	230	101300000	1000	0	0	-1	1000
13934435	5842	2075	0	-100	0	230	101300000	1000	0	0	-1	1000
13946995	5839	2070	0	-100	0	230	101300000	1000	0	0	-1	1000
13959555	5852	2063	0	-100	0	230	101300000	1000	0	0	-1	1000
13972115	5838	2075	0	-100	0	230	101300000	1000	0	0	-1	1000
13984675	5843	2066	0	-100	0	230	101300000	1000	0	0	-1	1000
13997235	5847	2075	0	-100	0	230	101300000	1000	0	0	-1	1000
14009795	5843	2074	0	-100	0	230	101300000	1000	0	0	-1	1000
14022355	5836	2075	0	-100	0	230	101300000	1000	0	0	-1	1000
14034915	5848	2076	0	-100	0	230	101300000	1000	0	0	-1	1000
14047475	5830	2070	0	-100	0	230	101300000	1000	0	0	-1	1000
14060035	5850	2067	0	-100	0	230	101300000	1000	0	0	-1	1000
14072595	5845	2068	0	-100	0	230	101300000	1000	0	0	-1	1000
14085155	5824	2074	0	-100	0	230	101300000	1000	0	0	-1	1000
14097715	5849	2077	0	-100	0	230	101300000	1000	0	0	-1	1000
14110275	5845	2077	0	-100	0	230	101300000	1000	0	0	-1	1000
14122835	5849	2071	0	-100	0	230	101300000	1000	0	0	-1	1000
14135395	5829	2082	0	-100	0	230	101300000	1000	0	0	-1	1000
14147955	5849	2076	0	-100	0	230	101300000	1000	0	0	-1	1000
14160515	5841	2077	0	-100	0	230	101300000	1000	0	0	-1	1000
14173075	5848	2068	0	-100	0	230	101300000	1000	0	0	-1	1000
14185635	5842	2070	0	-100	0	230	101300000	1000	0	0	-1	1000
14198195	5837	2069	0	-100	0	230	101300000	1000	0	0	-1	1000
14210755	5834	2073	0	-100	0	230	101300000	1000	0	0	-1	1000
14223315	5837	2071	0	-100	0	230	101300000	1000	0	0	-1	1000
14235875	5849	2080	0	-100	0	230	101300000	1000	0	0	-1	1000
14248435	5840	2068	0	-100	0	230	101300000	1000	0	0	-1	1000
14260995	5851	2071	0	-100	0	230	101300000	1000	0	0	-1	1000
14273555	5834	2070	0	-100	0	230	101300000	1000	0	0	-1	1000
14286115	5848	2067	0	-100	0	230	101300000	1000	0	0	-1	1000
14298675	5844	2080	0	-100	0	230	101300000	1000	0	0	-1	1000
14311235	5838	2066	0	-100	0	230	101300000	1000	0	0	-1	1000
14323795	5840	2068	0	-100	0	230	101300000	1000	0	0	-1	1000
14336355	5843	2064	0	-100	0	230	101300000	1000	0	0	-1	1000
14348915	5848	2069	0	-100	0	230	101300000	1000	0	0	-1	1000
14361475	5840	2072	0	-100	0	230	101300000	1000	0	0	-1	1000
14374035	5855	2064	0	-100	0	230	101300000	1000	0	0	-1	1000
14386595	5842	2070	0	-100	0	230	101300000	1000	0	0	-1	1000
14399155	5834	2074	0	-100	0	230	101300000	1000	0	0	-1	1000
14411715	5827	2067	0	-100	0	230	101300000	1000	0	0	-1	1000
14424275	5854	2064	0	-100	0	230	101300000	1000	0	0	-1	1000
14436835	5851	2071	0	-100	0	230	101300000	1000	0	0	-1	1000
14449395	5842	2079	0	-100	0	230	101300000	1000	0	0	-1	1000
14461955	5838	2075	0	-100	0	230	101300000	1000	0	0	-1	1000
14474515	5850	2074	0	-100	0	230	101300000	1000	0	0	-1	1000
14487075	5837	2067	0	-100	0	230	101300000	1000	0	0	-1	1000
14499635	5837	2072	0	-100	0	230	101300000	1000	0	0	-1	1000
14512195	5852	2077	0	-100	0	230	101300000	1000	0	0	-1	1000
14524755	5837	2071	0	-100	0	230	101300000	1000	0	0	-1	1000
14537315	5839	2071	0	-100	0	230	101300000	1000	0	0	-1	1000
14549875	5843	2059	0	-100	0	230	101300000	1000	0	0	-1	1000
14562435	5838	2077	0	-100	0	230	101300000	1000	0	0	-1	1000
14574995	5842	2067	0	-100	0	230	101300000	1000	0	0	-1	1000
14587555	5838	2066	0	-100	0	230	101300000	1000	0	0	-1	1000
14600115	5848	2066	0	-100	0	230	101300000	1000	0	0	-1	1000
14612675	5843	2078	0	-100	0	230	101300000	1000	0	0	-1	1000
14625235	5843	2069	0	-100	0	230	101300000	1000	0	0	-1	1000
14637795	5846	2074	0	-100	0	230	101300000	1000	0	0	-1	1000
14650355	5848	2070	0	-100	0	230	101300000	1000	0	0	-1	1000
14662915	5835	2069	0	-100	0	230	101300000	1000	0	0	-1	1000
14675475	5840	2069	0	-100	0	230	101300000	1000	0	0	-1	1000
14688035	5852	2071	0	-100	0	230	101300000	1000	0	0	-1	1000
14700595	5855	2077	0	-100	0	230	101300000	1000	0	0	-1	1000
14713155	5839	2073	0	-100	0	230	101300000	1000	0	0	-1	1000
14725715	5841	2069	0	-100	0	230	101300000	1000	0	0	-1	1000
14738275	5840	2075	0	-100	0	230	101300000	1000	0	0	-1	1000
14750835	5846	2070	0	-100	0	230	101300000	1000	0	0	-1	1000
14763395	5836	2064	0	-100	0	230	101300000	1000	0	0	-1	1000
14775955	5836	2070	0	-100	0	230	101300000	1000	0	0	-1	1000
14788515	5844	2079	0	-100	0	230	101300000	1000	0	0	-1	1000
14801075	5840	2075	0	-100	0	230	101300000	1000	0	0	-1	1000
14813635	5833	2076	0	-100	0	230	101300000	1000	0	0	-1	1000
14826195	5849	2068	0	-100	0	230	101300000	1000	0	0	-1	1000
14838755	5840	2081	0	-100	0	230	101300000	1000	0	0	-1	1000
14851315	5840	2068	0	-100	0	230	101300000	1000	0	0	-1	1000
14863875	5841	2069	0	-100	0	230	101300000	1000	0	0	-1	1000
14876435	5855	2072	0	-100	0	230	101300000	1000	0	0	-1	1000
14888995	5827	2071	0	-100	0	230	101300000	1000	0	0	-1	1000
14901555	5843	2077	0	-100	0	230	101300000	1000	0	0	-1	1000
14914115	5837	2068	0	-100	0	230	101300000	1000	0	0	-1	1000
14926675	5831	2072	0	-100	0	230	101300000	1000	0	0	-1	1000
14939235	5839	2078	0	-100	0	230	101300000	1000	0	0	-1	1000
14951795	5835	2068	0	-100	0	230	101300000	1000	0	0	-1	1000
14964355	5843	2067	0	-100	0	230	101300000	1000	0	0	-1	1000
14976915	5846	2066	0	-100	0	230	101300000	1000	0	0	-1	1000
14989475	5849	2068	0	-100	0	230	101300000	1000	0	0	-1	1000
15002035	5845	2063	0	-100	0	230	101300000	1000	0	0	-1	1000
15014595	5848	2073	0	-100	0	230	101300000	1000	0	0	-1	1000
15027155	5848	2073	0	-100	0	230	101300000	1000	0	0	-1	1000
15039715	5839	2075	0	-100	0	230	101300000	1000	0	0	-1	1000
15052275	5844	2064	0	-100	0	230	101300000	1000	0	0	-1	1000
15064835	5853	2062	0	-100	0	230	101300000	1000	0	0	-1	1000
15077395	5840	2075	0	-100	0	230	101300000	1000	0	0	-1	1000
15089955	5836	2066	0	-100	0	230	101300000	1000	0	0	-1	1000
15102515	5849	2067	0	-100	0	230	101300000	1000	0	0	-1	1000
15115075	5838	2068	0	-100	0	230	101300000	1000	0	0	-1	1000
15127635	5850	2076	0	-100	0	230	101300000	1000	0	0	-1	1000
15140195	5846	2065	0	-100	0	230	101300000	1000	0	0	-1	1000
15152755	5845	2065	0	-100	0	230	101300000	1000	0	0	-1	1000
15165315	5853	2069	0	-100	0	230	101300000	1000	0	0	-1	1000
15177875	5846	2073	0	-100	0	230	101300000	1000	0	0	-1	1000
15190435	5845	2067	0	-100	0	230	101300000	1000	0	0	-1	1000
15202995	5835	2071	0	-100	0	230	101300000	1000	0	0	-1	1000
15215555	5846	2073	0	-100	0	230	101300000	1000	0	0	-1	1000
15228115	5841	2067	0	-100	0	230	101300000	1000	0	0	-1	1000
15240675	5850	2068	0	-100	0	230	101300000	1000	0	0	-1	1000
15253235	5835	2073	0	-100	0	230	101300000	1000	0	0	-1	1000
15265795	5841	2072	0	-100	0	230	101300000	1000	0	0	-1	1000
15278355	5848	2058	0	-100	0	230	101300000	1000	0	0	-1	1000
15290915	5837	2071	0	-100	0	230	101300000	1000	0	0	-1	1000
15303475	5845	2070	0	-100	0	230	101300000	1000	0	0	-1	1000
15316035	5854	2073	0	-100	0	230	101300000	1000	0	0	-1	1000
15328595	5844	2071	0	-100	0	230	101300000	1000	0	0	-1	1000
15341155	5830	2071	0	-100	0	230	101300000	1000	0	0	-1	1000
15353715	5848	2083	0	-100	0	230	101300000	1000	0	0	-1	1000
15366275	5842	2065	0	-100	0	230	101300000	1000	0	0	-1	1000
15378835	5839	2069	0	-100	0	230	101300000	1000	0	0	-1	1000
15391395	5843	2074	0	-100	0	230	101300000	1000	0	0	-1	1000
15403955	5835	2069	0	-100	0	230	101300000	1000	0	0	-1	1000
15416515	5848	2063	0	-100	0	230	101300000	1000	0	0	-1	1000
15429075	5837	2073	0	-100	0	230	101300000	1000	0	0	-1	1000
15441635	5835	2068	0	-100	0	230	101300000	1000	0	0	-1	1000
15454195	5831	2064	0	-100	0	230	101300000	1000	0	0	-1	1000
15466755	5848	2066	0	-100	0	230	101300000	1000	0	0	-1	1000
15479315	5845	2073	0	-100	0	230	101300000	1000	0	0	-1	1000
15491875	5832	2068	0	-100	0	230	101300000	1000	0	0	-1	1000
15504435	5833	2069	0	-100	0	230	101300000	1000	0	0	-1	1000
15516995	5838	2071	0	-100	0	230	101300000	1000	0	0	-1	1000
15529555	5839	2075	0	-100	0	230	101300000	1000	0	0	-1	1000
15542115	5843	2067	0	-100	0	230	101300000	1000	0	0	-1	1000
15554675	5832	2067	0	-100	0	230	101300000	1000	0	0	-1	1000
15567235	5845	2069	0	-100	0	230	101300000	1000	0	0	-1	1000
15579795	5837	2069	0	-100	0	230	101300000	1000	0	0	-1	1000
15592355	5852	2066	0	-100	0	230	101300000	1000	0	0	-1	1000
15604915	5840	2060	0	-100	0	230	101300000	1000	0	0	-1	1000
15617475	5835	2075	0	-100	0	230	101300000	1000	0	0	-1	1000
15630035	5840	2064	0	-100	0	230	101300000	1000	0	0	-1	1000
15642595	5851	2066	0	-100	0	230	101300000	1000	0	0	-1	1000
15655155	5851	2074	0	-100	0	230	101300000	1000	0	0	-1	1000
15667715	5843	2064	0	-100	0	230	101300000	1000	0	0	-1	1000
15680275	5832	2068	0	-100	0	230	101300000	1000	0	0	-1	1000
15692835	5844	2074	0	-100	0	230	101300000	1000	0	0	-1	1000
15705395	5834	2069	0	-100	0	230	101300000	1000	0	0	-1	1000
15717955	5845	2070	0	-100	0	230	101300000	1000	0	0	-1	1000
15730515	5844	2070	0	-100	0	230	101300000	1000	0	0	-1	1000
15743075	5839	2074	0	-100	0	230	101300000	1000	0	0	-1	1000
15755635	5843	2065	0	-100	0	230	101300000	1000	0	0	-1	1000
15768195	5844	2070	0	-100	0	230	101300000	1000	0	0	-1	1000
15780755	5847	2072	0	-100	0	230	101300000	1000	0	0	-1	1000
15793315	5833	2068	0	-100	0	230	101300000	1000	0	0	-1	1000
15805875	5835	2073	0	-100	0	230	101300000	1000	0	0	-1	1000
15818435	5840	2075	0	-100	0	230	101300000	1000	0	0	-1	1000
15830995	5838	2068	0	-100	0	230	101300000	1000	0	0	-1	1000
15843555	5848	2065	0	-100	0	230	101300000	1000	0	0	-1	1000
15856115	5844	2071	0	-100	0	230	101300000	1000	0	0	-1	1000
15868675	5841	2069	0	-100	0	230	101300000	1000	0	0	-1	1000
15881235	5835	2071	0	-100	0	230	101300000	1000	0	0	-1	1000
15893795	5831	2060	0	-100	0	230	101300000	1000	0	0	-1	1000
15906355	5841	2064	0	-100	0	230	101300000	1000	0	0	-1	1000
15918915	5843	2065	0	-100	0	230	101300000	1000	0	0	-1	1000
15931475	5845	2073	0	-100	0	230	101300000	1000	0	0	-1	1000
15944035	5840	2070	0	-100	0	230	101300000	1000	0	0	-1	1000
15956595	5831	2063	0	-100	0	230	101300000	1000	0	0	-1	1000
15969155	5839	2064	0	-100	0	230	101300000	1000	0	0	-1	1000
15981715	5854	2063	0	-100	0	230	101300000	1000	0	0	-1	1000
15994275	5843	2077	0	-100	0	230	101300000	1000	0	0	-1	1000
16006835	5842	2071	0	-100	0	230	101300000	1000	0	0	-1	1000
16019395	5840	2076	0	-100	0	230	101300000	1000	0	0	-1	1000
16031955	5835	2073	0	-100	0	230	101300000	1000	0	0	-1	1000
16044515	5852	2075	0	-100	0	230	101300000	1000	0	0	-1	1000
16057075	5841	2070	0	-100	0	230	101300000	1000	0	0	-1	1000
16069635	5844	2067	0	-100	0	230	101300000	1000	0	0	-1	1000
16082195	5848	2071	0	-100	0	230	101300000	1000	0	0	-1	1000
16094755	5847	2071	0	-100	0	230	101300000	1000	0	0	-1	1000
16107315	5837	2066	0	-100	0	230	101300000	1000	0	0	-1	1000
16119875	5839	2076	0	-100	0	230	101300000	1000	0	0	-1	1000
16132435	5839	2071	0	-100	0	230	101300000	1000	0	0	-1	1000
16144995	5844	2068	0	-100	0	230	101300000	1000	0	0	-1	1000
16157555	5842	2071	0	-100	0	230	101300000	1000	0	0	-1	1000
16170115	5834	2070	0	-100	0	230	101300000	1000	0	0	-1	1000
16182675	5831	2057	0	-100	0	230	101300000	1000	0	0	-1	1000
16195235	5844	2071	0	-100	0	230	101300000	1000	0	0	-1	1000
16207795	5839	2076	0	-100	0	230	101300000	1000	0	0	-1	1000
16220355	5835	2072	0	-100	0	230	101300000	1000	0	0	-1	1000
16232915	5852	2067	0	-100	0	230	101300000	1000	0	0	-1	1000
16245475	5839	2065	0	-100	0	230	101300000	1000	0	0	-1	1000
16258035	5839	2061	0	-100	0	230	101300000	1000	0	0	-1	1000
16270595	5838	2073	0	-100	0	230	101300000	1000	0	0	-1	1000
16283155	5845	2066	0	-100	0	230	101300000	1000	0	0	-1	1000
16295715	5852	2067	0	-100	0	230	101300000	1000	0	0	-1	1000
16308275	5840	2073	0	-100	0	230	101300000	1000	0	0	-1	1000
16320835	5835	2081	0	-100	0	230	101300000	1000	0	0	-1	1000
16333395	5839	2067	0	-100	0	230	101300000	1000	0	0	-1	1000
16345955	5843	2073	0	-100	0	230	101300000	1000	0	0	-1	1000
16358515	5834	2073	0	-100	0	230	101300000	1000	0	0	-1	1000
16371075	5841	2070	0	-100	0	230	101300000	1000	0	0	-1	1000
16383635	5842	2067	0	-100	0	230	101300000	1000	0	0	-1	1000
16396195	5840	2073	0	-100	0	230	101300000	1000	0	0	-1	1000
16408755	5847	2077	0	-100	0	230	101300000	1000	0	0	-1	1000
16421315	5843	2073	0	-100	0	230	101300000	1000	0	0	-1	1000
16433875	5838	2064	0	-100	0	230	101300000	1000	0	0	-1	1000
16446435	5844	2073	0	-100	0	230	101300000	1000	0	0	-1	1000
16458995	5848	2073	0	-100	0	230	101300000	1000	0	0	-1	1000
16471555	5841	2072	0	-100	0	230	101300000	1000	0	0	-1	1000
16484115	5848	2072	0	-100	0	230	101300000	1000	0	0	-1	1000
16496675	5847	2071	0	-100	0	230	101300000	1000	0	0	-1	1000
16509235	5840	2058	0	-100	0	230	101300000	1000	0	0	-1	1000
16521795	5852	2069	0	-100	0	230	101300000	1000	0	0	-1	1000
16534355	5839	2074	0	-100	0	230	101300000	1000	0	0	-1	1000
16546915	5832	2073	0	-100	0	230	101300000	1000	0	0	-1	1000
16559475	5846	2071	0	-100	0	230	101300000	1000	0	0	-1	1000
16572035	5830	2069	0	-100	0	230	101300000	1000	0	0	-1	1000
16584595	5856	2070	0	-100	0	230	101300000	1000	0	0	-1	1000
16597155	5839	2067	0	-100	0	230	101300000	1000	0	0	-1	1000
16609715	5843	2068	0	-100	0	230	101300000	1000	0	0	-1	1000
16622275	5831	2068	0	-100	0	230	101300000	1000	0	0	-1	1000
16634835	5827	2069	0	-100	0	230	101300000	1000	0	0	-1	1000
16647395	5831	2074	0	-100	0	230	101300000	1000	0	0	-1	1000
16659955	5836	2072	0	-100	0	230	101300000	1000	0	0	-1	1000
16672515	5833	2068	0	-100	0	230	101300000	1000	0	0	-1	1000
16685075	5831	2071	0	-100	0	230	101300000	1000	0	0	-1	1000
16697635	5836	2071	0	-100	0	230	101300000	1000	0	0	-1	1000
16710195	5833	2074	0	-100	0	230	101300000	1000	0	0	-1	1000
16722755	5839	2077	0	-100	0	230	101300000	1000	0	0	-1	1000
16735315	5842	2075	0	-100	0	230	101300000	1000	0	0	-1	1000
16747875	5843	2067	0	-100	0	230	101300000	1000	0	0	-1	1000
16760435	5848	2066	0	-100	0	230	101300000	1000	0	0	-1	1000
16772995	5837	2067	0	-100	0	230	101300000	1000	0	0	-1	1000
16785555	5841	2065	0	-100	0	230	101300000	1000	0	0	-1	1000
16798115	5847	2076	0	-100	0	230	101300000	1000	0	0	-1	1000
16810675	5841	2065	0	-100	0	230	101300000	1000	0	0	-1	1000
16823235	5859	2071	0	-100	0	230	101300000	1000	0	0	-1	1000
16835795	5840	2072	0	-100	0	230	101300000	1000	0	0	-1	1000
16848355	5841	2069	0	-100	0	230	101300000	1000	0	0	-1	1000
16860915	5838	2073	0	-100	0	230	101300000	1000	0	0	-1	1000
16873475	5835	2078	0	-100	0	230	101300000	1000	0	0	-1	1000
16886035	5846	2065	0	-100	0	230	101300000	1000	0	0	-1	1000
16898595	5845	2068	0	-100	0	230	101300000	1000	0	0	-1	1000
16911155	5851	2068	0	-100	0	230	101300000	1000	0	0	-1	1000
16923715	5840	2066	0	-100	0	230	101300000	1000	0	0	-1	1000
16936275	5847	2063	0	-100	0	230	101300000	1000	0	0	-1	1000
16948835	5834	2070	0	-100	0	230	101300000	1000	0	0	-1	1000
16961395	5843	2063	0	-100	0	230	101300000	1000	0	0	-1	1000
16973955	5841	2077	0	-100	0	230	101300000	1000	0	0	-1	1000
16986515	5833	2081	0	-100	0	230	101300000	1000	0	0	-1	1000
16999075	5844	2074	0	-100	0	230	101300000	1000	0	0	-1	1000
17011635	5827	2075	0	-100	0	230	101300000	1000	0	0	-1	1000
17024195	5836	2061	0	-100	0	230	101300000	1000	0	0	-1	1000
17036755	5832	2071	0	-100	0	230	101300000	1000	0	0	-1	1000
17049315	5840	2073	0	-100	0	230	101300000	1000	0	0	-1	1000
17061875	5833	2068	0	-100	0	230	101300000	1000	0	0	-1	1000
17074435	5844	2061	0	-100	0	230	101300000	1000	0	0	-1	1000
17086995	5840	2067	0	-100	0	230	101300000	1000	0	0	-1	1000
17099555	5845	2077	0	-100	0	230	101300000	1000	0	0	-1	1000
17112115	5828	2067	0	-100	0	230	101300000	1000	0	0	-1	1000
17124675	5844	2073	0	-100	0	230	101300000	1000	0	0	-1	1000
17137235	5843	2069	0	-100	0	230	101300000	1000	0	0	-1	1000
17149795	5830	2070	0	-100	0	230	101300000	1000	0	0	-1	1000
17162355	5833	2064	0	-100	0	230	101300000	1000	0	0	-1	1000
17174915	5835	2071	0	-100	0	230	101300000	1000	0	0	-1	1000
17187475	5844	2074	0	-100	0	230	101300000	1000	0	0	-1	1000
17200035	5848	2071	0	-100	0	230	101300000	1000	0	0	-1	1000
17212595	5839	2065	0	-100	0	230	101300000	1000	0	0	-1	1000
17225155	5842	2075	0	-100	0	230	101300000	1000	0	0	-1	1000
17237715	5844	2074	0	-100	0	230	101300000	1000	0	0	-1	1000
17250275	5846	2067	0	-100	0	230	101300000	1000	0	0	-1	1000
17262835	5853	2059	0	-100	0	230	101300000	1000	0	0	-1	1000
17275395	5831	2072	0	-100	0	230	101300000	1000	0	0	-1	1000
17287955	5845	2063	0	-100	0	230	101300000	1000	0	0	-1	1000
17300515	5841	2069	0	-100	0	230	101300000	1000	0	0	-1	1000
17313075	5845	2076	0	-100	0	230	101300000	1000	0	0	-1	1000
17325635	5857	2065	0	-100	0	230	101300000	1000	0	0	-1	1000
17338195	5844	2070	0	-100	0	230	101300000	1000	0	0	-1	1000
17350755	5840	2077	0	-100	0	230	101300000	1000	0	0	-1	1000
17363315	5847	2064	0	-100	0	230	101300000	1000	0	0	-1	1000
17375875	5842	2067	0	-100	0	230	101300000	1000	0	0	-1	1000
17388435	5834	2057	0	-100	0	230	101300000	1000	0	0	-1	1000
17400995	5839	2067	0	-100	0	230	101300000	1000	0	0	-1	1000
17413555	5831	2072	0	-100	0	230	101300000	1000	0	0	-1	1000
17426115	5845	2057	0	-100	0	230	101300000	1000	0	0	-1	1000
17438675	5846	2070	0	-100	0	230	101300000	1000	0	0	-1	1000
17451235	5850	2068	0	-100	0	230	101300000	1000	0	0	-1	1000
17463795	5829	2065	0	-100	0	230	101300000	1000	0	0	-1	1000
17476355	5843	2074	0	-100	0	230	101300000	1000	0	0	-1	1000
17488915	5843	2073	0	-100	0	230	101300000	1000	0	0	-1	1000
17501475	5829	2069	0	-100	0	230	101300000	1000	0	0	-1	1000
17514035	5838	2067	0	-100	0	230	101300000	1000	0	0	-1	1000
17526595	5837	2067	0	-100	0	230	101300000	1000	0	0	-1	1000
17539155	5836	2064	0	-100	0	230	101300000	1000	0	0	-1	1000
17551715	5839	2076	0	-100	0	230	101300000	1000	0	0	-1	1000
17564275	5865	2073	0	-100	0	230	101300000	1000	0	0	-1	1000
17576835	5832	2069	0	-100	0	230	101300000	1000	0	0	-1	1000
17589395	5827	2068	0	-100	0	230	101300000	1000	0	0	-1	1000
17601955	5840	2066	0	-100	0	230	101300000	1000	0	0	-1	1000
17614515	5837	2071	0	-100	0	230	101300000	1000	0	0	-1	1000
17627075	5856	2072	0	-100	0	230	101300000	1000	0	0	-1	1000
17639635	5843	2069	0	-100	0	230	101300000	1000	0	0	-1	1000
17652195	5829	2065	0	-100	0	230	101300000	1000	0	0	-1	1000
17664755	5836	2079	0	-100	0	230	101300000	1000	0	0	-1	1000
17677315	5839	2068	0	-100	0	230	101300000	1000	0	0	-1	1000
17689875	5848	2068	0	-100	0	230	101300000	1000	0	0	-1	1000
17702435	5838	2079	0	-100	0	230	101300000	1000	0	0	-1	1000
17714995	5835	2077	0	-100	0	230	101300000	1000	0	0	-1	1000
17727555	5841	2070	0	-100	0	230	101300000	1000	0	0	-1	1000
17740115	5839	2078	0	-100	0	230	101300000	1000	0	0	-1	1000
17752675	5855	2075	0	-100	0	230	101300000	1000	0	0	-1	1000
17765235	5843	2073	0	-100	0	230	101300000	1000	0	0	-1	1000
17777795	5835	2068	0	-100	0	230	101300000	1000	0	0	-1	1000
17790355	5836	2074	0	-100	0	230	101300000	1000	0	0	-1	1000
17802915	5839	2065	0	-100	0	230	101300000	1000	0	0	-1	1000
17815475	5844	2067	0	-100	0	230	101300000	1000	0	0	-1	1000
17828035	5844	2069	0	-100	0	230	101300000	1000	0	0	-1	1000
17840595	5830	2064	0	-100	0	230	101300000	1000	0	0	-1	1000
17853155	5841	2060	0	-100	0	230	101300000	1000	0	0	-1	1000
17865715	5836	2072	0	-100	0	230	101300000	1000	0	0	-1	1000
17878275	5840	2073	0	-100	0	230	101300000	1000	0	0	-1	1000
17890835	5842	2072	0	-100	0	230	101300000	1000	0	0	-1	1000
17903395	5844	2070	0	-100	0	230	101300000	1000	0	0	-1	1000
17915955	5844	2078	0	-100	0	230	101300000	1000	0	0	-1	1000
17928515	5843	2077	0	-100	0	230	101300000	1000	0	0	-1	1000
17941075	5843	2068	0	-100	0	230	101300000	1000	0	0	-1	1000
17953635	5844	2073	0	-100	0	230	101300000	1000	0	0	-1	1000
17966195	5852	2070	0	-100	0	230	101300000	1000	0	0	-1	1000
17978755	5834	2071	0	-100	0	230	101300000	1000	0	0	-1	1000
17991315	5845	2074	0	-100	0	230	101300000	1000	0	0	-1	1000
18003875	5848	2073	0	-100	0	230	101300000	1000	0	0	-1	1000
18016435	5842	2066	0	-100	0	230	101300000	1000	0	0	-1	1000
18028995	5843	2065	0	-100	0	230	101300000	1000	0	0	-1	1000
18041555	5835	2071	0	-100	0	230	101300000	1000	0	0	-1	1000
18054115	5844	2071	0	-100	0	230	101300000	1000	0	0	-1	1000
18066675	5846	2068	0	-100	0	230	101300000	1000	0	0	-1	1000
18079235	5834	2072	0	-100	0	230	101300000	1000	0	0	-1	1000
18091795	5835	2073	0	-100	0	230	101300000	1000	0	0	-1	1000
18104355	5817	2064	0	-100	0	230	101300000	1000	0	0	-1	1000
18116915	5835	2071	0	-100	0	230	101300000	1000	0	0	-1	1000
18129475	5832	2075	0	-100	0	230	101300000	1000	0	0	-1	1000
18142035	5832	2077	0	-100	0	230	101300000	1000	0	0	-1	1000
18154595	5839	2075	0	-100	0	230	101300000	1000	0	0	-1	1000
18167155	5846	2074	0	-100	0	230	101300000	1000	0	0	-1	1000
18179715	5838	2072	0	-100	0	230	101300000	1000	0	0	-1	1000
18192275	5836	2065	0	-100	0	230	101300000	1000	0	0	-1	1000
18204835	5838	2066	0	-100	0	230	101300000	1000	0	0	-1	1000
18217395	5839	2067	0	-100	0	230	101300000	1000	0	0	-1	1000
18229955	5839	2069	0	-100	0	230	101300000	1000	0	0	-1	1000
18242515	5839	2074	0	-100	0	230	101300000	1000	0	0	-1	1000
18255075	5855	2071	0	-100	0	230	101300000	1000	0	0	-1	1000
18267635	5845	2079	0	-100	0	230	101300000	1000	0	0	-1	1000
18280195	5833	2077	0	-100	0	230	101300000	1000	0	0	-1	1000
18292755	5843	2084	0	-100	0	230	101300000	1000	0	0	-1	1000
18305315	5850	2077	0	-100	0	230	101300000	1000	0	0	-1	1000
18317875	5848	2075	0	-100	0	230	101300000	1000	0	0	-1	1000
18330435	5828	2071	0	-100	0	230	101300000	1000	0	0	-1	1000
18342995	5845	2065	0	-100	0	230	101300000	1000	0	0	-1	1000
18355555	5848	2073	0	-100	0	230	101300000	1000	0	0	-1	1000
18368115	5839	2069	0	-100	0	230	101300000	1000	0	0	-1	1000
18380675	5845	2075	0	-100	0	230	101300000	1000	0	0	-1	1000
18393235	5838	2074	0	-100	0	230	101300000	1000	0	0	-1	1000
18405795	5855	2067	0	-100	0	230	101300000	1000	0	0	-1	1000
18418355	5846	2065	0	-100	0	230	101300000	1000	0	0	-1	1000
18430915	5845	2077	0	-100	0	230	101300000	1000	0	0	-1	1000
18443475	5843	2075	0	-100	0	230	101300000	1000	0	0	-1	1000
18456035	5840	2063	0	-100	0	230	101300000	1000	0	0	-1	1000
18468595	5829	2063	0	-100	0	230	101300000	1000	0	0	-1	1000
18481155	5851	2068	0	-100	0	230	101300000	1000	0	0	-1	1000
18493715	5843	2085	0	-100	0	230	101300000	1000	0	0	-1	1000
18506275	5835	2079	0	-100	0	230	101300000	1000	0	0	-1	1000
18518835	5850	2064	0	-100	0	230	101300000	1000	0	0	-1	1000
18531395	5832	2065	0	-100	0	230	101300000	1000	0	0	-1	1000
18543955	5848	2070	0	-100	0	230	101300000	1000	0	0	-1	1000
18556515	5835	2075	0	-100	0	230	101300000	1000	0	0	-1	1000
18569075	5843	2080	0	-100	0	230	101300000	1000	0	0	-1	1000
18581635	5841	2068	0	-100	0	230	101300000	1000	0	0	-1	1000
18594195	5848	2066	0	-100	0	230	101300000	1000	0	0	-1	1000
18606755	5835	2072	0	-100	0	230	101300000	1000	0	0	-1	1000
18619315	5837	2071	0	-100	0	230	101300000	1000	0	0	-1	1000
18631875	5829	2069	0	-100	0	230	101300000	1000	0	0	-1	1000
18644435	5843	2064	0	-100	0	230	101300000	1000	0	0	-1	1000
18656995	5830	2066	0	-100	0	230	101300000	1000	0	0	-1	1000
18669555	5834	2078	0	-100	0	230	101300000	1000	0	0	-1	1000
18682115	5841	2071	0	-100	0	230	101300000	1000	0	0	-1	1000
18694675	5852	2070	0	-100	0	230	101300000	1000	0	0	-1	1000
18707235	5835	2082	0	-100	0	230	101300000	1000	0	0	-1	1000
18719795	5843	2066	0	-100	0	230	101300000	1000	0	0	-1	1000
18732355	5842	2070	0	-100	0	230	101300000	1000	0	0	-1	1000
18744915	5840	2072	0	-100	0	230	101300000	1000	0	0	-1	1000
18757475	5849	2073	0	-100	0	230	101300000	1000	0	0	-1	1000
18770035	5840	2063	0	-100	0	230	101300000	1000	0	0	-1	1000
18782595	5850	2071	0	-100	0	230	101300000	1000	0	0	-1	1000
18795155	5847	2079	0	-100	0	230	101300000	1000	0	0	-1	1000
18807715	5842	2063	0	-100	0	230	101300000	1000	0	0	-1	1000
18820275	5841	2074	0	-100	0	230	101300000	1000	0	0	-1	1000
18832835	5848	2068	0	-100	0	230	101300000	1000	0	0	-1	1000
18845395	5831	2068	0	-100	0	230	101300000	1000	0	0	-1	1000
18857955	5852	2080	0	-100	0	230	101300000	1000	0	0	-1	1000
18870515	5835	2068	0	-100	0	230	101300000	1000	0	0	-1	1000
18883075	5832	2068	0	-100	0	230	101300000	1000	0	0	-1	1000
18895635	5837	2067	0	-100	0	230	101300000	1000	0	0	-1	1000
18908195	5837	2078	0	-100	0	230	101300000	1000	0	0	-1	1000
18920755	5833	2074	0	-100	0	230	101300000	1000	0	0	-1	1000
18933315	5844	2070	0	-100	0	230	101300000	1000	0	0	-1	1000
18945875	5839	2072	0	-100	0	230	101300000	1000	0	0	-1	1000
18958435	5847	2067	0	-100	0	230	101300000	1000	0	0	-1	1000
18970995	5849	2078	0	-100	0	230	101300000	1000	0	0	-1	1000
18983555	5840	2069	0	-100	0	230	101300000	1000	0	0	-1	1000
18996115	5847	2075	0	-100	0	230	101300000	1000	0	0	-1	1000
19008675	5848	2074	0	-100	0	230	101300000	1000	0	0	-1	1000
19021235	5841	2077	0	-100	0	230	101300000	1000	0	0	-1	1000
19033795	5839	2067	0	-100	0	230	101300000	1000	0	0	-1	1000
19046355	5834	2073	0	-100	0	230	101300000	1000	0	0	-1	1000
19058915	5839	2068	0	-100	0	230	101300000	1000	0	0	-1	1000
19071475	5850	2071	0	-100	0	230	101300000	1000	0	0	-1	1000
19084035	5856	2061	0	-100	0	230	101300000	1000	0	0	-1	1000
19096595	5828	2075	0	-100	0	230	101300000	1000	0	0	-1	1000
19109155	5843	2065	0	-100	0	230	101300000	1000	0	0	-1	1000
19121715	5845	2071	0	-100	0	230	101300000	1000	0	0	-1	1000
19134275	5849	2075	0	-100	0	230	101300000	1000	0	0	-1	1000
19146835	5840	2077	0	-100	0	230	101300000	1000	0	0	-1	1000
19159395	5837	2067	0	-100	0	230	101300000	1000	0	0	-1	1000
19171955	5840	2068	0	-100	0	230	101300000	1000	0	0	-1	1000
19184515	5833	2068	0	-100	0	230	101300000	1000	0	0	-1	1000
19197075	5829	2066	0	-100	0	230	101300000	1000	0	0	-1	1000
19209635	5831	2060	0	-100	0	230	101300000	1000	0	0	-1	1000
19222195	5853	2068	0	-100	0	230	101300000	1000	0	0	-1	1000
19234755	5838	2072	0	-100	0	230	101300000	1000	0	0	-1	1000
19247315	5835	2068	0	-100	0	230	101300000	1000	0	0	-1	1000
19259875	5841	2074	0	-100	0	230	101300000	1000	0	0	-1	1000
19272435	5827	2072	0	-100	0	230	101300000	1000	0	0	-1	1000
19284995	5835	2075	0	-100	0	230	101300000	1000	0	0	-1	1000
19297555	5840	2073	0	-100	0	230	101300000	1000	0	0	-1	1000
19310115	5847	2061	0	-100	0	230	101300000	1000	0	0	-1	1000
19322675	5833	2077	0	-100	0	230	101300000	1000	0	0	-1	1000
19335235	5830	2076	0	-100	0	230	101300000	1000	0	0	-1	1000
19347795	5854	2072	0	-100	0	230	101300000	1000	0	0	-1	1000
19360355	5853	2070	0	-100	0	230	101300000	1000	0	0	-1	1000
19372915	5861	2063	0	-100	0	230	101300000	1000	0	0	-1	1000
19385475	5844	2070	0	-100	0	230	101300000	1000	0	0	-1	1000
19398035	5835	2065	0	-100	0	230	101300000	1000	0	0	-1	1000
19410595	5841	2062	0	-100	0	230	101300000	1000	0	0	-1	1000
19423155	5849	2068	0	-100	0	230	101300000	1000	0	0	-1	1000
19435715	5844	2074	0	-100	0	230	101300000	1000	0	0	-1	1000
19448275	5843	2065	0	-100	0	230	101300000	1000	0	0	-1	1000
19460835	5837	2076	0	-100	0	230	101300000	1000	0	0	-1	1000
19473395	5845	2074	0	-100	0	230	101300000	1000	0	0	-1	1000
19485955	5852	2070	0	-100	0	230	101300000	1000	0	0	-1	1000
19498515	5839	2064	0	-100	0	230	101300000	1000	0	0	-1	1000
19511075	5848	2074	0	-100	0	230	101300000	1000	0	0	-1	1000
19523635	5844	2074	0	-100	0	230	101300000	1000	0	0	-1	1000
19536195	5839	2084	0	-100	0	230	101300000	1000	0	0	-1	1000
19548755	5831	2064	0	-100	0	230	101300000	1000	0	0	-1	1000
19561315	5853	2074	0	-100	0	230	101300000	1000	0	0	-1	1000
19573875	5838	2063	0	-100	0	230	101300000	1000	0	0	-1	1000
19586435	5855	2065	0	-100	0	230	101300000	1000	0	0	-1	1000
19598995	5841	2069	0	-100	0	230	101300000	1000	0	0	-1	1000
19611555	5848	2072	0	-100	0	230	101300000	1000	0	0	-1	1000
19624115	5843	2071	0	-100	0	230	101300000	1000	0	0	-1	1000
19636675	5840	2066	0	-100	0	230	101300000	1000	0	0	-1	1000
19649235	5844	2070	0	-100	0	230	101300000	1000	0	0	-1	1000
19661795	5857	2068	0	-100	0	230	101300000	1000	0	0	-1	1000
19674355	5832	2071	0	-100	0	230	101300000	1000	0	0	-1	1000
19686915	5844	2071	0	-100	0	230	101300000	1000	0	0	-1	1000
19699475	5838	2073	0	-100	0	230	101300000	1000	0	0	-1	1000
19712035	5833	2078	0	-100	0	230	101300000	1000	0	0	-1	1000
19724595	5835	2071	0	-100	0	230	101300000	1000	0	0	-1	1000
19737155	5838	2071	0	-100	0	230	101300000	1000	0	0	-1	1000
19749715	5853	2077	0	-100	0	230	101300000	1000	0	0	-1	1000
19762275	5837	2069	0	-100	0	230	101300000	1000	0	0	-1	1000
19774835	5837	2064	0	-100	0	230	101300000	1000	0	0	-1	1000
19787395	5856	2067	0	-100	0	230	101300000	1000	0	0	-1	1000
19799955	5834	2062	0	-100	0	230	101300000	1000	0	0	-1	1000
19812515	5838	2065	0	-100	0	230	101300000	1000	0	0	-1	1000
19825075	5850	2064	0	-100	0	230	101300000	1000	0	0	-1	1000
19837635	5852	2076	0	-100	0	230	101300000	1000	0	0	-1	1000
19850195	5850	2070	0	-100	0	230	101300000	1000	0	0	-1	1000
19862755	5838	2076	0	-100	0	230	101300000	1000	0	0	-1	1000
19875315	5841	2065	0	-100	0	230	101300000	1000	0	0	-1	1000
19887875	5844	2066	0	-100	0	230	101300000	1000	0	0	-1	1000
19900435	5848	2074	0	-100	0	230	101300000	1000	0	0	-1	1000
19912995	5853	2079	0	-100	0	230	101300000	1000	0	0	-1	1000
19925555	5848	2074	0	-100	0	230	101300000	1000	0	0	-1	1000
19938115	5848	2067	0	-100	0	230	101300000	1000	0	0	-1	1000
19950675	5850	2075	0	-100	0	230	101300000	1000	0	0	-1	1000
19963235	5845	2067	0	-100	0	230	101300000	1000	0	0	-1	1000
19975795	5853	2073	0	-100	0	230	101300000	1000	0	0	-1	1000
19988355	5840	2067	0	-100	0	230	101300000	1000	0	0	-1	1000
20000915	5831	2064	0	-100	0	230	101300000	1000	0	0	-1	1000
20013475	5838	2070	0	-100	0	230	101300000	1000	0	0	-1	1000
20026035	5847	2071	0	-100	0	230	101300000	1000	0	0	-1	1000
20038595	5839	2074	0	-100	0	230	101300000	1000	0	0	-1	1000
20051155	5834	2071	0	-100	0	230	101300000	1000	0	0	-1	1000
20063715	5848	2078	0	-100	0	230	101300000	1000	0	0	-1	1000
20076275	5840	2069	0	-100	0	230	101300000	1000	0	0	-1	1000
20088835	5840	2071	0	-100	0	230	101300000	1000	0	0	-1	1000
20101395	5848	2074	0	-100	0	230	101300000	1000	0	0	-1	1000
20113955	5833	2080	0	-100	0	230	101300000	1000	0	0	-1	1000
20126515	5842	2075	0	-100	0	230	101300000	1000	0	0	-1	1000
20139075	5840	2076	0	-100	0	230	101300000	1000	0	0	-1	1000
20151635	5849	2067	0	-100	0	230	101300000	1000	0	0	-1	1000
20164195	5836	2063	0	-100	0	230	101300000	1000	0	0	-1	1000
20176755	5838	2076	0	-100	0	230	101300000	1000	0	0	-1	1000
20189315	5843	2074	0	-100	0	230	101300000	1000	0	0	-1	1000
20201875	5845	2072	0	-100	0	230	101300000	1000	0	0	-1	1000
20214435	5852	2073	0	-100	0	230	101300000	1000	0	0	-1	1000
20226995	5845	2075	0	-100	0	230	101300000	1000	0	0	-1	1000
20239555	5840	2071	0	-100	0	230	101300000	1000	0	0	-1	1000
20252115	5838	2064	0	-100	0	230	101300000	1000	0	0	-1	1000
20264675	5845	2072	0	-100	0	230	101300000	1000	0	0	-1	1000
20277235	5835	2071	0	-100	0	230	101300000	1000	0	0	-1	1000
20289795	5853	2064	0	-100	0	230	101300000	1000	0	0	-1	1000
20302355	5828	2064	0	-100	0	230	101300000	1000	0	0	-1	1000
20314915	5828	2068	0	-100	0	230	101300000	1000	0	0	-1	1000
20327475	5840	2071	0	-100	0	230	101300000	1000	0	0	-1	1000
20340035	5831	2074	0	-100	0	230	101300000	1000	0	0	-1	1000
20352595	5838	2073	0	-100	0	230	101300000	1000	0	0	-1	1000
20365155	5852	2065	0	-100	0	230	101300000	1000	0	0	-1	1000
20377715	5836	2067	0	-100	0	230	101300000	1000	0	0	-1	1000
20390275	5839	2070	0	-100	0	230	101300000	1000	0	0	-1	1000
20402835	5848	2066	0	-100	0	230	101300000	1000	0	0	-1	1000
20415395	5832	2080	0	-100	0	230	101300000	1000	0	0	-1	1000
20427955	5838	2077	0	-100	0	230	101300000	1000	0	0	-1	1000
20440515	5835	2077	0	-100	0	230	101300000	1000	0	0	-1	1000
20453075	5849	2066	0	-100	0	230	101300000	1000	0	0	-1	1000
20465635	5847	2075	0	-100	0	230	101300000	1000	0	0	-1	1000
20478195	5844	2070	0	-100	0	230	101300000	1000	0	0	-1	1000
20490755	5849	2074	0	-100	0	230	101300000	1000	0	0	-1	1000
20503315	5829	2071	0	-100	0	230	101300000	1000	0	0	-1	1000
20515875	5845	2066	0	-100	0	230	101300000	1000	0	0	-1	1000
20528435	5856	2070	0	-100	0	230	101300000	1000	0	0	-1	1000
20540995	5842	2069	0	-100	0	230	101300000	1000	0	0	-1	1000
20553555	5840	2077	0	-100	0	230	101300000	1000	0	0	-1	1000
20566115	5827	2065	0	-100	0	230	101300000	1000	0	0	-1	1000
20578675	5846	2064	0	-100	0	230	101300000	1000	0	0	-1	1000
20591235	5851	2071	0	-100	0	230	101300000	1000	0	0	-1	1000
20603795	5848	2072	0	-100	0	230	101300000	1000	0	0	-1	1000
20616355	5849	2064	0	-100	0	230	101300000	1000	0	0	-1	1000
20628915	5827	2065	0	-100	0	230	101300000	1000	0	0	-1	1000
20641475	5848	2073	0	-100	0	230	101300000	1000	0	0	-1	1000
20654035	5838	2064	0	-100	0	230	101300000	1000	0	0	-1	1000
20666595	5842	2070	0	-100	0	230	101300000	1000	0	0	-1	1000
20679155	5838	2077	0	-100	0	230	101300000	1000	0	0	-1	1000
20691715	5844	2070	0	-100	0	230	101300000	1000	0	0	-1	1000
20704275	5837	2073	0	-100	0	230	101300000	1000	0	0	-1	1000
20716835	5841	2073	0	-100	0	230	101300000	1000	0	0	-1	1000
20729395	5836	2066	0	-100	0	230	101300000	1000	0	0	-1	1000
20741955	5856	2077	0	-100	0	230	101300000	1000	0	0	-1	1000
20754515	5833	2067	0	-100	0	230	101300000	1000	0	0	-1	1000
20767075	5835	2076	0	-100	0	230	101300000	1000	0	0	-1	1000
20779635	5838	2077	0	-100	0	230	101300000	1000	0	0	-1	1000
20792195	5843	2068	0	-100	0	230	101300000	1000	0	0	-1	1000
20804755	5850	2064	0	-100	0	230	101300000	1000	0	0	-1	1000
20817315	5842	2069	0	-100	0	230	101300000	1000	0	0	-1	1000
20829875	5840	2064	0	-100	0	230	101300000	1000	0	0	-1	1000
20842435	5840	2063	0	-100	0	230	101300000	1000	0	0	-1	1000
20854995	5827	2070	0	-100	0	230	101300000	1000	0	0	-1	1000
20867555	5852	2070	0	-100	0	230	101300000	1000	0	0	-1	1000
20880115	5841	2077	0	-100	0	230	101300000	1000	0	0	-1	1000
20892675	5848	2078	0	-100	0	230	101300000	1000	0	0	-1	1000
20905235	5839	2076	0	-100	0	230	101300000	1000	0	0	-1	1000
20917795	5836	2074	0	-100	0	230	101300000	1000	0	0	-1	1000
20930355	5849	2077	0	-100	0	230	101300000	1000	0	0	-1	1000
20942915	5832	2076	0	-100	0	230	101300000	1000	0	0	-1	1000
20955475	5836	2078	0	-100	0	230	101300000	1000	0	0	-1	1000
20968035	5837	2063	0	-100	0	230	101300000	1000	0	0	-1	1000
20980595	5847	2072	0	-100	0	230	101300000	1000	0	0	-1	1000
20993155	5852	2072	0	-100	0	230	101300000	1000	0	0	-1	1000
21005715	5848	2068	0	-100	0	230	101300000	1000	0	0	-1	1000
21018275	5833	2069	0	-100	0	230	101300000	1000	0	0	-1	1000
21030835	5850	2073	0	-100	0	230	101300000	1000	0	0	-1	1000
21043395	5857	2073	0	-100	0	230	101300000	1000	0	0	-1	1000
21055955	5844	2084	0	-100	0	230	101300000	1000	0	0	-1	1000
21068515	5844	2065	0	-100	0	230	101300000	1000	0	0	-1	1000
21081075	5841	2064	0	-100	0	230	101300000	1000	0	0	-1	1000
21093635	5851	2060	0	-100	0	230	101300000	1000	0	0	-1	1000
21106195	5838	2079	0	-100	0	230	101300000	1000	0	0	-1	1000
21118755	5834	2071	0	-100	0	230	101300000	1000	0	0	-1	1000
21131315	5844	2069	0	-100	0	230	101300000	1000	0	0	-1	1000
21143875	5843	2068	0	-100	0	230	101300000	1000	0	0	-1	1000
21156435	5848	2064	0	-100	0	230	101300000	1000	0	0	-1	1000
21168995	5840	2075	0	-100	0	230	101300000	1000	0	0	-1	1000
21181555	5838	2068	0	-100	0	230	101300000	1000	0	0	-1	1000
21194115	5829	2075	0	-100	0	230	101300000	1000	0	0	-1	1000
21206675	5827	2062	0	-100	0	230	101300000	1000	0	0	-1	1000
21219235	5841	2072	0	-100	0	230	101300000	1000	0	0	-1	1000
21231795	5835	2073	0	-100	0	230	101300000	1000	0	0	-1	1000
21244355	5838	2068	0	-100	0	230	101300000	1000	0	0	-1	1000
21256915	5851	2071	0	-100	0	230	101300000	1000	0	0	-1	1000
21269475	5840	2068	0	-100	0	230	101300000	1000	0	0	-1	1000
21282035	5842	2070	0	-100	0	230	101300000	1000	0	0	-1	1000
21294595	5845	2070	0	-100	0	230	101300000	1000	0	0	-1	1000
21307155	5842	2071	0	-100	0	230	101300000	1000	0	0	-1	1000
21319715	5844	2059	0	-100	0	230	101300000	1000	0	0	-1	1000
21332275	5842	2075	0	-100	0	230	101300000	1000	0	0	-1	1000
21344835	5834	2072	0	-100	0	230	101300000	1000	0	0	-1	1000
21357395	5834	2070	0	-100	0	230	101300000	1000	0	0	-1	1000
21369955	5836	2069	0	-100	0	230	101300000	1000	0	0	-1	1000
21382515	5840	2075	0	-100	0	230	101300000	1000	0	0	-1	1000
21395075	5843	2072	0	-100	0	230	101300000	1000	0	0	-1	1000
21407635	5844	2067	0	-100	0	230	101300000	1000	0	0	-1	1000
21420195	5834	2070	0	-100	0	230	101300000	1000	0	0	-1	1000
21432755	5842	2071	0	-100	0	230	101300000	1000	0	0	-1	1000
21445315	5840	2070	0	-100	0	230	101300000	1000	0	0	-1	1000
21457875	5852	2069	0	-100	0	230	101300000	1000	0	0	-1	1000
21470435	5843	2079	0	-100	0	230	101300000	1000	0	0	-1	1000
21482995	5840	2070	0	-100	0	230	101300000	1000	0	0	-1	1000
21495555	5856	2076	0	-100	0	230	101300000	1000	0	0	-1	1000
21508115	5839	2076	0	-100	0	230	101300000	1000	0	0	-1	1000
21520675	5838	2075	0	-100	0	230	101300000	1000	0	0	-1	1000
21533235	5840	2068	0	-100	0	230	101300000	1000	0	0	-1	1000
21545795	5853	2074	0	-100	0	230	101300000	1000	0	0	-1	1000
21558355	5837	2071	0	-100	0	230	101300000	1000	0	0	-1	1000
21570915	5836	2076	0	-100	0	230	101300000	1000	0	0	-1	1000
21583475	5834	2074	0	-100	0	230	101300000	1000	0	0	-1	1000
21596035	5834	2078	0	-100	0	230	101300000	1000	0	0	-1	1000
21608595	5841	2066	0	-100	0	230	101300000	1000	0	0	-1	1000
21621155	5835	2073	0	-100	0	230	101300000	1000	0	0	-1	1000
21633715	5839	2070	0	-100	0	230	101300000	1000	0	0	-1	1000
21646275	5838	2063	0	-100	0	230	101300000	1000	0	0	-1	1000
21658835	5844	2067	0	-100	0	230	101300000	1000	0	0	-1	1000
21671395	5855	2071	0	-100	0	230	101300000	1000	0	0	-1	1000
21683955	5845	2079	0	-100	0	230	101300000	1000	0	0	-1	1000
21696515	5835	2083	0	-100	0	230	101300000	1000	0	0	-1	1000
21709075	5836	2070	0	-100	0	230	101300000	1000	0	0	-1	1000
21721635	5839	2068	0	-100	0	230	101300000	1000	0	0	-1	1000
21734195	5841	2070	0	-100	0	230	101300000	1000	0	0	-1	1000
21746755	5831	2072	0	-100	0	230	101300000	1000	0	0	-1	1000
21759315	5827	2070	0	-100	0	230	101300000	1000	0	0	-1	1000
21771875	5844	2066	0	-100	0	230	101300000	1000	0	0	-1	1000
21784435	5836	2076	0	-100	0	230	101300000	1000	0	0	-1	1000
21796995	5843	2069	0	-100	0	230	101300000	1000	0	0	-1	1000
21809555	5842	2063	0	-100	0	230	101300000	1000	0	0	-1	1000
21822115	5839	2077	0	-100	0	230	101300000	1000	0	0	-1	1000
21834675	5837	2070	0	-100	0	230	101300000	1000	0	0	-1	1000
21847235	5852	2073	0	-100	0	230	101300000	1000	0	0	-1	1000
21859795	5843	2065	0	-100	0	230	101300000	1000	0	0	-1	1000
21872355	5847	2070	0	-100	0	230	101300000	1000	0	0	-1	1000
21884915	5837	2075	0	-100	0	230	101300000	1000	0	0	-1	1000
21897475	5835	2073	0	-100	0	230	101300000	1000	0	0	-1	1000
21910035	5831	2066	0	-100	0	230	101300000	1000	0	0	-1	1000
21922595	5835	2079	0	-100	0	230	101300000	1000	0	0	-1	1000
21935155	5836	2073	0	-100	0	230	101300000	1000	0	0	-1	1000
21947715	5829	2070	0	-100	0	230	101300000	1000	0	0	-1	1000
21960275	5827	2063	0	-100	0	230	101300000	1000	0	0	-1	1000
21972835	5839	2066	0	-100	0	230	101300000	1000	0	0	-1	1000
21985395	5839	2066	0	-100	0	230	101300000	1000	0	0	-1	1000
21997955	5837	2071	0	-100	0	230	101300000	1000	0	0	-1	1000
22010515	5836	2072	0	-100	0	230	101300000	1000	0	0	-1	1000
22023075	5851	2074	0	-100	0	230	101300000	1000	0	0	-1	1000
22035635	5825	2076	0	-100	0	230	101300000	1000	0	0	-1	1000
22048195	5838	2063	0	-100	0	230	101300000	1000	0	0	-1	1000
22060755	5837	2075	0	-100	0	230	101300000	1000	0	0	-1	1000
22073315	5842	2077	0	-100	0	230	101300000	1000	0	0	-1	1000
22085875	5839	2065	0	-100	0	230	101300000	1000	0	0	-1	1000
22098435	5842	2074	0	-100	0	230	101300000	1000	0	0	-1	1000
22110995	5847	2075	0	-100	0	230	101300000	1000	0	0	-1	1000
22123555	5842	2075	0	-100	0	230	101300000	1000	0	0	-1	1000
22136115	5844	2066	0	-100	0	230	101300000	1000	0	0	-1	1000
22148675	5840	2063	0	-100	0	230	101300000	1000	0	0	-1	1000
22161235	5843	2064	0	-100	0	230	101300000	1000	0	0	-1	1000
22173795	5840	2076	0	-100	0	230	101300000	1000	0	0	-1	1000
22186355	5843	2078	0	-100	0	230	101300000	1000	0	0	-1	1000
22198915	5838	2070	0	-100	0	230	101300000	1000	0	0	-1	1000
22211475	5841	2064	0	-100	0	230	101300000	1000	0	0	-1	1000
22224035	5843	2068	0	-100	0	230	101300000	1000	0	0	-1	1000
22236595	5831	2074	0	-100	0	230	101300000	1000	0	0	-1	1000
22249155	5830	2068	0	-100	0	230	101300000	1000	0	0	-1	1000
22261715	5841	2064	0	-100	0	230	101300000	1000	0	0	-1	1000
22274275	5843	2071	0	-100	0	230	101300000	1000	0	0	-1	1000
22286835	5847	2073	0	-100	0	230	101300000	1000	0	0	-1	1000
22299395	5836	2074	0	-100	0	230	101300000	1000	0	0	-1	1000
22311955	5838	2073	0	-100	0	230	101300000	1000	0	0	-1	1000
22324515	5839	2069	0	-100	0	230	101300000	1000	0	0	-1	1000
22337075	5849	2070	0	-100	0	230	101300000	1000	0	0	-1	1000
22349635	5836	2078	0	-100	0	230	101300000	1000	0	0	-1	1000
22362195	5837	2070	0	-100	0	230	101300000	1000	0	0	-1	1000
22374755	5844	2072	0	-100	0	230	101300000	1000	0	0	-1	1000
22387315	5842	2065	0	-100	0	230	101300000	1000	0	0	-1	1000
22399875	5851	2079	0	-100	0	230	101300000	1000	0	0	-1	1000
22412435	5834	2073	0	-100	0	230	101300000	1000	0	0	-1	1000
22424995	5839	2069	0	-100	0	230	101300000	1000	0	0	-1	1000
22437555	5848	2065	0	-100	0	230	101300000	1000	0	0	-1	1000
22450115	5852	2065	0	-100	0	230	101300000	1000	0	0	-1	1000
22462675	5837	2070	0	-100	0	230	101300000	1000	0	0	-1	1000
22475235	5850	2067	0	-100	0	230	101300000	1000	0	0	-1	1000
22487795	5845	2072	0	-100	0	230	101300000	1000	0	0	-1	1000
22500355	5848	2068	0	-100	0	230	101300000	1000	0	0	-1	1000
22512915	5836	2068	0	-100	0	230	101300000	1000	0	0	-1	1000
22525475	5835	2075	0	-100	0	230	101300000	1000	0	0	-1	1000
22538035	5836	2067	0	-100	0	230	101300000	1000	0	0	-1	1000
22550595	5839	2076	0	-100	0	230	101300000	1000	0	0	-1	1000
22563155	5839	2077	0	-100	0	230	101300000	1000	0	0	-1	1000
22575715	5841	2070	0	-100	0	230	101300000	1000	0	0	-1	1000
22588275	5838	2068	0	-100	0	230	101300000	1000	0	0	-1	1000
22600835	5840	2069	0	-100	0	230	101300000	1000	0	0	-1	1000
22613395	5839	2062	0	-100	0	230	101300000	1000	0	0	-1	1000
22625955	5844	2070	0	-100	0	230	101300000	1000	0	0	-1	1000
22638515	5846	2071	0	-100	0	230	101300000	1000	0	0	-1	1000
22651075	5839	2075	0	-100	0	230	101300000	1000	0	0	-1	1000
22663635	5845	2070	0	-100	0	230	101300000	1000	0	0	-1	1000
22676195	5829	2065	0	-100	0	230	101300000	1000	0	0	-1	1000
22688755	5832	2070	0	-100	0	230	101300000	1000	0	0	-1	1000
22701315	5836	2069	0	-100	0	230	101300000	1000	0	0	-1	1000
22713875	5840	2073	0	-100	0	230	101300000	1000	0	0	-1	1000
22726435	5842	2070	0	-100	0	230	101300000	1000	0	0	-1	1000
22738995	5844	2070	0	-100	0	230	101300000	1000	0	0	-1	1000
22751555	5827	2079	0	-100	0	230	101300000	1000	0	0	-1	1000
22764115	5845	2085	0	-100	0	230	101300000	1000	0	0	-1	1000
22776675	5842	2067	0	-100	0	230	101300000	1000	0	0	-1	1000
22789235	5845	2068	0	-100	0	230	101300000	1000	0	0	-1	1000
22801795	5846	2078	0	-100	0	230	101300000	1000	0	0	-1	1000
22814355	5847	2063	0	-100	0	230	101300000	1000	0	0	-1	1000
22826915	5839	2065	0	-100	0	230	101300000	1000	0	0	-1	1000
22839475	5839	2083	0	-100	0	230	101300000	1000	0	0	-1	1000
22852035	5847	2076	0	-100	0	230	101300000	1000	0	0	-1	1000
22864595	5835	2067	0	-100	0	230	101300000	1000	0	0	-1	1000
22877155	5844	2065	0	-100	0	230	101300000	1000	0	0	-1	1000
22889715	5846	2077	0	-100	0	230	101300000	1000	0	0	-1	1000
22902275	5844	2066	0	-100	0	230	101300000	1000	0	0	-1	1000
22914835	5834	2075	0	-100	0	230	101300000	1000	0	0	-1	1000
22927395	5850	2075	0	-100	0	230	101300000	1000	0	0	-1	1000
22939955	5846	2068	0	-100	0	230	101300000	1000	0	0	-1	1000
22952515	5834	2070	0	-100	0	230	101300000	1000	0	0	-1	1000
22965075	5840	2075	0	-100	0	230	101300000	1000	0	0	-1	1000
22977635	5837	2072	0	-100	0	230	101300000	1000	0	0	-1	1000
22990195	5827	2075	0	-100	0	230	101300000	1000	0	0	-1	1000
23002755	5850	2077	0	-100	0	230	101300000	1000	0	0	-1	1000
23015315	5841	2072	0	-100	0	230	101300000	1000	0	0	-1	1000
23027875	5839	2071	0	-100	0	230	101300000	1000	0	0	-1	1000
23040435	5844	2078	0	-100	0	230	101300000	1000	0	0	-1	1000
23052995	5842	2073	0	-100	0	230	101300000	1000	0	0	-1	1000
23065555	5855	2073	0	-100	0	230	101300000	1000	0	0	-1	1000
23078115	5839	2081	0	-100	0	230	101300000	1000	0	0	-1	1000
23090675	5842	2067	0	-100	0	230	101300000	1000	0	0	-1	1000
23103235	5864	2077	0	-100	0	230	101300000	1000	0	0	-1	1000
23115795	5844	2079	0	-100	0	230	101300000	1000	0	0	-1	1000
23128355	5853	2063	0	-100	0	230	101300000	1000	0	0	-1	1000
23140915	5840	2074	0	-100	0	230	101300000	1000	0	0	-1	1000
23153475	5849	2072	0	-100	0	230	101300000	1000	0	0	-1	1000
23166035	5833	2070	0	-100	0	230	101300000	1000	0	0	-1	1000
23178595	5838	2069	0	-100	0	230	101300000	1000	0	0	-1	1000
23191155	5846	2061	0	-100	0	230	101300000	1000	0	0	-1	1000
23203715	5848	2070	0	-100	0	230	101300000	1000	0	0	-1	1000
23216275	5837	2076	0	-100	0	230	101300000	1000	0	0	-1	1000
23228835	5828	2073	0	-100	0	230	101300000	1000	0	0	-1	1000
23241395	5846	2080	0	-100	0	230	101300000	1000	0	0	-1	1000
23253955	5836	2076	0	-100	0	230	101300000	1000	0	0	-1	1000
23266515	5837	2075	0	-100	0	230	101300000	1000	0	0	-1	1000
23279075	5851	2061	0	-100	0	230	101300000	1000	0	0	-1	1000
23291635	5837	2071	0	-100	0	230	101300000	1000	0	0	-1	1000
23304195	5848	2074	0	-100	0	230	101300000	1000	0	0	-1	1000
23316755	5848	2074	0	-100	0	230	101300000	1000	0	0	-1	1000
23329315	5826	2079	0	-100	0	230	101300000	1000	0	0	-1	1000
23341875	5827	2072	0	-100	0	230	101300000	1000	0	0	-1	1000
23354435	5848	2074	0	-100	0	230	101300000	1000	0	0	-1	1000
23366995	5842	2073	0	-100	0	230	101300000	1000	0	0	-1	1000
23379555	5837	2066	0	-100	0	230	101300000	1000	0	0	-1	1000
23392115	5843	2074	0	-100	0	230	101300000	1000	0	0	-1	1000
23404675	5847	2069	0	-100	0	230	101300000	1000	0	0	-1	1000
23417235	5846	2074	0	-100	0	230	101300000	1000	0	0	-1	1000
23429795	5838	2070	0	-100	0	230	101300000	1000	0	0	-1	1000
23442355	5841	2072	0	-100	0	230	101300000	1000	0	0	-1	1000
23454915	5841	2070	0	-100	0	230	101300000	1000	0	0	-1	1000
23467475	5844	2076	0	-100	0	230	101300000	1000	0	0	-1	1000
23480035	5828	2074	0	-100	0	230	101300000	1000	0	0	-1	1000
23492595	5847	2075	0	-100	0	230	101300000	1000	0	0	-1	1000
23505155	5852	2080	0	-100	0	230	101300000	1000	0	0	-1	1000
23517715	5843	2074	0	-100	0	230	101300000	1000	0	0	-1	1000
23530275	5839	2074	0	-100	0	230	101300000	1000	0	0	-1	1000
23542835	5845	2075	0	-100	0	230	101300000	1000	0	0	-1	1000
23555395	5846	2069	0	-100	0	230	101300000	1000	0	0	-1	1000
23567955	5835	2073	0	-100	0	230	101300000	1000	0	0	-1	1000
23580515	5845	2070	0	-100	0	230	101300000	1000	0	0	-1	1000
23593075	5825	2075	0	-100	0	230	101300000	1000	0	0	-1	1000
23605635	5840	2070	0	-100	0	230	101300000	1000	0	0	-1	1000
23618195	5839	2071	0	-100	0	230	101300000	1000	0	0	-1	1000
23630755	5829	2075	0	-100	0	230	101300000	1000	0	0	-1	1000
23643315	5852	2073	0	-100	0	230	101300000	1000	0	0	-1	1000
23655875	5838	2069	0	-100	0	230	101300000	1000	0	0	-1	1000
23668435	5851	2073	0	-100	0	230	101300000	1000	0	0	-1	1000
23680995	5833	2078	0	-100	0	230	101300000	1000	0	0	-1	1000
23693555	5838	2079	0	-100	0	230	101300000	1000	0	0	-1	1000
23706115	5849	2078	0	-100	0	230	101300000	1000	0	0	-1	1000
23718675	5847	2072	0	-100	0	230	101300000	1000	0	0	-1	1000
23731235	5838	2069	0	-100	0	230	101300000	1000	0	0	-1	1000
23743795	5839	2067	0	-100	0	230	101300000	1000	0	0	-1	1000
23756355	5838	2068	0	-100	0	230	101300000	1000	0	0	-1	1000
23768915	5841	2068	0	-100	0	230	101300000	1000	0	0	-1	1000
23781475	5843	2068	0	-100	0	230	101300000	1000	0	0	-1	1000
23794035	5831	2082	0	-100	0	230	101300000	1000	0	0	-1	1000
23806595	5839	2068	0	-100	0	230	101300000	1000	0	0	-1	1000
23819155	5840	2067	0	-100	0	230	101300000	1000	0	0	-1	1000
23831715	5848	2072	0	-100	0	230	101300000	1000	0	0	-1	1000
23844275	5857	2064	0	-100	0	230	101300000	1000	0	0	-1	1000
23856835	5848	2064	0	-100	0	230	101300000	1000	0	0	-1	1000
23869395	5839	2067	0	-100	0	230	101300000	1000	0	0	-1	1000
23881955	5839	2067	0	-100	0	230	101300000	1000	0	0	-1	1000
23894515	5848	2074	0	-100	0	230	101300000	1000	0	0	-1	1000
23907075	5840	2076	0	-100	0	230	101300000	1000	0	0	-1	1000
23919635	5844	2084	0	-100	0	230	101300000	1000	0	0	-1	1000
23932195	5846	2071	0	-100	0	230	101300000	1000	0	0	-1	1000
23944755	5845	2068	0	-100	0	230	101300000	1000	0	0	-1	1000
23957315	5841	2077	0	-100	0	230	101300000	1000	0	0	-1	1000
23969875	5841	2069	0	-100	0	230	101300000	1000	0	0	-1	1000
23982435	5846	2078	0	-100	0	230	101300000	1000	0	0	-1	1000
23994995	5841	2072	0	-100	0	230	101300000	1000	0	0	-1	1000
24007555	5840	2085	0	-100	0	230	101300000	1000	0	0	-1	1000
24020115	5839	2075	0	-100	0	230	101300000	1000	0	0	-1	1000
24032675	5841	2066	0	-100	0	230	101300000	1000	0	0	-1	1000
24045235	5844	2074	0	-100	0	230	101300000	1000	0	0	-1	1000
24057795	5839	2074	0	-100	0	230	101300000	1000	0	0	-1	1000
24070355	5839	2070	0	-100	0	230	101300000	1000	0	0	-1	1000
24082915	5844	2077	0	-100	0	230	101300000	1000	0	0	-1	1000
24095475	5826	2078	0	-100	0	230	101300000	1000	0	0	-1	1000
24108035	5852	2072	0	-100	0	230	101300000	1000	0	0	-1	1000
24120595	5839	2069	0	-100	0	230	101300000	1000	0	0	-1	1000
24133155	5846	2073	0	-100	0	230	101300000	1000	0	0	-1	1000
24145715	5832	2074	0	-100	0	230	101300000	1000	0	0	-1	1000
24158275	5848	2075	0	-100	0	230	101300000	1000	0	0	-1	1000
24170835	5846	2071	0	-100	0	230	101300000	1000	0	0	-1	1000
24183395	5858	2073	0	-100	0	230	101300000	1000	0	0	-1	1000
24195955	5837	2070	0	-100	0	230	101300000	1000	0	0	-1	1000
24208515	5840	2066	0	-100	0	230	101300000	1000	0	0	-1	1000
24221075	5830	2067	0	-100	0	230	101300000	1000	0	0	-1	1000
24233635	5831	2066	0	-100	0	230	101300000	1000	0	0	-1	1000
24246195	5838	2078	0	-100	0	230	101300000	1000	0	0	-1	1000
24258755	5850	2077	0	-100	0	230	101300000	1000	0	0	-1	1000
24271315	5839	2073	0	-100	0	230	101300000	1000	0	0	-1	1000
24283875	5833	2069	0	-100	0	230	101300000	1000	0	0	-1	1000
24296435	5845	2069	0	-100	0	230	101300000	1000	0	0	-1	1000
24308995	5843	2075	0	-100	0	230	101300000	1000	0	0	-1	1000
24321555	5835	2065	0	-100	0	230	101300000	1000	0	0	-1	1000
24334115	5831	2072	0	-100	0	230	101300000	1000	0	0	-1	1000
24346675	5826	2081	0	-100	0	230	101300000	1000	0	0	-1	1000
24359235	5829	2059	0	-100	0	230	101300000	1000	0	0	-1	1000
24371795	5844	2073	0	-100	0	230	101300000	1000	0	0	-1	1000
24384355	5836	2080	0	-100	0	230	101300000	1000	0	0	-1	1000
24396915	5832	2058	0	-100	0	230	101300000	1000	0	0	-1	1000
24409475	5841	2074	0	-100	0	230	101300000	1000	0	0	-1	1000
24422035	5848	2083	0	-100	0	230	101300000	1000	0	0	-1	1000
24434595	5832	2075	0	-100	0	230	101300000	1000	0	0	-1	1000
24447155	5834	2072	0	-100	0	230	101300000	1000	0	0	-1	1000
24459715	5836	2074	0	-100	0	230	101300000	1000	0	0	-1	1000
24472275	5828	2072	0	-100	0	230	101300000	1000	0	0	-1	1000
24484835	5836	2072	0	-100	0	230	101300000	1000	0	0	-1	1000
24497395	5844	2080	0	-100	0	230	101300000	1000	0	0	-1	1000
24509955	5840	2071	0	-100	0	230	101300000	1000	0	0	-1	1000
24522515	5834	2065	0	-100	0	230	101300000	1000	0	0	-1	1000
24535075	5835	2075	0	-100	0	230	101300000	1000	0	0	-1	1000
24547635	5834	2062	0	-100	0	230	101300000	1000	0	0	-1	1000
24560195	5841	2061	0	-100	0	230	101300000	1000	0	0	-1	1000
24572755	5845	2072	0	-100	0	230	101300000	1000	0	0	-1	1000
24585315	5852	2068	0	-100	0	230	101300000	1000	0	0	-1	1000
24597875	5842	2059	0	-100	0	230	101300000	1000	0	0	-1	1000
24610435	5849	2073	0	-100	0	230	101300000	1000	0	0	-1	1000
24622995	5839	2071	0	-100	0	230	101300000	1000	0	0	-1	1000
24635555	5831	2069	0	-100	0	230	101300000	1000	0	0	-1	1000
24648115	5828	2079	0	-100	0	230	101300000	1000	0	0	-1	1000
24660675	5843	2077	0	-100	0	230	101300000	1000	0	0	-1	1000
24673235	5839	2069	0	-100	0	230	101300000	1000	0	0	-1	1000
24685795	5844	2073	0	-100	0	230	101300000	1000	0	0	-1	1000
24698355	5841	2076	0	-100	0	230	101300000	1000	0	0	-1	1000
24710915	5835	2073	0	-100	0	230	101300000	1000	0	0	-1	1000
24723475	5840	2082	0	-100	0	230	101300000	1000	0	0	-1	1000
24736035	5851	2078	0	-100	0	230	101300000	1000	0	0	-1	1000
24748595	5838	2077	0	-100	0	230	101300000	1000	0	0	-1	1000
24761155	5838	2072	0	-100	0	230	101300000	1000	0	0	-1	1000
24773715	5833	2071	0	-100	0	230	101300000	1000	0	0	-1	1000
24786275	5841	2073	0	-100	0	230	101300000	1000	0	0	-1	1000
24798835	5834	2071	0	-100	0	230	101300000	1000	0	0	-1	1000
24811395	5844	2062	0	-100	0	230	101300000	1000	0	0	-1	1000
24823955	5844	2069	0	-100	0	230	101300000	1000	0	0	-1	1000
24836515	5838	2075	0	-100	0	230	101300000	1000	0	0	-1	1000
24849075	5839	2070	0	-100	0	230	101300000	1000	0	0	-1	1000
24861635	5835	2070	0	-100	0	230	101300000	1000	0	0	-1	1000
24874195	5841	2082	0	-100	0	230	101300000	1000	0	0	-1	1000
24886755	5839	2079	0	-100	0	230	101300000	1000	0	0	-1	1000
24899315	5828	2065	0	-100	0	230	101300000	1000	0	0	-1	1000
24911875	5839	2071	0	-100	0	230	101300000	1000	0	0	-1	1000
24924435	5839	2074	0	-100	0	230	101300000	1000	0	0	-1	1000
24936995	5847	2073	0	-100	0	230	101300000	1000	0	0	-1	1000
24949555	5831	2075	0	-100	0	230	101300000	1000	0	0	-1	1000
24962115	5848	2073	0	-100	0	230	101300000	1000	0	0	-1	1000
24974675	5834	2061	0	-100	0	230	101300000	1000	0	0	-1	1000
25012355	5832	2065	0	-100	0	230	101300000	1000	0	0	-1	1000
25024915	5843	2068	0	-100	0	230	101300000	1000	0	0	-1	1000
25037475	5852	2075	0	-100	0	230	101300000	1000	0	0	-1	1000
25050035	5838	2066	0	-100	0	230	101300000	1000	0	0	-1	1000
25062595	5846	2074	0	-100	0	230	101300000	1000	0	0	-1	1000
25075155	5831	2074	0	-100	0	230	101300000	1000	0	0	-1	1000
25087715	5836	2074	0	-100	0	230	101300000	1000	0	0	-1	1000
25100275	5833	2077	0	-100	0	230	101300000	1000	0	0	-1	1000
25112835	5843	2081	0	-100	0	230	101300000	1000	0	0	-1	1000
25125395	5828	2078	0	-100	0	230	101300000	1000	0	0	-1	1000
25137955	5840	2073	0	-100	0	230	101300000	1000	0	0	-1	1000
25150515	5832	2072	0	-100	0	230	101300000	1000	0	0	-1	1000
25163075	5832	2067	0	-100	0	230	101300000	1000	0	0	-1	1000
25175635	5844	2067	0	-100	0	230	101300000	1000	0	0	-1	1000
25188195	5844	2072	0	-100	0	230	101300000	1000	0	0	-1	1000
25200755	5848	2073	0	-100	0	230	101300000	1000	0	0	-1	1000
25213315	5839	2065	0	-100	0	230	101300000	1000	0	0	-1	1000
25225875	5850	2077	0	-100	0	230	101300000	1000	0	0	-1	1000
25238435	5849	2069	0	-100	0	230	101300000	1000	0	0	-1	1000
25250995	5826	2070	0	-100	0	230	101300000	1000	0	0	-1	1000
25263555	5832	2072	0	-100	0	230	101300000	1000	0	0	-1	1000
25276115	5835	2071	0	-100	0	230	101300000	1000	0	0	-1	1000
25288675	5831	2074	0	-100	0	230	101300000	1000	0	0	-1	1000
25301235	5846	2070	0	-100	0	230	101300000	1000	0	0	-1	1000
25313795	5849	2067	0	-100	0	230	101300000	1000	0	0	-1	1000
25326355	5848	2078	0	-100	0	230	101300000	1000	0	0	-1	1000
25338915	5847	2075	0	-100	0	230	101300000	1000	0	0	-1	1000
25351475	5840	2081	0	-100	0	230	101300000	1000	0	0	-1	1000
25364035	5837	2077	0	-100	0	230	101300000	1000	0	0	-1	1000
25376595	5843	2066	0	-100	0	230	101300000	1000	0	0	-1	1000
25389155	5829	2072	0	-100	0	230	101300000	1000	0	0	-1	1000
25401715	5852	2073	0	-100	0	230	101300000	1000	0	0	-1	1000
25414275	5853	2071	0	-100	0	230	101300000	1000	0	0	-1	1000
25426835	5848	2069	0	-100	0	230	101300000	1000	0	0	-1	1000
25439395	5835	2071	0	-100	0	230	101300000	1000	0	0	-1	1000
25451955	5856	2078	0	-100	0	230	101300000	1000	0	0	-1	1000
25464515	5848	2070	0	-100	0	230	101300000	1000	0	0	-1	1000
25477075	5852	2075	0	-100	0	230	101300000	1000	0	0	-1	1000
25489635	5849	2081	0	-100	0	230	101300000	1000	0	0	-1	1000
25502195	5844	2072	0	-100	0	230	101300000	1000	0	0	-1	1000
25514755	5835	2071	0	-100	0	230	101300000	1000	0	0	-1	1000
25527315	5848	2076	0	-100	0	230	101300000	1000	0	0	-1	1000
25539875	5831	2073	0	-100	0	230	101300000	1000	0	0	-1	1000
25552435	5833	2074	0	-100	0	230	101300000	1000	0	0	-1	1000
25564995	5839	2080	0	-100	0	230	101300000	1000	0	0	-1	1000
25577555	5844	2072	0	-100	0	230	101300000	1000	0	0	-1	1000
25590115	5840	2073	0	-100	0	230	101300000	1000	0	0	-1	1000
25602675	5838	2079	0	-100	0	230	101300000	1000	0	0	-1	1000
25615235	5850	2078	0	-100	0	230	101300000	1000	0	0	-1	1000
25627795	5853	2078	0	-100	0	230	101300000	1000	0	0	-1	1000
25640355	5841	2073	0	-100	0	230	101300000	1000	0	0	-1	1000
25652915	5843	2066	0	-100	0	230	101300000	1000	0	0	-1	1000
25665475	5850	2076	0	-100	0	230	101300000	1000	0	0	-1	1000
25678035	5838	2077	0	-100	0	230	101300000	1000	0	0	-1	1000
25690595	5831	2076	0	-100	0	230	101300000	1000	0	0	-1	1000
25703155	5843	2077	0	-100	0	230	101300000	1000	0	0	-1	1000
25715715	5835	2068	0	-100	0	230	101300000	1000	0	0	-1	1000
25728275	5844	2063	0	-100	0	230	101300000	1000	0	0	-1	1000
25740835	5834	2074	0	-100	0	230	101300000	1000	0	0	-1	1000
25753395	5837	2071	0	-100	0	230	101300000	1000	0	0	-1	1000
25765955	5838	2069	0	-100	0	230	101300000	1000	0	0	-1	1000
25778515	5843	2075	0	-100	0	230	101300000	1000	0	0	-1	1000
25791075	5840	2068	0	-100	0	230	101300000	1000	0	0	-1	1000
25803635	5849	2079	0	-100	0	230	101300000	1000	0	0	-1	1000
25816195	5848	2071	0	-100	0	230	101300000	1000	0	0	-1	1000
25828755	5835	2068	0	-100	0	230	101300000	1000	0	0	-1	1000
25841315	5832	2073	0	-100	0	230	101300000	1000	0	0	-1	1000
25853875	5835	2070	0	-100	0	230	101300000	1000	0	0	-1	1000
25866435	5849	2079	0	-100	0	230	101300000	1000	0	0	-1	1000
25878995	5835	2067	0	-100	0	230	101300000	1000	0	0	-1	1000
25891555	5851	2070	0	-100	0	230	101300000	1000	0	0	-1	1000
25904115	5842	2069	0	-100	0	230	101300000	1000	0	0	-1	1000
25916675	5843	2073	0	-100	0	230	101300000	1000	0	0	-1	1000
25929235	5859	2071	0	-100	0	230	101300000	1000	0	0	-1	1000
25941795	5845	2081	0	-100	0	230	101300000	1000	0	0	-1	1000
25954355	5837	2075	0	-100	0	230	101300000	1000	0	0	-1	1000
25966915	5839	2073	0	-100	0	230	101300000	1000	0	0	-1	1000
25979475	5840	2071	0	-100	0	230	101300000	1000	0	0	-1	1000
25992035	5844	2075	0	-100	0	230	101300000	1000	0	0	-1	1000
26004595	5832	2072	0	-100	0	230	101300000	1000	0	0	-1	1000
26017155	5840	2069	0	-100	0	230	101300000	1000	0	0	-1	1000
26029715	5840	2075	0	-100	0	230	101300000	1000	0	0	-1	1000
26042275	5840	2063	0	-100	0	230	101300000	1000	0	0	-1	1000
26054835	5841	2077	0	-100	0	230	101300000	1000	0	0	-1	1000
26067395	5846	2069	0	-100	0	230	101300000	1000	0	0	-1	1000
26079955	5835	2073	0	-100	0	230	101300000	1000	0	0	-1	1000
26092515	5852	2075	0	-100	0	230	101300000	1000	0	0	-1	1000
26105075	5852	2073	0	-100	0	230	101300000	1000	0	0	-1	1000
26117635	5844	2067	0	-100	0	230	101300000	1000	0	0	-1	1000
26130195	5839	2079	0	-100	0	230	101300000	1000	0	0	-1	1000
26142755	5840	2073	0	-100	0	230	101300000	1000	0	0	-1	1000
26155315	5844	2071	0	-100	0	230	101300000	1000	0	0	-1	1000
26167875	5845	2063	0	-100	0	230	101300000	1000	0	0	-1	1000
26180435	5840	2060	0	-100	0	230	101300000	1000	0	0	-1	1000
26192995	5836	2070	0	-100	0	230	101300000	1000	0	0	-1	1000
26205555	5835	2056	0	-100	0	230	101300000	1000	0	0	-1	1000
26218115	5856	2085	0	-100	0	230	101300000	1000	0	0	-1	1000
26230675	5834	2078	0	-100	0	230	101300000	1000	0	0	-1	1000
26243235	5848	2067	0	-100	0	230	101300000	1000	0	0	-1	1000
26255795	5829	2078	0	-100	0	230	101300000	1000	0	0	-1	1000
26268355	5835	2073	0	-100	0	230	101300000	1000	0	0	-1	1000
26280915	5843	2067	0	-100	0	230	101300000	1000	0	0	-1	1000
26293475	5834	2074	0	-100	0	230	101300000	1000	0	0	-1	1000
26306035	5837	2071	0	-100	0	230	101300000	1000	0	0	-1	1000
26318595	5821	2076	0	-100	0	230	101300000	1000	0	0	-1	1000
26331155	5844	2064	0	-100	0	230	101300000	1000	0	0	-1	1000
26343715	5835	2079	0	-100	0	230	101300000	1000	0	0	-1	1000
26356275	5836	2068	0	-100	0	230	101300000	1000	0	0	-1	1000
26368835	5839	2068	0	-100	0	230	101300000	1000	0	0	-1	1000
26381395	5847	2075	0	-100	0	230	101300000	1000	0	0	-1	1000
26393955	5835	2074	0	-100	0	230	101300000	1000	0	0	-1	1000
26406515	5850	2081	0	-100	0	230	101300000	1000	0	0	-1	1000
26419075	5851	2077	0	-100	0	230	101300000	1000	0	0	-1	1000
26431635	5848	2070	0	-100	0	230	101300000	1000	0	0	-1	1000
26444195	5845	2064	0	-100	0	230	101300000	1000	0	0	-1	1000
26456755	5844	2083	0	-100	0	230	101300000	1000	0	0	-1	1000
26469315	5843	2073	0	-100	0	230	101300000	1000	0	0	-1	1000
26481875	5844	2066	0	-100	0	230	101300000	1000	0	0	-1	1000
26494435	5835	2075	0	-100	0	230	101300000	1000	0	0	-1	1000
26506995	5838	2070	0	-100	0	230	101300000	1000	0	0	-1	1000
26519555	5848	2073	0	-100	0	230	101300000	1000	0	0	-1	1000
26532115	5836	2074	0	-100	0	230	101300000	1000	0	0	-1	1000
26544675	5843	2075	0	-100	0	230	101300000	1000	0	0	-1	1000
26557235	5838	2072	0	-100	0	230	101300000	1000	0	0	-1	1000
26569795	5834	2078	0	-100	0	230	101300000	1000	0	0	-1	1000
26582355	5831	2068	0	-100	0	230	101300000	1000	0	0	-1	1000
26594915	5854	2072	0	-100	0	230	101300000	1000	0	0	-1	1000
26607475	5836	2070	0	-100	0	230	101300000	1000	0	0	-1	1000
26620035	5841	2072	0	-100	0	230	101300000	1000	0	0	-1	1000
26632595	5842	2071	0	-100	0	230	101300000	1000	0	0	-1	1000
26645155	5844	2073	0	-100	0	230	101300000	1000	0	0	-1	1000
26657715	5841	2070	0	-100	0	230	101300000	1000	0	0	-1	1000
26670275	5844	2080	0	-100	0	230	101300000	1000	0	0	-1	1000
26682835	5833	2078	0	-100	0	230	101300000	1000	0	0	-1	1000
26695395	5839	2068	0	-100	0	230	101300000	1000	0	0	-1	1000
26707955	5839	2073	0	-100	0	230	101300000	1000	0	0	-1	1000
26720515	5841	2065	0	-100	0	230	101300000	1000	0	0	-1	1000
26733075	5848	2073	0	-100	0	230	101300000	1000	0	0	-1	1000
26745635	5843	2077	0	-100	0	230	101300000	1000	0	0	-1	1000
26758195	5827	2072	0	-100	0	230	101300000	1000	0	0	-1	1000
26770755	5844	2075	0	-100	0	230	101300000	1000	0	0	-1	1000
26783315	5831	2069	0	-100	0	230	101300000	1000	0	0	-1	1000
26795875	5839	2064	0	-100	0	230	101300000	1000	0	0	-1	1000
26808435	5824	2075	0	-100	0	230	101300000	1000	0	0	-1	1000
26820995	5843	2072	0	-100	0	230	101300000	1000	0	0	-1	1000
26833555	5852	2067	0	-100	0	230	101300000	1000	0	0	-1	1000
26846115	5842	2077	0	-100	0	230	101300000	1000	0	0	-1	1000
26858675	5848	2081	0	-100	0	230	101300000	1000	0	0	-1	1000
26871235	5831	2072	0	-100	0	230	101300000	1000	0	0	-1	1000
26883795	5848	2072	0	-100	0	230	101300000	1000	0	0	-1	1000
26896355	5850	2071	0	-100	0	230	101300000	1000	0	0	-1	1000
26908915	5837	2073	0	-100	0	230	101300000	1000	0	0	-1	1000
26921475	5852	2067	0	-100	0	230	101300000	1000	0	0	-1	1000
26934035	5842	2075	0	-100	0	230	101300000	1000	0	0	-1	1000
26946595	5840	2075	0	-100	0	230	101300000	1000	0	0	-1	1000
26959155	5847	2077	0	-100	0	230	101300000	1000	0	0	-1	1000
26971715	5834	2070	0	-100	0	230	101300000	1000	0	0	-1	1000
26984275	5839	2072	0	-100	0	230	101300000	1000	0	0	-1	1000
26996835	5844	2073	0	-100	0	230	101300000	1000	0	0	-1	1000
27009395	5843	2066	0	-100	0	230	101300000	1000	0	0	-1	1000
27021955	5839	2079	0	-100	0	230	101300000	1000	0	0	-1	1000
27034515	5838	2074	0	-100	0	230	101300000	1000	0	0	-1	1000
27047075	5836	2074	0	-100	0	230	101300000	1000	0	0	-1	1000
