timestamp	voltage	current	windSpeed	pitchAngle	rpm	temperature	ambientPressure	humidity	accelerationX	accelerationY	accelerationZ	currentSink
7039070	6016	841	0	-100	0	230	101300000	1000	0	0	-1	0
7046523	6007	858	0	-100	0	230	101300000	1000	0	0	-1	0
7059083	6014	857	0	-100	0	230	101300000	1000	0	0	-1	0
7071643	6012	852	0	-100	0	230	101300000	1000	0	0	-1	0
7084203	6008	848	0	-100	0	230	101300000	1000	0	0	-1	0
7096763	6017	854	0	-100	0	230	101300000	1000	0	0	-1	0
7109323	6011	863	0	-100	0	230	101300000	1000	0	0	-1	0
7121883	6016	858	0	-100	0	230	101300000	1000	0	0	-1	0
7134443	6012	850	0	-100	0	230	101300000	1000	0	0	-1	0
7147004	6013	854	0	-100	0	230	101300000	1000	0	0	-1	0
7159563	6009	862	0	-100	0	230	101300000	1000	0	0	-1	0
7172123	6009	862	0	-100	0	230	101300000	1000	0	0	-1	0
7184683	6014	844	0	-100	0	230	101300000	1000	0	0	-1	0
7197243	6018	876	0	-100	0	230	101300000	1000	0	0	-1	0
7209803	6008	876	0	-100	0	230	101300000	1000	0	0	-1	0
7222363	6010	851	0	-100	0	230	101300000	1000	0	0	-1	0
7234923	6021	862	0	-100	0	230	101300000	1000	0	0	-1	0
7247483	6006	859	0	-100	0	230	101300000	1000	0	0	-1	0
7260043	6015	865	0	-100	0	230	101300000	1000	0	0	-1	0
7272603	6008	873	0	-100	0	230	101300000	1000	0	0	-1	0
7285163	6016	861	0	-100	0	230	101300000	1000	0	0	-1	0
7297723	6013	848	0	-100	0	230	101300000	1000	0	0	-1	0
7310283	6013	863	0	-100	0	230	101300000	1000	0	0	-1	0
7322843	6009	861	0	-100	0	230	101300000	1000	0	0	-1	0
7335403	6005	862	0	-100	0	230	101300000	1000	0	0	-1	0
7347963	6008	863	0	-100	0	230	101300000	1000	0	0	-1	0
7681115	5969	1002	0	-100	0	230	101300000	1000	0	0	-1	100
7693675	5978	996	0	-100	0	230	101300000	1000	0	0	-1	100
7706235	5972	1016	0	-100	0	230	101300000	1000	0	0	-1	100
7718795	5973	996	0	-100	0	230	101300000	1000	0	0	-1	100
7731355	5978	992	0	-100	0	230	101300000	1000	0	0	-1	100
7743915	5970	1031	0	-100	0	230	101300000	1000	0	0	-1	100
7756475	5970	978	0	-100	0	230	101300000	1000	0	0	-1	100
7769035	5974	982	0	-100	0	230	101300000	1000	0	0	-1	100
7781595	5970	1012	0	-100	0	230	101300000	1000	0	0	-1	100
7794155	5979	1025	0	-100	0	230	101300000	1000	0	0	-1	100
7806715	5976	1009	0	-100	0	230	101300000	1000	0	0	-1	100
7819275	5970	1013	0	-100	0	230	101300000	1000	0	0	-1	100
7831835	5980	999	0	-100	0	230	101300000	1000	0	0	-1	100
7844395	5968	996	0	-100	0	230	101300000	1000	0	0	-1	100
7856955	5973	1008	0	-100	0	230	101300000	1000	0	0	-1	100
7869515	5979	993	0	-100	0	230	101300000	1000	0	0	-1	100
7882075	5972	984	0	-100	0	230	101300000	1000	0	0	-1	100
7894635	5970	1005	0	-100	0	230	101300000	1000	0	0	-1	100
7907195	5970	994	0	-100	0	230	101300000	1000	0	0	-1	100
7919755	5978	979	0	-100	0	230	101300000	1000	0	0	-1	100
7932315	5969	990	0	-100	0	230	101300000	1000	0	0	-1	100
7944875	5972	1009	0	-100	0	230	101300000	1000	0	0	-1	100
7957435	5965	986	0	-100	0	230	101300000	1000	0	0	-1	100
7969995	5967	1013	0	-100	0	230	101300000	1000	0	0	-1	100
7982555	5979	1008	0	-100	0	230	101300000	1000	0	0	-1	100
7995115	5971	997	0	-100	0	230	101300000	1000	0	0	-1	100
8007675	5972	1007	0	-100	0	230	101300000	1000	0	0	-1	100
8020235	5975	995	0	-100	0	230	101300000	1000	0	0	-1	100
8032795	5970	1014	0	-100	0	230	101300000	1000	0	0	-1	100
8045355	5972	1001	0	-100	0	230	101300000	1000	0	0	-1	100
8057915	5978	997	0	-100	0	230	101300000	1000	0	0	-1	100
8070475	5973	993	0	-100	0	230	101300000	1000	0	0	-1	100
8083035	5976	1000	0	-100	0	230	101300000	1000	0	0	-1	100
8095595	5973	978	0	-100	0	230	101300000	1000	0	0	-1	100
8108155	5986	1007	0	-100	0	230	101300000	1000	0	0	-1	100
8120715	5974	983	0	-100	0	230	101300000	1000	0	0	-1	100
8133275	5970	985	0	-100	0	230	101300000	1000	0	0	-1	100
8145835	5969	998	0	-100	0	230	101300000	1000	0	0	-1	100
8158395	5976	998	0	-100	0	230	101300000	1000	0	0	-1	100
8170955	5978	1006	0	-100	0	230	101300000	1000	0	0	-1	100
8183515	5972	988	0	-100	0	230	101300000	1000	0	0	-1	100
8196075	5974	1004	0	-100	0	230	101300000	1000	0	0	-1	100
8208635	5969	986	0	-100	0	230	101300000	1000	0	0	-1	100
8221195	5975	1004	0	-100	0	230	101300000	1000	0	0	-1	100
8233755	5979	1018	0	-100	0	230	101300000	1000	0	0	-1	100
8246315	5968	1008	0	-100	0	230	101300000	1000	0	0	-1	100
8258875	5967	985	0	-100	0	230	101300000	1000	0	0	-1	100
8271435	5974	1004	0	-100	0	230	101300000	1000	0	0	-1	100
8283995	5978	1010	0	-100	0	230	101300000	1000	0	0	-1	100
8296555	5970	1012	0	-100	0	230	101300000	1000	0	0	-1	100
8309115	5966	986	0	-100	0	230	101300000	1000	0	0	-1	100
8321675	5975	1012	0	-100	0	230	101300000	1000	0	0	-1	100
8334235	5982	995	0	-100	0	230	101300000	1000	0	0	-1	100
8346795	5966	990	0	-100	0	230	101300000	1000	0	0	-1	100
8359355	5967	993	0	-100	0	230	101300000	1000	0	0	-1	100
8371915	5974	1010	0	-100	0	230	101300000	1000	0	0	-1	100
8384475	5973	991	0	-100	0	230	101300000	1000	0	0	-1	100
8397035	5972	984	0	-100	0	230	101300000	1000	0	0	-1	100
8409595	5977	993	0	-100	0	230	101300000	1000	0	0	-1	100
8422155	5977	1006	0	-100	0	230	101300000	1000	0	0	-1	100
8434715	5970	1009	0	-100	0	230	101300000	1000	0	0	-1	100
8447275	5973	998	0	-100	0	230	101300000	1000	0	0	-1	100
8459835	5966	979	0	-100	0	230	101300000	1000	0	0	-1	100
8472395	5976	990	0	-100	0	230	101300000	1000	0	0	-1	100
8484955	5970	1020	0	-100	0	230	101300000	1000	0	0	-1	100
8497515	5973	991	0	-100	0	230	101300000	1000	0	0	-1	100
8510075	5979	989	0	-100	0	230	101300000	1000	0	0	-1	100
8522635	5971	1001	0	-100	0	230	101300000	1000	0	0	-1	100
8535195	5973	999	0	-100	0	230	101300000	1000	0	0	-1	100
8547755	5974	1004	0	-100	0	230	101300000	1000	0	0	-1	100
8560315	5966	990	0	-100	0	230	101300000	1000	0	0	-1	100
8572875	5978	999	0	-100	0	230	101300000	1000	0	0	-1	100
8585435	5973	1010	0	-100	0	230	101300000	1000	0	0	-1	100
8597995	5972	1011	0	-100	0	230	101300000	1000	0	0	-1	100
8610555	5968	995	0	-100	0	230	101300000	1000	0	0	-1	100
8623115	5975	1002	0	-100	0	230	101300000	1000	0	0	-1	100
8635675	5976	1002	0	-100	0	230	101300000	1000	0	0	-1	100
8648235	5972	1014	0	-100	0	230	101300000	1000	0	0	-1	100
8660795	5970	989	0	-100	0	230	101300000	1000	0	0	-1	100
8673355	5976	979	0	-100	0	230	101300000	1000	0	0	-1	100
8685915	5974	1001	0	-100	0	230	101300000	1000	0	0	-1	100
8698475	5972	1016	0	-100	0	230	101300000	1000	0	0	-1	100
8711035	5970	985	0	-100	0	230	101300000	1000	0	0	-1	100
8723595	5976	1006	0	-100	0	230	101300000	1000	0	0	-1	100
8736155	5975	994	0	-100	0	230	101300000	1000	0	0	-1	100
8748715	5969	992	0	-100	0	230	101300000	1000	0	0	-1	100
8761275	5978	989	0	-100	0	230	101300000	1000	0	0	-1	100
8773835	5974	1002	0	-100	0	230	101300000	1000	0	0	-1	100
8786395	5969	984	0	-100	0	230	101300000	1000	0	0	-1	100
8798955	5974	1018	0	-100	0	230	101300000	1000	0	0	-1	100
8811515	5973	985	0	-100	0	230	101300000	1000	0	0	-1	100
8824075	5966	1013	0	-100	0	230	101300000	1000	0	0	-1	100
8836635	5967	1011	0	-100	0	230	101300000	1000	0	0	-1	100
8849195	5974	1010	0	-100	0	230	101300000	1000	0	0	-1	100
8861755	5972	982	0	-100	0	230	101300000	1000	0	0	-1	100
8874315	5982	1013	0	-100	0	230	101300000	1000	0	0	-1	100
8886875	5976	999	0	-100	0	230	101300000	1000	0	0	-1	100
8899435	5976	993	0	-100	0	230	101300000	1000	0	0	-1	100
8911995	5974	984	0	-100	0	230	101300000	1000	0	0	-1	100
8924555	5974	1003	0	-100	0	230	101300000	1000	0	0	-1	100
8937115	5970	1025	0	-100	0	230	101300000	1000	0	0	-1	100
8949675	5971	998	0	-100	0	230	101300000	1000	0	0	-1	100
8962235	5972	998	0	-100	0	230	101300000	1000	0	0	-1	100
8974795	5968	1000	0	-100	0	230	101300000	1000	0	0	-1	100
8987355	5972	1001	0	-100	0	230	101300000	1000	0	0	-1	100
8999915	5971	989	0	-100	0	230	101300000	1000	0	0	-1	100
9012475	5966	1004	0	-100	0	230	101300000	1000	0	0	-1	100
9025035	5967	982	0	-100	0	230	101300000	1000	0	0	-1	100
9037595	5973	1008	0	-100	0	230	101300000	1000	0	0	-1	100
9050155	5983	1007	0	-100	0	230	101300000	1000	0	0	-1	100
9062715	5970	1005	0	-100	0	230	101300000	1000	0	0	-1	100
9075275	5970	999	0	-100	0	230	101300000	1000	0	0	-1	100
9087835	5974	974	0	-100	0	230	101300000	1000	0	0	-1	100
9100395	5969	985	0	-100	0	230	101300000	1000	0	0	-1	100
9112955	5976	970	0	-100	0	230	101300000	1000	0	0	-1	100
9125515	5977	1006	0	-100	0	230	101300000	1000	0	0	-1	100
9138075	5976	1000	0	-100	0	230	101300000	1000	0	0	-1	100
9150635	5976	1011	0	-100	0	230	101300000	1000	0	0	-1	100
9163195	5972	1008	0	-100	0	230	101300000	1000	0	0	-1	100
9175755	5971	1010	0	-100	0	230	101300000	1000	0	0	-1	100
9188315	5967	999	0	-100	0	230	101300000	1000	0	0	-1	100
9200875	5972	990	0	-100	0	230	101300000	1000	0	0	-1	100
9213435	5972	1001	0	-100	0	230	101300000	1000	0	0	-1	100
9225995	5970	1016	0	-100	0	230	101300000	1000	0	0	-1	100
9238555	5973	994	0	-100	0	230	101300000	1000	0	0	-1	100
9251115	5976	999	0	-100	0	230	101300000	1000	0	0	-1	100
9263675	5972	1015	0	-100	0	230	101300000	1000	0	0	-1	100
9276235	5972	1019	0	-100	0	230	101300000	1000	0	0	-1	100
9288795	5970	994	0	-100	0	230	101300000	1000	0	0	-1	100
9301355	5978	980	0	-100	0	230	101300000	1000	0	0	-1	100
9313915	5976	1001	0	-100	0	230	101300000	1000	0	0	-1	100
9326475	5970	1004	0	-100	0	230	101300000	1000	0	0	-1	100
9339035	5970	1011	0	-100	0	230	101300000	1000	0	0	-1	100
9351595	5972	1004	0	-100	0	230	101300000	1000	0	0	-1	100
9364155	5983	1011	0	-100	0	230	101300000	1000	0	0	-1	100
9376715	5973	1008	0	-100	0	230	101300000	1000	0	0	-1	100
9389275	5970	997	0	-100	0	230	101300000	1000	0	0	-1	100
9401835	5966	998	0	-100	0	230	101300000	1000	0	0	-1	100
9414395	5978	991	0	-100	0	230	101300000	1000	0	0	-1	100
9426955	5972	980	0	-100	0	230	101300000	1000	0	0	-1	100
9439515	5974	995	0	-100	0	230	101300000	1000	0	0	-1	100
9452075	5973	1001	0	-100	0	230	101300000	1000	0	0	-1	100
9464635	5978	1002	0	-100	0	230	101300000	1000	0	0	-1	100
9477195	5979	995	0	-100	0	230	101300000	1000	0	0	-1	100
9489755	5971	980	0	-100	0	230	101300000	1000	0	0	-1	100
9502315	5970	997	0	-100	0	230	101300000	1000	0	0	-1	100
9514875	5969	998	0	-100	0	230	101300000	1000	0	0	-1	100
9527435	5967	995	0	-100	0	230	101300000	1000	0	0	-1	100
9539995	5973	1001	0	-100	0	230	101300000	1000	0	0	-1	100
9552555	5979	1013	0	-100	0	230	101300000	1000	0	0	-1	100
9565115	5982	993	0	-100	0	230	101300000	1000	0	0	-1	100
9577675	5969	1002	0	-100	0	230	101300000	1000	0	0	-1	100
9590235	5975	985	0	-100	0	230	101300000	1000	0	0	-1	100
9602795	5970	992	0	-100	0	230	101300000	1000	0	0	-1	100
9615355	5968	995	0	-100	0	230	101300000	1000	0	0	-1	100
9627915	5974	1003	0	-100	0	230	101300000	1000	0	0	-1	100
9640475	5974	1002	0	-100	0	230	101300000	1000	0	0	-1	100
9653035	5976	1000	0	-100	0	230	101300000	1000	0	0	-1	100
9665595	5970	1005	0	-100	0	230	101300000	1000	0	0	-1	100
9678155	5977	1001	0	-100	0	230	101300000	1000	0	0	-1	100
9690715	5970	998	0	-100	0	230	101300000	1000	0	0	-1	100
9703275	5973	1007	0	-100	0	230	101300000	1000	0	0	-1	100
9715835	5969	1007	0	-100	0	230	101300000	1000	0	0	-1	100
9728395	5971	1005	0	-100	0	230	101300000	1000	0	0	-1	100
9740955	5975	983	0	-100	0	230	101300000	1000	0	0	-1	100
9753515	5979	1014	0	-100	0	230	101300000	1000	0	0	-1	100
9766075	5976	999	0	-100	0	230	101300000	1000	0	0	-1	100
9778635	5974	1021	0	-100	0	230	101300000	1000	0	0	-1	100
9791195	5970	983	0	-100	0	230	101300000	1000	0	0	-1	100
9803755	5970	997	0	-100	0	230	101300000	1000	0	0	-1	100
9816315	5978	1001	0	-100	0	230	101300000	1000	0	0	-1	100
9828875	5974	997	0	-100	0	230	101300000	1000	0	0	-1	100
9841435	5973	995	0	-100	0	230	101300000	1000	0	0	-1	100
9853995	5966	1002	0	-100	0	230	101300000	1000	0	0	-1	100
9866555	5970	986	0	-100	0	230	101300000	1000	0	0	-1	100
9879115	5968	1009	0	-100	0	230	101300000	1000	0	0	-1	100
9891675	5971	1016	0	-100	0	230	101300000	1000	0	0	-1	100
9904235	5976	986	0	-100	0	230	101300000	1000	0	0	-1	100
9916795	5974	1005	0	-100	0	230	101300000	1000	0	0	-1	100
9929355	5969	1014	0	-100	0	230	101300000	1000	0	0	-1	100
9941915	5974	995	0	-100	0	230	101300000	1000	0	0	-1	100
9954475	5974	991	0	-100	0	230	101300000	1000	0	0	-1	100
9967035	5979	994	0	-100	0	230	101300000	1000	0	0	-1	100
9979595	5976	996	0	-100	0	230	101300000	1000	0	0	-1	100
9992155	5980	1004	0	-100	0	230	101300000	1000	0	0	-1	100
10004715	5972	980	0	-100	0	230	101300000	1000	0	0	-1	100
10017275	5972	1010	0	-100	0	230	101300000	1000	0	0	-1	100
10029835	5980	1003	0	-100	0	230	101300000	1000	0	0	-1	100
10042395	5978	1005	0	-100	0	230	101300000	1000	0	0	-1	100
10054955	5978	992	0	-100	0	230	101300000	1000	0	0	-1	100
10067515	5972	1005	0	-100	0	230	101300000	1000	0	0	-1	100
10080075	5970	995	0	-100	0	230	101300000	1000	0	0	-1	100
10092635	5965	993	0	-100	0	230	101300000	1000	0	0	-1	100
10105195	5974	1005	0	-100	0	230	101300000	1000	0	0	-1	100
10117755	5972	979	0	-100	0	230	101300000	1000	0	0	-1	100
10130315	5979	988	0	-100	0	230	101300000	1000	0	0	-1	100
10142875	5970	999	0	-100	0	230	101300000	1000	0	0	-1	100
10155435	5971	998	0	-100	0	230	101300000	1000	0	0	-1	100
10167995	5973	999	0	-100	0	230	101300000	1000	0	0	-1	100
10180555	5970	998	0	-100	0	230	101300000	1000	0	0	-1	100
10193115	5979	1000	0	-100	0	230	101300000	1000	0	0	-1	100
10268475	5972	1002	0	-100	0	230	101300000	1000	0	0	-1	100
10281035	5971	987	0	-100	0	230	101300000	1000	0	0	-1	100
10293595	5971	999	0	-100	0	230	101300000	1000	0	0	-1	100
10306155	5979	1006	0	-100	0	230	101300000	1000	0	0	-1	100
10318715	5979	990	0	-100	0	230	101300000	1000	0	0	-1	100
10331275	5972	1005	0	-100	0	230	101300000	1000	0	0	-1	100
10343835	5972	996	0	-100	0	230	101300000	1000	0	0	-1	100
10356395	5974	989	0	-100	0	230	101300000	1000	0	0	-1	100
10368955	5978	1007	0	-100	0	230	101300000	1000	0	0	-1	100
10381515	5972	1001	0	-100	0	230	101300000	1000	0	0	-1	100
10394075	5970	1006	0	-100	0	230	101300000	1000	0	0	-1	100
10406635	5971	983	0	-100	0	230	101300000	1000	0	0	-1	100
10469435	5970	994	0	-100	0	230	101300000	1000	0	0	-1	100
10481995	5972	994	0	-100	0	230	101300000	1000	0	0	-1	100
10494555	5979	988	0	-100	0	230	101300000	1000	0	0	-1	100
10507115	5966	1006	0	-100	0	230	101300000	1000	0	0	-1	100
10519675	5970	992	0	-100	0	230	101300000	1000	0	0	-1	100
10532235	5979	992	0	-100	0	230	101300000	1000	0	0	-1	100
10544795	5972	1009	0	-100	0	230	101300000	1000	0	0	-1	100
10557355	5969	998	0	-100	0	230	101300000	1000	0	0	-1	100
10569915	5975	999	0	-100	0	230	101300000	1000	0	0	-1	100
10582475	5979	992	0	-100	0	230	101300000	1000	0	0	-1	100
10595035	5972	991	0	-100	0	230	101300000	1000	0	0	-1	100
10607595	5969	991	0	-100	0	230	101300000	1000	0	0	-1	100
10620155	5983	1003	0	-100	0	230	101300000	1000	0	0	-1	100
10632715	5976	985	0	-100	0	230	101300000	1000	0	0	-1	100
10645275	5970	1003	0	-100	0	230	101300000	1000	0	0	-1	100
10657835	5976	1011	0	-100	0	230	101300000	1000	0	0	-1	100
10670395	5969	1002	0	-100	0	230	101300000	1000	0	0	-1	100
10682955	5976	992	0	-100	0	230	101300000	1000	0	0	-1	100
10695515	5970	994	0	-100	0	230	101300000	1000	0	0	-1	100
10708075	5970	998	0	-100	0	230	101300000	1000	0	0	-1	100
10720635	5975	1004	0	-100	0	230	101300000	1000	0	0	-1	100
10733195	5970	994	0	-100	0	230	101300000	1000	0	0	-1	100
10745755	5973	993	0	-100	0	230	101300000	1000	0	0	-1	100
10758315	5970	1003	0	-100	0	230	101300000	1000	0	0	-1	100
10770875	5976	990	0	-100	0	230	101300000	1000	0	0	-1	100
10783435	5974	1007	0	-100	0	230	101300000	1000	0	0	-1	100
10795995	5970	991	0	-100	0	230	101300000	1000	0	0	-1	100
10808555	5975	1005	0	-100	0	230	101300000	1000	0	0	-1	100
10821115	5976	988	0	-100	0	230	101300000	1000	0	0	-1	100
10833675	5972	1006	0	-100	0	230	101300000	1000	0	0	-1	100
10846235	5975	989	0	-100	0	230	101300000	1000	0	0	-1	100
10858795	5982	1000	0	-100	0	230	101300000	1000	0	0	-1	100
10871355	5970	991	0	-100	0	230	101300000	1000	0	0	-1	100
10883915	5973	995	0	-100	0	230	101300000	1000	0	0	-1	100
10896475	5978	1019	0	-100	0	230	101300000	1000	0	0	-1	100
10909035	5973	1004	0	-100	0	230	101300000	1000	0	0	-1	100
10921595	5975	974	0	-100	0	230	101300000	1000	0	0	-1	100
10934155	5980	993	0	-100	0	230	101300000	1000	0	0	-1	100
10946715	5972	995	0	-100	0	230	101300000	1000	0	0	-1	100
10959275	5974	1005	0	-100	0	230	101300000	1000	0	0	-1	100
10971835	5973	983	0	-100	0	230	101300000	1000	0	0	-1	100
10984395	5970	993	0	-100	0	230	101300000	1000	0	0	-1	100
10996955	5974	1002	0	-100	0	230	101300000	1000	0	0	-1	100
11009515	5974	992	0	-100	0	230	101300000	1000	0	0	-1	100
11022075	5972	999	0	-100	0	230	101300000	1000	0	0	-1	100
11034635	5967	986	0	-100	0	230	101300000	1000	0	0	-1	100
11047195	5977	990	0	-100	0	230	101300000	1000	0	0	-1	100
11059755	5971	1000	0	-100	0	230	101300000	1000	0	0	-1	100
11072315	5976	1003	0	-100	0	230	101300000	1000	0	0	-1	100
11084875	5972	996	0	-100	0	230	101300000	1000	0	0	-1	100
11097435	5970	1002	0	-100	0	230	101300000	1000	0	0	-1	100
11109995	5968	1004	0	-100	0	230	101300000	1000	0	0	-1	100
11122555	5974	996	0	-100	0	230	101300000	1000	0	0	-1	100
11135115	5969	991	0	-100	0	230	101300000	1000	0	0	-1	100
11147675	5969	1014	0	-100	0	230	101300000	1000	0	0	-1	100
11160235	5979	995	0	-100	0	230	101300000	1000	0	0	-1	100
11172795	5970	1009	0	-100	0	230	101300000	1000	0	0	-1	100
11185355	5974	988	0	-100	0	230	101300000	1000	0	0	-1	100
11197915	5979	1015	0	-100	0	230	101300000	1000	0	0	-1	100
11210475	5974	1001	0	-100	0	230	101300000	1000	0	0	-1	100
11223035	5977	1001	0	-100	0	230	101300000	1000	0	0	-1	100
11235595	5973	1004	0	-100	0	230	101300000	1000	0	0	-1	100
11248155	5982	984	0	-100	0	230	101300000	1000	0	0	-1	100
11260715	5971	1006	0	-100	0	230	101300000	1000	0	0	-1	100
11273275	5974	991	0	-100	0	230	101300000	1000	0	0	-1	100
11285835	5970	1000	0	-100	0	230	101300000	1000	0	0	-1	100
11298395	5970	1006	0	-100	0	230	101300000	1000	0	0	-1	100
11310955	5974	1009	0	-100	0	230	101300000	1000	0	0	-1	100
11323515	5973	1000	0	-100	0	230	101300000	1000	0	0	-1	100
11336075	5980	990	0	-100	0	230	101300000	1000	0	0	-1	100
11348635	5972	994	0	-100	0	230	101300000	1000	0	0	-1	100
11361195	5975	988	0	-100	0	230	101300000	1000	0	0	-1	100
11373755	5972	1016	0	-100	0	230	101300000	1000	0	0	-1	100
11386315	5976	992	0	-100	0	230	101300000	1000	0	0	-1	100
11398875	5968	989	0	-100	0	230	101300000	1000	0	0	-1	100
11411435	5978	995	0	-100	0	230	101300000	1000	0	0	-1	100
11423995	5970	1004	0	-100	0	230	101300000	1000	0	0	-1	100
11436555	5975	992	0	-100	0	230	101300000	1000	0	0	-1	100
11449115	5970	1008	0	-100	0	230	101300000	1000	0	0	-1	100
11461675	5974	1015	0	-100	0	230	101300000	1000	0	0	-1	100
11474235	5971	993	0	-100	0	230	101300000	1000	0	0	-1	100
11486795	5970	1011	0	-100	0	230	101300000	1000	0	0	-1	100
11499355	5978	991	0	-100	0	230	101300000	1000	0	0	-1	100
11511915	5970	988	0	-100	0	230	101300000	1000	0	0	-1	100
11524475	5972	1001	0	-100	0	230	101300000	1000	0	0	-1	100
11537035	5974	1006	0	-100	0	230	101300000	1000	0	0	-1	100
11549595	5972	983	0	-100	0	230	101300000	1000	0	0	-1	100
11562155	5980	987	0	-100	0	230	101300000	1000	0	0	-1	100
11574715	5974	995	0	-100	0	230	101300000	1000	0	0	-1	100
11587275	5981	998	0	-100	0	230	101300000	1000	0	0	-1	100
11599835	5970	1004	0	-100	0	230	101300000	1000	0	0	-1	100
11612395	5974	985	0	-100	0	230	101300000	1000	0	0	-1	100
11624955	5973	1003	0	-100	0	230	101300000	1000	0	0	-1	100
11637515	5970	993	0	-100	0	230	101300000	1000	0	0	-1	100
11650075	5976	1007	0	-100	0	230	101300000	1000	0	0	-1	100
11662635	5973	998	0	-100	0	230	101300000	1000	0	0	-1	100
11675195	5978	994	0	-100	0	230	101300000	1000	0	0	-1	100
11687755	5970	997	0	-100	0	230	101300000	1000	0	0	-1	100
11700315	5971	996	0	-100	0	230	101300000	1000	0	0	-1	100
11712875	5973	1007	0	-100	0	230	101300000	1000	0	0	-1	100
11725435	5970	995	0	-100	0	230	101300000	1000	0	0	-1	100
11737995	5980	986	0	-100	0	230	101300000	1000	0	0	-1	100
11750555	5973	1017	0	-100	0	230	101300000	1000	0	0	-1	100
11763115	5970	1002	0	-100	0	230	101300000	1000	0	0	-1	100
11775675	5976	998	0	-100	0	230	101300000	1000	0	0	-1	100
11788235	5966	1004	0	-100	0	230	101300000	1000	0	0	-1	100
11800795	5974	1009	0	-100	0	230	101300000	1000	0	0	-1	100
11813355	5979	999	0	-100	0	230	101300000	1000	0	0	-1	100
11825915	5970	988	0	-100	0	230	101300000	1000	0	0	-1	100
11838475	5971	1009	0	-100	0	230	101300000	1000	0	0	-1	100
11851035	5974	995	0	-100	0	230	101300000	1000	0	0	-1	100
11863595	5974	999	0	-100	0	230	101300000	1000	0	0	-1	100
11876155	5984	995	0	-100	0	230	101300000	1000	0	0	-1	100
11888715	5971	1000	0	-100	0	230	101300000	1000	0	0	-1	100
11901275	5974	987	0	-100	0	230	101300000	1000	0	0	-1	100
11913835	5971	1009	0	-100	0	230	101300000	1000	0	0	-1	100
11926395	5972	999	0	-100	0	230	101300000	1000	0	0	-1	100
11938955	5976	1009	0	-100	0	230	101300000	1000	0	0	-1	100
11951515	5968	993	0	-100	0	230	101300000	1000	0	0	-1	100
11964075	5979	1008	0	-100	0	230	101300000	1000	0	0	-1	100
11976635	5966	998	0	-100	0	230	101300000	1000	0	0	-1	100
11989195	5979	992	0	-100	0	230	101300000	1000	0	0	-1	100
12001755	5970	984	0	-100	0	230	101300000	1000	0	0	-1	100
12014315	5971	1001	0	-100	0	230	101300000	1000	0	0	-1	100
12026875	5970	1007	0	-100	0	230	101300000	1000	0	0	-1	100
12039435	5972	1012	0	-100	0	230	101300000	1000	0	0	-1	100
12051995	5975	1001	0	-100	0	230	101300000	1000	0	0	-1	100
12064555	5971	998	0	-100	0	230	101300000	1000	0	0	-1	100
12077115	5977	997	0	-100	0	230	101300000	1000	0	0	-1	100
12089675	5974	1004	0	-100	0	230	101300000	1000	0	0	-1	100
12102235	5977	998	0	-100	0	230	101300000	1000	0	0	-1	100
12114795	5972	998	0	-100	0	230	101300000	1000	0	0	-1	100
12127355	5971	999	0	-100	0	230	101300000	1000	0	0	-1	100
12139915	5973	1003	0	-100	0	230	101300000	1000	0	0	-1	100
12152475	5967	1001	0	-100	0	230	101300000	1000	0	0	-1	100
12165035	5975	1007	0	-100	0	230	101300000	1000	0	0	-1	100
12177595	5973	1006	0	-100	0	230	101300000	1000	0	0	-1	100
12190155	5981	994	0	-100	0	230	101300000	1000	0	0	-1	100
12202715	5969	1008	0	-100	0	230	101300000	1000	0	0	-1	100
12215275	5975	1000	0	-100	0	230	101300000	1000	0	0	-1	100
12227835	5969	1011	0	-100	0	230	101300000	1000	0	0	-1	100
12240395	5974	996	0	-100	0	230	101300000	1000	0	0	-1	100
12252955	5978	991	0	-100	0	230	101300000	1000	0	0	-1	100
12265515	5969	988	0	-100	0	230	101300000	1000	0	0	-1	100
12278075	5976	994	0	-100	0	230	101300000	1000	0	0	-1	100
12290635	5970	1004	0	-100	0	230	101300000	1000	0	0	-1	100
12303195	5970	1002	0	-100	0	230	101300000	1000	0	0	-1	100
12315755	5975	1008	0	-100	0	230	101300000	1000	0	0	-1	100
12328315	5972	1011	0	-100	0	230	101300000	1000	0	0	-1	100
12340875	5975	986	0	-100	0	230	101300000	1000	0	0	-1	100
12353435	5972	1004	0	-100	0	230	101300000	1000	0	0	-1	100
12365995	5974	980	0	-100	0	230	101300000	1000	0	0	-1	100
12378555	5974	995	0	-100	0	230	101300000	1000	0	0	-1	100
12391115	5968	1002	0	-100	0	230	101300000	1000	0	0	-1	100
12403675	5977	991	0	-100	0	230	101300000	1000	0	0	-1	100
12416235	5969	1003	0	-100	0	230	101300000	1000	0	0	-1	100
12428795	5977	1013	0	-100	0	230	101300000	1000	0	0	-1	100
12441355	5970	990	0	-100	0	230	101300000	1000	0	0	-1	100
12453915	5974	992	0	-100	0	230	101300000	1000	0	0	-1	100
12466475	5973	999	0	-100	0	230	101300000	1000	0	0	-1	100
12479035	5972	1005	0	-100	0	230	101300000	1000	0	0	-1	100
12491595	5972	998	0	-100	0	230	101300000	1000	0	0	-1	100
12504155	5979	990	0	-100	0	230	101300000	1000	0	0	-1	100
12516715	5979	986	0	-100	0	230	101300000	1000	0	0	-1	100
12529275	5970	1004	0	-100	0	230	101300000	1000	0	0	-1	100
12541835	5976	1004	0	-100	0	230	101300000	1000	0	0	-1	100
12554395	5973	995	0	-100	0	230	101300000	1000	0	0	-1	100
12566955	5970	999	0	-100	0	230	101300000	1000	0	0	-1	100
12579515	5973	996	0	-100	0	230	101300000	1000	0	0	-1	100
12592075	5974	992	0	-100	0	230	101300000	1000	0	0	-1	100
12604635	5974	993	0	-100	0	230	101300000	1000	0	0	-1	100
12617195	5972	997	0	-100	0	230	101300000	1000	0	0	-1	100
12629755	5969	1008	0	-100	0	230	101300000	1000	0	0	-1	100
12642315	5972	998	0	-100	0	230	101300000	1000	0	0	-1	100
12654875	5970	986	0	-100	0	230	101300000	1000	0	0	-1	100
12667435	5972	1012	0	-100	0	230	101300000	1000	0	0	-1	100
12679995	5969	996	0	-100	0	230	101300000	1000	0	0	-1	100
12692555	5978	1017	0	-100	0	230	101300000	1000	0	0	-1	100
12705115	5972	996	0	-100	0	230	101300000	1000	0	0	-1	100
12717675	5971	1001	0	-100	0	230	101300000	1000	0	0	-1	100
12730235	5978	1000	0	-100	0	230	101300000	1000	0	0	-1	100
12742795	5973	1013	0	-100	0	230	101300000	1000	0	0	-1	100
12755355	5978	1011	0	-100	0	230	101300000	1000	0	0	-1	100
12767915	5972	997	0	-100	0	230	101300000	1000	0	0	-1	100
12780475	5974	1004	0	-100	0	230	101300000	1000	0	0	-1	100
12793035	5979	1014	0	-100	0	230	101300000	1000	0	0	-1	100
12805595	5974	1015	0	-100	0	230	101300000	1000	0	0	-1	100
12818155	5975	995	0	-100	0	230	101300000	1000	0	0	-1	100
12830715	5978	1001	0	-100	0	230	101300000	1000	0	0	-1	100
12843275	5971	997	0	-100	0	230	101300000	1000	0	0	-1	100
12855835	5975	995	0	-100	0	230	101300000	1000	0	0	-1	100
12868395	5972	1006	0	-100	0	230	101300000	1000	0	0	-1	100
12880955	5971	986	0	-100	0	230	101300000	1000	0	0	-1	100
12893515	5978	998	0	-100	0	230	101300000	1000	0	0	-1	100
12906075	5970	991	0	-100	0	230	101300000	1000	0	0	-1	100
12918635	5978	981	0	-100	0	230	101300000	1000	0	0	-1	100
12931195	5974	1007	0	-100	0	230	101300000	1000	0	0	-1	100
12943755	5967	984	0	-100	0	230	101300000	1000	0	0	-1	100
12956315	5974	1007	0	-100	0	230	101300000	1000	0	0	-1	100
12968875	5969	998	0	-100	0	230	101300000	1000	0	0	-1	100
12981435	5970	997	0	-100	0	230	101300000	1000	0	0	-1	100
12993995	5972	1007	0	-100	0	230	101300000	1000	0	0	-1	100
13006555	5972	997	0	-100	0	230	101300000	1000	0	0	-1	100
13019115	5980	995	0	-100	0	230	101300000	1000	0	0	-1	100
13031675	5972	1007	0	-100	0	230	101300000	1000	0	0	-1	100
13044235	5973	1011	0	-100	0	230	101300000	1000	0	0	-1	100
13056795	5974	1007	0	-100	0	230	101300000	1000	0	0	-1	100
13069355	5974	1014	0	-100	0	230	101300000	1000	0	0	-1	100
13081915	5980	991	0	-100	0	230	101300000	1000	0	0	-1	100
13094475	5974	1007	0	-100	0	230	101300000	1000	0	0	-1	100
13107035	5974	1009	0	-100	0	230	101300000	1000	0	0	-1	100
13119595	5977	997	0	-100	0	230	101300000	1000	0	0	-1	100
13132155	5990	1008	0	-100	0	230	101300000	1000	0	0	-1	100
13144715	5974	1011	0	-100	0	230	101300000	1000	0	0	-1	100
13182395	5974	997	0	-100	0	230	101300000	1000	0	0	-1	100
13194955	5975	979	0	-100	0	230	101300000	1000	0	0	-1	100
13207515	5974	1015	0	-100	0	230	101300000	1000	0	0	-1	100
13220075	5969	993	0	-100	0	230	101300000	1000	0	0	-1	100
13232635	5977	980	0	-100	0	230	101300000	1000	0	0	-1	100
13245195	5978	991	0	-100	0	230	101300000	1000	0	0	-1	100
13257755	5974	1001	0	-100	0	230	101300000	1000	0	0	-1	100
13270315	5974	999	0	-100	0	230	101300000	1000	0	0	-1	100
13282875	5973	991	0	-100	0	230	101300000	1000	0	0	-1	100
13295435	5970	991	0	-100	0	230	101300000	1000	0	0	-1	100
13307995	5978	991	0	-100	0	230	101300000	1000	0	0	-1	100
13320555	5973	1006	0	-100	0	230	101300000	1000	0	0	-1	100
13395915	5966	1010	0	-100	0	230	101300000	1000	0	0	-1	100
13408475	5975	997	0	-100	0	230	101300000	1000	0	0	-1	100
13421035	5979	999	0	-100	0	230	101300000	1000	0	0	-1	100
13433595	5972	1016	0	-100	0	230	101300000	1000	0	0	-1	100
13446155	5983	1000	0	-100	0	230	101300000	1000	0	0	-1	100
13458715	5973	982	0	-100	0	230	101300000	1000	0	0	-1	100
13471275	5965	993	0	-100	0	230	101300000	1000	0	0	-1	100
13483835	5970	1007	0	-100	0	230	101300000	1000	0	0	-1	100
13496395	5970	995	0	-100	0	230	101300000	1000	0	0	-1	100
13508955	5969	983	0	-100	0	230	101300000	1000	0	0	-1	100
13521515	5968	1008	0	-100	0	230	101300000	1000	0	0	-1	100
13534075	5966	989	0	-100	0	230	101300000	1000	0	0	-1	100
13546635	5969	1009	0	-100	0	230	101300000	1000	0	0	-1	100
13559195	5978	986	0	-100	0	230	101300000	1000	0	0	-1	100
13571755	5974	1017	0	-100	0	230	101300000	1000	0	0	-1	100
13584315	5974	1018	0	-100	0	230	101300000	1000	0	0	-1	100
13596875	5976	998	0	-100	0	230	101300000	1000	0	0	-1	100
13609435	5978	996	0	-100	0	230	101300000	1000	0	0	-1	100
13621995	5975	1002	0	-100	0	230	101300000	1000	0	0	-1	100
13634555	5972	1003	0	-100	0	230	101300000	1000	0	0	-1	100
13647115	5975	1001	0	-100	0	230	101300000	1000	0	0	-1	100
13659675	5974	995	0	-100	0	230	101300000	1000	0	0	-1	100
13672235	5973	994	0	-100	0	230	101300000	1000	0	0	-1	100
13684795	5974	1007	0	-100	0	230	101300000	1000	0	0	-1	100
13697355	5973	995	0	-100	0	230	101300000	1000	0	0	-1	100
13709915	5969	997	0	-100	0	230	101300000	1000	0	0	-1	100
13722475	5968	1008	0	-100	0	230	101300000	1000	0	0	-1	100
13735035	5972	988	0	-100	0	230	101300000	1000	0	0	-1	100
13747595	5970	1008	0	-100	0	230	101300000	1000	0	0	-1	100
13760155	5981	990	0	-100	0	230	101300000	1000	0	0	-1	100
13772715	5974	992	0	-100	0	230	101300000	1000	0	0	-1	100
13785275	5972	988	0	-100	0	230	101300000	1000	0	0	-1	100
13797835	5973	983	0	-100	0	230	101300000	1000	0	0	-1	100
13810395	5974	984	0	-100	0	230	101300000	1000	0	0	-1	100
13822955	5972	992	0	-100	0	230	101300000	1000	0	0	-1	100
13835515	5974	1006	0	-100	0	230	101300000	1000	0	0	-1	100
13848075	5975	993	0	-100	0	230	101300000	1000	0	0	-1	100
13860635	5976	1005	0	-100	0	230	101300000	1000	0	0	-1	100
13873195	5972	1006	0	-100	0	230	101300000	1000	0	0	-1	100
13885755	5972	1009	0	-100	0	230	101300000	1000	0	0	-1	100
13898315	5972	992	0	-100	0	230	101300000	1000	0	0	-1	100
13910875	5972	985	0	-100	0	230	101300000	1000	0	0	-1	100
13923435	5966	1012	0	-100	0	230	101300000	1000	0	0	-1	100
13935995	5971	1006	0	-100	0	230	101300000	1000	0	0	-1	100
13948555	5973	983	0	-100	0	230	101300000	1000	0	0	-1	100
13961115	5973	1008	0	-100	0	230	101300000	1000	0	0	-1	100
13973675	5975	984	0	-100	0	230	101300000	1000	0	0	-1	100
13986235	5977	994	0	-100	0	230	101300000	1000	0	0	-1	100
13998795	5976	1002	0	-100	0	230	101300000	1000	0	0	-1	100
14011355	5978	996	0	-100	0	230	101300000	1000	0	0	-1	100
14023915	5974	1016	0	-100	0	230	101300000	1000	0	0	-1	100
14036475	5971	1007	0	-100	0	230	101300000	1000	0	0	-1	100
14049035	5972	1009	0	-100	0	230	101300000	1000	0	0	-1	100
14061595	5969	1003	0	-100	0	230	101300000	1000	0	0	-1	100
14074155	5980	1017	0	-100	0	230	101300000	1000	0	0	-1	100
14086715	5972	1010	0	-100	0	230	101300000	1000	0	0	-1	100
14099275	5969	1004	0	-100	0	230	101300000	1000	0	0	-1	100
14111835	5976	1005	0	-100	0	230	101300000	1000	0	0	-1	100
14124395	5972	998	0	-100	0	230	101300000	1000	0	0	-1	100
14136955	5973	1001	0	-100	0	230	101300000	1000	0	0	-1	100
14149515	5977	1008	0	-100	0	230	101300000	1000	0	0	-1	100
14162075	5972	983	0	-100	0	230	101300000	1000	0	0	-1	100
14174635	5972	1005	0	-100	0	230	101300000	1000	0	0	-1	100
14187195	5971	995	0	-100	0	230	101300000	1000	0	0	-1	100
14199755	5972	1002	0	-100	0	230	101300000	1000	0	0	-1	100
14212315	5970	1005	0	-100	0	230	101300000	1000	0	0	-1	100
14224875	5974	984	0	-100	0	230	101300000	1000	0	0	-1	100
14237435	5979	1006	0	-100	0	230	101300000	1000	0	0	-1	100
14249995	5978	1014	0	-100	0	230	101300000	1000	0	0	-1	100
14262555	5970	1010	0	-100	0	230	101300000	1000	0	0	-1	100
14275115	5976	1004	0	-100	0	230	101300000	1000	0	0	-1	100
14287675	5965	991	0	-100	0	230	101300000	1000	0	0	-1	100
14300235	5975	1008	0	-100	0	230	101300000	1000	0	0	-1	100
14312795	5977	1007	0	-100	0	230	101300000	1000	0	0	-1	100
14325355	5975	996	0	-100	0	230	101300000	1000	0	0	-1	100
14337915	5974	1006	0	-100	0	230	101300000	1000	0	0	-1	100
14350475	5972	1005	0	-100	0	230	101300000	1000	0	0	-1	100
14363035	5972	1007	0	-100	0	230	101300000	1000	0	0	-1	100
14375595	5967	1008	0	-100	0	230	101300000	1000	0	0	-1	100
14388155	5982	1001	0	-100	0	230	101300000	1000	0	0	-1	100
14400715	5974	985	0	-100	0	230	101300000	1000	0	0	-1	100
14413275	5977	981	0	-100	0	230	101300000	1000	0	0	-1	100
14425835	5978	1008	0	-100	0	230	101300000	1000	0	0	-1	100
14438395	5979	1008	0	-100	0	230	101300000	1000	0	0	-1	100
14450955	5976	1014	0	-100	0	230	101300000	1000	0	0	-1	100
14463515	5972	985	0	-100	0	230	101300000	1000	0	0	-1	100
14476075	5970	1000	0	-100	0	230	101300000	1000	0	0	-1	100
14488635	5972	995	0	-100	0	230	101300000	1000	0	0	-1	100
14501195	5975	1001	0	-100	0	230	101300000	1000	0	0	-1	100
14513755	5973	992	0	-100	0	230	101300000	1000	0	0	-1	100
14526315	5969	994	0	-100	0	230	101300000	1000	0	0	-1	100
14538875	5970	1002	0	-100	0	230	101300000	1000	0	0	-1	100
14551435	5974	1001	0	-100	0	230	101300000	1000	0	0	-1	100
14563995	5969	986	0	-100	0	230	101300000	1000	0	0	-1	100
14576555	5970	988	0	-100	0	230	101300000	1000	0	0	-1	100
14589115	5970	981	0	-100	0	230	101300000	1000	0	0	-1	100
14601675	5970	988	0	-100	0	230	101300000	1000	0	0	-1	100
14614235	5973	1001	0	-100	0	230	101300000	1000	0	0	-1	100
14626795	5972	996	0	-100	0	230	101300000	1000	0	0	-1	100
14639355	5979	998	0	-100	0	230	101300000	1000	0	0	-1	100
14651915	5974	994	0	-100	0	230	101300000	1000	0	0	-1	100
14664475	5976	1002	0	-100	0	230	101300000	1000	0	0	-1	100
14677035	5981	979	0	-100	0	230	101300000	1000	0	0	-1	100
14689595	5978	990	0	-100	0	230	101300000	1000	0	0	-1	100
14702155	5984	999	0	-100	0	230	101300000	1000	0	0	-1	100
14714715	5976	1006	0	-100	0	230	101300000	1000	0	0	-1	100
14727275	5972	1001	0	-100	0	230	101300000	1000	0	0	-1	100
14739835	5971	997	0	-100	0	230	101300000	1000	0	0	-1	100
14752395	5971	997	0	-100	0	230	101300000	1000	0	0	-1	100
14764955	5972	996	0	-100	0	230	101300000	1000	0	0	-1	100
14777515	5969	982	0	-100	0	230	101300000	1000	0	0	-1	100
14790075	5969	987	0	-100	0	230	101300000	1000	0	0	-1	100
14802635	5970	994	0	-100	0	230	101300000	1000	0	0	-1	100
14815195	5971	997	0	-100	0	230	101300000	1000	0	0	-1	100
14827755	5974	1002	0	-100	0	230	101300000	1000	0	0	-1	100
14840315	5976	997	0	-100	0	230	101300000	1000	0	0	-1	100
14852875	5979	996	0	-100	0	230	101300000	1000	0	0	-1	100
14865435	5975	995	0	-100	0	230	101300000	1000	0	0	-1	100
14877995	5974	988	0	-100	0	230	101300000	1000	0	0	-1	100
14890555	5974	1002	0	-100	0	230	101300000	1000	0	0	-1	100
14903115	5974	1013	0	-100	0	230	101300000	1000	0	0	-1	100
14915675	5978	1004	0	-100	0	230	101300000	1000	0	0	-1	100
14928235	5976	1011	0	-100	0	230	101300000	1000	0	0	-1	100
14940795	5979	1011	0	-100	0	230	101300000	1000	0	0	-1	100
14953355	5980	995	0	-100	0	230	101300000	1000	0	0	-1	100
14965915	5980	983	0	-100	0	230	101300000	1000	0	0	-1	100
14978475	5972	1001	0	-100	0	230	101300000	1000	0	0	-1	100
14991035	5974	1001	0	-100	0	230	101300000	1000	0	0	-1	100
15003595	5978	979	0	-100	0	230	101300000	1000	0	0	-1	100
15016155	5992	1005	0	-100	0	230	101300000	1000	0	0	-1	100
15028715	5978	995	0	-100	0	230	101300000	1000	0	0	-1	100
15041275	5971	993	0	-100	0	230	101300000	1000	0	0	-1	100
15053835	5972	996	0	-100	0	230	101300000	1000	0	0	-1	100
15066395	5972	991	0	-100	0	230	101300000	1000	0	0	-1	100
15078955	5970	984	0	-100	0	230	101300000	1000	0	0	-1	100
15091515	5974	1007	0	-100	0	230	101300000	1000	0	0	-1	100
15104075	5968	1003	0	-100	0	230	101300000	1000	0	0	-1	100
15116635	5977	999	0	-100	0	230	101300000	1000	0	0	-1	100
15129195	5979	999	0	-100	0	230	101300000	1000	0	0	-1	100
15141755	5978	991	0	-100	0	230	101300000	1000	0	0	-1	100
15154315	5977	1002	0	-100	0	230	101300000	1000	0	0	-1	100
15166875	5981	991	0	-100	0	230	101300000	1000	0	0	-1	100
15179435	5973	996	0	-100	0	230	101300000	1000	0	0	-1	100
15191995	5970	983	0	-100	0	230	101300000	1000	0	0	-1	100
15204555	5970	1004	0	-100	0	230	101300000	1000	0	0	-1	100
15217115	5969	1008	0	-100	0	230	101300000	1000	0	0	-1	100
15229675	5974	1009	0	-100	0	230	101300000	1000	0	0	-1	100
15242235	5970	988	0	-100	0	230	101300000	1000	0	0	-1	100
15254795	5978	1004	0	-100	0	230	101300000	1000	0	0	-1	100
15267355	5974	997	0	-100	0	230	101300000	1000	0	0	-1	100
15279915	5978	993	0	-100	0	230	101300000	1000	0	0	-1	100
15292475	5979	1005	0	-100	0	230	101300000	1000	0	0	-1	100
15305035	5978	999	0	-100	0	230	101300000	1000	0	0	-1	100
15317595	5978	987	0	-100	0	230	101300000	1000	0	0	-1	100
15330155	5980	995	0	-100	0	230	101300000	1000	0	0	-1	100
15342715	5968	998	0	-100	0	230	101300000	1000	0	0	-1	100
15355275	5973	999	0	-100	0	230	101300000	1000	0	0	-1	100
15367835	5970	977	0	-100	0	230	101300000	1000	0	0	-1	100
15380395	5974	986	0	-100	0	230	101300000	1000	0	0	-1	100
15392955	5977	996	0	-100	0	230	101300000	1000	0	0	-1	100
15405515	5976	1002	0	-100	0	230	101300000	1000	0	0	-1	100
15418075	5979	995	0	-100	0	230	101300000	1000	0	0	-1	100
15430635	5976	1002	0	-100	0	230	101300000	1000	0	0	-1	100
15443195	5972	1005	0	-100	0	230	101300000	1000	0	0	-1	100
15455755	5972	1010	0	-100	0	230	101300000	1000	0	0	-1	100
15468315	5966	994	0	-100	0	230	101300000	1000	0	0	-1	100
15480875	5973	999	0	-100	0	230	101300000	1000	0	0	-1	100
15493435	5979	985	0	-100	0	230	101300000	1000	0	0	-1	100
15505995	5973	1002	0	-100	0	230	101300000	1000	0	0	-1	100
15518555	5973	1001	0	-100	0	230	101300000	1000	0	0	-1	100
15531115	5973	991	0	-100	0	230	101300000	1000	0	0	-1	100
15543675	5975	1003	0	-100	0	230	101300000	1000	0	0	-1	100
15556235	5980	1018	0	-100	0	230	101300000	1000	0	0	-1	100
15568795	5971	981	0	-100	0	230	101300000	1000	0	0	-1	100
15581355	5974	1003	0	-100	0	230	101300000	1000	0	0	-1	100
15593915	5967	999	0	-100	0	230	101300000	1000	0	0	-1	100
15606475	5974	1002	0	-100	0	230	101300000	1000	0	0	-1	100
15619035	5974	997	0	-100	0	230	101300000	1000	0	0	-1	100
15631595	5970	994	0	-100	0	230	101300000	1000	0	0	-1	100
15644155	5978	990	0	-100	0	230	101300000	1000	0	0	-1	100
15656715	5978	987	0	-100	0	230	101300000	1000	0	0	-1	100
15669275	5976	1012	0	-100	0	230	101300000	1000	0	0	-1	100
15681835	5973	986	0	-100	0	230	101300000	1000	0	0	-1	100
15694395	5972	993	0	-100	0	230	101300000	1000	0	0	-1	100
15706955	5974	981	0	-100	0	230	101300000	1000	0	0	-1	100
15719515	5968	1010	0	-100	0	230	101300000	1000	0	0	-1	100
15732075	5970	1008	0	-100	0	230	101300000	1000	0	0	-1	100
15744635	5977	1007	0	-100	0	230	101300000	1000	0	0	-1	100
15757195	5971	1002	0	-100	0	230	101300000	1000	0	0	-1	100
15769755	5970	1010	0	-100	0	230	101300000	1000	0	0	-1	100
15782315	5968	995	0	-100	0	230	101300000	1000	0	0	-1	100
15794875	5972	1009	0	-100	0	230	101300000	1000	0	0	-1	100
15807435	5974	988	0	-100	0	230	101300000	1000	0	0	-1	100
15819995	5975	1009	0	-100	0	230	101300000	1000	0	0	-1	100
15832555	5977	996	0	-100	0	230	101300000	1000	0	0	-1	100
15845115	5972	1002	0	-100	0	230	101300000	1000	0	0	-1	100
15857675	5966	1012	0	-100	0	230	101300000	1000	0	0	-1	100
15870235	5978	1004	0	-100	0	230	101300000	1000	0	0	-1	100
15882795	5974	997	0	-100	0	230	101300000	1000	0	0	-1	100
15895355	5972	1010	0	-100	0	230	101300000	1000	0	0	-1	100
15907915	5970	999	0	-100	0	230	101300000	1000	0	0	-1	100
15920475	5969	1002	0	-100	0	230	101300000	1000	0	0	-1	100
15933035	5973	981	0	-100	0	230	101300000	1000	0	0	-1	100
15945595	5972	994	0	-100	0	230	101300000	1000	0	0	-1	100
15958155	5987	988	0	-100	0	230	101300000	1000	0	0	-1	100
15970715	5970	993	0	-100	0	230	101300000	1000	0	0	-1	100
15983275	5970	1014	0	-100	0	230	101300000	1000	0	0	-1	100
15995835	5972	989	0	-100	0	230	101300000	1000	0	0	-1	100
16008395	5974	1004	0	-100	0	230	101300000	1000	0	0	-1	100
16020955	5972	996	0	-100	0	230	101300000	1000	0	0	-1	100
16033515	5972	1011	0	-100	0	230	101300000	1000	0	0	-1	100
16046075	5977	1005	0	-100	0	230	101300000	1000	0	0	-1	100
16058635	5973	1011	0	-100	0	230	101300000	1000	0	0	-1	100
16071195	5968	991	0	-100	0	230	101300000	1000	0	0	-1	100
16121435	5980	1010	0	-100	0	230	101300000	1000	0	0	-1	100
16133995	5974	1007	0	-100	0	230	101300000	1000	0	0	-1	100
16146555	5968	1000	0	-100	0	230	101300000	1000	0	0	-1	100
16159115	5973	1002	0	-100	0	230	101300000	1000	0	0	-1	100
16171675	5969	999	0	-100	0	230	101300000	1000	0	0	-1	100
16184235	5974	990	0	-100	0	230	101300000	1000	0	0	-1	100
16196795	5975	1008	0	-100	0	230	101300000	1000	0	0	-1	100
16209355	5969	989	0	-100	0	230	101300000	1000	0	0	-1	100
16221915	5971	998	0	-100	0	230	101300000	1000	0	0	-1	100
16234475	5967	999	0	-100	0	230	101300000	1000	0	0	-1	100
16247035	5970	999	0	-100	0	230	101300000	1000	0	0	-1	100
16259595	5977	988	0	-100	0	230	101300000	1000	0	0	-1	100
16334955	5971	999	0	-100	0	230	101300000	1000	0	0	-1	100
16347515	5968	999	0	-100	0	230	101300000	1000	0	0	-1	100
16360075	5975	997	0	-100	0	230	101300000	1000	0	0	-1	100
16372635	5976	999	0	-100	0	230	101300000	1000	0	0	-1	100
16385195	5972	1003	0	-100	0	230	101300000	1000	0	0	-1	100
16397755	5972	1009	0	-100	0	230	101300000	1000	0	0	-1	100
16410315	5972	999	0	-100	0	230	101300000	1000	0	0	-1	100
16422875	5971	1001	0	-100	0	230	101300000	1000	0	0	-1	100
16435435	5975	996	0	-100	0	230	101300000	1000	0	0	-1	100
16447995	5978	996	0	-100	0	230	101300000	1000	0	0	-1	100
16460555	5975	1000	0	-100	0	230	101300000	1000	0	0	-1	100
16473115	5974	1013	0	-100	0	230	101300000	1000	0	0	-1	100
16498235	5965	992	0	-100	0	230	101300000	1000	0	0	-1	100
16510795	5974	991	0	-100	0	230	101300000	1000	0	0	-1	100
16523355	5974	1008	0	-100	0	230	101300000	1000	0	0	-1	100
16535915	5969	994	0	-100	0	230	101300000	1000	0	0	-1	100
16548475	5973	997	0	-100	0	230	101300000	1000	0	0	-1	100
16561035	5976	999	0	-100	0	230	101300000	1000	0	0	-1	100
16573595	5976	999	0	-100	0	230	101300000	1000	0	0	-1	100
16586155	5978	1011	0	-100	0	230	101300000	1000	0	0	-1	100
16598715	5974	1007	0	-100	0	230	101300000	1000	0	0	-1	100
16611275	5970	994	0	-100	0	230	101300000	1000	0	0	-1	100
16623835	5976	999	0	-100	0	230	101300000	1000	0	0	-1	100
16636395	5975	996	0	-100	0	230	101300000	1000	0	0	-1	100
16648955	5978	1010	0	-100	0	230	101300000	1000	0	0	-1	100
16661515	5972	999	0	-100	0	230	101300000	1000	0	0	-1	100
16674075	5970	990	0	-100	0	230	101300000	1000	0	0	-1	100
16686635	5968	986	0	-100	0	230	101300000	1000	0	0	-1	100
16699195	5970	1001	0	-100	0	230	101300000	1000	0	0	-1	100
16711755	5970	995	0	-100	0	230	101300000	1000	0	0	-1	100
16724315	5971	1006	0	-100	0	230	101300000	1000	0	0	-1	100
16736875	5978	974	0	-100	0	230	101300000	1000	0	0	-1	100
16749435	5981	995	0	-100	0	230	101300000	1000	0	0	-1	100
16761995	5971	1010	0	-100	0	230	101300000	1000	0	0	-1	100
16774555	5972	1015	0	-100	0	230	101300000	1000	0	0	-1	100
16787115	5968	986	0	-100	0	230	101300000	1000	0	0	-1	100
16799675	5970	980	0	-100	0	230	101300000	1000	0	0	-1	100
16812235	5970	991	0	-100	0	230	101300000	1000	0	0	-1	100
16824795	5973	1012	0	-100	0	230	101300000	1000	0	0	-1	100
16837355	5978	979	0	-100	0	230	101300000	1000	0	0	-1	100
16849915	5972	990	0	-100	0	230	101300000	1000	0	0	-1	100
16862475	5977	982	0	-100	0	230	101300000	1000	0	0	-1	100
16875035	5976	1015	0	-100	0	230	101300000	1000	0	0	-1	100
16887595	5975	999	0	-100	0	230	101300000	1000	0	0	-1	100
16900155	5977	999	0	-100	0	230	101300000	1000	0	0	-1	100
16912715	5969	1005	0	-100	0	230	101300000	1000	0	0	-1	100
16925275	5970	995	0	-100	0	230	101300000	1000	0	0	-1	100
16937835	5970	988	0	-100	0	230	101300000	1000	0	0	-1	100
16950395	5970	995	0	-100	0	230	101300000	1000	0	0	-1	100
16962955	5976	983	0	-100	0	230	101300000	1000	0	0	-1	100
16975515	5978	1016	0	-100	0	230	101300000	1000	0	0	-1	100
16988075	5978	1004	0	-100	0	230	101300000	1000	0	0	-1	100
17000635	5974	1004	0	-100	0	230	101300000	1000	0	0	-1	100
17013195	5974	988	0	-100	0	230	101300000	1000	0	0	-1	100
17025755	5969	997	0	-100	0	230	101300000	1000	0	0	-1	100
17038315	5972	1005	0	-100	0	230	101300000	1000	0	0	-1	100
17050875	5972	1014	0	-100	0	230	101300000	1000	0	0	-1	100
17063435	5972	1003	0	-100	0	230	101300000	1000	0	0	-1	100
17075995	5967	1001	0	-100	0	230	101300000	1000	0	0	-1	100
17088555	5971	988	0	-100	0	230	101300000	1000	0	0	-1	100
17101115	5974	993	0	-100	0	230	101300000	1000	0	0	-1	100
17113675	5974	1005	0	-100	0	230	101300000	1000	0	0	-1	100
17126235	5969	991	0	-100	0	230	101300000	1000	0	0	-1	100
17138795	5970	983	0	-100	0	230	101300000	1000	0	0	-1	100
17151355	5971	984	0	-100	0	230	101300000	1000	0	0	-1	100
17163915	5969	998	0	-100	0	230	101300000	1000	0	0	-1	100
17176475	5972	997	0	-100	0	230	101300000	1000	0	0	-1	100
17189035	5968	999	0	-100	0	230	101300000	1000	0	0	-1	100
17201595	5980	1014	0	-100	0	230	101300000	1000	0	0	-1	100
17214155	5983	995	0	-100	0	230	101300000	1000	0	0	-1	100
17226715	5975	1004	0	-100	0	230	101300000	1000	0	0	-1	100
17239275	5974	984	0	-100	0	230	101300000	1000	0	0	-1	100
17251835	5975	998	0	-100	0	230	101300000	1000	0	0	-1	100
17264395	5969	985	0	-100	0	230	101300000	1000	0	0	-1	100
17276955	5973	998	0	-100	0	230	101300000	1000	0	0	-1	100
17289515	5972	1001	0	-100	0	230	101300000	1000	0	0	-1	100
17302075	5966	1015	0	-100	0	230	101300000	1000	0	0	-1	100
17314635	5972	995	0	-100	0	230	101300000	1000	0	0	-1	100
17327195	5976	1000	0	-100	0	230	101300000	1000	0	0	-1	100
17339755	5974	996	0	-100	0	230	101300000	1000	0	0	-1	100
17352315	5974	1003	0	-100	0	230	101300000	1000	0	0	-1	100
17364875	5975	1005	0	-100	0	230	101300000	1000	0	0	-1	100
17377435	5970	997	0	-100	0	230	101300000	1000	0	0	-1	100
17389995	5970	988	0	-100	0	230	101300000	1000	0	0	-1	100
17402555	5970	1000	0	-100	0	230	101300000	1000	0	0	-1	100
17415115	5974	1009	0	-100	0	230	101300000	1000	0	0	-1	100
17427675	5976	990	0	-100	0	230	101300000	1000	0	0	-1	100
17440235	5975	990	0	-100	0	230	101300000	1000	0	0	-1	100
17452795	5973	995	0	-100	0	230	101300000	1000	0	0	-1	100
17465355	5973	1003	0	-100	0	230	101300000	1000	0	0	-1	100
17477915	5969	1003	0	-100	0	230	101300000	1000	0	0	-1	100
17490475	5967	986	0	-100	0	230	101300000	1000	0	0	-1	100
17503035	5972	981	0	-100	0	230	101300000	1000	0	0	-1	100
17515595	5968	995	0	-100	0	230	101300000	1000	0	0	-1	100
17528155	5978	1009	0	-100	0	230	101300000	1000	0	0	-1	100
17540715	5977	1012	0	-100	0	230	101300000	1000	0	0	-1	100
17553275	5975	1020	0	-100	0	230	101300000	1000	0	0	-1	100
17565835	5972	1017	0	-100	0	230	101300000	1000	0	0	-1	100
17578395	5972	992	0	-100	0	230	101300000	1000	0	0	-1	100
17590955	5974	1011	0	-100	0	230	101300000	1000	0	0	-1	100
17603515	5977	1003	0	-100	0	230	101300000	1000	0	0	-1	100
17616075	5968	999	0	-100	0	230	101300000	1000	0	0	-1	100
17628635	5972	989	0	-100	0	230	101300000	1000	0	0	-1	100
17641195	5976	1011	0	-100	0	230	101300000	1000	0	0	-1	100
17653755	5971	987	0	-100	0	230	101300000	1000	0	0	-1	100
17666315	5974	994	0	-100	0	230	101300000	1000	0	0	-1	100
17678875	5972	999	0	-100	0	230	101300000	1000	0	0	-1	100
17691435	5975	1001	0	-100	0	230	101300000	1000	0	0	-1	100
17703995	5966	990	0	-100	0	230	101300000	1000	0	0	-1	100
17716555	5970	1014	0	-100	0	230	101300000	1000	0	0	-1	100
17729115	5980	1016	0	-100	0	230	101300000	1000	0	0	-1	100
17741675	5974	1005	0	-100	0	230	101300000	1000	0	0	-1	100
17754235	5968	983	0	-100	0	230	101300000	1000	0	0	-1	100
17766795	5974	989	0	-100	0	230	101300000	1000	0	0	-1	100
17779355	5978	1001	0	-100	0	230	101300000	1000	0	0	-1	100
17791915	5975	1005	0	-100	0	230	101300000	1000	0	0	-1	100
17804475	5970	1006	0	-100	0	230	101300000	1000	0	0	-1	100
17817035	5970	1012	0	-100	0	230	101300000	1000	0	0	-1	100
17829595	5968	987	0	-100	0	230	101300000	1000	0	0	-1	100
17842155	5985	1011	0	-100	0	230	101300000	1000	0	0	-1	100
17854715	5972	994	0	-100	0	230	101300000	1000	0	0	-1	100
17867275	5965	1009	0	-100	0	230	101300000	1000	0	0	-1	100
17879835	5972	997	0	-100	0	230	101300000	1000	0	0	-1	100
17892395	5975	1017	0	-100	0	230	101300000	1000	0	0	-1	100
17904955	5970	978	0	-100	0	230	101300000	1000	0	0	-1	100
17917515	5970	1008	0	-100	0	230	101300000	1000	0	0	-1	100
17930075	5979	986	0	-100	0	230	101300000	1000	0	0	-1	100
17942635	5973	987	0	-100	0	230	101300000	1000	0	0	-1	100
17955195	5974	1008	0	-100	0	230	101300000	1000	0	0	-1	100
17967755	5973	1004	0	-100	0	230	101300000	1000	0	0	-1	100
17980315	5972	1002	0	-100	0	230	101300000	1000	0	0	-1	100
17992875	5976	998	0	-100	0	230	101300000	1000	0	0	-1	100
18005435	5974	988	0	-100	0	230	101300000	1000	0	0	-1	100
18017995	5966	997	0	-100	0	230	101300000	1000	0	0	-1	100
18030555	5974	982	0	-100	0	230	101300000	1000	0	0	-1	100
18043115	5966	984	0	-100	0	230	101300000	1000	0	0	-1	100
18055675	5968	995	0	-100	0	230	101300000	1000	0	0	-1	100
18068235	5974	1001	0	-100	0	230	101300000	1000	0	0	-1	100
18080795	5971	1012	0	-100	0	230	101300000	1000	0	0	-1	100
18093355	5972	1009	0	-100	0	230	101300000	1000	0	0	-1	100
18105915	5974	1002	0	-100	0	230	101300000	1000	0	0	-1	100
18118475	5973	982	0	-100	0	230	101300000	1000	0	0	-1	100
18131035	5974	1006	0	-100	0	230	101300000	1000	0	0	-1	100
18143595	5977	988	0	-100	0	230	101300000	1000	0	0	-1	100
18156155	5977	1012	0	-100	0	230	101300000	1000	0	0	-1	100
18168715	5974	984	0	-100	0	230	101300000	1000	0	0	-1	100
18181275	5970	999	0	-100	0	230	101300000	1000	0	0	-1	100
18193835	5970	1003	0	-100	0	230	101300000	1000	0	0	-1	100
18206395	5974	980	0	-100	0	230	101300000	1000	0	0	-1	100
18218955	5970	1005	0	-100	0	230	101300000	1000	0	0	-1	100
18231515	5969	992	0	-100	0	230	101300000	1000	0	0	-1	100
18244075	5973	984	0	-100	0	230	101300000	1000	0	0	-1	100
18256635	5971	1003	0	-100	0	230	101300000	1000	0	0	-1	100
18269195	5971	998	0	-100	0	230	101300000	1000	0	0	-1	100
18281755	5975	1003	0	-100	0	230	101300000	1000	0	0	-1	100
18294315	5975	996	0	-100	0	230	101300000	1000	0	0	-1	100
18306875	5975	1001	0	-100	0	230	101300000	1000	0	0	-1	100
18319435	5970	1004	0	-100	0	230	101300000	1000	0	0	-1	100
18331995	5968	988	0	-100	0	230	101300000	1000	0	0	-1	100
18344555	5973	1001	0	-100	0	230	101300000	1000	0	0	-1	100
18357115	5972	1004	0	-100	0	230	101300000	1000	0	0	-1	100
18369675	5969	1010	0	-100	0	230	101300000	1000	0	0	-1	100
18382235	5968	998	0	-100	0	230	101300000	1000	0	0	-1	100
18394795	5972	1014	0	-100	0	230	101300000	1000	0	0	-1	100
18407355	5971	985	0	-100	0	230	101300000	1000	0	0	-1	100
18419915	5968	1006	0	-100	0	230	101300000	1000	0	0	-1	100
18432475	5969	974	0	-100	0	230	101300000	1000	0	0	-1	100
18445035	5976	988	0	-100	0	230	101300000	1000	0	0	-1	100
18457595	5978	1008	0	-100	0	230	101300000	1000	0	0	-1	100
18470155	5987	990	0	-100	0	230	101300000	1000	0	0	-1	100
18482715	5978	1001	0	-100	0	230	101300000	1000	0	0	-1	100
18495275	5982	996	0	-100	0	230	101300000	1000	0	0	-1	100
18507835	5974	983	0	-100	0	230	101300000	1000	0	0	-1	100
18520395	5977	1018	0	-100	0	230	101300000	1000	0	0	-1	100
18532955	5973	1016	0	-100	0	230	101300000	1000	0	0	-1	100
18545515	5969	1007	0	-100	0	230	101300000	1000	0	0	-1	100
18558075	5968	1014	0	-100	0	230	101300000	1000	0	0	-1	100
18570635	5969	1010	0	-100	0	230	101300000	1000	0	0	-1	100
18583195	5970	1009	0	-100	0	230	101300000	1000	0	0	-1	100
18595755	5971	1007	0	-100	0	230	101300000	1000	0	0	-1	100
18608315	5971	985	0	-100	0	230	101300000	1000	0	0	-1	100
18620875	5968	1001	0	-100	0	230	101300000	1000	0	0	-1	100
18633435	5970	996	0	-100	0	230	101300000	1000	0	0	-1	100
18645995	5975	996	0	-100	0	230	101300000	1000	0	0	-1	100
18658555	5976	991	0	-100	0	230	101300000	1000	0	0	-1	100
18671115	5975	999	0	-100	0	230	101300000	1000	0	0	-1	100
18683675	5976	994	0	-100	0	230	101300000	1000	0	0	-1	100
18696235	5974	1010	0	-100	0	230	101300000	1000	0	0	-1	100
18708795	5975	1007	0	-100	0	230	101300000	1000	0	0	-1	100
18721355	5977	1015	0	-100	0	230	101300000	1000	0	0	-1	100
18733915	5977	1009	0	-100	0	230	101300000	1000	0	0	-1	100
18746475	5977	993	0	-100	0	230	101300000	1000	0	0	-1	100
18759035	5974	995	0	-100	0	230	101300000	1000	0	0	-1	100
18771595	5979	993	0	-100	0	230	101300000	1000	0	0	-1	100
18784155	5979	992	0	-100	0	230	101300000	1000	0	0	-1	100
18796715	5979	987	0	-100	0	230	101300000	1000	0	0	-1	100
18809275	5975	1014	0	-100	0	230	101300000	1000	0	0	-1	100
18821835	5975	995	0	-100	0	230	101300000	1000	0	0	-1	100
18834395	5971	986	0	-100	0	230	101300000	1000	0	0	-1	100
18846955	5972	1004	0	-100	0	230	101300000	1000	0	0	-1	100
18859515	5971	1007	0	-100	0	230	101300000	1000	0	0	-1	100
18872075	5972	997	0	-100	0	230	101300000	1000	0	0	-1	100
18884635	5971	990	0	-100	0	230	101300000	1000	0	0	-1	100
18897195	5969	1018	0	-100	0	230	101300000	1000	0	0	-1	100
18909755	5966	1015	0	-100	0	230	101300000	1000	0	0	-1	100
18922315	5969	1004	0	-100	0	230	101300000	1000	0	0	-1	100
18934875	5970	1003	0	-100	0	230	101300000	1000	0	0	-1	100
18947435	5970	1001	0	-100	0	230	101300000	1000	0	0	-1	100
18959995	5970	1010	0	-100	0	230	101300000	1000	0	0	-1	100
18972555	5966	1006	0	-100	0	230	101300000	1000	0	0	-1	100
18985115	5972	982	0	-100	0	230	101300000	1000	0	0	-1	100
18997675	5970	983	0	-100	0	230	101300000	1000	0	0	-1	100
19010235	5973	1006	0	-100	0	230	101300000	1000	0	0	-1	100
19022795	5972	985	0	-100	0	230	101300000	1000	0	0	-1	100
19035355	5971	1006	0	-100	0	230	101300000	1000	0	0	-1	100
19047915	5971	984	0	-100	0	230	101300000	1000	0	0	-1	100
19060475	5970	1000	0	-100	0	230	101300000	1000	0	0	-1	100
19073035	5972	1006	0	-100	0	230	101300000	1000	0	0	-1	100
19085595	5971	1006	0	-100	0	230	101300000	1000	0	0	-1	100
19098155	5979	986	0	-100	0	230	101300000	1000	0	0	-1	100
19110715	5970	997	0	-100	0	230	101300000	1000	0	0	-1	100
19123275	5975	1002	0	-100	0	230	101300000	1000	0	0	-1	100
19135835	5978	991	0	-100	0	230	101300000	1000	0	0	-1	100
19148395	5972	998	0	-100	0	230	101300000	1000	0	0	-1	100
19160955	5975	1000	0	-100	0	230	101300000	1000	0	0	-1	100
19173515	5977	986	0	-100	0	230	101300000	1000	0	0	-1	100
19261435	5966	991	0	-100	0	230	101300000	1000	0	0	-1	100
19273995	5969	1004	0	-100	0	230	101300000	1000	0	0	-1	100
19286555	5972	988	0	-100	0	230	101300000	1000	0	0	-1	100
19299115	5966	997	0	-100	0	230	101300000	1000	0	0	-1	100
19311675	5974	999	0	-100	0	230	101300000	1000	0	0	-1	100
19324235	5973	998	0	-100	0	230	101300000	1000	0	0	-1	100
19336795	5974	995	0	-100	0	230	101300000	1000	0	0	-1	100
19349355	5975	1005	0	-100	0	230	101300000	1000	0	0	-1	100
19361915	5972	1012	0	-100	0	230	101300000	1000	0	0	-1	100
19374475	5975	993	0	-100	0	230	101300000	1000	0	0	-1	100
19387035	5972	992	0	-100	0	230	101300000	1000	0	0	-1	100
19399595	5977	1003	0	-100	0	230	101300000	1000	0	0	-1	100
19462395	5968	1002	0	-100	0	230	101300000	1000	0	0	-1	100
19474955	5971	1012	0	-100	0	230	101300000	1000	0	0	-1	100
19487515	5974	1007	0	-100	0	230	101300000	1000	0	0	-1	100
19500075	5971	1000	0	-100	0	230	101300000	1000	0	0	-1	100
19512635	5970	1006	0	-100	0	230	101300000	1000	0	0	-1	100
19525195	5969	999	0	-100	0	230	101300000	1000	0	0	-1	100
19537755	5975	1004	0	-100	0	230	101300000	1000	0	0	-1	100
19550315	5972	988	0	-100	0	230	101300000	1000	0	0	-1	100
19562875	5969	994	0	-100	0	230	101300000	1000	0	0	-1	100
19575435	5978	1000	0	-100	0	230	101300000	1000	0	0	-1	100
19587995	5974	1015	0	-100	0	230	101300000	1000	0	0	-1	100
19600555	5975	992	0	-100	0	230	101300000	1000	0	0	-1	100
19613115	5975	998	0	-100	0	230	101300000	1000	0	0	-1	100
19625675	5975	1004	0	-100	0	230	101300000	1000	0	0	-1	100
19638235	5976	997	0	-100	0	230	101300000	1000	0	0	-1	100
19650795	5975	985	0	-100	0	230	101300000	1000	0	0	-1	100
19663355	5973	995	0	-100	0	230	101300000	1000	0	0	-1	100
19675915	5976	984	0	-100	0	230	101300000	1000	0	0	-1	100
19688475	5974	1007	0	-100	0	230	101300000	1000	0	0	-1	100
19701035	5970	995	0	-100	0	230	101300000	1000	0	0	-1	100
19713595	5967	999	0	-100	0	230	101300000	1000	0	0	-1	100
19726155	5976	994	0	-100	0	230	101300000	1000	0	0	-1	100
19738715	5967	993	0	-100	0	230	101300000	1000	0	0	-1	100
19751275	5967	997	0	-100	0	230	101300000	1000	0	0	-1	100
19763835	5974	1002	0	-100	0	230	101300000	1000	0	0	-1	100
19776395	5973	989	0	-100	0	230	101300000	1000	0	0	-1	100
19788955	5971	1006	0	-100	0	230	101300000	1000	0	0	-1	100
19801515	5974	1005	0	-100	0	230	101300000	1000	0	0	-1	100
19814075	5972	1012	0	-100	0	230	101300000	1000	0	0	-1	100
19826635	5974	988	0	-100	0	230	101300000	1000	0	0	-1	100
19839195	5975	985	0	-100	0	230	101300000	1000	0	0	-1	100
19851755	5975	999	0	-100	0	230	101300000	1000	0	0	-1	100
19864315	5970	1004	0	-100	0	230	101300000	1000	0	0	-1	100
19876875	5970	984	0	-100	0	230	101300000	1000	0	0	-1	100
19889435	5974	994	0	-100	0	230	101300000	1000	0	0	-1	100
19901995	5972	993	0	-100	0	230	101300000	1000	0	0	-1	100
19914555	5970	990	0	-100	0	230	101300000	1000	0	0	-1	100
19927115	5976	1016	0	-100	0	230	101300000	1000	0	0	-1	100
19939675	5976	992	0	-100	0	230	101300000	1000	0	0	-1	100
19952235	5973	985	0	-100	0	230	101300000	1000	0	0	-1	100
19964795	5969	996	0	-100	0	230	101300000	1000	0	0	-1	100
19977355	5968	1006	0	-100	0	230	101300000	1000	0	0	-1	100
19989915	5966	1014	0	-100	0	230	101300000	1000	0	0	-1	100
20002475	5971	990	0	-100	0	230	101300000	1000	0	0	-1	100
20015035	5976	995	0	-100	0	230	101300000	1000	0	0	-1	100
20027595	5975	989	0	-100	0	230	101300000	1000	0	0	-1	100
20040155	5979	1006	0	-100	0	230	101300000	1000	0	0	-1	100
20052715	5974	1001	0	-100	0	230	101300000	1000	0	0	-1	100
20065275	5970	981	0	-100	0	230	101300000	1000	0	0	-1	100
20077835	5969	1002	0	-100	0	230	101300000	1000	0	0	-1	100
20090395	5970	997	0	-100	0	230	101300000	1000	0	0	-1	100
20102955	5973	983	0	-100	0	230	101300000	1000	0	0	-1	100
20115515	5976	999	0	-100	0	230	101300000	1000	0	0	-1	100
20128075	5978	987	0	-100	0	230	101300000	1000	0	0	-1	100
20140635	5978	1012	0	-100	0	230	101300000	1000	0	0	-1	100
20153195	5969	991	0	-100	0	230	101300000	1000	0	0	-1	100
20165755	5969	1010	0	-100	0	230	101300000	1000	0	0	-1	100
20178315	5972	1008	0	-100	0	230	101300000	1000	0	0	-1	100
20190875	5970	999	0	-100	0	230	101300000	1000	0	0	-1	100
20203435	5974	994	0	-100	0	230	101300000	1000	0	0	-1	100
20215995	5976	1009	0	-100	0	230	101300000	1000	0	0	-1	100
20228555	5975	991	0	-100	0	230	101300000	1000	0	0	-1	100
20241115	5976	991	0	-100	0	230	101300000	1000	0	0	-1	100
20253675	5966	986	0	-100	0	230	101300000	1000	0	0	-1	100
20266235	5968	1012	0	-100	0	230	101300000	1000	0	0	-1	100
20278795	5974	995	0	-100	0	230	101300000	1000	0	0	-1	100
20291355	5978	995	0	-100	0	230	101300000	1000	0	0	-1	100
20303915	5970	999	0	-100	0	230	101300000	1000	0	0	-1	100
20316475	5974	1000	0	-100	0	230	101300000	1000	0	0	-1	100
20329035	5972	971	0	-100	0	230	101300000	1000	0	0	-1	100
20341595	5974	995	0	-100	0	230	101300000	1000	0	0	-1	100
20354155	5981	991	0	-100	0	230	101300000	1000	0	0	-1	100
20366715	5973	991	0	-100	0	230	101300000	1000	0	0	-1	100
20379275	5974	1002	0	-100	0	230	101300000	1000	0	0	-1	100
20391835	5973	978	0	-100	0	230	101300000	1000	0	0	-1	100
20404395	5973	996	0	-100	0	230	101300000	1000	0	0	-1	100
20416955	5978	989	0	-100	0	230	101300000	1000	0	0	-1	100
20429515	5971	984	0	-100	0	230	101300000	1000	0	0	-1	100
20442075	5972	1005	0	-100	0	230	101300000	1000	0	0	-1	100
20454635	5978	988	0	-100	0	230	101300000	1000	0	0	-1	100
20467195	5977	1011	0	-100	0	230	101300000	1000	0	0	-1	100
20479755	5966	997	0	-100	0	230	101300000	1000	0	0	-1	100
20492315	5974	1011	0	-100	0	230	101300000	1000	0	0	-1	100
20504875	5978	999	0	-100	0	230	101300000	1000	0	0	-1	100
20517435	5973	1004	0	-100	0	230	101300000	1000	0	0	-1	100
20529995	5977	1004	0	-100	0	230	101300000	1000	0	0	-1	100
20542555	5972	1005	0	-100	0	230	101300000	1000	0	0	-1	100
20555115	5972	1013	0	-100	0	230	101300000	1000	0	0	-1	100
20567675	5973	991	0	-100	0	230	101300000	1000	0	0	-1	100
20580235	5972	995	0	-100	0	230	101300000	1000	0	0	-1	100
20592795	5976	991	0	-100	0	230	101300000	1000	0	0	-1	100
20605355	5966	997	0	-100	0	230	101300000	1000	0	0	-1	100
20617915	5975	978	0	-100	0	230	101300000	1000	0	0	-1	100
20630475	5978	1013	0	-100	0	230	101300000	1000	0	0	-1	100
20643035	5970	979	0	-100	0	230	101300000	1000	0	0	-1	100
20655595	5970	1004	0	-100	0	230	101300000	1000	0	0	-1	100
20668155	5982	1010	0	-100	0	230	101300000	1000	0	0	-1	100
20680715	5970	995	0	-100	0	230	101300000	1000	0	0	-1	100
20693275	5972	1005	0	-100	0	230	101300000	1000	0	0	-1	100
20705835	5974	995	0	-100	0	230	101300000	1000	0	0	-1	100
20718395	5967	1001	0	-100	0	230	101300000	1000	0	0	-1	100
20730955	5973	1004	0	-100	0	230	101300000	1000	0	0	-1	100
20743515	5972	1002	0	-100	0	230	101300000	1000	0	0	-1	100
20756075	5965	994	0	-100	0	230	101300000	1000	0	0	-1	100
20768635	5970	996	0	-100	0	230	101300000	1000	0	0	-1	100
20781195	5966	999	0	-100	0	230	101300000	1000	0	0	-1	100
20793755	5974	1007	0	-100	0	230	101300000	1000	0	0	-1	100
20806315	5977	1003	0	-100	0	230	101300000	1000	0	0	-1	100
20818875	5978	985	0	-100	0	230	101300000	1000	0	0	-1	100
20831435	5975	1001	0	-100	0	230	101300000	1000	0	0	-1	100
20843995	5973	1004	0	-100	0	230	101300000	1000	0	0	-1	100
20856555	5969	1011	0	-100	0	230	101300000	1000	0	0	-1	100
20869115	5974	984	0	-100	0	230	101300000	1000	0	0	-1	100
20881675	5977	1007	0	-100	0	230	101300000	1000	0	0	-1	100
20894235	5970	992	0	-100	0	230	101300000	1000	0	0	-1	100
20906795	5972	1016	0	-100	0	230	101300000	1000	0	0	-1	100
20919355	5975	982	0	-100	0	230	101300000	1000	0	0	-1	100
20931915	5965	999	0	-100	0	230	101300000	1000	0	0	-1	100
20944475	5976	1018	0	-100	0	230	101300000	1000	0	0	-1	100
20957035	5975	1001	0	-100	0	230	101300000	1000	0	0	-1	100
20969595	5976	1000	0	-100	0	230	101300000	1000	0	0	-1	100
20982155	5982	1004	0	-100	0	230	101300000	1000	0	0	-1	100
20994715	5969	995	0	-100	0	230	101300000	1000	0	0	-1	100
21007275	5969	1007	0	-100	0	230	101300000	1000	0	0	-1	100
21019835	5971	994	0	-100	0	230	101300000	1000	0	0	-1	100
21032395	5974	1005	0	-100	0	230	101300000	1000	0	0	-1	100
21044955	5970	995	0	-100	0	230	101300000	1000	0	0	-1	100
21057515	5974	1000	0	-100	0	230	101300000	1000	0	0	-1	100
21070075	5975	995	0	-100	0	230	101300000	1000	0	0	-1	100
21082635	5978	995	0	-100	0	230	101300000	1000	0	0	-1	100
21095195	5976	985	0	-100	0	230	101300000	1000	0	0	-1	100
21107755	5978	991	0	-100	0	230	101300000	1000	0	0	-1	100
21120315	5978	999	0	-100	0	230	101300000	1000	0	0	-1	100
21132875	5973	1009	0	-100	0	230	101300000	1000	0	0	-1	100
21145435	5974	994	0	-100	0	230	101300000	1000	0	0	-1	100
21157995	5972	996	0	-100	0	230	101300000	1000	0	0	-1	100
21170555	5979	1006	0	-100	0	230	101300000	1000	0	0	-1	100
21183115	5970	1000	0	-100	0	230	101300000	1000	0	0	-1	100
21195675	5975	990	0	-100	0	230	101300000	1000	0	0	-1	100
21208235	5974	993	0	-100	0	230	101300000	1000	0	0	-1	100
21220795	5969	1002	0	-100	0	230	101300000	1000	0	0	-1	100
21233355	5966	998	0	-100	0	230	101300000	1000	0	0	-1	100
21245915	5971	1011	0	-100	0	230	101300000	1000	0	0	-1	100
21258475	5972	1004	0	-100	0	230	101300000	1000	0	0	-1	100
21271035	5978	1001	0	-100	0	230	101300000	1000	0	0	-1	100
21283595	5973	1002	0	-100	0	230	101300000	1000	0	0	-1	100
21296155	5976	996	0	-100	0	230	101300000	1000	0	0	-1	100
21308715	5972	1005	0	-100	0	230	101300000	1000	0	0	-1	100
21321275	5972	1005	0	-100	0	230	101300000	1000	0	0	-1	100
21333835	5979	985	0	-100	0	230	101300000	1000	0	0	-1	100
21346395	5970	987	0	-100	0	230	101300000	1000	0	0	-1	100
21358955	5970	992	0	-100	0	230	101300000	1000	0	0	-1	100
21371515	5974	990	0	-100	0	230	101300000	1000	0	0	-1	100
21384075	5976	1000	0	-100	0	230	101300000	1000	0	0	-1	100
21396635	5970	987	0	-100	0	230	101300000	1000	0	0	-1	100
21409195	5972	1006	0	-100	0	230	101300000	1000	0	0	-1	100
21421755	5974	1009	0	-100	0	230	101300000	1000	0	0	-1	100
21434315	5978	995	0	-100	0	230	101300000	1000	0	0	-1	100
21446875	5971	1002	0	-100	0	230	101300000	1000	0	0	-1	100
21459435	5973	1004	0	-100	0	230	101300000	1000	0	0	-1	100
21471995	5969	1002	0	-100	0	230	101300000	1000	0	0	-1	100
21484555	5979	1014	0	-100	0	230	101300000	1000	0	0	-1	100
21497115	5974	992	0	-100	0	230	101300000	1000	0	0	-1	100
21509675	5974	987	0	-100	0	230	101300000	1000	0	0	-1	100
21522235	5978	994	0	-100	0	230	101300000	1000	0	0	-1	100
21534795	5975	991	0	-100	0	230	101300000	1000	0	0	-1	100
21547355	5970	1005	0	-100	0	230	101300000	1000	0	0	-1	100
21559915	5972	982	0	-100	0	230	101300000	1000	0	0	-1	100
21572475	5973	1008	0	-100	0	230	101300000	1000	0	0	-1	100
21585035	5974	1004	0	-100	0	230	101300000	1000	0	0	-1	100
21597595	5969	996	0	-100	0	230	101300000	1000	0	0	-1	100
21610155	5983	1000	0	-100	0	230	101300000	1000	0	0	-1	100
21622715	5974	987	0	-100	0	230	101300000	1000	0	0	-1	100
21635275	5970	996	0	-100	0	230	101300000	1000	0	0	-1	100
21647835	5973	999	0	-100	0	230	101300000	1000	0	0	-1	100
21660395	5971	1014	0	-100	0	230	101300000	1000	0	0	-1	100
21672955	5970	1010	0	-100	0	230	101300000	1000	0	0	-1	100
21685515	5973	987	0	-100	0	230	101300000	1000	0	0	-1	100
21698075	5979	1001	0	-100	0	230	101300000	1000	0	0	-1	100
21710635	5970	983	0	-100	0	230	101300000	1000	0	0	-1	100
21723195	5970	1009	0	-100	0	230	101300000	1000	0	0	-1	100
21735755	5978	982	0	-100	0	230	101300000	1000	0	0	-1	100
21748315	5972	1013	0	-100	0	230	101300000	1000	0	0	-1	100
21760875	5974	1014	0	-100	0	230	101300000	1000	0	0	-1	100
21773435	5970	1002	0	-100	0	230	101300000	1000	0	0	-1	100
21785995	5977	1011	0	-100	0	230	101300000	1000	0	0	-1	100
21798555	5968	995	0	-100	0	230	101300000	1000	0	0	-1	100
21811115	5974	1011	0	-100	0	230	101300000	1000	0	0	-1	100
21823675	5979	1001	0	-100	0	230	101300000	1000	0	0	-1	100
21836235	5969	998	0	-100	0	230	101300000	1000	0	0	-1	100
21848795	5971	1006	0	-100	0	230	101300000	1000	0	0	-1	100
21861355	5978	994	0	-100	0	230	101300000	1000	0	0	-1	100
21873915	5969	1011	0	-100	0	230	101300000	1000	0	0	-1	100
21886475	5974	1009	0	-100	0	230	101300000	1000	0	0	-1	100
21899035	5976	1006	0	-100	0	230	101300000	1000	0	0	-1	100
21911595	5969	988	0	-100	0	230	101300000	1000	0	0	-1	100
21924155	5977	1004	0	-100	0	230	101300000	1000	0	0	-1	100
21936715	5975	983	0	-100	0	230	101300000	1000	0	0	-1	100
21949275	5977	996	0	-100	0	230	101300000	1000	0	0	-1	100
21961835	5979	1011	0	-100	0	230	101300000	1000	0	0	-1	100
21974395	5967	1006	0	-100	0	230	101300000	1000	0	0	-1	100
21986955	5969	1003	0	-100	0	230	101300000	1000	0	0	-1	100
21999515	5978	1010	0	-100	0	230	101300000	1000	0	0	-1	100
22012075	5974	994	0	-100	0	230	101300000	1000	0	0	-1	100
22024635	5982	996	0	-100	0	230	101300000	1000	0	0	-1	100
22037195	5970	990	0	-100	0	230	101300000	1000	0	0	-1	100
22049755	5968	990	0	-100	0	230	101300000	1000	0	0	-1	100
22062315	5979	1005	0	-100	0	230	101300000	1000	0	0	-1	100
22074875	5967	978	0	-100	0	230	101300000	1000	0	0	-1	100
22087435	5974	986	0	-100	0	230	101300000	1000	0	0	-1	100
22099995	5974	1011	0	-100	0	230	101300000	1000	0	0	-1	100
22112555	5974	988	0	-100	0	230	101300000	1000	0	0	-1	100
22125115	5976	984	0	-100	0	230	101300000	1000	0	0	-1	100
22137675	5974	973	0	-100	0	230	101300000	1000	0	0	-1	100
22150235	5974	1003	0	-100	0	230	101300000	1000	0	0	-1	100
22162795	5971	981	0	-100	0	230	101300000	1000	0	0	-1	100
22175355	5968	1008	0	-100	0	230	101300000	1000	0	0	-1	100
22187915	5969	998	0	-100	0	230	101300000	1000	0	0	-1	100
22200475	5970	988	0	-100	0	230	101300000	1000	0	0	-1	100
22213035	5969	1003	0	-100	0	230	101300000	1000	0	0	-1	100
22225595	5978	1008	0	-100	0	230	101300000	1000	0	0	-1	100
22238155	5976	996	0	-100	0	230	101300000	1000	0	0	-1	100
22250715	5974	985	0	-100	0	230	101300000	1000	0	0	-1	100
22263275	5970	991	0	-100	0	230	101300000	1000	0	0	-1	100
22275835	5972	981	0	-100	0	230	101300000	1000	0	0	-1	100
22288395	5971	1002	0	-100	0	230	101300000	1000	0	0	-1	100
22300955	5976	991	0	-100	0	230	101300000	1000	0	0	-1	100
22313515	5974	1008	0	-100	0	230	101300000	1000	0	0	-1	100
22326075	5981	1006	0	-100	0	230	101300000	1000	0	0	-1	100
22338635	5970	1014	0	-100	0	230	101300000	1000	0	0	-1	100
22351195	5973	1007	0	-100	0	230	101300000	1000	0	0	-1	100
22363755	5969	1002	0	-100	0	230	101300000	1000	0	0	-1	100
22376315	5974	1013	0	-100	0	230	101300000	1000	0	0	-1	100
22388875	5968	998	0	-100	0	230	101300000	1000	0	0	-1	100
22401435	5974	1009	0	-100	0	230	101300000	1000	0	0	-1	100
22413995	5971	1005	0	-100	0	230	101300000	1000	0	0	-1	100
22426555	5970	1010	0	-100	0	230	101300000	1000	0	0	-1	100
22439115	5974	1012	0	-100	0	230	101300000	1000	0	0	-1	100
22451675	5970	1008	0	-100	0	230	101300000	1000	0	0	-1	100
22464235	5978	1006	0	-100	0	230	101300000	1000	0	0	-1	100
22476795	5970	1000	0	-100	0	230	101300000	1000	0	0	-1	100
22489355	5977	987	0	-100	0	230	101300000	1000	0	0	-1	100
22501915	5972	1001	0	-100	0	230	101300000	1000	0	0	-1	100
22514475	5973	981	0	-100	0	230	101300000	1000	0	0	-1	100
22527035	5963	1015	0	-100	0	230	101300000	1000	0	0	-1	100
22539595	5976	1002	0	-100	0	230	101300000	1000	0	0	-1	100
22552155	5979	992	0	-100	0	230	101300000	1000	0	0	-1	100
22564715	5978	978	0	-100	0	230	101300000	1000	0	0	-1	100
22577275	5970	991	0	-100	0	230	101300000	1000	0	0	-1	100
22589835	5975	1004	0	-100	0	230	101300000	1000	0	0	-1	100
22602395	5970	996	0	-100	0	230	101300000	1000	0	0	-1	100
22614955	5974	997	0	-100	0	230	101300000	1000	0	0	-1	100
22627515	5969	1014	0	-100	0	230	101300000	1000	0	0	-1	100
22640075	5976	1015	0	-100	0	230	101300000	1000	0	0	-1	100
22652635	5972	1006	0	-100	0	230	101300000	1000	0	0	-1	100
22665195	5968	1002	0	-100	0	230	101300000	1000	0	0	-1	100
22677755	5981	1004	0	-100	0	230	101300000	1000	0	0	-1	100
22690315	5975	1004	0	-100	0	230	101300000	1000	0	0	-1	100
22702875	5972	1011	0	-100	0	230	101300000	1000	0	0	-1	100
22715435	5982	978	0	-100	0	230	101300000	1000	0	0	-1	100
22727995	5972	1007	0	-100	0	230	101300000	1000	0	0	-1	100
22740555	5979	992	0	-100	0	230	101300000	1000	0	0	-1	100
22753115	5972	997	0	-100	0	230	101300000	1000	0	0	-1	100
22765675	5970	1001	0	-100	0	230	101300000	1000	0	0	-1	100
22778235	5974	989	0	-100	0	230	101300000	1000	0	0	-1	100
22790795	5974	1012	0	-100	0	230	101300000	1000	0	0	-1	100
22803355	5974	987	0	-100	0	230	101300000	1000	0	0	-1	100
22815915	5971	1007	0	-100	0	230	101300000	1000	0	0	-1	100
22828475	5976	992	0	-100	0	230	101300000	1000	0	0	-1	100
22841035	5971	993	0	-100	0	230	101300000	1000	0	0	-1	100
22853595	5969	995	0	-100	0	230	101300000	1000	0	0	-1	100
22866155	5983	1000	0	-100	0	230	101300000	1000	0	0	-1	100
22878715	5972	1004	0	-100	0	230	101300000	1000	0	0	-1	100
22891275	5978	1001	0	-100	0	230	101300000	1000	0	0	-1	100
22903835	5970	1016	0	-100	0	230	101300000	1000	0	0	-1	100
22916395	5971	990	0	-100	0	230	101300000	1000	0	0	-1	100
22928955	5970	1014	0	-100	0	230	101300000	1000	0	0	-1	100
22941515	5969	975	0	-100	0	230	101300000	1000	0	0	-1	100
22954075	5974	986	0	-100	0	230	101300000	1000	0	0	-1	100
22966635	5976	1002	0	-100	0	230	101300000	1000	0	0	-1	100
22979195	5968	995	0	-100	0	230	101300000	1000	0	0	-1	100
22991755	5973	997	0	-100	0	230	101300000	1000	0	0	-1	100
23004315	5966	994	0	-100	0	230	101300000	1000	0	0	-1	100
23016875	5974	1000	0	-100	0	230	101300000	1000	0	0	-1	100
23029435	5971	992	0	-100	0	230	101300000	1000	0	0	-1	100
23041995	5974	986	0	-100	0	230	101300000	1000	0	0	-1	100
23054555	5974	995	0	-100	0	230	101300000	1000	0	0	-1	100
23067115	5976	977	0	-100	0	230	101300000	1000	0	0	-1	100
23079675	5970	1003	0	-100	0	230	101300000	1000	0	0	-1	100
23092235	5966	1009	0	-100	0	230	101300000	1000	0	0	-1	100
23104795	5976	998	0	-100	0	230	101300000	1000	0	0	-1	100
23117355	5974	988	0	-100	0	230	101300000	1000	0	0	-1	100
23129915	5973	991	0	-100	0	230	101300000	1000	0	0	-1	100
23142475	5970	983	0	-100	0	230	101300000	1000	0	0	-1	100
23155035	5970	992	0	-100	0	230	101300000	1000	0	0	-1	100
23167595	5972	979	0	-100	0	230	101300000	1000	0	0	-1	100
23180155	5979	1005	0	-100	0	230	101300000	1000	0	0	-1	100
23192715	5975	983	0	-100	0	230	101300000	1000	0	0	-1	100
23205275	5974	1002	0	-100	0	230	101300000	1000	0	0	-1	100
23217835	5971	998	0	-100	0	230	101300000	1000	0	0	-1	100
23230395	5970	1009	0	-100	0	230	101300000	1000	0	0	-1	100
23242955	5972	995	0	-100	0	230	101300000	1000	0	0	-1	100
23255515	5979	1003	0	-100	0	230	101300000	1000	0	0	-1	100
23268075	5967	996	0	-100	0	230	101300000	1000	0	0	-1	100
23280635	5974	979	0	-100	0	230	101300000	1000	0	0	-1	100
23293195	5974	1016	0	-100	0	230	101300000	1000	0	0	-1	100
23305755	5975	999	0	-100	0	230	101300000	1000	0	0	-1	100
23318315	5976	988	0	-100	0	230	101300000	1000	0	0	-1	100
23330875	5974	991	0	-100	0	230	101300000	1000	0	0	-1	100
23343435	5970	1000	0	-100	0	230	101300000	1000	0	0	-1	100
23355995	5973	991	0	-100	0	230	101300000	1000	0	0	-1	100
23368555	5974	995	0	-100	0	230	101300000	1000	0	0	-1	100
23381115	5974	1005	0	-100	0	230	101300000	1000	0	0	-1	100
23393675	5969	994	0	-100	0	230	101300000	1000	0	0	-1	100
23406235	5970	987	0	-100	0	230	101300000	1000	0	0	-1	100
23418795	5970	990	0	-100	0	230	101300000	1000	0	0	-1	100
23431355	5972	999	0	-100	0	230	101300000	1000	0	0	-1	100
23443915	5970	1017	0	-100	0	230	101300000	1000	0	0	-1	100
23456475	5965	991	0	-100	0	230	101300000	1000	0	0	-1	100
23469035	5973	996	0	-100	0	230	101300000	1000	0	0	-1	100
23481595	5970	1004	0	-100	0	230	101300000	1000	0	0	-1	100
23494155	5983	1010	0	-100	0	230	101300000	1000	0	0	-1	100
23506715	5974	1001	0	-100	0	230	101300000	1000	0	0	-1	100
23519275	5970	990	0	-100	0	230	101300000	1000	0	0	-1	100
23531835	5970	1004	0	-100	0	230	101300000	1000	0	0	-1	100
23544395	5977	1010	0	-100	0	230	101300000	1000	0	0	-1	100
23556955	5972	982	0	-100	0	230	101300000	1000	0	0	-1	100
23569515	5971	1009	0	-100	0	230	101300000	1000	0	0	-1	100
23582075	5978	990	0	-100	0	230	101300000	1000	0	0	-1	100
23594635	5977	1004	0	-100	0	230	101300000	1000	0	0	-1	100
23607195	5973	1006	0	-100	0	230	101300000	1000	0	0	-1	100
23619755	5982	995	0	-100	0	230	101300000	1000	0	0	-1	100
23632315	5979	1005	0	-100	0	230	101300000	1000	0	0	-1	100
23644875	5973	1001	0	-100	0	230	101300000	1000	0	0	-1	100
23657435	5974	992	0	-100	0	230	101300000	1000	0	0	-1	100
23669995	5974	988	0	-100	0	230	101300000	1000	0	0	-1	100
23682555	5976	1010	0	-100	0	230	101300000	1000	0	0	-1	100
23695115	5969	1000	0	-100	0	230	101300000	1000	0	0	-1	100
23707675	5968	995	0	-100	0	230	101300000	1000	0	0	-1	100
23720235	5971	988	0	-100	0	230	101300000	1000	0	0	-1	100
23732795	5968	992	0	-100	0	230	101300000	1000	0	0	-1	100
23745355	5974	1009	0	-100	0	230	101300000	1000	0	0	-1	100
23757915	5973	1011	0	-100	0	230	101300000	1000	0	0	-1	100
23770475	5978	1017	0	-100	0	230	101300000	1000	0	0	-1	100
23783035	5975	1011	0	-100	0	230	101300000	1000	0	0	-1	100
23795595	5969	993	0	-100	0	230	101300000	1000	0	0	-1	100
23808155	5975	1008	0	-100	0	230	101300000	1000	0	0	-1	100
23820715	5976	1007	0	-100	0	230	101300000	1000	0	0	-1	100
23833275	5975	988	0	-100	0	230	101300000	1000	0	0	-1	100
23845835	5970	984	0	-100	0	230	101300000	1000	0	0	-1	100
23858395	5972	1012	0	-100	0	230	101300000	1000	0	0	-1	100
23870955	5972	1006	0	-100	0	230	101300000	1000	0	0	-1	100
23883515	5979	1001	0	-100	0	230	101300000	1000	0	0	-1	100
23896075	5976	988	0	-100	0	230	101300000	1000	0	0	-1	100
23908635	5975	1001	0	-100	0	230	101300000	1000	0	0	-1	100
23921195	5969	986	0	-100	0	230	101300000	1000	0	0	-1	100
23933755	5970	1002	0	-100	0	230	101300000	1000	0	0	-1	100
23946315	5967	997	0	-100	0	230	101300000	1000	0	0	-1	100
23958875	5972	997	0	-100	0	230	101300000	1000	0	0	-1	100
23971435	5969	1016	0	-100	0	230	101300000	1000	0	0	-1	100
23983995	5979	995	0	-100	0	230	101300000	1000	0	0	-1	100
23996555	5974	993	0	-100	0	230	101300000	1000	0	0	-1	100
24009115	5974	1005	0	-100	0	230	101300000	1000	0	0	-1	100
24021675	5978	1007	0	-100	0	230	101300000	1000	0	0	-1	100
24034235	5974	981	0	-100	0	230	101300000	1000	0	0	-1	100
24046795	5974	1010	0	-100	0	230	101300000	1000	0	0	-1	100
24059355	5971	991	0	-100	0	230	101300000	1000	0	0	-1	100
24071915	5972	992	0	-100	0	230	101300000	1000	0	0	-1	100
24084475	5971	1014	0	-100	0	230	101300000	1000	0	0	-1	100
24097035	5973	1000	0	-100	0	230	101300000	1000	0	0	-1	100
24109595	5970	995	0	-100	0	230	101300000	1000	0	0	-1	100
24122155	5975	1005	0	-100	0	230	101300000	1000	0	0	-1	100
24134715	5968	1005	0	-100	0	230	101300000	1000	0	0	-1	100
24147275	5970	993	0	-100	0	230	101300000	1000	0	0	-1	100
24159835	5970	1001	0	-100	0	230	101300000	1000	0	0	-1	100
24172395	5965	997	0	-100	0	230	101300000	1000	0	0	-1	100
24184955	5967	989	0	-100	0	230	101300000	1000	0	0	-1	100
24197515	5972	997	0	-100	0	230	101300000	1000	0	0	-1	100
24210075	5970	991	0	-100	0	230	101300000	1000	0	0	-1	100
24222635	5972	1004	0	-100	0	230	101300000	1000	0	0	-1	100
24235195	5979	997	0	-100	0	230	101300000	1000	0	0	-1	100
24247755	5974	1001	0	-100	0	230	101300000	1000	0	0	-1	100
24260315	5969	990	0	-100	0	230	101300000	1000	0	0	-1	100
24272875	5974	977	0	-100	0	230	101300000	1000	0	0	-1	100
24285435	5970	993	0	-100	0	230	101300000	1000	0	0	-1	100
24297995	5970	989	0	-100	0	230	101300000	1000	0	0	-1	100
24310555	5963	991	0	-100	0	230	101300000	1000	0	0	-1	100
24323115	5972	991	0	-100	0	230	101300000	1000	0	0	-1	100
24335675	5974	1006	0	-100	0	230	101300000	1000	0	0	-1	100
24348235	5972	1004	0	-100	0	230	101300000	1000	0	0	-1	100
24360795	5970	1003	0	-100	0	230	101300000	1000	0	0	-1	100
24373355	5972	993	0	-100	0	230	101300000	1000	0	0	-1	100
24385915	5974	1008	0	-100	0	230	101300000	1000	0	0	-1	100
24398475	5976	1000	0	-100	0	230	101300000	1000	0	0	-1	100
24411035	5975	1004	0	-100	0	230	101300000	1000	0	0	-1	100
24423595	5974	997	0	-100	0	230	101300000	1000	0	0	-1	100
24436155	5980	1003	0	-100	0	230	101300000	1000	0	0	-1	100
24448715	5976	998	0	-100	0	230	101300000	1000	0	0	-1	100
24461275	5971	994	0	-100	0	230	101300000	1000	0	0	-1	100
24473835	5972	1000	0	-100	0	230	101300000	1000	0	0	-1	100
24486395	5974	1015	0	-100	0	230	101300000	1000	0	0	-1	100
24498955	5975	969	0	-100	0	230	101300000	1000	0	0	-1	100
24511515	5970	997	0	-100	0	230	101300000	1000	0	0	-1	100
24524075	5969	1010	0	-100	0	230	101300000	1000	0	0	-1	100
24536635	5969	1011	0	-100	0	230	101300000	1000	0	0	-1	100
24549195	5972	986	0	-100	0	230	101300000	1000	0	0	-1	100
24561755	5973	997	0	-100	0	230	101300000	1000	0	0	-1	100
24574315	5976	1006	0	-100	0	230	101300000	1000	0	0	-1	100
24586875	5978	1001	0	-100	0	230	101300000	1000	0	0	-1	100
24599435	5972	993	0	-100	0	230	101300000	1000	0	0	-1	100
24611995	5973	989	0	-100	0	230	101300000	1000	0	0	-1	100
24624555	5969	989	0	-100	0	230	101300000	1000	0	0	-1	100
24637115	5974	1014	0	-100	0	230	101300000	1000	0	0	-1	100
24649675	5972	994	0	-100	0	230	101300000	1000	0	0	-1	100
24662235	5973	998	0	-100	0	230	101300000	1000	0	0	-1	100
24674795	5969	1002	0	-100	0	230	101300000	1000	0	0	-1	100
24687355	5972	998	0	-100	0	230	101300000	1000	0	0	-1	100
24699915	5970	1005	0	-100	0	230	101300000	1000	0	0	-1	100
24712475	5974	988	0	-100	0	230	101300000	1000	0	0	-1	100
24725035	5977	1008	0	-100	0	230	101300000	1000	0	0	-1	100
24737595	5974	1008	0	-100	0	230	101300000	1000	0	0	-1	100
24750155	5975	993	0	-100	0	230	101300000	1000	0	0	-1	100
24762715	5969	984	0	-100	0	230	101300000	1000	0	0	-1	100
24775275	5972	995	0	-100	0	230	101300000	1000	0	0	-1	100
24787835	5972	997	0	-100	0	230	101300000	1000	0	0	-1	100
24800395	5978	998	0	-100	0	230	101300000	1000	0	0	-1	100
24812955	5970	1006	0	-100	0	230	101300000	1000	0	0	-1	100
24825515	5974	1008	0	-100	0	230	101300000	1000	0	0	-1	100
24838075	5973	999	0	-100	0	230	101300000	1000	0	0	-1	100
24850635	5973	1005	0	-100	0	230	101300000	1000	0	0	-1	100
24863195	5965	1012	0	-100	0	230	101300000	1000	0	0	-1	100
24875755	5969	1002	0	-100	0	230	101300000	1000	0	0	-1	100
24888315	5979	998	0	-100	0	230	101300000	1000	0	0	-1	100
24900875	5982	982	0	-100	0	230	101300000	1000	0	0	-1	100
24913435	5976	1002	0	-100	0	230	101300000	1000	0	0	-1	100
24925995	5974	1003	0	-100	0	230	101300000	1000	0	0	-1	100
24938555	5976	998	0	-100	0	230	101300000	1000	0	0	-1	100
24951115	5967	989	0	-100	0	230	101300000	1000	0	0	-1	100
24963675	5970	1012	0	-100	0	230	101300000	1000	0	0	-1	100
24976235	5970	1001	0	-100	0	230	101300000	1000	0	0	-1	100
24988795	5969	1006	0	-100	0	230	101300000	1000	0	0	-1	100
25001355	5974	995	0	-100	0	230	101300000	1000	0	0	-1	100
25013915	5974	1007	0	-100	0	230	101300000	1000	0	0	-1	100
25026475	5978	984	0	-100	0	230	101300000	1000	0	0	-1	100
25039035	5981	980	0	-100	0	230	101300000	1000	0	0	-1	100
25051595	5969	1003	0	-100	0	230	101300000	1000	0	0	-1	100
25064155	5984	996	0	-100	0	230	101300000	1000	0	0	-1	100
25076715	5972	992	0	-100	0	230	101300000	1000	0	0	-1	100
25089275	5972	1008	0	-100	0	230	101300000	1000	0	0	-1	100
25101835	5976	988	0	-100	0	230	101300000	1000	0	0	-1	100
25114395	5970	1021	0	-100	0	230	101300000	1000	0	0	-1	100
25126955	5972	1009	0	-100	0	230	101300000	1000	0	0	-1	100
25139515	5973	993	0	-100	0	230	101300000	1000	0	0	-1	100
25152075	5973	983	0	-100	0	230	101300000	1000	0	0	-1	100
25164635	5977	1000	0	-100	0	230	101300000	1000	0	0	-1	100
25177195	5974	1008	0	-100	0	230	101300000	1000	0	0	-1	100
25189755	5978	1005	0	-100	0	230	101300000	1000	0	0	-1	100
25202315	5974	1003	0	-100	0	230	101300000	1000	0	0	-1	100
25214875	5974	1005	0	-100	0	230	101300000	1000	0	0	-1	100
25227435	5968	993	0	-100	0	230	101300000	1000	0	0	-1	100
25239995	5972	986	0	-100	0	230	101300000	1000	0	0	-1	100
25252555	5972	999	0	-100	0	230	101300000	1000	0	0	-1	100
25265115	5970	1005	0	-100	0	230	101300000	1000	0	0	-1	100
25277675	5967	999	0	-100	0	230	101300000	1000	0	0	-1	100
25290235	5974	987	0	-100	0	230	101300000	1000	0	0	-1	100
25302795	5975	981	0	-100	0	230	101300000	1000	0	0	-1	100
25315355	5972	1002	0	-100	0	230	101300000	1000	0	0	-1	100
25327915	5976	997	0	-100	0	230	101300000	1000	0	0	-1	100
25340475	5975	986	0	-100	0	230	101300000	1000	0	0	-1	100
25353035	5975	1004	0	-100	0	230	101300000	1000	0	0	-1	100
25365595	5974	998	0	-100	0	230	101300000	1000	0	0	-1	100
25378155	5980	1003	0	-100	0	230	101300000	1000	0	0	-1	100
25390715	5978	1003	0	-100	0	230	101300000	1000	0	0	-1	100
25403275	5976	1003	0	-100	0	230	101300000	1000	0	0	-1	100
25415835	5975	985	0	-100	0	230	101300000	1000	0	0	-1	100
25428395	5977	984	0	-100	0	230	101300000	1000	0	0	-1	100
25440955	5969	988	0	-100	0	230	101300000	1000	0	0	-1	100
25453515	5974	996	0	-100	0	230	101300000	1000	0	0	-1	100
25466075	5971	1002	0	-100	0	230	101300000	1000	0	0	-1	100
25478635	5977	980	0	-100	0	230	101300000	1000	0	0	-1	100
25491195	5973	1000	0	-100	0	230	101300000	1000	0	0	-1	100
25503755	5970	1009	0	-100	0	230	101300000	1000	0	0	-1	100
25516315	5970	1013	0	-100	0	230	101300000	1000	0	0	-1	100
25528875	5968	1002	0	-100	0	230	101300000	1000	0	0	-1	100
25541435	5972	1007	0	-100	0	230	101300000	1000	0	0	-1	100
25553995	5972	1003	0	-100	0	230	101300000	1000	0	0	-1	100
25566555	5972	1008	0	-100	0	230	101300000	1000	0	0	-1	100
25579115	5976	1014	0	-100	0	230	101300000	1000	0	0	-1	100
25591675	5976	997	0	-100	0	230	101300000	1000	0	0	-1	100
25604235	5971	994	0	-100	0	230	101300000	1000	0	0	-1	100
25616795	5977	1011	0	-100	0	230	101300000	1000	0	0	-1	100
25629355	5978	992	0	-100	0	230	101300000	1000	0	0	-1	100
25641915	5975	987	0	-100	0	230	101300000	1000	0	0	-1	100
25654475	5968	1013	0	-100	0	230	101300000	1000	0	0	-1	100
25667035	5969	1002	0	-100	0	230	101300000	1000	0	0	-1	100
25679595	5972	1011	0	-100	0	230	101300000	1000	0	0	-1	100
25692155	5986	995	0	-100	0	230	101300000	1000	0	0	-1	100
25704715	5976	995	0	-100	0	230	101300000	1000	0	0	-1	100
25717275	5974	995	0	-100	0	230	101300000	1000	0	0	-1	100
25729835	5976	986	0	-100	0	230	101300000	1000	0	0	-1	100
25742395	5973	1000	0	-100	0	230	101300000	1000	0	0	-1	100
25754955	5977	1003	0	-100	0	230	101300000	1000	0	0	-1	100
25767515	5968	991	0	-100	0	230	101300000	1000	0	0	-1	100
25780075	5972	1002	0	-100	0	230	101300000	1000	0	0	-1	100
25792635	5974	1000	0	-100	0	230	101300000	1000	0	0	-1	100
25805195	5983	996	0	-100	0	230	101300000	1000	0	0	-1	100
25817755	5974	995	0	-100	0	230	101300000	1000	0	0	-1	100
25830315	5974	1016	0	-100	0	230	101300000	1000	0	0	-1	100
25842875	5975	976	0	-100	0	230	101300000	1000	0	0	-1	100
25855435	5974	994	0	-100	0	230	101300000	1000	0	0	-1	100
25867995	5973	990	0	-100	0	230	101300000	1000	0	0	-1	100
25880555	5974	1004	0	-100	0	230	101300000	1000	0	0	-1	100
25893115	5974	995	0	-100	0	230	101300000	1000	0	0	-1	100
25905675	5969	994	0	-100	0	230	101300000	1000	0	0	-1	100
25918235	5967	996	0	-100	0	230	101300000	1000	0	0	-1	100
25930795	5977	1001	0	-100	0	230	101300000	1000	0	0	-1	100
25943355	5976	992	0	-100	0	230	101300000	1000	0	0	-1	100
25955915	5977	1002	0	-100	0	230	101300000	1000	0	0	-1	100
25968475	5973	1012	0	-100	0	230	101300000	1000	0	0	-1	100
25981035	5973	1009	0	-100	0	230	101300000	1000	0	0	-1	100
25993595	5970	995	0	-100	0	230	101300000	1000	0	0	-1	100
26006155	5975	984	0	-100	0	230	101300000	1000	0	0	-1	100
26018715	5972	999	0	-100	0	230	101300000	1000	0	0	-1	100
26031275	5974	998	0	-100	0	230	101300000	1000	0	0	-1	100
26043835	5973	995	0	-100	0	230	101300000	1000	0	0	-1	100
26056395	5973	1000	0	-100	0	230	101300000	1000	0	0	-1	100
26068955	5970	1008	0	-100	0	230	101300000	1000	0	0	-1	100
26081515	5970	1006	0	-100	0	230	101300000	1000	0	0	-1	100
26094075	5974	1004	0	-100	0	230	101300000	1000	0	0	-1	100
26106635	5978	994	0	-100	0	230	101300000	1000	0	0	-1	100
26119195	5976	1005	0	-100	0	230	101300000	1000	0	0	-1	100
26131755	5978	995	0	-100	0	230	101300000	1000	0	0	-1	100
26144315	5973	1012	0	-100	0	230	101300000	1000	0	0	-1	100
26156875	5975	992	0	-100	0	230	101300000	1000	0	0	-1	100
26169435	5968	1000	0	-100	0	230	101300000	1000	0	0	-1	100
26181995	5974	994	0	-100	0	230	101300000	1000	0	0	-1	100
26194555	5972	988	0	-100	0	230	101300000	1000	0	0	-1	100
26207115	5974	1011	0	-100	0	230	101300000	1000	0	0	-1	100
26219675	5970	996	0	-100	0	230	101300000	1000	0	0	-1	100
26232235	5969	1002	0	-100	0	230	101300000	1000	0	0	-1	100
26244795	5972	999	0	-100	0	230	101300000	1000	0	0	-1	100
26257355	5973	990	0	-100	0	230	101300000	1000	0	0	-1	100
26269915	5975	990	0	-100	0	230	101300000	1000	0	0	-1	100
26282475	5974	990	0	-100	0	230	101300000	1000	0	0	-1	100
26295035	5973	1005	0	-100	0	230	101300000	1000	0	0	-1	100
26307595	5970	1015	0	-100	0	230	101300000	1000	0	0	-1	100
26320155	5982	992	0	-100	0	230	101300000	1000	0	0	-1	100
26332715	5971	986	0	-100	0	230	101300000	1000	0	0	-1	100
26345275	5970	995	0	-100	0	230	101300000	1000	0	0	-1	100
26357835	5977	991	0	-100	0	230	101300000	1000	0	0	-1	100
26370395	5976	994	0	-100	0	230	101300000	1000	0	0	-1	100
26382955	5978	1002	0	-100	0	230	101300000	1000	0	0	-1	100
26395515	5978	996	0	-100	0	230	101300000	1000	0	0	-1	100
26408075	5978	999	0	-100	0	230	101300000	1000	0	0	-1	100
26420635	5974	993	0	-100	0	230	101300000	1000	0	0	-1	100
26433195	5972	985	0	-100	0	230	101300000	1000	0	0	-1	100
26445755	5970	999	0	-100	0	230	101300000	1000	0	0	-1	100
26458315	5974	1011	0	-100	0	230	101300000	1000	0	0	-1	100
26470875	5970	1016	0	-100	0	230	101300000	1000	0	0	-1	100
26483435	5972	997	0	-100	0	230	101300000	1000	0	0	-1	100
26495995	5976	1010	0	-100	0	230	101300000	1000	0	0	-1	100
26508555	5970	1001	0	-100	0	230	101300000	1000	0	0	-1	100
26521115	5970	987	0	-100	0	230	101300000	1000	0	0	-1	100
26533675	5973	999	0	-100	0	230	101300000	1000	0	0	-1	100
26546235	5975	998	0	-100	0	230	101300000	1000	0	0	-1	100
26558795	5974	992	0	-100	0	230	101300000	1000	0	0	-1	100
26571355	5972	1004	0	-100	0	230	101300000	1000	0	0	-1	100
26583915	5966	991	0	-100	0	230	101300000	1000	0	0	-1	100
26596475	5982	989	0	-100	0	230	101300000	1000	0	0	-1	100
26609035	5980	991	0	-100	0	230	101300000	1000	0	0	-1	100
26621595	5972	991	0	-100	0	230	101300000	1000	0	0	-1	100
26634155	5979	999	0	-100	0	230	101300000	1000	0	0	-1	100
26646715	5973	1005	0	-100	0	230	101300000	1000	0	0	-1	100
26659275	5976	1005	0	-100	0	230	101300000	1000	0	0	-1	100
26671835	5975	1006	0	-100	0	230	101300000	1000	0	0	-1	100
26684395	5970	1000	0	-100	0	230	101300000	1000	0	0	-1	100
26696955	5971	992	0	-100	0	230	101300000	1000	0	0	-1	100
26709515	5972	1000	0	-100	0	230	101300000	1000	0	0	-1	100
26722075	5972	1003	0	-100	0	230	101300000	1000	0	0	-1	100
26734635	5976	1002	0	-100	0	230	101300000	1000	0	0	-1	100
26747195	5968	990	0	-100	0	230	101300000	1000	0	0	-1	100
26759755	5969	998	0	-100	0	230	101300000	1000	0	0	-1	100
26772315	5970	997	0	-100	0	230	101300000	1000	0	0	-1	100
26784875	5965	993	0	-100	0	230	101300000	1000	0	0	-1	100
26797435	5973	1006	0	-100	0	230	101300000	1000	0	0	-1	100
26809995	5974	1000	0	-100	0	230	101300000	1000	0	0	-1	100
26822555	5977	1005	0	-100	0	230	101300000	1000	0	0	-1	100
26835115	5971	987	0	-100	0	230	101300000	1000	0	0	-1	100
26847675	5974	1002	0	-100	0	230	101300000	1000	0	0	-1	100
26860235	5975	1009	0	-100	0	230	101300000	1000	0	0	-1	100
26872795	5979	1007	0	-100	0	230	101300000	1000	0	0	-1	100
26885355	5975	1006	0	-100	0	230	101300000	1000	0	0	-1	100
26897915	5980	1008	0	-100	0	230	101300000	1000	0	0	-1	100
26910475	5974	995	0	-100	0	230	101300000	1000	0	0	-1	100
26923035	5974	992	0	-100	0	230	101300000	1000	0	0	-1	100
26935595	5968	1004	0	-100	0	230	101300000	1000	0	0	-1	100
26948155	5978	1007	0	-100	0	230	101300000	1000	0	0	-1	100
26960715	5970	993	0	-100	0	230	101300000	1000	0	0	-1	100
26973275	5973	1016	0	-100	0	230	101300000	1000	0	0	-1	100
26985835	5970	1004	0	-100	0	230	101300000	1000	0	0	-1	100
26998395	5973	1001	0	-100	0	230	101300000	1000	0	0	-1	100
27010955	5974	995	0	-100	0	230	101300000	1000	0	0	-1	100
27023515	5977	1004	0	-100	0	230	101300000	1000	0	0	-1	100
27036075	5975	991	0	-100	0	230	101300000	1000	0	0	-1	100
27048635	5971	1013	0	-100	0	230	101300000	1000	0	0	-1	100
