timestamp	voltage	current	windSpeed	pitchAngle	rpm	temperature	ambientPressure	humidity	accelerationX	accelerationY	accelerationZ	currentSink
7039070	6017	844	0	-100	0	230	101300000	1000	0	0	-1	0
7046523	6017	852	0	-100	0	230	101300000	1000	0	0	-1	0
7059083	6016	855	0	-100	0	230	101300000	1000	0	0	-1	0
7071643	6025	851	0	-100	0	230	101300000	1000	0	0	-1	0
7084203	6014	862	0	-100	0	230	101300000	1000	0	0	-1	0
7096763	6029	855	0	-100	0	230	101300000	1000	0	0	-1	0
7109323	6016	854	0	-100	0	230	101300000	1000	0	0	-1	0
7121883	6026	857	0	-100	0	230	101300000	1000	0	0	-1	0
7134443	6020	851	0	-100	0	230	101300000	1000	0	0	-1	0
7147004	6022	859	0	-100	0	230	101300000	1000	0	0	-1	0
7159563	6027	857	0	-100	0	230	101300000	1000	0	0	-1	0
7172123	6017	864	0	-100	0	230	101300000	1000	0	0	-1	0
7184683	6016	849	0	-100	0	230	101300000	1000	0	0	-1	0
7197243	6017	861	0	-100	0	230	101300000	1000	0	0	-1	0
7209803	6026	850	0	-100	0	230	101300000	1000	0	0	-1	0
7222363	6019	838	0	-100	0	230	101300000	1000	0	0	-1	0
7234923	6017	849	0	-100	0	230	101300000	1000	0	0	-1	0
7247483	6024	850	0	-100	0	230	101300000	1000	0	0	-1	0
7260043	6021	852	0	-100	0	230	101300000	1000	0	0	-1	0
7272603	6018	854	0	-100	0	230	101300000	1000	0	0	-1	0
7285163	6016	853	0	-100	0	230	101300000	1000	0	0	-1	0
7297723	6023	853	0	-100	0	230	101300000	1000	0	0	-1	0
7310283	6017	863	0	-100	0	230	101300000	1000	0	0	-1	0
7322843	6021	862	0	-100	0	230	101300000	1000	0	0	-1	0
7335403	6027	855	0	-100	0	230	101300000	1000	0	0	-1	0
7347963	6015	852	0	-100	0	230	101300000	1000	0	0	-1	0
7693675	5960	1065	0	-100	0	230	101300000	1000	0	0	-1	150
7706235	5967	1070	0	-100	0	230	101300000	1000	0	0	-1	150
7718795	5961	1055	0	-100	0	230	101300000	1000	0	0	-1	150
7731355	5966	1068	0	-100	0	230	101300000	1000	0	0	-1	150
7743915	5967	1056	0	-100	0	230	101300000	1000	0	0	-1	150
7756475	5959	1061	0	-100	0	230	101300000	1000	0	0	-1	150
7769035	5961	1061	0	-100	0	230	101300000	1000	0	0	-1	150
7781595	5961	1059	0	-100	0	230	101300000	1000	0	0	-1	150
7794155	5966	1057	0	-100	0	230	101300000	1000	0	0	-1	150
7806715	5960	1065	0	-100	0	230	101300000	1000	0	0	-1	150
7819275	5966	1062	0	-100	0	230	101300000	1000	0	0	-1	150
7831835	5970	1065	0	-100	0	230	101300000	1000	0	0	-1	150
7844395	5956	1056	0	-100	0	230	101300000	1000	0	0	-1	150
7856955	5968	1067	0	-100	0	230	101300000	1000	0	0	-1	150
7869515	5959	1059	0	-100	0	230	101300000	1000	0	0	-1	150
7882075	5962	1054	0	-100	0	230	101300000	1000	0	0	-1	150
7894635	5960	1055	0	-100	0	230	101300000	1000	0	0	-1	150
7907195	5962	1069	0	-100	0	230	101300000	1000	0	0	-1	150
7919755	5967	1067	0	-100	0	230	101300000	1000	0	0	-1	150
7932315	5964	1061	0	-100	0	230	101300000	1000	0	0	-1	150
7944875	5965	1063	0	-100	0	230	101300000	1000	0	0	-1	150
7957435	5958	1062	0	-100	0	230	101300000	1000	0	0	-1	150
7969995	5962	1066	0	-100	0	230	101300000	1000	0	0	-1	150
7982555	5967	1057	0	-100	0	230	101300000	1000	0	0	-1	150
7995115	5959	1063	0	-100	0	230	101300000	1000	0	0	-1	150
8007675	5966	1062	0	-100	0	230	101300000	1000	0	0	-1	150
8020235	5961	1074	0	-100	0	230	101300000	1000	0	0	-1	150
8032795	5966	1074	0	-100	0	230	101300000	1000	0	0	-1	150
8045355	5963	1063	0	-100	0	230	101300000	1000	0	0	-1	150
8057915	5966	1063	0	-100	0	230	101300000	1000	0	0	-1	150
8070475	5968	1059	0	-100	0	230	101300000	1000	0	0	-1	150
8083035	5966	1056	0	-100	0	230	101300000	1000	0	0	-1	150
8095595	5963	1063	0	-100	0	230	101300000	1000	0	0	-1	150
8108155	5967	1064	0	-100	0	230	101300000	1000	0	0	-1	150
8120715	5960	1060	0	-100	0	230	101300000	1000	0	0	-1	150
8133275	5970	1057	0	-100	0	230	101300000	1000	0	0	-1	150
8145835	5962	1056	0	-100	0	230	101300000	1000	0	0	-1	150
8158395	5966	1068	0	-100	0	230	101300000	1000	0	0	-1	150
8170955	5968	1063	0	-100	0	230	101300000	1000	0	0	-1	150
8183515	5964	1058	0	-100	0	230	101300000	1000	0	0	-1	150
8196075	5967	1047	0	-100	0	230	101300000	1000	0	0	-1	150
8208635	5962	1064	0	-100	0	230	101300000	1000	0	0	-1	150
8221195	5968	1065	0	-100	0	230	101300000	1000	0	0	-1	150
8233755	5962	1060	0	-100	0	230	101300000	1000	0	0	-1	150
8246315	5963	1053	0	-100	0	230	101300000	1000	0	0	-1	150
8258875	5965	1056	0	-100	0	230	101300000	1000	0	0	-1	150
8271435	5960	1063	0	-100	0	230	101300000	1000	0	0	-1	150
8283995	5966	1066	0	-100	0	230	101300000	1000	0	0	-1	150
8296555	5958	1053	0	-100	0	230	101300000	1000	0	0	-1	150
8309115	5964	1069	0	-100	0	230	101300000	1000	0	0	-1	150
8321675	5957	1065	0	-100	0	230	101300000	1000	0	0	-1	150
8334235	5973	1071	0	-100	0	230	101300000	1000	0	0	-1	150
8346795	5960	1055	0	-100	0	230	101300000	1000	0	0	-1	150
8359355	5964	1057	0	-100	0	230	101300000	1000	0	0	-1	150
8371915	5960	1066	0	-100	0	230	101300000	1000	0	0	-1	150
8384475	5959	1064	0	-100	0	230	101300000	1000	0	0	-1	150
8397035	5967	1064	0	-100	0	230	101300000	1000	0	0	-1	150
8409595	5962	1066	0	-100	0	230	101300000	1000	0	0	-1	150
8422155	5958	1054	0	-100	0	230	101300000	1000	0	0	-1	150
8434715	5963	1056	0	-100	0	230	101300000	1000	0	0	-1	150
8447275	5964	1074	0	-100	0	230	101300000	1000	0	0	-1	150
8459835	5957	1054	0	-100	0	230	101300000	1000	0	0	-1	150
8472395	5966	1063	0	-100	0	230	101300000	1000	0	0	-1	150
8484955	5962	1063	0	-100	0	230	101300000	1000	0	0	-1	150
8497515	5967	1065	0	-100	0	230	101300000	1000	0	0	-1	150
8510075	5962	1053	0	-100	0	230	101300000	1000	0	0	-1	150
8522635	5961	1050	0	-100	0	230	101300000	1000	0	0	-1	150
8535195	5967	1054	0	-100	0	230	101300000	1000	0	0	-1	150
8547755	5963	1073	0	-100	0	230	101300000	1000	0	0	-1	150
8560315	5966	1052	0	-100	0	230	101300000	1000	0	0	-1	150
8572875	5960	1060	0	-100	0	230	101300000	1000	0	0	-1	150
8585435	5964	1053	0	-100	0	230	101300000	1000	0	0	-1	150
8597995	5967	1064	0	-100	0	230	101300000	1000	0	0	-1	150
8610555	5961	1057	0	-100	0	230	101300000	1000	0	0	-1	150
8623115	5965	1062	0	-100	0	230	101300000	1000	0	0	-1	150
8635675	5966	1063	0	-100	0	230	101300000	1000	0	0	-1	150
8648235	5960	1056	0	-100	0	230	101300000	1000	0	0	-1	150
8660795	5973	1058	0	-100	0	230	101300000	1000	0	0	-1	150
8673355	5966	1070	0	-100	0	230	101300000	1000	0	0	-1	150
8685915	5966	1063	0	-100	0	230	101300000	1000	0	0	-1	150
8698475	5957	1067	0	-100	0	230	101300000	1000	0	0	-1	150
8711035	5960	1060	0	-100	0	230	101300000	1000	0	0	-1	150
8723595	5963	1062	0	-100	0	230	101300000	1000	0	0	-1	150
8736155	5957	1053	0	-100	0	230	101300000	1000	0	0	-1	150
8748715	5962	1057	0	-100	0	230	101300000	1000	0	0	-1	150
8761275	5962	1065	0	-100	0	230	101300000	1000	0	0	-1	150
8773835	5966	1060	0	-100	0	230	101300000	1000	0	0	-1	150
8786395	5964	1057	0	-100	0	230	101300000	1000	0	0	-1	150
8798955	5964	1059	0	-100	0	230	101300000	1000	0	0	-1	150
8811515	5957	1056	0	-100	0	230	101300000	1000	0	0	-1	150
8824075	5963	1052	0	-100	0	230	101300000	1000	0	0	-1	150
8836635	5954	1069	0	-100	0	230	101300000	1000	0	0	-1	150
8849195	5970	1064	0	-100	0	230	101300000	1000	0	0	-1	150
8861755	5957	1066	0	-100	0	230	101300000	1000	0	0	-1	150
8874315	5964	1061	0	-100	0	230	101300000	1000	0	0	-1	150
8886875	5963	1051	0	-100	0	230	101300000	1000	0	0	-1	150
8899435	5962	1061	0	-100	0	230	101300000	1000	0	0	-1	150
8911995	5958	1060	0	-100	0	230	101300000	1000	0	0	-1	150
8924555	5962	1063	0	-100	0	230	101300000	1000	0	0	-1	150
8937115	5959	1056	0	-100	0	230	101300000	1000	0	0	-1	150
8949675	5973	1061	0	-100	0	230	101300000	1000	0	0	-1	150
8962235	5962	1061	0	-100	0	230	101300000	1000	0	0	-1	150
8974795	5967	1052	0	-100	0	230	101300000	1000	0	0	-1	150
8987355	5957	1047	0	-100	0	230	101300000	1000	0	0	-1	150
8999915	5960	1068	0	-100	0	230	101300000	1000	0	0	-1	150
9012475	5964	1062	0	-100	0	230	101300000	1000	0	0	-1	150
9025035	5963	1066	0	-100	0	230	101300000	1000	0	0	-1	150
9037595	5962	1069	0	-100	0	230	101300000	1000	0	0	-1	150
9050155	5963	1065	0	-100	0	230	101300000	1000	0	0	-1	150
9062715	5969	1063	0	-100	0	230	101300000	1000	0	0	-1	150
9075275	5962	1060	0	-100	0	230	101300000	1000	0	0	-1	150
9087835	5960	1060	0	-100	0	230	101300000	1000	0	0	-1	150
9100395	5968	1061	0	-100	0	230	101300000	1000	0	0	-1	150
9112955	5962	1054	0	-100	0	230	101300000	1000	0	0	-1	150
9125515	5969	1058	0	-100	0	230	101300000	1000	0	0	-1	150
9138075	5959	1053	0	-100	0	230	101300000	1000	0	0	-1	150
9150635	5971	1064	0	-100	0	230	101300000	1000	0	0	-1	150
9163195	5961	1063	0	-100	0	230	101300000	1000	0	0	-1	150
9175755	5966	1067	0	-100	0	230	101300000	1000	0	0	-1	150
9188315	5956	1064	0	-100	0	230	101300000	1000	0	0	-1	150
9200875	5971	1062	0	-100	0	230	101300000	1000	0	0	-1	150
9213435	5962	1054	0	-100	0	230	101300000	1000	0	0	-1	150
9225995	5966	1067	0	-100	0	230	101300000	1000	0	0	-1	150
9238555	5960	1063	0	-100	0	230	101300000	1000	0	0	-1	150
9251115	5963	1057	0	-100	0	230	101300000	1000	0	0	-1	150
9263675	5962	1056	0	-100	0	230	101300000	1000	0	0	-1	150
9276235	5966	1066	0	-100	0	230	101300000	1000	0	0	-1	150
9288795	5964	1058	0	-100	0	230	101300000	1000	0	0	-1	150
9301355	5963	1069	0	-100	0	230	101300000	1000	0	0	-1	150
9313915	5963	1061	0	-100	0	230	101300000	1000	0	0	-1	150
9326475	5958	1056	0	-100	0	230	101300000	1000	0	0	-1	150
9339035	5966	1055	0	-100	0	230	101300000	1000	0	0	-1	150
9351595	5963	1064	0	-100	0	230	101300000	1000	0	0	-1	150
9364155	5963	1043	0	-100	0	230	101300000	1000	0	0	-1	150
9376715	5964	1053	0	-100	0	230	101300000	1000	0	0	-1	150
9389275	5958	1056	0	-100	0	230	101300000	1000	0	0	-1	150
9401835	5971	1053	0	-100	0	230	101300000	1000	0	0	-1	150
9414395	5959	1059	0	-100	0	230	101300000	1000	0	0	-1	150
9426955	5966	1059	0	-100	0	230	101300000	1000	0	0	-1	150
9439515	5967	1057	0	-100	0	230	101300000	1000	0	0	-1	150
9452075	5966	1059	0	-100	0	230	101300000	1000	0	0	-1	150
9464635	5961	1070	0	-100	0	230	101300000	1000	0	0	-1	150
9477195	5962	1056	0	-100	0	230	101300000	1000	0	0	-1	150
9489755	5962	1055	0	-100	0	230	101300000	1000	0	0	-1	150
9502315	5970	1054	0	-100	0	230	101300000	1000	0	0	-1	150
9514875	5962	1064	0	-100	0	230	101300000	1000	0	0	-1	150
9527435	5962	1056	0	-100	0	230	101300000	1000	0	0	-1	150
9539995	5963	1063	0	-100	0	230	101300000	1000	0	0	-1	150
9552555	5964	1060	0	-100	0	230	101300000	1000	0	0	-1	150
9565115	5966	1058	0	-100	0	230	101300000	1000	0	0	-1	150
9577675	5962	1056	0	-100	0	230	101300000	1000	0	0	-1	150
9590235	5973	1068	0	-100	0	230	101300000	1000	0	0	-1	150
9602795	5966	1063	0	-100	0	230	101300000	1000	0	0	-1	150
9615355	5962	1064	0	-100	0	230	101300000	1000	0	0	-1	150
9627915	5962	1062	0	-100	0	230	101300000	1000	0	0	-1	150
9640475	5963	1062	0	-100	0	230	101300000	1000	0	0	-1	150
9653035	5962	1057	0	-100	0	230	101300000	1000	0	0	-1	150
9665595	5962	1064	0	-100	0	230	101300000	1000	0	0	-1	150
9678155	5968	1063	0	-100	0	230	101300000	1000	0	0	-1	150
9690715	5962	1056	0	-100	0	230	101300000	1000	0	0	-1	150
9703275	5970	1068	0	-100	0	230	101300000	1000	0	0	-1	150
9715835	5962	1053	0	-100	0	230	101300000	1000	0	0	-1	150
9728395	5965	1060	0	-100	0	230	101300000	1000	0	0	-1	150
9740955	5963	1057	0	-100	0	230	101300000	1000	0	0	-1	150
9753515	5962	1057	0	-100	0	230	101300000	1000	0	0	-1	150
9766075	5962	1061	0	-100	0	230	101300000	1000	0	0	-1	150
9778635	5964	1060	0	-100	0	230	101300000	1000	0	0	-1	150
9791195	5962	1056	0	-100	0	230	101300000	1000	0	0	-1	150
9803755	5966	1054	0	-100	0	230	101300000	1000	0	0	-1	150
9816315	5957	1053	0	-100	0	230	101300000	1000	0	0	-1	150
9828875	5971	1068	0	-100	0	230	101300000	1000	0	0	-1	150
9841435	5961	1055	0	-100	0	230	101300000	1000	0	0	-1	150
9853995	5969	1056	0	-100	0	230	101300000	1000	0	0	-1	150
9866555	5966	1067	0	-100	0	230	101300000	1000	0	0	-1	150
9879115	5965	1055	0	-100	0	230	101300000	1000	0	0	-1	150
9891675	5966	1069	0	-100	0	230	101300000	1000	0	0	-1	150
9904235	5964	1057	0	-100	0	230	101300000	1000	0	0	-1	150
9916795	5962	1058	0	-100	0	230	101300000	1000	0	0	-1	150
9929355	5965	1057	0	-100	0	230	101300000	1000	0	0	-1	150
9941915	5959	1073	0	-100	0	230	101300000	1000	0	0	-1	150
9954475	5966	1064	0	-100	0	230	101300000	1000	0	0	-1	150
9967035	5960	1056	0	-100	0	230	101300000	1000	0	0	-1	150
9979595	5968	1054	0	-100	0	230	101300000	1000	0	0	-1	150
9992155	5962	1075	0	-100	0	230	101300000	1000	0	0	-1	150
10004715	5966	1059	0	-100	0	230	101300000	1000	0	0	-1	150
10017275	5963	1063	0	-100	0	230	101300000	1000	0	0	-1	150
10029835	5964	1053	0	-100	0	230	101300000	1000	0	0	-1	150
10042395	5973	1056	0	-100	0	230	101300000	1000	0	0	-1	150
10054955	5966	1060	0	-100	0	230	101300000	1000	0	0	-1	150
10067515	5962	1064	0	-100	0	230	101300000	1000	0	0	-1	150
10080075	5968	1056	0	-100	0	230	101300000	1000	0	0	-1	150
10092635	5962	1068	0	-100	0	230	101300000	1000	0	0	-1	150
10105195	5963	1058	0	-100	0	230	101300000	1000	0	0	-1	150
10117755	5962	1060	0	-100	0	230	101300000	1000	0	0	-1	150
10130315	5960	1069	0	-100	0	230	101300000	1000	0	0	-1	150
10142875	5967	1061	0	-100	0	230	101300000	1000	0	0	-1	150
10155435	5960	1069	0	-100	0	230	101300000	1000	0	0	-1	150
10167995	5962	1061	0	-100	0	230	101300000	1000	0	0	-1	150
10180555	5969	1051	0	-100	0	230	101300000	1000	0	0	-1	150
10193115	5962	1076	0	-100	0	230	101300000	1000	0	0	-1	150
10205675	5964	1058	0	-100	0	230	101300000	1000	0	0	-1	150
10218235	5964	1070	0	-100	0	230	101300000	1000	0	0	-1	150
10230795	5962	1061	0	-100	0	230	101300000	1000	0	0	-1	150
10243355	5966	1064	0	-100	0	230	101300000	1000	0	0	-1	150
10255915	5962	1060	0	-100	0	230	101300000	1000	0	0	-1	150
10268475	5961	1054	0	-100	0	230	101300000	1000	0	0	-1	150
10281035	5969	1056	0	-100	0	230	101300000	1000	0	0	-1	150
10293595	5967	1065	0	-100	0	230	101300000	1000	0	0	-1	150
10306155	5963	1059	0	-100	0	230	101300000	1000	0	0	-1	150
10318715	5962	1053	0	-100	0	230	101300000	1000	0	0	-1	150
10331275	5969	1049	0	-100	0	230	101300000	1000	0	0	-1	150
10343835	5963	1059	0	-100	0	230	101300000	1000	0	0	-1	150
10356395	5962	1060	0	-100	0	230	101300000	1000	0	0	-1	150
10368955	5966	1070	0	-100	0	230	101300000	1000	0	0	-1	150
10381515	5957	1059	0	-100	0	230	101300000	1000	0	0	-1	150
10394075	5958	1058	0	-100	0	230	101300000	1000	0	0	-1	150
10406635	5965	1062	0	-100	0	230	101300000	1000	0	0	-1	150
10419195	5969	1057	0	-100	0	230	101300000	1000	0	0	-1	150
10431755	5964	1070	0	-100	0	230	101300000	1000	0	0	-1	150
10444315	5965	1055	0	-100	0	230	101300000	1000	0	0	-1	150
10456875	5962	1056	0	-100	0	230	101300000	1000	0	0	-1	150
10469435	5966	1064	0	-100	0	230	101300000	1000	0	0	-1	150
10481995	5963	1063	0	-100	0	230	101300000	1000	0	0	-1	150
10494555	5964	1061	0	-100	0	230	101300000	1000	0	0	-1	150
10507115	5962	1053	0	-100	0	230	101300000	1000	0	0	-1	150
10519675	5961	1053	0	-100	0	230	101300000	1000	0	0	-1	150
10532235	5958	1057	0	-100	0	230	101300000	1000	0	0	-1	150
10544795	5969	1066	0	-100	0	230	101300000	1000	0	0	-1	150
10557355	5961	1055	0	-100	0	230	101300000	1000	0	0	-1	150
10569915	5966	1058	0	-100	0	230	101300000	1000	0	0	-1	150
10582475	5964	1058	0	-100	0	230	101300000	1000	0	0	-1	150
10595035	5967	1060	0	-100	0	230	101300000	1000	0	0	-1	150
10607595	5964	1067	0	-100	0	230	101300000	1000	0	0	-1	150
10620155	5969	1059	0	-100	0	230	101300000	1000	0	0	-1	150
10632715	5960	1061	0	-100	0	230	101300000	1000	0	0	-1	150
10645275	5967	1065	0	-100	0	230	101300000	1000	0	0	-1	150
10657835	5957	1066	0	-100	0	230	101300000	1000	0	0	-1	150
10670395	5966	1078	0	-100	0	230	101300000	1000	0	0	-1	150
10682955	5958	1055	0	-100	0	230	101300000	1000	0	0	-1	150
10695515	5967	1060	0	-100	0	230	101300000	1000	0	0	-1	150
10708075	5962	1055	0	-100	0	230	101300000	1000	0	0	-1	150
10720635	5965	1056	0	-100	0	230	101300000	1000	0	0	-1	150
10733195	5963	1066	0	-100	0	230	101300000	1000	0	0	-1	150
10745755	5962	1055	0	-100	0	230	101300000	1000	0	0	-1	150
10758315	5959	1063	0	-100	0	230	101300000	1000	0	0	-1	150
10770875	5964	1061	0	-100	0	230	101300000	1000	0	0	-1	150
10783435	5964	1058	0	-100	0	230	101300000	1000	0	0	-1	150
10795995	5957	1065	0	-100	0	230	101300000	1000	0	0	-1	150
10808555	5966	1058	0	-100	0	230	101300000	1000	0	0	-1	150
10821115	5962	1057	0	-100	0	230	101300000	1000	0	0	-1	150
10833675	5967	1063	0	-100	0	230	101300000	1000	0	0	-1	150
10846235	5965	1052	0	-100	0	230	101300000	1000	0	0	-1	150
10858795	5960	1054	0	-100	0	230	101300000	1000	0	0	-1	150
10871355	5970	1066	0	-100	0	230	101300000	1000	0	0	-1	150
10883915	5962	1074	0	-100	0	230	101300000	1000	0	0	-1	150
10896475	5965	1051	0	-100	0	230	101300000	1000	0	0	-1	150
10909035	5962	1047	0	-100	0	230	101300000	1000	0	0	-1	150
10921595	5958	1057	0	-100	0	230	101300000	1000	0	0	-1	150
10934155	5968	1063	0	-100	0	230	101300000	1000	0	0	-1	150
10946715	5962	1062	0	-100	0	230	101300000	1000	0	0	-1	150
10959275	5962	1060	0	-100	0	230	101300000	1000	0	0	-1	150
10971835	5958	1058	0	-100	0	230	101300000	1000	0	0	-1	150
10984395	5969	1061	0	-100	0	230	101300000	1000	0	0	-1	150
10996955	5958	1068	0	-100	0	230	101300000	1000	0	0	-1	150
11009515	5963	1066	0	-100	0	230	101300000	1000	0	0	-1	150
11022075	5962	1054	0	-100	0	230	101300000	1000	0	0	-1	150
11034635	5966	1058	0	-100	0	230	101300000	1000	0	0	-1	150
11047195	5963	1059	0	-100	0	230	101300000	1000	0	0	-1	150
11059755	5962	1047	0	-100	0	230	101300000	1000	0	0	-1	150
11072315	5958	1058	0	-100	0	230	101300000	1000	0	0	-1	150
11084875	5973	1054	0	-100	0	230	101300000	1000	0	0	-1	150
11097435	5962	1064	0	-100	0	230	101300000	1000	0	0	-1	150
11109995	5965	1060	0	-100	0	230	101300000	1000	0	0	-1	150
11122555	5962	1051	0	-100	0	230	101300000	1000	0	0	-1	150
11135115	5962	1076	0	-100	0	230	101300000	1000	0	0	-1	150
11147675	5964	1050	0	-100	0	230	101300000	1000	0	0	-1	150
11160235	5969	1057	0	-100	0	230	101300000	1000	0	0	-1	150
11172795	5964	1057	0	-100	0	230	101300000	1000	0	0	-1	150
11185355	5967	1064	0	-100	0	230	101300000	1000	0	0	-1	150
11197915	5960	1060	0	-100	0	230	101300000	1000	0	0	-1	150
11210475	5958	1063	0	-100	0	230	101300000	1000	0	0	-1	150
11223035	5969	1062	0	-100	0	230	101300000	1000	0	0	-1	150
11235595	5966	1068	0	-100	0	230	101300000	1000	0	0	-1	150
11248155	5966	1056	0	-100	0	230	101300000	1000	0	0	-1	150
11260715	5962	1062	0	-100	0	230	101300000	1000	0	0	-1	150
11273275	5966	1064	0	-100	0	230	101300000	1000	0	0	-1	150
11285835	5961	1057	0	-100	0	230	101300000	1000	0	0	-1	150
11298395	5969	1072	0	-100	0	230	101300000	1000	0	0	-1	150
11310955	5955	1059	0	-100	0	230	101300000	1000	0	0	-1	150
11323515	5968	1064	0	-100	0	230	101300000	1000	0	0	-1	150
11336075	5964	1075	0	-100	0	230	101300000	1000	0	0	-1	150
11348635	5965	1051	0	-100	0	230	101300000	1000	0	0	-1	150
11361195	5960	1064	0	-100	0	230	101300000	1000	0	0	-1	150
11373755	5965	1060	0	-100	0	230	101300000	1000	0	0	-1	150
11386315	5963	1053	0	-100	0	230	101300000	1000	0	0	-1	150
11398875	5963	1060	0	-100	0	230	101300000	1000	0	0	-1	150
11411435	5963	1059	0	-100	0	230	101300000	1000	0	0	-1	150
11423995	5964	1052	0	-100	0	230	101300000	1000	0	0	-1	150
11436555	5964	1058	0	-100	0	230	101300000	1000	0	0	-1	150
11449115	5958	1064	0	-100	0	230	101300000	1000	0	0	-1	150
11461675	5960	1054	0	-100	0	230	101300000	1000	0	0	-1	150
11474235	5962	1067	0	-100	0	230	101300000	1000	0	0	-1	150
11486795	5964	1065	0	-100	0	230	101300000	1000	0	0	-1	150
11499355	5962	1063	0	-100	0	230	101300000	1000	0	0	-1	150
11511915	5967	1053	0	-100	0	230	101300000	1000	0	0	-1	150
11524475	5963	1064	0	-100	0	230	101300000	1000	0	0	-1	150
11537035	5969	1052	0	-100	0	230	101300000	1000	0	0	-1	150
11549595	5963	1057	0	-100	0	230	101300000	1000	0	0	-1	150
11562155	5965	1050	0	-100	0	230	101300000	1000	0	0	-1	150
11574715	5962	1068	0	-100	0	230	101300000	1000	0	0	-1	150
11587275	5966	1061	0	-100	0	230	101300000	1000	0	0	-1	150
11599835	5963	1062	0	-100	0	230	101300000	1000	0	0	-1	150
11612395	5966	1053	0	-100	0	230	101300000	1000	0	0	-1	150
11624955	5962	1061	0	-100	0	230	101300000	1000	0	0	-1	150
11637515	5973	1066	0	-100	0	230	101300000	1000	0	0	-1	150
11650075	5962	1050	0	-100	0	230	101300000	1000	0	0	-1	150
11662635	5973	1062	0	-100	0	230	101300000	1000	0	0	-1	150
11675195	5958	1056	0	-100	0	230	101300000	1000	0	0	-1	150
11687755	5966	1069	0	-100	0	230	101300000	1000	0	0	-1	150
11700315	5962	1060	0	-100	0	230	101300000	1000	0	0	-1	150
11712875	5958	1061	0	-100	0	230	101300000	1000	0	0	-1	150
11725435	5961	1059	0	-100	0	230	101300000	1000	0	0	-1	150
11737995	5966	1062	0	-100	0	230	101300000	1000	0	0	-1	150
11750555	5962	1059	0	-100	0	230	101300000	1000	0	0	-1	150
11763115	5957	1061	0	-100	0	230	101300000	1000	0	0	-1	150
11775675	5961	1059	0	-100	0	230	101300000	1000	0	0	-1	150
11788235	5960	1066	0	-100	0	230	101300000	1000	0	0	-1	150
11800795	5967	1055	0	-100	0	230	101300000	1000	0	0	-1	150
11813355	5961	1059	0	-100	0	230	101300000	1000	0	0	-1	150
11825915	5963	1052	0	-100	0	230	101300000	1000	0	0	-1	150
11838475	5960	1060	0	-100	0	230	101300000	1000	0	0	-1	150
11851035	5962	1061	0	-100	0	230	101300000	1000	0	0	-1	150
11863595	5967	1064	0	-100	0	230	101300000	1000	0	0	-1	150
11876155	5961	1052	0	-100	0	230	101300000	1000	0	0	-1	150
11888715	5969	1066	0	-100	0	230	101300000	1000	0	0	-1	150
11901275	5962	1071	0	-100	0	230	101300000	1000	0	0	-1	150
11913835	5965	1062	0	-100	0	230	101300000	1000	0	0	-1	150
11926395	5959	1067	0	-100	0	230	101300000	1000	0	0	-1	150
11938955	5963	1057	0	-100	0	230	101300000	1000	0	0	-1	150
11951515	5962	1069	0	-100	0	230	101300000	1000	0	0	-1	150
11964075	5962	1055	0	-100	0	230	101300000	1000	0	0	-1	150
11976635	5966	1066	0	-100	0	230	101300000	1000	0	0	-1	150
11989195	5963	1061	0	-100	0	230	101300000	1000	0	0	-1	150
12001755	5969	1058	0	-100	0	230	101300000	1000	0	0	-1	150
12014315	5958	1065	0	-100	0	230	101300000	1000	0	0	-1	150
12026875	5970	1063	0	-100	0	230	101300000	1000	0	0	-1	150
12039435	5961	1065	0	-100	0	230	101300000	1000	0	0	-1	150
12051995	5966	1060	0	-100	0	230	101300000	1000	0	0	-1	150
12064555	5961	1050	0	-100	0	230	101300000	1000	0	0	-1	150
12077115	5957	1062	0	-100	0	230	101300000	1000	0	0	-1	150
12089675	5964	1061	0	-100	0	230	101300000	1000	0	0	-1	150
12102235	5965	1053	0	-100	0	230	101300000	1000	0	0	-1	150
12114795	5958	1059	0	-100	0	230	101300000	1000	0	0	-1	150
12127355	5970	1064	0	-100	0	230	101300000	1000	0	0	-1	150
12139915	5960	1068	0	-100	0	230	101300000	1000	0	0	-1	150
12152475	5966	1060	0	-100	0	230	101300000	1000	0	0	-1	150
12165035	5958	1058	0	-100	0	230	101300000	1000	0	0	-1	150
12177595	5970	1071	0	-100	0	230	101300000	1000	0	0	-1	150
12190155	5960	1068	0	-100	0	230	101300000	1000	0	0	-1	150
12202715	5966	1071	0	-100	0	230	101300000	1000	0	0	-1	150
12215275	5962	1055	0	-100	0	230	101300000	1000	0	0	-1	150
12227835	5957	1051	0	-100	0	230	101300000	1000	0	0	-1	150
12240395	5965	1062	0	-100	0	230	101300000	1000	0	0	-1	150
12252955	5966	1060	0	-100	0	230	101300000	1000	0	0	-1	150
12265515	5967	1060	0	-100	0	230	101300000	1000	0	0	-1	150
12278075	5962	1066	0	-100	0	230	101300000	1000	0	0	-1	150
12290635	5962	1059	0	-100	0	230	101300000	1000	0	0	-1	150
12303195	5964	1055	0	-100	0	230	101300000	1000	0	0	-1	150
12315755	5965	1067	0	-100	0	230	101300000	1000	0	0	-1	150
12328315	5962	1054	0	-100	0	230	101300000	1000	0	0	-1	150
12340875	5968	1066	0	-100	0	230	101300000	1000	0	0	-1	150
12353435	5964	1057	0	-100	0	230	101300000	1000	0	0	-1	150
12365995	5968	1068	0	-100	0	230	101300000	1000	0	0	-1	150
12378555	5960	1060	0	-100	0	230	101300000	1000	0	0	-1	150
12391115	5963	1050	0	-100	0	230	101300000	1000	0	0	-1	150
12403675	5962	1066	0	-100	0	230	101300000	1000	0	0	-1	150
12416235	5962	1057	0	-100	0	230	101300000	1000	0	0	-1	150
12428795	5968	1055	0	-100	0	230	101300000	1000	0	0	-1	150
12441355	5962	1055	0	-100	0	230	101300000	1000	0	0	-1	150
12453915	5966	1053	0	-100	0	230	101300000	1000	0	0	-1	150
12466475	5959	1065	0	-100	0	230	101300000	1000	0	0	-1	150
12479035	5962	1071	0	-100	0	230	101300000	1000	0	0	-1	150
12491595	5967	1060	0	-100	0	230	101300000	1000	0	0	-1	150
12504155	5958	1057	0	-100	0	230	101300000	1000	0	0	-1	150
12516715	5970	1050	0	-100	0	230	101300000	1000	0	0	-1	150
12529275	5956	1059	0	-100	0	230	101300000	1000	0	0	-1	150
12541835	5971	1061	0	-100	0	230	101300000	1000	0	0	-1	150
12554395	5962	1056	0	-100	0	230	101300000	1000	0	0	-1	150
12566955	5969	1063	0	-100	0	230	101300000	1000	0	0	-1	150
12579515	5963	1068	0	-100	0	230	101300000	1000	0	0	-1	150
12592075	5966	1051	0	-100	0	230	101300000	1000	0	0	-1	150
12604635	5963	1063	0	-100	0	230	101300000	1000	0	0	-1	150
12617195	5958	1051	0	-100	0	230	101300000	1000	0	0	-1	150
12629755	5968	1063	0	-100	0	230	101300000	1000	0	0	-1	150
12642315	5961	1055	0	-100	0	230	101300000	1000	0	0	-1	150
12654875	5965	1060	0	-100	0	230	101300000	1000	0	0	-1	150
12667435	5964	1069	0	-100	0	230	101300000	1000	0	0	-1	150
12679995	5959	1061	0	-100	0	230	101300000	1000	0	0	-1	150
12692555	5966	1052	0	-100	0	230	101300000	1000	0	0	-1	150
12705115	5962	1070	0	-100	0	230	101300000	1000	0	0	-1	150
12717675	5965	1064	0	-100	0	230	101300000	1000	0	0	-1	150
12730235	5964	1059	0	-100	0	230	101300000	1000	0	0	-1	150
12742795	5960	1056	0	-100	0	230	101300000	1000	0	0	-1	150
12755355	5968	1063	0	-100	0	230	101300000	1000	0	0	-1	150
12767915	5957	1059	0	-100	0	230	101300000	1000	0	0	-1	150
12780475	5958	1059	0	-100	0	230	101300000	1000	0	0	-1	150
12793035	5966	1064	0	-100	0	230	101300000	1000	0	0	-1	150
12805595	5959	1067	0	-100	0	230	101300000	1000	0	0	-1	150
12818155	5960	1057	0	-100	0	230	101300000	1000	0	0	-1	150
12830715	5966	1058	0	-100	0	230	101300000	1000	0	0	-1	150
12843275	5961	1062	0	-100	0	230	101300000	1000	0	0	-1	150
12855835	5960	1051	0	-100	0	230	101300000	1000	0	0	-1	150
12868395	5967	1061	0	-100	0	230	101300000	1000	0	0	-1	150
12880955	5965	1063	0	-100	0	230	101300000	1000	0	0	-1	150
12893515	5964	1055	0	-100	0	230	101300000	1000	0	0	-1	150
12906075	5959	1064	0	-100	0	230	101300000	1000	0	0	-1	150
12918635	5962	1056	0	-100	0	230	101300000	1000	0	0	-1	150
12931195	5961	1065	0	-100	0	230	101300000	1000	0	0	-1	150
12943755	5961	1061	0	-100	0	230	101300000	1000	0	0	-1	150
12956315	5968	1054	0	-100	0	230	101300000	1000	0	0	-1	150
12968875	5962	1060	0	-100	0	230	101300000	1000	0	0	-1	150
12981435	5954	1061	0	-100	0	230	101300000	1000	0	0	-1	150
12993995	5969	1061	0	-100	0	230	101300000	1000	0	0	-1	150
13006555	5960	1074	0	-100	0	230	101300000	1000	0	0	-1	150
13019115	5962	1068	0	-100	0	230	101300000	1000	0	0	-1	150
13031675	5968	1063	0	-100	0	230	101300000	1000	0	0	-1	150
13044235	5957	1060	0	-100	0	230	101300000	1000	0	0	-1	150
13056795	5967	1062	0	-100	0	230	101300000	1000	0	0	-1	150
13069355	5963	1060	0	-100	0	230	101300000	1000	0	0	-1	150
13081915	5966	1067	0	-100	0	230	101300000	1000	0	0	-1	150
13094475	5967	1063	0	-100	0	230	101300000	1000	0	0	-1	150
13107035	5962	1066	0	-100	0	230	101300000	1000	0	0	-1	150
13119595	5964	1057	0	-100	0	230	101300000	1000	0	0	-1	150
13132155	5966	1071	0	-100	0	230	101300000	1000	0	0	-1	150
13144715	5960	1040	0	-100	0	230	101300000	1000	0	0	-1	150
13157275	5967	1062	0	-100	0	230	101300000	1000	0	0	-1	150
13169835	5960	1057	0	-100	0	230	101300000	1000	0	0	-1	150
13182395	5959	1056	0	-100	0	230	101300000	1000	0	0	-1	150
13194955	5966	1053	0	-100	0	230	101300000	1000	0	0	-1	150
13207515	5958	1065	0	-100	0	230	101300000	1000	0	0	-1	150
13220075	5960	1053	0	-100	0	230	101300000	1000	0	0	-1	150
13232635	5967	1067	0	-100	0	230	101300000	1000	0	0	-1	150
13245195	5966	1059	0	-100	0	230	101300000	1000	0	0	-1	150
13257755	5962	1051	0	-100	0	230	101300000	1000	0	0	-1	150
13270315	5970	1061	0	-100	0	230	101300000	1000	0	0	-1	150
13282875	5960	1068	0	-100	0	230	101300000	1000	0	0	-1	150
13295435	5966	1054	0	-100	0	230	101300000	1000	0	0	-1	150
13307995	5962	1061	0	-100	0	230	101300000	1000	0	0	-1	150
13320555	5960	1069	0	-100	0	230	101300000	1000	0	0	-1	150
13333115	5965	1062	0	-100	0	230	101300000	1000	0	0	-1	150
13345675	5963	1068	0	-100	0	230	101300000	1000	0	0	-1	150
13358235	5962	1060	0	-100	0	230	101300000	1000	0	0	-1	150
13370795	5965	1065	0	-100	0	230	101300000	1000	0	0	-1	150
13383355	5967	1062	0	-100	0	230	101300000	1000	0	0	-1	150
13395915	5964	1075	0	-100	0	230	101300000	1000	0	0	-1	150
13408475	5966	1058	0	-100	0	230	101300000	1000	0	0	-1	150
13421035	5962	1058	0	-100	0	230	101300000	1000	0	0	-1	150
13433595	5960	1053	0	-100	0	230	101300000	1000	0	0	-1	150
13446155	5962	1057	0	-100	0	230	101300000	1000	0	0	-1	150
13458715	5962	1057	0	-100	0	230	101300000	1000	0	0	-1	150
13471275	5961	1071	0	-100	0	230	101300000	1000	0	0	-1	150
13483835	5964	1057	0	-100	0	230	101300000	1000	0	0	-1	150
13496395	5958	1058	0	-100	0	230	101300000	1000	0	0	-1	150
13508955	5967	1062	0	-100	0	230	101300000	1000	0	0	-1	150
13521515	5961	1060	0	-100	0	230	101300000	1000	0	0	-1	150
13534075	5960	1056	0	-100	0	230	101300000	1000	0	0	-1	150
13546635	5970	1056	0	-100	0	230	101300000	1000	0	0	-1	150
13559195	5961	1049	0	-100	0	230	101300000	1000	0	0	-1	150
13571755	5969	1064	0	-100	0	230	101300000	1000	0	0	-1	150
13584315	5960	1053	0	-100	0	230	101300000	1000	0	0	-1	150
13596875	5960	1066	0	-100	0	230	101300000	1000	0	0	-1	150
13609435	5966	1063	0	-100	0	230	101300000	1000	0	0	-1	150
13621995	5959	1059	0	-100	0	230	101300000	1000	0	0	-1	150
13634555	5964	1059	0	-100	0	230	101300000	1000	0	0	-1	150
13647115	5965	1053	0	-100	0	230	101300000	1000	0	0	-1	150
13659675	5964	1066	0	-100	0	230	101300000	1000	0	0	-1	150
13672235	5969	1053	0	-100	0	230	101300000	1000	0	0	-1	150
13684795	5958	1052	0	-100	0	230	101300000	1000	0	0	-1	150
13697355	5965	1062	0	-100	0	230	101300000	1000	0	0	-1	150
13709915	5960	1059	0	-100	0	230	101300000	1000	0	0	-1	150
13722475	5960	1050	0	-100	0	230	101300000	1000	0	0	-1	150
13735035	5965	1057	0	-100	0	230	101300000	1000	0	0	-1	150
13747595	5963	1057	0	-100	0	230	101300000	1000	0	0	-1	150
13760155	5962	1061	0	-100	0	230	101300000	1000	0	0	-1	150
13772715	5960	1065	0	-100	0	230	101300000	1000	0	0	-1	150
13785275	5960	1051	0	-100	0	230	101300000	1000	0	0	-1	150
13797835	5968	1059	0	-100	0	230	101300000	1000	0	0	-1	150
13810395	5963	1065	0	-100	0	230	101300000	1000	0	0	-1	150
13822955	5965	1058	0	-100	0	230	101300000	1000	0	0	-1	150
13835515	5962	1070	0	-100	0	230	101300000	1000	0	0	-1	150
13848075	5966	1058	0	-100	0	230	101300000	1000	0	0	-1	150
13860635	5963	1070	0	-100	0	230	101300000	1000	0	0	-1	150
13873195	5963	1053	0	-100	0	230	101300000	1000	0	0	-1	150
13885755	5957	1070	0	-100	0	230	101300000	1000	0	0	-1	150
13898315	5966	1058	0	-100	0	230	101300000	1000	0	0	-1	150
13910875	5962	1051	0	-100	0	230	101300000	1000	0	0	-1	150
13923435	5969	1059	0	-100	0	230	101300000	1000	0	0	-1	150
13935995	5961	1059	0	-100	0	230	101300000	1000	0	0	-1	150
13948555	5964	1063	0	-100	0	230	101300000	1000	0	0	-1	150
13961115	5965	1069	0	-100	0	230	101300000	1000	0	0	-1	150
13973675	5963	1052	0	-100	0	230	101300000	1000	0	0	-1	150
13986235	5961	1055	0	-100	0	230	101300000	1000	0	0	-1	150
13998795	5963	1067	0	-100	0	230	101300000	1000	0	0	-1	150
14011355	5963	1071	0	-100	0	230	101300000	1000	0	0	-1	150
14023915	5961	1055	0	-100	0	230	101300000	1000	0	0	-1	150
14036475	5963	1067	0	-100	0	230	101300000	1000	0	0	-1	150
14049035	5963	1058	0	-100	0	230	101300000	1000	0	0	-1	150
14061595	5962	1072	0	-100	0	230	101300000	1000	0	0	-1	150
14074155	5969	1056	0	-100	0	230	101300000	1000	0	0	-1	150
14086715	5966	1067	0	-100	0	230	101300000	1000	0	0	-1	150
14099275	5965	1060	0	-100	0	230	101300000	1000	0	0	-1	150
14111835	5962	1057	0	-100	0	230	101300000	1000	0	0	-1	150
14124395	5963	1058	0	-100	0	230	101300000	1000	0	0	-1	150
14136955	5963	1054	0	-100	0	230	101300000	1000	0	0	-1	150
14149515	5966	1066	0	-100	0	230	101300000	1000	0	0	-1	150
14162075	5962	1065	0	-100	0	230	101300000	1000	0	0	-1	150
14174635	5960	1057	0	-100	0	230	101300000	1000	0	0	-1	150
14187195	5969	1063	0	-100	0	230	101300000	1000	0	0	-1	150
14199755	5964	1063	0	-100	0	230	101300000	1000	0	0	-1	150
14212315	5970	1066	0	-100	0	230	101300000	1000	0	0	-1	150
14224875	5962	1068	0	-100	0	230	101300000	1000	0	0	-1	150
14237435	5971	1056	0	-100	0	230	101300000	1000	0	0	-1	150
14249995	5961	1051	0	-100	0	230	101300000	1000	0	0	-1	150
14262555	5966	1049	0	-100	0	230	101300000	1000	0	0	-1	150
14275115	5959	1066	0	-100	0	230	101300000	1000	0	0	-1	150
14287675	5961	1071	0	-100	0	230	101300000	1000	0	0	-1	150
14300235	5958	1053	0	-100	0	230	101300000	1000	0	0	-1	150
14312795	5965	1058	0	-100	0	230	101300000	1000	0	0	-1	150
14325355	5971	1066	0	-100	0	230	101300000	1000	0	0	-1	150
14337915	5965	1064	0	-100	0	230	101300000	1000	0	0	-1	150
14350475	5960	1060	0	-100	0	230	101300000	1000	0	0	-1	150
14363035	5962	1059	0	-100	0	230	101300000	1000	0	0	-1	150
14375595	5963	1053	0	-100	0	230	101300000	1000	0	0	-1	150
14388155	5969	1053	0	-100	0	230	101300000	1000	0	0	-1	150
14400715	5963	1070	0	-100	0	230	101300000	1000	0	0	-1	150
14413275	5960	1061	0	-100	0	230	101300000	1000	0	0	-1	150
14425835	5967	1060	0	-100	0	230	101300000	1000	0	0	-1	150
14438395	5962	1064	0	-100	0	230	101300000	1000	0	0	-1	150
14450955	5960	1052	0	-100	0	230	101300000	1000	0	0	-1	150
14463515	5966	1058	0	-100	0	230	101300000	1000	0	0	-1	150
14476075	5962	1071	0	-100	0	230	101300000	1000	0	0	-1	150
14488635	5962	1057	0	-100	0	230	101300000	1000	0	0	-1	150
14501195	5970	1065	0	-100	0	230	101300000	1000	0	0	-1	150
14513755	5962	1064	0	-100	0	230	101300000	1000	0	0	-1	150
14526315	5966	1056	0	-100	0	230	101300000	1000	0	0	-1	150
14538875	5964	1068	0	-100	0	230	101300000	1000	0	0	-1	150
14551435	5961	1073	0	-100	0	230	101300000	1000	0	0	-1	150
14563995	5960	1060	0	-100	0	230	101300000	1000	0	0	-1	150
14576555	5966	1059	0	-100	0	230	101300000	1000	0	0	-1	150
14589115	5958	1060	0	-100	0	230	101300000	1000	0	0	-1	150
14601675	5960	1065	0	-100	0	230	101300000	1000	0	0	-1	150
14614235	5962	1057	0	-100	0	230	101300000	1000	0	0	-1	150
14626795	5960	1062	0	-100	0	230	101300000	1000	0	0	-1	150
14639355	5958	1062	0	-100	0	230	101300000	1000	0	0	-1	150
14651915	5963	1058	0	-100	0	230	101300000	1000	0	0	-1	150
14664475	5966	1066	0	-100	0	230	101300000	1000	0	0	-1	150
14677035	5964	1065	0	-100	0	230	101300000	1000	0	0	-1	150
14689595	5962	1055	0	-100	0	230	101300000	1000	0	0	-1	150
14702155	5959	1070	0	-100	0	230	101300000	1000	0	0	-1	150
14714715	5962	1061	0	-100	0	230	101300000	1000	0	0	-1	150
14727275	5969	1060	0	-100	0	230	101300000	1000	0	0	-1	150
14739835	5962	1077	0	-100	0	230	101300000	1000	0	0	-1	150
14752395	5958	1063	0	-100	0	230	101300000	1000	0	0	-1	150
14764955	5965	1060	0	-100	0	230	101300000	1000	0	0	-1	150
14777515	5962	1054	0	-100	0	230	101300000	1000	0	0	-1	150
14790075	5964	1050	0	-100	0	230	101300000	1000	0	0	-1	150
14802635	5963	1063	0	-100	0	230	101300000	1000	0	0	-1	150
14815195	5958	1052	0	-100	0	230	101300000	1000	0	0	-1	150
14827755	5968	1059	0	-100	0	230	101300000	1000	0	0	-1	150
14840315	5963	1063	0	-100	0	230	101300000	1000	0	0	-1	150
14852875	5971	1057	0	-100	0	230	101300000	1000	0	0	-1	150
14865435	5957	1052	0	-100	0	230	101300000	1000	0	0	-1	150
14877995	5960	1066	0	-100	0	230	101300000	1000	0	0	-1	150
14890555	5970	1063	0	-100	0	230	101300000	1000	0	0	-1	150
14903115	5959	1058	0	-100	0	230	101300000	1000	0	0	-1	150
14915675	5962	1061	0	-100	0	230	101300000	1000	0	0	-1	150
14928235	5972	1061	0	-100	0	230	101300000	1000	0	0	-1	150
14940795	5957	1061	0	-100	0	230	101300000	1000	0	0	-1	150
14953355	5963	1050	0	-100	0	230	101300000	1000	0	0	-1	150
14965915	5966	1052	0	-100	0	230	101300000	1000	0	0	-1	150
14978475	5966	1058	0	-100	0	230	101300000	1000	0	0	-1	150
14991035	5961	1061	0	-100	0	230	101300000	1000	0	0	-1	150
15003595	5962	1058	0	-100	0	230	101300000	1000	0	0	-1	150
15016155	5966	1057	0	-100	0	230	101300000	1000	0	0	-1	150
15028715	5960	1064	0	-100	0	230	101300000	1000	0	0	-1	150
15041275	5960	1048	0	-100	0	230	101300000	1000	0	0	-1	150
15053835	5962	1057	0	-100	0	230	101300000	1000	0	0	-1	150
15066395	5962	1060	0	-100	0	230	101300000	1000	0	0	-1	150
15078955	5967	1066	0	-100	0	230	101300000	1000	0	0	-1	150
15091515	5962	1057	0	-100	0	230	101300000	1000	0	0	-1	150
15104075	5969	1064	0	-100	0	230	101300000	1000	0	0	-1	150
15116635	5963	1058	0	-100	0	230	101300000	1000	0	0	-1	150
15129195	5965	1057	0	-100	0	230	101300000	1000	0	0	-1	150
15141755	5963	1063	0	-100	0	230	101300000	1000	0	0	-1	150
15154315	5959	1057	0	-100	0	230	101300000	1000	0	0	-1	150
15166875	5966	1055	0	-100	0	230	101300000	1000	0	0	-1	150
15179435	5962	1064	0	-100	0	230	101300000	1000	0	0	-1	150
15191995	5962	1063	0	-100	0	230	101300000	1000	0	0	-1	150
15204555	5964	1051	0	-100	0	230	101300000	1000	0	0	-1	150
15217115	5957	1065	0	-100	0	230	101300000	1000	0	0	-1	150
15229675	5970	1056	0	-100	0	230	101300000	1000	0	0	-1	150
15242235	5962	1056	0	-100	0	230	101300000	1000	0	0	-1	150
15254795	5962	1057	0	-100	0	230	101300000	1000	0	0	-1	150
15267355	5970	1055	0	-100	0	230	101300000	1000	0	0	-1	150
15279915	5962	1066	0	-100	0	230	101300000	1000	0	0	-1	150
15292475	5964	1055	0	-100	0	230	101300000	1000	0	0	-1	150
15305035	5962	1058	0	-100	0	230	101300000	1000	0	0	-1	150
15317595	5959	1063	0	-100	0	230	101300000	1000	0	0	-1	150
15330155	5967	1047	0	-100	0	230	101300000	1000	0	0	-1	150
15342715	5962	1064	0	-100	0	230	101300000	1000	0	0	-1	150
15355275	5964	1050	0	-100	0	230	101300000	1000	0	0	-1	150
15367835	5963	1067	0	-100	0	230	101300000	1000	0	0	-1	150
15380395	5965	1062	0	-100	0	230	101300000	1000	0	0	-1	150
15392955	5962	1066	0	-100	0	230	101300000	1000	0	0	-1	150
15405515	5958	1067	0	-100	0	230	101300000	1000	0	0	-1	150
15418075	5968	1059	0	-100	0	230	101300000	1000	0	0	-1	150
15430635	5958	1054	0	-100	0	230	101300000	1000	0	0	-1	150
15443195	5966	1053	0	-100	0	230	101300000	1000	0	0	-1	150
15455755	5966	1057	0	-100	0	230	101300000	1000	0	0	-1	150
15468315	5959	1067	0	-100	0	230	101300000	1000	0	0	-1	150
15480875	5966	1054	0	-100	0	230	101300000	1000	0	0	-1	150
15493435	5961	1055	0	-100	0	230	101300000	1000	0	0	-1	150
15505995	5966	1054	0	-100	0	230	101300000	1000	0	0	-1	150
15518555	5957	1065	0	-100	0	230	101300000	1000	0	0	-1	150
15531115	5958	1060	0	-100	0	230	101300000	1000	0	0	-1	150
15543675	5966	1062	0	-100	0	230	101300000	1000	0	0	-1	150
15556235	5962	1064	0	-100	0	230	101300000	1000	0	0	-1	150
15568795	5969	1061	0	-100	0	230	101300000	1000	0	0	-1	150
15581355	5962	1067	0	-100	0	230	101300000	1000	0	0	-1	150
15593915	5960	1057	0	-100	0	230	101300000	1000	0	0	-1	150
15606475	5966	1054	0	-100	0	230	101300000	1000	0	0	-1	150
15619035	5956	1054	0	-100	0	230	101300000	1000	0	0	-1	150
15631595	5967	1051	0	-100	0	230	101300000	1000	0	0	-1	150
15644155	5961	1059	0	-100	0	230	101300000	1000	0	0	-1	150
15656715	5962	1054	0	-100	0	230	101300000	1000	0	0	-1	150
15669275	5966	1067	0	-100	0	230	101300000	1000	0	0	-1	150
15681835	5962	1064	0	-100	0	230	101300000	1000	0	0	-1	150
15694395	5966	1064	0	-100	0	230	101300000	1000	0	0	-1	150
15706955	5962	1055	0	-100	0	230	101300000	1000	0	0	-1	150
15719515	5962	1052	0	-100	0	230	101300000	1000	0	0	-1	150
15732075	5970	1057	0	-100	0	230	101300000	1000	0	0	-1	150
15744635	5962	1057	0	-100	0	230	101300000	1000	0	0	-1	150
15757195	5958	1057	0	-100	0	230	101300000	1000	0	0	-1	150
15769755	5964	1053	0	-100	0	230	101300000	1000	0	0	-1	150
15782315	5961	1063	0	-100	0	230	101300000	1000	0	0	-1	150
15794875	5965	1065	0	-100	0	230	101300000	1000	0	0	-1	150
15807435	5962	1070	0	-100	0	230	101300000	1000	0	0	-1	150
15819995	5969	1060	0	-100	0	230	101300000	1000	0	0	-1	150
15832555	5962	1067	0	-100	0	230	101300000	1000	0	0	-1	150
15845115	5956	1063	0	-100	0	230	101300000	1000	0	0	-1	150
15857675	5965	1070	0	-100	0	230	101300000	1000	0	0	-1	150
15870235	5960	1063	0	-100	0	230	101300000	1000	0	0	-1	150
15882795	5963	1059	0	-100	0	230	101300000	1000	0	0	-1	150
15895355	5961	1063	0	-100	0	230	101300000	1000	0	0	-1	150
15907915	5962	1061	0	-100	0	230	101300000	1000	0	0	-1	150
15920475	5966	1057	0	-100	0	230	101300000	1000	0	0	-1	150
15933035	5960	1060	0	-100	0	230	101300000	1000	0	0	-1	150
15945595	5965	1061	0	-100	0	230	101300000	1000	0	0	-1	150
15958155	5957	1060	0	-100	0	230	101300000	1000	0	0	-1	150
15970715	5959	1067	0	-100	0	230	101300000	1000	0	0	-1	150
15983275	5964	1066	0	-100	0	230	101300000	1000	0	0	-1	150
15995835	5962	1066	0	-100	0	230	101300000	1000	0	0	-1	150
16008395	5967	1060	0	-100	0	230	101300000	1000	0	0	-1	150
16020955	5962	1055	0	-100	0	230	101300000	1000	0	0	-1	150
16033515	5965	1059	0	-100	0	230	101300000	1000	0	0	-1	150
16046075	5964	1071	0	-100	0	230	101300000	1000	0	0	-1	150
16058635	5963	1063	0	-100	0	230	101300000	1000	0	0	-1	150
16071195	5958	1057	0	-100	0	230	101300000	1000	0	0	-1	150
16083755	5965	1066	0	-100	0	230	101300000	1000	0	0	-1	150
16096315	5962	1063	0	-100	0	230	101300000	1000	0	0	-1	150
16108875	5962	1063	0	-100	0	230	101300000	1000	0	0	-1	150
16121435	5967	1060	0	-100	0	230	101300000	1000	0	0	-1	150
16133995	5962	1063	0	-100	0	230	101300000	1000	0	0	-1	150
16146555	5967	1062	0	-100	0	230	101300000	1000	0	0	-1	150
16159115	5962	1068	0	-100	0	230	101300000	1000	0	0	-1	150
16171675	5966	1065	0	-100	0	230	101300000	1000	0	0	-1	150
16184235	5960	1067	0	-100	0	230	101300000	1000	0	0	-1	150
16196795	5965	1056	0	-100	0	230	101300000	1000	0	0	-1	150
16209355	5957	1059	0	-100	0	230	101300000	1000	0	0	-1	150
16221915	5966	1053	0	-100	0	230	101300000	1000	0	0	-1	150
16234475	5960	1058	0	-100	0	230	101300000	1000	0	0	-1	150
16247035	5967	1048	0	-100	0	230	101300000	1000	0	0	-1	150
16259595	5962	1066	0	-100	0	230	101300000	1000	0	0	-1	150
16272155	5962	1069	0	-100	0	230	101300000	1000	0	0	-1	150
16284715	5963	1057	0	-100	0	230	101300000	1000	0	0	-1	150
16297275	5966	1051	0	-100	0	230	101300000	1000	0	0	-1	150
16309835	5959	1067	0	-100	0	230	101300000	1000	0	0	-1	150
16322395	5967	1052	0	-100	0	230	101300000	1000	0	0	-1	150
16334955	5959	1063	0	-100	0	230	101300000	1000	0	0	-1	150
16347515	5969	1066	0	-100	0	230	101300000	1000	0	0	-1	150
16360075	5966	1061	0	-100	0	230	101300000	1000	0	0	-1	150
16372635	5969	1055	0	-100	0	230	101300000	1000	0	0	-1	150
16385195	5963	1061	0	-100	0	230	101300000	1000	0	0	-1	150
16397755	5963	1058	0	-100	0	230	101300000	1000	0	0	-1	150
16410315	5964	1061	0	-100	0	230	101300000	1000	0	0	-1	150
16422875	5962	1059	0	-100	0	230	101300000	1000	0	0	-1	150
16435435	5966	1063	0	-100	0	230	101300000	1000	0	0	-1	150
16447995	5960	1060	0	-100	0	230	101300000	1000	0	0	-1	150
16460555	5966	1067	0	-100	0	230	101300000	1000	0	0	-1	150
16473115	5959	1067	0	-100	0	230	101300000	1000	0	0	-1	150
16485675	5962	1061	0	-100	0	230	101300000	1000	0	0	-1	150
16498235	5961	1055	0	-100	0	230	101300000	1000	0	0	-1	150
16510795	5971	1067	0	-100	0	230	101300000	1000	0	0	-1	150
16523355	5958	1063	0	-100	0	230	101300000	1000	0	0	-1	150
16535915	5961	1061	0	-100	0	230	101300000	1000	0	0	-1	150
16548475	5966	1059	0	-100	0	230	101300000	1000	0	0	-1	150
16561035	5962	1063	0	-100	0	230	101300000	1000	0	0	-1	150
16573595	5967	1061	0	-100	0	230	101300000	1000	0	0	-1	150
16586155	5963	1063	0	-100	0	230	101300000	1000	0	0	-1	150
16598715	5962	1065	0	-100	0	230	101300000	1000	0	0	-1	150
16611275	5961	1062	0	-100	0	230	101300000	1000	0	0	-1	150
16623835	5963	1069	0	-100	0	230	101300000	1000	0	0	-1	150
16636395	5962	1060	0	-100	0	230	101300000	1000	0	0	-1	150
16648955	5959	1061	0	-100	0	230	101300000	1000	0	0	-1	150
16661515	5963	1052	0	-100	0	230	101300000	1000	0	0	-1	150
16674075	5963	1069	0	-100	0	230	101300000	1000	0	0	-1	150
16686635	5965	1062	0	-100	0	230	101300000	1000	0	0	-1	150
16699195	5961	1062	0	-100	0	230	101300000	1000	0	0	-1	150
16711755	5970	1054	0	-100	0	230	101300000	1000	0	0	-1	150
16724315	5957	1067	0	-100	0	230	101300000	1000	0	0	-1	150
16736875	5965	1058	0	-100	0	230	101300000	1000	0	0	-1	150
16749435	5957	1068	0	-100	0	230	101300000	1000	0	0	-1	150
16761995	5968	1059	0	-100	0	230	101300000	1000	0	0	-1	150
16774555	5966	1060	0	-100	0	230	101300000	1000	0	0	-1	150
16787115	5957	1060	0	-100	0	230	101300000	1000	0	0	-1	150
16799675	5965	1051	0	-100	0	230	101300000	1000	0	0	-1	150
16812235	5964	1070	0	-100	0	230	101300000	1000	0	0	-1	150
16824795	5965	1060	0	-100	0	230	101300000	1000	0	0	-1	150
16837355	5962	1059	0	-100	0	230	101300000	1000	0	0	-1	150
16849915	5965	1060	0	-100	0	230	101300000	1000	0	0	-1	150
16862475	5960	1053	0	-100	0	230	101300000	1000	0	0	-1	150
16875035	5958	1057	0	-100	0	230	101300000	1000	0	0	-1	150
16887595	5962	1059	0	-100	0	230	101300000	1000	0	0	-1	150
16900155	5963	1062	0	-100	0	230	101300000	1000	0	0	-1	150
16912715	5967	1060	0	-100	0	230	101300000	1000	0	0	-1	150
16925275	5961	1063	0	-100	0	230	101300000	1000	0	0	-1	150
16937835	5965	1065	0	-100	0	230	101300000	1000	0	0	-1	150
16950395	5962	1064	0	-100	0	230	101300000	1000	0	0	-1	150
16962955	5963	1063	0	-100	0	230	101300000	1000	0	0	-1	150
16975515	5962	1057	0	-100	0	230	101300000	1000	0	0	-1	150
16988075	5963	1070	0	-100	0	230	101300000	1000	0	0	-1	150
17000635	5969	1055	0	-100	0	230	101300000	1000	0	0	-1	150
17013195	5960	1060	0	-100	0	230	101300000	1000	0	0	-1	150
17025755	5964	1058	0	-100	0	230	101300000	1000	0	0	-1	150
17038315	5958	1050	0	-100	0	230	101300000	1000	0	0	-1	150
17050875	5966	1064	0	-100	0	230	101300000	1000	0	0	-1	150
17063435	5954	1054	0	-100	0	230	101300000	1000	0	0	-1	150
17075995	5967	1068	0	-100	0	230	101300000	1000	0	0	-1	150
17088555	5964	1057	0	-100	0	230	101300000	1000	0	0	-1	150
17101115	5970	1057	0	-100	0	230	101300000	1000	0	0	-1	150
17113675	5959	1065	0	-100	0	230	101300000	1000	0	0	-1	150
17126235	5973	1064	0	-100	0	230	101300000	1000	0	0	-1	150
17138795	5960	1062	0	-100	0	230	101300000	1000	0	0	-1	150
17151355	5965	1056	0	-100	0	230	101300000	1000	0	0	-1	150
17163915	5960	1051	0	-100	0	230	101300000	1000	0	0	-1	150
17176475	5964	1061	0	-100	0	230	101300000	1000	0	0	-1	150
17189035	5963	1062	0	-100	0	230	101300000	1000	0	0	-1	150
17201595	5960	1060	0	-100	0	230	101300000	1000	0	0	-1	150
17214155	5956	1056	0	-100	0	230	101300000	1000	0	0	-1	150
17226715	5966	1052	0	-100	0	230	101300000	1000	0	0	-1	150
17239275	5960	1061	0	-100	0	230	101300000	1000	0	0	-1	150
17251835	5968	1065	0	-100	0	230	101300000	1000	0	0	-1	150
17264395	5962	1060	0	-100	0	230	101300000	1000	0	0	-1	150
17276955	5967	1068	0	-100	0	230	101300000	1000	0	0	-1	150
17289515	5963	1064	0	-100	0	230	101300000	1000	0	0	-1	150
17302075	5969	1061	0	-100	0	230	101300000	1000	0	0	-1	150
17314635	5960	1067	0	-100	0	230	101300000	1000	0	0	-1	150
17327195	5963	1056	0	-100	0	230	101300000	1000	0	0	-1	150
17339755	5960	1068	0	-100	0	230	101300000	1000	0	0	-1	150
17352315	5961	1053	0	-100	0	230	101300000	1000	0	0	-1	150
17364875	5962	1064	0	-100	0	230	101300000	1000	0	0	-1	150
17377435	5961	1067	0	-100	0	230	101300000	1000	0	0	-1	150
17389995	5967	1066	0	-100	0	230	101300000	1000	0	0	-1	150
17402555	5960	1059	0	-100	0	230	101300000	1000	0	0	-1	150
17415115	5957	1060	0	-100	0	230	101300000	1000	0	0	-1	150
17427675	5967	1060	0	-100	0	230	101300000	1000	0	0	-1	150
17440235	5968	1067	0	-100	0	230	101300000	1000	0	0	-1	150
17452795	5966	1058	0	-100	0	230	101300000	1000	0	0	-1	150
17465355	5960	1066	0	-100	0	230	101300000	1000	0	0	-1	150
17477915	5966	1066	0	-100	0	230	101300000	1000	0	0	-1	150
17490475	5968	1057	0	-100	0	230	101300000	1000	0	0	-1	150
17503035	5960	1067	0	-100	0	230	101300000	1000	0	0	-1	150
17515595	5962	1065	0	-100	0	230	101300000	1000	0	0	-1	150
17528155	5967	1059	0	-100	0	230	101300000	1000	0	0	-1	150
17540715	5969	1063	0	-100	0	230	101300000	1000	0	0	-1	150
17553275	5961	1076	0	-100	0	230	101300000	1000	0	0	-1	150
17565835	5960	1052	0	-100	0	230	101300000	1000	0	0	-1	150
17578395	5966	1068	0	-100	0	230	101300000	1000	0	0	-1	150
17590955	5962	1062	0	-100	0	230	101300000	1000	0	0	-1	150
17603515	5962	1052	0	-100	0	230	101300000	1000	0	0	-1	150
17616075	5969	1072	0	-100	0	230	101300000	1000	0	0	-1	150
17628635	5961	1061	0	-100	0	230	101300000	1000	0	0	-1	150
17641195	5965	1049	0	-100	0	230	101300000	1000	0	0	-1	150
17653755	5966	1071	0	-100	0	230	101300000	1000	0	0	-1	150
17666315	5962	1061	0	-100	0	230	101300000	1000	0	0	-1	150
17678875	5958	1066	0	-100	0	230	101300000	1000	0	0	-1	150
17691435	5970	1059	0	-100	0	230	101300000	1000	0	0	-1	150
17703995	5959	1067	0	-100	0	230	101300000	1000	0	0	-1	150
17716555	5962	1061	0	-100	0	230	101300000	1000	0	0	-1	150
17729115	5968	1067	0	-100	0	230	101300000	1000	0	0	-1	150
17741675	5965	1056	0	-100	0	230	101300000	1000	0	0	-1	150
17754235	5966	1063	0	-100	0	230	101300000	1000	0	0	-1	150
17766795	5963	1063	0	-100	0	230	101300000	1000	0	0	-1	150
17779355	5964	1061	0	-100	0	230	101300000	1000	0	0	-1	150
17791915	5967	1053	0	-100	0	230	101300000	1000	0	0	-1	150
17804475	5962	1070	0	-100	0	230	101300000	1000	0	0	-1	150
17817035	5959	1066	0	-100	0	230	101300000	1000	0	0	-1	150
17829595	5969	1067	0	-100	0	230	101300000	1000	0	0	-1	150
17842155	5964	1053	0	-100	0	230	101300000	1000	0	0	-1	150
17854715	5962	1061	0	-100	0	230	101300000	1000	0	0	-1	150
17867275	5968	1066	0	-100	0	230	101300000	1000	0	0	-1	150
17879835	5962	1057	0	-100	0	230	101300000	1000	0	0	-1	150
17892395	5965	1060	0	-100	0	230	101300000	1000	0	0	-1	150
17904955	5962	1068	0	-100	0	230	101300000	1000	0	0	-1	150
17917515	5969	1069	0	-100	0	230	101300000	1000	0	0	-1	150
17930075	5962	1062	0	-100	0	230	101300000	1000	0	0	-1	150
17942635	5969	1053	0	-100	0	230	101300000	1000	0	0	-1	150
17955195	5962	1063	0	-100	0	230	101300000	1000	0	0	-1	150
17967755	5962	1062	0	-100	0	230	101300000	1000	0	0	-1	150
17980315	5961	1064	0	-100	0	230	101300000	1000	0	0	-1	150
17992875	5963	1059	0	-100	0	230	101300000	1000	0	0	-1	150
18005435	5965	1065	0	-100	0	230	101300000	1000	0	0	-1	150
18017995	5963	1058	0	-100	0	230	101300000	1000	0	0	-1	150
18030555	5960	1060	0	-100	0	230	101300000	1000	0	0	-1	150
18043115	5963	1053	0	-100	0	230	101300000	1000	0	0	-1	150
18055675	5959	1062	0	-100	0	230	101300000	1000	0	0	-1	150
18068235	5962	1069	0	-100	0	230	101300000	1000	0	0	-1	150
18080795	5966	1058	0	-100	0	230	101300000	1000	0	0	-1	150
18093355	5964	1072	0	-100	0	230	101300000	1000	0	0	-1	150
18105915	5967	1047	0	-100	0	230	101300000	1000	0	0	-1	150
18118475	5962	1071	0	-100	0	230	101300000	1000	0	0	-1	150
18131035	5963	1058	0	-100	0	230	101300000	1000	0	0	-1	150
18143595	5965	1067	0	-100	0	230	101300000	1000	0	0	-1	150
18156155	5957	1056	0	-100	0	230	101300000	1000	0	0	-1	150
18168715	5967	1051	0	-100	0	230	101300000	1000	0	0	-1	150
18181275	5962	1066	0	-100	0	230	101300000	1000	0	0	-1	150
18193835	5967	1059	0	-100	0	230	101300000	1000	0	0	-1	150
18206395	5959	1066	0	-100	0	230	101300000	1000	0	0	-1	150
18218955	5960	1055	0	-100	0	230	101300000	1000	0	0	-1	150
18231515	5964	1062	0	-100	0	230	101300000	1000	0	0	-1	150
18244075	5958	1049	0	-100	0	230	101300000	1000	0	0	-1	150
18256635	5968	1064	0	-100	0	230	101300000	1000	0	0	-1	150
18269195	5958	1062	0	-100	0	230	101300000	1000	0	0	-1	150
18281755	5966	1063	0	-100	0	230	101300000	1000	0	0	-1	150
18294315	5958	1062	0	-100	0	230	101300000	1000	0	0	-1	150
18306875	5962	1070	0	-100	0	230	101300000	1000	0	0	-1	150
18319435	5964	1059	0	-100	0	230	101300000	1000	0	0	-1	150
18331995	5966	1063	0	-100	0	230	101300000	1000	0	0	-1	150
18344555	5961	1064	0	-100	0	230	101300000	1000	0	0	-1	150
18357115	5961	1058	0	-100	0	230	101300000	1000	0	0	-1	150
18369675	5956	1067	0	-100	0	230	101300000	1000	0	0	-1	150
18382235	5968	1058	0	-100	0	230	101300000	1000	0	0	-1	150
18394795	5959	1060	0	-100	0	230	101300000	1000	0	0	-1	150
18407355	5964	1057	0	-100	0	230	101300000	1000	0	0	-1	150
18419915	5963	1061	0	-100	0	230	101300000	1000	0	0	-1	150
18432475	5966	1055	0	-100	0	230	101300000	1000	0	0	-1	150
18445035	5963	1061	0	-100	0	230	101300000	1000	0	0	-1	150
18457595	5963	1064	0	-100	0	230	101300000	1000	0	0	-1	150
18470155	5964	1065	0	-100	0	230	101300000	1000	0	0	-1	150
18482715	5965	1052	0	-100	0	230	101300000	1000	0	0	-1	150
18495275	5960	1054	0	-100	0	230	101300000	1000	0	0	-1	150
18507835	5968	1064	0	-100	0	230	101300000	1000	0	0	-1	150
18520395	5960	1055	0	-100	0	230	101300000	1000	0	0	-1	150
18532955	5966	1061	0	-100	0	230	101300000	1000	0	0	-1	150
18545515	5960	1056	0	-100	0	230	101300000	1000	0	0	-1	150
18558075	5968	1063	0	-100	0	230	101300000	1000	0	0	-1	150
18570635	5958	1058	0	-100	0	230	101300000	1000	0	0	-1	150
18583195	5962	1069	0	-100	0	230	101300000	1000	0	0	-1	150
18595755	5963	1054	0	-100	0	230	101300000	1000	0	0	-1	150
18608315	5959	1066	0	-100	0	230	101300000	1000	0	0	-1	150
18620875	5965	1065	0	-100	0	230	101300000	1000	0	0	-1	150
18633435	5962	1068	0	-100	0	230	101300000	1000	0	0	-1	150
18645995	5967	1070	0	-100	0	230	101300000	1000	0	0	-1	150
18658555	5960	1064	0	-100	0	230	101300000	1000	0	0	-1	150
18671115	5960	1064	0	-100	0	230	101300000	1000	0	0	-1	150
18683675	5964	1061	0	-100	0	230	101300000	1000	0	0	-1	150
18696235	5966	1066	0	-100	0	230	101300000	1000	0	0	-1	150
18708795	5962	1059	0	-100	0	230	101300000	1000	0	0	-1	150
18721355	5971	1057	0	-100	0	230	101300000	1000	0	0	-1	150
18733915	5962	1066	0	-100	0	230	101300000	1000	0	0	-1	150
18746475	5965	1057	0	-100	0	230	101300000	1000	0	0	-1	150
18759035	5959	1062	0	-100	0	230	101300000	1000	0	0	-1	150
18771595	5966	1069	0	-100	0	230	101300000	1000	0	0	-1	150
18784155	5962	1063	0	-100	0	230	101300000	1000	0	0	-1	150
18796715	5960	1060	0	-100	0	230	101300000	1000	0	0	-1	150
18809275	5970	1064	0	-100	0	230	101300000	1000	0	0	-1	150
18821835	5960	1054	0	-100	0	230	101300000	1000	0	0	-1	150
18834395	5968	1064	0	-100	0	230	101300000	1000	0	0	-1	150
18846955	5960	1059	0	-100	0	230	101300000	1000	0	0	-1	150
18859515	5958	1070	0	-100	0	230	101300000	1000	0	0	-1	150
18872075	5962	1067	0	-100	0	230	101300000	1000	0	0	-1	150
18884635	5960	1063	0	-100	0	230	101300000	1000	0	0	-1	150
18897195	5964	1062	0	-100	0	230	101300000	1000	0	0	-1	150
18909755	5963	1067	0	-100	0	230	101300000	1000	0	0	-1	150
18922315	5972	1067	0	-100	0	230	101300000	1000	0	0	-1	150
18934875	5958	1059	0	-100	0	230	101300000	1000	0	0	-1	150
18947435	5962	1056	0	-100	0	230	101300000	1000	0	0	-1	150
18959995	5967	1063	0	-100	0	230	101300000	1000	0	0	-1	150
18972555	5966	1071	0	-100	0	230	101300000	1000	0	0	-1	150
18985115	5965	1060	0	-100	0	230	101300000	1000	0	0	-1	150
18997675	5966	1060	0	-100	0	230	101300000	1000	0	0	-1	150
19010235	5962	1064	0	-100	0	230	101300000	1000	0	0	-1	150
19022795	5959	1059	0	-100	0	230	101300000	1000	0	0	-1	150
19035355	5964	1058	0	-100	0	230	101300000	1000	0	0	-1	150
19047915	5966	1063	0	-100	0	230	101300000	1000	0	0	-1	150
19060475	5963	1061	0	-100	0	230	101300000	1000	0	0	-1	150
19073035	5973	1053	0	-100	0	230	101300000	1000	0	0	-1	150
19085595	5962	1056	0	-100	0	230	101300000	1000	0	0	-1	150
19098155	5960	1064	0	-100	0	230	101300000	1000	0	0	-1	150
19110715	5965	1056	0	-100	0	230	101300000	1000	0	0	-1	150
19123275	5964	1057	0	-100	0	230	101300000	1000	0	0	-1	150
19135835	5964	1061	0	-100	0	230	101300000	1000	0	0	-1	150
19148395	5965	1060	0	-100	0	230	101300000	1000	0	0	-1	150
19160955	5962	1055	0	-100	0	230	101300000	1000	0	0	-1	150
19173515	5962	1056	0	-100	0	230	101300000	1000	0	0	-1	150
19186075	5962	1057	0	-100	0	230	101300000	1000	0	0	-1	150
19198635	5961	1070	0	-100	0	230	101300000	1000	0	0	-1	150
19211195	5966	1066	0	-100	0	230	101300000	1000	0	0	-1	150
19223755	5957	1061	0	-100	0	230	101300000	1000	0	0	-1	150
19236315	5961	1060	0	-100	0	230	101300000	1000	0	0	-1	150
19248875	5966	1037	0	-100	0	230	101300000	1000	0	0	-1	150
19261435	5962	1059	0	-100	0	230	101300000	1000	0	0	-1	150
19273995	5966	1068	0	-100	0	230	101300000	1000	0	0	-1	150
19286555	5962	1049	0	-100	0	230	101300000	1000	0	0	-1	150
19299115	5966	1063	0	-100	0	230	101300000	1000	0	0	-1	150
19311675	5962	1061	0	-100	0	230	101300000	1000	0	0	-1	150
19324235	5965	1050	0	-100	0	230	101300000	1000	0	0	-1	150
19336795	5964	1056	0	-100	0	230	101300000	1000	0	0	-1	150
19349355	5962	1061	0	-100	0	230	101300000	1000	0	0	-1	150
19361915	5964	1051	0	-100	0	230	101300000	1000	0	0	-1	150
19374475	5957	1054	0	-100	0	230	101300000	1000	0	0	-1	150
19387035	5966	1066	0	-100	0	230	101300000	1000	0	0	-1	150
19399595	5960	1061	0	-100	0	230	101300000	1000	0	0	-1	150
19412155	5966	1071	0	-100	0	230	101300000	1000	0	0	-1	150
19424715	5958	1050	0	-100	0	230	101300000	1000	0	0	-1	150
19437275	5967	1058	0	-100	0	230	101300000	1000	0	0	-1	150
19449835	5956	1058	0	-100	0	230	101300000	1000	0	0	-1	150
19462395	5966	1059	0	-100	0	230	101300000	1000	0	0	-1	150
19474955	5963	1059	0	-100	0	230	101300000	1000	0	0	-1	150
19487515	5966	1057	0	-100	0	230	101300000	1000	0	0	-1	150
19500075	5963	1069	0	-100	0	230	101300000	1000	0	0	-1	150
19512635	5963	1056	0	-100	0	230	101300000	1000	0	0	-1	150
19525195	5963	1064	0	-100	0	230	101300000	1000	0	0	-1	150
19537755	5962	1057	0	-100	0	230	101300000	1000	0	0	-1	150
19550315	5967	1073	0	-100	0	230	101300000	1000	0	0	-1	150
19562875	5958	1063	0	-100	0	230	101300000	1000	0	0	-1	150
19575435	5968	1055	0	-100	0	230	101300000	1000	0	0	-1	150
19587995	5962	1059	0	-100	0	230	101300000	1000	0	0	-1	150
19600555	5964	1057	0	-100	0	230	101300000	1000	0	0	-1	150
19613115	5966	1057	0	-100	0	230	101300000	1000	0	0	-1	150
19625675	5963	1068	0	-100	0	230	101300000	1000	0	0	-1	150
19638235	5966	1061	0	-100	0	230	101300000	1000	0	0	-1	150
19650795	5962	1066	0	-100	0	230	101300000	1000	0	0	-1	150
19663355	5962	1066	0	-100	0	230	101300000	1000	0	0	-1	150
19675915	5962	1077	0	-100	0	230	101300000	1000	0	0	-1	150
19688475	5960	1068	0	-100	0	230	101300000	1000	0	0	-1	150
19701035	5963	1049	0	-100	0	230	101300000	1000	0	0	-1	150
19713595	5959	1053	0	-100	0	230	101300000	1000	0	0	-1	150
19726155	5961	1055	0	-100	0	230	101300000	1000	0	0	-1	150
19738715	5968	1056	0	-100	0	230	101300000	1000	0	0	-1	150
19751275	5962	1057	0	-100	0	230	101300000	1000	0	0	-1	150
19763835	5965	1058	0	-100	0	230	101300000	1000	0	0	-1	150
19776395	5962	1067	0	-100	0	230	101300000	1000	0	0	-1	150
19788955	5963	1054	0	-100	0	230	101300000	1000	0	0	-1	150
19801515	5961	1060	0	-100	0	230	101300000	1000	0	0	-1	150
19814075	5957	1056	0	-100	0	230	101300000	1000	0	0	-1	150
19826635	5969	1062	0	-100	0	230	101300000	1000	0	0	-1	150
19839195	5963	1051	0	-100	0	230	101300000	1000	0	0	-1	150
19851755	5965	1057	0	-100	0	230	101300000	1000	0	0	-1	150
19864315	5962	1058	0	-100	0	230	101300000	1000	0	0	-1	150
19876875	5962	1059	0	-100	0	230	101300000	1000	0	0	-1	150
19889435	5963	1066	0	-100	0	230	101300000	1000	0	0	-1	150
19901995	5963	1053	0	-100	0	230	101300000	1000	0	0	-1	150
19914555	5960	1059	0	-100	0	230	101300000	1000	0	0	-1	150
19927115	5968	1055	0	-100	0	230	101300000	1000	0	0	-1	150
19939675	5972	1057	0	-100	0	230	101300000	1000	0	0	-1	150
19952235	5963	1067	0	-100	0	230	101300000	1000	0	0	-1	150
19964795	5965	1055	0	-100	0	230	101300000	1000	0	0	-1	150
19977355	5963	1065	0	-100	0	230	101300000	1000	0	0	-1	150
19989915	5963	1054	0	-100	0	230	101300000	1000	0	0	-1	150
20002475	5961	1068	0	-100	0	230	101300000	1000	0	0	-1	150
20015035	5963	1055	0	-100	0	230	101300000	1000	0	0	-1	150
20027595	5965	1060	0	-100	0	230	101300000	1000	0	0	-1	150
20040155	5966	1065	0	-100	0	230	101300000	1000	0	0	-1	150
20052715	5968	1071	0	-100	0	230	101300000	1000	0	0	-1	150
20065275	5967	1059	0	-100	0	230	101300000	1000	0	0	-1	150
20077835	5959	1066	0	-100	0	230	101300000	1000	0	0	-1	150
20090395	5966	1066	0	-100	0	230	101300000	1000	0	0	-1	150
20102955	5961	1056	0	-100	0	230	101300000	1000	0	0	-1	150
20115515	5969	1057	0	-100	0	230	101300000	1000	0	0	-1	150
20128075	5958	1055	0	-100	0	230	101300000	1000	0	0	-1	150
20140635	5966	1055	0	-100	0	230	101300000	1000	0	0	-1	150
20153195	5960	1064	0	-100	0	230	101300000	1000	0	0	-1	150
20165755	5969	1057	0	-100	0	230	101300000	1000	0	0	-1	150
20178315	5959	1068	0	-100	0	230	101300000	1000	0	0	-1	150
20190875	5967	1054	0	-100	0	230	101300000	1000	0	0	-1	150
20203435	5959	1060	0	-100	0	230	101300000	1000	0	0	-1	150
20215995	5962	1067	0	-100	0	230	101300000	1000	0	0	-1	150
20228555	5965	1064	0	-100	0	230	101300000	1000	0	0	-1	150
20241115	5958	1061	0	-100	0	230	101300000	1000	0	0	-1	150
20253675	5965	1058	0	-100	0	230	101300000	1000	0	0	-1	150
20266235	5962	1071	0	-100	0	230	101300000	1000	0	0	-1	150
20278795	5966	1060	0	-100	0	230	101300000	1000	0	0	-1	150
20291355	5964	1066	0	-100	0	230	101300000	1000	0	0	-1	150
20303915	5956	1050	0	-100	0	230	101300000	1000	0	0	-1	150
20316475	5964	1061	0	-100	0	230	101300000	1000	0	0	-1	150
20329035	5956	1067	0	-100	0	230	101300000	1000	0	0	-1	150
20341595	5969	1059	0	-100	0	230	101300000	1000	0	0	-1	150
20354155	5962	1062	0	-100	0	230	101300000	1000	0	0	-1	150
20366715	5963	1058	0	-100	0	230	101300000	1000	0	0	-1	150
20379275	5959	1067	0	-100	0	230	101300000	1000	0	0	-1	150
20391835	5964	1045	0	-100	0	230	101300000	1000	0	0	-1	150
20404395	5961	1058	0	-100	0	230	101300000	1000	0	0	-1	150
20416955	5967	1056	0	-100	0	230	101300000	1000	0	0	-1	150
20429515	5956	1067	0	-100	0	230	101300000	1000	0	0	-1	150
20442075	5970	1047	0	-100	0	230	101300000	1000	0	0	-1	150
20454635	5960	1061	0	-100	0	230	101300000	1000	0	0	-1	150
20467195	5972	1073	0	-100	0	230	101300000	1000	0	0	-1	150
20479755	5958	1064	0	-100	0	230	101300000	1000	0	0	-1	150
20492315	5966	1058	0	-100	0	230	101300000	1000	0	0	-1	150
20504875	5957	1060	0	-100	0	230	101300000	1000	0	0	-1	150
20517435	5965	1057	0	-100	0	230	101300000	1000	0	0	-1	150
20529995	5963	1075	0	-100	0	230	101300000	1000	0	0	-1	150
20542555	5966	1061	0	-100	0	230	101300000	1000	0	0	-1	150
20555115	5960	1054	0	-100	0	230	101300000	1000	0	0	-1	150
20567675	5958	1056	0	-100	0	230	101300000	1000	0	0	-1	150
20580235	5963	1056	0	-100	0	230	101300000	1000	0	0	-1	150
20592795	5962	1063	0	-100	0	230	101300000	1000	0	0	-1	150
20605355	5971	1062	0	-100	0	230	101300000	1000	0	0	-1	150
20617915	5959	1055	0	-100	0	230	101300000	1000	0	0	-1	150
20630475	5958	1051	0	-100	0	230	101300000	1000	0	0	-1	150
20643035	5968	1061	0	-100	0	230	101300000	1000	0	0	-1	150
20655595	5965	1059	0	-100	0	230	101300000	1000	0	0	-1	150
20668155	5956	1058	0	-100	0	230	101300000	1000	0	0	-1	150
20680715	5969	1057	0	-100	0	230	101300000	1000	0	0	-1	150
20693275	5960	1076	0	-100	0	230	101300000	1000	0	0	-1	150
20705835	5959	1058	0	-100	0	230	101300000	1000	0	0	-1	150
20718395	5971	1060	0	-100	0	230	101300000	1000	0	0	-1	150
20730955	5959	1060	0	-100	0	230	101300000	1000	0	0	-1	150
20743515	5962	1059	0	-100	0	230	101300000	1000	0	0	-1	150
20756075	5962	1058	0	-100	0	230	101300000	1000	0	0	-1	150
20768635	5962	1068	0	-100	0	230	101300000	1000	0	0	-1	150
20781195	5967	1052	0	-100	0	230	101300000	1000	0	0	-1	150
20793755	5964	1066	0	-100	0	230	101300000	1000	0	0	-1	150
20806315	5966	1067	0	-100	0	230	101300000	1000	0	0	-1	150
20818875	5961	1058	0	-100	0	230	101300000	1000	0	0	-1	150
20831435	5970	1054	0	-100	0	230	101300000	1000	0	0	-1	150
20843995	5963	1053	0	-100	0	230	101300000	1000	0	0	-1	150
20856555	5963	1066	0	-100	0	230	101300000	1000	0	0	-1	150
20869115	5966	1060	0	-100	0	230	101300000	1000	0	0	-1	150
20881675	5959	1072	0	-100	0	230	101300000	1000	0	0	-1	150
20894235	5962	1057	0	-100	0	230	101300000	1000	0	0	-1	150
20906795	5966	1055	0	-100	0	230	101300000	1000	0	0	-1	150
20919355	5964	1074	0	-100	0	230	101300000	1000	0	0	-1	150
20931915	5960	1063	0	-100	0	230	101300000	1000	0	0	-1	150
20944475	5965	1060	0	-100	0	230	101300000	1000	0	0	-1	150
20957035	5962	1071	0	-100	0	230	101300000	1000	0	0	-1	150
20969595	5958	1050	0	-100	0	230	101300000	1000	0	0	-1	150
20982155	5963	1059	0	-100	0	230	101300000	1000	0	0	-1	150
20994715	5964	1063	0	-100	0	230	101300000	1000	0	0	-1	150
21007275	5966	1063	0	-100	0	230	101300000	1000	0	0	-1	150
21019835	5964	1057	0	-100	0	230	101300000	1000	0	0	-1	150
21032395	5967	1052	0	-100	0	230	101300000	1000	0	0	-1	150
21044955	5963	1063	0	-100	0	230	101300000	1000	0	0	-1	150
21057515	5966	1057	0	-100	0	230	101300000	1000	0	0	-1	150
21070075	5964	1065	0	-100	0	230	101300000	1000	0	0	-1	150
21082635	5963	1055	0	-100	0	230	101300000	1000	0	0	-1	150
21095195	5957	1056	0	-100	0	230	101300000	1000	0	0	-1	150
21107755	5965	1066	0	-100	0	230	101300000	1000	0	0	-1	150
21120315	5963	1064	0	-100	0	230	101300000	1000	0	0	-1	150
21132875	5964	1057	0	-100	0	230	101300000	1000	0	0	-1	150
21145435	5965	1055	0	-100	0	230	101300000	1000	0	0	-1	150
21157995	5965	1068	0	-100	0	230	101300000	1000	0	0	-1	150
21170555	5960	1056	0	-100	0	230	101300000	1000	0	0	-1	150
21183115	5964	1061	0	-100	0	230	101300000	1000	0	0	-1	150
21195675	5964	1062	0	-100	0	230	101300000	1000	0	0	-1	150
21208235	5962	1053	0	-100	0	230	101300000	1000	0	0	-1	150
21220795	5968	1056	0	-100	0	230	101300000	1000	0	0	-1	150
21233355	5959	1057	0	-100	0	230	101300000	1000	0	0	-1	150
21245915	5961	1057	0	-100	0	230	101300000	1000	0	0	-1	150
21258475	5963	1045	0	-100	0	230	101300000	1000	0	0	-1	150
21271035	5958	1067	0	-100	0	230	101300000	1000	0	0	-1	150
21283595	5962	1062	0	-100	0	230	101300000	1000	0	0	-1	150
21296155	5965	1056	0	-100	0	230	101300000	1000	0	0	-1	150
21308715	5963	1073	0	-100	0	230	101300000	1000	0	0	-1	150
21321275	5963	1070	0	-100	0	230	101300000	1000	0	0	-1	150
21333835	5960	1067	0	-100	0	230	101300000	1000	0	0	-1	150
21346395	5962	1051	0	-100	0	230	101300000	1000	0	0	-1	150
21358955	5968	1059	0	-100	0	230	101300000	1000	0	0	-1	150
21371515	5962	1059	0	-100	0	230	101300000	1000	0	0	-1	150
21384075	5966	1061	0	-100	0	230	101300000	1000	0	0	-1	150
21396635	5961	1060	0	-100	0	230	101300000	1000	0	0	-1	150
21409195	5964	1060	0	-100	0	230	101300000	1000	0	0	-1	150
21421755	5967	1068	0	-100	0	230	101300000	1000	0	0	-1	150
21434315	5958	1066	0	-100	0	230	101300000	1000	0	0	-1	150
21446875	5965	1056	0	-100	0	230	101300000	1000	0	0	-1	150
21459435	5966	1064	0	-100	0	230	101300000	1000	0	0	-1	150
21471995	5962	1061	0	-100	0	230	101300000	1000	0	0	-1	150
21484555	5967	1056	0	-100	0	230	101300000	1000	0	0	-1	150
21497115	5966	1059	0	-100	0	230	101300000	1000	0	0	-1	150
21509675	5960	1064	0	-100	0	230	101300000	1000	0	0	-1	150
21522235	5962	1067	0	-100	0	230	101300000	1000	0	0	-1	150
21534795	5965	1062	0	-100	0	230	101300000	1000	0	0	-1	150
21547355	5957	1060	0	-100	0	230	101300000	1000	0	0	-1	150
21559915	5960	1062	0	-100	0	230	101300000	1000	0	0	-1	150
21572475	5969	1056	0	-100	0	230	101300000	1000	0	0	-1	150
21585035	5965	1069	0	-100	0	230	101300000	1000	0	0	-1	150
21597595	5963	1065	0	-100	0	230	101300000	1000	0	0	-1	150
21610155	5956	1047	0	-100	0	230	101300000	1000	0	0	-1	150
21622715	5966	1051	0	-100	0	230	101300000	1000	0	0	-1	150
21635275	5965	1062	0	-100	0	230	101300000	1000	0	0	-1	150
21647835	5963	1062	0	-100	0	230	101300000	1000	0	0	-1	150
21660395	5962	1064	0	-100	0	230	101300000	1000	0	0	-1	150
21672955	5967	1060	0	-100	0	230	101300000	1000	0	0	-1	150
21685515	5957	1067	0	-100	0	230	101300000	1000	0	0	-1	150
21698075	5962	1055	0	-100	0	230	101300000	1000	0	0	-1	150
21710635	5958	1049	0	-100	0	230	101300000	1000	0	0	-1	150
21723195	5966	1065	0	-100	0	230	101300000	1000	0	0	-1	150
21735755	5963	1061	0	-100	0	230	101300000	1000	0	0	-1	150
21748315	5961	1073	0	-100	0	230	101300000	1000	0	0	-1	150
21760875	5966	1058	0	-100	0	230	101300000	1000	0	0	-1	150
21773435	5961	1061	0	-100	0	230	101300000	1000	0	0	-1	150
21785995	5960	1054	0	-100	0	230	101300000	1000	0	0	-1	150
21798555	5969	1059	0	-100	0	230	101300000	1000	0	0	-1	150
21811115	5960	1064	0	-100	0	230	101300000	1000	0	0	-1	150
21823675	5966	1067	0	-100	0	230	101300000	1000	0	0	-1	150
21836235	5966	1057	0	-100	0	230	101300000	1000	0	0	-1	150
21848795	5960	1060	0	-100	0	230	101300000	1000	0	0	-1	150
21861355	5963	1067	0	-100	0	230	101300000	1000	0	0	-1	150
21873915	5960	1052	0	-100	0	230	101300000	1000	0	0	-1	150
21886475	5961	1060	0	-100	0	230	101300000	1000	0	0	-1	150
21899035	5966	1050	0	-100	0	230	101300000	1000	0	0	-1	150
21911595	5960	1057	0	-100	0	230	101300000	1000	0	0	-1	150
21924155	5960	1059	0	-100	0	230	101300000	1000	0	0	-1	150
21936715	5966	1064	0	-100	0	230	101300000	1000	0	0	-1	150
21949275	5962	1060	0	-100	0	230	101300000	1000	0	0	-1	150
21961835	5964	1066	0	-100	0	230	101300000	1000	0	0	-1	150
21974395	5966	1065	0	-100	0	230	101300000	1000	0	0	-1	150
21986955	5959	1039	0	-100	0	230	101300000	1000	0	0	-1	150
21999515	5969	1046	0	-100	0	230	101300000	1000	0	0	-1	150
22012075	5962	1060	0	-100	0	230	101300000	1000	0	0	-1	150
22024635	5970	1060	0	-100	0	230	101300000	1000	0	0	-1	150
22037195	5963	1067	0	-100	0	230	101300000	1000	0	0	-1	150
22049755	5962	1054	0	-100	0	230	101300000	1000	0	0	-1	150
22062315	5962	1053	0	-100	0	230	101300000	1000	0	0	-1	150
22074875	5958	1062	0	-100	0	230	101300000	1000	0	0	-1	150
22087435	5970	1052	0	-100	0	230	101300000	1000	0	0	-1	150
22099995	5957	1057	0	-100	0	230	101300000	1000	0	0	-1	150
22112555	5962	1068	0	-100	0	230	101300000	1000	0	0	-1	150
22125115	5959	1065	0	-100	0	230	101300000	1000	0	0	-1	150
22137675	5959	1056	0	-100	0	230	101300000	1000	0	0	-1	150
22150235	5960	1068	0	-100	0	230	101300000	1000	0	0	-1	150
22162795	5960	1059	0	-100	0	230	101300000	1000	0	0	-1	150
22175355	5971	1061	0	-100	0	230	101300000	1000	0	0	-1	150
22187915	5962	1053	0	-100	0	230	101300000	1000	0	0	-1	150
22200475	5967	1064	0	-100	0	230	101300000	1000	0	0	-1	150
22213035	5961	1060	0	-100	0	230	101300000	1000	0	0	-1	150
22225595	5963	1054	0	-100	0	230	101300000	1000	0	0	-1	150
22238155	5966	1061	0	-100	0	230	101300000	1000	0	0	-1	150
22250715	5962	1053	0	-100	0	230	101300000	1000	0	0	-1	150
22263275	5962	1055	0	-100	0	230	101300000	1000	0	0	-1	150
22275835	5960	1049	0	-100	0	230	101300000	1000	0	0	-1	150
22288395	5969	1053	0	-100	0	230	101300000	1000	0	0	-1	150
22300955	5960	1066	0	-100	0	230	101300000	1000	0	0	-1	150
22313515	5959	1062	0	-100	0	230	101300000	1000	0	0	-1	150
22326075	5966	1061	0	-100	0	230	101300000	1000	0	0	-1	150
22338635	5963	1054	0	-100	0	230	101300000	1000	0	0	-1	150
22351195	5961	1058	0	-100	0	230	101300000	1000	0	0	-1	150
22363755	5962	1056	0	-100	0	230	101300000	1000	0	0	-1	150
22376315	5960	1048	0	-100	0	230	101300000	1000	0	0	-1	150
22388875	5962	1056	0	-100	0	230	101300000	1000	0	0	-1	150
22401435	5956	1065	0	-100	0	230	101300000	1000	0	0	-1	150
22413995	5966	1058	0	-100	0	230	101300000	1000	0	0	-1	150
22426555	5960	1061	0	-100	0	230	101300000	1000	0	0	-1	150
22439115	5970	1055	0	-100	0	230	101300000	1000	0	0	-1	150
22451675	5962	1058	0	-100	0	230	101300000	1000	0	0	-1	150
22464235	5957	1065	0	-100	0	230	101300000	1000	0	0	-1	150
22476795	5967	1063	0	-100	0	230	101300000	1000	0	0	-1	150
22489355	5961	1067	0	-100	0	230	101300000	1000	0	0	-1	150
22501915	5969	1068	0	-100	0	230	101300000	1000	0	0	-1	150
22514475	5963	1069	0	-100	0	230	101300000	1000	0	0	-1	150
22527035	5967	1053	0	-100	0	230	101300000	1000	0	0	-1	150
22539595	5966	1055	0	-100	0	230	101300000	1000	0	0	-1	150
22552155	5959	1053	0	-100	0	230	101300000	1000	0	0	-1	150
22564715	5957	1068	0	-100	0	230	101300000	1000	0	0	-1	150
22577275	5962	1057	0	-100	0	230	101300000	1000	0	0	-1	150
22627515	5967	1056	0	-100	0	230	101300000	1000	0	0	-1	150
22640075	5963	1059	0	-100	0	230	101300000	1000	0	0	-1	150
22652635	5957	1051	0	-100	0	230	101300000	1000	0	0	-1	150
22665195	5962	1057	0	-100	0	230	101300000	1000	0	0	-1	150
22677755	5963	1066	0	-100	0	230	101300000	1000	0	0	-1	150
22690315	5956	1056	0	-100	0	230	101300000	1000	0	0	-1	150
22702875	5963	1058	0	-100	0	230	101300000	1000	0	0	-1	150
22715435	5963	1056	0	-100	0	230	101300000	1000	0	0	-1	150
22727995	5965	1064	0	-100	0	230	101300000	1000	0	0	-1	150
22740555	5957	1057	0	-100	0	230	101300000	1000	0	0	-1	150
22753115	5966	1057	0	-100	0	230	101300000	1000	0	0	-1	150
22765675	5963	1062	0	-100	0	230	101300000	1000	0	0	-1	150
22778235	5962	1061	0	-100	0	230	101300000	1000	0	0	-1	150
22790795	5962	1058	0	-100	0	230	101300000	1000	0	0	-1	150
22803355	5965	1054	0	-100	0	230	101300000	1000	0	0	-1	150
22815915	5963	1069	0	-100	0	230	101300000	1000	0	0	-1	150
22828475	5962	1061	0	-100	0	230	101300000	1000	0	0	-1	150
22841035	5964	1062	0	-100	0	230	101300000	1000	0	0	-1	150
22853595	5962	1064	0	-100	0	230	101300000	1000	0	0	-1	150
22866155	5964	1060	0	-100	0	230	101300000	1000	0	0	-1	150
22878715	5964	1059	0	-100	0	230	101300000	1000	0	0	-1	150
22891275	5966	1060	0	-100	0	230	101300000	1000	0	0	-1	150
22903835	5960	1060	0	-100	0	230	101300000	1000	0	0	-1	150
22916395	5954	1057	0	-100	0	230	101300000	1000	0	0	-1	150
22928955	5965	1049	0	-100	0	230	101300000	1000	0	0	-1	150
22941515	5963	1059	0	-100	0	230	101300000	1000	0	0	-1	150
22954075	5959	1065	0	-100	0	230	101300000	1000	0	0	-1	150
22966635	5969	1060	0	-100	0	230	101300000	1000	0	0	-1	150
22979195	5957	1063	0	-100	0	230	101300000	1000	0	0	-1	150
22991755	5964	1049	0	-100	0	230	101300000	1000	0	0	-1	150
23004315	5968	1059	0	-100	0	230	101300000	1000	0	0	-1	150
23016875	5963	1068	0	-100	0	230	101300000	1000	0	0	-1	150
23029435	5962	1061	0	-100	0	230	101300000	1000	0	0	-1	150
23041995	5966	1056	0	-100	0	230	101300000	1000	0	0	-1	150
23054555	5961	1061	0	-100	0	230	101300000	1000	0	0	-1	150
23067115	5965	1065	0	-100	0	230	101300000	1000	0	0	-1	150
23079675	5962	1061	0	-100	0	230	101300000	1000	0	0	-1	150
23092235	5963	1054	0	-100	0	230	101300000	1000	0	0	-1	150
23104795	5966	1062	0	-100	0	230	101300000	1000	0	0	-1	150
23117355	5958	1058	0	-100	0	230	101300000	1000	0	0	-1	150
23129915	5971	1047	0	-100	0	230	101300000	1000	0	0	-1	150
23142475	5958	1068	0	-100	0	230	101300000	1000	0	0	-1	150
23155035	5961	1065	0	-100	0	230	101300000	1000	0	0	-1	150
23167595	5966	1059	0	-100	0	230	101300000	1000	0	0	-1	150
23180155	5957	1051	0	-100	0	230	101300000	1000	0	0	-1	150
23192715	5960	1062	0	-100	0	230	101300000	1000	0	0	-1	150
23205275	5967	1068	0	-100	0	230	101300000	1000	0	0	-1	150
23217835	5958	1059	0	-100	0	230	101300000	1000	0	0	-1	150
23230395	5962	1061	0	-100	0	230	101300000	1000	0	0	-1	150
23242955	5966	1064	0	-100	0	230	101300000	1000	0	0	-1	150
23255515	5962	1067	0	-100	0	230	101300000	1000	0	0	-1	150
23268075	5958	1068	0	-100	0	230	101300000	1000	0	0	-1	150
23280635	5965	1057	0	-100	0	230	101300000	1000	0	0	-1	150
23293195	5963	1063	0	-100	0	230	101300000	1000	0	0	-1	150
23305755	5960	1062	0	-100	0	230	101300000	1000	0	0	-1	150
23318315	5961	1056	0	-100	0	230	101300000	1000	0	0	-1	150
23330875	5969	1054	0	-100	0	230	101300000	1000	0	0	-1	150
23343435	5959	1061	0	-100	0	230	101300000	1000	0	0	-1	150
23355995	5962	1065	0	-100	0	230	101300000	1000	0	0	-1	150
23368555	5969	1056	0	-100	0	230	101300000	1000	0	0	-1	150
23381115	5963	1057	0	-100	0	230	101300000	1000	0	0	-1	150
23393675	5965	1056	0	-100	0	230	101300000	1000	0	0	-1	150
23406235	5961	1051	0	-100	0	230	101300000	1000	0	0	-1	150
23418795	5958	1053	0	-100	0	230	101300000	1000	0	0	-1	150
23431355	5969	1056	0	-100	0	230	101300000	1000	0	0	-1	150
23443915	5958	1065	0	-100	0	230	101300000	1000	0	0	-1	150
23456475	5964	1053	0	-100	0	230	101300000	1000	0	0	-1	150
23469035	5963	1068	0	-100	0	230	101300000	1000	0	0	-1	150
23481595	5962	1063	0	-100	0	230	101300000	1000	0	0	-1	150
23494155	5961	1060	0	-100	0	230	101300000	1000	0	0	-1	150
23506715	5967	1060	0	-100	0	230	101300000	1000	0	0	-1	150
23519275	5959	1063	0	-100	0	230	101300000	1000	0	0	-1	150
23531835	5962	1051	0	-100	0	230	101300000	1000	0	0	-1	150
23544395	5966	1049	0	-100	0	230	101300000	1000	0	0	-1	150
23556955	5962	1058	0	-100	0	230	101300000	1000	0	0	-1	150
23569515	5966	1048	0	-100	0	230	101300000	1000	0	0	-1	150
23582075	5962	1060	0	-100	0	230	101300000	1000	0	0	-1	150
23594635	5967	1064	0	-100	0	230	101300000	1000	0	0	-1	150
23607195	5960	1060	0	-100	0	230	101300000	1000	0	0	-1	150
23619755	5969	1061	0	-100	0	230	101300000	1000	0	0	-1	150
23632315	5961	1056	0	-100	0	230	101300000	1000	0	0	-1	150
23644875	5963	1064	0	-100	0	230	101300000	1000	0	0	-1	150
23657435	5958	1057	0	-100	0	230	101300000	1000	0	0	-1	150
23669995	5966	1061	0	-100	0	230	101300000	1000	0	0	-1	150
23682555	5962	1061	0	-100	0	230	101300000	1000	0	0	-1	150
23695115	5961	1052	0	-100	0	230	101300000	1000	0	0	-1	150
23707675	5960	1051	0	-100	0	230	101300000	1000	0	0	-1	150
23720235	5966	1055	0	-100	0	230	101300000	1000	0	0	-1	150
23732795	5962	1064	0	-100	0	230	101300000	1000	0	0	-1	150
23745355	5967	1063	0	-100	0	230	101300000	1000	0	0	-1	150
23757915	5962	1067	0	-100	0	230	101300000	1000	0	0	-1	150
23770475	5966	1064	0	-100	0	230	101300000	1000	0	0	-1	150
23783035	5963	1061	0	-100	0	230	101300000	1000	0	0	-1	150
23795595	5954	1063	0	-100	0	230	101300000	1000	0	0	-1	150
23808155	5969	1065	0	-100	0	230	101300000	1000	0	0	-1	150
23820715	5961	1060	0	-100	0	230	101300000	1000	0	0	-1	150
23833275	5964	1057	0	-100	0	230	101300000	1000	0	0	-1	150
23845835	5963	1064	0	-100	0	230	101300000	1000	0	0	-1	150
23858395	5962	1053	0	-100	0	230	101300000	1000	0	0	-1	150
23870955	5967	1064	0	-100	0	230	101300000	1000	0	0	-1	150
23883515	5961	1059	0	-100	0	230	101300000	1000	0	0	-1	150
23896075	5958	1058	0	-100	0	230	101300000	1000	0	0	-1	150
23908635	5968	1057	0	-100	0	230	101300000	1000	0	0	-1	150
23921195	5962	1065	0	-100	0	230	101300000	1000	0	0	-1	150
23933755	5971	1058	0	-100	0	230	101300000	1000	0	0	-1	150
23946315	5960	1060	0	-100	0	230	101300000	1000	0	0	-1	150
23958875	5968	1062	0	-100	0	230	101300000	1000	0	0	-1	150
23971435	5964	1060	0	-100	0	230	101300000	1000	0	0	-1	150
23983995	5964	1061	0	-100	0	230	101300000	1000	0	0	-1	150
23996555	5960	1056	0	-100	0	230	101300000	1000	0	0	-1	150
24009115	5967	1064	0	-100	0	230	101300000	1000	0	0	-1	150
24021675	5963	1054	0	-100	0	230	101300000	1000	0	0	-1	150
24034235	5960	1056	0	-100	0	230	101300000	1000	0	0	-1	150
24046795	5956	1055	0	-100	0	230	101300000	1000	0	0	-1	150
24059355	5969	1063	0	-100	0	230	101300000	1000	0	0	-1	150
24071915	5964	1059	0	-100	0	230	101300000	1000	0	0	-1	150
24084475	5967	1058	0	-100	0	230	101300000	1000	0	0	-1	150
24097035	5968	1072	0	-100	0	230	101300000	1000	0	0	-1	150
24109595	5962	1055	0	-100	0	230	101300000	1000	0	0	-1	150
24122155	5959	1062	0	-100	0	230	101300000	1000	0	0	-1	150
24134715	5959	1067	0	-100	0	230	101300000	1000	0	0	-1	150
24147275	5966	1070	0	-100	0	230	101300000	1000	0	0	-1	150
24159835	5961	1049	0	-100	0	230	101300000	1000	0	0	-1	150
24172395	5967	1059	0	-100	0	230	101300000	1000	0	0	-1	150
24184955	5963	1060	0	-100	0	230	101300000	1000	0	0	-1	150
24197515	5959	1073	0	-100	0	230	101300000	1000	0	0	-1	150
24210075	5969	1060	0	-100	0	230	101300000	1000	0	0	-1	150
24222635	5966	1060	0	-100	0	230	101300000	1000	0	0	-1	150
24235195	5966	1062	0	-100	0	230	101300000	1000	0	0	-1	150
24247755	5960	1072	0	-100	0	230	101300000	1000	0	0	-1	150
24260315	5969	1064	0	-100	0	230	101300000	1000	0	0	-1	150
24272875	5966	1050	0	-100	0	230	101300000	1000	0	0	-1	150
24285435	5965	1068	0	-100	0	230	101300000	1000	0	0	-1	150
24297995	5962	1064	0	-100	0	230	101300000	1000	0	0	-1	150
24310555	5966	1064	0	-100	0	230	101300000	1000	0	0	-1	150
24323115	5965	1066	0	-100	0	230	101300000	1000	0	0	-1	150
24335675	5963	1061	0	-100	0	230	101300000	1000	0	0	-1	150
24348235	5966	1070	0	-100	0	230	101300000	1000	0	0	-1	150
24360795	5960	1062	0	-100	0	230	101300000	1000	0	0	-1	150
24373355	5967	1061	0	-100	0	230	101300000	1000	0	0	-1	150
24385915	5960	1072	0	-100	0	230	101300000	1000	0	0	-1	150
24398475	5969	1060	0	-100	0	230	101300000	1000	0	0	-1	150
24411035	5957	1067	0	-100	0	230	101300000	1000	0	0	-1	150
24423595	5962	1059	0	-100	0	230	101300000	1000	0	0	-1	150
24436155	5962	1059	0	-100	0	230	101300000	1000	0	0	-1	150
24448715	5962	1064	0	-100	0	230	101300000	1000	0	0	-1	150
24461275	5960	1062	0	-100	0	230	101300000	1000	0	0	-1	150
24473835	5973	1064	0	-100	0	230	101300000	1000	0	0	-1	150
24486395	5961	1058	0	-100	0	230	101300000	1000	0	0	-1	150
24498955	5969	1041	0	-100	0	230	101300000	1000	0	0	-1	150
24511515	5961	1064	0	-100	0	230	101300000	1000	0	0	-1	150
24524075	5963	1059	0	-100	0	230	101300000	1000	0	0	-1	150
24536635	5960	1065	0	-100	0	230	101300000	1000	0	0	-1	150
24549195	5966	1061	0	-100	0	230	101300000	1000	0	0	-1	150
24561755	5961	1070	0	-100	0	230	101300000	1000	0	0	-1	150
24574315	5963	1064	0	-100	0	230	101300000	1000	0	0	-1	150
24586875	5966	1047	0	-100	0	230	101300000	1000	0	0	-1	150
24599435	5962	1049	0	-100	0	230	101300000	1000	0	0	-1	150
24611995	5962	1069	0	-100	0	230	101300000	1000	0	0	-1	150
24624555	5962	1054	0	-100	0	230	101300000	1000	0	0	-1	150
24637115	5971	1078	0	-100	0	230	101300000	1000	0	0	-1	150
24649675	5964	1068	0	-100	0	230	101300000	1000	0	0	-1	150
24662235	5966	1066	0	-100	0	230	101300000	1000	0	0	-1	150
24674795	5957	1061	0	-100	0	230	101300000	1000	0	0	-1	150
24687355	5966	1070	0	-100	0	230	101300000	1000	0	0	-1	150
24699915	5959	1061	0	-100	0	230	101300000	1000	0	0	-1	150
24712475	5958	1063	0	-100	0	230	101300000	1000	0	0	-1	150
24725035	5960	1060	0	-100	0	230	101300000	1000	0	0	-1	150
24737595	5965	1062	0	-100	0	230	101300000	1000	0	0	-1	150
24750155	5966	1061	0	-100	0	230	101300000	1000	0	0	-1	150
24762715	5966	1058	0	-100	0	230	101300000	1000	0	0	-1	150
24775275	5964	1057	0	-100	0	230	101300000	1000	0	0	-1	150
24787835	5963	1059	0	-100	0	230	101300000	1000	0	0	-1	150
24800395	5961	1074	0	-100	0	230	101300000	1000	0	0	-1	150
24812955	5962	1056	0	-100	0	230	101300000	1000	0	0	-1	150
24825515	5958	1057	0	-100	0	230	101300000	1000	0	0	-1	150
24838075	5966	1058	0	-100	0	230	101300000	1000	0	0	-1	150
24850635	5965	1061	0	-100	0	230	101300000	1000	0	0	-1	150
24863195	5967	1069	0	-100	0	230	101300000	1000	0	0	-1	150
24875755	5960	1065	0	-100	0	230	101300000	1000	0	0	-1	150
24888315	5961	1063	0	-100	0	230	101300000	1000	0	0	-1	150
24900875	5963	1066	0	-100	0	230	101300000	1000	0	0	-1	150
24913435	5961	1054	0	-100	0	230	101300000	1000	0	0	-1	150
24925995	5965	1062	0	-100	0	230	101300000	1000	0	0	-1	150
24938555	5966	1063	0	-100	0	230	101300000	1000	0	0	-1	150
24951115	5959	1066	0	-100	0	230	101300000	1000	0	0	-1	150
24963675	5962	1060	0	-100	0	230	101300000	1000	0	0	-1	150
24976235	5963	1061	0	-100	0	230	101300000	1000	0	0	-1	150
24988795	5967	1056	0	-100	0	230	101300000	1000	0	0	-1	150
25001355	5957	1064	0	-100	0	230	101300000	1000	0	0	-1	150
25013915	5963	1068	0	-100	0	230	101300000	1000	0	0	-1	150
25026475	5962	1065	0	-100	0	230	101300000	1000	0	0	-1	150
25039035	5965	1063	0	-100	0	230	101300000	1000	0	0	-1	150
25051595	5970	1059	0	-100	0	230	101300000	1000	0	0	-1	150
25064155	5962	1062	0	-100	0	230	101300000	1000	0	0	-1	150
25076715	5965	1055	0	-100	0	230	101300000	1000	0	0	-1	150
25089275	5960	1060	0	-100	0	230	101300000	1000	0	0	-1	150
25101835	5962	1071	0	-100	0	230	101300000	1000	0	0	-1	150
25114395	5966	1059	0	-100	0	230	101300000	1000	0	0	-1	150
25126955	5966	1059	0	-100	0	230	101300000	1000	0	0	-1	150
25139515	5969	1060	0	-100	0	230	101300000	1000	0	0	-1	150
25152075	5962	1062	0	-100	0	230	101300000	1000	0	0	-1	150
25164635	5961	1058	0	-100	0	230	101300000	1000	0	0	-1	150
25177195	5963	1063	0	-100	0	230	101300000	1000	0	0	-1	150
25189755	5957	1062	0	-100	0	230	101300000	1000	0	0	-1	150
25202315	5964	1064	0	-100	0	230	101300000	1000	0	0	-1	150
25214875	5969	1061	0	-100	0	230	101300000	1000	0	0	-1	150
25227435	5962	1070	0	-100	0	230	101300000	1000	0	0	-1	150
25239995	5961	1048	0	-100	0	230	101300000	1000	0	0	-1	150
25252555	5958	1061	0	-100	0	230	101300000	1000	0	0	-1	150
25265115	5966	1057	0	-100	0	230	101300000	1000	0	0	-1	150
25277675	5967	1063	0	-100	0	230	101300000	1000	0	0	-1	150
25290235	5969	1061	0	-100	0	230	101300000	1000	0	0	-1	150
25302795	5964	1057	0	-100	0	230	101300000	1000	0	0	-1	150
25315355	5958	1065	0	-100	0	230	101300000	1000	0	0	-1	150
25327915	5962	1050	0	-100	0	230	101300000	1000	0	0	-1	150
25340475	5969	1057	0	-100	0	230	101300000	1000	0	0	-1	150
25353035	5963	1061	0	-100	0	230	101300000	1000	0	0	-1	150
25365595	5960	1058	0	-100	0	230	101300000	1000	0	0	-1	150
25378155	5966	1058	0	-100	0	230	101300000	1000	0	0	-1	150
25390715	5962	1060	0	-100	0	230	101300000	1000	0	0	-1	150
25403275	5960	1065	0	-100	0	230	101300000	1000	0	0	-1	150
25415835	5966	1042	0	-100	0	230	101300000	1000	0	0	-1	150
25428395	5968	1056	0	-100	0	230	101300000	1000	0	0	-1	150
25440955	5962	1053	0	-100	0	230	101300000	1000	0	0	-1	150
25453515	5960	1052	0	-100	0	230	101300000	1000	0	0	-1	150
25466075	5969	1069	0	-100	0	230	101300000	1000	0	0	-1	150
25478635	5962	1066	0	-100	0	230	101300000	1000	0	0	-1	150
25491195	5959	1059	0	-100	0	230	101300000	1000	0	0	-1	150
25503755	5962	1057	0	-100	0	230	101300000	1000	0	0	-1	150
25516315	5965	1056	0	-100	0	230	101300000	1000	0	0	-1	150
25528875	5965	1046	0	-100	0	230	101300000	1000	0	0	-1	150
25541435	5959	1067	0	-100	0	230	101300000	1000	0	0	-1	150
25553995	5960	1060	0	-100	0	230	101300000	1000	0	0	-1	150
25566555	5963	1049	0	-100	0	230	101300000	1000	0	0	-1	150
25579115	5962	1066	0	-100	0	230	101300000	1000	0	0	-1	150
25591675	5960	1068	0	-100	0	230	101300000	1000	0	0	-1	150
25604235	5963	1055	0	-100	0	230	101300000	1000	0	0	-1	150
25616795	5962	1060	0	-100	0	230	101300000	1000	0	0	-1	150
25629355	5956	1054	0	-100	0	230	101300000	1000	0	0	-1	150
25641915	5966	1054	0	-100	0	230	101300000	1000	0	0	-1	150
25654475	5961	1072	0	-100	0	230	101300000	1000	0	0	-1	150
25667035	5961	1055	0	-100	0	230	101300000	1000	0	0	-1	150
25679595	5969	1068	0	-100	0	230	101300000	1000	0	0	-1	150
25692155	5966	1062	0	-100	0	230	101300000	1000	0	0	-1	150
25704715	5963	1071	0	-100	0	230	101300000	1000	0	0	-1	150
25717275	5960	1061	0	-100	0	230	101300000	1000	0	0	-1	150
25729835	5962	1058	0	-100	0	230	101300000	1000	0	0	-1	150
25742395	5966	1062	0	-100	0	230	101300000	1000	0	0	-1	150
25754955	5962	1066	0	-100	0	230	101300000	1000	0	0	-1	150
25767515	5969	1057	0	-100	0	230	101300000	1000	0	0	-1	150
25780075	5971	1059	0	-100	0	230	101300000	1000	0	0	-1	150
25792635	5958	1050	0	-100	0	230	101300000	1000	0	0	-1	150
25805195	5966	1059	0	-100	0	230	101300000	1000	0	0	-1	150
25817755	5958	1067	0	-100	0	230	101300000	1000	0	0	-1	150
25830315	5965	1063	0	-100	0	230	101300000	1000	0	0	-1	150
25842875	5966	1068	0	-100	0	230	101300000	1000	0	0	-1	150
25855435	5961	1066	0	-100	0	230	101300000	1000	0	0	-1	150
25867995	5963	1057	0	-100	0	230	101300000	1000	0	0	-1	150
25880555	5962	1060	0	-100	0	230	101300000	1000	0	0	-1	150
25893115	5966	1058	0	-100	0	230	101300000	1000	0	0	-1	150
25905675	5963	1059	0	-100	0	230	101300000	1000	0	0	-1	150
25918235	5961	1056	0	-100	0	230	101300000	1000	0	0	-1	150
25930795	5961	1056	0	-100	0	230	101300000	1000	0	0	-1	150
25943355	5960	1062	0	-100	0	230	101300000	1000	0	0	-1	150
25955915	5963	1065	0	-100	0	230	101300000	1000	0	0	-1	150
25968475	5969	1062	0	-100	0	230	101300000	1000	0	0	-1	150
25981035	5973	1063	0	-100	0	230	101300000	1000	0	0	-1	150
25993595	5962	1048	0	-100	0	230	101300000	1000	0	0	-1	150
26006155	5963	1060	0	-100	0	230	101300000	1000	0	0	-1	150
26018715	5962	1064	0	-100	0	230	101300000	1000	0	0	-1	150
26031275	5962	1070	0	-100	0	230	101300000	1000	0	0	-1	150
26043835	5965	1064	0	-100	0	230	101300000	1000	0	0	-1	150
26056395	5966	1066	0	-100	0	230	101300000	1000	0	0	-1	150
26068955	5963	1072	0	-100	0	230	101300000	1000	0	0	-1	150
26081515	5960	1047	0	-100	0	230	101300000	1000	0	0	-1	150
26094075	5962	1066	0	-100	0	230	101300000	1000	0	0	-1	150
26106635	5962	1064	0	-100	0	230	101300000	1000	0	0	-1	150
26119195	5968	1062	0	-100	0	230	101300000	1000	0	0	-1	150
26131755	5965	1062	0	-100	0	230	101300000	1000	0	0	-1	150
26144315	5966	1061	0	-100	0	230	101300000	1000	0	0	-1	150
26156875	5968	1063	0	-100	0	230	101300000	1000	0	0	-1	150
26169435	5966	1060	0	-100	0	230	101300000	1000	0	0	-1	150
26181995	5962	1060	0	-100	0	230	101300000	1000	0	0	-1	150
26194555	5962	1061	0	-100	0	230	101300000	1000	0	0	-1	150
26207115	5961	1063	0	-100	0	230	101300000	1000	0	0	-1	150
26219675	5961	1062	0	-100	0	230	101300000	1000	0	0	-1	150
26232235	5962	1062	0	-100	0	230	101300000	1000	0	0	-1	150
26244795	5962	1057	0	-100	0	230	101300000	1000	0	0	-1	150
26257355	5963	1050	0	-100	0	230	101300000	1000	0	0	-1	150
26269915	5966	1060	0	-100	0	230	101300000	1000	0	0	-1	150
26282475	5965	1071	0	-100	0	230	101300000	1000	0	0	-1	150
26295035	5960	1049	0	-100	0	230	101300000	1000	0	0	-1	150
26307595	5964	1067	0	-100	0	230	101300000	1000	0	0	-1	150
26320155	5966	1069	0	-100	0	230	101300000	1000	0	0	-1	150
26332715	5960	1065	0	-100	0	230	101300000	1000	0	0	-1	150
26345275	5962	1057	0	-100	0	230	101300000	1000	0	0	-1	150
26357835	5957	1068	0	-100	0	230	101300000	1000	0	0	-1	150
26370395	5965	1060	0	-100	0	230	101300000	1000	0	0	-1	150
26382955	5969	1054	0	-100	0	230	101300000	1000	0	0	-1	150
26395515	5966	1049	0	-100	0	230	101300000	1000	0	0	-1	150
26408075	5966	1065	0	-100	0	230	101300000	1000	0	0	-1	150
26420635	5963	1057	0	-100	0	230	101300000	1000	0	0	-1	150
26433195	5957	1053	0	-100	0	230	101300000	1000	0	0	-1	150
26445755	5961	1059	0	-100	0	230	101300000	1000	0	0	-1	150
26458315	5957	1068	0	-100	0	230	101300000	1000	0	0	-1	150
26470875	5959	1065	0	-100	0	230	101300000	1000	0	0	-1	150
26483435	5957	1066	0	-100	0	230	101300000	1000	0	0	-1	150
26495995	5957	1062	0	-100	0	230	101300000	1000	0	0	-1	150
26508555	5959	1053	0	-100	0	230	101300000	1000	0	0	-1	150
26521115	5963	1053	0	-100	0	230	101300000	1000	0	0	-1	150
26533675	5965	1064	0	-100	0	230	101300000	1000	0	0	-1	150
26546235	5966	1058	0	-100	0	230	101300000	1000	0	0	-1	150
26558795	5970	1064	0	-100	0	230	101300000	1000	0	0	-1	150
26571355	5959	1046	0	-100	0	230	101300000	1000	0	0	-1	150
26583915	5965	1073	0	-100	0	230	101300000	1000	0	0	-1	150
26596475	5958	1043	0	-100	0	230	101300000	1000	0	0	-1	150
26609035	5963	1065	0	-100	0	230	101300000	1000	0	0	-1	150
26621595	5969	1061	0	-100	0	230	101300000	1000	0	0	-1	150
26634155	5962	1066	0	-100	0	230	101300000	1000	0	0	-1	150
26646715	5954	1057	0	-100	0	230	101300000	1000	0	0	-1	150
26659275	5966	1063	0	-100	0	230	101300000	1000	0	0	-1	150
26671835	5964	1049	0	-100	0	230	101300000	1000	0	0	-1	150
26684395	5962	1062	0	-100	0	230	101300000	1000	0	0	-1	150
26696955	5962	1066	0	-100	0	230	101300000	1000	0	0	-1	150
26709515	5962	1065	0	-100	0	230	101300000	1000	0	0	-1	150
26722075	5967	1063	0	-100	0	230	101300000	1000	0	0	-1	150
26734635	5962	1074	0	-100	0	230	101300000	1000	0	0	-1	150
26747195	5961	1064	0	-100	0	230	101300000	1000	0	0	-1	150
26759755	5961	1063	0	-100	0	230	101300000	1000	0	0	-1	150
26772315	5959	1053	0	-100	0	230	101300000	1000	0	0	-1	150
26784875	5962	1071	0	-100	0	230	101300000	1000	0	0	-1	150
26797435	5958	1054	0	-100	0	230	101300000	1000	0	0	-1	150
26809995	5966	1059	0	-100	0	230	101300000	1000	0	0	-1	150
26822555	5969	1061	0	-100	0	230	101300000	1000	0	0	-1	150
26835115	5962	1061	0	-100	0	230	101300000	1000	0	0	-1	150
26847675	5962	1064	0	-100	0	230	101300000	1000	0	0	-1	150
26860235	5962	1066	0	-100	0	230	101300000	1000	0	0	-1	150
26872795	5963	1074	0	-100	0	230	101300000	1000	0	0	-1	150
26885355	5960	1055	0	-100	0	230	101300000	1000	0	0	-1	150
26897915	5970	1053	0	-100	0	230	101300000	1000	0	0	-1	150
26910475	5966	1055	0	-100	0	230	101300000	1000	0	0	-1	150
26923035	5966	1061	0	-100	0	230	101300000	1000	0	0	-1	150
26935595	5962	1056	0	-100	0	230	101300000	1000	0	0	-1	150
26948155	5965	1069	0	-100	0	230	101300000	1000	0	0	-1	150
26960715	5962	1064	0	-100	0	230	101300000	1000	0	0	-1	150
26973275	5957	1051	0	-100	0	230	101300000	1000	0	0	-1	150
26985835	5961	1062	0	-100	0	230	101300000	1000	0	0	-1	150
26998395	5962	1061	0	-100	0	230	101300000	1000	0	0	-1	150
27010955	5967	1057	0	-100	0	230	101300000	1000	0	0	-1	150
27023515	5965	1064	0	-100	0	230	101300000	1000	0	0	-1	150
27036075	5962	1057	0	-100	0	230	101300000	1000	0	0	-1	150
27048635	5962	1056	0	-100	0	230	101300000	1000	0	0	-1	150
