timestamp	voltage	current	windSpeed	pitchAngle	rpm	temperature	ambientPressure	humidity	accelerationX	accelerationY	accelerationZ	currentSink
7039070	6016	856	0	-100	0	230	101300000	1000	0	0	-1	0
7046523	6017	859	0	-100	0	230	101300000	1000	0	0	-1	0
7059083	6019	854	0	-100	0	230	101300000	1000	0	0	-1	0
7071643	6014	860	0	-100	0	230	101300000	1000	0	0	-1	0
7084203	6013	854	0	-100	0	230	101300000	1000	0	0	-1	0
7096763	6016	859	0	-100	0	230	101300000	1000	0	0	-1	0
7109323	6017	859	0	-100	0	230	101300000	1000	0	0	-1	0
7121883	6020	862	0	-100	0	230	101300000	1000	0	0	-1	0
7134443	6018	860	0	-100	0	230	101300000	1000	0	0	-1	0
7147004	6026	858	0	-100	0	230	101300000	1000	0	0	-1	0
7159563	6014	856	0	-100	0	230	101300000	1000	0	0	-1	0
7172123	6017	851	0	-100	0	230	101300000	1000	0	0	-1	0
7184683	6014	863	0	-100	0	230	101300000	1000	0	0	-1	0
7197243	6012	856	0	-100	0	230	101300000	1000	0	0	-1	0
7209803	6018	858	0	-100	0	230	101300000	1000	0	0	-1	0
7222363	6017	857	0	-100	0	230	101300000	1000	0	0	-1	0
7234923	6012	855	0	-100	0	230	101300000	1000	0	0	-1	0
7247483	6020	859	0	-100	0	230	101300000	1000	0	0	-1	0
7260043	6016	858	0	-100	0	230	101300000	1000	0	0	-1	0
7272603	6023	857	0	-100	0	230	101300000	1000	0	0	-1	0
7285163	6023	851	0	-100	0	230	101300000	1000	0	0	-1	0
7297723	6023	855	0	-100	0	230	101300000	1000	0	0	-1	0
7310283	6027	857	0	-100	0	230	101300000	1000	0	0	-1	0
7322843	6022	855	0	-100	0	230	101300000	1000	0	0	-1	0
7335403	6021	860	0	-100	0	230	101300000	1000	0	0	-1	0
7347963	6021	858	0	-100	0	230	101300000	1000	0	0	-1	0
7681115	5945	1135	0	-100	0	230	101300000	1000	0	0	-1	205
7693675	5945	1137	0	-100	0	230	101300000	1000	0	0	-1	205
7706235	5950	1131	0	-100	0	230	101300000	1000	0	0	-1	205
7718795	5952	1133	0	-100	0	230	101300000	1000	0	0	-1	205
7731355	5948	1132	0	-100	0	230	101300000	1000	0	0	-1	205
7743915	5949	1131	0	-100	0	230	101300000	1000	0	0	-1	205
7756475	5952	1129	0	-100	0	230	101300000	1000	0	0	-1	205
7769035	5949	1129	0	-100	0	230	101300000	1000	0	0	-1	205
7781595	5945	1127	0	-100	0	230	101300000	1000	0	0	-1	205
7794155	5946	1129	0	-100	0	230	101300000	1000	0	0	-1	205
7806715	5945	1126	0	-100	0	230	101300000	1000	0	0	-1	205
7819275	5939	1127	0	-100	0	230	101300000	1000	0	0	-1	205
7831835	5943	1128	0	-100	0	230	101300000	1000	0	0	-1	205
7844395	5945	1128	0	-100	0	230	101300000	1000	0	0	-1	205
7856955	5943	1131	0	-100	0	230	101300000	1000	0	0	-1	205
7869515	5944	1127	0	-100	0	230	101300000	1000	0	0	-1	205
7882075	5941	1131	0	-100	0	230	101300000	1000	0	0	-1	205
7894635	5942	1137	0	-100	0	230	101300000	1000	0	0	-1	205
7907195	5946	1126	0	-100	0	230	101300000	1000	0	0	-1	205
7919755	5947	1131	0	-100	0	230	101300000	1000	0	0	-1	205
7932315	5947	1132	0	-100	0	230	101300000	1000	0	0	-1	205
7944875	5948	1130	0	-100	0	230	101300000	1000	0	0	-1	205
7957435	5944	1130	0	-100	0	230	101300000	1000	0	0	-1	205
7969995	5939	1128	0	-100	0	230	101300000	1000	0	0	-1	205
7982555	5942	1137	0	-100	0	230	101300000	1000	0	0	-1	205
7995115	5942	1137	0	-100	0	230	101300000	1000	0	0	-1	205
8007675	5946	1134	0	-100	0	230	101300000	1000	0	0	-1	205
8020235	5949	1134	0	-100	0	230	101300000	1000	0	0	-1	205
8032795	5943	1136	0	-100	0	230	101300000	1000	0	0	-1	205
8045355	5941	1135	0	-100	0	230	101300000	1000	0	0	-1	205
8057915	5945	1132	0	-100	0	230	101300000	1000	0	0	-1	205
8070475	5939	1130	0	-100	0	230	101300000	1000	0	0	-1	205
8083035	5943	1128	0	-100	0	230	101300000	1000	0	0	-1	205
8095595	5942	1125	0	-100	0	230	101300000	1000	0	0	-1	205
8108155	5945	1138	0	-100	0	230	101300000	1000	0	0	-1	205
8120715	5946	1132	0	-100	0	230	101300000	1000	0	0	-1	205
8133275	5947	1136	0	-100	0	230	101300000	1000	0	0	-1	205
8145835	5944	1134	0	-100	0	230	101300000	1000	0	0	-1	205
8158395	5945	1125	0	-100	0	230	101300000	1000	0	0	-1	205
8170955	5954	1133	0	-100	0	230	101300000	1000	0	0	-1	205
8183515	5949	1127	0	-100	0	230	101300000	1000	0	0	-1	205
8196075	5943	1136	0	-100	0	230	101300000	1000	0	0	-1	205
8208635	5942	1136	0	-100	0	230	101300000	1000	0	0	-1	205
8221195	5941	1138	0	-100	0	230	101300000	1000	0	0	-1	205
8233755	5946	1136	0	-100	0	230	101300000	1000	0	0	-1	205
8246315	5942	1131	0	-100	0	230	101300000	1000	0	0	-1	205
8258875	5942	1126	0	-100	0	230	101300000	1000	0	0	-1	205
8271435	5940	1127	0	-100	0	230	101300000	1000	0	0	-1	205
8283995	5939	1134	0	-100	0	230	101300000	1000	0	0	-1	205
8296555	5947	1131	0	-100	0	230	101300000	1000	0	0	-1	205
8309115	5949	1137	0	-100	0	230	101300000	1000	0	0	-1	205
8321675	5945	1131	0	-100	0	230	101300000	1000	0	0	-1	205
8334235	5946	1130	0	-100	0	230	101300000	1000	0	0	-1	205
8346795	5946	1134	0	-100	0	230	101300000	1000	0	0	-1	205
8359355	5949	1131	0	-100	0	230	101300000	1000	0	0	-1	205
8371915	5948	1130	0	-100	0	230	101300000	1000	0	0	-1	205
8384475	5949	1126	0	-100	0	230	101300000	1000	0	0	-1	205
8397035	5946	1136	0	-100	0	230	101300000	1000	0	0	-1	205
8409595	5945	1133	0	-100	0	230	101300000	1000	0	0	-1	205
8422155	5941	1127	0	-100	0	230	101300000	1000	0	0	-1	205
8434715	5945	1133	0	-100	0	230	101300000	1000	0	0	-1	205
8447275	5939	1128	0	-100	0	230	101300000	1000	0	0	-1	205
8459835	5945	1129	0	-100	0	230	101300000	1000	0	0	-1	205
8472395	5946	1132	0	-100	0	230	101300000	1000	0	0	-1	205
8484955	5950	1123	0	-100	0	230	101300000	1000	0	0	-1	205
8497515	5948	1127	0	-100	0	230	101300000	1000	0	0	-1	205
8510075	5946	1125	0	-100	0	230	101300000	1000	0	0	-1	205
8522635	5942	1129	0	-100	0	230	101300000	1000	0	0	-1	205
8535195	5944	1134	0	-100	0	230	101300000	1000	0	0	-1	205
8547755	5937	1129	0	-100	0	230	101300000	1000	0	0	-1	205
8560315	5938	1124	0	-100	0	230	101300000	1000	0	0	-1	205
8572875	5952	1131	0	-100	0	230	101300000	1000	0	0	-1	205
8585435	5951	1130	0	-100	0	230	101300000	1000	0	0	-1	205
8597995	5945	1128	0	-100	0	230	101300000	1000	0	0	-1	205
8610555	5942	1132	0	-100	0	230	101300000	1000	0	0	-1	205
8623115	5942	1129	0	-100	0	230	101300000	1000	0	0	-1	205
8635675	5945	1133	0	-100	0	230	101300000	1000	0	0	-1	205
8648235	5941	1127	0	-100	0	230	101300000	1000	0	0	-1	205
8660795	5941	1129	0	-100	0	230	101300000	1000	0	0	-1	205
8673355	5942	1130	0	-100	0	230	101300000	1000	0	0	-1	205
8685915	5942	1135	0	-100	0	230	101300000	1000	0	0	-1	205
8698475	5941	1128	0	-100	0	230	101300000	1000	0	0	-1	205
8711035	5942	1135	0	-100	0	230	101300000	1000	0	0	-1	205
8723595	5946	1129	0	-100	0	230	101300000	1000	0	0	-1	205
8736155	5945	1124	0	-100	0	230	101300000	1000	0	0	-1	205
8748715	5936	1125	0	-100	0	230	101300000	1000	0	0	-1	205
8761275	5941	1128	0	-100	0	230	101300000	1000	0	0	-1	205
8773835	5945	1131	0	-100	0	230	101300000	1000	0	0	-1	205
8786395	5942	1134	0	-100	0	230	101300000	1000	0	0	-1	205
8798955	5945	1126	0	-100	0	230	101300000	1000	0	0	-1	205
8811515	5941	1135	0	-100	0	230	101300000	1000	0	0	-1	205
8824075	5945	1143	0	-100	0	230	101300000	1000	0	0	-1	205
8836635	5953	1138	0	-100	0	230	101300000	1000	0	0	-1	205
8849195	5948	1127	0	-100	0	230	101300000	1000	0	0	-1	205
8861755	5949	1134	0	-100	0	230	101300000	1000	0	0	-1	205
8874315	5944	1128	0	-100	0	230	101300000	1000	0	0	-1	205
8886875	5947	1124	0	-100	0	230	101300000	1000	0	0	-1	205
8899435	5945	1126	0	-100	0	230	101300000	1000	0	0	-1	205
8911995	5945	1131	0	-100	0	230	101300000	1000	0	0	-1	205
8924555	5950	1125	0	-100	0	230	101300000	1000	0	0	-1	205
8937115	5946	1138	0	-100	0	230	101300000	1000	0	0	-1	205
8949675	5945	1124	0	-100	0	230	101300000	1000	0	0	-1	205
8962235	5949	1128	0	-100	0	230	101300000	1000	0	0	-1	205
8974795	5949	1128	0	-100	0	230	101300000	1000	0	0	-1	205
8987355	5950	1130	0	-100	0	230	101300000	1000	0	0	-1	205
8999915	5946	1126	0	-100	0	230	101300000	1000	0	0	-1	205
9012475	5944	1126	0	-100	0	230	101300000	1000	0	0	-1	205
9025035	5949	1136	0	-100	0	230	101300000	1000	0	0	-1	205
9037595	5945	1128	0	-100	0	230	101300000	1000	0	0	-1	205
9050155	5945	1129	0	-100	0	230	101300000	1000	0	0	-1	205
9062715	5949	1126	0	-100	0	230	101300000	1000	0	0	-1	205
9075275	5943	1127	0	-100	0	230	101300000	1000	0	0	-1	205
9087835	5941	1128	0	-100	0	230	101300000	1000	0	0	-1	205
9100395	5943	1136	0	-100	0	230	101300000	1000	0	0	-1	205
9112955	5942	1131	0	-100	0	230	101300000	1000	0	0	-1	205
9125515	5946	1129	0	-100	0	230	101300000	1000	0	0	-1	205
9138075	5950	1129	0	-100	0	230	101300000	1000	0	0	-1	205
9150635	5945	1128	0	-100	0	230	101300000	1000	0	0	-1	205
9163195	5946	1133	0	-100	0	230	101300000	1000	0	0	-1	205
9175755	5952	1133	0	-100	0	230	101300000	1000	0	0	-1	205
9188315	5947	1132	0	-100	0	230	101300000	1000	0	0	-1	205
9200875	5943	1132	0	-100	0	230	101300000	1000	0	0	-1	205
9213435	5942	1136	0	-100	0	230	101300000	1000	0	0	-1	205
9225995	5944	1126	0	-100	0	230	101300000	1000	0	0	-1	205
9238555	5949	1133	0	-100	0	230	101300000	1000	0	0	-1	205
9251115	5942	1133	0	-100	0	230	101300000	1000	0	0	-1	205
9263675	5942	1132	0	-100	0	230	101300000	1000	0	0	-1	205
9276235	5946	1129	0	-100	0	230	101300000	1000	0	0	-1	205
9288795	5947	1130	0	-100	0	230	101300000	1000	0	0	-1	205
9301355	5953	1130	0	-100	0	230	101300000	1000	0	0	-1	205
9313915	5947	1127	0	-100	0	230	101300000	1000	0	0	-1	205
9326475	5944	1134	0	-100	0	230	101300000	1000	0	0	-1	205
9339035	5943	1131	0	-100	0	230	101300000	1000	0	0	-1	205
9351595	5942	1131	0	-100	0	230	101300000	1000	0	0	-1	205
9364155	5947	1123	0	-100	0	230	101300000	1000	0	0	-1	205
9376715	5949	1134	0	-100	0	230	101300000	1000	0	0	-1	205
9389275	5950	1136	0	-100	0	230	101300000	1000	0	0	-1	205
9401835	5945	1127	0	-100	0	230	101300000	1000	0	0	-1	205
9414395	5946	1131	0	-100	0	230	101300000	1000	0	0	-1	205
9426955	5950	1133	0	-100	0	230	101300000	1000	0	0	-1	205
9439515	5946	1125	0	-100	0	230	101300000	1000	0	0	-1	205
9452075	5950	1126	0	-100	0	230	101300000	1000	0	0	-1	205
9464635	5949	1129	0	-100	0	230	101300000	1000	0	0	-1	205
9477195	5948	1131	0	-100	0	230	101300000	1000	0	0	-1	205
9489755	5946	1126	0	-100	0	230	101300000	1000	0	0	-1	205
9502315	5949	1127	0	-100	0	230	101300000	1000	0	0	-1	205
9514875	5946	1127	0	-100	0	230	101300000	1000	0	0	-1	205
9527435	5948	1129	0	-100	0	230	101300000	1000	0	0	-1	205
9539995	5949	1131	0	-100	0	230	101300000	1000	0	0	-1	205
9552555	5952	1131	0	-100	0	230	101300000	1000	0	0	-1	205
9565115	5945	1137	0	-100	0	230	101300000	1000	0	0	-1	205
9577675	5944	1133	0	-100	0	230	101300000	1000	0	0	-1	205
9590235	5946	1133	0	-100	0	230	101300000	1000	0	0	-1	205
9602795	5937	1126	0	-100	0	230	101300000	1000	0	0	-1	205
9615355	5942	1133	0	-100	0	230	101300000	1000	0	0	-1	205
9627915	5944	1133	0	-100	0	230	101300000	1000	0	0	-1	205
9640475	5945	1127	0	-100	0	230	101300000	1000	0	0	-1	205
9653035	5949	1123	0	-100	0	230	101300000	1000	0	0	-1	205
9665595	5949	1131	0	-100	0	230	101300000	1000	0	0	-1	205
9678155	5948	1138	0	-100	0	230	101300000	1000	0	0	-1	205
9690715	5947	1126	0	-100	0	230	101300000	1000	0	0	-1	205
9703275	5947	1133	0	-100	0	230	101300000	1000	0	0	-1	205
9715835	5949	1132	0	-100	0	230	101300000	1000	0	0	-1	205
9728395	5944	1122	0	-100	0	230	101300000	1000	0	0	-1	205
9740955	5948	1134	0	-100	0	230	101300000	1000	0	0	-1	205
9753515	5948	1133	0	-100	0	230	101300000	1000	0	0	-1	205
9766075	5950	1133	0	-100	0	230	101300000	1000	0	0	-1	205
9778635	5949	1133	0	-100	0	230	101300000	1000	0	0	-1	205
9791195	5949	1125	0	-100	0	230	101300000	1000	0	0	-1	205
9803755	5942	1129	0	-100	0	230	101300000	1000	0	0	-1	205
9816315	5942	1133	0	-100	0	230	101300000	1000	0	0	-1	205
9828875	5941	1133	0	-100	0	230	101300000	1000	0	0	-1	205
9841435	5943	1129	0	-100	0	230	101300000	1000	0	0	-1	205
9853995	5946	1135	0	-100	0	230	101300000	1000	0	0	-1	205
9866555	5943	1133	0	-100	0	230	101300000	1000	0	0	-1	205
9879115	5942	1122	0	-100	0	230	101300000	1000	0	0	-1	205
9891675	5943	1127	0	-100	0	230	101300000	1000	0	0	-1	205
9904235	5941	1126	0	-100	0	230	101300000	1000	0	0	-1	205
9916795	5945	1125	0	-100	0	230	101300000	1000	0	0	-1	205
9929355	5940	1120	0	-100	0	230	101300000	1000	0	0	-1	205
9941915	5944	1130	0	-100	0	230	101300000	1000	0	0	-1	205
9954475	5940	1133	0	-100	0	230	101300000	1000	0	0	-1	205
9967035	5945	1129	0	-100	0	230	101300000	1000	0	0	-1	205
9979595	5943	1128	0	-100	0	230	101300000	1000	0	0	-1	205
9992155	5941	1132	0	-100	0	230	101300000	1000	0	0	-1	205
10004715	5942	1133	0	-100	0	230	101300000	1000	0	0	-1	205
10017275	5945	1134	0	-100	0	230	101300000	1000	0	0	-1	205
10029835	5941	1127	0	-100	0	230	101300000	1000	0	0	-1	205
10042395	5940	1139	0	-100	0	230	101300000	1000	0	0	-1	205
10054955	5943	1132	0	-100	0	230	101300000	1000	0	0	-1	205
10067515	5940	1128	0	-100	0	230	101300000	1000	0	0	-1	205
10080075	5945	1135	0	-100	0	230	101300000	1000	0	0	-1	205
10092635	5941	1136	0	-100	0	230	101300000	1000	0	0	-1	205
10105195	5941	1133	0	-100	0	230	101300000	1000	0	0	-1	205
10117755	5946	1137	0	-100	0	230	101300000	1000	0	0	-1	205
10130315	5944	1122	0	-100	0	230	101300000	1000	0	0	-1	205
10142875	5940	1126	0	-100	0	230	101300000	1000	0	0	-1	205
10155435	5945	1126	0	-100	0	230	101300000	1000	0	0	-1	205
10167995	5941	1127	0	-100	0	230	101300000	1000	0	0	-1	205
10180555	5945	1136	0	-100	0	230	101300000	1000	0	0	-1	205
10193115	5940	1124	0	-100	0	230	101300000	1000	0	0	-1	205
10205675	5948	1127	0	-100	0	230	101300000	1000	0	0	-1	205
10218235	5948	1128	0	-100	0	230	101300000	1000	0	0	-1	205
10230795	5948	1131	0	-100	0	230	101300000	1000	0	0	-1	205
10243355	5953	1134	0	-100	0	230	101300000	1000	0	0	-1	205
10255915	5950	1132	0	-100	0	230	101300000	1000	0	0	-1	205
10268475	5946	1126	0	-100	0	230	101300000	1000	0	0	-1	205
10281035	5946	1127	0	-100	0	230	101300000	1000	0	0	-1	205
10293595	5947	1136	0	-100	0	230	101300000	1000	0	0	-1	205
10306155	5948	1130	0	-100	0	230	101300000	1000	0	0	-1	205
10318715	5949	1125	0	-100	0	230	101300000	1000	0	0	-1	205
10331275	5950	1130	0	-100	0	230	101300000	1000	0	0	-1	205
10343835	5945	1124	0	-100	0	230	101300000	1000	0	0	-1	205
10356395	5948	1132	0	-100	0	230	101300000	1000	0	0	-1	205
10368955	5947	1125	0	-100	0	230	101300000	1000	0	0	-1	205
10381515	5946	1130	0	-100	0	230	101300000	1000	0	0	-1	205
10394075	5949	1129	0	-100	0	230	101300000	1000	0	0	-1	205
10406635	5952	1137	0	-100	0	230	101300000	1000	0	0	-1	205
10419195	5948	1137	0	-100	0	230	101300000	1000	0	0	-1	205
10431755	5944	1131	0	-100	0	230	101300000	1000	0	0	-1	205
10444315	5951	1134	0	-100	0	230	101300000	1000	0	0	-1	205
10456875	5953	1136	0	-100	0	230	101300000	1000	0	0	-1	205
10469435	5955	1135	0	-100	0	230	101300000	1000	0	0	-1	205
10481995	5947	1129	0	-100	0	230	101300000	1000	0	0	-1	205
10494555	5946	1135	0	-100	0	230	101300000	1000	0	0	-1	205
10507115	5946	1131	0	-100	0	230	101300000	1000	0	0	-1	205
10519675	5945	1131	0	-100	0	230	101300000	1000	0	0	-1	205
10532235	5949	1135	0	-100	0	230	101300000	1000	0	0	-1	205
10544795	5949	1128	0	-100	0	230	101300000	1000	0	0	-1	205
10557355	5946	1125	0	-100	0	230	101300000	1000	0	0	-1	205
10569915	5945	1123	0	-100	0	230	101300000	1000	0	0	-1	205
10582475	5940	1134	0	-100	0	230	101300000	1000	0	0	-1	205
10595035	5943	1139	0	-100	0	230	101300000	1000	0	0	-1	205
10607595	5944	1132	0	-100	0	230	101300000	1000	0	0	-1	205
10620155	5945	1125	0	-100	0	230	101300000	1000	0	0	-1	205
10632715	5941	1126	0	-100	0	230	101300000	1000	0	0	-1	205
10645275	5949	1133	0	-100	0	230	101300000	1000	0	0	-1	205
10657835	5946	1130	0	-100	0	230	101300000	1000	0	0	-1	205
10670395	5942	1133	0	-100	0	230	101300000	1000	0	0	-1	205
10682955	5940	1132	0	-100	0	230	101300000	1000	0	0	-1	205
10695515	5943	1135	0	-100	0	230	101300000	1000	0	0	-1	205
10708075	5941	1128	0	-100	0	230	101300000	1000	0	0	-1	205
10720635	5943	1131	0	-100	0	230	101300000	1000	0	0	-1	205
10733195	5941	1126	0	-100	0	230	101300000	1000	0	0	-1	205
10745755	5942	1131	0	-100	0	230	101300000	1000	0	0	-1	205
10758315	5942	1129	0	-100	0	230	101300000	1000	0	0	-1	205
10770875	5946	1135	0	-100	0	230	101300000	1000	0	0	-1	205
10783435	5950	1127	0	-100	0	230	101300000	1000	0	0	-1	205
10795995	5945	1132	0	-100	0	230	101300000	1000	0	0	-1	205
10808555	5945	1136	0	-100	0	230	101300000	1000	0	0	-1	205
10821115	5950	1123	0	-100	0	230	101300000	1000	0	0	-1	205
10833675	5946	1132	0	-100	0	230	101300000	1000	0	0	-1	205
10846235	5941	1136	0	-100	0	230	101300000	1000	0	0	-1	205
10858795	5945	1128	0	-100	0	230	101300000	1000	0	0	-1	205
10871355	5943	1124	0	-100	0	230	101300000	1000	0	0	-1	205
10883915	5950	1127	0	-100	0	230	101300000	1000	0	0	-1	205
10896475	5944	1131	0	-100	0	230	101300000	1000	0	0	-1	205
10909035	5942	1138	0	-100	0	230	101300000	1000	0	0	-1	205
10921595	5945	1133	0	-100	0	230	101300000	1000	0	0	-1	205
10934155	5945	1129	0	-100	0	230	101300000	1000	0	0	-1	205
10946715	5949	1129	0	-100	0	230	101300000	1000	0	0	-1	205
10959275	5939	1127	0	-100	0	230	101300000	1000	0	0	-1	205
10971835	5942	1130	0	-100	0	230	101300000	1000	0	0	-1	205
10984395	5941	1133	0	-100	0	230	101300000	1000	0	0	-1	205
10996955	5946	1126	0	-100	0	230	101300000	1000	0	0	-1	205
11009515	5941	1134	0	-100	0	230	101300000	1000	0	0	-1	205
11022075	5942	1137	0	-100	0	230	101300000	1000	0	0	-1	205
11034635	5946	1134	0	-100	0	230	101300000	1000	0	0	-1	205
11047195	5945	1126	0	-100	0	230	101300000	1000	0	0	-1	205
11059755	5941	1132	0	-100	0	230	101300000	1000	0	0	-1	205
11072315	5941	1122	0	-100	0	230	101300000	1000	0	0	-1	205
11084875	5944	1134	0	-100	0	230	101300000	1000	0	0	-1	205
11097435	5944	1131	0	-100	0	230	101300000	1000	0	0	-1	205
11109995	5948	1131	0	-100	0	230	101300000	1000	0	0	-1	205
11122555	5939	1134	0	-100	0	230	101300000	1000	0	0	-1	205
11135115	5941	1131	0	-100	0	230	101300000	1000	0	0	-1	205
11147675	5941	1140	0	-100	0	230	101300000	1000	0	0	-1	205
11160235	5949	1130	0	-100	0	230	101300000	1000	0	0	-1	205
11172795	5945	1131	0	-100	0	230	101300000	1000	0	0	-1	205
11185355	5941	1132	0	-100	0	230	101300000	1000	0	0	-1	205
11197915	5937	1129	0	-100	0	230	101300000	1000	0	0	-1	205
11210475	5946	1133	0	-100	0	230	101300000	1000	0	0	-1	205
11223035	5942	1132	0	-100	0	230	101300000	1000	0	0	-1	205
11235595	5945	1129	0	-100	0	230	101300000	1000	0	0	-1	205
11248155	5949	1129	0	-100	0	230	101300000	1000	0	0	-1	205
11260715	5944	1122	0	-100	0	230	101300000	1000	0	0	-1	205
11273275	5942	1130	0	-100	0	230	101300000	1000	0	0	-1	205
11285835	5941	1130	0	-100	0	230	101300000	1000	0	0	-1	205
11298395	5941	1125	0	-100	0	230	101300000	1000	0	0	-1	205
11310955	5941	1126	0	-100	0	230	101300000	1000	0	0	-1	205
11323515	5944	1132	0	-100	0	230	101300000	1000	0	0	-1	205
11336075	5943	1136	0	-100	0	230	101300000	1000	0	0	-1	205
11348635	5945	1120	0	-100	0	230	101300000	1000	0	0	-1	205
11361195	5952	1129	0	-100	0	230	101300000	1000	0	0	-1	205
11373755	5946	1128	0	-100	0	230	101300000	1000	0	0	-1	205
11386315	5943	1125	0	-100	0	230	101300000	1000	0	0	-1	205
11398875	5945	1123	0	-100	0	230	101300000	1000	0	0	-1	205
11411435	5945	1133	0	-100	0	230	101300000	1000	0	0	-1	205
11423995	5951	1137	0	-100	0	230	101300000	1000	0	0	-1	205
11436555	5949	1129	0	-100	0	230	101300000	1000	0	0	-1	205
11449115	5945	1124	0	-100	0	230	101300000	1000	0	0	-1	205
11461675	5947	1130	0	-100	0	230	101300000	1000	0	0	-1	205
11474235	5941	1134	0	-100	0	230	101300000	1000	0	0	-1	205
11486795	5943	1128	0	-100	0	230	101300000	1000	0	0	-1	205
11499355	5941	1130	0	-100	0	230	101300000	1000	0	0	-1	205
11511915	5949	1135	0	-100	0	230	101300000	1000	0	0	-1	205
11524475	5944	1130	0	-100	0	230	101300000	1000	0	0	-1	205
11537035	5943	1128	0	-100	0	230	101300000	1000	0	0	-1	205
11549595	5942	1136	0	-100	0	230	101300000	1000	0	0	-1	205
11562155	5940	1124	0	-100	0	230	101300000	1000	0	0	-1	205
11574715	5948	1131	0	-100	0	230	101300000	1000	0	0	-1	205
11587275	5952	1131	0	-100	0	230	101300000	1000	0	0	-1	205
11599835	5942	1125	0	-100	0	230	101300000	1000	0	0	-1	205
11612395	5939	1126	0	-100	0	230	101300000	1000	0	0	-1	205
11624955	5939	1127	0	-100	0	230	101300000	1000	0	0	-1	205
11637515	5948	1122	0	-100	0	230	101300000	1000	0	0	-1	205
11650075	5948	1121	0	-100	0	230	101300000	1000	0	0	-1	205
11662635	5950	1128	0	-100	0	230	101300000	1000	0	0	-1	205
11675195	5945	1135	0	-100	0	230	101300000	1000	0	0	-1	205
11687755	5940	1131	0	-100	0	230	101300000	1000	0	0	-1	205
11700315	5944	1125	0	-100	0	230	101300000	1000	0	0	-1	205
11712875	5945	1133	0	-100	0	230	101300000	1000	0	0	-1	205
11725435	5942	1133	0	-100	0	230	101300000	1000	0	0	-1	205
11737995	5942	1127	0	-100	0	230	101300000	1000	0	0	-1	205
11750555	5947	1127	0	-100	0	230	101300000	1000	0	0	-1	205
11763115	5951	1139	0	-100	0	230	101300000	1000	0	0	-1	205
11775675	5947	1132	0	-100	0	230	101300000	1000	0	0	-1	205
11788235	5940	1129	0	-100	0	230	101300000	1000	0	0	-1	205
11800795	5944	1138	0	-100	0	230	101300000	1000	0	0	-1	205
11813355	5945	1137	0	-100	0	230	101300000	1000	0	0	-1	205
11825915	5944	1127	0	-100	0	230	101300000	1000	0	0	-1	205
11838475	5949	1130	0	-100	0	230	101300000	1000	0	0	-1	205
11851035	5949	1136	0	-100	0	230	101300000	1000	0	0	-1	205
11863595	5946	1133	0	-100	0	230	101300000	1000	0	0	-1	205
11876155	5941	1133	0	-100	0	230	101300000	1000	0	0	-1	205
11888715	5941	1131	0	-100	0	230	101300000	1000	0	0	-1	205
11901275	5945	1126	0	-100	0	230	101300000	1000	0	0	-1	205
11913835	5948	1137	0	-100	0	230	101300000	1000	0	0	-1	205
11926395	5951	1135	0	-100	0	230	101300000	1000	0	0	-1	205
11938955	5943	1131	0	-100	0	230	101300000	1000	0	0	-1	205
11951515	5941	1135	0	-100	0	230	101300000	1000	0	0	-1	205
11964075	5944	1141	0	-100	0	230	101300000	1000	0	0	-1	205
11976635	5944	1127	0	-100	0	230	101300000	1000	0	0	-1	205
11989195	5945	1129	0	-100	0	230	101300000	1000	0	0	-1	205
12001755	5945	1139	0	-100	0	230	101300000	1000	0	0	-1	205
12014315	5942	1137	0	-100	0	230	101300000	1000	0	0	-1	205
12026875	5942	1140	0	-100	0	230	101300000	1000	0	0	-1	205
12039435	5941	1129	0	-100	0	230	101300000	1000	0	0	-1	205
12051995	5945	1129	0	-100	0	230	101300000	1000	0	0	-1	205
12064555	5949	1133	0	-100	0	230	101300000	1000	0	0	-1	205
12077115	5953	1130	0	-100	0	230	101300000	1000	0	0	-1	205
12089675	5942	1137	0	-100	0	230	101300000	1000	0	0	-1	205
12102235	5946	1132	0	-100	0	230	101300000	1000	0	0	-1	205
12114795	5945	1133	0	-100	0	230	101300000	1000	0	0	-1	205
12127355	5941	1133	0	-100	0	230	101300000	1000	0	0	-1	205
12139915	5948	1127	0	-100	0	230	101300000	1000	0	0	-1	205
12152475	5954	1133	0	-100	0	230	101300000	1000	0	0	-1	205
12165035	5944	1136	0	-100	0	230	101300000	1000	0	0	-1	205
12177595	5937	1128	0	-100	0	230	101300000	1000	0	0	-1	205
12190155	5942	1132	0	-100	0	230	101300000	1000	0	0	-1	205
12202715	5946	1128	0	-100	0	230	101300000	1000	0	0	-1	205
12215275	5946	1139	0	-100	0	230	101300000	1000	0	0	-1	205
12227835	5941	1132	0	-100	0	230	101300000	1000	0	0	-1	205
12240395	5941	1127	0	-100	0	230	101300000	1000	0	0	-1	205
12252955	5945	1130	0	-100	0	230	101300000	1000	0	0	-1	205
12265515	5946	1128	0	-100	0	230	101300000	1000	0	0	-1	205
12278075	5945	1133	0	-100	0	230	101300000	1000	0	0	-1	205
12290635	5938	1134	0	-100	0	230	101300000	1000	0	0	-1	205
12303195	5945	1134	0	-100	0	230	101300000	1000	0	0	-1	205
12315755	5946	1129	0	-100	0	230	101300000	1000	0	0	-1	205
12328315	5949	1129	0	-100	0	230	101300000	1000	0	0	-1	205
12340875	5946	1133	0	-100	0	230	101300000	1000	0	0	-1	205
12353435	5941	1132	0	-100	0	230	101300000	1000	0	0	-1	205
12365995	5941	1129	0	-100	0	230	101300000	1000	0	0	-1	205
12378555	5945	1128	0	-100	0	230	101300000	1000	0	0	-1	205
12391115	5952	1136	0	-100	0	230	101300000	1000	0	0	-1	205
12403675	5945	1127	0	-100	0	230	101300000	1000	0	0	-1	205
12416235	5945	1132	0	-100	0	230	101300000	1000	0	0	-1	205
12428795	5945	1144	0	-100	0	230	101300000	1000	0	0	-1	205
12441355	5948	1132	0	-100	0	230	101300000	1000	0	0	-1	205
12453915	5945	1130	0	-100	0	230	101300000	1000	0	0	-1	205
12466475	5947	1127	0	-100	0	230	101300000	1000	0	0	-1	205
12479035	5951	1135	0	-100	0	230	101300000	1000	0	0	-1	205
12491595	5945	1130	0	-100	0	230	101300000	1000	0	0	-1	205
12504155	5945	1133	0	-100	0	230	101300000	1000	0	0	-1	205
12516715	5948	1127	0	-100	0	230	101300000	1000	0	0	-1	205
12529275	5941	1130	0	-100	0	230	101300000	1000	0	0	-1	205
12541835	5943	1128	0	-100	0	230	101300000	1000	0	0	-1	205
12554395	5951	1133	0	-100	0	230	101300000	1000	0	0	-1	205
12566955	5946	1131	0	-100	0	230	101300000	1000	0	0	-1	205
12579515	5942	1131	0	-100	0	230	101300000	1000	0	0	-1	205
12592075	5941	1130	0	-100	0	230	101300000	1000	0	0	-1	205
12604635	5945	1131	0	-100	0	230	101300000	1000	0	0	-1	205
12617195	5948	1134	0	-100	0	230	101300000	1000	0	0	-1	205
12629755	5945	1134	0	-100	0	230	101300000	1000	0	0	-1	205
12642315	5942	1128	0	-100	0	230	101300000	1000	0	0	-1	205
12654875	5944	1134	0	-100	0	230	101300000	1000	0	0	-1	205
12667435	5945	1133	0	-100	0	230	101300000	1000	0	0	-1	205
12679995	5948	1134	0	-100	0	230	101300000	1000	0	0	-1	205
12692555	5949	1134	0	-100	0	230	101300000	1000	0	0	-1	205
12705115	5941	1131	0	-100	0	230	101300000	1000	0	0	-1	205
12717675	5940	1123	0	-100	0	230	101300000	1000	0	0	-1	205
12730235	5948	1123	0	-100	0	230	101300000	1000	0	0	-1	205
12742795	5946	1136	0	-100	0	230	101300000	1000	0	0	-1	205
12755355	5944	1127	0	-100	0	230	101300000	1000	0	0	-1	205
12767915	5945	1131	0	-100	0	230	101300000	1000	0	0	-1	205
12780475	5948	1127	0	-100	0	230	101300000	1000	0	0	-1	205
12793035	5947	1132	0	-100	0	230	101300000	1000	0	0	-1	205
12805595	5946	1135	0	-100	0	230	101300000	1000	0	0	-1	205
12818155	5943	1126	0	-100	0	230	101300000	1000	0	0	-1	205
12830715	5946	1135	0	-100	0	230	101300000	1000	0	0	-1	205
12843275	5946	1137	0	-100	0	230	101300000	1000	0	0	-1	205
12855835	5945	1129	0	-100	0	230	101300000	1000	0	0	-1	205
12868395	5942	1128	0	-100	0	230	101300000	1000	0	0	-1	205
12880955	5941	1130	0	-100	0	230	101300000	1000	0	0	-1	205
12893515	5941	1131	0	-100	0	230	101300000	1000	0	0	-1	205
12906075	5945	1127	0	-100	0	230	101300000	1000	0	0	-1	205
12918635	5945	1128	0	-100	0	230	101300000	1000	0	0	-1	205
12931195	5948	1126	0	-100	0	230	101300000	1000	0	0	-1	205
12943755	5949	1129	0	-100	0	230	101300000	1000	0	0	-1	205
12956315	5951	1129	0	-100	0	230	101300000	1000	0	0	-1	205
12968875	5944	1134	0	-100	0	230	101300000	1000	0	0	-1	205
12981435	5941	1132	0	-100	0	230	101300000	1000	0	0	-1	205
12993995	5945	1129	0	-100	0	230	101300000	1000	0	0	-1	205
13006555	5941	1127	0	-100	0	230	101300000	1000	0	0	-1	205
13019115	5941	1131	0	-100	0	230	101300000	1000	0	0	-1	205
13031675	5941	1137	0	-100	0	230	101300000	1000	0	0	-1	205
13044235	5947	1136	0	-100	0	230	101300000	1000	0	0	-1	205
13056795	5948	1131	0	-100	0	230	101300000	1000	0	0	-1	205
13069355	5943	1137	0	-100	0	230	101300000	1000	0	0	-1	205
13081915	5942	1133	0	-100	0	230	101300000	1000	0	0	-1	205
13094475	5942	1135	0	-100	0	230	101300000	1000	0	0	-1	205
13107035	5948	1131	0	-100	0	230	101300000	1000	0	0	-1	205
13119595	5953	1139	0	-100	0	230	101300000	1000	0	0	-1	205
13132155	5940	1125	0	-100	0	230	101300000	1000	0	0	-1	205
13144715	5941	1135	0	-100	0	230	101300000	1000	0	0	-1	205
13157275	5943	1128	0	-100	0	230	101300000	1000	0	0	-1	205
13169835	5949	1130	0	-100	0	230	101300000	1000	0	0	-1	205
13182395	5941	1132	0	-100	0	230	101300000	1000	0	0	-1	205
13194955	5943	1133	0	-100	0	230	101300000	1000	0	0	-1	205
13207515	5949	1133	0	-100	0	230	101300000	1000	0	0	-1	205
13220075	5949	1135	0	-100	0	230	101300000	1000	0	0	-1	205
13232635	5939	1131	0	-100	0	230	101300000	1000	0	0	-1	205
13245195	5939	1138	0	-100	0	230	101300000	1000	0	0	-1	205
13257755	5945	1132	0	-100	0	230	101300000	1000	0	0	-1	205
13270315	5951	1125	0	-100	0	230	101300000	1000	0	0	-1	205
13282875	5952	1136	0	-100	0	230	101300000	1000	0	0	-1	205
13295435	5939	1135	0	-100	0	230	101300000	1000	0	0	-1	205
13307995	5946	1138	0	-100	0	230	101300000	1000	0	0	-1	205
13320555	5936	1133	0	-100	0	230	101300000	1000	0	0	-1	205
13333115	5947	1129	0	-100	0	230	101300000	1000	0	0	-1	205
13345675	5953	1135	0	-100	0	230	101300000	1000	0	0	-1	205
13358235	5953	1132	0	-100	0	230	101300000	1000	0	0	-1	205
13370795	5945	1134	0	-100	0	230	101300000	1000	0	0	-1	205
13383355	5944	1134	0	-100	0	230	101300000	1000	0	0	-1	205
13395915	5944	1127	0	-100	0	230	101300000	1000	0	0	-1	205
13408475	5943	1123	0	-100	0	230	101300000	1000	0	0	-1	205
13421035	5948	1128	0	-100	0	230	101300000	1000	0	0	-1	205
13433595	5948	1131	0	-100	0	230	101300000	1000	0	0	-1	205
13446155	5944	1136	0	-100	0	230	101300000	1000	0	0	-1	205
13458715	5945	1133	0	-100	0	230	101300000	1000	0	0	-1	205
13471275	5945	1126	0	-100	0	230	101300000	1000	0	0	-1	205
13483835	5948	1131	0	-100	0	230	101300000	1000	0	0	-1	205
13496395	5944	1135	0	-100	0	230	101300000	1000	0	0	-1	205
13508955	5940	1125	0	-100	0	230	101300000	1000	0	0	-1	205
13521515	5946	1130	0	-100	0	230	101300000	1000	0	0	-1	205
13534075	5949	1131	0	-100	0	230	101300000	1000	0	0	-1	205
13546635	5944	1127	0	-100	0	230	101300000	1000	0	0	-1	205
13559195	5945	1130	0	-100	0	230	101300000	1000	0	0	-1	205
13571755	5949	1127	0	-100	0	230	101300000	1000	0	0	-1	205
13584315	5941	1133	0	-100	0	230	101300000	1000	0	0	-1	205
13596875	5944	1122	0	-100	0	230	101300000	1000	0	0	-1	205
13609435	5941	1135	0	-100	0	230	101300000	1000	0	0	-1	205
13621995	5945	1133	0	-100	0	230	101300000	1000	0	0	-1	205
13634555	5948	1134	0	-100	0	230	101300000	1000	0	0	-1	205
13647115	5951	1139	0	-100	0	230	101300000	1000	0	0	-1	205
13659675	5943	1132	0	-100	0	230	101300000	1000	0	0	-1	205
13672235	5944	1136	0	-100	0	230	101300000	1000	0	0	-1	205
13684795	5943	1137	0	-100	0	230	101300000	1000	0	0	-1	205
13697355	5944	1129	0	-100	0	230	101300000	1000	0	0	-1	205
13709915	5941	1125	0	-100	0	230	101300000	1000	0	0	-1	205
13722475	5940	1132	0	-100	0	230	101300000	1000	0	0	-1	205
13735035	5951	1127	0	-100	0	230	101300000	1000	0	0	-1	205
13747595	5943	1133	0	-100	0	230	101300000	1000	0	0	-1	205
13760155	5939	1130	0	-100	0	230	101300000	1000	0	0	-1	205
13772715	5941	1140	0	-100	0	230	101300000	1000	0	0	-1	205
13785275	5939	1130	0	-100	0	230	101300000	1000	0	0	-1	205
13797835	5943	1132	0	-100	0	230	101300000	1000	0	0	-1	205
13810395	5945	1128	0	-100	0	230	101300000	1000	0	0	-1	205
13822955	5942	1137	0	-100	0	230	101300000	1000	0	0	-1	205
13835515	5953	1131	0	-100	0	230	101300000	1000	0	0	-1	205
13848075	5951	1127	0	-100	0	230	101300000	1000	0	0	-1	205
13860635	5950	1131	0	-100	0	230	101300000	1000	0	0	-1	205
13873195	5942	1133	0	-100	0	230	101300000	1000	0	0	-1	205
13885755	5942	1132	0	-100	0	230	101300000	1000	0	0	-1	205
13898315	5939	1127	0	-100	0	230	101300000	1000	0	0	-1	205
13910875	5945	1134	0	-100	0	230	101300000	1000	0	0	-1	205
13923435	5944	1128	0	-100	0	230	101300000	1000	0	0	-1	205
13935995	5949	1132	0	-100	0	230	101300000	1000	0	0	-1	205
13948555	5944	1126	0	-100	0	230	101300000	1000	0	0	-1	205
13961115	5949	1137	0	-100	0	230	101300000	1000	0	0	-1	205
13973675	5946	1136	0	-100	0	230	101300000	1000	0	0	-1	205
13986235	5941	1131	0	-100	0	230	101300000	1000	0	0	-1	205
13998795	5945	1130	0	-100	0	230	101300000	1000	0	0	-1	205
14011355	5945	1128	0	-100	0	230	101300000	1000	0	0	-1	205
14023915	5943	1138	0	-100	0	230	101300000	1000	0	0	-1	205
14036475	5938	1138	0	-100	0	230	101300000	1000	0	0	-1	205
14049035	5938	1131	0	-100	0	230	101300000	1000	0	0	-1	205
14061595	5939	1134	0	-100	0	230	101300000	1000	0	0	-1	205
14074155	5947	1124	0	-100	0	230	101300000	1000	0	0	-1	205
14086715	5944	1134	0	-100	0	230	101300000	1000	0	0	-1	205
14099275	5945	1133	0	-100	0	230	101300000	1000	0	0	-1	205
14111835	5942	1140	0	-100	0	230	101300000	1000	0	0	-1	205
14124395	5945	1131	0	-100	0	230	101300000	1000	0	0	-1	205
14136955	5940	1133	0	-100	0	230	101300000	1000	0	0	-1	205
14149515	5945	1135	0	-100	0	230	101300000	1000	0	0	-1	205
14162075	5943	1133	0	-100	0	230	101300000	1000	0	0	-1	205
14174635	5945	1129	0	-100	0	230	101300000	1000	0	0	-1	205
14187195	5949	1137	0	-100	0	230	101300000	1000	0	0	-1	205
14199755	5949	1134	0	-100	0	230	101300000	1000	0	0	-1	205
14212315	5949	1127	0	-100	0	230	101300000	1000	0	0	-1	205
14224875	5949	1131	0	-100	0	230	101300000	1000	0	0	-1	205
14237435	5945	1132	0	-100	0	230	101300000	1000	0	0	-1	205
14249995	5945	1137	0	-100	0	230	101300000	1000	0	0	-1	205
14262555	5944	1133	0	-100	0	230	101300000	1000	0	0	-1	205
14275115	5939	1139	0	-100	0	230	101300000	1000	0	0	-1	205
14287675	5936	1132	0	-100	0	230	101300000	1000	0	0	-1	205
14300235	5941	1137	0	-100	0	230	101300000	1000	0	0	-1	205
14312795	5945	1127	0	-100	0	230	101300000	1000	0	0	-1	205
14325355	5948	1134	0	-100	0	230	101300000	1000	0	0	-1	205
14337915	5946	1128	0	-100	0	230	101300000	1000	0	0	-1	205
14350475	5944	1138	0	-100	0	230	101300000	1000	0	0	-1	205
14363035	5945	1136	0	-100	0	230	101300000	1000	0	0	-1	205
14375595	5941	1134	0	-100	0	230	101300000	1000	0	0	-1	205
14388155	5946	1125	0	-100	0	230	101300000	1000	0	0	-1	205
14400715	5948	1128	0	-100	0	230	101300000	1000	0	0	-1	205
14413275	5949	1130	0	-100	0	230	101300000	1000	0	0	-1	205
14425835	5945	1132	0	-100	0	230	101300000	1000	0	0	-1	205
14438395	5943	1138	0	-100	0	230	101300000	1000	0	0	-1	205
14450955	5945	1137	0	-100	0	230	101300000	1000	0	0	-1	205
14463515	5943	1123	0	-100	0	230	101300000	1000	0	0	-1	205
14476075	5941	1131	0	-100	0	230	101300000	1000	0	0	-1	205
14488635	5943	1135	0	-100	0	230	101300000	1000	0	0	-1	205
14501195	5947	1126	0	-100	0	230	101300000	1000	0	0	-1	205
14513755	5947	1111	0	-100	0	230	101300000	1000	0	0	-1	205
14526315	5950	1128	0	-100	0	230	101300000	1000	0	0	-1	205
14538875	5947	1121	0	-100	0	230	101300000	1000	0	0	-1	205
14551435	5945	1132	0	-100	0	230	101300000	1000	0	0	-1	205
14563995	5948	1138	0	-100	0	230	101300000	1000	0	0	-1	205
14576555	5952	1130	0	-100	0	230	101300000	1000	0	0	-1	205
14589115	5948	1139	0	-100	0	230	101300000	1000	0	0	-1	205
14601675	5943	1134	0	-100	0	230	101300000	1000	0	0	-1	205
14614235	5941	1131	0	-100	0	230	101300000	1000	0	0	-1	205
14626795	5945	1137	0	-100	0	230	101300000	1000	0	0	-1	205
14639355	5944	1134	0	-100	0	230	101300000	1000	0	0	-1	205
14651915	5945	1133	0	-100	0	230	101300000	1000	0	0	-1	205
14664475	5943	1129	0	-100	0	230	101300000	1000	0	0	-1	205
14677035	5946	1134	0	-100	0	230	101300000	1000	0	0	-1	205
14689595	5945	1131	0	-100	0	230	101300000	1000	0	0	-1	205
14702155	5944	1127	0	-100	0	230	101300000	1000	0	0	-1	205
14714715	5944	1134	0	-100	0	230	101300000	1000	0	0	-1	205
14727275	5942	1127	0	-100	0	230	101300000	1000	0	0	-1	205
14739835	5941	1130	0	-100	0	230	101300000	1000	0	0	-1	205
14752395	5945	1128	0	-100	0	230	101300000	1000	0	0	-1	205
14764955	5947	1134	0	-100	0	230	101300000	1000	0	0	-1	205
14777515	5946	1130	0	-100	0	230	101300000	1000	0	0	-1	205
14790075	5946	1129	0	-100	0	230	101300000	1000	0	0	-1	205
14802635	5946	1134	0	-100	0	230	101300000	1000	0	0	-1	205
14815195	5945	1128	0	-100	0	230	101300000	1000	0	0	-1	205
14827755	5949	1133	0	-100	0	230	101300000	1000	0	0	-1	205
14840315	5945	1131	0	-100	0	230	101300000	1000	0	0	-1	205
14852875	5950	1129	0	-100	0	230	101300000	1000	0	0	-1	205
14865435	5948	1138	0	-100	0	230	101300000	1000	0	0	-1	205
14877995	5942	1133	0	-100	0	230	101300000	1000	0	0	-1	205
14890555	5943	1135	0	-100	0	230	101300000	1000	0	0	-1	205
14903115	5944	1141	0	-100	0	230	101300000	1000	0	0	-1	205
14915675	5943	1135	0	-100	0	230	101300000	1000	0	0	-1	205
14928235	5945	1129	0	-100	0	230	101300000	1000	0	0	-1	205
14940795	5941	1127	0	-100	0	230	101300000	1000	0	0	-1	205
14953355	5941	1131	0	-100	0	230	101300000	1000	0	0	-1	205
14965915	5941	1131	0	-100	0	230	101300000	1000	0	0	-1	205
14978475	5938	1134	0	-100	0	230	101300000	1000	0	0	-1	205
14991035	5943	1127	0	-100	0	230	101300000	1000	0	0	-1	205
15003595	5942	1141	0	-100	0	230	101300000	1000	0	0	-1	205
15016155	5941	1126	0	-100	0	230	101300000	1000	0	0	-1	205
15028715	5947	1128	0	-100	0	230	101300000	1000	0	0	-1	205
15041275	5948	1129	0	-100	0	230	101300000	1000	0	0	-1	205
15053835	5948	1134	0	-100	0	230	101300000	1000	0	0	-1	205
15066395	5938	1131	0	-100	0	230	101300000	1000	0	0	-1	205
15078955	5943	1137	0	-100	0	230	101300000	1000	0	0	-1	205
15091515	5941	1136	0	-100	0	230	101300000	1000	0	0	-1	205
15104075	5948	1129	0	-100	0	230	101300000	1000	0	0	-1	205
15116635	5950	1134	0	-100	0	230	101300000	1000	0	0	-1	205
15129195	5942	1129	0	-100	0	230	101300000	1000	0	0	-1	205
15141755	5943	1137	0	-100	0	230	101300000	1000	0	0	-1	205
15154315	5936	1136	0	-100	0	230	101300000	1000	0	0	-1	205
15166875	5943	1135	0	-100	0	230	101300000	1000	0	0	-1	205
15179435	5949	1133	0	-100	0	230	101300000	1000	0	0	-1	205
15191995	5945	1130	0	-100	0	230	101300000	1000	0	0	-1	205
15204555	5948	1128	0	-100	0	230	101300000	1000	0	0	-1	205
15217115	5948	1125	0	-100	0	230	101300000	1000	0	0	-1	205
15229675	5951	1130	0	-100	0	230	101300000	1000	0	0	-1	205
15242235	5949	1128	0	-100	0	230	101300000	1000	0	0	-1	205
15254795	5946	1132	0	-100	0	230	101300000	1000	0	0	-1	205
15267355	5949	1129	0	-100	0	230	101300000	1000	0	0	-1	205
15279915	5945	1130	0	-100	0	230	101300000	1000	0	0	-1	205
15292475	5948	1130	0	-100	0	230	101300000	1000	0	0	-1	205
15305035	5952	1132	0	-100	0	230	101300000	1000	0	0	-1	205
15317595	5950	1134	0	-100	0	230	101300000	1000	0	0	-1	205
15330155	5953	1133	0	-100	0	230	101300000	1000	0	0	-1	205
15342715	5952	1134	0	-100	0	230	101300000	1000	0	0	-1	205
15355275	5945	1134	0	-100	0	230	101300000	1000	0	0	-1	205
15367835	5944	1136	0	-100	0	230	101300000	1000	0	0	-1	205
15380395	5939	1135	0	-100	0	230	101300000	1000	0	0	-1	205
15392955	5938	1140	0	-100	0	230	101300000	1000	0	0	-1	205
15405515	5945	1141	0	-100	0	230	101300000	1000	0	0	-1	205
15418075	5941	1127	0	-100	0	230	101300000	1000	0	0	-1	205
15430635	5936	1126	0	-100	0	230	101300000	1000	0	0	-1	205
15443195	5938	1136	0	-100	0	230	101300000	1000	0	0	-1	205
15455755	5938	1127	0	-100	0	230	101300000	1000	0	0	-1	205
15468315	5942	1131	0	-100	0	230	101300000	1000	0	0	-1	205
15480875	5936	1130	0	-100	0	230	101300000	1000	0	0	-1	205
15493435	5945	1132	0	-100	0	230	101300000	1000	0	0	-1	205
15505995	5949	1138	0	-100	0	230	101300000	1000	0	0	-1	205
15518555	5946	1142	0	-100	0	230	101300000	1000	0	0	-1	205
15531115	5945	1128	0	-100	0	230	101300000	1000	0	0	-1	205
15543675	5945	1130	0	-100	0	230	101300000	1000	0	0	-1	205
15556235	5947	1130	0	-100	0	230	101300000	1000	0	0	-1	205
15568795	5948	1127	0	-100	0	230	101300000	1000	0	0	-1	205
15581355	5943	1129	0	-100	0	230	101300000	1000	0	0	-1	205
15593915	5944	1130	0	-100	0	230	101300000	1000	0	0	-1	205
15606475	5942	1124	0	-100	0	230	101300000	1000	0	0	-1	205
15619035	5945	1129	0	-100	0	230	101300000	1000	0	0	-1	205
15631595	5944	1134	0	-100	0	230	101300000	1000	0	0	-1	205
15644155	5940	1141	0	-100	0	230	101300000	1000	0	0	-1	205
15656715	5943	1136	0	-100	0	230	101300000	1000	0	0	-1	205
15669275	5949	1130	0	-100	0	230	101300000	1000	0	0	-1	205
15681835	5950	1134	0	-100	0	230	101300000	1000	0	0	-1	205
15694395	5945	1126	0	-100	0	230	101300000	1000	0	0	-1	205
15706955	5946	1128	0	-100	0	230	101300000	1000	0	0	-1	205
15719515	5941	1132	0	-100	0	230	101300000	1000	0	0	-1	205
15732075	5941	1122	0	-100	0	230	101300000	1000	0	0	-1	205
15744635	5946	1130	0	-100	0	230	101300000	1000	0	0	-1	205
15757195	5945	1132	0	-100	0	230	101300000	1000	0	0	-1	205
15769755	5945	1133	0	-100	0	230	101300000	1000	0	0	-1	205
15782315	5948	1140	0	-100	0	230	101300000	1000	0	0	-1	205
15794875	5945	1130	0	-100	0	230	101300000	1000	0	0	-1	205
15807435	5944	1130	0	-100	0	230	101300000	1000	0	0	-1	205
15819995	5946	1134	0	-100	0	230	101300000	1000	0	0	-1	205
15832555	5949	1136	0	-100	0	230	101300000	1000	0	0	-1	205
15845115	5945	1127	0	-100	0	230	101300000	1000	0	0	-1	205
15857675	5945	1127	0	-100	0	230	101300000	1000	0	0	-1	205
15870235	5947	1120	0	-100	0	230	101300000	1000	0	0	-1	205
15882795	5948	1128	0	-100	0	230	101300000	1000	0	0	-1	205
15895355	5950	1128	0	-100	0	230	101300000	1000	0	0	-1	205
15907915	5946	1125	0	-100	0	230	101300000	1000	0	0	-1	205
15920475	5952	1121	0	-100	0	230	101300000	1000	0	0	-1	205
15933035	5945	1130	0	-100	0	230	101300000	1000	0	0	-1	205
15945595	5948	1129	0	-100	0	230	101300000	1000	0	0	-1	205
15958155	5945	1131	0	-100	0	230	101300000	1000	0	0	-1	205
15970715	5939	1137	0	-100	0	230	101300000	1000	0	0	-1	205
15983275	5942	1134	0	-100	0	230	101300000	1000	0	0	-1	205
15995835	5944	1138	0	-100	0	230	101300000	1000	0	0	-1	205
16008395	5944	1141	0	-100	0	230	101300000	1000	0	0	-1	205
16020955	5945	1139	0	-100	0	230	101300000	1000	0	0	-1	205
16033515	5948	1136	0	-100	0	230	101300000	1000	0	0	-1	205
16046075	5941	1129	0	-100	0	230	101300000	1000	0	0	-1	205
16058635	5938	1127	0	-100	0	230	101300000	1000	0	0	-1	205
16071195	5942	1132	0	-100	0	230	101300000	1000	0	0	-1	205
16083755	5944	1134	0	-100	0	230	101300000	1000	0	0	-1	205
16096315	5942	1139	0	-100	0	230	101300000	1000	0	0	-1	205
16108875	5946	1137	0	-100	0	230	101300000	1000	0	0	-1	205
16121435	5939	1127	0	-100	0	230	101300000	1000	0	0	-1	205
16133995	5942	1125	0	-100	0	230	101300000	1000	0	0	-1	205
16146555	5943	1139	0	-100	0	230	101300000	1000	0	0	-1	205
16159115	5943	1130	0	-100	0	230	101300000	1000	0	0	-1	205
16171675	5942	1134	0	-100	0	230	101300000	1000	0	0	-1	205
16184235	5945	1137	0	-100	0	230	101300000	1000	0	0	-1	205
16196795	5946	1127	0	-100	0	230	101300000	1000	0	0	-1	205
16209355	5944	1133	0	-100	0	230	101300000	1000	0	0	-1	205
16221915	5938	1131	0	-100	0	230	101300000	1000	0	0	-1	205
16234475	5945	1133	0	-100	0	230	101300000	1000	0	0	-1	205
16247035	5945	1132	0	-100	0	230	101300000	1000	0	0	-1	205
16259595	5942	1130	0	-100	0	230	101300000	1000	0	0	-1	205
16272155	5939	1134	0	-100	0	230	101300000	1000	0	0	-1	205
16284715	5941	1133	0	-100	0	230	101300000	1000	0	0	-1	205
16297275	5948	1134	0	-100	0	230	101300000	1000	0	0	-1	205
16309835	5945	1133	0	-100	0	230	101300000	1000	0	0	-1	205
16322395	5941	1131	0	-100	0	230	101300000	1000	0	0	-1	205
16334955	5942	1129	0	-100	0	230	101300000	1000	0	0	-1	205
16347515	5938	1135	0	-100	0	230	101300000	1000	0	0	-1	205
16360075	5946	1130	0	-100	0	230	101300000	1000	0	0	-1	205
16372635	5948	1127	0	-100	0	230	101300000	1000	0	0	-1	205
16385195	5944	1125	0	-100	0	230	101300000	1000	0	0	-1	205
16397755	5949	1128	0	-100	0	230	101300000	1000	0	0	-1	205
16410315	5944	1129	0	-100	0	230	101300000	1000	0	0	-1	205
16422875	5941	1129	0	-100	0	230	101300000	1000	0	0	-1	205
16435435	5942	1133	0	-100	0	230	101300000	1000	0	0	-1	205
16447995	5942	1129	0	-100	0	230	101300000	1000	0	0	-1	205
16460555	5941	1133	0	-100	0	230	101300000	1000	0	0	-1	205
16473115	5945	1135	0	-100	0	230	101300000	1000	0	0	-1	205
16485675	5942	1134	0	-100	0	230	101300000	1000	0	0	-1	205
16498235	5945	1130	0	-100	0	230	101300000	1000	0	0	-1	205
16510795	5949	1135	0	-100	0	230	101300000	1000	0	0	-1	205
16523355	5949	1135	0	-100	0	230	101300000	1000	0	0	-1	205
16535915	5950	1128	0	-100	0	230	101300000	1000	0	0	-1	205
16548475	5947	1133	0	-100	0	230	101300000	1000	0	0	-1	205
16561035	5944	1133	0	-100	0	230	101300000	1000	0	0	-1	205
16573595	5949	1131	0	-100	0	230	101300000	1000	0	0	-1	205
16586155	5949	1125	0	-100	0	230	101300000	1000	0	0	-1	205
16598715	5946	1127	0	-100	0	230	101300000	1000	0	0	-1	205
16611275	5944	1127	0	-100	0	230	101300000	1000	0	0	-1	205
16623835	5944	1127	0	-100	0	230	101300000	1000	0	0	-1	205
16636395	5941	1129	0	-100	0	230	101300000	1000	0	0	-1	205
16648955	5943	1127	0	-100	0	230	101300000	1000	0	0	-1	205
16661515	5941	1133	0	-100	0	230	101300000	1000	0	0	-1	205
16674075	5939	1128	0	-100	0	230	101300000	1000	0	0	-1	205
16686635	5940	1137	0	-100	0	230	101300000	1000	0	0	-1	205
16699195	5943	1127	0	-100	0	230	101300000	1000	0	0	-1	205
16711755	5943	1133	0	-100	0	230	101300000	1000	0	0	-1	205
16724315	5941	1136	0	-100	0	230	101300000	1000	0	0	-1	205
16736875	5940	1134	0	-100	0	230	101300000	1000	0	0	-1	205
16749435	5949	1137	0	-100	0	230	101300000	1000	0	0	-1	205
16761995	5944	1135	0	-100	0	230	101300000	1000	0	0	-1	205
16774555	5945	1130	0	-100	0	230	101300000	1000	0	0	-1	205
16787115	5945	1129	0	-100	0	230	101300000	1000	0	0	-1	205
16799675	5941	1125	0	-100	0	230	101300000	1000	0	0	-1	205
16812235	5945	1132	0	-100	0	230	101300000	1000	0	0	-1	205
16824795	5945	1133	0	-100	0	230	101300000	1000	0	0	-1	205
16837355	5943	1128	0	-100	0	230	101300000	1000	0	0	-1	205
16849915	5942	1132	0	-100	0	230	101300000	1000	0	0	-1	205
16862475	5945	1132	0	-100	0	230	101300000	1000	0	0	-1	205
16875035	5945	1136	0	-100	0	230	101300000	1000	0	0	-1	205
16887595	5944	1129	0	-100	0	230	101300000	1000	0	0	-1	205
16900155	5949	1130	0	-100	0	230	101300000	1000	0	0	-1	205
16912715	5943	1125	0	-100	0	230	101300000	1000	0	0	-1	205
16925275	5945	1130	0	-100	0	230	101300000	1000	0	0	-1	205
16937835	5942	1131	0	-100	0	230	101300000	1000	0	0	-1	205
16950395	5940	1133	0	-100	0	230	101300000	1000	0	0	-1	205
16962955	5942	1136	0	-100	0	230	101300000	1000	0	0	-1	205
16975515	5944	1131	0	-100	0	230	101300000	1000	0	0	-1	205
16988075	5942	1133	0	-100	0	230	101300000	1000	0	0	-1	205
17000635	5944	1130	0	-100	0	230	101300000	1000	0	0	-1	205
17013195	5940	1127	0	-100	0	230	101300000	1000	0	0	-1	205
17025755	5943	1131	0	-100	0	230	101300000	1000	0	0	-1	205
17038315	5947	1134	0	-100	0	230	101300000	1000	0	0	-1	205
17050875	5946	1128	0	-100	0	230	101300000	1000	0	0	-1	205
17063435	5944	1126	0	-100	0	230	101300000	1000	0	0	-1	205
17075995	5941	1128	0	-100	0	230	101300000	1000	0	0	-1	205
17088555	5943	1131	0	-100	0	230	101300000	1000	0	0	-1	205
17101115	5940	1128	0	-100	0	230	101300000	1000	0	0	-1	205
17113675	5941	1127	0	-100	0	230	101300000	1000	0	0	-1	205
17126235	5948	1136	0	-100	0	230	101300000	1000	0	0	-1	205
17138795	5946	1130	0	-100	0	230	101300000	1000	0	0	-1	205
17151355	5946	1133	0	-100	0	230	101300000	1000	0	0	-1	205
17163915	5940	1128	0	-100	0	230	101300000	1000	0	0	-1	205
17176475	5945	1125	0	-100	0	230	101300000	1000	0	0	-1	205
17189035	5940	1138	0	-100	0	230	101300000	1000	0	0	-1	205
17201595	5945	1119	0	-100	0	230	101300000	1000	0	0	-1	205
17214155	5938	1136	0	-100	0	230	101300000	1000	0	0	-1	205
17226715	5942	1125	0	-100	0	230	101300000	1000	0	0	-1	205
17239275	5949	1138	0	-100	0	230	101300000	1000	0	0	-1	205
17251835	5949	1126	0	-100	0	230	101300000	1000	0	0	-1	205
17264395	5946	1128	0	-100	0	230	101300000	1000	0	0	-1	205
17276955	5945	1123	0	-100	0	230	101300000	1000	0	0	-1	205
17289515	5941	1130	0	-100	0	230	101300000	1000	0	0	-1	205
17302075	5939	1131	0	-100	0	230	101300000	1000	0	0	-1	205
17314635	5933	1134	0	-100	0	230	101300000	1000	0	0	-1	205
17327195	5944	1136	0	-100	0	230	101300000	1000	0	0	-1	205
17339755	5943	1136	0	-100	0	230	101300000	1000	0	0	-1	205
17352315	5940	1131	0	-100	0	230	101300000	1000	0	0	-1	205
17364875	5942	1131	0	-100	0	230	101300000	1000	0	0	-1	205
17377435	5942	1134	0	-100	0	230	101300000	1000	0	0	-1	205
17389995	5951	1139	0	-100	0	230	101300000	1000	0	0	-1	205
17402555	5952	1134	0	-100	0	230	101300000	1000	0	0	-1	205
17415115	5945	1128	0	-100	0	230	101300000	1000	0	0	-1	205
17427675	5940	1132	0	-100	0	230	101300000	1000	0	0	-1	205
17440235	5944	1135	0	-100	0	230	101300000	1000	0	0	-1	205
17452795	5939	1135	0	-100	0	230	101300000	1000	0	0	-1	205
17465355	5944	1137	0	-100	0	230	101300000	1000	0	0	-1	205
17477915	5949	1126	0	-100	0	230	101300000	1000	0	0	-1	205
17490475	5945	1136	0	-100	0	230	101300000	1000	0	0	-1	205
17503035	5942	1121	0	-100	0	230	101300000	1000	0	0	-1	205
17515595	5945	1131	0	-100	0	230	101300000	1000	0	0	-1	205
17528155	5942	1125	0	-100	0	230	101300000	1000	0	0	-1	205
17540715	5939	1133	0	-100	0	230	101300000	1000	0	0	-1	205
17553275	5941	1133	0	-100	0	230	101300000	1000	0	0	-1	205
17565835	5942	1127	0	-100	0	230	101300000	1000	0	0	-1	205
17578395	5948	1137	0	-100	0	230	101300000	1000	0	0	-1	205
17590955	5948	1129	0	-100	0	230	101300000	1000	0	0	-1	205
17603515	5941	1128	0	-100	0	230	101300000	1000	0	0	-1	205
17616075	5942	1130	0	-100	0	230	101300000	1000	0	0	-1	205
17628635	5942	1132	0	-100	0	230	101300000	1000	0	0	-1	205
17641195	5943	1131	0	-100	0	230	101300000	1000	0	0	-1	205
17653755	5945	1136	0	-100	0	230	101300000	1000	0	0	-1	205
17666315	5945	1126	0	-100	0	230	101300000	1000	0	0	-1	205
17678875	5945	1128	0	-100	0	230	101300000	1000	0	0	-1	205
17691435	5938	1136	0	-100	0	230	101300000	1000	0	0	-1	205
17703995	5944	1126	0	-100	0	230	101300000	1000	0	0	-1	205
17716555	5949	1133	0	-100	0	230	101300000	1000	0	0	-1	205
17729115	5949	1130	0	-100	0	230	101300000	1000	0	0	-1	205
17741675	5942	1132	0	-100	0	230	101300000	1000	0	0	-1	205
17754235	5943	1133	0	-100	0	230	101300000	1000	0	0	-1	205
17766795	5942	1132	0	-100	0	230	101300000	1000	0	0	-1	205
17779355	5946	1129	0	-100	0	230	101300000	1000	0	0	-1	205
17791915	5949	1125	0	-100	0	230	101300000	1000	0	0	-1	205
17804475	5945	1137	0	-100	0	230	101300000	1000	0	0	-1	205
17817035	5940	1128	0	-100	0	230	101300000	1000	0	0	-1	205
17829595	5941	1132	0	-100	0	230	101300000	1000	0	0	-1	205
17842155	5939	1129	0	-100	0	230	101300000	1000	0	0	-1	205
17854715	5939	1124	0	-100	0	230	101300000	1000	0	0	-1	205
17867275	5945	1130	0	-100	0	230	101300000	1000	0	0	-1	205
17879835	5945	1136	0	-100	0	230	101300000	1000	0	0	-1	205
17892395	5941	1136	0	-100	0	230	101300000	1000	0	0	-1	205
17904955	5942	1133	0	-100	0	230	101300000	1000	0	0	-1	205
17917515	5941	1130	0	-100	0	230	101300000	1000	0	0	-1	205
17930075	5945	1134	0	-100	0	230	101300000	1000	0	0	-1	205
17942635	5944	1127	0	-100	0	230	101300000	1000	0	0	-1	205
17955195	5945	1127	0	-100	0	230	101300000	1000	0	0	-1	205
17967755	5941	1127	0	-100	0	230	101300000	1000	0	0	-1	205
17980315	5940	1127	0	-100	0	230	101300000	1000	0	0	-1	205
17992875	5942	1142	0	-100	0	230	101300000	1000	0	0	-1	205
18005435	5940	1136	0	-100	0	230	101300000	1000	0	0	-1	205
18017995	5945	1125	0	-100	0	230	101300000	1000	0	0	-1	205
18030555	5949	1130	0	-100	0	230	101300000	1000	0	0	-1	205
18043115	5944	1130	0	-100	0	230	101300000	1000	0	0	-1	205
18055675	5938	1131	0	-100	0	230	101300000	1000	0	0	-1	205
18068235	5942	1136	0	-100	0	230	101300000	1000	0	0	-1	205
18080795	5942	1133	0	-100	0	230	101300000	1000	0	0	-1	205
18093355	5946	1140	0	-100	0	230	101300000	1000	0	0	-1	205
18105915	5949	1133	0	-100	0	230	101300000	1000	0	0	-1	205
18118475	5949	1129	0	-100	0	230	101300000	1000	0	0	-1	205
18131035	5948	1131	0	-100	0	230	101300000	1000	0	0	-1	205
18143595	5941	1134	0	-100	0	230	101300000	1000	0	0	-1	205
18156155	5939	1134	0	-100	0	230	101300000	1000	0	0	-1	205
18168715	5941	1131	0	-100	0	230	101300000	1000	0	0	-1	205
18181275	5941	1127	0	-100	0	230	101300000	1000	0	0	-1	205
18193835	5936	1130	0	-100	0	230	101300000	1000	0	0	-1	205
18206395	5943	1134	0	-100	0	230	101300000	1000	0	0	-1	205
18218955	5941	1133	0	-100	0	230	101300000	1000	0	0	-1	205
18231515	5946	1135	0	-100	0	230	101300000	1000	0	0	-1	205
18244075	5946	1134	0	-100	0	230	101300000	1000	0	0	-1	205
18256635	5945	1131	0	-100	0	230	101300000	1000	0	0	-1	205
18269195	5951	1126	0	-100	0	230	101300000	1000	0	0	-1	205
18281755	5948	1126	0	-100	0	230	101300000	1000	0	0	-1	205
18294315	5947	1133	0	-100	0	230	101300000	1000	0	0	-1	205
18306875	5948	1136	0	-100	0	230	101300000	1000	0	0	-1	205
18319435	5949	1132	0	-100	0	230	101300000	1000	0	0	-1	205
18331995	5945	1129	0	-100	0	230	101300000	1000	0	0	-1	205
18344555	5943	1129	0	-100	0	230	101300000	1000	0	0	-1	205
18357115	5938	1132	0	-100	0	230	101300000	1000	0	0	-1	205
18369675	5941	1135	0	-100	0	230	101300000	1000	0	0	-1	205
18382235	5944	1136	0	-100	0	230	101300000	1000	0	0	-1	205
18394795	5940	1130	0	-100	0	230	101300000	1000	0	0	-1	205
18407355	5944	1130	0	-100	0	230	101300000	1000	0	0	-1	205
18419915	5950	1133	0	-100	0	230	101300000	1000	0	0	-1	205
18432475	5947	1137	0	-100	0	230	101300000	1000	0	0	-1	205
18445035	5945	1135	0	-100	0	230	101300000	1000	0	0	-1	205
18457595	5947	1127	0	-100	0	230	101300000	1000	0	0	-1	205
18470155	5945	1125	0	-100	0	230	101300000	1000	0	0	-1	205
18482715	5943	1131	0	-100	0	230	101300000	1000	0	0	-1	205
18495275	5941	1131	0	-100	0	230	101300000	1000	0	0	-1	205
18507835	5941	1127	0	-100	0	230	101300000	1000	0	0	-1	205
18520395	5936	1126	0	-100	0	230	101300000	1000	0	0	-1	205
18532955	5938	1135	0	-100	0	230	101300000	1000	0	0	-1	205
18545515	5942	1132	0	-100	0	230	101300000	1000	0	0	-1	205
18558075	5944	1131	0	-100	0	230	101300000	1000	0	0	-1	205
18570635	5943	1134	0	-100	0	230	101300000	1000	0	0	-1	205
18583195	5948	1131	0	-100	0	230	101300000	1000	0	0	-1	205
18595755	5947	1121	0	-100	0	230	101300000	1000	0	0	-1	205
18608315	5944	1130	0	-100	0	230	101300000	1000	0	0	-1	205
18620875	5942	1129	0	-100	0	230	101300000	1000	0	0	-1	205
18633435	5942	1126	0	-100	0	230	101300000	1000	0	0	-1	205
18645995	5941	1134	0	-100	0	230	101300000	1000	0	0	-1	205
18658555	5945	1130	0	-100	0	230	101300000	1000	0	0	-1	205
18671115	5946	1130	0	-100	0	230	101300000	1000	0	0	-1	205
18683675	5947	1135	0	-100	0	230	101300000	1000	0	0	-1	205
18696235	5943	1124	0	-100	0	230	101300000	1000	0	0	-1	205
18708795	5939	1129	0	-100	0	230	101300000	1000	0	0	-1	205
18721355	5942	1138	0	-100	0	230	101300000	1000	0	0	-1	205
18733915	5938	1138	0	-100	0	230	101300000	1000	0	0	-1	205
18746475	5939	1130	0	-100	0	230	101300000	1000	0	0	-1	205
18759035	5949	1129	0	-100	0	230	101300000	1000	0	0	-1	205
18771595	5941	1130	0	-100	0	230	101300000	1000	0	0	-1	205
18784155	5944	1135	0	-100	0	230	101300000	1000	0	0	-1	205
18796715	5943	1126	0	-100	0	230	101300000	1000	0	0	-1	205
18809275	5949	1135	0	-100	0	230	101300000	1000	0	0	-1	205
18821835	5936	1130	0	-100	0	230	101300000	1000	0	0	-1	205
18834395	5941	1134	0	-100	0	230	101300000	1000	0	0	-1	205
18846955	5945	1127	0	-100	0	230	101300000	1000	0	0	-1	205
18859515	5945	1128	0	-100	0	230	101300000	1000	0	0	-1	205
18872075	5937	1132	0	-100	0	230	101300000	1000	0	0	-1	205
18884635	5941	1128	0	-100	0	230	101300000	1000	0	0	-1	205
18897195	5941	1139	0	-100	0	230	101300000	1000	0	0	-1	205
18909755	5949	1125	0	-100	0	230	101300000	1000	0	0	-1	205
18922315	5945	1123	0	-100	0	230	101300000	1000	0	0	-1	205
18934875	5942	1130	0	-100	0	230	101300000	1000	0	0	-1	205
18947435	5944	1133	0	-100	0	230	101300000	1000	0	0	-1	205
18959995	5948	1129	0	-100	0	230	101300000	1000	0	0	-1	205
18972555	5941	1129	0	-100	0	230	101300000	1000	0	0	-1	205
18985115	5941	1139	0	-100	0	230	101300000	1000	0	0	-1	205
18997675	5950	1125	0	-100	0	230	101300000	1000	0	0	-1	205
19010235	5939	1128	0	-100	0	230	101300000	1000	0	0	-1	205
19022795	5945	1125	0	-100	0	230	101300000	1000	0	0	-1	205
19035355	5945	1127	0	-100	0	230	101300000	1000	0	0	-1	205
19047915	5945	1130	0	-100	0	230	101300000	1000	0	0	-1	205
19060475	5942	1139	0	-100	0	230	101300000	1000	0	0	-1	205
19073035	5947	1125	0	-100	0	230	101300000	1000	0	0	-1	205
19085595	5938	1126	0	-100	0	230	101300000	1000	0	0	-1	205
19098155	5942	1133	0	-100	0	230	101300000	1000	0	0	-1	205
19110715	5947	1129	0	-100	0	230	101300000	1000	0	0	-1	205
19123275	5945	1131	0	-100	0	230	101300000	1000	0	0	-1	205
19135835	5940	1134	0	-100	0	230	101300000	1000	0	0	-1	205
19148395	5945	1128	0	-100	0	230	101300000	1000	0	0	-1	205
19160955	5945	1135	0	-100	0	230	101300000	1000	0	0	-1	205
19173515	5943	1128	0	-100	0	230	101300000	1000	0	0	-1	205
19186075	5948	1130	0	-100	0	230	101300000	1000	0	0	-1	205
19198635	5943	1132	0	-100	0	230	101300000	1000	0	0	-1	205
19211195	5940	1136	0	-100	0	230	101300000	1000	0	0	-1	205
19223755	5942	1137	0	-100	0	230	101300000	1000	0	0	-1	205
19236315	5942	1130	0	-100	0	230	101300000	1000	0	0	-1	205
19248875	5947	1126	0	-100	0	230	101300000	1000	0	0	-1	205
19261435	5947	1129	0	-100	0	230	101300000	1000	0	0	-1	205
19273995	5936	1130	0	-100	0	230	101300000	1000	0	0	-1	205
19286555	5945	1141	0	-100	0	230	101300000	1000	0	0	-1	205
19299115	5942	1133	0	-100	0	230	101300000	1000	0	0	-1	205
19311675	5951	1134	0	-100	0	230	101300000	1000	0	0	-1	205
19324235	5949	1132	0	-100	0	230	101300000	1000	0	0	-1	205
19336795	5945	1135	0	-100	0	230	101300000	1000	0	0	-1	205
19349355	5942	1130	0	-100	0	230	101300000	1000	0	0	-1	205
19361915	5940	1129	0	-100	0	230	101300000	1000	0	0	-1	205
19374475	5946	1126	0	-100	0	230	101300000	1000	0	0	-1	205
19387035	5947	1133	0	-100	0	230	101300000	1000	0	0	-1	205
19399595	5937	1128	0	-100	0	230	101300000	1000	0	0	-1	205
19412155	5941	1133	0	-100	0	230	101300000	1000	0	0	-1	205
19424715	5947	1126	0	-100	0	230	101300000	1000	0	0	-1	205
19437275	5944	1126	0	-100	0	230	101300000	1000	0	0	-1	205
19449835	5937	1132	0	-100	0	230	101300000	1000	0	0	-1	205
19462395	5940	1123	0	-100	0	230	101300000	1000	0	0	-1	205
19474955	5948	1127	0	-100	0	230	101300000	1000	0	0	-1	205
19487515	5937	1129	0	-100	0	230	101300000	1000	0	0	-1	205
19500075	5941	1129	0	-100	0	230	101300000	1000	0	0	-1	205
19512635	5944	1131	0	-100	0	230	101300000	1000	0	0	-1	205
19525195	5939	1126	0	-100	0	230	101300000	1000	0	0	-1	205
19537755	5936	1127	0	-100	0	230	101300000	1000	0	0	-1	205
19550315	5946	1130	0	-100	0	230	101300000	1000	0	0	-1	205
19562875	5946	1130	0	-100	0	230	101300000	1000	0	0	-1	205
19575435	5941	1131	0	-100	0	230	101300000	1000	0	0	-1	205
19587995	5944	1125	0	-100	0	230	101300000	1000	0	0	-1	205
19600555	5946	1115	0	-100	0	230	101300000	1000	0	0	-1	205
19613115	5944	1131	0	-100	0	230	101300000	1000	0	0	-1	205
19625675	5942	1132	0	-100	0	230	101300000	1000	0	0	-1	205
19638235	5950	1127	0	-100	0	230	101300000	1000	0	0	-1	205
19650795	5943	1132	0	-100	0	230	101300000	1000	0	0	-1	205
19663355	5938	1130	0	-100	0	230	101300000	1000	0	0	-1	205
19675915	5948	1134	0	-100	0	230	101300000	1000	0	0	-1	205
19688475	5945	1119	0	-100	0	230	101300000	1000	0	0	-1	205
19701035	5942	1132	0	-100	0	230	101300000	1000	0	0	-1	205
19713595	5942	1130	0	-100	0	230	101300000	1000	0	0	-1	205
19726155	5949	1129	0	-100	0	230	101300000	1000	0	0	-1	205
19738715	5940	1138	0	-100	0	230	101300000	1000	0	0	-1	205
19751275	5939	1136	0	-100	0	230	101300000	1000	0	0	-1	205
19763835	5942	1128	0	-100	0	230	101300000	1000	0	0	-1	205
19776395	5949	1130	0	-100	0	230	101300000	1000	0	0	-1	205
19788955	5941	1129	0	-100	0	230	101300000	1000	0	0	-1	205
19801515	5941	1131	0	-100	0	230	101300000	1000	0	0	-1	205
19814075	5948	1136	0	-100	0	230	101300000	1000	0	0	-1	205
19826635	5942	1132	0	-100	0	230	101300000	1000	0	0	-1	205
19839195	5941	1130	0	-100	0	230	101300000	1000	0	0	-1	205
19851755	5942	1135	0	-100	0	230	101300000	1000	0	0	-1	205
19864315	5951	1138	0	-100	0	230	101300000	1000	0	0	-1	205
19876875	5945	1129	0	-100	0	230	101300000	1000	0	0	-1	205
19889435	5939	1130	0	-100	0	230	101300000	1000	0	0	-1	205
19901995	5946	1130	0	-100	0	230	101300000	1000	0	0	-1	205
19914555	5938	1128	0	-100	0	230	101300000	1000	0	0	-1	205
19927115	5949	1135	0	-100	0	230	101300000	1000	0	0	-1	205
19939675	5945	1127	0	-100	0	230	101300000	1000	0	0	-1	205
19952235	5939	1130	0	-100	0	230	101300000	1000	0	0	-1	205
19964795	5937	1132	0	-100	0	230	101300000	1000	0	0	-1	205
19977355	5944	1129	0	-100	0	230	101300000	1000	0	0	-1	205
19989915	5940	1129	0	-100	0	230	101300000	1000	0	0	-1	205
20002475	5943	1139	0	-100	0	230	101300000	1000	0	0	-1	205
20015035	5944	1131	0	-100	0	230	101300000	1000	0	0	-1	205
20027595	5945	1137	0	-100	0	230	101300000	1000	0	0	-1	205
20040155	5948	1137	0	-100	0	230	101300000	1000	0	0	-1	205
20052715	5941	1132	0	-100	0	230	101300000	1000	0	0	-1	205
20065275	5944	1135	0	-100	0	230	101300000	1000	0	0	-1	205
20077835	5948	1128	0	-100	0	230	101300000	1000	0	0	-1	205
20090395	5938	1131	0	-100	0	230	101300000	1000	0	0	-1	205
20102955	5938	1134	0	-100	0	230	101300000	1000	0	0	-1	205
20115515	5949	1129	0	-100	0	230	101300000	1000	0	0	-1	205
20128075	5939	1133	0	-100	0	230	101300000	1000	0	0	-1	205
20140635	5940	1142	0	-100	0	230	101300000	1000	0	0	-1	205
20153195	5945	1136	0	-100	0	230	101300000	1000	0	0	-1	205
20165755	5942	1129	0	-100	0	230	101300000	1000	0	0	-1	205
20178315	5940	1137	0	-100	0	230	101300000	1000	0	0	-1	205
20190875	5949	1133	0	-100	0	230	101300000	1000	0	0	-1	205
20203435	5940	1126	0	-100	0	230	101300000	1000	0	0	-1	205
20215995	5942	1134	0	-100	0	230	101300000	1000	0	0	-1	205
20228555	5949	1125	0	-100	0	230	101300000	1000	0	0	-1	205
20241115	5943	1137	0	-100	0	230	101300000	1000	0	0	-1	205
20253675	5949	1128	0	-100	0	230	101300000	1000	0	0	-1	205
20266235	5941	1134	0	-100	0	230	101300000	1000	0	0	-1	205
20278795	5951	1135	0	-100	0	230	101300000	1000	0	0	-1	205
20291355	5945	1135	0	-100	0	230	101300000	1000	0	0	-1	205
20303915	5941	1134	0	-100	0	230	101300000	1000	0	0	-1	205
20316475	5948	1132	0	-100	0	230	101300000	1000	0	0	-1	205
20329035	5939	1130	0	-100	0	230	101300000	1000	0	0	-1	205
20341595	5945	1140	0	-100	0	230	101300000	1000	0	0	-1	205
20354155	5947	1129	0	-100	0	230	101300000	1000	0	0	-1	205
20366715	5940	1141	0	-100	0	230	101300000	1000	0	0	-1	205
20379275	5946	1132	0	-100	0	230	101300000	1000	0	0	-1	205
20391835	5946	1136	0	-100	0	230	101300000	1000	0	0	-1	205
20404395	5947	1134	0	-100	0	230	101300000	1000	0	0	-1	205
20416955	5945	1123	0	-100	0	230	101300000	1000	0	0	-1	205
20429515	5940	1138	0	-100	0	230	101300000	1000	0	0	-1	205
20442075	5944	1138	0	-100	0	230	101300000	1000	0	0	-1	205
20454635	5938	1131	0	-100	0	230	101300000	1000	0	0	-1	205
20467195	5945	1124	0	-100	0	230	101300000	1000	0	0	-1	205
20479755	5938	1136	0	-100	0	230	101300000	1000	0	0	-1	205
20492315	5938	1131	0	-100	0	230	101300000	1000	0	0	-1	205
20504875	5949	1134	0	-100	0	230	101300000	1000	0	0	-1	205
20517435	5941	1129	0	-100	0	230	101300000	1000	0	0	-1	205
20529995	5950	1135	0	-100	0	230	101300000	1000	0	0	-1	205
20542555	5944	1130	0	-100	0	230	101300000	1000	0	0	-1	205
20555115	5949	1133	0	-100	0	230	101300000	1000	0	0	-1	205
20567675	5941	1131	0	-100	0	230	101300000	1000	0	0	-1	205
20580235	5942	1137	0	-100	0	230	101300000	1000	0	0	-1	205
20592795	5948	1134	0	-100	0	230	101300000	1000	0	0	-1	205
20605355	5942	1132	0	-100	0	230	101300000	1000	0	0	-1	205
20617915	5950	1124	0	-100	0	230	101300000	1000	0	0	-1	205
20630475	5945	1135	0	-100	0	230	101300000	1000	0	0	-1	205
20643035	5950	1129	0	-100	0	230	101300000	1000	0	0	-1	205
20655595	5935	1133	0	-100	0	230	101300000	1000	0	0	-1	205
20668155	5949	1135	0	-100	0	230	101300000	1000	0	0	-1	205
20680715	5938	1131	0	-100	0	230	101300000	1000	0	0	-1	205
20693275	5947	1133	0	-100	0	230	101300000	1000	0	0	-1	205
20705835	5941	1126	0	-100	0	230	101300000	1000	0	0	-1	205
20718395	5942	1130	0	-100	0	230	101300000	1000	0	0	-1	205
20730955	5945	1125	0	-100	0	230	101300000	1000	0	0	-1	205
20743515	5942	1134	0	-100	0	230	101300000	1000	0	0	-1	205
20756075	5946	1130	0	-100	0	230	101300000	1000	0	0	-1	205
20768635	5941	1128	0	-100	0	230	101300000	1000	0	0	-1	205
20781195	5941	1135	0	-100	0	230	101300000	1000	0	0	-1	205
20793755	5944	1135	0	-100	0	230	101300000	1000	0	0	-1	205
20806315	5949	1131	0	-100	0	230	101300000	1000	0	0	-1	205
20818875	5942	1121	0	-100	0	230	101300000	1000	0	0	-1	205
20831435	5944	1134	0	-100	0	230	101300000	1000	0	0	-1	205
20843995	5947	1132	0	-100	0	230	101300000	1000	0	0	-1	205
20856555	5942	1128	0	-100	0	230	101300000	1000	0	0	-1	205
20869115	5940	1135	0	-100	0	230	101300000	1000	0	0	-1	205
20881675	5948	1127	0	-100	0	230	101300000	1000	0	0	-1	205
20894235	5941	1131	0	-100	0	230	101300000	1000	0	0	-1	205
20906795	5949	1132	0	-100	0	230	101300000	1000	0	0	-1	205
20919355	5941	1123	0	-100	0	230	101300000	1000	0	0	-1	205
20931915	5940	1133	0	-100	0	230	101300000	1000	0	0	-1	205
20944475	5944	1130	0	-100	0	230	101300000	1000	0	0	-1	205
20957035	5940	1133	0	-100	0	230	101300000	1000	0	0	-1	205
20969595	5947	1130	0	-100	0	230	101300000	1000	0	0	-1	205
20982155	5944	1132	0	-100	0	230	101300000	1000	0	0	-1	205
20994715	5941	1135	0	-100	0	230	101300000	1000	0	0	-1	205
21007275	5949	1136	0	-100	0	230	101300000	1000	0	0	-1	205
21019835	5940	1128	0	-100	0	230	101300000	1000	0	0	-1	205
21032395	5941	1137	0	-100	0	230	101300000	1000	0	0	-1	205
21044955	5952	1133	0	-100	0	230	101300000	1000	0	0	-1	205
21057515	5942	1129	0	-100	0	230	101300000	1000	0	0	-1	205
21070075	5942	1127	0	-100	0	230	101300000	1000	0	0	-1	205
21082635	5948	1131	0	-100	0	230	101300000	1000	0	0	-1	205
21095195	5943	1128	0	-100	0	230	101300000	1000	0	0	-1	205
21107755	5944	1138	0	-100	0	230	101300000	1000	0	0	-1	205
21120315	5951	1133	0	-100	0	230	101300000	1000	0	0	-1	205
21132875	5941	1132	0	-100	0	230	101300000	1000	0	0	-1	205
21145435	5945	1128	0	-100	0	230	101300000	1000	0	0	-1	205
21157995	5945	1126	0	-100	0	230	101300000	1000	0	0	-1	205
21170555	5948	1134	0	-100	0	230	101300000	1000	0	0	-1	205
21183115	5941	1127	0	-100	0	230	101300000	1000	0	0	-1	205
21195675	5943	1136	0	-100	0	230	101300000	1000	0	0	-1	205
21208235	5942	1127	0	-100	0	230	101300000	1000	0	0	-1	205
21220795	5948	1127	0	-100	0	230	101300000	1000	0	0	-1	205
21233355	5945	1137	0	-100	0	230	101300000	1000	0	0	-1	205
21245915	5941	1127	0	-100	0	230	101300000	1000	0	0	-1	205
21258475	5945	1126	0	-100	0	230	101300000	1000	0	0	-1	205
21271035	5947	1137	0	-100	0	230	101300000	1000	0	0	-1	205
21283595	5948	1129	0	-100	0	230	101300000	1000	0	0	-1	205
21296155	5937	1131	0	-100	0	230	101300000	1000	0	0	-1	205
21308715	5942	1125	0	-100	0	230	101300000	1000	0	0	-1	205
21321275	5945	1131	0	-100	0	230	101300000	1000	0	0	-1	205
21333835	5949	1133	0	-100	0	230	101300000	1000	0	0	-1	205
21346395	5941	1130	0	-100	0	230	101300000	1000	0	0	-1	205
21358955	5941	1122	0	-100	0	230	101300000	1000	0	0	-1	205
21371515	5944	1141	0	-100	0	230	101300000	1000	0	0	-1	205
21384075	5951	1126	0	-100	0	230	101300000	1000	0	0	-1	205
21396635	5944	1130	0	-100	0	230	101300000	1000	0	0	-1	205
21409195	5940	1135	0	-100	0	230	101300000	1000	0	0	-1	205
21421755	5949	1127	0	-100	0	230	101300000	1000	0	0	-1	205
21434315	5946	1135	0	-100	0	230	101300000	1000	0	0	-1	205
21446875	5942	1134	0	-100	0	230	101300000	1000	0	0	-1	205
21459435	5943	1133	0	-100	0	230	101300000	1000	0	0	-1	205
21471995	5942	1130	0	-100	0	230	101300000	1000	0	0	-1	205
21484555	5942	1131	0	-100	0	230	101300000	1000	0	0	-1	205
21497115	5949	1130	0	-100	0	230	101300000	1000	0	0	-1	205
21509675	5942	1133	0	-100	0	230	101300000	1000	0	0	-1	205
21522235	5945	1132	0	-100	0	230	101300000	1000	0	0	-1	205
21534795	5940	1136	0	-100	0	230	101300000	1000	0	0	-1	205
21547355	5946	1125	0	-100	0	230	101300000	1000	0	0	-1	205
21559915	5942	1128	0	-100	0	230	101300000	1000	0	0	-1	205
21572475	5943	1126	0	-100	0	230	101300000	1000	0	0	-1	205
21585035	5944	1136	0	-100	0	230	101300000	1000	0	0	-1	205
21597595	5948	1128	0	-100	0	230	101300000	1000	0	0	-1	205
21610155	5945	1129	0	-100	0	230	101300000	1000	0	0	-1	205
21622715	5945	1139	0	-100	0	230	101300000	1000	0	0	-1	205
21635275	5949	1128	0	-100	0	230	101300000	1000	0	0	-1	205
21647835	5949	1128	0	-100	0	230	101300000	1000	0	0	-1	205
21660395	5942	1133	0	-100	0	230	101300000	1000	0	0	-1	205
21672955	5945	1134	0	-100	0	230	101300000	1000	0	0	-1	205
21685515	5940	1135	0	-100	0	230	101300000	1000	0	0	-1	205
21698075	5947	1133	0	-100	0	230	101300000	1000	0	0	-1	205
21710635	5945	1129	0	-100	0	230	101300000	1000	0	0	-1	205
21723195	5941	1137	0	-100	0	230	101300000	1000	0	0	-1	205
21735755	5944	1129	0	-100	0	230	101300000	1000	0	0	-1	205
21748315	5941	1130	0	-100	0	230	101300000	1000	0	0	-1	205
21760875	5952	1133	0	-100	0	230	101300000	1000	0	0	-1	205
21773435	5946	1134	0	-100	0	230	101300000	1000	0	0	-1	205
21785995	5941	1136	0	-100	0	230	101300000	1000	0	0	-1	205
21798555	5943	1123	0	-100	0	230	101300000	1000	0	0	-1	205
21811115	5941	1133	0	-100	0	230	101300000	1000	0	0	-1	205
21823675	5946	1135	0	-100	0	230	101300000	1000	0	0	-1	205
21836235	5947	1128	0	-100	0	230	101300000	1000	0	0	-1	205
21848795	5942	1127	0	-100	0	230	101300000	1000	0	0	-1	205
21861355	5945	1127	0	-100	0	230	101300000	1000	0	0	-1	205
21873915	5942	1138	0	-100	0	230	101300000	1000	0	0	-1	205
21886475	5944	1130	0	-100	0	230	101300000	1000	0	0	-1	205
21899035	5940	1128	0	-100	0	230	101300000	1000	0	0	-1	205
21911595	5946	1132	0	-100	0	230	101300000	1000	0	0	-1	205
21924155	5946	1134	0	-100	0	230	101300000	1000	0	0	-1	205
21936715	5945	1129	0	-100	0	230	101300000	1000	0	0	-1	205
21949275	5949	1131	0	-100	0	230	101300000	1000	0	0	-1	205
21961835	5941	1127	0	-100	0	230	101300000	1000	0	0	-1	205
21974395	5942	1136	0	-100	0	230	101300000	1000	0	0	-1	205
21986955	5945	1129	0	-100	0	230	101300000	1000	0	0	-1	205
21999515	5949	1128	0	-100	0	230	101300000	1000	0	0	-1	205
22012075	5943	1126	0	-100	0	230	101300000	1000	0	0	-1	205
22024635	5939	1125	0	-100	0	230	101300000	1000	0	0	-1	205
22037195	5937	1139	0	-100	0	230	101300000	1000	0	0	-1	205
22049755	5944	1126	0	-100	0	230	101300000	1000	0	0	-1	205
22062315	5950	1117	0	-100	0	230	101300000	1000	0	0	-1	205
22074875	5944	1130	0	-100	0	230	101300000	1000	0	0	-1	205
22087435	5942	1124	0	-100	0	230	101300000	1000	0	0	-1	205
22099995	5941	1130	0	-100	0	230	101300000	1000	0	0	-1	205
22112555	5944	1135	0	-100	0	230	101300000	1000	0	0	-1	205
22125115	5942	1132	0	-100	0	230	101300000	1000	0	0	-1	205
22137675	5945	1137	0	-100	0	230	101300000	1000	0	0	-1	205
22150235	5949	1135	0	-100	0	230	101300000	1000	0	0	-1	205
22162795	5950	1129	0	-100	0	230	101300000	1000	0	0	-1	205
22175355	5949	1129	0	-100	0	230	101300000	1000	0	0	-1	205
22187915	5941	1129	0	-100	0	230	101300000	1000	0	0	-1	205
22200475	5940	1133	0	-100	0	230	101300000	1000	0	0	-1	205
22213035	5943	1127	0	-100	0	230	101300000	1000	0	0	-1	205
22225595	5943	1136	0	-100	0	230	101300000	1000	0	0	-1	205
22238155	5942	1134	0	-100	0	230	101300000	1000	0	0	-1	205
22250715	5942	1129	0	-100	0	230	101300000	1000	0	0	-1	205
22263275	5945	1138	0	-100	0	230	101300000	1000	0	0	-1	205
22275835	5949	1134	0	-100	0	230	101300000	1000	0	0	-1	205
22288395	5949	1132	0	-100	0	230	101300000	1000	0	0	-1	205
22300955	5947	1133	0	-100	0	230	101300000	1000	0	0	-1	205
22313515	5937	1128	0	-100	0	230	101300000	1000	0	0	-1	205
22326075	5941	1129	0	-100	0	230	101300000	1000	0	0	-1	205
22338635	5945	1133	0	-100	0	230	101300000	1000	0	0	-1	205
22351195	5944	1132	0	-100	0	230	101300000	1000	0	0	-1	205
22363755	5944	1136	0	-100	0	230	101300000	1000	0	0	-1	205
22376315	5944	1127	0	-100	0	230	101300000	1000	0	0	-1	205
22388875	5948	1130	0	-100	0	230	101300000	1000	0	0	-1	205
22401435	5948	1137	0	-100	0	230	101300000	1000	0	0	-1	205
22413995	5946	1132	0	-100	0	230	101300000	1000	0	0	-1	205
22426555	5943	1122	0	-100	0	230	101300000	1000	0	0	-1	205
22439115	5939	1128	0	-100	0	230	101300000	1000	0	0	-1	205
22451675	5945	1140	0	-100	0	230	101300000	1000	0	0	-1	205
22464235	5949	1130	0	-100	0	230	101300000	1000	0	0	-1	205
22476795	5944	1130	0	-100	0	230	101300000	1000	0	0	-1	205
22489355	5945	1140	0	-100	0	230	101300000	1000	0	0	-1	205
22501915	5942	1134	0	-100	0	230	101300000	1000	0	0	-1	205
22514475	5940	1131	0	-100	0	230	101300000	1000	0	0	-1	205
22527035	5949	1135	0	-100	0	230	101300000	1000	0	0	-1	205
22539595	5945	1132	0	-100	0	230	101300000	1000	0	0	-1	205
22552155	5945	1131	0	-100	0	230	101300000	1000	0	0	-1	205
22564715	5944	1134	0	-100	0	230	101300000	1000	0	0	-1	205
22577275	5944	1130	0	-100	0	230	101300000	1000	0	0	-1	205
22589835	5942	1132	0	-100	0	230	101300000	1000	0	0	-1	205
22602395	5946	1135	0	-100	0	230	101300000	1000	0	0	-1	205
22614955	5949	1131	0	-100	0	230	101300000	1000	0	0	-1	205
22627515	5948	1124	0	-100	0	230	101300000	1000	0	0	-1	205
22640075	5944	1130	0	-100	0	230	101300000	1000	0	0	-1	205
22652635	5940	1128	0	-100	0	230	101300000	1000	0	0	-1	205
22665195	5944	1134	0	-100	0	230	101300000	1000	0	0	-1	205
22677755	5945	1137	0	-100	0	230	101300000	1000	0	0	-1	205
22690315	5941	1128	0	-100	0	230	101300000	1000	0	0	-1	205
22702875	5945	1134	0	-100	0	230	101300000	1000	0	0	-1	205
22715435	5942	1132	0	-100	0	230	101300000	1000	0	0	-1	205
22727995	5943	1131	0	-100	0	230	101300000	1000	0	0	-1	205
22740555	5946	1123	0	-100	0	230	101300000	1000	0	0	-1	205
22753115	5944	1132	0	-100	0	230	101300000	1000	0	0	-1	205
22765675	5944	1130	0	-100	0	230	101300000	1000	0	0	-1	205
22778235	5944	1130	0	-100	0	230	101300000	1000	0	0	-1	205
22790795	5948	1128	0	-100	0	230	101300000	1000	0	0	-1	205
22803355	5942	1129	0	-100	0	230	101300000	1000	0	0	-1	205
22815915	5944	1120	0	-100	0	230	101300000	1000	0	0	-1	205
22828475	5943	1136	0	-100	0	230	101300000	1000	0	0	-1	205
22841035	5948	1126	0	-100	0	230	101300000	1000	0	0	-1	205
22853595	5941	1126	0	-100	0	230	101300000	1000	0	0	-1	205
22866155	5943	1131	0	-100	0	230	101300000	1000	0	0	-1	205
22878715	5942	1137	0	-100	0	230	101300000	1000	0	0	-1	205
22891275	5950	1136	0	-100	0	230	101300000	1000	0	0	-1	205
22903835	5948	1134	0	-100	0	230	101300000	1000	0	0	-1	205
22916395	5938	1139	0	-100	0	230	101300000	1000	0	0	-1	205
22928955	5944	1130	0	-100	0	230	101300000	1000	0	0	-1	205
22941515	5949	1125	0	-100	0	230	101300000	1000	0	0	-1	205
22954075	5949	1129	0	-100	0	230	101300000	1000	0	0	-1	205
22966635	5943	1128	0	-100	0	230	101300000	1000	0	0	-1	205
22979195	5940	1129	0	-100	0	230	101300000	1000	0	0	-1	205
22991755	5945	1131	0	-100	0	230	101300000	1000	0	0	-1	205
23004315	5949	1135	0	-100	0	230	101300000	1000	0	0	-1	205
23016875	5947	1128	0	-100	0	230	101300000	1000	0	0	-1	205
23029435	5938	1139	0	-100	0	230	101300000	1000	0	0	-1	205
23041995	5944	1127	0	-100	0	230	101300000	1000	0	0	-1	205
23054555	5944	1134	0	-100	0	230	101300000	1000	0	0	-1	205
23067115	5943	1136	0	-100	0	230	101300000	1000	0	0	-1	205
23079675	5948	1132	0	-100	0	230	101300000	1000	0	0	-1	205
23092235	5949	1130	0	-100	0	230	101300000	1000	0	0	-1	205
23104795	5945	1130	0	-100	0	230	101300000	1000	0	0	-1	205
23117355	5946	1125	0	-100	0	230	101300000	1000	0	0	-1	205
23129915	5941	1133	0	-100	0	230	101300000	1000	0	0	-1	205
23142475	5949	1128	0	-100	0	230	101300000	1000	0	0	-1	205
23155035	5942	1128	0	-100	0	230	101300000	1000	0	0	-1	205
23167595	5941	1137	0	-100	0	230	101300000	1000	0	0	-1	205
23180155	5943	1135	0	-100	0	230	101300000	1000	0	0	-1	205
23192715	5944	1137	0	-100	0	230	101300000	1000	0	0	-1	205
23205275	5941	1120	0	-100	0	230	101300000	1000	0	0	-1	205
23217835	5944	1135	0	-100	0	230	101300000	1000	0	0	-1	205
23230395	5945	1132	0	-100	0	230	101300000	1000	0	0	-1	205
23242955	5941	1136	0	-100	0	230	101300000	1000	0	0	-1	205
23255515	5940	1132	0	-100	0	230	101300000	1000	0	0	-1	205
23268075	5949	1136	0	-100	0	230	101300000	1000	0	0	-1	205
23280635	5943	1134	0	-100	0	230	101300000	1000	0	0	-1	205
23293195	5949	1139	0	-100	0	230	101300000	1000	0	0	-1	205
23305755	5941	1130	0	-100	0	230	101300000	1000	0	0	-1	205
23318315	5942	1131	0	-100	0	230	101300000	1000	0	0	-1	205
23330875	5953	1133	0	-100	0	230	101300000	1000	0	0	-1	205
23343435	5942	1129	0	-100	0	230	101300000	1000	0	0	-1	205
23355995	5941	1127	0	-100	0	230	101300000	1000	0	0	-1	205
23368555	5950	1129	0	-100	0	230	101300000	1000	0	0	-1	205
23381115	5941	1130	0	-100	0	230	101300000	1000	0	0	-1	205
23393675	5950	1131	0	-100	0	230	101300000	1000	0	0	-1	205
23406235	5941	1123	0	-100	0	230	101300000	1000	0	0	-1	205
23418795	5941	1127	0	-100	0	230	101300000	1000	0	0	-1	205
23431355	5948	1134	0	-100	0	230	101300000	1000	0	0	-1	205
23443915	5948	1128	0	-100	0	230	101300000	1000	0	0	-1	205
23456475	5943	1126	0	-100	0	230	101300000	1000	0	0	-1	205
23469035	5944	1135	0	-100	0	230	101300000	1000	0	0	-1	205
23481595	5952	1129	0	-100	0	230	101300000	1000	0	0	-1	205
23494155	5941	1134	0	-100	0	230	101300000	1000	0	0	-1	205
23506715	5942	1137	0	-100	0	230	101300000	1000	0	0	-1	205
23519275	5948	1133	0	-100	0	230	101300000	1000	0	0	-1	205
23531835	5942	1128	0	-100	0	230	101300000	1000	0	0	-1	205
23544395	5942	1129	0	-100	0	230	101300000	1000	0	0	-1	205
23556955	5950	1133	0	-100	0	230	101300000	1000	0	0	-1	205
23569515	5945	1127	0	-100	0	230	101300000	1000	0	0	-1	205
23582075	5942	1133	0	-100	0	230	101300000	1000	0	0	-1	205
23594635	5948	1133	0	-100	0	230	101300000	1000	0	0	-1	205
23607195	5945	1130	0	-100	0	230	101300000	1000	0	0	-1	205
23619755	5942	1129	0	-100	0	230	101300000	1000	0	0	-1	205
23632315	5944	1139	0	-100	0	230	101300000	1000	0	0	-1	205
23644875	5946	1126	0	-100	0	230	101300000	1000	0	0	-1	205
23657435	5950	1132	0	-100	0	230	101300000	1000	0	0	-1	205
23669995	5948	1133	0	-100	0	230	101300000	1000	0	0	-1	205
23682555	5945	1127	0	-100	0	230	101300000	1000	0	0	-1	205
23695115	5947	1130	0	-100	0	230	101300000	1000	0	0	-1	205
23707675	5946	1133	0	-100	0	230	101300000	1000	0	0	-1	205
23720235	5947	1126	0	-100	0	230	101300000	1000	0	0	-1	205
23732795	5942	1127	0	-100	0	230	101300000	1000	0	0	-1	205
23745355	5942	1141	0	-100	0	230	101300000	1000	0	0	-1	205
23757915	5942	1141	0	-100	0	230	101300000	1000	0	0	-1	205
23770475	5940	1133	0	-100	0	230	101300000	1000	0	0	-1	205
23783035	5942	1138	0	-100	0	230	101300000	1000	0	0	-1	205
23795595	5944	1135	0	-100	0	230	101300000	1000	0	0	-1	205
23808155	5945	1126	0	-100	0	230	101300000	1000	0	0	-1	205
23820715	5945	1126	0	-100	0	230	101300000	1000	0	0	-1	205
23833275	5939	1136	0	-100	0	230	101300000	1000	0	0	-1	205
23845835	5943	1131	0	-100	0	230	101300000	1000	0	0	-1	205
23858395	5941	1143	0	-100	0	230	101300000	1000	0	0	-1	205
23870955	5941	1134	0	-100	0	230	101300000	1000	0	0	-1	205
23883515	5947	1132	0	-100	0	230	101300000	1000	0	0	-1	205
23896075	5945	1120	0	-100	0	230	101300000	1000	0	0	-1	205
23908635	5943	1138	0	-100	0	230	101300000	1000	0	0	-1	205
23921195	5939	1131	0	-100	0	230	101300000	1000	0	0	-1	205
23933755	5942	1133	0	-100	0	230	101300000	1000	0	0	-1	205
23946315	5944	1131	0	-100	0	230	101300000	1000	0	0	-1	205
23958875	5946	1126	0	-100	0	230	101300000	1000	0	0	-1	205
23971435	5943	1134	0	-100	0	230	101300000	1000	0	0	-1	205
23983995	5949	1137	0	-100	0	230	101300000	1000	0	0	-1	205
23996555	5940	1139	0	-100	0	230	101300000	1000	0	0	-1	205
24009115	5945	1132	0	-100	0	230	101300000	1000	0	0	-1	205
24021675	5946	1130	0	-100	0	230	101300000	1000	0	0	-1	205
24034235	5943	1128	0	-100	0	230	101300000	1000	0	0	-1	205
24046795	5944	1126	0	-100	0	230	101300000	1000	0	0	-1	205
24059355	5945	1133	0	-100	0	230	101300000	1000	0	0	-1	205
24071915	5940	1130	0	-100	0	230	101300000	1000	0	0	-1	205
24084475	5945	1132	0	-100	0	230	101300000	1000	0	0	-1	205
24097035	5944	1127	0	-100	0	230	101300000	1000	0	0	-1	205
24109595	5946	1135	0	-100	0	230	101300000	1000	0	0	-1	205
24122155	5949	1126	0	-100	0	230	101300000	1000	0	0	-1	205
24134715	5948	1138	0	-100	0	230	101300000	1000	0	0	-1	205
24147275	5949	1135	0	-100	0	230	101300000	1000	0	0	-1	205
24159835	5943	1127	0	-100	0	230	101300000	1000	0	0	-1	205
24172395	5939	1133	0	-100	0	230	101300000	1000	0	0	-1	205
24184955	5943	1136	0	-100	0	230	101300000	1000	0	0	-1	205
24197515	5942	1126	0	-100	0	230	101300000	1000	0	0	-1	205
24210075	5939	1135	0	-100	0	230	101300000	1000	0	0	-1	205
24222635	5940	1137	0	-100	0	230	101300000	1000	0	0	-1	205
24235195	5942	1125	0	-100	0	230	101300000	1000	0	0	-1	205
24247755	5942	1131	0	-100	0	230	101300000	1000	0	0	-1	205
24260315	5938	1133	0	-100	0	230	101300000	1000	0	0	-1	205
24272875	5945	1134	0	-100	0	230	101300000	1000	0	0	-1	205
24285435	5945	1136	0	-100	0	230	101300000	1000	0	0	-1	205
24297995	5941	1131	0	-100	0	230	101300000	1000	0	0	-1	205
24310555	5943	1133	0	-100	0	230	101300000	1000	0	0	-1	205
24323115	5945	1132	0	-100	0	230	101300000	1000	0	0	-1	205
24335675	5945	1130	0	-100	0	230	101300000	1000	0	0	-1	205
24348235	5951	1130	0	-100	0	230	101300000	1000	0	0	-1	205
24360795	5944	1126	0	-100	0	230	101300000	1000	0	0	-1	205
24373355	5941	1130	0	-100	0	230	101300000	1000	0	0	-1	205
24385915	5941	1130	0	-100	0	230	101300000	1000	0	0	-1	205
24398475	5942	1134	0	-100	0	230	101300000	1000	0	0	-1	205
24411035	5944	1129	0	-100	0	230	101300000	1000	0	0	-1	205
24423595	5940	1132	0	-100	0	230	101300000	1000	0	0	-1	205
24436155	5946	1127	0	-100	0	230	101300000	1000	0	0	-1	205
24448715	5950	1138	0	-100	0	230	101300000	1000	0	0	-1	205
24461275	5947	1129	0	-100	0	230	101300000	1000	0	0	-1	205
24473835	5944	1127	0	-100	0	230	101300000	1000	0	0	-1	205
24486395	5943	1128	0	-100	0	230	101300000	1000	0	0	-1	205
24498955	5941	1140	0	-100	0	230	101300000	1000	0	0	-1	205
24511515	5946	1133	0	-100	0	230	101300000	1000	0	0	-1	205
24524075	5946	1130	0	-100	0	230	101300000	1000	0	0	-1	205
24536635	5950	1136	0	-100	0	230	101300000	1000	0	0	-1	205
24549195	5948	1135	0	-100	0	230	101300000	1000	0	0	-1	205
24561755	5939	1127	0	-100	0	230	101300000	1000	0	0	-1	205
24574315	5938	1131	0	-100	0	230	101300000	1000	0	0	-1	205
24586875	5948	1132	0	-100	0	230	101300000	1000	0	0	-1	205
24599435	5945	1136	0	-100	0	230	101300000	1000	0	0	-1	205
24611995	5944	1133	0	-100	0	230	101300000	1000	0	0	-1	205
24624555	5947	1124	0	-100	0	230	101300000	1000	0	0	-1	205
24637115	5945	1129	0	-100	0	230	101300000	1000	0	0	-1	205
24649675	5942	1136	0	-100	0	230	101300000	1000	0	0	-1	205
24662235	5945	1136	0	-100	0	230	101300000	1000	0	0	-1	205
24674795	5952	1139	0	-100	0	230	101300000	1000	0	0	-1	205
24687355	5942	1132	0	-100	0	230	101300000	1000	0	0	-1	205
24699915	5939	1131	0	-100	0	230	101300000	1000	0	0	-1	205
24712475	5949	1130	0	-100	0	230	101300000	1000	0	0	-1	205
24725035	5945	1130	0	-100	0	230	101300000	1000	0	0	-1	205
24737595	5943	1134	0	-100	0	230	101300000	1000	0	0	-1	205
24750155	5948	1131	0	-100	0	230	101300000	1000	0	0	-1	205
24762715	5945	1126	0	-100	0	230	101300000	1000	0	0	-1	205
24775275	5940	1132	0	-100	0	230	101300000	1000	0	0	-1	205
24787835	5942	1131	0	-100	0	230	101300000	1000	0	0	-1	205
24800395	5947	1132	0	-100	0	230	101300000	1000	0	0	-1	205
24812955	5941	1126	0	-100	0	230	101300000	1000	0	0	-1	205
24825515	5942	1128	0	-100	0	230	101300000	1000	0	0	-1	205
24838075	5946	1131	0	-100	0	230	101300000	1000	0	0	-1	205
24850635	5941	1135	0	-100	0	230	101300000	1000	0	0	-1	205
24863195	5938	1136	0	-100	0	230	101300000	1000	0	0	-1	205
24875755	5950	1128	0	-100	0	230	101300000	1000	0	0	-1	205
24888315	5943	1133	0	-100	0	230	101300000	1000	0	0	-1	205
24900875	5945	1131	0	-100	0	230	101300000	1000	0	0	-1	205
24913435	5944	1135	0	-100	0	230	101300000	1000	0	0	-1	205
24925995	5942	1138	0	-100	0	230	101300000	1000	0	0	-1	205
24938555	5946	1126	0	-100	0	230	101300000	1000	0	0	-1	205
24951115	5945	1137	0	-100	0	230	101300000	1000	0	0	-1	205
24963675	5937	1126	0	-100	0	230	101300000	1000	0	0	-1	205
24976235	5943	1134	0	-100	0	230	101300000	1000	0	0	-1	205
24988795	5946	1128	0	-100	0	230	101300000	1000	0	0	-1	205
25001355	5950	1129	0	-100	0	230	101300000	1000	0	0	-1	205
25013915	5945	1126	0	-100	0	230	101300000	1000	0	0	-1	205
25026475	5949	1129	0	-100	0	230	101300000	1000	0	0	-1	205
25039035	5941	1131	0	-100	0	230	101300000	1000	0	0	-1	205
25051595	5940	1137	0	-100	0	230	101300000	1000	0	0	-1	205
25064155	5941	1131	0	-100	0	230	101300000	1000	0	0	-1	205
25076715	5941	1136	0	-100	0	230	101300000	1000	0	0	-1	205
25089275	5942	1133	0	-100	0	230	101300000	1000	0	0	-1	205
25101835	5946	1130	0	-100	0	230	101300000	1000	0	0	-1	205
25114395	5946	1132	0	-100	0	230	101300000	1000	0	0	-1	205
25126955	5942	1133	0	-100	0	230	101300000	1000	0	0	-1	205
25139515	5942	1132	0	-100	0	230	101300000	1000	0	0	-1	205
25152075	5945	1133	0	-100	0	230	101300000	1000	0	0	-1	205
25164635	5947	1132	0	-100	0	230	101300000	1000	0	0	-1	205
25177195	5941	1130	0	-100	0	230	101300000	1000	0	0	-1	205
25189755	5944	1137	0	-100	0	230	101300000	1000	0	0	-1	205
25202315	5944	1143	0	-100	0	230	101300000	1000	0	0	-1	205
25214875	5944	1128	0	-100	0	230	101300000	1000	0	0	-1	205
25227435	5952	1133	0	-100	0	230	101300000	1000	0	0	-1	205
25239995	5945	1136	0	-100	0	230	101300000	1000	0	0	-1	205
25252555	5945	1132	0	-100	0	230	101300000	1000	0	0	-1	205
25265115	5942	1137	0	-100	0	230	101300000	1000	0	0	-1	205
25277675	5944	1130	0	-100	0	230	101300000	1000	0	0	-1	205
25290235	5949	1133	0	-100	0	230	101300000	1000	0	0	-1	205
25302795	5947	1129	0	-100	0	230	101300000	1000	0	0	-1	205
25315355	5942	1131	0	-100	0	230	101300000	1000	0	0	-1	205
25327915	5938	1134	0	-100	0	230	101300000	1000	0	0	-1	205
25340475	5946	1130	0	-100	0	230	101300000	1000	0	0	-1	205
25353035	5943	1127	0	-100	0	230	101300000	1000	0	0	-1	205
25365595	5943	1133	0	-100	0	230	101300000	1000	0	0	-1	205
25378155	5942	1136	0	-100	0	230	101300000	1000	0	0	-1	205
25390715	5945	1130	0	-100	0	230	101300000	1000	0	0	-1	205
25403275	5949	1133	0	-100	0	230	101300000	1000	0	0	-1	205
25415835	5949	1122	0	-100	0	230	101300000	1000	0	0	-1	205
25428395	5945	1124	0	-100	0	230	101300000	1000	0	0	-1	205
25440955	5943	1131	0	-100	0	230	101300000	1000	0	0	-1	205
25453515	5940	1137	0	-100	0	230	101300000	1000	0	0	-1	205
25466075	5942	1133	0	-100	0	230	101300000	1000	0	0	-1	205
25478635	5944	1132	0	-100	0	230	101300000	1000	0	0	-1	205
25491195	5943	1137	0	-100	0	230	101300000	1000	0	0	-1	205
25503755	5948	1130	0	-100	0	230	101300000	1000	0	0	-1	205
25516315	5945	1129	0	-100	0	230	101300000	1000	0	0	-1	205
25528875	5941	1131	0	-100	0	230	101300000	1000	0	0	-1	205
25541435	5945	1136	0	-100	0	230	101300000	1000	0	0	-1	205
25553995	5945	1129	0	-100	0	230	101300000	1000	0	0	-1	205
25566555	5948	1125	0	-100	0	230	101300000	1000	0	0	-1	205
25579115	5945	1125	0	-100	0	230	101300000	1000	0	0	-1	205
25591675	5938	1133	0	-100	0	230	101300000	1000	0	0	-1	205
25604235	5944	1134	0	-100	0	230	101300000	1000	0	0	-1	205
25616795	5941	1139	0	-100	0	230	101300000	1000	0	0	-1	205
25629355	5946	1128	0	-100	0	230	101300000	1000	0	0	-1	205
25641915	5950	1139	0	-100	0	230	101300000	1000	0	0	-1	205
25654475	5949	1134	0	-100	0	230	101300000	1000	0	0	-1	205
25667035	5945	1133	0	-100	0	230	101300000	1000	0	0	-1	205
25679595	5941	1134	0	-100	0	230	101300000	1000	0	0	-1	205
25692155	5941	1134	0	-100	0	230	101300000	1000	0	0	-1	205
25704715	5938	1130	0	-100	0	230	101300000	1000	0	0	-1	205
25717275	5946	1135	0	-100	0	230	101300000	1000	0	0	-1	205
25729835	5949	1128	0	-100	0	230	101300000	1000	0	0	-1	205
25742395	5946	1129	0	-100	0	230	101300000	1000	0	0	-1	205
25754955	5935	1133	0	-100	0	230	101300000	1000	0	0	-1	205
25767515	5942	1141	0	-100	0	230	101300000	1000	0	0	-1	205
25780075	5953	1139	0	-100	0	230	101300000	1000	0	0	-1	205
25792635	5947	1129	0	-100	0	230	101300000	1000	0	0	-1	205
25805195	5942	1133	0	-100	0	230	101300000	1000	0	0	-1	205
25817755	5945	1132	0	-100	0	230	101300000	1000	0	0	-1	205
25830315	5941	1137	0	-100	0	230	101300000	1000	0	0	-1	205
25842875	5943	1124	0	-100	0	230	101300000	1000	0	0	-1	205
25855435	5945	1131	0	-100	0	230	101300000	1000	0	0	-1	205
25867995	5942	1137	0	-100	0	230	101300000	1000	0	0	-1	205
25880555	5942	1133	0	-100	0	230	101300000	1000	0	0	-1	205
25893115	5948	1126	0	-100	0	230	101300000	1000	0	0	-1	205
25905675	5938	1132	0	-100	0	230	101300000	1000	0	0	-1	205
25918235	5942	1131	0	-100	0	230	101300000	1000	0	0	-1	205
25930795	5945	1133	0	-100	0	230	101300000	1000	0	0	-1	205
25943355	5940	1132	0	-100	0	230	101300000	1000	0	0	-1	205
25955915	5943	1131	0	-100	0	230	101300000	1000	0	0	-1	205
25968475	5943	1133	0	-100	0	230	101300000	1000	0	0	-1	205
25981035	5942	1133	0	-100	0	230	101300000	1000	0	0	-1	205
25993595	5950	1134	0	-100	0	230	101300000	1000	0	0	-1	205
26006155	5941	1135	0	-100	0	230	101300000	1000	0	0	-1	205
26018715	5944	1124	0	-100	0	230	101300000	1000	0	0	-1	205
26031275	5948	1133	0	-100	0	230	101300000	1000	0	0	-1	205
26043835	5943	1128	0	-100	0	230	101300000	1000	0	0	-1	205
26056395	5949	1130	0	-100	0	230	101300000	1000	0	0	-1	205
26068955	5945	1126	0	-100	0	230	101300000	1000	0	0	-1	205
26081515	5949	1130	0	-100	0	230	101300000	1000	0	0	-1	205
26094075	5945	1135	0	-100	0	230	101300000	1000	0	0	-1	205
26106635	5942	1133	0	-100	0	230	101300000	1000	0	0	-1	205
26119195	5945	1127	0	-100	0	230	101300000	1000	0	0	-1	205
26131755	5941	1138	0	-100	0	230	101300000	1000	0	0	-1	205
26144315	5939	1138	0	-100	0	230	101300000	1000	0	0	-1	205
26156875	5946	1130	0	-100	0	230	101300000	1000	0	0	-1	205
26169435	5941	1136	0	-100	0	230	101300000	1000	0	0	-1	205
26181995	5941	1126	0	-100	0	230	101300000	1000	0	0	-1	205
26194555	5952	1129	0	-100	0	230	101300000	1000	0	0	-1	205
26207115	5946	1138	0	-100	0	230	101300000	1000	0	0	-1	205
26219675	5944	1133	0	-100	0	230	101300000	1000	0	0	-1	205
26232235	5942	1128	0	-100	0	230	101300000	1000	0	0	-1	205
26244795	5948	1131	0	-100	0	230	101300000	1000	0	0	-1	205
26257355	5941	1133	0	-100	0	230	101300000	1000	0	0	-1	205
26269915	5944	1135	0	-100	0	230	101300000	1000	0	0	-1	205
26282475	5949	1136	0	-100	0	230	101300000	1000	0	0	-1	205
26295035	5945	1127	0	-100	0	230	101300000	1000	0	0	-1	205
26307595	5946	1135	0	-100	0	230	101300000	1000	0	0	-1	205
26320155	5942	1139	0	-100	0	230	101300000	1000	0	0	-1	205
26332715	5950	1127	0	-100	0	230	101300000	1000	0	0	-1	205
26345275	5945	1136	0	-100	0	230	101300000	1000	0	0	-1	205
26357835	5945	1131	0	-100	0	230	101300000	1000	0	0	-1	205
26370395	5945	1136	0	-100	0	230	101300000	1000	0	0	-1	205
26382955	5942	1136	0	-100	0	230	101300000	1000	0	0	-1	205
26395515	5947	1128	0	-100	0	230	101300000	1000	0	0	-1	205
26408075	5948	1132	0	-100	0	230	101300000	1000	0	0	-1	205
26420635	5942	1129	0	-100	0	230	101300000	1000	0	0	-1	205
26433195	5942	1133	0	-100	0	230	101300000	1000	0	0	-1	205
26445755	5942	1138	0	-100	0	230	101300000	1000	0	0	-1	205
26458315	5946	1122	0	-100	0	230	101300000	1000	0	0	-1	205
26470875	5942	1135	0	-100	0	230	101300000	1000	0	0	-1	205
26483435	5944	1135	0	-100	0	230	101300000	1000	0	0	-1	205
26495995	5949	1135	0	-100	0	230	101300000	1000	0	0	-1	205
26508555	5945	1126	0	-100	0	230	101300000	1000	0	0	-1	205
26521115	5943	1127	0	-100	0	230	101300000	1000	0	0	-1	205
26533675	5942	1136	0	-100	0	230	101300000	1000	0	0	-1	205
26546235	5945	1126	0	-100	0	230	101300000	1000	0	0	-1	205
26558795	5941	1127	0	-100	0	230	101300000	1000	0	0	-1	205
26571355	5943	1132	0	-100	0	230	101300000	1000	0	0	-1	205
26583915	5942	1136	0	-100	0	230	101300000	1000	0	0	-1	205
26596475	5948	1127	0	-100	0	230	101300000	1000	0	0	-1	205
26609035	5937	1135	0	-100	0	230	101300000	1000	0	0	-1	205
26621595	5941	1136	0	-100	0	230	101300000	1000	0	0	-1	205
26634155	5949	1137	0	-100	0	230	101300000	1000	0	0	-1	205
26646715	5942	1140	0	-100	0	230	101300000	1000	0	0	-1	205
26659275	5940	1136	0	-100	0	230	101300000	1000	0	0	-1	205
26671835	5942	1141	0	-100	0	230	101300000	1000	0	0	-1	205
26684395	5953	1139	0	-100	0	230	101300000	1000	0	0	-1	205
26696955	5945	1127	0	-100	0	230	101300000	1000	0	0	-1	205
26709515	5942	1132	0	-100	0	230	101300000	1000	0	0	-1	205
26722075	5941	1131	0	-100	0	230	101300000	1000	0	0	-1	205
26734635	5945	1137	0	-100	0	230	101300000	1000	0	0	-1	205
26747195	5942	1133	0	-100	0	230	101300000	1000	0	0	-1	205
26759755	5943	1133	0	-100	0	230	101300000	1000	0	0	-1	205
26772315	5942	1137	0	-100	0	230	101300000	1000	0	0	-1	205
26784875	5946	1128	0	-100	0	230	101300000	1000	0	0	-1	205
26797435	5952	1130	0	-100	0	230	101300000	1000	0	0	-1	205
26809995	5948	1134	0	-100	0	230	101300000	1000	0	0	-1	205
26822555	5949	1125	0	-100	0	230	101300000	1000	0	0	-1	205
26835115	5940	1132	0	-100	0	230	101300000	1000	0	0	-1	205
26847675	5949	1130	0	-100	0	230	101300000	1000	0	0	-1	205
26860235	5949	1137	0	-100	0	230	101300000	1000	0	0	-1	205
26872795	5943	1126	0	-100	0	230	101300000	1000	0	0	-1	205
26885355	5939	1129	0	-100	0	230	101300000	1000	0	0	-1	205
26897915	5945	1135	0	-100	0	230	101300000	1000	0	0	-1	205
26910475	5942	1133	0	-100	0	230	101300000	1000	0	0	-1	205
26923035	5951	1132	0	-100	0	230	101300000	1000	0	0	-1	205
26935595	5946	1134	0	-100	0	230	101300000	1000	0	0	-1	205
26948155	5947	1129	0	-100	0	230	101300000	1000	0	0	-1	205
26960715	5941	1132	0	-100	0	230	101300000	1000	0	0	-1	205
26973275	5943	1134	0	-100	0	230	101300000	1000	0	0	-1	205
26985835	5941	1130	0	-100	0	230	101300000	1000	0	0	-1	205
26998395	5945	1133	0	-100	0	230	101300000	1000	0	0	-1	205
27010955	5945	1126	0	-100	0	230	101300000	1000	0	0	-1	205
27023515	5947	1138	0	-100	0	230	101300000	1000	0	0	-1	205
27036075	5944	1125	0	-100	0	230	101300000	1000	0	0	-1	205
27048635	5944	1137	0	-100	0	230	101300000	1000	0	0	-1	205
