timestamp	voltage	current	windSpeed	pitchAngle	rpm	temperature	ambientPressure	humidity	accelerationX	accelerationY	accelerationZ	currentSink
7041070	6013	854	0	-100	0	230	101300000	1000	0	0	-1	0
7048523	6014	862	0	-100	0	230	101300000	1000	0	0	-1	0
7061083	6016	857	0	-100	0	230	101300000	1000	0	0	-1	0
7073643	6008	861	0	-100	0	230	101300000	1000	0	0	-1	0
7086203	6015	860	0	-100	0	230	101300000	1000	0	0	-1	0
7098763	6010	859	0	-100	0	230	101300000	1000	0	0	-1	0
7111323	6014	855	0	-100	0	230	101300000	1000	0	0	-1	0
7123883	6011	862	0	-100	0	230	101300000	1000	0	0	-1	0
7136443	6011	863	0	-100	0	230	101300000	1000	0	0	-1	0
7149004	6014	854	0	-100	0	230	101300000	1000	0	0	-1	0
7161563	6011	858	0	-100	0	230	101300000	1000	0	0	-1	0
7174123	6013	858	0	-100	0	230	101300000	1000	0	0	-1	0
7186683	6012	864	0	-100	0	230	101300000	1000	0	0	-1	0
7199243	6012	853	0	-100	0	230	101300000	1000	0	0	-1	0
7211803	6008	855	0	-100	0	230	101300000	1000	0	0	-1	0
7224363	6006	846	0	-100	0	230	101300000	1000	0	0	-1	0
7236923	6005	851	0	-100	0	230	101300000	1000	0	0	-1	0
7249483	6008	864	0	-100	0	230	101300000	1000	0	0	-1	0
7262043	6013	859	0	-100	0	230	101300000	1000	0	0	-1	0
7274603	6010	852	0	-100	0	230	101300000	1000	0	0	-1	0
7287163	6017	851	0	-100	0	230	101300000	1000	0	0	-1	0
7299723	6012	851	0	-100	0	230	101300000	1000	0	0	-1	0
7312283	6011	852	0	-100	0	230	101300000	1000	0	0	-1	0
7324843	6015	849	0	-100	0	230	101300000	1000	0	0	-1	0
7337403	6014	851	0	-100	0	230	101300000	1000	0	0	-1	0
7349963	6014	852	0	-100	0	230	101300000	1000	0	0	-1	0
7708235	5939	1126	0	-100	0	230	101300000	1000	0	0	-1	206
7720795	5936	1134	0	-100	0	230	101300000	1000	0	0	-1	206
7733355	5938	1127	0	-100	0	230	101300000	1000	0	0	-1	206
7745915	5934	1139	0	-100	0	230	101300000	1000	0	0	-1	206
7758475	5931	1133	0	-100	0	230	101300000	1000	0	0	-1	206
7771035	5931	1131	0	-100	0	230	101300000	1000	0	0	-1	206
7783595	5933	1139	0	-100	0	230	101300000	1000	0	0	-1	206
7796155	5945	1144	0	-100	0	230	101300000	1000	0	0	-1	206
7808715	5937	1137	0	-100	0	230	101300000	1000	0	0	-1	206
7821275	5937	1137	0	-100	0	230	101300000	1000	0	0	-1	206
7833835	5945	1135	0	-100	0	230	101300000	1000	0	0	-1	206
7858955	5941	1133	0	-100	0	230	101300000	1000	0	0	-1	206
7871515	5935	1138	0	-100	0	230	101300000	1000	0	0	-1	206
7884075	5935	1130	0	-100	0	230	101300000	1000	0	0	-1	206
7896635	5928	1136	0	-100	0	230	101300000	1000	0	0	-1	206
7909195	5936	1140	0	-100	0	230	101300000	1000	0	0	-1	206
7921755	5934	1136	0	-100	0	230	101300000	1000	0	0	-1	206
7934315	5937	1134	0	-100	0	230	101300000	1000	0	0	-1	206
7946875	5941	1128	0	-100	0	230	101300000	1000	0	0	-1	206
7959435	5941	1129	0	-100	0	230	101300000	1000	0	0	-1	206
7971995	5938	1138	0	-100	0	230	101300000	1000	0	0	-1	206
7984555	5932	1132	0	-100	0	230	101300000	1000	0	0	-1	206
7997115	5934	1137	0	-100	0	230	101300000	1000	0	0	-1	206
8022235	5936	1137	0	-100	0	230	101300000	1000	0	0	-1	206
8034795	5933	1134	0	-100	0	230	101300000	1000	0	0	-1	206
8047355	5936	1131	0	-100	0	230	101300000	1000	0	0	-1	206
8059915	5942	1130	0	-100	0	230	101300000	1000	0	0	-1	206
8072475	5941	1125	0	-100	0	230	101300000	1000	0	0	-1	206
8085035	5932	1139	0	-100	0	230	101300000	1000	0	0	-1	206
8097595	5932	1136	0	-100	0	230	101300000	1000	0	0	-1	206
8110155	5944	1138	0	-100	0	230	101300000	1000	0	0	-1	206
8122715	5940	1141	0	-100	0	230	101300000	1000	0	0	-1	206
8135275	5941	1140	0	-100	0	230	101300000	1000	0	0	-1	206
8147835	5936	1130	0	-100	0	230	101300000	1000	0	0	-1	206
8160395	5934	1130	0	-100	0	230	101300000	1000	0	0	-1	206
8172955	5941	1136	0	-100	0	230	101300000	1000	0	0	-1	206
8185515	5933	1137	0	-100	0	230	101300000	1000	0	0	-1	206
8198075	5937	1132	0	-100	0	230	101300000	1000	0	0	-1	206
8210635	5941	1137	0	-100	0	230	101300000	1000	0	0	-1	206
8223195	5932	1127	0	-100	0	230	101300000	1000	0	0	-1	206
8235755	5932	1132	0	-100	0	230	101300000	1000	0	0	-1	206
8248315	5939	1126	0	-100	0	230	101300000	1000	0	0	-1	206
8260875	5940	1133	0	-100	0	230	101300000	1000	0	0	-1	206
8273435	5935	1128	0	-100	0	230	101300000	1000	0	0	-1	206
8285995	5936	1133	0	-100	0	230	101300000	1000	0	0	-1	206
8298555	5931	1135	0	-100	0	230	101300000	1000	0	0	-1	206
8311115	5932	1132	0	-100	0	230	101300000	1000	0	0	-1	206
8323675	5934	1128	0	-100	0	230	101300000	1000	0	0	-1	206
8336235	5941	1138	0	-100	0	230	101300000	1000	0	0	-1	206
8348795	5932	1125	0	-100	0	230	101300000	1000	0	0	-1	206
8361355	5935	1131	0	-100	0	230	101300000	1000	0	0	-1	206
8373915	5934	1130	0	-100	0	230	101300000	1000	0	0	-1	206
8386475	5936	1133	0	-100	0	230	101300000	1000	0	0	-1	206
8399035	5938	1128	0	-100	0	230	101300000	1000	0	0	-1	206
8411595	5936	1134	0	-100	0	230	101300000	1000	0	0	-1	206
8424155	5939	1130	0	-100	0	230	101300000	1000	0	0	-1	206
8436715	5934	1138	0	-100	0	230	101300000	1000	0	0	-1	206
8449275	5937	1136	0	-100	0	230	101300000	1000	0	0	-1	206
8461835	5942	1129	0	-100	0	230	101300000	1000	0	0	-1	206
8474395	5937	1132	0	-100	0	230	101300000	1000	0	0	-1	206
8486955	5932	1132	0	-100	0	230	101300000	1000	0	0	-1	206
8499515	5934	1134	0	-100	0	230	101300000	1000	0	0	-1	206
8512075	5936	1121	0	-100	0	230	101300000	1000	0	0	-1	206
8524635	5934	1138	0	-100	0	230	101300000	1000	0	0	-1	206
8537195	5941	1126	0	-100	0	230	101300000	1000	0	0	-1	206
8549755	5935	1132	0	-100	0	230	101300000	1000	0	0	-1	206
8562315	5939	1125	0	-100	0	230	101300000	1000	0	0	-1	206
8574875	5934	1138	0	-100	0	230	101300000	1000	0	0	-1	206
8587435	5942	1135	0	-100	0	230	101300000	1000	0	0	-1	206
8599995	5941	1146	0	-100	0	230	101300000	1000	0	0	-1	206
8612555	5938	1136	0	-100	0	230	101300000	1000	0	0	-1	206
8625115	5937	1137	0	-100	0	230	101300000	1000	0	0	-1	206
8637675	5938	1133	0	-100	0	230	101300000	1000	0	0	-1	206
8650235	5939	1134	0	-100	0	230	101300000	1000	0	0	-1	206
8662795	5934	1127	0	-100	0	230	101300000	1000	0	0	-1	206
8675355	5936	1135	0	-100	0	230	101300000	1000	0	0	-1	206
8687915	5940	1134	0	-100	0	230	101300000	1000	0	0	-1	206
8700475	5938	1133	0	-100	0	230	101300000	1000	0	0	-1	206
8713035	5935	1125	0	-100	0	230	101300000	1000	0	0	-1	206
8725595	5934	1136	0	-100	0	230	101300000	1000	0	0	-1	206
8738155	5943	1137	0	-100	0	230	101300000	1000	0	0	-1	206
8750715	5943	1136	0	-100	0	230	101300000	1000	0	0	-1	206
8763275	5941	1131	0	-100	0	230	101300000	1000	0	0	-1	206
8775835	5935	1133	0	-100	0	230	101300000	1000	0	0	-1	206
8788395	5936	1135	0	-100	0	230	101300000	1000	0	0	-1	206
8800955	5933	1134	0	-100	0	230	101300000	1000	0	0	-1	206
8813515	5930	1135	0	-100	0	230	101300000	1000	0	0	-1	206
8826075	5936	1136	0	-100	0	230	101300000	1000	0	0	-1	206
8838635	5936	1132	0	-100	0	230	101300000	1000	0	0	-1	206
8851195	5936	1138	0	-100	0	230	101300000	1000	0	0	-1	206
8863755	5941	1132	0	-100	0	230	101300000	1000	0	0	-1	206
8876315	5941	1126	0	-100	0	230	101300000	1000	0	0	-1	206
8888875	5939	1134	0	-100	0	230	101300000	1000	0	0	-1	206
8901435	5936	1130	0	-100	0	230	101300000	1000	0	0	-1	206
8913995	5937	1126	0	-100	0	230	101300000	1000	0	0	-1	206
8926555	5943	1137	0	-100	0	230	101300000	1000	0	0	-1	206
8939115	5940	1132	0	-100	0	230	101300000	1000	0	0	-1	206
8951675	5938	1135	0	-100	0	230	101300000	1000	0	0	-1	206
8964235	5942	1131	0	-100	0	230	101300000	1000	0	0	-1	206
8976795	5944	1133	0	-100	0	230	101300000	1000	0	0	-1	206
8989355	5941	1135	0	-100	0	230	101300000	1000	0	0	-1	206
9001915	5939	1131	0	-100	0	230	101300000	1000	0	0	-1	206
9014475	5936	1137	0	-100	0	230	101300000	1000	0	0	-1	206
9027035	5940	1131	0	-100	0	230	101300000	1000	0	0	-1	206
9039595	5937	1129	0	-100	0	230	101300000	1000	0	0	-1	206
9052155	5941	1128	0	-100	0	230	101300000	1000	0	0	-1	206
9064715	5934	1132	0	-100	0	230	101300000	1000	0	0	-1	206
9077275	5937	1137	0	-100	0	230	101300000	1000	0	0	-1	206
9089835	5933	1133	0	-100	0	230	101300000	1000	0	0	-1	206
9102395	5936	1128	0	-100	0	230	101300000	1000	0	0	-1	206
9114955	5942	1135	0	-100	0	230	101300000	1000	0	0	-1	206
9127515	5941	1133	0	-100	0	230	101300000	1000	0	0	-1	206
9140075	5943	1135	0	-100	0	230	101300000	1000	0	0	-1	206
9152635	5943	1126	0	-100	0	230	101300000	1000	0	0	-1	206
9165195	5939	1120	0	-100	0	230	101300000	1000	0	0	-1	206
9177755	5937	1132	0	-100	0	230	101300000	1000	0	0	-1	206
9190315	5931	1133	0	-100	0	230	101300000	1000	0	0	-1	206
9202875	5936	1134	0	-100	0	230	101300000	1000	0	0	-1	206
9215435	5933	1127	0	-100	0	230	101300000	1000	0	0	-1	206
9227995	5938	1139	0	-100	0	230	101300000	1000	0	0	-1	206
9240555	5940	1129	0	-100	0	230	101300000	1000	0	0	-1	206
9253115	5941	1133	0	-100	0	230	101300000	1000	0	0	-1	206
9265675	5936	1128	0	-100	0	230	101300000	1000	0	0	-1	206
9278235	5934	1130	0	-100	0	230	101300000	1000	0	0	-1	206
9290795	5935	1129	0	-100	0	230	101300000	1000	0	0	-1	206
9303355	5936	1136	0	-100	0	230	101300000	1000	0	0	-1	206
9315915	5935	1131	0	-100	0	230	101300000	1000	0	0	-1	206
9328475	5941	1135	0	-100	0	230	101300000	1000	0	0	-1	206
9341035	5938	1127	0	-100	0	230	101300000	1000	0	0	-1	206
9353595	5938	1130	0	-100	0	230	101300000	1000	0	0	-1	206
9366155	5941	1136	0	-100	0	230	101300000	1000	0	0	-1	206
9378715	5936	1134	0	-100	0	230	101300000	1000	0	0	-1	206
9391275	5934	1138	0	-100	0	230	101300000	1000	0	0	-1	206
9403835	5943	1137	0	-100	0	230	101300000	1000	0	0	-1	206
9416395	5943	1138	0	-100	0	230	101300000	1000	0	0	-1	206
9428955	5941	1134	0	-100	0	230	101300000	1000	0	0	-1	206
9441515	5936	1128	0	-100	0	230	101300000	1000	0	0	-1	206
9454075	5936	1136	0	-100	0	230	101300000	1000	0	0	-1	206
9466635	5937	1136	0	-100	0	230	101300000	1000	0	0	-1	206
9479195	5939	1136	0	-100	0	230	101300000	1000	0	0	-1	206
9491755	5934	1130	0	-100	0	230	101300000	1000	0	0	-1	206
9504315	5945	1130	0	-100	0	230	101300000	1000	0	0	-1	206
9516875	5941	1134	0	-100	0	230	101300000	1000	0	0	-1	206
9529435	5943	1138	0	-100	0	230	101300000	1000	0	0	-1	206
9541995	5937	1136	0	-100	0	230	101300000	1000	0	0	-1	206
9554555	5936	1135	0	-100	0	230	101300000	1000	0	0	-1	206
9567115	5930	1124	0	-100	0	230	101300000	1000	0	0	-1	206
9579675	5933	1124	0	-100	0	230	101300000	1000	0	0	-1	206
9592235	5932	1129	0	-100	0	230	101300000	1000	0	0	-1	206
9604795	5936	1133	0	-100	0	230	101300000	1000	0	0	-1	206
9617355	5938	1132	0	-100	0	230	101300000	1000	0	0	-1	206
9629915	5939	1139	0	-100	0	230	101300000	1000	0	0	-1	206
9642475	5936	1130	0	-100	0	230	101300000	1000	0	0	-1	206
9655035	5936	1137	0	-100	0	230	101300000	1000	0	0	-1	206
9667595	5941	1138	0	-100	0	230	101300000	1000	0	0	-1	206
9680155	5948	1130	0	-100	0	230	101300000	1000	0	0	-1	206
9692715	5939	1128	0	-100	0	230	101300000	1000	0	0	-1	206
9705275	5936	1130	0	-100	0	230	101300000	1000	0	0	-1	206
9717835	5936	1132	0	-100	0	230	101300000	1000	0	0	-1	206
9730395	5934	1134	0	-100	0	230	101300000	1000	0	0	-1	206
9742955	5940	1134	0	-100	0	230	101300000	1000	0	0	-1	206
9755515	5940	1130	0	-100	0	230	101300000	1000	0	0	-1	206
9768075	5941	1138	0	-100	0	230	101300000	1000	0	0	-1	206
9780635	5939	1134	0	-100	0	230	101300000	1000	0	0	-1	206
9793195	5931	1139	0	-100	0	230	101300000	1000	0	0	-1	206
9805755	5935	1130	0	-100	0	230	101300000	1000	0	0	-1	206
9818315	5933	1131	0	-100	0	230	101300000	1000	0	0	-1	206
9830875	5934	1139	0	-100	0	230	101300000	1000	0	0	-1	206
9843435	5934	1143	0	-100	0	230	101300000	1000	0	0	-1	206
9855995	5935	1136	0	-100	0	230	101300000	1000	0	0	-1	206
9868555	5933	1135	0	-100	0	230	101300000	1000	0	0	-1	206
9881115	5936	1130	0	-100	0	230	101300000	1000	0	0	-1	206
9893675	5934	1138	0	-100	0	230	101300000	1000	0	0	-1	206
9906235	5937	1140	0	-100	0	230	101300000	1000	0	0	-1	206
9918795	5936	1134	0	-100	0	230	101300000	1000	0	0	-1	206
9931355	5937	1137	0	-100	0	230	101300000	1000	0	0	-1	206
9943915	5936	1131	0	-100	0	230	101300000	1000	0	0	-1	206
9956475	5936	1132	0	-100	0	230	101300000	1000	0	0	-1	206
9969035	5938	1136	0	-100	0	230	101300000	1000	0	0	-1	206
9981595	5938	1132	0	-100	0	230	101300000	1000	0	0	-1	206
9994155	5945	1137	0	-100	0	230	101300000	1000	0	0	-1	206
10006715	5934	1136	0	-100	0	230	101300000	1000	0	0	-1	206
10019275	5935	1137	0	-100	0	230	101300000	1000	0	0	-1	206
10031835	5941	1131	0	-100	0	230	101300000	1000	0	0	-1	206
10044395	5942	1142	0	-100	0	230	101300000	1000	0	0	-1	206
10056955	5939	1128	0	-100	0	230	101300000	1000	0	0	-1	206
10069515	5934	1137	0	-100	0	230	101300000	1000	0	0	-1	206
10082075	5933	1132	0	-100	0	230	101300000	1000	0	0	-1	206
10094635	5934	1135	0	-100	0	230	101300000	1000	0	0	-1	206
10107195	5933	1142	0	-100	0	230	101300000	1000	0	0	-1	206
10119755	5937	1133	0	-100	0	230	101300000	1000	0	0	-1	206
10132315	5936	1140	0	-100	0	230	101300000	1000	0	0	-1	206
10144875	5934	1135	0	-100	0	230	101300000	1000	0	0	-1	206
10157435	5939	1136	0	-100	0	230	101300000	1000	0	0	-1	206
10169995	5936	1132	0	-100	0	230	101300000	1000	0	0	-1	206
10182555	5932	1137	0	-100	0	230	101300000	1000	0	0	-1	206
10195115	5936	1132	0	-100	0	230	101300000	1000	0	0	-1	206
10207675	5937	1138	0	-100	0	230	101300000	1000	0	0	-1	206
10220235	5935	1128	0	-100	0	230	101300000	1000	0	0	-1	206
10232795	5933	1136	0	-100	0	230	101300000	1000	0	0	-1	206
10245355	5934	1130	0	-100	0	230	101300000	1000	0	0	-1	206
10257915	5937	1138	0	-100	0	230	101300000	1000	0	0	-1	206
10270475	5933	1127	0	-100	0	230	101300000	1000	0	0	-1	206
10283035	5929	1135	0	-100	0	230	101300000	1000	0	0	-1	206
10295595	5933	1134	0	-100	0	230	101300000	1000	0	0	-1	206
10308155	5941	1136	0	-100	0	230	101300000	1000	0	0	-1	206
10320715	5935	1129	0	-100	0	230	101300000	1000	0	0	-1	206
10333275	5937	1130	0	-100	0	230	101300000	1000	0	0	-1	206
10345835	5939	1130	0	-100	0	230	101300000	1000	0	0	-1	206
10358395	5943	1138	0	-100	0	230	101300000	1000	0	0	-1	206
10370955	5933	1137	0	-100	0	230	101300000	1000	0	0	-1	206
10383515	5937	1131	0	-100	0	230	101300000	1000	0	0	-1	206
10396075	5931	1139	0	-100	0	230	101300000	1000	0	0	-1	206
10408635	5936	1129	0	-100	0	230	101300000	1000	0	0	-1	206
10421195	5940	1129	0	-100	0	230	101300000	1000	0	0	-1	206
10433755	5945	1133	0	-100	0	230	101300000	1000	0	0	-1	206
10446315	5936	1141	0	-100	0	230	101300000	1000	0	0	-1	206
10458875	5934	1137	0	-100	0	230	101300000	1000	0	0	-1	206
10471435	5943	1133	0	-100	0	230	101300000	1000	0	0	-1	206
10483995	5937	1141	0	-100	0	230	101300000	1000	0	0	-1	206
10496555	5933	1134	0	-100	0	230	101300000	1000	0	0	-1	206
10509115	5935	1133	0	-100	0	230	101300000	1000	0	0	-1	206
10521675	5936	1131	0	-100	0	230	101300000	1000	0	0	-1	206
10534235	5941	1132	0	-100	0	230	101300000	1000	0	0	-1	206
10546795	5941	1133	0	-100	0	230	101300000	1000	0	0	-1	206
10559355	5942	1134	0	-100	0	230	101300000	1000	0	0	-1	206
10571915	5942	1131	0	-100	0	230	101300000	1000	0	0	-1	206
10584475	5936	1134	0	-100	0	230	101300000	1000	0	0	-1	206
10597035	5936	1137	0	-100	0	230	101300000	1000	0	0	-1	206
10609595	5949	1133	0	-100	0	230	101300000	1000	0	0	-1	206
10622155	5949	1130	0	-100	0	230	101300000	1000	0	0	-1	206
10634715	5936	1130	0	-100	0	230	101300000	1000	0	0	-1	206
10647275	5932	1126	0	-100	0	230	101300000	1000	0	0	-1	206
10659835	5934	1129	0	-100	0	230	101300000	1000	0	0	-1	206
10672395	5934	1130	0	-100	0	230	101300000	1000	0	0	-1	206
10684955	5936	1132	0	-100	0	230	101300000	1000	0	0	-1	206
10697515	5934	1130	0	-100	0	230	101300000	1000	0	0	-1	206
10710075	5937	1135	0	-100	0	230	101300000	1000	0	0	-1	206
10722635	5937	1141	0	-100	0	230	101300000	1000	0	0	-1	206
10735195	5933	1129	0	-100	0	230	101300000	1000	0	0	-1	206
10747755	5937	1126	0	-100	0	230	101300000	1000	0	0	-1	206
10760315	5935	1131	0	-100	0	230	101300000	1000	0	0	-1	206
10772875	5936	1141	0	-100	0	230	101300000	1000	0	0	-1	206
10785435	5937	1130	0	-100	0	230	101300000	1000	0	0	-1	206
10797995	5935	1131	0	-100	0	230	101300000	1000	0	0	-1	206
10810555	5938	1133	0	-100	0	230	101300000	1000	0	0	-1	206
10823115	5930	1135	0	-100	0	230	101300000	1000	0	0	-1	206
10835675	5941	1133	0	-100	0	230	101300000	1000	0	0	-1	206
10848235	5941	1130	0	-100	0	230	101300000	1000	0	0	-1	206
10860795	5941	1132	0	-100	0	230	101300000	1000	0	0	-1	206
10873355	5938	1136	0	-100	0	230	101300000	1000	0	0	-1	206
10885915	5933	1136	0	-100	0	230	101300000	1000	0	0	-1	206
10898475	5936	1128	0	-100	0	230	101300000	1000	0	0	-1	206
10911035	5934	1131	0	-100	0	230	101300000	1000	0	0	-1	206
10923595	5938	1139	0	-100	0	230	101300000	1000	0	0	-1	206
10936155	5948	1133	0	-100	0	230	101300000	1000	0	0	-1	206
10948715	5938	1136	0	-100	0	230	101300000	1000	0	0	-1	206
10961275	5933	1127	0	-100	0	230	101300000	1000	0	0	-1	206
10973835	5934	1131	0	-100	0	230	101300000	1000	0	0	-1	206
10986395	5934	1137	0	-100	0	230	101300000	1000	0	0	-1	206
10998955	5936	1132	0	-100	0	230	101300000	1000	0	0	-1	206
11011515	5940	1132	0	-100	0	230	101300000	1000	0	0	-1	206
11024075	5934	1133	0	-100	0	230	101300000	1000	0	0	-1	206
11036635	5938	1135	0	-100	0	230	101300000	1000	0	0	-1	206
11049195	5934	1132	0	-100	0	230	101300000	1000	0	0	-1	206
11061755	5936	1137	0	-100	0	230	101300000	1000	0	0	-1	206
11074315	5941	1129	0	-100	0	230	101300000	1000	0	0	-1	206
11086875	5940	1134	0	-100	0	230	101300000	1000	0	0	-1	206
11099435	5937	1133	0	-100	0	230	101300000	1000	0	0	-1	206
11111995	5936	1132	0	-100	0	230	101300000	1000	0	0	-1	206
11124555	5934	1138	0	-100	0	230	101300000	1000	0	0	-1	206
11137115	5936	1136	0	-100	0	230	101300000	1000	0	0	-1	206
11149675	5932	1129	0	-100	0	230	101300000	1000	0	0	-1	206
11162235	5936	1135	0	-100	0	230	101300000	1000	0	0	-1	206
11174795	5932	1137	0	-100	0	230	101300000	1000	0	0	-1	206
11187355	5935	1126	0	-100	0	230	101300000	1000	0	0	-1	206
11199915	5938	1138	0	-100	0	230	101300000	1000	0	0	-1	206
11212475	5933	1137	0	-100	0	230	101300000	1000	0	0	-1	206
11225035	5941	1131	0	-100	0	230	101300000	1000	0	0	-1	206
11237595	5937	1134	0	-100	0	230	101300000	1000	0	0	-1	206
11250155	5938	1136	0	-100	0	230	101300000	1000	0	0	-1	206
11262715	5940	1137	0	-100	0	230	101300000	1000	0	0	-1	206
11275275	5936	1127	0	-100	0	230	101300000	1000	0	0	-1	206
11287835	5935	1128	0	-100	0	230	101300000	1000	0	0	-1	206
11300395	5933	1136	0	-100	0	230	101300000	1000	0	0	-1	206
11312955	5936	1136	0	-100	0	230	101300000	1000	0	0	-1	206
11325515	5940	1133	0	-100	0	230	101300000	1000	0	0	-1	206
11338075	5934	1132	0	-100	0	230	101300000	1000	0	0	-1	206
11350635	5941	1129	0	-100	0	230	101300000	1000	0	0	-1	206
11363195	5932	1137	0	-100	0	230	101300000	1000	0	0	-1	206
11375755	5935	1127	0	-100	0	230	101300000	1000	0	0	-1	206
11388315	5940	1139	0	-100	0	230	101300000	1000	0	0	-1	206
11400875	5932	1135	0	-100	0	230	101300000	1000	0	0	-1	206
11413435	5940	1132	0	-100	0	230	101300000	1000	0	0	-1	206
11425995	5936	1135	0	-100	0	230	101300000	1000	0	0	-1	206
11438555	5939	1129	0	-100	0	230	101300000	1000	0	0	-1	206
11451115	5936	1140	0	-100	0	230	101300000	1000	0	0	-1	206
11463675	5936	1126	0	-100	0	230	101300000	1000	0	0	-1	206
11476235	5935	1137	0	-100	0	230	101300000	1000	0	0	-1	206
11488795	5940	1136	0	-100	0	230	101300000	1000	0	0	-1	206
11501355	5935	1129	0	-100	0	230	101300000	1000	0	0	-1	206
11513915	5941	1136	0	-100	0	230	101300000	1000	0	0	-1	206
11526475	5935	1134	0	-100	0	230	101300000	1000	0	0	-1	206
11539035	5936	1137	0	-100	0	230	101300000	1000	0	0	-1	206
11551595	5945	1136	0	-100	0	230	101300000	1000	0	0	-1	206
11564155	5945	1133	0	-100	0	230	101300000	1000	0	0	-1	206
11576715	5933	1138	0	-100	0	230	101300000	1000	0	0	-1	206
11589275	5936	1132	0	-100	0	230	101300000	1000	0	0	-1	206
11601835	5936	1131	0	-100	0	230	101300000	1000	0	0	-1	206
11614395	5932	1132	0	-100	0	230	101300000	1000	0	0	-1	206
11626955	5942	1136	0	-100	0	230	101300000	1000	0	0	-1	206
11639515	5936	1137	0	-100	0	230	101300000	1000	0	0	-1	206
11652075	5940	1130	0	-100	0	230	101300000	1000	0	0	-1	206
11664635	5937	1132	0	-100	0	230	101300000	1000	0	0	-1	206
11677195	5934	1124	0	-100	0	230	101300000	1000	0	0	-1	206
11689755	5936	1127	0	-100	0	230	101300000	1000	0	0	-1	206
11702315	5935	1133	0	-100	0	230	101300000	1000	0	0	-1	206
11714875	5936	1126	0	-100	0	230	101300000	1000	0	0	-1	206
11727435	5933	1131	0	-100	0	230	101300000	1000	0	0	-1	206
11739995	5936	1134	0	-100	0	230	101300000	1000	0	0	-1	206
11752555	5936	1132	0	-100	0	230	101300000	1000	0	0	-1	206
11765115	5932	1133	0	-100	0	230	101300000	1000	0	0	-1	206
11777675	5939	1140	0	-100	0	230	101300000	1000	0	0	-1	206
11790235	5935	1125	0	-100	0	230	101300000	1000	0	0	-1	206
11802795	5937	1132	0	-100	0	230	101300000	1000	0	0	-1	206
11815355	5934	1135	0	-100	0	230	101300000	1000	0	0	-1	206
11827915	5936	1138	0	-100	0	230	101300000	1000	0	0	-1	206
11840475	5934	1132	0	-100	0	230	101300000	1000	0	0	-1	206
11853035	5928	1134	0	-100	0	230	101300000	1000	0	0	-1	206
11865595	5941	1132	0	-100	0	230	101300000	1000	0	0	-1	206
11878155	5941	1138	0	-100	0	230	101300000	1000	0	0	-1	206
11890715	5939	1126	0	-100	0	230	101300000	1000	0	0	-1	206
11903275	5936	1132	0	-100	0	230	101300000	1000	0	0	-1	206
11915835	5937	1128	0	-100	0	230	101300000	1000	0	0	-1	206
11928395	5936	1139	0	-100	0	230	101300000	1000	0	0	-1	206
11940955	5936	1130	0	-100	0	230	101300000	1000	0	0	-1	206
11953515	5934	1133	0	-100	0	230	101300000	1000	0	0	-1	206
11966075	5937	1135	0	-100	0	230	101300000	1000	0	0	-1	206
11978635	5936	1136	0	-100	0	230	101300000	1000	0	0	-1	206
11991195	5938	1130	0	-100	0	230	101300000	1000	0	0	-1	206
12003755	5934	1134	0	-100	0	230	101300000	1000	0	0	-1	206
12016315	5934	1129	0	-100	0	230	101300000	1000	0	0	-1	206
12028875	5943	1134	0	-100	0	230	101300000	1000	0	0	-1	206
12041435	5936	1130	0	-100	0	230	101300000	1000	0	0	-1	206
12053995	5941	1131	0	-100	0	230	101300000	1000	0	0	-1	206
12066555	5932	1134	0	-100	0	230	101300000	1000	0	0	-1	206
12079115	5934	1134	0	-100	0	230	101300000	1000	0	0	-1	206
12091675	5941	1123	0	-100	0	230	101300000	1000	0	0	-1	206
12104235	5938	1131	0	-100	0	230	101300000	1000	0	0	-1	206
12116795	5941	1128	0	-100	0	230	101300000	1000	0	0	-1	206
12129355	5934	1128	0	-100	0	230	101300000	1000	0	0	-1	206
12141915	5941	1136	0	-100	0	230	101300000	1000	0	0	-1	206
12154475	5936	1133	0	-100	0	230	101300000	1000	0	0	-1	206
12167035	5939	1127	0	-100	0	230	101300000	1000	0	0	-1	206
12179595	5936	1129	0	-100	0	230	101300000	1000	0	0	-1	206
12192155	5946	1134	0	-100	0	230	101300000	1000	0	0	-1	206
12204715	5930	1136	0	-100	0	230	101300000	1000	0	0	-1	206
12217275	5932	1137	0	-100	0	230	101300000	1000	0	0	-1	206
12229835	5939	1124	0	-100	0	230	101300000	1000	0	0	-1	206
12242395	5936	1136	0	-100	0	230	101300000	1000	0	0	-1	206
12254955	5941	1134	0	-100	0	230	101300000	1000	0	0	-1	206
12267515	5936	1134	0	-100	0	230	101300000	1000	0	0	-1	206
12280075	5936	1126	0	-100	0	230	101300000	1000	0	0	-1	206
12292635	5935	1134	0	-100	0	230	101300000	1000	0	0	-1	206
12305195	5932	1134	0	-100	0	230	101300000	1000	0	0	-1	206
12317755	5934	1133	0	-100	0	230	101300000	1000	0	0	-1	206
12330315	5934	1138	0	-100	0	230	101300000	1000	0	0	-1	206
12342875	5940	1133	0	-100	0	230	101300000	1000	0	0	-1	206
12355435	5938	1137	0	-100	0	230	101300000	1000	0	0	-1	206
12367995	5941	1134	0	-100	0	230	101300000	1000	0	0	-1	206
12380555	5931	1134	0	-100	0	230	101300000	1000	0	0	-1	206
12393115	5937	1139	0	-100	0	230	101300000	1000	0	0	-1	206
12405675	5938	1127	0	-100	0	230	101300000	1000	0	0	-1	206
12418235	5935	1137	0	-100	0	230	101300000	1000	0	0	-1	206
12430795	5941	1132	0	-100	0	230	101300000	1000	0	0	-1	206
12443355	5937	1139	0	-100	0	230	101300000	1000	0	0	-1	206
12455915	5935	1127	0	-100	0	230	101300000	1000	0	0	-1	206
12468475	5933	1131	0	-100	0	230	101300000	1000	0	0	-1	206
12481035	5937	1128	0	-100	0	230	101300000	1000	0	0	-1	206
12493595	5937	1137	0	-100	0	230	101300000	1000	0	0	-1	206
12506155	5950	1128	0	-100	0	230	101300000	1000	0	0	-1	206
12518715	5930	1132	0	-100	0	230	101300000	1000	0	0	-1	206
12531275	5936	1123	0	-100	0	230	101300000	1000	0	0	-1	206
12543835	5937	1133	0	-100	0	230	101300000	1000	0	0	-1	206
12556395	5931	1129	0	-100	0	230	101300000	1000	0	0	-1	206
12568955	5936	1132	0	-100	0	230	101300000	1000	0	0	-1	206
12581515	5932	1130	0	-100	0	230	101300000	1000	0	0	-1	206
12594075	5943	1136	0	-100	0	230	101300000	1000	0	0	-1	206
12606635	5930	1131	0	-100	0	230	101300000	1000	0	0	-1	206
12619195	5938	1136	0	-100	0	230	101300000	1000	0	0	-1	206
12631755	5934	1134	0	-100	0	230	101300000	1000	0	0	-1	206
12644315	5934	1137	0	-100	0	230	101300000	1000	0	0	-1	206
12656875	5938	1127	0	-100	0	230	101300000	1000	0	0	-1	206
12669435	5932	1131	0	-100	0	230	101300000	1000	0	0	-1	206
12681995	5936	1129	0	-100	0	230	101300000	1000	0	0	-1	206
12694555	5933	1134	0	-100	0	230	101300000	1000	0	0	-1	206
12707115	5937	1133	0	-100	0	230	101300000	1000	0	0	-1	206
12719675	5937	1141	0	-100	0	230	101300000	1000	0	0	-1	206
12732235	5939	1133	0	-100	0	230	101300000	1000	0	0	-1	206
12744795	5936	1137	0	-100	0	230	101300000	1000	0	0	-1	206
12757355	5940	1131	0	-100	0	230	101300000	1000	0	0	-1	206
12769915	5936	1136	0	-100	0	230	101300000	1000	0	0	-1	206
12782475	5941	1138	0	-100	0	230	101300000	1000	0	0	-1	206
12795035	5933	1136	0	-100	0	230	101300000	1000	0	0	-1	206
12807595	5936	1131	0	-100	0	230	101300000	1000	0	0	-1	206
12820155	5945	1124	0	-100	0	230	101300000	1000	0	0	-1	206
12832715	5934	1126	0	-100	0	230	101300000	1000	0	0	-1	206
12845275	5939	1135	0	-100	0	230	101300000	1000	0	0	-1	206
12857835	5932	1130	0	-100	0	230	101300000	1000	0	0	-1	206
12870395	5938	1138	0	-100	0	230	101300000	1000	0	0	-1	206
12882955	5936	1137	0	-100	0	230	101300000	1000	0	0	-1	206
12895515	5943	1137	0	-100	0	230	101300000	1000	0	0	-1	206
12908075	5932	1130	0	-100	0	230	101300000	1000	0	0	-1	206
12920635	5937	1130	0	-100	0	230	101300000	1000	0	0	-1	206
12933195	5937	1143	0	-100	0	230	101300000	1000	0	0	-1	206
12945755	5934	1138	0	-100	0	230	101300000	1000	0	0	-1	206
12958315	5943	1129	0	-100	0	230	101300000	1000	0	0	-1	206
12970875	5934	1127	0	-100	0	230	101300000	1000	0	0	-1	206
12983435	5937	1136	0	-100	0	230	101300000	1000	0	0	-1	206
12995995	5940	1136	0	-100	0	230	101300000	1000	0	0	-1	206
13008555	5936	1135	0	-100	0	230	101300000	1000	0	0	-1	206
13021115	5941	1135	0	-100	0	230	101300000	1000	0	0	-1	206
13033675	5940	1132	0	-100	0	230	101300000	1000	0	0	-1	206
13046235	5937	1137	0	-100	0	230	101300000	1000	0	0	-1	206
13058795	5941	1130	0	-100	0	230	101300000	1000	0	0	-1	206
13071355	5936	1137	0	-100	0	230	101300000	1000	0	0	-1	206
13083915	5934	1140	0	-100	0	230	101300000	1000	0	0	-1	206
13096475	5939	1135	0	-100	0	230	101300000	1000	0	0	-1	206
13109035	5936	1137	0	-100	0	230	101300000	1000	0	0	-1	206
13121595	5940	1131	0	-100	0	230	101300000	1000	0	0	-1	206
13134155	5944	1132	0	-100	0	230	101300000	1000	0	0	-1	206
13146715	5934	1129	0	-100	0	230	101300000	1000	0	0	-1	206
13159275	5942	1129	0	-100	0	230	101300000	1000	0	0	-1	206
13171835	5932	1134	0	-100	0	230	101300000	1000	0	0	-1	206
13184395	5943	1134	0	-100	0	230	101300000	1000	0	0	-1	206
13196955	5932	1130	0	-100	0	230	101300000	1000	0	0	-1	206
13209515	5947	1139	0	-100	0	230	101300000	1000	0	0	-1	206
13222075	5932	1130	0	-100	0	230	101300000	1000	0	0	-1	206
13234635	5941	1133	0	-100	0	230	101300000	1000	0	0	-1	206
13247195	5934	1128	0	-100	0	230	101300000	1000	0	0	-1	206
13259755	5934	1124	0	-100	0	230	101300000	1000	0	0	-1	206
13272315	5934	1133	0	-100	0	230	101300000	1000	0	0	-1	206
13284875	5937	1131	0	-100	0	230	101300000	1000	0	0	-1	206
13297435	5934	1131	0	-100	0	230	101300000	1000	0	0	-1	206
13309995	5936	1144	0	-100	0	230	101300000	1000	0	0	-1	206
13322555	5936	1133	0	-100	0	230	101300000	1000	0	0	-1	206
13335115	5934	1134	0	-100	0	230	101300000	1000	0	0	-1	206
13347675	5942	1128	0	-100	0	230	101300000	1000	0	0	-1	206
13360235	5936	1136	0	-100	0	230	101300000	1000	0	0	-1	206
13372795	5938	1132	0	-100	0	230	101300000	1000	0	0	-1	206
13385355	5943	1129	0	-100	0	230	101300000	1000	0	0	-1	206
13397915	5932	1134	0	-100	0	230	101300000	1000	0	0	-1	206
13410475	5932	1131	0	-100	0	230	101300000	1000	0	0	-1	206
13423035	5941	1130	0	-100	0	230	101300000	1000	0	0	-1	206
13435595	5934	1130	0	-100	0	230	101300000	1000	0	0	-1	206
13448155	5947	1136	0	-100	0	230	101300000	1000	0	0	-1	206
13460715	5943	1138	0	-100	0	230	101300000	1000	0	0	-1	206
13473275	5937	1134	0	-100	0	230	101300000	1000	0	0	-1	206
13485835	5941	1135	0	-100	0	230	101300000	1000	0	0	-1	206
13498395	5936	1137	0	-100	0	230	101300000	1000	0	0	-1	206
13510955	5936	1130	0	-100	0	230	101300000	1000	0	0	-1	206
13523515	5942	1137	0	-100	0	230	101300000	1000	0	0	-1	206
13536075	5936	1134	0	-100	0	230	101300000	1000	0	0	-1	206
13548635	5938	1135	0	-100	0	230	101300000	1000	0	0	-1	206
13561195	5933	1138	0	-100	0	230	101300000	1000	0	0	-1	206
13573755	5935	1135	0	-100	0	230	101300000	1000	0	0	-1	206
13586315	5943	1136	0	-100	0	230	101300000	1000	0	0	-1	206
13598875	5931	1130	0	-100	0	230	101300000	1000	0	0	-1	206
13611435	5936	1133	0	-100	0	230	101300000	1000	0	0	-1	206
13623995	5936	1130	0	-100	0	230	101300000	1000	0	0	-1	206
13636555	5943	1121	0	-100	0	230	101300000	1000	0	0	-1	206
13649115	5933	1131	0	-100	0	230	101300000	1000	0	0	-1	206
13661675	5941	1130	0	-100	0	230	101300000	1000	0	0	-1	206
13674235	5935	1141	0	-100	0	230	101300000	1000	0	0	-1	206
13686795	5936	1131	0	-100	0	230	101300000	1000	0	0	-1	206
13699355	5937	1136	0	-100	0	230	101300000	1000	0	0	-1	206
13711915	5933	1134	0	-100	0	230	101300000	1000	0	0	-1	206
13724475	5938	1130	0	-100	0	230	101300000	1000	0	0	-1	206
13737035	5930	1135	0	-100	0	230	101300000	1000	0	0	-1	206
13749595	5941	1134	0	-100	0	230	101300000	1000	0	0	-1	206
13762155	5942	1133	0	-100	0	230	101300000	1000	0	0	-1	206
13774715	5940	1133	0	-100	0	230	101300000	1000	0	0	-1	206
13787275	5932	1134	0	-100	0	230	101300000	1000	0	0	-1	206
13799835	5932	1133	0	-100	0	230	101300000	1000	0	0	-1	206
13812395	5939	1134	0	-100	0	230	101300000	1000	0	0	-1	206
13824955	5934	1138	0	-100	0	230	101300000	1000	0	0	-1	206
13837515	5938	1130	0	-100	0	230	101300000	1000	0	0	-1	206
13850075	5937	1133	0	-100	0	230	101300000	1000	0	0	-1	206
13862635	5943	1124	0	-100	0	230	101300000	1000	0	0	-1	206
13875195	5934	1137	0	-100	0	230	101300000	1000	0	0	-1	206
13887755	5928	1127	0	-100	0	230	101300000	1000	0	0	-1	206
13900315	5939	1133	0	-100	0	230	101300000	1000	0	0	-1	206
13912875	5936	1132	0	-100	0	230	101300000	1000	0	0	-1	206
13925435	5935	1130	0	-100	0	230	101300000	1000	0	0	-1	206
13937995	5943	1140	0	-100	0	230	101300000	1000	0	0	-1	206
13950555	5934	1140	0	-100	0	230	101300000	1000	0	0	-1	206
13963115	5935	1132	0	-100	0	230	101300000	1000	0	0	-1	206
13975675	5936	1136	0	-100	0	230	101300000	1000	0	0	-1	206
13988235	5932	1135	0	-100	0	230	101300000	1000	0	0	-1	206
14000795	5936	1130	0	-100	0	230	101300000	1000	0	0	-1	206
14013355	5935	1141	0	-100	0	230	101300000	1000	0	0	-1	206
14025915	5928	1141	0	-100	0	230	101300000	1000	0	0	-1	206
14038475	5941	1136	0	-100	0	230	101300000	1000	0	0	-1	206
14051035	5936	1129	0	-100	0	230	101300000	1000	0	0	-1	206
14063595	5937	1129	0	-100	0	230	101300000	1000	0	0	-1	206
14076155	5940	1129	0	-100	0	230	101300000	1000	0	0	-1	206
14088715	5937	1132	0	-100	0	230	101300000	1000	0	0	-1	206
14101275	5930	1132	0	-100	0	230	101300000	1000	0	0	-1	206
14113835	5938	1130	0	-100	0	230	101300000	1000	0	0	-1	206
14126395	5935	1133	0	-100	0	230	101300000	1000	0	0	-1	206
14138955	5932	1132	0	-100	0	230	101300000	1000	0	0	-1	206
14151515	5941	1141	0	-100	0	230	101300000	1000	0	0	-1	206
14164075	5934	1140	0	-100	0	230	101300000	1000	0	0	-1	206
14176635	5934	1126	0	-100	0	230	101300000	1000	0	0	-1	206
14189195	5941	1140	0	-100	0	230	101300000	1000	0	0	-1	206
14201755	5938	1131	0	-100	0	230	101300000	1000	0	0	-1	206
14214315	5935	1135	0	-100	0	230	101300000	1000	0	0	-1	206
14226875	5936	1135	0	-100	0	230	101300000	1000	0	0	-1	206
14239435	5942	1135	0	-100	0	230	101300000	1000	0	0	-1	206
14251995	5934	1139	0	-100	0	230	101300000	1000	0	0	-1	206
14264555	5934	1129	0	-100	0	230	101300000	1000	0	0	-1	206
14277115	5945	1131	0	-100	0	230	101300000	1000	0	0	-1	206
14289675	5932	1129	0	-100	0	230	101300000	1000	0	0	-1	206
14302235	5938	1137	0	-100	0	230	101300000	1000	0	0	-1	206
14314795	5936	1129	0	-100	0	230	101300000	1000	0	0	-1	206
14327355	5935	1134	0	-100	0	230	101300000	1000	0	0	-1	206
14339915	5940	1131	0	-100	0	230	101300000	1000	0	0	-1	206
14352475	5933	1130	0	-100	0	230	101300000	1000	0	0	-1	206
14365035	5934	1128	0	-100	0	230	101300000	1000	0	0	-1	206
14377595	5941	1132	0	-100	0	230	101300000	1000	0	0	-1	206
14390155	5946	1127	0	-100	0	230	101300000	1000	0	0	-1	206
14402715	5932	1129	0	-100	0	230	101300000	1000	0	0	-1	206
14415275	5941	1131	0	-100	0	230	101300000	1000	0	0	-1	206
14427835	5934	1134	0	-100	0	230	101300000	1000	0	0	-1	206
14440395	5932	1136	0	-100	0	230	101300000	1000	0	0	-1	206
14452955	5940	1132	0	-100	0	230	101300000	1000	0	0	-1	206
14465515	5936	1135	0	-100	0	230	101300000	1000	0	0	-1	206
14478075	5936	1126	0	-100	0	230	101300000	1000	0	0	-1	206
14490635	5938	1132	0	-100	0	230	101300000	1000	0	0	-1	206
14503195	5934	1136	0	-100	0	230	101300000	1000	0	0	-1	206
14515755	5941	1130	0	-100	0	230	101300000	1000	0	0	-1	206
14528315	5936	1133	0	-100	0	230	101300000	1000	0	0	-1	206
14540875	5940	1130	0	-100	0	230	101300000	1000	0	0	-1	206
14553435	5936	1133	0	-100	0	230	101300000	1000	0	0	-1	206
14565995	5942	1140	0	-100	0	230	101300000	1000	0	0	-1	206
14578555	5932	1130	0	-100	0	230	101300000	1000	0	0	-1	206
14591115	5934	1134	0	-100	0	230	101300000	1000	0	0	-1	206
14603675	5937	1128	0	-100	0	230	101300000	1000	0	0	-1	206
14616235	5940	1132	0	-100	0	230	101300000	1000	0	0	-1	206
14628795	5934	1142	0	-100	0	230	101300000	1000	0	0	-1	206
14641355	5940	1137	0	-100	0	230	101300000	1000	0	0	-1	206
14653915	5936	1138	0	-100	0	230	101300000	1000	0	0	-1	206
14666475	5931	1128	0	-100	0	230	101300000	1000	0	0	-1	206
14679035	5940	1123	0	-100	0	230	101300000	1000	0	0	-1	206
14691595	5932	1132	0	-100	0	230	101300000	1000	0	0	-1	206
14704155	5944	1138	0	-100	0	230	101300000	1000	0	0	-1	206
14716715	5938	1136	0	-100	0	230	101300000	1000	0	0	-1	206
14729275	5937	1133	0	-100	0	230	101300000	1000	0	0	-1	206
14741835	5932	1140	0	-100	0	230	101300000	1000	0	0	-1	206
14754395	5941	1130	0	-100	0	230	101300000	1000	0	0	-1	206
14766955	5934	1134	0	-100	0	230	101300000	1000	0	0	-1	206
14779515	5931	1130	0	-100	0	230	101300000	1000	0	0	-1	206
14792075	5941	1135	0	-100	0	230	101300000	1000	0	0	-1	206
14804635	5933	1137	0	-100	0	230	101300000	1000	0	0	-1	206
14817195	5935	1133	0	-100	0	230	101300000	1000	0	0	-1	206
14829755	5936	1133	0	-100	0	230	101300000	1000	0	0	-1	206
14842315	5935	1130	0	-100	0	230	101300000	1000	0	0	-1	206
14854875	5934	1132	0	-100	0	230	101300000	1000	0	0	-1	206
14867435	5941	1138	0	-100	0	230	101300000	1000	0	0	-1	206
14879995	5936	1126	0	-100	0	230	101300000	1000	0	0	-1	206
14892555	5935	1133	0	-100	0	230	101300000	1000	0	0	-1	206
14905115	5936	1134	0	-100	0	230	101300000	1000	0	0	-1	206
14917675	5941	1130	0	-100	0	230	101300000	1000	0	0	-1	206
14930235	5932	1133	0	-100	0	230	101300000	1000	0	0	-1	206
14942795	5937	1123	0	-100	0	230	101300000	1000	0	0	-1	206
14955355	5937	1137	0	-100	0	230	101300000	1000	0	0	-1	206
14967915	5939	1137	0	-100	0	230	101300000	1000	0	0	-1	206
14980475	5932	1132	0	-100	0	230	101300000	1000	0	0	-1	206
14993035	5934	1133	0	-100	0	230	101300000	1000	0	0	-1	206
15005595	5938	1136	0	-100	0	230	101300000	1000	0	0	-1	206
15018155	5942	1129	0	-100	0	230	101300000	1000	0	0	-1	206
15030715	5944	1130	0	-100	0	230	101300000	1000	0	0	-1	206
15043275	5936	1134	0	-100	0	230	101300000	1000	0	0	-1	206
15055835	5934	1125	0	-100	0	230	101300000	1000	0	0	-1	206
15068395	5941	1127	0	-100	0	230	101300000	1000	0	0	-1	206
15080955	5935	1139	0	-100	0	230	101300000	1000	0	0	-1	206
15093515	5939	1134	0	-100	0	230	101300000	1000	0	0	-1	206
15106075	5941	1139	0	-100	0	230	101300000	1000	0	0	-1	206
15118635	5938	1141	0	-100	0	230	101300000	1000	0	0	-1	206
15131195	5934	1135	0	-100	0	230	101300000	1000	0	0	-1	206
15143755	5936	1130	0	-100	0	230	101300000	1000	0	0	-1	206
15156315	5941	1131	0	-100	0	230	101300000	1000	0	0	-1	206
15168875	5932	1132	0	-100	0	230	101300000	1000	0	0	-1	206
15181435	5936	1133	0	-100	0	230	101300000	1000	0	0	-1	206
15193995	5939	1134	0	-100	0	230	101300000	1000	0	0	-1	206
15206555	5936	1138	0	-100	0	230	101300000	1000	0	0	-1	206
15219115	5939	1129	0	-100	0	230	101300000	1000	0	0	-1	206
15231675	5938	1135	0	-100	0	230	101300000	1000	0	0	-1	206
15244235	5932	1135	0	-100	0	230	101300000	1000	0	0	-1	206
15256795	5932	1132	0	-100	0	230	101300000	1000	0	0	-1	206
15269355	5942	1131	0	-100	0	230	101300000	1000	0	0	-1	206
15281915	5936	1140	0	-100	0	230	101300000	1000	0	0	-1	206
15294475	5934	1137	0	-100	0	230	101300000	1000	0	0	-1	206
15307035	5943	1136	0	-100	0	230	101300000	1000	0	0	-1	206
15319595	5933	1133	0	-100	0	230	101300000	1000	0	0	-1	206
15332155	5949	1137	0	-100	0	230	101300000	1000	0	0	-1	206
15344715	5937	1133	0	-100	0	230	101300000	1000	0	0	-1	206
15357275	5936	1144	0	-100	0	230	101300000	1000	0	0	-1	206
15369835	5941	1113	0	-100	0	230	101300000	1000	0	0	-1	206
15382395	5938	1131	0	-100	0	230	101300000	1000	0	0	-1	206
15394955	5938	1127	0	-100	0	230	101300000	1000	0	0	-1	206
15407515	5934	1138	0	-100	0	230	101300000	1000	0	0	-1	206
15420075	5932	1137	0	-100	0	230	101300000	1000	0	0	-1	206
15432635	5937	1127	0	-100	0	230	101300000	1000	0	0	-1	206
15445195	5937	1127	0	-100	0	230	101300000	1000	0	0	-1	206
15457755	5937	1134	0	-100	0	230	101300000	1000	0	0	-1	206
15470315	5933	1137	0	-100	0	230	101300000	1000	0	0	-1	206
15482875	5932	1129	0	-100	0	230	101300000	1000	0	0	-1	206
15495435	5938	1136	0	-100	0	230	101300000	1000	0	0	-1	206
15507995	5938	1131	0	-100	0	230	101300000	1000	0	0	-1	206
15520555	5939	1132	0	-100	0	230	101300000	1000	0	0	-1	206
15533115	5935	1133	0	-100	0	230	101300000	1000	0	0	-1	206
15545675	5932	1131	0	-100	0	230	101300000	1000	0	0	-1	206
15558235	5935	1136	0	-100	0	230	101300000	1000	0	0	-1	206
15570795	5934	1130	0	-100	0	230	101300000	1000	0	0	-1	206
15583355	5934	1135	0	-100	0	230	101300000	1000	0	0	-1	206
15595915	5935	1138	0	-100	0	230	101300000	1000	0	0	-1	206
15608475	5942	1136	0	-100	0	230	101300000	1000	0	0	-1	206
15621035	5936	1130	0	-100	0	230	101300000	1000	0	0	-1	206
15633595	5941	1128	0	-100	0	230	101300000	1000	0	0	-1	206
15646155	5940	1129	0	-100	0	230	101300000	1000	0	0	-1	206
15658715	5940	1122	0	-100	0	230	101300000	1000	0	0	-1	206
15671275	5932	1139	0	-100	0	230	101300000	1000	0	0	-1	206
15683835	5936	1128	0	-100	0	230	101300000	1000	0	0	-1	206
15696395	5936	1143	0	-100	0	230	101300000	1000	0	0	-1	206
15708955	5931	1131	0	-100	0	230	101300000	1000	0	0	-1	206
15721515	5941	1130	0	-100	0	230	101300000	1000	0	0	-1	206
15734075	5931	1137	0	-100	0	230	101300000	1000	0	0	-1	206
15746635	5937	1137	0	-100	0	230	101300000	1000	0	0	-1	206
15759195	5936	1139	0	-100	0	230	101300000	1000	0	0	-1	206
15771755	5934	1133	0	-100	0	230	101300000	1000	0	0	-1	206
15784315	5938	1133	0	-100	0	230	101300000	1000	0	0	-1	206
15796875	5933	1127	0	-100	0	230	101300000	1000	0	0	-1	206
15809435	5941	1135	0	-100	0	230	101300000	1000	0	0	-1	206
15821995	5934	1131	0	-100	0	230	101300000	1000	0	0	-1	206
15834555	5933	1133	0	-100	0	230	101300000	1000	0	0	-1	206
15847115	5932	1131	0	-100	0	230	101300000	1000	0	0	-1	206
15859675	5936	1142	0	-100	0	230	101300000	1000	0	0	-1	206
15872235	5941	1137	0	-100	0	230	101300000	1000	0	0	-1	206
15884795	5930	1128	0	-100	0	230	101300000	1000	0	0	-1	206
15897355	5940	1143	0	-100	0	230	101300000	1000	0	0	-1	206
15909915	5933	1137	0	-100	0	230	101300000	1000	0	0	-1	206
15922475	5937	1127	0	-100	0	230	101300000	1000	0	0	-1	206
15935035	5932	1132	0	-100	0	230	101300000	1000	0	0	-1	206
15947595	5935	1131	0	-100	0	230	101300000	1000	0	0	-1	206
15960155	5942	1133	0	-100	0	230	101300000	1000	0	0	-1	206
15972715	5935	1136	0	-100	0	230	101300000	1000	0	0	-1	206
15985275	5932	1135	0	-100	0	230	101300000	1000	0	0	-1	206
15997835	5934	1132	0	-100	0	230	101300000	1000	0	0	-1	206
16010395	5940	1137	0	-100	0	230	101300000	1000	0	0	-1	206
16022955	5936	1138	0	-100	0	230	101300000	1000	0	0	-1	206
16035515	5936	1133	0	-100	0	230	101300000	1000	0	0	-1	206
16048075	5933	1134	0	-100	0	230	101300000	1000	0	0	-1	206
16060635	5932	1138	0	-100	0	230	101300000	1000	0	0	-1	206
16073195	5938	1135	0	-100	0	230	101300000	1000	0	0	-1	206
16085755	5936	1130	0	-100	0	230	101300000	1000	0	0	-1	206
16098315	5934	1136	0	-100	0	230	101300000	1000	0	0	-1	206
16110875	5936	1136	0	-100	0	230	101300000	1000	0	0	-1	206
16123435	5937	1138	0	-100	0	230	101300000	1000	0	0	-1	206
16135995	5932	1131	0	-100	0	230	101300000	1000	0	0	-1	206
16148555	5935	1126	0	-100	0	230	101300000	1000	0	0	-1	206
16161115	5932	1134	0	-100	0	230	101300000	1000	0	0	-1	206
16173675	5940	1124	0	-100	0	230	101300000	1000	0	0	-1	206
16186235	5933	1141	0	-100	0	230	101300000	1000	0	0	-1	206
16198795	5937	1123	0	-100	0	230	101300000	1000	0	0	-1	206
16211355	5940	1133	0	-100	0	230	101300000	1000	0	0	-1	206
16223915	5934	1130	0	-100	0	230	101300000	1000	0	0	-1	206
16236475	5940	1128	0	-100	0	230	101300000	1000	0	0	-1	206
16249035	5936	1138	0	-100	0	230	101300000	1000	0	0	-1	206
16261595	5941	1132	0	-100	0	230	101300000	1000	0	0	-1	206
16274155	5941	1140	0	-100	0	230	101300000	1000	0	0	-1	206
16286715	5938	1136	0	-100	0	230	101300000	1000	0	0	-1	206
16299275	5935	1137	0	-100	0	230	101300000	1000	0	0	-1	206
16311835	5930	1129	0	-100	0	230	101300000	1000	0	0	-1	206
16324395	5942	1124	0	-100	0	230	101300000	1000	0	0	-1	206
16336955	5937	1133	0	-100	0	230	101300000	1000	0	0	-1	206
16349515	5937	1131	0	-100	0	230	101300000	1000	0	0	-1	206
16362075	5937	1141	0	-100	0	230	101300000	1000	0	0	-1	206
16374635	5936	1134	0	-100	0	230	101300000	1000	0	0	-1	206
16387195	5936	1127	0	-100	0	230	101300000	1000	0	0	-1	206
16399755	5932	1133	0	-100	0	230	101300000	1000	0	0	-1	206
16412315	5930	1131	0	-100	0	230	101300000	1000	0	0	-1	206
16424875	5944	1132	0	-100	0	230	101300000	1000	0	0	-1	206
16437435	5934	1132	0	-100	0	230	101300000	1000	0	0	-1	206
16449995	5939	1133	0	-100	0	230	101300000	1000	0	0	-1	206
16462555	5937	1133	0	-100	0	230	101300000	1000	0	0	-1	206
16475115	5939	1134	0	-100	0	230	101300000	1000	0	0	-1	206
16487675	5933	1144	0	-100	0	230	101300000	1000	0	0	-1	206
16500235	5934	1120	0	-100	0	230	101300000	1000	0	0	-1	206
16512795	5941	1133	0	-100	0	230	101300000	1000	0	0	-1	206
16525355	5936	1140	0	-100	0	230	101300000	1000	0	0	-1	206
16537915	5938	1131	0	-100	0	230	101300000	1000	0	0	-1	206
16550475	5934	1129	0	-100	0	230	101300000	1000	0	0	-1	206
16563035	5939	1132	0	-100	0	230	101300000	1000	0	0	-1	206
16575595	5932	1132	0	-100	0	230	101300000	1000	0	0	-1	206
16588155	5946	1130	0	-100	0	230	101300000	1000	0	0	-1	206
16600715	5932	1137	0	-100	0	230	101300000	1000	0	0	-1	206
16613275	5936	1124	0	-100	0	230	101300000	1000	0	0	-1	206
16625835	5936	1136	0	-100	0	230	101300000	1000	0	0	-1	206
16638395	5931	1135	0	-100	0	230	101300000	1000	0	0	-1	206
16650955	5939	1129	0	-100	0	230	101300000	1000	0	0	-1	206
16663515	5932	1141	0	-100	0	230	101300000	1000	0	0	-1	206
16676075	5939	1124	0	-100	0	230	101300000	1000	0	0	-1	206
16688635	5936	1134	0	-100	0	230	101300000	1000	0	0	-1	206
16701195	5938	1135	0	-100	0	230	101300000	1000	0	0	-1	206
16713755	5936	1139	0	-100	0	230	101300000	1000	0	0	-1	206
16726315	5939	1136	0	-100	0	230	101300000	1000	0	0	-1	206
16738875	5937	1139	0	-100	0	230	101300000	1000	0	0	-1	206
16751435	5939	1127	0	-100	0	230	101300000	1000	0	0	-1	206
16763995	5937	1130	0	-100	0	230	101300000	1000	0	0	-1	206
16776555	5945	1138	0	-100	0	230	101300000	1000	0	0	-1	206
16789115	5932	1138	0	-100	0	230	101300000	1000	0	0	-1	206
16801675	5943	1119	0	-100	0	230	101300000	1000	0	0	-1	206
16814235	5930	1139	0	-100	0	230	101300000	1000	0	0	-1	206
16826795	5944	1136	0	-100	0	230	101300000	1000	0	0	-1	206
16839355	5934	1133	0	-100	0	230	101300000	1000	0	0	-1	206
16851915	5941	1127	0	-100	0	230	101300000	1000	0	0	-1	206
16864475	5936	1137	0	-100	0	230	101300000	1000	0	0	-1	206
16877035	5937	1134	0	-100	0	230	101300000	1000	0	0	-1	206
16889595	5938	1127	0	-100	0	230	101300000	1000	0	0	-1	206
16902155	5940	1134	0	-100	0	230	101300000	1000	0	0	-1	206
16914715	5944	1132	0	-100	0	230	101300000	1000	0	0	-1	206
16927275	5932	1137	0	-100	0	230	101300000	1000	0	0	-1	206
16939835	5938	1131	0	-100	0	230	101300000	1000	0	0	-1	206
16952395	5936	1133	0	-100	0	230	101300000	1000	0	0	-1	206
16964955	5939	1130	0	-100	0	230	101300000	1000	0	0	-1	206
16977515	5945	1139	0	-100	0	230	101300000	1000	0	0	-1	206
16990075	5934	1133	0	-100	0	230	101300000	1000	0	0	-1	206
17002635	5934	1129	0	-100	0	230	101300000	1000	0	0	-1	206
17015195	5935	1134	0	-100	0	230	101300000	1000	0	0	-1	206
17027755	5940	1121	0	-100	0	230	101300000	1000	0	0	-1	206
17040315	5936	1138	0	-100	0	230	101300000	1000	0	0	-1	206
17052875	5934	1127	0	-100	0	230	101300000	1000	0	0	-1	206
17065435	5939	1129	0	-100	0	230	101300000	1000	0	0	-1	206
17077995	5934	1130	0	-100	0	230	101300000	1000	0	0	-1	206
17090555	5934	1131	0	-100	0	230	101300000	1000	0	0	-1	206
17103115	5940	1134	0	-100	0	230	101300000	1000	0	0	-1	206
17115675	5936	1141	0	-100	0	230	101300000	1000	0	0	-1	206
17128235	5936	1128	0	-100	0	230	101300000	1000	0	0	-1	206
17140795	5940	1132	0	-100	0	230	101300000	1000	0	0	-1	206
17153355	5937	1133	0	-100	0	230	101300000	1000	0	0	-1	206
17165915	5938	1133	0	-100	0	230	101300000	1000	0	0	-1	206
17178475	5938	1133	0	-100	0	230	101300000	1000	0	0	-1	206
17191035	5934	1135	0	-100	0	230	101300000	1000	0	0	-1	206
17203595	5939	1136	0	-100	0	230	101300000	1000	0	0	-1	206
17216155	5946	1135	0	-100	0	230	101300000	1000	0	0	-1	206
17228715	5936	1132	0	-100	0	230	101300000	1000	0	0	-1	206
17241275	5939	1136	0	-100	0	230	101300000	1000	0	0	-1	206
17253835	5936	1139	0	-100	0	230	101300000	1000	0	0	-1	206
17266395	5931	1131	0	-100	0	230	101300000	1000	0	0	-1	206
17278955	5937	1137	0	-100	0	230	101300000	1000	0	0	-1	206
17291515	5936	1135	0	-100	0	230	101300000	1000	0	0	-1	206
17304075	5941	1137	0	-100	0	230	101300000	1000	0	0	-1	206
17316635	5941	1130	0	-100	0	230	101300000	1000	0	0	-1	206
17329195	5932	1132	0	-100	0	230	101300000	1000	0	0	-1	206
17341755	5943	1130	0	-100	0	230	101300000	1000	0	0	-1	206
17354315	5936	1143	0	-100	0	230	101300000	1000	0	0	-1	206
17366875	5941	1131	0	-100	0	230	101300000	1000	0	0	-1	206
17379435	5933	1139	0	-100	0	230	101300000	1000	0	0	-1	206
17391995	5937	1125	0	-100	0	230	101300000	1000	0	0	-1	206
17404555	5937	1132	0	-100	0	230	101300000	1000	0	0	-1	206
17417115	5937	1134	0	-100	0	230	101300000	1000	0	0	-1	206
17429675	5932	1129	0	-100	0	230	101300000	1000	0	0	-1	206
17442235	5945	1132	0	-100	0	230	101300000	1000	0	0	-1	206
17454795	5936	1129	0	-100	0	230	101300000	1000	0	0	-1	206
17467355	5937	1130	0	-100	0	230	101300000	1000	0	0	-1	206
17479915	5934	1134	0	-100	0	230	101300000	1000	0	0	-1	206
17492475	5936	1134	0	-100	0	230	101300000	1000	0	0	-1	206
17505035	5937	1135	0	-100	0	230	101300000	1000	0	0	-1	206
17517595	5938	1134	0	-100	0	230	101300000	1000	0	0	-1	206
17530155	5941	1140	0	-100	0	230	101300000	1000	0	0	-1	206
17542715	5938	1136	0	-100	0	230	101300000	1000	0	0	-1	206
17555275	5934	1133	0	-100	0	230	101300000	1000	0	0	-1	206
17567835	5938	1129	0	-100	0	230	101300000	1000	0	0	-1	206
17580395	5936	1134	0	-100	0	230	101300000	1000	0	0	-1	206
17592955	5941	1132	0	-100	0	230	101300000	1000	0	0	-1	206
17605515	5932	1132	0	-100	0	230	101300000	1000	0	0	-1	206
17618075	5939	1132	0	-100	0	230	101300000	1000	0	0	-1	206
17630635	5932	1132	0	-100	0	230	101300000	1000	0	0	-1	206
17643195	5936	1134	0	-100	0	230	101300000	1000	0	0	-1	206
17655755	5941	1130	0	-100	0	230	101300000	1000	0	0	-1	206
17668315	5933	1137	0	-100	0	230	101300000	1000	0	0	-1	206
17680875	5937	1132	0	-100	0	230	101300000	1000	0	0	-1	206
17693435	5936	1143	0	-100	0	230	101300000	1000	0	0	-1	206
17705995	5937	1134	0	-100	0	230	101300000	1000	0	0	-1	206
17718555	5934	1130	0	-100	0	230	101300000	1000	0	0	-1	206
17731115	5939	1130	0	-100	0	230	101300000	1000	0	0	-1	206
17743675	5933	1137	0	-100	0	230	101300000	1000	0	0	-1	206
17756235	5939	1134	0	-100	0	230	101300000	1000	0	0	-1	206
17768795	5933	1133	0	-100	0	230	101300000	1000	0	0	-1	206
17781355	5936	1138	0	-100	0	230	101300000	1000	0	0	-1	206
17793915	5941	1130	0	-100	0	230	101300000	1000	0	0	-1	206
17806475	5930	1130	0	-100	0	230	101300000	1000	0	0	-1	206
17819035	5938	1138	0	-100	0	230	101300000	1000	0	0	-1	206
17831595	5938	1132	0	-100	0	230	101300000	1000	0	0	-1	206
17844155	5942	1139	0	-100	0	230	101300000	1000	0	0	-1	206
17856715	5939	1138	0	-100	0	230	101300000	1000	0	0	-1	206
17869275	5936	1139	0	-100	0	230	101300000	1000	0	0	-1	206
17881835	5941	1132	0	-100	0	230	101300000	1000	0	0	-1	206
17894395	5936	1125	0	-100	0	230	101300000	1000	0	0	-1	206
17906955	5941	1130	0	-100	0	230	101300000	1000	0	0	-1	206
17919515	5934	1133	0	-100	0	230	101300000	1000	0	0	-1	206
17932075	5937	1139	0	-100	0	230	101300000	1000	0	0	-1	206
17944635	5933	1136	0	-100	0	230	101300000	1000	0	0	-1	206
17957195	5936	1126	0	-100	0	230	101300000	1000	0	0	-1	206
17969755	5934	1140	0	-100	0	230	101300000	1000	0	0	-1	206
17982315	5935	1136	0	-100	0	230	101300000	1000	0	0	-1	206
17994875	5940	1128	0	-100	0	230	101300000	1000	0	0	-1	206
18007435	5935	1132	0	-100	0	230	101300000	1000	0	0	-1	206
18019995	5936	1131	0	-100	0	230	101300000	1000	0	0	-1	206
18032555	5939	1137	0	-100	0	230	101300000	1000	0	0	-1	206
18045115	5937	1133	0	-100	0	230	101300000	1000	0	0	-1	206
18057675	5937	1133	0	-100	0	230	101300000	1000	0	0	-1	206
18070235	5938	1137	0	-100	0	230	101300000	1000	0	0	-1	206
18082795	5928	1132	0	-100	0	230	101300000	1000	0	0	-1	206
18095355	5938	1130	0	-100	0	230	101300000	1000	0	0	-1	206
18107915	5932	1134	0	-100	0	230	101300000	1000	0	0	-1	206
18120475	5939	1131	0	-100	0	230	101300000	1000	0	0	-1	206
18133035	5933	1140	0	-100	0	230	101300000	1000	0	0	-1	206
18145595	5938	1131	0	-100	0	230	101300000	1000	0	0	-1	206
18158155	5946	1129	0	-100	0	230	101300000	1000	0	0	-1	206
18170715	5932	1134	0	-100	0	230	101300000	1000	0	0	-1	206
18183275	5939	1138	0	-100	0	230	101300000	1000	0	0	-1	206
18195835	5930	1132	0	-100	0	230	101300000	1000	0	0	-1	206
18208395	5939	1142	0	-100	0	230	101300000	1000	0	0	-1	206
18220955	5928	1136	0	-100	0	230	101300000	1000	0	0	-1	206
18233515	5941	1142	0	-100	0	230	101300000	1000	0	0	-1	206
18246075	5934	1130	0	-100	0	230	101300000	1000	0	0	-1	206
18258635	5939	1130	0	-100	0	230	101300000	1000	0	0	-1	206
18271195	5936	1137	0	-100	0	230	101300000	1000	0	0	-1	206
18283755	5939	1128	0	-100	0	230	101300000	1000	0	0	-1	206
18296315	5932	1134	0	-100	0	230	101300000	1000	0	0	-1	206
18308875	5937	1129	0	-100	0	230	101300000	1000	0	0	-1	206
18321435	5935	1141	0	-100	0	230	101300000	1000	0	0	-1	206
18333995	5937	1134	0	-100	0	230	101300000	1000	0	0	-1	206
18346555	5931	1134	0	-100	0	230	101300000	1000	0	0	-1	206
18359115	5931	1139	0	-100	0	230	101300000	1000	0	0	-1	206
18371675	5938	1131	0	-100	0	230	101300000	1000	0	0	-1	206
18384235	5934	1130	0	-100	0	230	101300000	1000	0	0	-1	206
18396795	5940	1138	0	-100	0	230	101300000	1000	0	0	-1	206
18409355	5931	1133	0	-100	0	230	101300000	1000	0	0	-1	206
18421915	5936	1138	0	-100	0	230	101300000	1000	0	0	-1	206
18434475	5940	1131	0	-100	0	230	101300000	1000	0	0	-1	206
18447035	5935	1134	0	-100	0	230	101300000	1000	0	0	-1	206
18459595	5939	1130	0	-100	0	230	101300000	1000	0	0	-1	206
18472155	5939	1131	0	-100	0	230	101300000	1000	0	0	-1	206
18484715	5939	1130	0	-100	0	230	101300000	1000	0	0	-1	206
18497275	5933	1135	0	-100	0	230	101300000	1000	0	0	-1	206
18509835	5941	1138	0	-100	0	230	101300000	1000	0	0	-1	206
18522395	5932	1138	0	-100	0	230	101300000	1000	0	0	-1	206
18534955	5943	1131	0	-100	0	230	101300000	1000	0	0	-1	206
18547515	5928	1138	0	-100	0	230	101300000	1000	0	0	-1	206
18560075	5938	1134	0	-100	0	230	101300000	1000	0	0	-1	206
18572635	5934	1131	0	-100	0	230	101300000	1000	0	0	-1	206
18585195	5935	1140	0	-100	0	230	101300000	1000	0	0	-1	206
18597755	5935	1127	0	-100	0	230	101300000	1000	0	0	-1	206
18610315	5936	1136	0	-100	0	230	101300000	1000	0	0	-1	206
18622875	5933	1133	0	-100	0	230	101300000	1000	0	0	-1	206
18635435	5937	1129	0	-100	0	230	101300000	1000	0	0	-1	206
18647995	5928	1125	0	-100	0	230	101300000	1000	0	0	-1	206
18660555	5937	1139	0	-100	0	230	101300000	1000	0	0	-1	206
18673115	5938	1129	0	-100	0	230	101300000	1000	0	0	-1	206
18685675	5937	1138	0	-100	0	230	101300000	1000	0	0	-1	206
18698235	5941	1131	0	-100	0	230	101300000	1000	0	0	-1	206
18710795	5932	1132	0	-100	0	230	101300000	1000	0	0	-1	206
18723355	5936	1134	0	-100	0	230	101300000	1000	0	0	-1	206
18735915	5937	1133	0	-100	0	230	101300000	1000	0	0	-1	206
18748475	5931	1136	0	-100	0	230	101300000	1000	0	0	-1	206
18761035	5940	1132	0	-100	0	230	101300000	1000	0	0	-1	206
18773595	5936	1133	0	-100	0	230	101300000	1000	0	0	-1	206
18786155	5950	1140	0	-100	0	230	101300000	1000	0	0	-1	206
18798715	5930	1132	0	-100	0	230	101300000	1000	0	0	-1	206
18811275	5934	1141	0	-100	0	230	101300000	1000	0	0	-1	206
18823835	5941	1136	0	-100	0	230	101300000	1000	0	0	-1	206
18836395	5936	1125	0	-100	0	230	101300000	1000	0	0	-1	206
18848955	5932	1138	0	-100	0	230	101300000	1000	0	0	-1	206
18861515	5941	1131	0	-100	0	230	101300000	1000	0	0	-1	206
18874075	5936	1131	0	-100	0	230	101300000	1000	0	0	-1	206
18886635	5936	1123	0	-100	0	230	101300000	1000	0	0	-1	206
18899195	5937	1126	0	-100	0	230	101300000	1000	0	0	-1	206
18911755	5933	1136	0	-100	0	230	101300000	1000	0	0	-1	206
18924315	5938	1128	0	-100	0	230	101300000	1000	0	0	-1	206
18936875	5939	1130	0	-100	0	230	101300000	1000	0	0	-1	206
18949435	5932	1131	0	-100	0	230	101300000	1000	0	0	-1	206
18961995	5933	1132	0	-100	0	230	101300000	1000	0	0	-1	206
18974555	5943	1130	0	-100	0	230	101300000	1000	0	0	-1	206
18987115	5934	1128	0	-100	0	230	101300000	1000	0	0	-1	206
18999675	5933	1140	0	-100	0	230	101300000	1000	0	0	-1	206
19012235	5932	1125	0	-100	0	230	101300000	1000	0	0	-1	206
19024795	5937	1137	0	-100	0	230	101300000	1000	0	0	-1	206
19037355	5935	1132	0	-100	0	230	101300000	1000	0	0	-1	206
19049915	5934	1136	0	-100	0	230	101300000	1000	0	0	-1	206
19062475	5941	1127	0	-100	0	230	101300000	1000	0	0	-1	206
19075035	5936	1131	0	-100	0	230	101300000	1000	0	0	-1	206
19087595	5944	1122	0	-100	0	230	101300000	1000	0	0	-1	206
19100155	5942	1132	0	-100	0	230	101300000	1000	0	0	-1	206
19112715	5937	1140	0	-100	0	230	101300000	1000	0	0	-1	206
19125275	5941	1132	0	-100	0	230	101300000	1000	0	0	-1	206
19137835	5930	1129	0	-100	0	230	101300000	1000	0	0	-1	206
19150395	5932	1133	0	-100	0	230	101300000	1000	0	0	-1	206
19162955	5941	1132	0	-100	0	230	101300000	1000	0	0	-1	206
19175515	5940	1137	0	-100	0	230	101300000	1000	0	0	-1	206
19188075	5941	1133	0	-100	0	230	101300000	1000	0	0	-1	206
19200635	5932	1137	0	-100	0	230	101300000	1000	0	0	-1	206
19213195	5937	1134	0	-100	0	230	101300000	1000	0	0	-1	206
19225755	5935	1134	0	-100	0	230	101300000	1000	0	0	-1	206
19238315	5939	1137	0	-100	0	230	101300000	1000	0	0	-1	206
19250875	5933	1137	0	-100	0	230	101300000	1000	0	0	-1	206
19263435	5941	1129	0	-100	0	230	101300000	1000	0	0	-1	206
19275995	5936	1131	0	-100	0	230	101300000	1000	0	0	-1	206
19288555	5943	1136	0	-100	0	230	101300000	1000	0	0	-1	206
19301115	5932	1138	0	-100	0	230	101300000	1000	0	0	-1	206
19313675	5936	1129	0	-100	0	230	101300000	1000	0	0	-1	206
19326235	5931	1133	0	-100	0	230	101300000	1000	0	0	-1	206
19338795	5935	1131	0	-100	0	230	101300000	1000	0	0	-1	206
19351355	5941	1131	0	-100	0	230	101300000	1000	0	0	-1	206
19363915	5933	1130	0	-100	0	230	101300000	1000	0	0	-1	206
19376475	5937	1126	0	-100	0	230	101300000	1000	0	0	-1	206
19389035	5932	1137	0	-100	0	230	101300000	1000	0	0	-1	206
19401595	5941	1134	0	-100	0	230	101300000	1000	0	0	-1	206
19414155	5940	1131	0	-100	0	230	101300000	1000	0	0	-1	206
19426715	5936	1127	0	-100	0	230	101300000	1000	0	0	-1	206
19439275	5933	1136	0	-100	0	230	101300000	1000	0	0	-1	206
19451835	5936	1121	0	-100	0	230	101300000	1000	0	0	-1	206
19464395	5932	1129	0	-100	0	230	101300000	1000	0	0	-1	206
19476955	5940	1134	0	-100	0	230	101300000	1000	0	0	-1	206
19489515	5941	1129	0	-100	0	230	101300000	1000	0	0	-1	206
19502075	5936	1136	0	-100	0	230	101300000	1000	0	0	-1	206
19514635	5940	1132	0	-100	0	230	101300000	1000	0	0	-1	206
19527195	5937	1138	0	-100	0	230	101300000	1000	0	0	-1	206
19539755	5933	1138	0	-100	0	230	101300000	1000	0	0	-1	206
19552315	5940	1128	0	-100	0	230	101300000	1000	0	0	-1	206
19564875	5932	1134	0	-100	0	230	101300000	1000	0	0	-1	206
19577435	5931	1134	0	-100	0	230	101300000	1000	0	0	-1	206
19589995	5936	1138	0	-100	0	230	101300000	1000	0	0	-1	206
19602555	5934	1134	0	-100	0	230	101300000	1000	0	0	-1	206
19615115	5941	1137	0	-100	0	230	101300000	1000	0	0	-1	206
19627675	5941	1135	0	-100	0	230	101300000	1000	0	0	-1	206
19640235	5933	1140	0	-100	0	230	101300000	1000	0	0	-1	206
19652795	5939	1131	0	-100	0	230	101300000	1000	0	0	-1	206
19665355	5933	1133	0	-100	0	230	101300000	1000	0	0	-1	206
19677915	5940	1135	0	-100	0	230	101300000	1000	0	0	-1	206
19690475	5932	1134	0	-100	0	230	101300000	1000	0	0	-1	206
19703035	5936	1126	0	-100	0	230	101300000	1000	0	0	-1	206
19715595	5935	1139	0	-100	0	230	101300000	1000	0	0	-1	206
19728155	5945	1138	0	-100	0	230	101300000	1000	0	0	-1	206
19740715	5936	1133	0	-100	0	230	101300000	1000	0	0	-1	206
19753275	5932	1140	0	-100	0	230	101300000	1000	0	0	-1	206
19765835	5933	1135	0	-100	0	230	101300000	1000	0	0	-1	206
19778395	5933	1131	0	-100	0	230	101300000	1000	0	0	-1	206
19790955	5937	1137	0	-100	0	230	101300000	1000	0	0	-1	206
19803515	5941	1136	0	-100	0	230	101300000	1000	0	0	-1	206
19816075	5937	1140	0	-100	0	230	101300000	1000	0	0	-1	206
19828635	5936	1125	0	-100	0	230	101300000	1000	0	0	-1	206
19841195	5931	1127	0	-100	0	230	101300000	1000	0	0	-1	206
19853755	5943	1135	0	-100	0	230	101300000	1000	0	0	-1	206
19866315	5934	1137	0	-100	0	230	101300000	1000	0	0	-1	206
19878875	5941	1136	0	-100	0	230	101300000	1000	0	0	-1	206
19891435	5933	1136	0	-100	0	230	101300000	1000	0	0	-1	206
19903995	5943	1131	0	-100	0	230	101300000	1000	0	0	-1	206
19916555	5933	1133	0	-100	0	230	101300000	1000	0	0	-1	206
19929115	5943	1127	0	-100	0	230	101300000	1000	0	0	-1	206
19941675	5936	1131	0	-100	0	230	101300000	1000	0	0	-1	206
19954235	5941	1134	0	-100	0	230	101300000	1000	0	0	-1	206
19966795	5932	1138	0	-100	0	230	101300000	1000	0	0	-1	206
19979355	5937	1134	0	-100	0	230	101300000	1000	0	0	-1	206
19991915	5937	1132	0	-100	0	230	101300000	1000	0	0	-1	206
20004475	5936	1136	0	-100	0	230	101300000	1000	0	0	-1	206
20017035	5936	1134	0	-100	0	230	101300000	1000	0	0	-1	206
20029595	5939	1137	0	-100	0	230	101300000	1000	0	0	-1	206
20042155	5947	1137	0	-100	0	230	101300000	1000	0	0	-1	206
20054715	5937	1120	0	-100	0	230	101300000	1000	0	0	-1	206
20067275	5937	1130	0	-100	0	230	101300000	1000	0	0	-1	206
20079835	5932	1135	0	-100	0	230	101300000	1000	0	0	-1	206
20092395	5933	1132	0	-100	0	230	101300000	1000	0	0	-1	206
20104955	5938	1128	0	-100	0	230	101300000	1000	0	0	-1	206
20117515	5936	1128	0	-100	0	230	101300000	1000	0	0	-1	206
20130075	5936	1133	0	-100	0	230	101300000	1000	0	0	-1	206
20142635	5937	1131	0	-100	0	230	101300000	1000	0	0	-1	206
20155195	5937	1139	0	-100	0	230	101300000	1000	0	0	-1	206
20167755	5931	1131	0	-100	0	230	101300000	1000	0	0	-1	206
20180315	5937	1137	0	-100	0	230	101300000	1000	0	0	-1	206
20192875	5936	1137	0	-100	0	230	101300000	1000	0	0	-1	206
20205435	5938	1131	0	-100	0	230	101300000	1000	0	0	-1	206
20217995	5932	1134	0	-100	0	230	101300000	1000	0	0	-1	206
20230555	5944	1130	0	-100	0	230	101300000	1000	0	0	-1	206
20243115	5937	1129	0	-100	0	230	101300000	1000	0	0	-1	206
20255675	5935	1123	0	-100	0	230	101300000	1000	0	0	-1	206
20268235	5931	1127	0	-100	0	230	101300000	1000	0	0	-1	206
20280795	5942	1128	0	-100	0	230	101300000	1000	0	0	-1	206
20293355	5938	1134	0	-100	0	230	101300000	1000	0	0	-1	206
20305915	5932	1130	0	-100	0	230	101300000	1000	0	0	-1	206
20318475	5941	1122	0	-100	0	230	101300000	1000	0	0	-1	206
20331035	5931	1127	0	-100	0	230	101300000	1000	0	0	-1	206
20343595	5936	1140	0	-100	0	230	101300000	1000	0	0	-1	206
20356155	5943	1131	0	-100	0	230	101300000	1000	0	0	-1	206
20368715	5932	1134	0	-100	0	230	101300000	1000	0	0	-1	206
20381275	5936	1133	0	-100	0	230	101300000	1000	0	0	-1	206
20393835	5940	1136	0	-100	0	230	101300000	1000	0	0	-1	206
20406395	5935	1134	0	-100	0	230	101300000	1000	0	0	-1	206
20418955	5936	1132	0	-100	0	230	101300000	1000	0	0	-1	206
20431515	5935	1135	0	-100	0	230	101300000	1000	0	0	-1	206
20444075	5933	1131	0	-100	0	230	101300000	1000	0	0	-1	206
20456635	5940	1132	0	-100	0	230	101300000	1000	0	0	-1	206
20469195	5936	1138	0	-100	0	230	101300000	1000	0	0	-1	206
20481755	5940	1124	0	-100	0	230	101300000	1000	0	0	-1	206
20494315	5936	1133	0	-100	0	230	101300000	1000	0	0	-1	206
20506875	5940	1139	0	-100	0	230	101300000	1000	0	0	-1	206
20519435	5932	1133	0	-100	0	230	101300000	1000	0	0	-1	206
20531995	5933	1127	0	-100	0	230	101300000	1000	0	0	-1	206
20544555	5944	1133	0	-100	0	230	101300000	1000	0	0	-1	206
20557115	5932	1129	0	-100	0	230	101300000	1000	0	0	-1	206
20569675	5934	1133	0	-100	0	230	101300000	1000	0	0	-1	206
20582235	5939	1121	0	-100	0	230	101300000	1000	0	0	-1	206
20594795	5932	1134	0	-100	0	230	101300000	1000	0	0	-1	206
20607355	5937	1135	0	-100	0	230	101300000	1000	0	0	-1	206
20619915	5941	1131	0	-100	0	230	101300000	1000	0	0	-1	206
20632475	5932	1135	0	-100	0	230	101300000	1000	0	0	-1	206
20645035	5936	1140	0	-100	0	230	101300000	1000	0	0	-1	206
20657595	5941	1137	0	-100	0	230	101300000	1000	0	0	-1	206
20670155	5939	1129	0	-100	0	230	101300000	1000	0	0	-1	206
20682715	5936	1139	0	-100	0	230	101300000	1000	0	0	-1	206
20695275	5941	1133	0	-100	0	230	101300000	1000	0	0	-1	206
20707835	5937	1138	0	-100	0	230	101300000	1000	0	0	-1	206
20720395	5938	1140	0	-100	0	230	101300000	1000	0	0	-1	206
20732955	5936	1137	0	-100	0	230	101300000	1000	0	0	-1	206
20745515	5933	1140	0	-100	0	230	101300000	1000	0	0	-1	206
20758075	5941	1137	0	-100	0	230	101300000	1000	0	0	-1	206
20770635	5933	1130	0	-100	0	230	101300000	1000	0	0	-1	206
20783195	5933	1140	0	-100	0	230	101300000	1000	0	0	-1	206
20795755	5944	1126	0	-100	0	230	101300000	1000	0	0	-1	206
20808315	5934	1136	0	-100	0	230	101300000	1000	0	0	-1	206
20820875	5933	1138	0	-100	0	230	101300000	1000	0	0	-1	206
20833435	5941	1136	0	-100	0	230	101300000	1000	0	0	-1	206
20845995	5934	1130	0	-100	0	230	101300000	1000	0	0	-1	206
20858555	5932	1130	0	-100	0	230	101300000	1000	0	0	-1	206
20871115	5941	1127	0	-100	0	230	101300000	1000	0	0	-1	206
20883675	5936	1133	0	-100	0	230	101300000	1000	0	0	-1	206
20896235	5935	1130	0	-100	0	230	101300000	1000	0	0	-1	206
20908795	5936	1130	0	-100	0	230	101300000	1000	0	0	-1	206
20921355	5934	1134	0	-100	0	230	101300000	1000	0	0	-1	206
20933915	5940	1133	0	-100	0	230	101300000	1000	0	0	-1	206
20946475	5932	1137	0	-100	0	230	101300000	1000	0	0	-1	206
20959035	5936	1127	0	-100	0	230	101300000	1000	0	0	-1	206
20971595	5939	1130	0	-100	0	230	101300000	1000	0	0	-1	206
20984155	5941	1128	0	-100	0	230	101300000	1000	0	0	-1	206
20996715	5935	1133	0	-100	0	230	101300000	1000	0	0	-1	206
21009275	5941	1134	0	-100	0	230	101300000	1000	0	0	-1	206
21021835	5930	1132	0	-100	0	230	101300000	1000	0	0	-1	206
21034395	5933	1134	0	-100	0	230	101300000	1000	0	0	-1	206
21046955	5939	1134	0	-100	0	230	101300000	1000	0	0	-1	206
21059515	5936	1130	0	-100	0	230	101300000	1000	0	0	-1	206
21072075	5938	1133	0	-100	0	230	101300000	1000	0	0	-1	206
21084635	5936	1131	0	-100	0	230	101300000	1000	0	0	-1	206
21097195	5935	1135	0	-100	0	230	101300000	1000	0	0	-1	206
21109755	5938	1127	0	-100	0	230	101300000	1000	0	0	-1	206
21122315	5936	1132	0	-100	0	230	101300000	1000	0	0	-1	206
21134875	5942	1133	0	-100	0	230	101300000	1000	0	0	-1	206
21147435	5938	1140	0	-100	0	230	101300000	1000	0	0	-1	206
21159995	5938	1134	0	-100	0	230	101300000	1000	0	0	-1	206
21172555	5938	1133	0	-100	0	230	101300000	1000	0	0	-1	206
21185115	5936	1138	0	-100	0	230	101300000	1000	0	0	-1	206
21197675	5940	1136	0	-100	0	230	101300000	1000	0	0	-1	206
21210235	5932	1138	0	-100	0	230	101300000	1000	0	0	-1	206
21222795	5941	1131	0	-100	0	230	101300000	1000	0	0	-1	206
21235355	5936	1134	0	-100	0	230	101300000	1000	0	0	-1	206
21247915	5940	1130	0	-100	0	230	101300000	1000	0	0	-1	206
21260475	5932	1127	0	-100	0	230	101300000	1000	0	0	-1	206
21273035	5941	1137	0	-100	0	230	101300000	1000	0	0	-1	206
21285595	5932	1132	0	-100	0	230	101300000	1000	0	0	-1	206
21298155	5942	1129	0	-100	0	230	101300000	1000	0	0	-1	206
21310715	5938	1127	0	-100	0	230	101300000	1000	0	0	-1	206
21323275	5934	1129	0	-100	0	230	101300000	1000	0	0	-1	206
21335835	5940	1126	0	-100	0	230	101300000	1000	0	0	-1	206
21348395	5934	1133	0	-100	0	230	101300000	1000	0	0	-1	206
21360955	5939	1125	0	-100	0	230	101300000	1000	0	0	-1	206
21373515	5936	1132	0	-100	0	230	101300000	1000	0	0	-1	206
21386075	5932	1133	0	-100	0	230	101300000	1000	0	0	-1	206
21398635	5940	1126	0	-100	0	230	101300000	1000	0	0	-1	206
21411195	5936	1136	0	-100	0	230	101300000	1000	0	0	-1	206
21423755	5938	1133	0	-100	0	230	101300000	1000	0	0	-1	206
21436315	5940	1139	0	-100	0	230	101300000	1000	0	0	-1	206
21448875	5933	1124	0	-100	0	230	101300000	1000	0	0	-1	206
21461435	5941	1133	0	-100	0	230	101300000	1000	0	0	-1	206
21473995	5931	1132	0	-100	0	230	101300000	1000	0	0	-1	206
21486555	5936	1138	0	-100	0	230	101300000	1000	0	0	-1	206
21499115	5937	1128	0	-100	0	230	101300000	1000	0	0	-1	206
21511675	5932	1135	0	-100	0	230	101300000	1000	0	0	-1	206
21524235	5935	1138	0	-100	0	230	101300000	1000	0	0	-1	206
21536795	5942	1141	0	-100	0	230	101300000	1000	0	0	-1	206
21549355	5934	1129	0	-100	0	230	101300000	1000	0	0	-1	206
21561915	5938	1134	0	-100	0	230	101300000	1000	0	0	-1	206
21574475	5935	1137	0	-100	0	230	101300000	1000	0	0	-1	206
21587035	5937	1133	0	-100	0	230	101300000	1000	0	0	-1	206
21599595	5932	1131	0	-100	0	230	101300000	1000	0	0	-1	206
21612155	5944	1136	0	-100	0	230	101300000	1000	0	0	-1	206
21624715	5938	1127	0	-100	0	230	101300000	1000	0	0	-1	206
21637275	5930	1135	0	-100	0	230	101300000	1000	0	0	-1	206
21649835	5932	1132	0	-100	0	230	101300000	1000	0	0	-1	206
21662395	5940	1125	0	-100	0	230	101300000	1000	0	0	-1	206
21674955	5932	1132	0	-100	0	230	101300000	1000	0	0	-1	206
21687515	5937	1129	0	-100	0	230	101300000	1000	0	0	-1	206
21700075	5938	1131	0	-100	0	230	101300000	1000	0	0	-1	206
21712635	5935	1138	0	-100	0	230	101300000	1000	0	0	-1	206
21725195	5940	1131	0	-100	0	230	101300000	1000	0	0	-1	206
21737755	5938	1130	0	-100	0	230	101300000	1000	0	0	-1	206
21750315	5938	1136	0	-100	0	230	101300000	1000	0	0	-1	206
21762875	5936	1134	0	-100	0	230	101300000	1000	0	0	-1	206
21775435	5936	1137	0	-100	0	230	101300000	1000	0	0	-1	206
21787995	5941	1133	0	-100	0	230	101300000	1000	0	0	-1	206
21800555	5934	1133	0	-100	0	230	101300000	1000	0	0	-1	206
21813115	5933	1133	0	-100	0	230	101300000	1000	0	0	-1	206
21825675	5941	1133	0	-100	0	230	101300000	1000	0	0	-1	206
21838235	5929	1129	0	-100	0	230	101300000	1000	0	0	-1	206
21850795	5934	1136	0	-100	0	230	101300000	1000	0	0	-1	206
21863355	5941	1133	0	-100	0	230	101300000	1000	0	0	-1	206
21875915	5936	1132	0	-100	0	230	101300000	1000	0	0	-1	206
21888475	5938	1131	0	-100	0	230	101300000	1000	0	0	-1	206
21901035	5934	1138	0	-100	0	230	101300000	1000	0	0	-1	206
21913595	5937	1132	0	-100	0	230	101300000	1000	0	0	-1	206
21926155	5941	1132	0	-100	0	230	101300000	1000	0	0	-1	206
21938715	5938	1131	0	-100	0	230	101300000	1000	0	0	-1	206
21951275	5932	1131	0	-100	0	230	101300000	1000	0	0	-1	206
21963835	5945	1131	0	-100	0	230	101300000	1000	0	0	-1	206
21976395	5936	1130	0	-100	0	230	101300000	1000	0	0	-1	206
21988955	5936	1136	0	-100	0	230	101300000	1000	0	0	-1	206
22001515	5939	1135	0	-100	0	230	101300000	1000	0	0	-1	206
22014075	5933	1128	0	-100	0	230	101300000	1000	0	0	-1	206
22026635	5941	1130	0	-100	0	230	101300000	1000	0	0	-1	206
22039195	5938	1132	0	-100	0	230	101300000	1000	0	0	-1	206
22051755	5935	1128	0	-100	0	230	101300000	1000	0	0	-1	206
22064315	5936	1131	0	-100	0	230	101300000	1000	0	0	-1	206
22076875	5939	1130	0	-100	0	230	101300000	1000	0	0	-1	206
22089435	5931	1134	0	-100	0	230	101300000	1000	0	0	-1	206
22101995	5933	1140	0	-100	0	230	101300000	1000	0	0	-1	206
22114555	5941	1134	0	-100	0	230	101300000	1000	0	0	-1	206
22127115	5936	1137	0	-100	0	230	101300000	1000	0	0	-1	206
22139675	5936	1136	0	-100	0	230	101300000	1000	0	0	-1	206
22152235	5943	1131	0	-100	0	230	101300000	1000	0	0	-1	206
22164795	5930	1130	0	-100	0	230	101300000	1000	0	0	-1	206
22177355	5935	1132	0	-100	0	230	101300000	1000	0	0	-1	206
22189915	5936	1132	0	-100	0	230	101300000	1000	0	0	-1	206
22202475	5933	1138	0	-100	0	230	101300000	1000	0	0	-1	206
22215035	5932	1128	0	-100	0	230	101300000	1000	0	0	-1	206
22227595	5933	1131	0	-100	0	230	101300000	1000	0	0	-1	206
22240155	5944	1126	0	-100	0	230	101300000	1000	0	0	-1	206
22252715	5933	1131	0	-100	0	230	101300000	1000	0	0	-1	206
22265275	5941	1130	0	-100	0	230	101300000	1000	0	0	-1	206
22277835	5936	1132	0	-100	0	230	101300000	1000	0	0	-1	206
22290395	5939	1129	0	-100	0	230	101300000	1000	0	0	-1	206
22302955	5932	1132	0	-100	0	230	101300000	1000	0	0	-1	206
22315515	5943	1133	0	-100	0	230	101300000	1000	0	0	-1	206
22328075	5931	1135	0	-100	0	230	101300000	1000	0	0	-1	206
22340635	5941	1133	0	-100	0	230	101300000	1000	0	0	-1	206
22353195	5930	1132	0	-100	0	230	101300000	1000	0	0	-1	206
22365755	5945	1146	0	-100	0	230	101300000	1000	0	0	-1	206
22378315	5928	1136	0	-100	0	230	101300000	1000	0	0	-1	206
22390875	5945	1135	0	-100	0	230	101300000	1000	0	0	-1	206
22403435	5931	1132	0	-100	0	230	101300000	1000	0	0	-1	206
22415995	5941	1137	0	-100	0	230	101300000	1000	0	0	-1	206
22428555	5934	1141	0	-100	0	230	101300000	1000	0	0	-1	206
22441115	5936	1141	0	-100	0	230	101300000	1000	0	0	-1	206
22453675	5940	1133	0	-100	0	230	101300000	1000	0	0	-1	206
22466235	5945	1132	0	-100	0	230	101300000	1000	0	0	-1	206
22478795	5932	1133	0	-100	0	230	101300000	1000	0	0	-1	206
22491355	5936	1125	0	-100	0	230	101300000	1000	0	0	-1	206
22503915	5939	1130	0	-100	0	230	101300000	1000	0	0	-1	206
22516475	5936	1134	0	-100	0	230	101300000	1000	0	0	-1	206
22529035	5936	1130	0	-100	0	230	101300000	1000	0	0	-1	206
22541595	5936	1134	0	-100	0	230	101300000	1000	0	0	-1	206
22554155	5946	1134	0	-100	0	230	101300000	1000	0	0	-1	206
22566715	5936	1136	0	-100	0	230	101300000	1000	0	0	-1	206
22579275	5943	1127	0	-100	0	230	101300000	1000	0	0	-1	206
22591835	5932	1133	0	-100	0	230	101300000	1000	0	0	-1	206
22604395	5945	1139	0	-100	0	230	101300000	1000	0	0	-1	206
22616955	5932	1131	0	-100	0	230	101300000	1000	0	0	-1	206
22629515	5941	1129	0	-100	0	230	101300000	1000	0	0	-1	206
22642075	5932	1126	0	-100	0	230	101300000	1000	0	0	-1	206
22654635	5937	1135	0	-100	0	230	101300000	1000	0	0	-1	206
22667195	5936	1131	0	-100	0	230	101300000	1000	0	0	-1	206
22679755	5932	1139	0	-100	0	230	101300000	1000	0	0	-1	206
22692315	5943	1132	0	-100	0	230	101300000	1000	0	0	-1	206
22704875	5936	1132	0	-100	0	230	101300000	1000	0	0	-1	206
22717435	5941	1135	0	-100	0	230	101300000	1000	0	0	-1	206
22729995	5938	1136	0	-100	0	230	101300000	1000	0	0	-1	206
22742555	5940	1132	0	-100	0	230	101300000	1000	0	0	-1	206
22755115	5936	1136	0	-100	0	230	101300000	1000	0	0	-1	206
22767675	5934	1138	0	-100	0	230	101300000	1000	0	0	-1	206
22780235	5941	1130	0	-100	0	230	101300000	1000	0	0	-1	206
22792795	5936	1143	0	-100	0	230	101300000	1000	0	0	-1	206
22805355	5936	1131	0	-100	0	230	101300000	1000	0	0	-1	206
22817915	5934	1137	0	-100	0	230	101300000	1000	0	0	-1	206
22830475	5931	1134	0	-100	0	230	101300000	1000	0	0	-1	206
22843035	5937	1134	0	-100	0	230	101300000	1000	0	0	-1	206
22855595	5937	1130	0	-100	0	230	101300000	1000	0	0	-1	206
22868155	5941	1133	0	-100	0	230	101300000	1000	0	0	-1	206
22880715	5937	1132	0	-100	0	230	101300000	1000	0	0	-1	206
22893275	5934	1130	0	-100	0	230	101300000	1000	0	0	-1	206
22905835	5936	1130	0	-100	0	230	101300000	1000	0	0	-1	206
22918395	5937	1140	0	-100	0	230	101300000	1000	0	0	-1	206
22930955	5936	1130	0	-100	0	230	101300000	1000	0	0	-1	206
22943515	5944	1138	0	-100	0	230	101300000	1000	0	0	-1	206
22956075	5932	1131	0	-100	0	230	101300000	1000	0	0	-1	206
22968635	5942	1135	0	-100	0	230	101300000	1000	0	0	-1	206
22981195	5931	1133	0	-100	0	230	101300000	1000	0	0	-1	206
22993755	5945	1135	0	-100	0	230	101300000	1000	0	0	-1	206
23006315	5929	1137	0	-100	0	230	101300000	1000	0	0	-1	206
23018875	5941	1135	0	-100	0	230	101300000	1000	0	0	-1	206
23031435	5936	1133	0	-100	0	230	101300000	1000	0	0	-1	206
23043995	5940	1127	0	-100	0	230	101300000	1000	0	0	-1	206
23056555	5934	1135	0	-100	0	230	101300000	1000	0	0	-1	206
23069115	5933	1143	0	-100	0	230	101300000	1000	0	0	-1	206
23081675	5938	1125	0	-100	0	230	101300000	1000	0	0	-1	206
23094235	5938	1136	0	-100	0	230	101300000	1000	0	0	-1	206
23106795	5938	1131	0	-100	0	230	101300000	1000	0	0	-1	206
23119355	5936	1134	0	-100	0	230	101300000	1000	0	0	-1	206
23131915	5937	1127	0	-100	0	230	101300000	1000	0	0	-1	206
23144475	5934	1134	0	-100	0	230	101300000	1000	0	0	-1	206
23157035	5943	1135	0	-100	0	230	101300000	1000	0	0	-1	206
23169595	5936	1134	0	-100	0	230	101300000	1000	0	0	-1	206
23182155	5948	1123	0	-100	0	230	101300000	1000	0	0	-1	206
23194715	5936	1135	0	-100	0	230	101300000	1000	0	0	-1	206
23207275	5941	1131	0	-100	0	230	101300000	1000	0	0	-1	206
23219835	5934	1134	0	-100	0	230	101300000	1000	0	0	-1	206
23232395	5940	1126	0	-100	0	230	101300000	1000	0	0	-1	206
23244955	5932	1133	0	-100	0	230	101300000	1000	0	0	-1	206
23257515	5941	1120	0	-100	0	230	101300000	1000	0	0	-1	206
23270075	5934	1138	0	-100	0	230	101300000	1000	0	0	-1	206
23282635	5933	1134	0	-100	0	230	101300000	1000	0	0	-1	206
23295195	5936	1132	0	-100	0	230	101300000	1000	0	0	-1	206
23307755	5945	1130	0	-100	0	230	101300000	1000	0	0	-1	206
23320315	5932	1141	0	-100	0	230	101300000	1000	0	0	-1	206
23332875	5937	1137	0	-100	0	230	101300000	1000	0	0	-1	206
23345435	5934	1136	0	-100	0	230	101300000	1000	0	0	-1	206
23357995	5937	1132	0	-100	0	230	101300000	1000	0	0	-1	206
23370555	5934	1135	0	-100	0	230	101300000	1000	0	0	-1	206
23383115	5944	1133	0	-100	0	230	101300000	1000	0	0	-1	206
23395675	5936	1141	0	-100	0	230	101300000	1000	0	0	-1	206
23408235	5940	1133	0	-100	0	230	101300000	1000	0	0	-1	206
23420795	5934	1130	0	-100	0	230	101300000	1000	0	0	-1	206
23433355	5937	1137	0	-100	0	230	101300000	1000	0	0	-1	206
23445915	5932	1135	0	-100	0	230	101300000	1000	0	0	-1	206
23458475	5941	1133	0	-100	0	230	101300000	1000	0	0	-1	206
23471035	5936	1138	0	-100	0	230	101300000	1000	0	0	-1	206
23483595	5940	1134	0	-100	0	230	101300000	1000	0	0	-1	206
23496155	5944	1143	0	-100	0	230	101300000	1000	0	0	-1	206
23508715	5940	1139	0	-100	0	230	101300000	1000	0	0	-1	206
23521275	5935	1133	0	-100	0	230	101300000	1000	0	0	-1	206
23533835	5938	1129	0	-100	0	230	101300000	1000	0	0	-1	206
23546395	5936	1129	0	-100	0	230	101300000	1000	0	0	-1	206
23558955	5941	1126	0	-100	0	230	101300000	1000	0	0	-1	206
23571515	5936	1135	0	-100	0	230	101300000	1000	0	0	-1	206
23584075	5944	1134	0	-100	0	230	101300000	1000	0	0	-1	206
23596635	5936	1132	0	-100	0	230	101300000	1000	0	0	-1	206
23609195	5941	1139	0	-100	0	230	101300000	1000	0	0	-1	206
23621755	5936	1134	0	-100	0	230	101300000	1000	0	0	-1	206
23634315	5933	1137	0	-100	0	230	101300000	1000	0	0	-1	206
23646875	5935	1130	0	-100	0	230	101300000	1000	0	0	-1	206
23659435	5935	1137	0	-100	0	230	101300000	1000	0	0	-1	206
23671995	5935	1139	0	-100	0	230	101300000	1000	0	0	-1	206
23684555	5930	1129	0	-100	0	230	101300000	1000	0	0	-1	206
23697115	5934	1131	0	-100	0	230	101300000	1000	0	0	-1	206
23709675	5939	1128	0	-100	0	230	101300000	1000	0	0	-1	206
23722235	5936	1130	0	-100	0	230	101300000	1000	0	0	-1	206
23734795	5937	1137	0	-100	0	230	101300000	1000	0	0	-1	206
23747355	5936	1130	0	-100	0	230	101300000	1000	0	0	-1	206
23759915	5940	1132	0	-100	0	230	101300000	1000	0	0	-1	206
23772475	5931	1136	0	-100	0	230	101300000	1000	0	0	-1	206
23785035	5945	1138	0	-100	0	230	101300000	1000	0	0	-1	206
23797595	5936	1131	0	-100	0	230	101300000	1000	0	0	-1	206
23810155	5944	1130	0	-100	0	230	101300000	1000	0	0	-1	206
23822715	5932	1134	0	-100	0	230	101300000	1000	0	0	-1	206
23835275	5939	1130	0	-100	0	230	101300000	1000	0	0	-1	206
23847835	5943	1133	0	-100	0	230	101300000	1000	0	0	-1	206
23860395	5932	1129	0	-100	0	230	101300000	1000	0	0	-1	206
23872955	5938	1133	0	-100	0	230	101300000	1000	0	0	-1	206
23885515	5936	1132	0	-100	0	230	101300000	1000	0	0	-1	206
23898075	5945	1136	0	-100	0	230	101300000	1000	0	0	-1	206
23910635	5938	1137	0	-100	0	230	101300000	1000	0	0	-1	206
23923195	5934	1130	0	-100	0	230	101300000	1000	0	0	-1	206
23935755	5940	1133	0	-100	0	230	101300000	1000	0	0	-1	206
23948315	5930	1128	0	-100	0	230	101300000	1000	0	0	-1	206
23960875	5939	1131	0	-100	0	230	101300000	1000	0	0	-1	206
23973435	5936	1136	0	-100	0	230	101300000	1000	0	0	-1	206
23985995	5935	1137	0	-100	0	230	101300000	1000	0	0	-1	206
23998555	5937	1126	0	-100	0	230	101300000	1000	0	0	-1	206
24011115	5932	1136	0	-100	0	230	101300000	1000	0	0	-1	206
24023675	5943	1134	0	-100	0	230	101300000	1000	0	0	-1	206
24036235	5938	1132	0	-100	0	230	101300000	1000	0	0	-1	206
24048795	5940	1136	0	-100	0	230	101300000	1000	0	0	-1	206
24061355	5933	1136	0	-100	0	230	101300000	1000	0	0	-1	206
24073915	5938	1131	0	-100	0	230	101300000	1000	0	0	-1	206
24086475	5938	1136	0	-100	0	230	101300000	1000	0	0	-1	206
24099035	5928	1136	0	-100	0	230	101300000	1000	0	0	-1	206
24111595	5938	1131	0	-100	0	230	101300000	1000	0	0	-1	206
24124155	5935	1128	0	-100	0	230	101300000	1000	0	0	-1	206
24136715	5943	1133	0	-100	0	230	101300000	1000	0	0	-1	206
24149275	5932	1135	0	-100	0	230	101300000	1000	0	0	-1	206
24161835	5936	1130	0	-100	0	230	101300000	1000	0	0	-1	206
24174395	5936	1136	0	-100	0	230	101300000	1000	0	0	-1	206
24186955	5938	1129	0	-100	0	230	101300000	1000	0	0	-1	206
24199515	5939	1134	0	-100	0	230	101300000	1000	0	0	-1	206
24212075	5932	1138	0	-100	0	230	101300000	1000	0	0	-1	206
24224635	5941	1140	0	-100	0	230	101300000	1000	0	0	-1	206
24237195	5933	1137	0	-100	0	230	101300000	1000	0	0	-1	206
24249755	5937	1137	0	-100	0	230	101300000	1000	0	0	-1	206
24262315	5935	1130	0	-100	0	230	101300000	1000	0	0	-1	206
24274875	5934	1127	0	-100	0	230	101300000	1000	0	0	-1	206
24287435	5938	1137	0	-100	0	230	101300000	1000	0	0	-1	206
24299995	5936	1141	0	-100	0	230	101300000	1000	0	0	-1	206
24312555	5945	1134	0	-100	0	230	101300000	1000	0	0	-1	206
24325115	5936	1136	0	-100	0	230	101300000	1000	0	0	-1	206
24337675	5938	1132	0	-100	0	230	101300000	1000	0	0	-1	206
24350235	5935	1137	0	-100	0	230	101300000	1000	0	0	-1	206
24362795	5935	1130	0	-100	0	230	101300000	1000	0	0	-1	206
24375355	5937	1125	0	-100	0	230	101300000	1000	0	0	-1	206
24387915	5934	1141	0	-100	0	230	101300000	1000	0	0	-1	206
24400475	5941	1127	0	-100	0	230	101300000	1000	0	0	-1	206
24413035	5937	1137	0	-100	0	230	101300000	1000	0	0	-1	206
24425595	5941	1135	0	-100	0	230	101300000	1000	0	0	-1	206
24438155	5944	1142	0	-100	0	230	101300000	1000	0	0	-1	206
24450715	5939	1138	0	-100	0	230	101300000	1000	0	0	-1	206
24463275	5938	1131	0	-100	0	230	101300000	1000	0	0	-1	206
24475835	5935	1127	0	-100	0	230	101300000	1000	0	0	-1	206
24488395	5935	1130	0	-100	0	230	101300000	1000	0	0	-1	206
24500955	5933	1134	0	-100	0	230	101300000	1000	0	0	-1	206
24513515	5932	1137	0	-100	0	230	101300000	1000	0	0	-1	206
24526075	5939	1131	0	-100	0	230	101300000	1000	0	0	-1	206
24538635	5934	1132	0	-100	0	230	101300000	1000	0	0	-1	206
24551195	5934	1132	0	-100	0	230	101300000	1000	0	0	-1	206
24563755	5935	1135	0	-100	0	230	101300000	1000	0	0	-1	206
24576315	5937	1135	0	-100	0	230	101300000	1000	0	0	-1	206
24588875	5932	1131	0	-100	0	230	101300000	1000	0	0	-1	206
24601435	5943	1140	0	-100	0	230	101300000	1000	0	0	-1	206
24613995	5931	1133	0	-100	0	230	101300000	1000	0	0	-1	206
24626555	5941	1138	0	-100	0	230	101300000	1000	0	0	-1	206
24639115	5932	1138	0	-100	0	230	101300000	1000	0	0	-1	206
24651675	5939	1129	0	-100	0	230	101300000	1000	0	0	-1	206
24664235	5934	1134	0	-100	0	230	101300000	1000	0	0	-1	206
24676795	5939	1139	0	-100	0	230	101300000	1000	0	0	-1	206
24689355	5941	1136	0	-100	0	230	101300000	1000	0	0	-1	206
24701915	5936	1133	0	-100	0	230	101300000	1000	0	0	-1	206
24714475	5936	1138	0	-100	0	230	101300000	1000	0	0	-1	206
24727035	5934	1132	0	-100	0	230	101300000	1000	0	0	-1	206
24739595	5941	1139	0	-100	0	230	101300000	1000	0	0	-1	206
24752155	5941	1131	0	-100	0	230	101300000	1000	0	0	-1	206
24764715	5941	1134	0	-100	0	230	101300000	1000	0	0	-1	206
24777275	5934	1148	0	-100	0	230	101300000	1000	0	0	-1	206
24789835	5936	1139	0	-100	0	230	101300000	1000	0	0	-1	206
24802395	5938	1131	0	-100	0	230	101300000	1000	0	0	-1	206
24814955	5936	1131	0	-100	0	230	101300000	1000	0	0	-1	206
24827515	5934	1135	0	-100	0	230	101300000	1000	0	0	-1	206
24840075	5938	1137	0	-100	0	230	101300000	1000	0	0	-1	206
24852635	5936	1128	0	-100	0	230	101300000	1000	0	0	-1	206
24865195	5936	1136	0	-100	0	230	101300000	1000	0	0	-1	206
24877755	5932	1130	0	-100	0	230	101300000	1000	0	0	-1	206
24890315	5937	1131	0	-100	0	230	101300000	1000	0	0	-1	206
24902875	5935	1133	0	-100	0	230	101300000	1000	0	0	-1	206
24915435	5937	1131	0	-100	0	230	101300000	1000	0	0	-1	206
24927995	5928	1114	0	-100	0	230	101300000	1000	0	0	-1	206
24940555	5940	1133	0	-100	0	230	101300000	1000	0	0	-1	206
24953115	5939	1132	0	-100	0	230	101300000	1000	0	0	-1	206
24965675	5936	1133	0	-100	0	230	101300000	1000	0	0	-1	206
24978235	5940	1134	0	-100	0	230	101300000	1000	0	0	-1	206
24990795	5935	1137	0	-100	0	230	101300000	1000	0	0	-1	206
25003355	5936	1134	0	-100	0	230	101300000	1000	0	0	-1	206
25015915	5932	1137	0	-100	0	230	101300000	1000	0	0	-1	206
25028475	5938	1127	0	-100	0	230	101300000	1000	0	0	-1	206
25041035	5939	1138	0	-100	0	230	101300000	1000	0	0	-1	206
25053595	5936	1119	0	-100	0	230	101300000	1000	0	0	-1	206
25066155	5947	1126	0	-100	0	230	101300000	1000	0	0	-1	206
25078715	5931	1137	0	-100	0	230	101300000	1000	0	0	-1	206
25091275	5932	1132	0	-100	0	230	101300000	1000	0	0	-1	206
25103835	5941	1135	0	-100	0	230	101300000	1000	0	0	-1	206
25116395	5934	1132	0	-100	0	230	101300000	1000	0	0	-1	206
25128955	5937	1128	0	-100	0	230	101300000	1000	0	0	-1	206
25141515	5936	1129	0	-100	0	230	101300000	1000	0	0	-1	206
25154075	5938	1128	0	-100	0	230	101300000	1000	0	0	-1	206
25166635	5936	1133	0	-100	0	230	101300000	1000	0	0	-1	206
25179195	5932	1128	0	-100	0	230	101300000	1000	0	0	-1	206
25191755	5934	1127	0	-100	0	230	101300000	1000	0	0	-1	206
25204315	5936	1130	0	-100	0	230	101300000	1000	0	0	-1	206
25216875	5941	1131	0	-100	0	230	101300000	1000	0	0	-1	206
25229435	5935	1133	0	-100	0	230	101300000	1000	0	0	-1	206
25241995	5937	1135	0	-100	0	230	101300000	1000	0	0	-1	206
25254555	5935	1137	0	-100	0	230	101300000	1000	0	0	-1	206
25267115	5940	1136	0	-100	0	230	101300000	1000	0	0	-1	206
25279675	5933	1133	0	-100	0	230	101300000	1000	0	0	-1	206
25292235	5931	1139	0	-100	0	230	101300000	1000	0	0	-1	206
25304795	5943	1127	0	-100	0	230	101300000	1000	0	0	-1	206
25317355	5937	1134	0	-100	0	230	101300000	1000	0	0	-1	206
25329915	5936	1137	0	-100	0	230	101300000	1000	0	0	-1	206
25342475	5941	1134	0	-100	0	230	101300000	1000	0	0	-1	206
25355035	5938	1140	0	-100	0	230	101300000	1000	0	0	-1	206
25367595	5940	1132	0	-100	0	230	101300000	1000	0	0	-1	206
25380155	5941	1138	0	-100	0	230	101300000	1000	0	0	-1	206
25392715	5935	1125	0	-100	0	230	101300000	1000	0	0	-1	206
25405275	5941	1138	0	-100	0	230	101300000	1000	0	0	-1	206
25417835	5930	1136	0	-100	0	230	101300000	1000	0	0	-1	206
25430395	5942	1138	0	-100	0	230	101300000	1000	0	0	-1	206
25442955	5938	1128	0	-100	0	230	101300000	1000	0	0	-1	206
25455515	5941	1126	0	-100	0	230	101300000	1000	0	0	-1	206
25468075	5934	1133	0	-100	0	230	101300000	1000	0	0	-1	206
25480635	5941	1127	0	-100	0	230	101300000	1000	0	0	-1	206
25493195	5937	1134	0	-100	0	230	101300000	1000	0	0	-1	206
25505755	5941	1134	0	-100	0	230	101300000	1000	0	0	-1	206
25518315	5935	1132	0	-100	0	230	101300000	1000	0	0	-1	206
25530875	5936	1132	0	-100	0	230	101300000	1000	0	0	-1	206
25543435	5938	1127	0	-100	0	230	101300000	1000	0	0	-1	206
25555995	5930	1137	0	-100	0	230	101300000	1000	0	0	-1	206
25568555	5938	1138	0	-100	0	230	101300000	1000	0	0	-1	206
25581115	5937	1133	0	-100	0	230	101300000	1000	0	0	-1	206
25593675	5932	1133	0	-100	0	230	101300000	1000	0	0	-1	206
25606235	5939	1130	0	-100	0	230	101300000	1000	0	0	-1	206
25618795	5938	1128	0	-100	0	230	101300000	1000	0	0	-1	206
25631355	5932	1137	0	-100	0	230	101300000	1000	0	0	-1	206
25643915	5936	1128	0	-100	0	230	101300000	1000	0	0	-1	206
25656475	5936	1138	0	-100	0	230	101300000	1000	0	0	-1	206
25669035	5937	1129	0	-100	0	230	101300000	1000	0	0	-1	206
25681595	5933	1138	0	-100	0	230	101300000	1000	0	0	-1	206
25694155	5952	1137	0	-100	0	230	101300000	1000	0	0	-1	206
25706715	5940	1133	0	-100	0	230	101300000	1000	0	0	-1	206
25719275	5943	1141	0	-100	0	230	101300000	1000	0	0	-1	206
25731835	5934	1134	0	-100	0	230	101300000	1000	0	0	-1	206
25744395	5939	1132	0	-100	0	230	101300000	1000	0	0	-1	206
25756955	5934	1136	0	-100	0	230	101300000	1000	0	0	-1	206
25769515	5941	1136	0	-100	0	230	101300000	1000	0	0	-1	206
25782075	5936	1130	0	-100	0	230	101300000	1000	0	0	-1	206
25794635	5936	1130	0	-100	0	230	101300000	1000	0	0	-1	206
25807195	5933	1134	0	-100	0	230	101300000	1000	0	0	-1	206
25819755	5941	1137	0	-100	0	230	101300000	1000	0	0	-1	206
25832315	5932	1138	0	-100	0	230	101300000	1000	0	0	-1	206
25844875	5943	1137	0	-100	0	230	101300000	1000	0	0	-1	206
25857435	5932	1135	0	-100	0	230	101300000	1000	0	0	-1	206
25869995	5937	1136	0	-100	0	230	101300000	1000	0	0	-1	206
25882555	5937	1136	0	-100	0	230	101300000	1000	0	0	-1	206
25895115	5932	1130	0	-100	0	230	101300000	1000	0	0	-1	206
25907675	5937	1128	0	-100	0	230	101300000	1000	0	0	-1	206
25920235	5940	1135	0	-100	0	230	101300000	1000	0	0	-1	206
25932795	5945	1136	0	-100	0	230	101300000	1000	0	0	-1	206
25945355	5932	1135	0	-100	0	230	101300000	1000	0	0	-1	206
25957915	5934	1133	0	-100	0	230	101300000	1000	0	0	-1	206
25970475	5935	1132	0	-100	0	230	101300000	1000	0	0	-1	206
25983035	5937	1138	0	-100	0	230	101300000	1000	0	0	-1	206
25995595	5935	1138	0	-100	0	230	101300000	1000	0	0	-1	206
26008155	5945	1130	0	-100	0	230	101300000	1000	0	0	-1	206
26020715	5928	1138	0	-100	0	230	101300000	1000	0	0	-1	206
26033275	5936	1135	0	-100	0	230	101300000	1000	0	0	-1	206
26045835	5935	1132	0	-100	0	230	101300000	1000	0	0	-1	206
26058395	5936	1135	0	-100	0	230	101300000	1000	0	0	-1	206
26070955	5934	1138	0	-100	0	230	101300000	1000	0	0	-1	206
26083515	5939	1141	0	-100	0	230	101300000	1000	0	0	-1	206
26096075	5928	1129	0	-100	0	230	101300000	1000	0	0	-1	206
26108635	5943	1133	0	-100	0	230	101300000	1000	0	0	-1	206
26121195	5938	1132	0	-100	0	230	101300000	1000	0	0	-1	206
26133755	5938	1129	0	-100	0	230	101300000	1000	0	0	-1	206
26146315	5934	1133	0	-100	0	230	101300000	1000	0	0	-1	206
26158875	5941	1132	0	-100	0	230	101300000	1000	0	0	-1	206
26171435	5934	1130	0	-100	0	230	101300000	1000	0	0	-1	206
26183995	5936	1136	0	-100	0	230	101300000	1000	0	0	-1	206
26196555	5941	1131	0	-100	0	230	101300000	1000	0	0	-1	206
26209115	5935	1136	0	-100	0	230	101300000	1000	0	0	-1	206
26221675	5939	1140	0	-100	0	230	101300000	1000	0	0	-1	206
26234235	5936	1136	0	-100	0	230	101300000	1000	0	0	-1	206
26246795	5941	1135	0	-100	0	230	101300000	1000	0	0	-1	206
26259355	5930	1131	0	-100	0	230	101300000	1000	0	0	-1	206
26271915	5945	1138	0	-100	0	230	101300000	1000	0	0	-1	206
26284475	5933	1139	0	-100	0	230	101300000	1000	0	0	-1	206
26297035	5940	1134	0	-100	0	230	101300000	1000	0	0	-1	206
26309595	5934	1133	0	-100	0	230	101300000	1000	0	0	-1	206
26322155	5941	1130	0	-100	0	230	101300000	1000	0	0	-1	206
26334715	5935	1133	0	-100	0	230	101300000	1000	0	0	-1	206
26347275	5938	1134	0	-100	0	230	101300000	1000	0	0	-1	206
26359835	5930	1132	0	-100	0	230	101300000	1000	0	0	-1	206
26372395	5945	1136	0	-100	0	230	101300000	1000	0	0	-1	206
26384955	5940	1141	0	-100	0	230	101300000	1000	0	0	-1	206
26397515	5939	1132	0	-100	0	230	101300000	1000	0	0	-1	206
26410075	5934	1130	0	-100	0	230	101300000	1000	0	0	-1	206
26422635	5935	1137	0	-100	0	230	101300000	1000	0	0	-1	206
26435195	5941	1131	0	-100	0	230	101300000	1000	0	0	-1	206
26447755	5932	1135	0	-100	0	230	101300000	1000	0	0	-1	206
26460315	5934	1135	0	-100	0	230	101300000	1000	0	0	-1	206
26472875	5939	1129	0	-100	0	230	101300000	1000	0	0	-1	206
26485435	5940	1129	0	-100	0	230	101300000	1000	0	0	-1	206
26497995	5941	1138	0	-100	0	230	101300000	1000	0	0	-1	206
26510555	5939	1127	0	-100	0	230	101300000	1000	0	0	-1	206
26523115	5932	1132	0	-100	0	230	101300000	1000	0	0	-1	206
26535675	5936	1135	0	-100	0	230	101300000	1000	0	0	-1	206
26548235	5937	1135	0	-100	0	230	101300000	1000	0	0	-1	206
26560795	5938	1131	0	-100	0	230	101300000	1000	0	0	-1	206
26573355	5937	1132	0	-100	0	230	101300000	1000	0	0	-1	206
26585915	5940	1135	0	-100	0	230	101300000	1000	0	0	-1	206
26598475	5939	1123	0	-100	0	230	101300000	1000	0	0	-1	206
26611035	5939	1126	0	-100	0	230	101300000	1000	0	0	-1	206
26623595	5937	1131	0	-100	0	230	101300000	1000	0	0	-1	206
26636155	5941	1133	0	-100	0	230	101300000	1000	0	0	-1	206
26648715	5934	1139	0	-100	0	230	101300000	1000	0	0	-1	206
26661275	5936	1136	0	-100	0	230	101300000	1000	0	0	-1	206
26673835	5936	1135	0	-100	0	230	101300000	1000	0	0	-1	206
26686395	5935	1126	0	-100	0	230	101300000	1000	0	0	-1	206
26698955	5932	1133	0	-100	0	230	101300000	1000	0	0	-1	206
26711515	5935	1135	0	-100	0	230	101300000	1000	0	0	-1	206
26724075	5938	1131	0	-100	0	230	101300000	1000	0	0	-1	206
26736635	5941	1132	0	-100	0	230	101300000	1000	0	0	-1	206
26749195	5941	1138	0	-100	0	230	101300000	1000	0	0	-1	206
26761755	5937	1133	0	-100	0	230	101300000	1000	0	0	-1	206
26774315	5934	1131	0	-100	0	230	101300000	1000	0	0	-1	206
26786875	5934	1136	0	-100	0	230	101300000	1000	0	0	-1	206
26799435	5940	1145	0	-100	0	230	101300000	1000	0	0	-1	206
26811995	5932	1136	0	-100	0	230	101300000	1000	0	0	-1	206
26824555	5937	1134	0	-100	0	230	101300000	1000	0	0	-1	206
26837115	5936	1136	0	-100	0	230	101300000	1000	0	0	-1	206
26849675	5943	1132	0	-100	0	230	101300000	1000	0	0	-1	206
26862235	5939	1130	0	-100	0	230	101300000	1000	0	0	-1	206
26874795	5937	1135	0	-100	0	230	101300000	1000	0	0	-1	206
26887355	5936	1130	0	-100	0	230	101300000	1000	0	0	-1	206
26899915	5931	1133	0	-100	0	230	101300000	1000	0	0	-1	206
26912475	5932	1134	0	-100	0	230	101300000	1000	0	0	-1	206
26925035	5935	1122	0	-100	0	230	101300000	1000	0	0	-1	206
26937595	5935	1137	0	-100	0	230	101300000	1000	0	0	-1	206
26950155	5944	1136	0	-100	0	230	101300000	1000	0	0	-1	206
26962715	5937	1140	0	-100	0	230	101300000	1000	0	0	-1	206
26975275	5932	1134	0	-100	0	230	101300000	1000	0	0	-1	206
26987835	5939	1135	0	-100	0	230	101300000	1000	0	0	-1	206
27000395	5941	1136	0	-100	0	230	101300000	1000	0	0	-1	206
27012955	5941	1135	0	-100	0	230	101300000	1000	0	0	-1	206
27025515	5940	1129	0	-100	0	230	101300000	1000	0	0	-1	206
27038075	5940	1137	0	-100	0	230	101300000	1000	0	0	-1	206
27050635	5940	1133	0	-100	0	230	101300000	1000	0	0	-1	206
