timestamp	voltage	current	windSpeed	pitchAngle	rpm	temperature	ambientPressure	humidity	accelerationX	accelerationY	accelerationZ	currentSink
7040070	6014	843	0	-100	0	230	101300000	1000	0	0	-1	0
7047523	6010	856	0	-100	0	230	101300000	1000	0	0	-1	0
7060083	6018	854	0	-100	0	230	101300000	1000	0	0	-1	0
7072643	6017	864	0	-100	0	230	101300000	1000	0	0	-1	0
7085203	6012	852	0	-100	0	230	101300000	1000	0	0	-1	0
7097763	6013	850	0	-100	0	230	101300000	1000	0	0	-1	0
7110323	6009	856	0	-100	0	230	101300000	1000	0	0	-1	0
7122883	6015	865	0	-100	0	230	101300000	1000	0	0	-1	0
7135443	6009	854	0	-100	0	230	101300000	1000	0	0	-1	0
7148004	6021	861	0	-100	0	230	101300000	1000	0	0	-1	0
7160563	6014	857	0	-100	0	230	101300000	1000	0	0	-1	0
7173123	6013	855	0	-100	0	230	101300000	1000	0	0	-1	0
7185683	6010	853	0	-100	0	230	101300000	1000	0	0	-1	0
7198243	6014	847	0	-100	0	230	101300000	1000	0	0	-1	0
7210803	6021	859	0	-100	0	230	101300000	1000	0	0	-1	0
7223363	6013	865	0	-100	0	230	101300000	1000	0	0	-1	0
7235923	6014	851	0	-100	0	230	101300000	1000	0	0	-1	0
7248483	6017	859	0	-100	0	230	101300000	1000	0	0	-1	0
7261043	6010	855	0	-100	0	230	101300000	1000	0	0	-1	0
7273603	6006	867	0	-100	0	230	101300000	1000	0	0	-1	0
7286163	6016	857	0	-100	0	230	101300000	1000	0	0	-1	0
7298723	6013	849	0	-100	0	230	101300000	1000	0	0	-1	0
7311283	6012	857	0	-100	0	230	101300000	1000	0	0	-1	0
7323843	6010	849	0	-100	0	230	101300000	1000	0	0	-1	0
7336403	6013	858	0	-100	0	230	101300000	1000	0	0	-1	0
7348963	6019	857	0	-100	0	230	101300000	1000	0	0	-1	0
7719795	5939	1120	0	-100	0	230	101300000	1000	0	0	-1	200
7732355	5941	1127	0	-100	0	230	101300000	1000	0	0	-1	200
7744915	5941	1124	0	-100	0	230	101300000	1000	0	0	-1	200
7757475	5944	1118	0	-100	0	230	101300000	1000	0	0	-1	200
7770035	5947	1129	0	-100	0	230	101300000	1000	0	0	-1	200
7782595	5943	1121	0	-100	0	230	101300000	1000	0	0	-1	200
7795155	5935	1125	0	-100	0	230	101300000	1000	0	0	-1	200
7807715	5939	1114	0	-100	0	230	101300000	1000	0	0	-1	200
7820275	5939	1128	0	-100	0	230	101300000	1000	0	0	-1	200
7832835	5940	1132	0	-100	0	230	101300000	1000	0	0	-1	200
7845395	5938	1128	0	-100	0	230	101300000	1000	0	0	-1	200
7857955	5939	1131	0	-100	0	230	101300000	1000	0	0	-1	200
7870515	5944	1121	0	-100	0	230	101300000	1000	0	0	-1	200
7883075	5948	1119	0	-100	0	230	101300000	1000	0	0	-1	200
7895635	5943	1133	0	-100	0	230	101300000	1000	0	0	-1	200
7908195	5938	1124	0	-100	0	230	101300000	1000	0	0	-1	200
7920755	5935	1124	0	-100	0	230	101300000	1000	0	0	-1	200
7933315	5936	1134	0	-100	0	230	101300000	1000	0	0	-1	200
7945875	5935	1122	0	-100	0	230	101300000	1000	0	0	-1	200
7958435	5939	1126	0	-100	0	230	101300000	1000	0	0	-1	200
7970995	5939	1128	0	-100	0	230	101300000	1000	0	0	-1	200
7983555	5943	1120	0	-100	0	230	101300000	1000	0	0	-1	200
7996115	5941	1127	0	-100	0	230	101300000	1000	0	0	-1	200
8008675	5943	1123	0	-100	0	230	101300000	1000	0	0	-1	200
8021235	5942	1118	0	-100	0	230	101300000	1000	0	0	-1	200
8033795	5936	1120	0	-100	0	230	101300000	1000	0	0	-1	200
8046355	5936	1121	0	-100	0	230	101300000	1000	0	0	-1	200
8058915	5937	1121	0	-100	0	230	101300000	1000	0	0	-1	200
8071475	5939	1123	0	-100	0	230	101300000	1000	0	0	-1	200
8084035	5938	1132	0	-100	0	230	101300000	1000	0	0	-1	200
8096595	5936	1133	0	-100	0	230	101300000	1000	0	0	-1	200
8109155	5936	1123	0	-100	0	230	101300000	1000	0	0	-1	200
8121715	5936	1132	0	-100	0	230	101300000	1000	0	0	-1	200
8134275	5938	1121	0	-100	0	230	101300000	1000	0	0	-1	200
8146835	5941	1136	0	-100	0	230	101300000	1000	0	0	-1	200
8159395	5938	1130	0	-100	0	230	101300000	1000	0	0	-1	200
8171955	5938	1128	0	-100	0	230	101300000	1000	0	0	-1	200
8184515	5939	1124	0	-100	0	230	101300000	1000	0	0	-1	200
8197075	5938	1123	0	-100	0	230	101300000	1000	0	0	-1	200
8209635	5938	1125	0	-100	0	230	101300000	1000	0	0	-1	200
8222195	5936	1117	0	-100	0	230	101300000	1000	0	0	-1	200
8234755	5938	1132	0	-100	0	230	101300000	1000	0	0	-1	200
8247315	5936	1120	0	-100	0	230	101300000	1000	0	0	-1	200
8259875	5941	1126	0	-100	0	230	101300000	1000	0	0	-1	200
8272435	5937	1126	0	-100	0	230	101300000	1000	0	0	-1	200
8284995	5933	1121	0	-100	0	230	101300000	1000	0	0	-1	200
8297555	5938	1118	0	-100	0	230	101300000	1000	0	0	-1	200
8310115	5937	1128	0	-100	0	230	101300000	1000	0	0	-1	200
8322675	5936	1125	0	-100	0	230	101300000	1000	0	0	-1	200
8335235	5942	1124	0	-100	0	230	101300000	1000	0	0	-1	200
8347795	5940	1124	0	-100	0	230	101300000	1000	0	0	-1	200
8360355	5940	1120	0	-100	0	230	101300000	1000	0	0	-1	200
8372915	5946	1133	0	-100	0	230	101300000	1000	0	0	-1	200
8385475	5941	1127	0	-100	0	230	101300000	1000	0	0	-1	200
8398035	5938	1127	0	-100	0	230	101300000	1000	0	0	-1	200
8410595	5940	1129	0	-100	0	230	101300000	1000	0	0	-1	200
8423155	5941	1122	0	-100	0	230	101300000	1000	0	0	-1	200
8435715	5938	1128	0	-100	0	230	101300000	1000	0	0	-1	200
8448275	5933	1128	0	-100	0	230	101300000	1000	0	0	-1	200
8460835	5935	1124	0	-100	0	230	101300000	1000	0	0	-1	200
8473395	5941	1122	0	-100	0	230	101300000	1000	0	0	-1	200
8485955	5941	1122	0	-100	0	230	101300000	1000	0	0	-1	200
8498515	5942	1123	0	-100	0	230	101300000	1000	0	0	-1	200
8511075	5936	1129	0	-100	0	230	101300000	1000	0	0	-1	200
8523635	5934	1123	0	-100	0	230	101300000	1000	0	0	-1	200
8536195	5941	1122	0	-100	0	230	101300000	1000	0	0	-1	200
8548755	5943	1129	0	-100	0	230	101300000	1000	0	0	-1	200
8561315	5942	1130	0	-100	0	230	101300000	1000	0	0	-1	200
8573875	5936	1124	0	-100	0	230	101300000	1000	0	0	-1	200
8586435	5937	1128	0	-100	0	230	101300000	1000	0	0	-1	200
8598995	5937	1124	0	-100	0	230	101300000	1000	0	0	-1	200
8611555	5936	1110	0	-100	0	230	101300000	1000	0	0	-1	200
8624115	5932	1130	0	-100	0	230	101300000	1000	0	0	-1	200
8636675	5937	1118	0	-100	0	230	101300000	1000	0	0	-1	200
8649235	5941	1122	0	-100	0	230	101300000	1000	0	0	-1	200
8661795	5944	1126	0	-100	0	230	101300000	1000	0	0	-1	200
8674355	5942	1125	0	-100	0	230	101300000	1000	0	0	-1	200
8686915	5939	1119	0	-100	0	230	101300000	1000	0	0	-1	200
8699475	5940	1134	0	-100	0	230	101300000	1000	0	0	-1	200
8712035	5945	1120	0	-100	0	230	101300000	1000	0	0	-1	200
8724595	5935	1129	0	-100	0	230	101300000	1000	0	0	-1	200
8737155	5938	1123	0	-100	0	230	101300000	1000	0	0	-1	200
8749715	5937	1136	0	-100	0	230	101300000	1000	0	0	-1	200
8762275	5934	1129	0	-100	0	230	101300000	1000	0	0	-1	200
8774835	5937	1120	0	-100	0	230	101300000	1000	0	0	-1	200
8787395	5939	1122	0	-100	0	230	101300000	1000	0	0	-1	200
8799955	5941	1118	0	-100	0	230	101300000	1000	0	0	-1	200
8812515	5944	1123	0	-100	0	230	101300000	1000	0	0	-1	200
8825075	5941	1127	0	-100	0	230	101300000	1000	0	0	-1	200
8837635	5938	1137	0	-100	0	230	101300000	1000	0	0	-1	200
8850195	5941	1127	0	-100	0	230	101300000	1000	0	0	-1	200
8862755	5936	1123	0	-100	0	230	101300000	1000	0	0	-1	200
8875315	5937	1134	0	-100	0	230	101300000	1000	0	0	-1	200
8887875	5945	1125	0	-100	0	230	101300000	1000	0	0	-1	200
8900435	5939	1125	0	-100	0	230	101300000	1000	0	0	-1	200
8912995	5940	1115	0	-100	0	230	101300000	1000	0	0	-1	200
8925555	5941	1121	0	-100	0	230	101300000	1000	0	0	-1	200
8938115	5946	1130	0	-100	0	230	101300000	1000	0	0	-1	200
8950675	5936	1117	0	-100	0	230	101300000	1000	0	0	-1	200
8963235	5936	1131	0	-100	0	230	101300000	1000	0	0	-1	200
8975795	5942	1123	0	-100	0	230	101300000	1000	0	0	-1	200
8988355	5945	1120	0	-100	0	230	101300000	1000	0	0	-1	200
9000915	5935	1119	0	-100	0	230	101300000	1000	0	0	-1	200
9013475	5934	1119	0	-100	0	230	101300000	1000	0	0	-1	200
9026035	5936	1121	0	-100	0	230	101300000	1000	0	0	-1	200
9038595	5944	1126	0	-100	0	230	101300000	1000	0	0	-1	200
9051155	5936	1133	0	-100	0	230	101300000	1000	0	0	-1	200
9063715	5941	1124	0	-100	0	230	101300000	1000	0	0	-1	200
9076275	5940	1133	0	-100	0	230	101300000	1000	0	0	-1	200
9088835	5942	1132	0	-100	0	230	101300000	1000	0	0	-1	200
9101395	5944	1126	0	-100	0	230	101300000	1000	0	0	-1	200
9113955	5944	1123	0	-100	0	230	101300000	1000	0	0	-1	200
9126515	5939	1121	0	-100	0	230	101300000	1000	0	0	-1	200
9139075	5945	1124	0	-100	0	230	101300000	1000	0	0	-1	200
9151635	5944	1131	0	-100	0	230	101300000	1000	0	0	-1	200
9164195	5945	1105	0	-100	0	230	101300000	1000	0	0	-1	200
9176755	5944	1124	0	-100	0	230	101300000	1000	0	0	-1	200
9189315	5945	1125	0	-100	0	230	101300000	1000	0	0	-1	200
9201875	5942	1119	0	-100	0	230	101300000	1000	0	0	-1	200
9214435	5942	1126	0	-100	0	230	101300000	1000	0	0	-1	200
9226995	5943	1131	0	-100	0	230	101300000	1000	0	0	-1	200
9239555	5943	1135	0	-100	0	230	101300000	1000	0	0	-1	200
9252115	5944	1123	0	-100	0	230	101300000	1000	0	0	-1	200
9264675	5938	1117	0	-100	0	230	101300000	1000	0	0	-1	200
9277235	5942	1116	0	-100	0	230	101300000	1000	0	0	-1	200
9289795	5941	1120	0	-100	0	230	101300000	1000	0	0	-1	200
9302355	5938	1114	0	-100	0	230	101300000	1000	0	0	-1	200
9314915	5936	1126	0	-100	0	230	101300000	1000	0	0	-1	200
9327475	5936	1114	0	-100	0	230	101300000	1000	0	0	-1	200
9340035	5937	1124	0	-100	0	230	101300000	1000	0	0	-1	200
9352595	5938	1122	0	-100	0	230	101300000	1000	0	0	-1	200
9365155	5934	1119	0	-100	0	230	101300000	1000	0	0	-1	200
9377715	5940	1121	0	-100	0	230	101300000	1000	0	0	-1	200
9390275	5938	1122	0	-100	0	230	101300000	1000	0	0	-1	200
9402835	5938	1124	0	-100	0	230	101300000	1000	0	0	-1	200
9415395	5937	1120	0	-100	0	230	101300000	1000	0	0	-1	200
9427955	5937	1122	0	-100	0	230	101300000	1000	0	0	-1	200
9440515	5938	1123	0	-100	0	230	101300000	1000	0	0	-1	200
9453075	5944	1129	0	-100	0	230	101300000	1000	0	0	-1	200
9465635	5936	1117	0	-100	0	230	101300000	1000	0	0	-1	200
9478195	5936	1121	0	-100	0	230	101300000	1000	0	0	-1	200
9490755	5938	1126	0	-100	0	230	101300000	1000	0	0	-1	200
9503315	5941	1128	0	-100	0	230	101300000	1000	0	0	-1	200
9515875	5941	1122	0	-100	0	230	101300000	1000	0	0	-1	200
9528435	5938	1110	0	-100	0	230	101300000	1000	0	0	-1	200
9540995	5939	1123	0	-100	0	230	101300000	1000	0	0	-1	200
9553555	5940	1120	0	-100	0	230	101300000	1000	0	0	-1	200
9566115	5937	1123	0	-100	0	230	101300000	1000	0	0	-1	200
9578675	5938	1127	0	-100	0	230	101300000	1000	0	0	-1	200
9591235	5941	1116	0	-100	0	230	101300000	1000	0	0	-1	200
9603795	5941	1121	0	-100	0	230	101300000	1000	0	0	-1	200
9616355	5941	1127	0	-100	0	230	101300000	1000	0	0	-1	200
9628915	5936	1127	0	-100	0	230	101300000	1000	0	0	-1	200
9641475	5936	1132	0	-100	0	230	101300000	1000	0	0	-1	200
9654035	5938	1123	0	-100	0	230	101300000	1000	0	0	-1	200
9666595	5938	1116	0	-100	0	230	101300000	1000	0	0	-1	200
9679155	5940	1115	0	-100	0	230	101300000	1000	0	0	-1	200
9691715	5945	1121	0	-100	0	230	101300000	1000	0	0	-1	200
9704275	5941	1129	0	-100	0	230	101300000	1000	0	0	-1	200
9716835	5943	1125	0	-100	0	230	101300000	1000	0	0	-1	200
9729395	5941	1112	0	-100	0	230	101300000	1000	0	0	-1	200
9741955	5941	1126	0	-100	0	230	101300000	1000	0	0	-1	200
9754515	5941	1129	0	-100	0	230	101300000	1000	0	0	-1	200
9767075	5940	1130	0	-100	0	230	101300000	1000	0	0	-1	200
9779635	5936	1124	0	-100	0	230	101300000	1000	0	0	-1	200
9792195	5933	1123	0	-100	0	230	101300000	1000	0	0	-1	200
9804755	5933	1114	0	-100	0	230	101300000	1000	0	0	-1	200
9817315	5936	1127	0	-100	0	230	101300000	1000	0	0	-1	200
9829875	5938	1121	0	-100	0	230	101300000	1000	0	0	-1	200
9842435	5935	1131	0	-100	0	230	101300000	1000	0	0	-1	200
9854995	5936	1115	0	-100	0	230	101300000	1000	0	0	-1	200
9867555	5936	1121	0	-100	0	230	101300000	1000	0	0	-1	200
9880115	5938	1123	0	-100	0	230	101300000	1000	0	0	-1	200
9892675	5942	1124	0	-100	0	230	101300000	1000	0	0	-1	200
9905235	5936	1122	0	-100	0	230	101300000	1000	0	0	-1	200
9917795	5941	1118	0	-100	0	230	101300000	1000	0	0	-1	200
9930355	5941	1125	0	-100	0	230	101300000	1000	0	0	-1	200
9942915	5940	1125	0	-100	0	230	101300000	1000	0	0	-1	200
9955475	5941	1121	0	-100	0	230	101300000	1000	0	0	-1	200
9968035	5941	1129	0	-100	0	230	101300000	1000	0	0	-1	200
9980595	5944	1125	0	-100	0	230	101300000	1000	0	0	-1	200
9993155	5941	1123	0	-100	0	230	101300000	1000	0	0	-1	200
10005715	5939	1123	0	-100	0	230	101300000	1000	0	0	-1	200
10018275	5938	1114	0	-100	0	230	101300000	1000	0	0	-1	200
10030835	5944	1124	0	-100	0	230	101300000	1000	0	0	-1	200
10043395	5942	1128	0	-100	0	230	101300000	1000	0	0	-1	200
10055955	5945	1128	0	-100	0	230	101300000	1000	0	0	-1	200
10068515	5942	1133	0	-100	0	230	101300000	1000	0	0	-1	200
10081075	5943	1122	0	-100	0	230	101300000	1000	0	0	-1	200
10093635	5941	1123	0	-100	0	230	101300000	1000	0	0	-1	200
10106195	5944	1111	0	-100	0	230	101300000	1000	0	0	-1	200
10118755	5940	1131	0	-100	0	230	101300000	1000	0	0	-1	200
10131315	5942	1121	0	-100	0	230	101300000	1000	0	0	-1	200
10143875	5936	1115	0	-100	0	230	101300000	1000	0	0	-1	200
10156435	5932	1121	0	-100	0	230	101300000	1000	0	0	-1	200
10168995	5932	1123	0	-100	0	230	101300000	1000	0	0	-1	200
10181555	5937	1118	0	-100	0	230	101300000	1000	0	0	-1	200
10194115	5934	1121	0	-100	0	230	101300000	1000	0	0	-1	200
10206675	5934	1118	0	-100	0	230	101300000	1000	0	0	-1	200
10219235	5939	1128	0	-100	0	230	101300000	1000	0	0	-1	200
10231795	5937	1130	0	-100	0	230	101300000	1000	0	0	-1	200
10244355	5936	1119	0	-100	0	230	101300000	1000	0	0	-1	200
10256915	5937	1137	0	-100	0	230	101300000	1000	0	0	-1	200
10269475	5937	1128	0	-100	0	230	101300000	1000	0	0	-1	200
10282035	5939	1114	0	-100	0	230	101300000	1000	0	0	-1	200
10294595	5946	1109	0	-100	0	230	101300000	1000	0	0	-1	200
10307155	5944	1126	0	-100	0	230	101300000	1000	0	0	-1	200
10319715	5941	1123	0	-100	0	230	101300000	1000	0	0	-1	200
10332275	5940	1126	0	-100	0	230	101300000	1000	0	0	-1	200
10344835	5936	1125	0	-100	0	230	101300000	1000	0	0	-1	200
10357395	5935	1138	0	-100	0	230	101300000	1000	0	0	-1	200
10369955	5934	1132	0	-100	0	230	101300000	1000	0	0	-1	200
10382515	5938	1136	0	-100	0	230	101300000	1000	0	0	-1	200
10395075	5938	1118	0	-100	0	230	101300000	1000	0	0	-1	200
10407635	5939	1121	0	-100	0	230	101300000	1000	0	0	-1	200
10420195	5932	1121	0	-100	0	230	101300000	1000	0	0	-1	200
10432755	5939	1137	0	-100	0	230	101300000	1000	0	0	-1	200
10445315	5941	1130	0	-100	0	230	101300000	1000	0	0	-1	200
10457875	5937	1122	0	-100	0	230	101300000	1000	0	0	-1	200
10470435	5939	1124	0	-100	0	230	101300000	1000	0	0	-1	200
10482995	5939	1121	0	-100	0	230	101300000	1000	0	0	-1	200
10495555	5945	1133	0	-100	0	230	101300000	1000	0	0	-1	200
10508115	5941	1120	0	-100	0	230	101300000	1000	0	0	-1	200
10520675	5939	1124	0	-100	0	230	101300000	1000	0	0	-1	200
10533235	5945	1126	0	-100	0	230	101300000	1000	0	0	-1	200
10545795	5945	1116	0	-100	0	230	101300000	1000	0	0	-1	200
10558355	5941	1121	0	-100	0	230	101300000	1000	0	0	-1	200
10570915	5940	1120	0	-100	0	230	101300000	1000	0	0	-1	200
10583475	5935	1122	0	-100	0	230	101300000	1000	0	0	-1	200
10596035	5941	1127	0	-100	0	230	101300000	1000	0	0	-1	200
10608595	5934	1125	0	-100	0	230	101300000	1000	0	0	-1	200
10621155	5938	1131	0	-100	0	230	101300000	1000	0	0	-1	200
10633715	5941	1125	0	-100	0	230	101300000	1000	0	0	-1	200
10646275	5939	1119	0	-100	0	230	101300000	1000	0	0	-1	200
10658835	5938	1130	0	-100	0	230	101300000	1000	0	0	-1	200
10671395	5938	1124	0	-100	0	230	101300000	1000	0	0	-1	200
10683955	5940	1133	0	-100	0	230	101300000	1000	0	0	-1	200
10696515	5936	1126	0	-100	0	230	101300000	1000	0	0	-1	200
10709075	5940	1131	0	-100	0	230	101300000	1000	0	0	-1	200
10721635	5936	1130	0	-100	0	230	101300000	1000	0	0	-1	200
10734195	5941	1123	0	-100	0	230	101300000	1000	0	0	-1	200
10746755	5936	1121	0	-100	0	230	101300000	1000	0	0	-1	200
10759315	5933	1125	0	-100	0	230	101300000	1000	0	0	-1	200
10771875	5936	1120	0	-100	0	230	101300000	1000	0	0	-1	200
10784435	5938	1112	0	-100	0	230	101300000	1000	0	0	-1	200
10796995	5940	1128	0	-100	0	230	101300000	1000	0	0	-1	200
10809555	5938	1127	0	-100	0	230	101300000	1000	0	0	-1	200
10822115	5944	1130	0	-100	0	230	101300000	1000	0	0	-1	200
10834675	5946	1120	0	-100	0	230	101300000	1000	0	0	-1	200
10847235	5943	1132	0	-100	0	230	101300000	1000	0	0	-1	200
10859795	5938	1131	0	-100	0	230	101300000	1000	0	0	-1	200
10872355	5936	1130	0	-100	0	230	101300000	1000	0	0	-1	200
10884915	5941	1132	0	-100	0	230	101300000	1000	0	0	-1	200
10897475	5940	1118	0	-100	0	230	101300000	1000	0	0	-1	200
10910035	5938	1127	0	-100	0	230	101300000	1000	0	0	-1	200
10922595	5937	1137	0	-100	0	230	101300000	1000	0	0	-1	200
10935155	5935	1127	0	-100	0	230	101300000	1000	0	0	-1	200
10947715	5941	1127	0	-100	0	230	101300000	1000	0	0	-1	200
10960275	5939	1126	0	-100	0	230	101300000	1000	0	0	-1	200
10972835	5941	1118	0	-100	0	230	101300000	1000	0	0	-1	200
10985395	5939	1130	0	-100	0	230	101300000	1000	0	0	-1	200
10997955	5938	1128	0	-100	0	230	101300000	1000	0	0	-1	200
11010515	5939	1126	0	-100	0	230	101300000	1000	0	0	-1	200
11023075	5935	1124	0	-100	0	230	101300000	1000	0	0	-1	200
11035635	5936	1125	0	-100	0	230	101300000	1000	0	0	-1	200
11048195	5941	1128	0	-100	0	230	101300000	1000	0	0	-1	200
11060755	5943	1128	0	-100	0	230	101300000	1000	0	0	-1	200
11073315	5945	1125	0	-100	0	230	101300000	1000	0	0	-1	200
11085875	5942	1114	0	-100	0	230	101300000	1000	0	0	-1	200
11098435	5941	1121	0	-100	0	230	101300000	1000	0	0	-1	200
11110995	5938	1125	0	-100	0	230	101300000	1000	0	0	-1	200
11123555	5939	1127	0	-100	0	230	101300000	1000	0	0	-1	200
11136115	5937	1123	0	-100	0	230	101300000	1000	0	0	-1	200
11148675	5936	1118	0	-100	0	230	101300000	1000	0	0	-1	200
11161235	5939	1123	0	-100	0	230	101300000	1000	0	0	-1	200
11173795	5942	1128	0	-100	0	230	101300000	1000	0	0	-1	200
11186355	5943	1122	0	-100	0	230	101300000	1000	0	0	-1	200
11198915	5943	1125	0	-100	0	230	101300000	1000	0	0	-1	200
11211475	5939	1118	0	-100	0	230	101300000	1000	0	0	-1	200
11224035	5935	1127	0	-100	0	230	101300000	1000	0	0	-1	200
11236595	5939	1126	0	-100	0	230	101300000	1000	0	0	-1	200
11249155	5941	1126	0	-100	0	230	101300000	1000	0	0	-1	200
11261715	5942	1125	0	-100	0	230	101300000	1000	0	0	-1	200
11274275	5946	1121	0	-100	0	230	101300000	1000	0	0	-1	200
11286835	5939	1129	0	-100	0	230	101300000	1000	0	0	-1	200
11299395	5938	1127	0	-100	0	230	101300000	1000	0	0	-1	200
11311955	5933	1123	0	-100	0	230	101300000	1000	0	0	-1	200
11324515	5933	1127	0	-100	0	230	101300000	1000	0	0	-1	200
11337075	5933	1123	0	-100	0	230	101300000	1000	0	0	-1	200
11349635	5938	1125	0	-100	0	230	101300000	1000	0	0	-1	200
11362195	5939	1124	0	-100	0	230	101300000	1000	0	0	-1	200
11374755	5944	1120	0	-100	0	230	101300000	1000	0	0	-1	200
11387315	5939	1130	0	-100	0	230	101300000	1000	0	0	-1	200
11399875	5938	1128	0	-100	0	230	101300000	1000	0	0	-1	200
11412435	5937	1126	0	-100	0	230	101300000	1000	0	0	-1	200
11424995	5933	1119	0	-100	0	230	101300000	1000	0	0	-1	200
11437555	5939	1117	0	-100	0	230	101300000	1000	0	0	-1	200
11450115	5945	1130	0	-100	0	230	101300000	1000	0	0	-1	200
11462675	5936	1131	0	-100	0	230	101300000	1000	0	0	-1	200
11475235	5941	1124	0	-100	0	230	101300000	1000	0	0	-1	200
11487795	5936	1119	0	-100	0	230	101300000	1000	0	0	-1	200
11500355	5934	1120	0	-100	0	230	101300000	1000	0	0	-1	200
11512915	5942	1128	0	-100	0	230	101300000	1000	0	0	-1	200
11525475	5937	1127	0	-100	0	230	101300000	1000	0	0	-1	200
11538035	5942	1120	0	-100	0	230	101300000	1000	0	0	-1	200
11550595	5941	1114	0	-100	0	230	101300000	1000	0	0	-1	200
11563155	5942	1121	0	-100	0	230	101300000	1000	0	0	-1	200
11575715	5938	1129	0	-100	0	230	101300000	1000	0	0	-1	200
11588275	5936	1113	0	-100	0	230	101300000	1000	0	0	-1	200
11600835	5939	1126	0	-100	0	230	101300000	1000	0	0	-1	200
11613395	5940	1128	0	-100	0	230	101300000	1000	0	0	-1	200
11625955	5937	1117	0	-100	0	230	101300000	1000	0	0	-1	200
11638515	5942	1121	0	-100	0	230	101300000	1000	0	0	-1	200
11651075	5941	1125	0	-100	0	230	101300000	1000	0	0	-1	200
11663635	5941	1121	0	-100	0	230	101300000	1000	0	0	-1	200
11676195	5946	1141	0	-100	0	230	101300000	1000	0	0	-1	200
11688755	5941	1128	0	-100	0	230	101300000	1000	0	0	-1	200
11701315	5940	1127	0	-100	0	230	101300000	1000	0	0	-1	200
11713875	5941	1123	0	-100	0	230	101300000	1000	0	0	-1	200
11726435	5938	1127	0	-100	0	230	101300000	1000	0	0	-1	200
11738995	5936	1126	0	-100	0	230	101300000	1000	0	0	-1	200
11751555	5938	1128	0	-100	0	230	101300000	1000	0	0	-1	200
11764115	5937	1128	0	-100	0	230	101300000	1000	0	0	-1	200
11776675	5937	1133	0	-100	0	230	101300000	1000	0	0	-1	200
11789235	5935	1124	0	-100	0	230	101300000	1000	0	0	-1	200
11801795	5934	1131	0	-100	0	230	101300000	1000	0	0	-1	200
11814355	5935	1119	0	-100	0	230	101300000	1000	0	0	-1	200
11826915	5936	1132	0	-100	0	230	101300000	1000	0	0	-1	200
11839475	5938	1125	0	-100	0	230	101300000	1000	0	0	-1	200
11852035	5936	1128	0	-100	0	230	101300000	1000	0	0	-1	200
11864595	5938	1127	0	-100	0	230	101300000	1000	0	0	-1	200
11877155	5936	1130	0	-100	0	230	101300000	1000	0	0	-1	200
11889715	5937	1124	0	-100	0	230	101300000	1000	0	0	-1	200
11902275	5942	1119	0	-100	0	230	101300000	1000	0	0	-1	200
11914835	5939	1114	0	-100	0	230	101300000	1000	0	0	-1	200
11927395	5943	1130	0	-100	0	230	101300000	1000	0	0	-1	200
11939955	5941	1119	0	-100	0	230	101300000	1000	0	0	-1	200
11952515	5945	1127	0	-100	0	230	101300000	1000	0	0	-1	200
11965075	5943	1129	0	-100	0	230	101300000	1000	0	0	-1	200
11977635	5945	1129	0	-100	0	230	101300000	1000	0	0	-1	200
11990195	5943	1120	0	-100	0	230	101300000	1000	0	0	-1	200
12002755	5939	1121	0	-100	0	230	101300000	1000	0	0	-1	200
12015315	5941	1118	0	-100	0	230	101300000	1000	0	0	-1	200
12027875	5945	1130	0	-100	0	230	101300000	1000	0	0	-1	200
12040435	5945	1123	0	-100	0	230	101300000	1000	0	0	-1	200
12052995	5939	1125	0	-100	0	230	101300000	1000	0	0	-1	200
12065555	5937	1120	0	-100	0	230	101300000	1000	0	0	-1	200
12078115	5936	1127	0	-100	0	230	101300000	1000	0	0	-1	200
12090675	5937	1124	0	-100	0	230	101300000	1000	0	0	-1	200
12103235	5935	1128	0	-100	0	230	101300000	1000	0	0	-1	200
12115795	5937	1134	0	-100	0	230	101300000	1000	0	0	-1	200
12128355	5936	1131	0	-100	0	230	101300000	1000	0	0	-1	200
12140915	5943	1129	0	-100	0	230	101300000	1000	0	0	-1	200
12153475	5942	1121	0	-100	0	230	101300000	1000	0	0	-1	200
12166035	5941	1124	0	-100	0	230	101300000	1000	0	0	-1	200
12178595	5937	1126	0	-100	0	230	101300000	1000	0	0	-1	200
12191155	5936	1117	0	-100	0	230	101300000	1000	0	0	-1	200
12203715	5939	1130	0	-100	0	230	101300000	1000	0	0	-1	200
12216275	5936	1123	0	-100	0	230	101300000	1000	0	0	-1	200
12228835	5941	1128	0	-100	0	230	101300000	1000	0	0	-1	200
12241395	5938	1124	0	-100	0	230	101300000	1000	0	0	-1	200
12253955	5936	1125	0	-100	0	230	101300000	1000	0	0	-1	200
12266515	5938	1124	0	-100	0	230	101300000	1000	0	0	-1	200
12279075	5933	1135	0	-100	0	230	101300000	1000	0	0	-1	200
12291635	5940	1120	0	-100	0	230	101300000	1000	0	0	-1	200
12304195	5945	1132	0	-100	0	230	101300000	1000	0	0	-1	200
12316755	5942	1116	0	-100	0	230	101300000	1000	0	0	-1	200
12329315	5939	1121	0	-100	0	230	101300000	1000	0	0	-1	200
12341875	5936	1123	0	-100	0	230	101300000	1000	0	0	-1	200
12354435	5936	1135	0	-100	0	230	101300000	1000	0	0	-1	200
12366995	5941	1124	0	-100	0	230	101300000	1000	0	0	-1	200
12379555	5938	1129	0	-100	0	230	101300000	1000	0	0	-1	200
12392115	5937	1113	0	-100	0	230	101300000	1000	0	0	-1	200
12404675	5937	1125	0	-100	0	230	101300000	1000	0	0	-1	200
12417235	5941	1121	0	-100	0	230	101300000	1000	0	0	-1	200
12429795	5943	1120	0	-100	0	230	101300000	1000	0	0	-1	200
12442355	5939	1118	0	-100	0	230	101300000	1000	0	0	-1	200
12454915	5937	1120	0	-100	0	230	101300000	1000	0	0	-1	200
12467475	5941	1118	0	-100	0	230	101300000	1000	0	0	-1	200
12480035	5935	1132	0	-100	0	230	101300000	1000	0	0	-1	200
12492595	5936	1133	0	-100	0	230	101300000	1000	0	0	-1	200
12505155	5940	1129	0	-100	0	230	101300000	1000	0	0	-1	200
12517715	5942	1128	0	-100	0	230	101300000	1000	0	0	-1	200
12530275	5942	1129	0	-100	0	230	101300000	1000	0	0	-1	200
12542835	5948	1120	0	-100	0	230	101300000	1000	0	0	-1	200
12555395	5941	1139	0	-100	0	230	101300000	1000	0	0	-1	200
12567955	5939	1139	0	-100	0	230	101300000	1000	0	0	-1	200
12580515	5936	1120	0	-100	0	230	101300000	1000	0	0	-1	200
12593075	5936	1125	0	-100	0	230	101300000	1000	0	0	-1	200
12605635	5939	1133	0	-100	0	230	101300000	1000	0	0	-1	200
12618195	5934	1118	0	-100	0	230	101300000	1000	0	0	-1	200
12630755	5936	1126	0	-100	0	230	101300000	1000	0	0	-1	200
12643315	5938	1122	0	-100	0	230	101300000	1000	0	0	-1	200
12655875	5940	1119	0	-100	0	230	101300000	1000	0	0	-1	200
12668435	5942	1124	0	-100	0	230	101300000	1000	0	0	-1	200
12680995	5943	1130	0	-100	0	230	101300000	1000	0	0	-1	200
12693555	5945	1123	0	-100	0	230	101300000	1000	0	0	-1	200
12706115	5941	1127	0	-100	0	230	101300000	1000	0	0	-1	200
12718675	5936	1129	0	-100	0	230	101300000	1000	0	0	-1	200
12731235	5937	1119	0	-100	0	230	101300000	1000	0	0	-1	200
12743795	5941	1120	0	-100	0	230	101300000	1000	0	0	-1	200
12756355	5942	1125	0	-100	0	230	101300000	1000	0	0	-1	200
12768915	5938	1130	0	-100	0	230	101300000	1000	0	0	-1	200
12781475	5939	1125	0	-100	0	230	101300000	1000	0	0	-1	200
12794035	5939	1126	0	-100	0	230	101300000	1000	0	0	-1	200
12806595	5936	1134	0	-100	0	230	101300000	1000	0	0	-1	200
12819155	5934	1119	0	-100	0	230	101300000	1000	0	0	-1	200
12831715	5941	1136	0	-100	0	230	101300000	1000	0	0	-1	200
12844275	5936	1125	0	-100	0	230	101300000	1000	0	0	-1	200
12856835	5938	1127	0	-100	0	230	101300000	1000	0	0	-1	200
12869395	5938	1131	0	-100	0	230	101300000	1000	0	0	-1	200
12881955	5938	1124	0	-100	0	230	101300000	1000	0	0	-1	200
12894515	5938	1124	0	-100	0	230	101300000	1000	0	0	-1	200
12907075	5939	1127	0	-100	0	230	101300000	1000	0	0	-1	200
12919635	5938	1127	0	-100	0	230	101300000	1000	0	0	-1	200
12932195	5933	1121	0	-100	0	230	101300000	1000	0	0	-1	200
12944755	5938	1126	0	-100	0	230	101300000	1000	0	0	-1	200
12957315	5943	1130	0	-100	0	230	101300000	1000	0	0	-1	200
12969875	5945	1130	0	-100	0	230	101300000	1000	0	0	-1	200
12982435	5943	1121	0	-100	0	230	101300000	1000	0	0	-1	200
12994995	5938	1131	0	-100	0	230	101300000	1000	0	0	-1	200
13007555	5943	1136	0	-100	0	230	101300000	1000	0	0	-1	200
13020115	5945	1123	0	-100	0	230	101300000	1000	0	0	-1	200
13032675	5946	1129	0	-100	0	230	101300000	1000	0	0	-1	200
13045235	5945	1124	0	-100	0	230	101300000	1000	0	0	-1	200
13057795	5943	1131	0	-100	0	230	101300000	1000	0	0	-1	200
13070355	5941	1127	0	-100	0	230	101300000	1000	0	0	-1	200
13082915	5944	1125	0	-100	0	230	101300000	1000	0	0	-1	200
13095475	5942	1122	0	-100	0	230	101300000	1000	0	0	-1	200
13108035	5942	1119	0	-100	0	230	101300000	1000	0	0	-1	200
13120595	5945	1113	0	-100	0	230	101300000	1000	0	0	-1	200
13133155	5945	1119	0	-100	0	230	101300000	1000	0	0	-1	200
13145715	5948	1126	0	-100	0	230	101300000	1000	0	0	-1	200
13158275	5941	1119	0	-100	0	230	101300000	1000	0	0	-1	200
13170835	5936	1128	0	-100	0	230	101300000	1000	0	0	-1	200
13183395	5938	1127	0	-100	0	230	101300000	1000	0	0	-1	200
13195955	5939	1124	0	-100	0	230	101300000	1000	0	0	-1	200
13208515	5938	1128	0	-100	0	230	101300000	1000	0	0	-1	200
13221075	5938	1124	0	-100	0	230	101300000	1000	0	0	-1	200
13233635	5936	1112	0	-100	0	230	101300000	1000	0	0	-1	200
13246195	5936	1124	0	-100	0	230	101300000	1000	0	0	-1	200
13258755	5936	1123	0	-100	0	230	101300000	1000	0	0	-1	200
13271315	5941	1115	0	-100	0	230	101300000	1000	0	0	-1	200
13283875	5936	1123	0	-100	0	230	101300000	1000	0	0	-1	200
13296435	5936	1122	0	-100	0	230	101300000	1000	0	0	-1	200
13308995	5935	1125	0	-100	0	230	101300000	1000	0	0	-1	200
13321555	5936	1117	0	-100	0	230	101300000	1000	0	0	-1	200
13334115	5932	1128	0	-100	0	230	101300000	1000	0	0	-1	200
13346675	5936	1126	0	-100	0	230	101300000	1000	0	0	-1	200
13359235	5935	1123	0	-100	0	230	101300000	1000	0	0	-1	200
13371795	5941	1132	0	-100	0	230	101300000	1000	0	0	-1	200
13384355	5937	1131	0	-100	0	230	101300000	1000	0	0	-1	200
13396915	5943	1130	0	-100	0	230	101300000	1000	0	0	-1	200
13409475	5940	1125	0	-100	0	230	101300000	1000	0	0	-1	200
13422035	5943	1123	0	-100	0	230	101300000	1000	0	0	-1	200
13434595	5939	1124	0	-100	0	230	101300000	1000	0	0	-1	200
13447155	5937	1122	0	-100	0	230	101300000	1000	0	0	-1	200
13459715	5936	1127	0	-100	0	230	101300000	1000	0	0	-1	200
13472275	5935	1126	0	-100	0	230	101300000	1000	0	0	-1	200
13484835	5936	1131	0	-100	0	230	101300000	1000	0	0	-1	200
13497395	5938	1123	0	-100	0	230	101300000	1000	0	0	-1	200
13509955	5941	1121	0	-100	0	230	101300000	1000	0	0	-1	200
13522515	5941	1128	0	-100	0	230	101300000	1000	0	0	-1	200
13535075	5936	1126	0	-100	0	230	101300000	1000	0	0	-1	200
13547635	5935	1123	0	-100	0	230	101300000	1000	0	0	-1	200
13560195	5936	1122	0	-100	0	230	101300000	1000	0	0	-1	200
13572755	5933	1121	0	-100	0	230	101300000	1000	0	0	-1	200
13585315	5936	1126	0	-100	0	230	101300000	1000	0	0	-1	200
13597875	5936	1123	0	-100	0	230	101300000	1000	0	0	-1	200
13610435	5935	1120	0	-100	0	230	101300000	1000	0	0	-1	200
13622995	5936	1118	0	-100	0	230	101300000	1000	0	0	-1	200
13635555	5932	1119	0	-100	0	230	101300000	1000	0	0	-1	200
13648115	5935	1122	0	-100	0	230	101300000	1000	0	0	-1	200
13660675	5937	1132	0	-100	0	230	101300000	1000	0	0	-1	200
13673235	5939	1136	0	-100	0	230	101300000	1000	0	0	-1	200
13685795	5936	1139	0	-100	0	230	101300000	1000	0	0	-1	200
13698355	5936	1127	0	-100	0	230	101300000	1000	0	0	-1	200
13710915	5936	1134	0	-100	0	230	101300000	1000	0	0	-1	200
13723475	5939	1129	0	-100	0	230	101300000	1000	0	0	-1	200
13736035	5942	1127	0	-100	0	230	101300000	1000	0	0	-1	200
13748595	5945	1120	0	-100	0	230	101300000	1000	0	0	-1	200
13761155	5945	1123	0	-100	0	230	101300000	1000	0	0	-1	200
13773715	5945	1116	0	-100	0	230	101300000	1000	0	0	-1	200
13786275	5942	1132	0	-100	0	230	101300000	1000	0	0	-1	200
13798835	5943	1124	0	-100	0	230	101300000	1000	0	0	-1	200
13811395	5938	1124	0	-100	0	230	101300000	1000	0	0	-1	200
13823955	5945	1113	0	-100	0	230	101300000	1000	0	0	-1	200
13836515	5942	1117	0	-100	0	230	101300000	1000	0	0	-1	200
13849075	5943	1122	0	-100	0	230	101300000	1000	0	0	-1	200
13861635	5944	1118	0	-100	0	230	101300000	1000	0	0	-1	200
13874195	5942	1126	0	-100	0	230	101300000	1000	0	0	-1	200
13886755	5945	1124	0	-100	0	230	101300000	1000	0	0	-1	200
13899315	5942	1126	0	-100	0	230	101300000	1000	0	0	-1	200
13911875	5941	1129	0	-100	0	230	101300000	1000	0	0	-1	200
13924435	5936	1123	0	-100	0	230	101300000	1000	0	0	-1	200
13936995	5938	1118	0	-100	0	230	101300000	1000	0	0	-1	200
13949555	5936	1121	0	-100	0	230	101300000	1000	0	0	-1	200
13962115	5940	1125	0	-100	0	230	101300000	1000	0	0	-1	200
13974675	5939	1130	0	-100	0	230	101300000	1000	0	0	-1	200
13987235	5940	1123	0	-100	0	230	101300000	1000	0	0	-1	200
13999795	5935	1130	0	-100	0	230	101300000	1000	0	0	-1	200
14012355	5939	1131	0	-100	0	230	101300000	1000	0	0	-1	200
14024915	5936	1124	0	-100	0	230	101300000	1000	0	0	-1	200
14037475	5939	1131	0	-100	0	230	101300000	1000	0	0	-1	200
14050035	5939	1125	0	-100	0	230	101300000	1000	0	0	-1	200
14062595	5940	1123	0	-100	0	230	101300000	1000	0	0	-1	200
14075155	5945	1127	0	-100	0	230	101300000	1000	0	0	-1	200
14087715	5945	1128	0	-100	0	230	101300000	1000	0	0	-1	200
14100275	5938	1124	0	-100	0	230	101300000	1000	0	0	-1	200
14112835	5935	1130	0	-100	0	230	101300000	1000	0	0	-1	200
14125395	5936	1123	0	-100	0	230	101300000	1000	0	0	-1	200
14137955	5941	1126	0	-100	0	230	101300000	1000	0	0	-1	200
14150515	5933	1124	0	-100	0	230	101300000	1000	0	0	-1	200
14163075	5939	1116	0	-100	0	230	101300000	1000	0	0	-1	200
14175635	5940	1118	0	-100	0	230	101300000	1000	0	0	-1	200
14188195	5942	1132	0	-100	0	230	101300000	1000	0	0	-1	200
14200755	5942	1121	0	-100	0	230	101300000	1000	0	0	-1	200
14213315	5941	1120	0	-100	0	230	101300000	1000	0	0	-1	200
14225875	5938	1127	0	-100	0	230	101300000	1000	0	0	-1	200
14238435	5935	1121	0	-100	0	230	101300000	1000	0	0	-1	200
14250995	5939	1122	0	-100	0	230	101300000	1000	0	0	-1	200
14263555	5932	1125	0	-100	0	230	101300000	1000	0	0	-1	200
14276115	5941	1127	0	-100	0	230	101300000	1000	0	0	-1	200
14288675	5944	1128	0	-100	0	230	101300000	1000	0	0	-1	200
14301235	5943	1112	0	-100	0	230	101300000	1000	0	0	-1	200
14313795	5945	1129	0	-100	0	230	101300000	1000	0	0	-1	200
14326355	5937	1125	0	-100	0	230	101300000	1000	0	0	-1	200
14338915	5941	1127	0	-100	0	230	101300000	1000	0	0	-1	200
14351475	5936	1117	0	-100	0	230	101300000	1000	0	0	-1	200
14364035	5936	1137	0	-100	0	230	101300000	1000	0	0	-1	200
14376595	5939	1121	0	-100	0	230	101300000	1000	0	0	-1	200
14389155	5937	1124	0	-100	0	230	101300000	1000	0	0	-1	200
14401715	5940	1120	0	-100	0	230	101300000	1000	0	0	-1	200
14414275	5944	1120	0	-100	0	230	101300000	1000	0	0	-1	200
14426835	5941	1127	0	-100	0	230	101300000	1000	0	0	-1	200
14439395	5936	1133	0	-100	0	230	101300000	1000	0	0	-1	200
14451955	5936	1134	0	-100	0	230	101300000	1000	0	0	-1	200
14464515	5933	1136	0	-100	0	230	101300000	1000	0	0	-1	200
14477075	5941	1125	0	-100	0	230	101300000	1000	0	0	-1	200
14489635	5942	1122	0	-100	0	230	101300000	1000	0	0	-1	200
14502195	5942	1128	0	-100	0	230	101300000	1000	0	0	-1	200
14514755	5943	1123	0	-100	0	230	101300000	1000	0	0	-1	200
14527315	5942	1122	0	-100	0	230	101300000	1000	0	0	-1	200
14539875	5942	1137	0	-100	0	230	101300000	1000	0	0	-1	200
14552435	5944	1127	0	-100	0	230	101300000	1000	0	0	-1	200
14564995	5941	1121	0	-100	0	230	101300000	1000	0	0	-1	200
14577555	5945	1116	0	-100	0	230	101300000	1000	0	0	-1	200
14590115	5944	1122	0	-100	0	230	101300000	1000	0	0	-1	200
14602675	5942	1123	0	-100	0	230	101300000	1000	0	0	-1	200
14615235	5942	1128	0	-100	0	230	101300000	1000	0	0	-1	200
14627795	5944	1127	0	-100	0	230	101300000	1000	0	0	-1	200
14640355	5938	1118	0	-100	0	230	101300000	1000	0	0	-1	200
14652915	5941	1121	0	-100	0	230	101300000	1000	0	0	-1	200
14665475	5942	1118	0	-100	0	230	101300000	1000	0	0	-1	200
14678035	5940	1121	0	-100	0	230	101300000	1000	0	0	-1	200
14690595	5940	1124	0	-100	0	230	101300000	1000	0	0	-1	200
14703155	5944	1123	0	-100	0	230	101300000	1000	0	0	-1	200
14715715	5941	1127	0	-100	0	230	101300000	1000	0	0	-1	200
14728275	5946	1121	0	-100	0	230	101300000	1000	0	0	-1	200
14740835	5940	1125	0	-100	0	230	101300000	1000	0	0	-1	200
14753395	5936	1117	0	-100	0	230	101300000	1000	0	0	-1	200
14765955	5936	1122	0	-100	0	230	101300000	1000	0	0	-1	200
14778515	5936	1113	0	-100	0	230	101300000	1000	0	0	-1	200
14791075	5941	1118	0	-100	0	230	101300000	1000	0	0	-1	200
14803635	5948	1127	0	-100	0	230	101300000	1000	0	0	-1	200
14816195	5936	1126	0	-100	0	230	101300000	1000	0	0	-1	200
14828755	5945	1133	0	-100	0	230	101300000	1000	0	0	-1	200
14841315	5937	1125	0	-100	0	230	101300000	1000	0	0	-1	200
14853875	5938	1122	0	-100	0	230	101300000	1000	0	0	-1	200
14866435	5946	1116	0	-100	0	230	101300000	1000	0	0	-1	200
14878995	5933	1127	0	-100	0	230	101300000	1000	0	0	-1	200
14891555	5935	1135	0	-100	0	230	101300000	1000	0	0	-1	200
14904115	5935	1135	0	-100	0	230	101300000	1000	0	0	-1	200
14916675	5937	1120	0	-100	0	230	101300000	1000	0	0	-1	200
14929235	5944	1125	0	-100	0	230	101300000	1000	0	0	-1	200
14941795	5941	1124	0	-100	0	230	101300000	1000	0	0	-1	200
14954355	5939	1132	0	-100	0	230	101300000	1000	0	0	-1	200
14966915	5941	1121	0	-100	0	230	101300000	1000	0	0	-1	200
14979475	5945	1135	0	-100	0	230	101300000	1000	0	0	-1	200
14992035	5936	1118	0	-100	0	230	101300000	1000	0	0	-1	200
15004595	5936	1132	0	-100	0	230	101300000	1000	0	0	-1	200
15017155	5931	1131	0	-100	0	230	101300000	1000	0	0	-1	200
15029715	5939	1129	0	-100	0	230	101300000	1000	0	0	-1	200
15042275	5939	1133	0	-100	0	230	101300000	1000	0	0	-1	200
15054835	5948	1123	0	-100	0	230	101300000	1000	0	0	-1	200
15067395	5946	1125	0	-100	0	230	101300000	1000	0	0	-1	200
15079955	5942	1116	0	-100	0	230	101300000	1000	0	0	-1	200
15092515	5934	1125	0	-100	0	230	101300000	1000	0	0	-1	200
15105075	5937	1127	0	-100	0	230	101300000	1000	0	0	-1	200
15117635	5936	1129	0	-100	0	230	101300000	1000	0	0	-1	200
15130195	5944	1120	0	-100	0	230	101300000	1000	0	0	-1	200
15142755	5939	1117	0	-100	0	230	101300000	1000	0	0	-1	200
15155315	5941	1130	0	-100	0	230	101300000	1000	0	0	-1	200
15167875	5940	1123	0	-100	0	230	101300000	1000	0	0	-1	200
15180435	5941	1124	0	-100	0	230	101300000	1000	0	0	-1	200
15192995	5935	1131	0	-100	0	230	101300000	1000	0	0	-1	200
15205555	5933	1128	0	-100	0	230	101300000	1000	0	0	-1	200
15218115	5944	1121	0	-100	0	230	101300000	1000	0	0	-1	200
15230675	5937	1128	0	-100	0	230	101300000	1000	0	0	-1	200
15243235	5939	1130	0	-100	0	230	101300000	1000	0	0	-1	200
15255795	5941	1120	0	-100	0	230	101300000	1000	0	0	-1	200
15268355	5942	1122	0	-100	0	230	101300000	1000	0	0	-1	200
15280915	5937	1121	0	-100	0	230	101300000	1000	0	0	-1	200
15293475	5941	1130	0	-100	0	230	101300000	1000	0	0	-1	200
15306035	5935	1123	0	-100	0	230	101300000	1000	0	0	-1	200
15318595	5937	1129	0	-100	0	230	101300000	1000	0	0	-1	200
15331155	5937	1120	0	-100	0	230	101300000	1000	0	0	-1	200
15343715	5935	1121	0	-100	0	230	101300000	1000	0	0	-1	200
15356275	5933	1126	0	-100	0	230	101300000	1000	0	0	-1	200
15368835	5945	1120	0	-100	0	230	101300000	1000	0	0	-1	200
15381395	5935	1130	0	-100	0	230	101300000	1000	0	0	-1	200
15393955	5935	1132	0	-100	0	230	101300000	1000	0	0	-1	200
15406515	5942	1128	0	-100	0	230	101300000	1000	0	0	-1	200
15419075	5941	1116	0	-100	0	230	101300000	1000	0	0	-1	200
15431635	5936	1132	0	-100	0	230	101300000	1000	0	0	-1	200
15444195	5938	1115	0	-100	0	230	101300000	1000	0	0	-1	200
15456755	5941	1124	0	-100	0	230	101300000	1000	0	0	-1	200
15469315	5936	1122	0	-100	0	230	101300000	1000	0	0	-1	200
15481875	5935	1129	0	-100	0	230	101300000	1000	0	0	-1	200
15494435	5941	1125	0	-100	0	230	101300000	1000	0	0	-1	200
15506995	5936	1118	0	-100	0	230	101300000	1000	0	0	-1	200
15519555	5944	1126	0	-100	0	230	101300000	1000	0	0	-1	200
15532115	5932	1134	0	-100	0	230	101300000	1000	0	0	-1	200
15544675	5941	1127	0	-100	0	230	101300000	1000	0	0	-1	200
15557235	5941	1131	0	-100	0	230	101300000	1000	0	0	-1	200
15569795	5933	1126	0	-100	0	230	101300000	1000	0	0	-1	200
15582355	5942	1120	0	-100	0	230	101300000	1000	0	0	-1	200
15594915	5936	1133	0	-100	0	230	101300000	1000	0	0	-1	200
15607475	5935	1120	0	-100	0	230	101300000	1000	0	0	-1	200
15620035	5944	1131	0	-100	0	230	101300000	1000	0	0	-1	200
15632595	5938	1134	0	-100	0	230	101300000	1000	0	0	-1	200
15645155	5943	1127	0	-100	0	230	101300000	1000	0	0	-1	200
15657715	5938	1118	0	-100	0	230	101300000	1000	0	0	-1	200
15670275	5944	1120	0	-100	0	230	101300000	1000	0	0	-1	200
15682835	5935	1128	0	-100	0	230	101300000	1000	0	0	-1	200
15695395	5932	1124	0	-100	0	230	101300000	1000	0	0	-1	200
15707955	5941	1127	0	-100	0	230	101300000	1000	0	0	-1	200
15720515	5945	1124	0	-100	0	230	101300000	1000	0	0	-1	200
15733075	5938	1133	0	-100	0	230	101300000	1000	0	0	-1	200
15745635	5938	1119	0	-100	0	230	101300000	1000	0	0	-1	200
15758195	5942	1130	0	-100	0	230	101300000	1000	0	0	-1	200
15770755	5941	1129	0	-100	0	230	101300000	1000	0	0	-1	200
15783315	5938	1122	0	-100	0	230	101300000	1000	0	0	-1	200
15795875	5939	1125	0	-100	0	230	101300000	1000	0	0	-1	200
15808435	5945	1127	0	-100	0	230	101300000	1000	0	0	-1	200
15820995	5936	1130	0	-100	0	230	101300000	1000	0	0	-1	200
15833555	5941	1131	0	-100	0	230	101300000	1000	0	0	-1	200
15846115	5942	1126	0	-100	0	230	101300000	1000	0	0	-1	200
15858675	5939	1131	0	-100	0	230	101300000	1000	0	0	-1	200
15871235	5937	1132	0	-100	0	230	101300000	1000	0	0	-1	200
15883795	5941	1119	0	-100	0	230	101300000	1000	0	0	-1	200
15896355	5940	1132	0	-100	0	230	101300000	1000	0	0	-1	200
15908915	5937	1126	0	-100	0	230	101300000	1000	0	0	-1	200
15921475	5937	1111	0	-100	0	230	101300000	1000	0	0	-1	200
15934035	5937	1124	0	-100	0	230	101300000	1000	0	0	-1	200
15946595	5932	1109	0	-100	0	230	101300000	1000	0	0	-1	200
15959155	5941	1129	0	-100	0	230	101300000	1000	0	0	-1	200
15971715	5939	1138	0	-100	0	230	101300000	1000	0	0	-1	200
15984275	5936	1129	0	-100	0	230	101300000	1000	0	0	-1	200
15996835	5935	1114	0	-100	0	230	101300000	1000	0	0	-1	200
16009395	5938	1121	0	-100	0	230	101300000	1000	0	0	-1	200
16021955	5940	1117	0	-100	0	230	101300000	1000	0	0	-1	200
16034515	5938	1129	0	-100	0	230	101300000	1000	0	0	-1	200
16047075	5936	1120	0	-100	0	230	101300000	1000	0	0	-1	200
16059635	5932	1125	0	-100	0	230	101300000	1000	0	0	-1	200
16072195	5941	1119	0	-100	0	230	101300000	1000	0	0	-1	200
16084755	5944	1120	0	-100	0	230	101300000	1000	0	0	-1	200
16097315	5936	1127	0	-100	0	230	101300000	1000	0	0	-1	200
16109875	5941	1127	0	-100	0	230	101300000	1000	0	0	-1	200
16122435	5934	1125	0	-100	0	230	101300000	1000	0	0	-1	200
16134995	5937	1135	0	-100	0	230	101300000	1000	0	0	-1	200
16147555	5942	1126	0	-100	0	230	101300000	1000	0	0	-1	200
16160115	5938	1117	0	-100	0	230	101300000	1000	0	0	-1	200
16172675	5935	1127	0	-100	0	230	101300000	1000	0	0	-1	200
16185235	5933	1131	0	-100	0	230	101300000	1000	0	0	-1	200
16197795	5941	1127	0	-100	0	230	101300000	1000	0	0	-1	200
16210355	5941	1135	0	-100	0	230	101300000	1000	0	0	-1	200
16222915	5938	1123	0	-100	0	230	101300000	1000	0	0	-1	200
16235475	5944	1129	0	-100	0	230	101300000	1000	0	0	-1	200
16248035	5948	1129	0	-100	0	230	101300000	1000	0	0	-1	200
16260595	5937	1133	0	-100	0	230	101300000	1000	0	0	-1	200
16273155	5934	1119	0	-100	0	230	101300000	1000	0	0	-1	200
16285715	5942	1131	0	-100	0	230	101300000	1000	0	0	-1	200
16298275	5939	1134	0	-100	0	230	101300000	1000	0	0	-1	200
16310835	5935	1131	0	-100	0	230	101300000	1000	0	0	-1	200
16323395	5934	1129	0	-100	0	230	101300000	1000	0	0	-1	200
16335955	5941	1127	0	-100	0	230	101300000	1000	0	0	-1	200
16348515	5943	1123	0	-100	0	230	101300000	1000	0	0	-1	200
16361075	5941	1120	0	-100	0	230	101300000	1000	0	0	-1	200
16373635	5941	1127	0	-100	0	230	101300000	1000	0	0	-1	200
16386195	5948	1134	0	-100	0	230	101300000	1000	0	0	-1	200
16398755	5938	1139	0	-100	0	230	101300000	1000	0	0	-1	200
16411315	5941	1119	0	-100	0	230	101300000	1000	0	0	-1	200
16423875	5936	1121	0	-100	0	230	101300000	1000	0	0	-1	200
16436435	5942	1130	0	-100	0	230	101300000	1000	0	0	-1	200
16448995	5946	1124	0	-100	0	230	101300000	1000	0	0	-1	200
16461555	5937	1127	0	-100	0	230	101300000	1000	0	0	-1	200
16474115	5939	1128	0	-100	0	230	101300000	1000	0	0	-1	200
16486675	5935	1124	0	-100	0	230	101300000	1000	0	0	-1	200
16499235	5941	1115	0	-100	0	230	101300000	1000	0	0	-1	200
16511795	5943	1123	0	-100	0	230	101300000	1000	0	0	-1	200
16524355	5936	1128	0	-100	0	230	101300000	1000	0	0	-1	200
16536915	5935	1128	0	-100	0	230	101300000	1000	0	0	-1	200
16549475	5937	1129	0	-100	0	230	101300000	1000	0	0	-1	200
16562035	5941	1133	0	-100	0	230	101300000	1000	0	0	-1	200
16574595	5945	1121	0	-100	0	230	101300000	1000	0	0	-1	200
16587155	5938	1133	0	-100	0	230	101300000	1000	0	0	-1	200
16599715	5940	1127	0	-100	0	230	101300000	1000	0	0	-1	200
16612275	5932	1125	0	-100	0	230	101300000	1000	0	0	-1	200
16624835	5942	1126	0	-100	0	230	101300000	1000	0	0	-1	200
16637395	5946	1130	0	-100	0	230	101300000	1000	0	0	-1	200
16649955	5937	1130	0	-100	0	230	101300000	1000	0	0	-1	200
16662515	5938	1122	0	-100	0	230	101300000	1000	0	0	-1	200
16675075	5940	1125	0	-100	0	230	101300000	1000	0	0	-1	200
16687635	5943	1118	0	-100	0	230	101300000	1000	0	0	-1	200
16700195	5941	1125	0	-100	0	230	101300000	1000	0	0	-1	200
16712755	5937	1124	0	-100	0	230	101300000	1000	0	0	-1	200
16725315	5938	1121	0	-100	0	230	101300000	1000	0	0	-1	200
16737875	5944	1134	0	-100	0	230	101300000	1000	0	0	-1	200
16750435	5941	1132	0	-100	0	230	101300000	1000	0	0	-1	200
16762995	5937	1130	0	-100	0	230	101300000	1000	0	0	-1	200
16775555	5945	1130	0	-100	0	230	101300000	1000	0	0	-1	200
16788115	5938	1118	0	-100	0	230	101300000	1000	0	0	-1	200
16800675	5936	1123	0	-100	0	230	101300000	1000	0	0	-1	200
16813235	5937	1119	0	-100	0	230	101300000	1000	0	0	-1	200
16825795	5942	1123	0	-100	0	230	101300000	1000	0	0	-1	200
16838355	5945	1139	0	-100	0	230	101300000	1000	0	0	-1	200
16850915	5942	1142	0	-100	0	230	101300000	1000	0	0	-1	200
16863475	5931	1125	0	-100	0	230	101300000	1000	0	0	-1	200
16876035	5938	1119	0	-100	0	230	101300000	1000	0	0	-1	200
16888595	5944	1130	0	-100	0	230	101300000	1000	0	0	-1	200
16901155	5944	1120	0	-100	0	230	101300000	1000	0	0	-1	200
16913715	5941	1122	0	-100	0	230	101300000	1000	0	0	-1	200
16926275	5936	1129	0	-100	0	230	101300000	1000	0	0	-1	200
16938835	5935	1123	0	-100	0	230	101300000	1000	0	0	-1	200
16951395	5939	1123	0	-100	0	230	101300000	1000	0	0	-1	200
16963955	5937	1133	0	-100	0	230	101300000	1000	0	0	-1	200
16976515	5937	1120	0	-100	0	230	101300000	1000	0	0	-1	200
16989075	5947	1123	0	-100	0	230	101300000	1000	0	0	-1	200
17001635	5936	1130	0	-100	0	230	101300000	1000	0	0	-1	200
17014195	5937	1125	0	-100	0	230	101300000	1000	0	0	-1	200
17026755	5940	1113	0	-100	0	230	101300000	1000	0	0	-1	200
17039315	5945	1114	0	-100	0	230	101300000	1000	0	0	-1	200
17051875	5941	1142	0	-100	0	230	101300000	1000	0	0	-1	200
17064435	5941	1120	0	-100	0	230	101300000	1000	0	0	-1	200
17076995	5943	1129	0	-100	0	230	101300000	1000	0	0	-1	200
17089555	5942	1119	0	-100	0	230	101300000	1000	0	0	-1	200
17102115	5941	1119	0	-100	0	230	101300000	1000	0	0	-1	200
17114675	5937	1132	0	-100	0	230	101300000	1000	0	0	-1	200
17127235	5935	1119	0	-100	0	230	101300000	1000	0	0	-1	200
17139795	5936	1129	0	-100	0	230	101300000	1000	0	0	-1	200
17152355	5936	1130	0	-100	0	230	101300000	1000	0	0	-1	200
17164915	5942	1122	0	-100	0	230	101300000	1000	0	0	-1	200
17177475	5945	1133	0	-100	0	230	101300000	1000	0	0	-1	200
17190035	5938	1122	0	-100	0	230	101300000	1000	0	0	-1	200
17202595	5933	1129	0	-100	0	230	101300000	1000	0	0	-1	200
17215155	5940	1129	0	-100	0	230	101300000	1000	0	0	-1	200
17227715	5936	1130	0	-100	0	230	101300000	1000	0	0	-1	200
17240275	5942	1130	0	-100	0	230	101300000	1000	0	0	-1	200
17252835	5941	1119	0	-100	0	230	101300000	1000	0	0	-1	200
17265395	5939	1130	0	-100	0	230	101300000	1000	0	0	-1	200
17277955	5939	1119	0	-100	0	230	101300000	1000	0	0	-1	200
17290515	5937	1129	0	-100	0	230	101300000	1000	0	0	-1	200
17303075	5943	1131	0	-100	0	230	101300000	1000	0	0	-1	200
17315635	5936	1127	0	-100	0	230	101300000	1000	0	0	-1	200
17328195	5941	1134	0	-100	0	230	101300000	1000	0	0	-1	200
17340755	5937	1129	0	-100	0	230	101300000	1000	0	0	-1	200
17353315	5943	1121	0	-100	0	230	101300000	1000	0	0	-1	200
17365875	5936	1128	0	-100	0	230	101300000	1000	0	0	-1	200
17378435	5938	1121	0	-100	0	230	101300000	1000	0	0	-1	200
17390995	5939	1128	0	-100	0	230	101300000	1000	0	0	-1	200
17403555	5944	1126	0	-100	0	230	101300000	1000	0	0	-1	200
17416115	5940	1138	0	-100	0	230	101300000	1000	0	0	-1	200
17428675	5938	1136	0	-100	0	230	101300000	1000	0	0	-1	200
17441235	5939	1127	0	-100	0	230	101300000	1000	0	0	-1	200
17453795	5935	1118	0	-100	0	230	101300000	1000	0	0	-1	200
17466355	5939	1130	0	-100	0	230	101300000	1000	0	0	-1	200
17478915	5940	1138	0	-100	0	230	101300000	1000	0	0	-1	200
17491475	5942	1125	0	-100	0	230	101300000	1000	0	0	-1	200
17504035	5940	1138	0	-100	0	230	101300000	1000	0	0	-1	200
17516595	5940	1124	0	-100	0	230	101300000	1000	0	0	-1	200
17529155	5941	1116	0	-100	0	230	101300000	1000	0	0	-1	200
17541715	5944	1116	0	-100	0	230	101300000	1000	0	0	-1	200
17554275	5939	1125	0	-100	0	230	101300000	1000	0	0	-1	200
17566835	5936	1122	0	-100	0	230	101300000	1000	0	0	-1	200
17579395	5941	1132	0	-100	0	230	101300000	1000	0	0	-1	200
17591955	5945	1128	0	-100	0	230	101300000	1000	0	0	-1	200
17604515	5935	1128	0	-100	0	230	101300000	1000	0	0	-1	200
17617075	5932	1115	0	-100	0	230	101300000	1000	0	0	-1	200
17629635	5940	1136	0	-100	0	230	101300000	1000	0	0	-1	200
17642195	5940	1116	0	-100	0	230	101300000	1000	0	0	-1	200
17654755	5935	1127	0	-100	0	230	101300000	1000	0	0	-1	200
17667315	5938	1130	0	-100	0	230	101300000	1000	0	0	-1	200
17679875	5937	1116	0	-100	0	230	101300000	1000	0	0	-1	200
17692435	5942	1128	0	-100	0	230	101300000	1000	0	0	-1	200
17704995	5940	1121	0	-100	0	230	101300000	1000	0	0	-1	200
17717555	5936	1123	0	-100	0	230	101300000	1000	0	0	-1	200
17730115	5938	1121	0	-100	0	230	101300000	1000	0	0	-1	200
17742675	5935	1130	0	-100	0	230	101300000	1000	0	0	-1	200
17755235	5936	1118	0	-100	0	230	101300000	1000	0	0	-1	200
17767795	5937	1125	0	-100	0	230	101300000	1000	0	0	-1	200
17780355	5940	1117	0	-100	0	230	101300000	1000	0	0	-1	200
17792915	5945	1120	0	-100	0	230	101300000	1000	0	0	-1	200
17805475	5941	1118	0	-100	0	230	101300000	1000	0	0	-1	200
17818035	5936	1126	0	-100	0	230	101300000	1000	0	0	-1	200
17830595	5936	1128	0	-100	0	230	101300000	1000	0	0	-1	200
17843155	5934	1121	0	-100	0	230	101300000	1000	0	0	-1	200
17855715	5942	1120	0	-100	0	230	101300000	1000	0	0	-1	200
17868275	5946	1130	0	-100	0	230	101300000	1000	0	0	-1	200
17880835	5938	1134	0	-100	0	230	101300000	1000	0	0	-1	200
17893395	5936	1130	0	-100	0	230	101300000	1000	0	0	-1	200
17905955	5935	1122	0	-100	0	230	101300000	1000	0	0	-1	200
17918515	5939	1117	0	-100	0	230	101300000	1000	0	0	-1	200
17931075	5944	1133	0	-100	0	230	101300000	1000	0	0	-1	200
17943635	5946	1128	0	-100	0	230	101300000	1000	0	0	-1	200
17956195	5936	1128	0	-100	0	230	101300000	1000	0	0	-1	200
17968755	5941	1126	0	-100	0	230	101300000	1000	0	0	-1	200
17981315	5934	1125	0	-100	0	230	101300000	1000	0	0	-1	200
17993875	5936	1121	0	-100	0	230	101300000	1000	0	0	-1	200
18006435	5942	1128	0	-100	0	230	101300000	1000	0	0	-1	200
18018995	5943	1130	0	-100	0	230	101300000	1000	0	0	-1	200
18031555	5945	1120	0	-100	0	230	101300000	1000	0	0	-1	200
18044115	5937	1122	0	-100	0	230	101300000	1000	0	0	-1	200
18056675	5937	1131	0	-100	0	230	101300000	1000	0	0	-1	200
18069235	5935	1110	0	-100	0	230	101300000	1000	0	0	-1	200
18081795	5933	1122	0	-100	0	230	101300000	1000	0	0	-1	200
18094355	5936	1121	0	-100	0	230	101300000	1000	0	0	-1	200
18106915	5935	1122	0	-100	0	230	101300000	1000	0	0	-1	200
18119475	5937	1124	0	-100	0	230	101300000	1000	0	0	-1	200
18132035	5939	1130	0	-100	0	230	101300000	1000	0	0	-1	200
18144595	5941	1129	0	-100	0	230	101300000	1000	0	0	-1	200
18157155	5941	1123	0	-100	0	230	101300000	1000	0	0	-1	200
18169715	5939	1117	0	-100	0	230	101300000	1000	0	0	-1	200
18182275	5945	1126	0	-100	0	230	101300000	1000	0	0	-1	200
18194835	5941	1115	0	-100	0	230	101300000	1000	0	0	-1	200
18207395	5939	1126	0	-100	0	230	101300000	1000	0	0	-1	200
18219955	5941	1126	0	-100	0	230	101300000	1000	0	0	-1	200
18232515	5938	1131	0	-100	0	230	101300000	1000	0	0	-1	200
18245075	5934	1130	0	-100	0	230	101300000	1000	0	0	-1	200
18257635	5933	1114	0	-100	0	230	101300000	1000	0	0	-1	200
18270195	5945	1125	0	-100	0	230	101300000	1000	0	0	-1	200
18282755	5941	1117	0	-100	0	230	101300000	1000	0	0	-1	200
18295315	5941	1119	0	-100	0	230	101300000	1000	0	0	-1	200
18307875	5944	1126	0	-100	0	230	101300000	1000	0	0	-1	200
18320435	5936	1123	0	-100	0	230	101300000	1000	0	0	-1	200
18332995	5939	1122	0	-100	0	230	101300000	1000	0	0	-1	200
18345555	5934	1132	0	-100	0	230	101300000	1000	0	0	-1	200
18358115	5937	1125	0	-100	0	230	101300000	1000	0	0	-1	200
18370675	5940	1126	0	-100	0	230	101300000	1000	0	0	-1	200
18383235	5944	1131	0	-100	0	230	101300000	1000	0	0	-1	200
18395795	5935	1127	0	-100	0	230	101300000	1000	0	0	-1	200
18408355	5939	1132	0	-100	0	230	101300000	1000	0	0	-1	200
18420915	5936	1118	0	-100	0	230	101300000	1000	0	0	-1	200
18433475	5942	1135	0	-100	0	230	101300000	1000	0	0	-1	200
18446035	5944	1134	0	-100	0	230	101300000	1000	0	0	-1	200
18458595	5939	1126	0	-100	0	230	101300000	1000	0	0	-1	200
18471155	5941	1125	0	-100	0	230	101300000	1000	0	0	-1	200
18483715	5935	1123	0	-100	0	230	101300000	1000	0	0	-1	200
18496275	5943	1127	0	-100	0	230	101300000	1000	0	0	-1	200
18508835	5939	1124	0	-100	0	230	101300000	1000	0	0	-1	200
18521395	5941	1122	0	-100	0	230	101300000	1000	0	0	-1	200
18533955	5937	1133	0	-100	0	230	101300000	1000	0	0	-1	200
18546515	5936	1120	0	-100	0	230	101300000	1000	0	0	-1	200
18559075	5933	1127	0	-100	0	230	101300000	1000	0	0	-1	200
18571635	5938	1124	0	-100	0	230	101300000	1000	0	0	-1	200
18584195	5945	1120	0	-100	0	230	101300000	1000	0	0	-1	200
18596755	5939	1124	0	-100	0	230	101300000	1000	0	0	-1	200
18609315	5945	1127	0	-100	0	230	101300000	1000	0	0	-1	200
18621875	5937	1116	0	-100	0	230	101300000	1000	0	0	-1	200
18634435	5944	1132	0	-100	0	230	101300000	1000	0	0	-1	200
18646995	5941	1121	0	-100	0	230	101300000	1000	0	0	-1	200
18659555	5939	1130	0	-100	0	230	101300000	1000	0	0	-1	200
18672115	5936	1132	0	-100	0	230	101300000	1000	0	0	-1	200
18684675	5936	1128	0	-100	0	230	101300000	1000	0	0	-1	200
18697235	5941	1127	0	-100	0	230	101300000	1000	0	0	-1	200
18709795	5937	1128	0	-100	0	230	101300000	1000	0	0	-1	200
18722355	5933	1127	0	-100	0	230	101300000	1000	0	0	-1	200
18734915	5931	1134	0	-100	0	230	101300000	1000	0	0	-1	200
18747475	5941	1127	0	-100	0	230	101300000	1000	0	0	-1	200
18760035	5941	1125	0	-100	0	230	101300000	1000	0	0	-1	200
18772595	5941	1128	0	-100	0	230	101300000	1000	0	0	-1	200
18785155	5937	1127	0	-100	0	230	101300000	1000	0	0	-1	200
18797715	5934	1134	0	-100	0	230	101300000	1000	0	0	-1	200
18810275	5928	1126	0	-100	0	230	101300000	1000	0	0	-1	200
18822835	5936	1135	0	-100	0	230	101300000	1000	0	0	-1	200
18835395	5944	1121	0	-100	0	230	101300000	1000	0	0	-1	200
18847955	5942	1123	0	-100	0	230	101300000	1000	0	0	-1	200
18860515	5941	1112	0	-100	0	230	101300000	1000	0	0	-1	200
18873075	5944	1126	0	-100	0	230	101300000	1000	0	0	-1	200
18885635	5935	1124	0	-100	0	230	101300000	1000	0	0	-1	200
18898195	5932	1127	0	-100	0	230	101300000	1000	0	0	-1	200
18910755	5934	1132	0	-100	0	230	101300000	1000	0	0	-1	200
18923315	5938	1121	0	-100	0	230	101300000	1000	0	0	-1	200
18935875	5934	1119	0	-100	0	230	101300000	1000	0	0	-1	200
18948435	5936	1130	0	-100	0	230	101300000	1000	0	0	-1	200
18960995	5940	1121	0	-100	0	230	101300000	1000	0	0	-1	200
18973555	5945	1120	0	-100	0	230	101300000	1000	0	0	-1	200
18986115	5941	1127	0	-100	0	230	101300000	1000	0	0	-1	200
18998675	5936	1130	0	-100	0	230	101300000	1000	0	0	-1	200
19011235	5936	1129	0	-100	0	230	101300000	1000	0	0	-1	200
19023795	5933	1117	0	-100	0	230	101300000	1000	0	0	-1	200
19036355	5939	1123	0	-100	0	230	101300000	1000	0	0	-1	200
19048915	5945	1124	0	-100	0	230	101300000	1000	0	0	-1	200
19061475	5941	1128	0	-100	0	230	101300000	1000	0	0	-1	200
19074035	5938	1127	0	-100	0	230	101300000	1000	0	0	-1	200
19086595	5933	1126	0	-100	0	230	101300000	1000	0	0	-1	200
19099155	5940	1123	0	-100	0	230	101300000	1000	0	0	-1	200
19111715	5939	1125	0	-100	0	230	101300000	1000	0	0	-1	200
19124275	5937	1128	0	-100	0	230	101300000	1000	0	0	-1	200
19136835	5932	1120	0	-100	0	230	101300000	1000	0	0	-1	200
19149395	5934	1125	0	-100	0	230	101300000	1000	0	0	-1	200
19161955	5939	1130	0	-100	0	230	101300000	1000	0	0	-1	200
19174515	5938	1121	0	-100	0	230	101300000	1000	0	0	-1	200
19187075	5941	1127	0	-100	0	230	101300000	1000	0	0	-1	200
19199635	5941	1121	0	-100	0	230	101300000	1000	0	0	-1	200
19212195	5941	1123	0	-100	0	230	101300000	1000	0	0	-1	200
19224755	5941	1132	0	-100	0	230	101300000	1000	0	0	-1	200
19237315	5940	1122	0	-100	0	230	101300000	1000	0	0	-1	200
19249875	5936	1126	0	-100	0	230	101300000	1000	0	0	-1	200
19262435	5942	1127	0	-100	0	230	101300000	1000	0	0	-1	200
19274995	5939	1126	0	-100	0	230	101300000	1000	0	0	-1	200
19287555	5936	1121	0	-100	0	230	101300000	1000	0	0	-1	200
19300115	5935	1122	0	-100	0	230	101300000	1000	0	0	-1	200
19312675	5941	1128	0	-100	0	230	101300000	1000	0	0	-1	200
19325235	5944	1132	0	-100	0	230	101300000	1000	0	0	-1	200
19337795	5943	1123	0	-100	0	230	101300000	1000	0	0	-1	200
19350355	5941	1118	0	-100	0	230	101300000	1000	0	0	-1	200
19362915	5940	1128	0	-100	0	230	101300000	1000	0	0	-1	200
19375475	5935	1127	0	-100	0	230	101300000	1000	0	0	-1	200
19388035	5938	1131	0	-100	0	230	101300000	1000	0	0	-1	200
19400595	5935	1132	0	-100	0	230	101300000	1000	0	0	-1	200
19413155	5940	1126	0	-100	0	230	101300000	1000	0	0	-1	200
19425715	5944	1126	0	-100	0	230	101300000	1000	0	0	-1	200
19438275	5937	1126	0	-100	0	230	101300000	1000	0	0	-1	200
19450835	5935	1124	0	-100	0	230	101300000	1000	0	0	-1	200
19463395	5942	1129	0	-100	0	230	101300000	1000	0	0	-1	200
19475955	5936	1132	0	-100	0	230	101300000	1000	0	0	-1	200
19488515	5936	1124	0	-100	0	230	101300000	1000	0	0	-1	200
19501075	5940	1125	0	-100	0	230	101300000	1000	0	0	-1	200
19513635	5938	1125	0	-100	0	230	101300000	1000	0	0	-1	200
19526195	5931	1127	0	-100	0	230	101300000	1000	0	0	-1	200
19538755	5944	1118	0	-100	0	230	101300000	1000	0	0	-1	200
19551315	5944	1129	0	-100	0	230	101300000	1000	0	0	-1	200
19563875	5938	1131	0	-100	0	230	101300000	1000	0	0	-1	200
19576435	5940	1137	0	-100	0	230	101300000	1000	0	0	-1	200
19588995	5944	1122	0	-100	0	230	101300000	1000	0	0	-1	200
19601555	5939	1134	0	-100	0	230	101300000	1000	0	0	-1	200
19614115	5942	1130	0	-100	0	230	101300000	1000	0	0	-1	200
19626675	5933	1117	0	-100	0	230	101300000	1000	0	0	-1	200
19639235	5935	1124	0	-100	0	230	101300000	1000	0	0	-1	200
19651795	5941	1123	0	-100	0	230	101300000	1000	0	0	-1	200
19664355	5941	1125	0	-100	0	230	101300000	1000	0	0	-1	200
19676915	5934	1124	0	-100	0	230	101300000	1000	0	0	-1	200
19689475	5944	1118	0	-100	0	230	101300000	1000	0	0	-1	200
19702035	5937	1117	0	-100	0	230	101300000	1000	0	0	-1	200
19714595	5939	1131	0	-100	0	230	101300000	1000	0	0	-1	200
19727155	5935	1130	0	-100	0	230	101300000	1000	0	0	-1	200
19739715	5944	1125	0	-100	0	230	101300000	1000	0	0	-1	200
19752275	5944	1138	0	-100	0	230	101300000	1000	0	0	-1	200
19764835	5938	1122	0	-100	0	230	101300000	1000	0	0	-1	200
19777395	5935	1129	0	-100	0	230	101300000	1000	0	0	-1	200
19789955	5935	1126	0	-100	0	230	101300000	1000	0	0	-1	200
19802515	5940	1126	0	-100	0	230	101300000	1000	0	0	-1	200
19815075	5945	1120	0	-100	0	230	101300000	1000	0	0	-1	200
19827635	5936	1126	0	-100	0	230	101300000	1000	0	0	-1	200
19840195	5939	1126	0	-100	0	230	101300000	1000	0	0	-1	200
19852755	5936	1124	0	-100	0	230	101300000	1000	0	0	-1	200
19865315	5933	1124	0	-100	0	230	101300000	1000	0	0	-1	200
19877875	5938	1125	0	-100	0	230	101300000	1000	0	0	-1	200
19890435	5936	1127	0	-100	0	230	101300000	1000	0	0	-1	200
19902995	5935	1120	0	-100	0	230	101300000	1000	0	0	-1	200
19915555	5941	1122	0	-100	0	230	101300000	1000	0	0	-1	200
19928115	5938	1127	0	-100	0	230	101300000	1000	0	0	-1	200
19940675	5935	1119	0	-100	0	230	101300000	1000	0	0	-1	200
19953235	5938	1121	0	-100	0	230	101300000	1000	0	0	-1	200
19965795	5944	1122	0	-100	0	230	101300000	1000	0	0	-1	200
19978355	5938	1126	0	-100	0	230	101300000	1000	0	0	-1	200
19990915	5939	1123	0	-100	0	230	101300000	1000	0	0	-1	200
20003475	5941	1119	0	-100	0	230	101300000	1000	0	0	-1	200
20016035	5948	1121	0	-100	0	230	101300000	1000	0	0	-1	200
20028595	5935	1124	0	-100	0	230	101300000	1000	0	0	-1	200
20041155	5938	1124	0	-100	0	230	101300000	1000	0	0	-1	200
20053715	5943	1127	0	-100	0	230	101300000	1000	0	0	-1	200
20066275	5935	1118	0	-100	0	230	101300000	1000	0	0	-1	200
20078835	5935	1128	0	-100	0	230	101300000	1000	0	0	-1	200
20091395	5939	1125	0	-100	0	230	101300000	1000	0	0	-1	200
20103955	5933	1127	0	-100	0	230	101300000	1000	0	0	-1	200
20116515	5936	1133	0	-100	0	230	101300000	1000	0	0	-1	200
20129075	5940	1120	0	-100	0	230	101300000	1000	0	0	-1	200
20141635	5936	1126	0	-100	0	230	101300000	1000	0	0	-1	200
20154195	5941	1124	0	-100	0	230	101300000	1000	0	0	-1	200
20166755	5941	1118	0	-100	0	230	101300000	1000	0	0	-1	200
20179315	5939	1129	0	-100	0	230	101300000	1000	0	0	-1	200
20191875	5936	1125	0	-100	0	230	101300000	1000	0	0	-1	200
20204435	5942	1129	0	-100	0	230	101300000	1000	0	0	-1	200
20216995	5941	1122	0	-100	0	230	101300000	1000	0	0	-1	200
20229555	5942	1118	0	-100	0	230	101300000	1000	0	0	-1	200
20242115	5941	1125	0	-100	0	230	101300000	1000	0	0	-1	200
20254675	5938	1126	0	-100	0	230	101300000	1000	0	0	-1	200
20267235	5941	1126	0	-100	0	230	101300000	1000	0	0	-1	200
20279795	5937	1129	0	-100	0	230	101300000	1000	0	0	-1	200
20292355	5937	1132	0	-100	0	230	101300000	1000	0	0	-1	200
20304915	5935	1128	0	-100	0	230	101300000	1000	0	0	-1	200
20317475	5934	1117	0	-100	0	230	101300000	1000	0	0	-1	200
20330035	5932	1129	0	-100	0	230	101300000	1000	0	0	-1	200
20342595	5939	1122	0	-100	0	230	101300000	1000	0	0	-1	200
20355155	5940	1120	0	-100	0	230	101300000	1000	0	0	-1	200
20367715	5936	1119	0	-100	0	230	101300000	1000	0	0	-1	200
20380275	5938	1128	0	-100	0	230	101300000	1000	0	0	-1	200
20392835	5941	1131	0	-100	0	230	101300000	1000	0	0	-1	200
20405395	5937	1127	0	-100	0	230	101300000	1000	0	0	-1	200
20417955	5936	1127	0	-100	0	230	101300000	1000	0	0	-1	200
20430515	5938	1127	0	-100	0	230	101300000	1000	0	0	-1	200
20443075	5936	1120	0	-100	0	230	101300000	1000	0	0	-1	200
20455635	5938	1125	0	-100	0	230	101300000	1000	0	0	-1	200
20468195	5933	1127	0	-100	0	230	101300000	1000	0	0	-1	200
20480755	5934	1128	0	-100	0	230	101300000	1000	0	0	-1	200
20493315	5939	1121	0	-100	0	230	101300000	1000	0	0	-1	200
20505875	5939	1119	0	-100	0	230	101300000	1000	0	0	-1	200
20518435	5941	1122	0	-100	0	230	101300000	1000	0	0	-1	200
20530995	5944	1121	0	-100	0	230	101300000	1000	0	0	-1	200
20543555	5941	1125	0	-100	0	230	101300000	1000	0	0	-1	200
20556115	5939	1124	0	-100	0	230	101300000	1000	0	0	-1	200
20568675	5940	1136	0	-100	0	230	101300000	1000	0	0	-1	200
20581235	5939	1124	0	-100	0	230	101300000	1000	0	0	-1	200
20593795	5935	1127	0	-100	0	230	101300000	1000	0	0	-1	200
20606355	5939	1128	0	-100	0	230	101300000	1000	0	0	-1	200
20618915	5937	1115	0	-100	0	230	101300000	1000	0	0	-1	200
20631475	5938	1123	0	-100	0	230	101300000	1000	0	0	-1	200
20644035	5939	1120	0	-100	0	230	101300000	1000	0	0	-1	200
20656595	5939	1116	0	-100	0	230	101300000	1000	0	0	-1	200
20669155	5941	1124	0	-100	0	230	101300000	1000	0	0	-1	200
20681715	5941	1119	0	-100	0	230	101300000	1000	0	0	-1	200
20694275	5940	1124	0	-100	0	230	101300000	1000	0	0	-1	200
20706835	5942	1123	0	-100	0	230	101300000	1000	0	0	-1	200
20719395	5940	1129	0	-100	0	230	101300000	1000	0	0	-1	200
20731955	5940	1127	0	-100	0	230	101300000	1000	0	0	-1	200
20744515	5941	1124	0	-100	0	230	101300000	1000	0	0	-1	200
20757075	5937	1125	0	-100	0	230	101300000	1000	0	0	-1	200
20769635	5941	1120	0	-100	0	230	101300000	1000	0	0	-1	200
20782195	5941	1131	0	-100	0	230	101300000	1000	0	0	-1	200
20794755	5941	1124	0	-100	0	230	101300000	1000	0	0	-1	200
20807315	5944	1117	0	-100	0	230	101300000	1000	0	0	-1	200
20819875	5941	1125	0	-100	0	230	101300000	1000	0	0	-1	200
20832435	5946	1126	0	-100	0	230	101300000	1000	0	0	-1	200
20844995	5937	1116	0	-100	0	230	101300000	1000	0	0	-1	200
20857555	5936	1116	0	-100	0	230	101300000	1000	0	0	-1	200
20870115	5939	1126	0	-100	0	230	101300000	1000	0	0	-1	200
20882675	5936	1126	0	-100	0	230	101300000	1000	0	0	-1	200
20895235	5936	1130	0	-100	0	230	101300000	1000	0	0	-1	200
20907795	5932	1113	0	-100	0	230	101300000	1000	0	0	-1	200
20920355	5936	1128	0	-100	0	230	101300000	1000	0	0	-1	200
20932915	5935	1126	0	-100	0	230	101300000	1000	0	0	-1	200
20945475	5939	1126	0	-100	0	230	101300000	1000	0	0	-1	200
20958035	5937	1118	0	-100	0	230	101300000	1000	0	0	-1	200
20970595	5937	1123	0	-100	0	230	101300000	1000	0	0	-1	200
20983155	5938	1120	0	-100	0	230	101300000	1000	0	0	-1	200
20995715	5942	1120	0	-100	0	230	101300000	1000	0	0	-1	200
21008275	5946	1112	0	-100	0	230	101300000	1000	0	0	-1	200
21020835	5941	1125	0	-100	0	230	101300000	1000	0	0	-1	200
21033395	5937	1119	0	-100	0	230	101300000	1000	0	0	-1	200
21045955	5935	1129	0	-100	0	230	101300000	1000	0	0	-1	200
21058515	5935	1133	0	-100	0	230	101300000	1000	0	0	-1	200
21071075	5941	1120	0	-100	0	230	101300000	1000	0	0	-1	200
21083635	5935	1125	0	-100	0	230	101300000	1000	0	0	-1	200
21096195	5933	1124	0	-100	0	230	101300000	1000	0	0	-1	200
21108755	5934	1124	0	-100	0	230	101300000	1000	0	0	-1	200
21121315	5939	1125	0	-100	0	230	101300000	1000	0	0	-1	200
21133875	5940	1122	0	-100	0	230	101300000	1000	0	0	-1	200
21146435	5939	1110	0	-100	0	230	101300000	1000	0	0	-1	200
21158995	5935	1131	0	-100	0	230	101300000	1000	0	0	-1	200
21171555	5938	1128	0	-100	0	230	101300000	1000	0	0	-1	200
21184115	5937	1132	0	-100	0	230	101300000	1000	0	0	-1	200
21196675	5943	1129	0	-100	0	230	101300000	1000	0	0	-1	200
21209235	5939	1128	0	-100	0	230	101300000	1000	0	0	-1	200
21221795	5937	1128	0	-100	0	230	101300000	1000	0	0	-1	200
21234355	5936	1125	0	-100	0	230	101300000	1000	0	0	-1	200
21246915	5942	1121	0	-100	0	230	101300000	1000	0	0	-1	200
21259475	5946	1121	0	-100	0	230	101300000	1000	0	0	-1	200
21272035	5941	1114	0	-100	0	230	101300000	1000	0	0	-1	200
21284595	5942	1126	0	-100	0	230	101300000	1000	0	0	-1	200
21297155	5937	1126	0	-100	0	230	101300000	1000	0	0	-1	200
21309715	5936	1132	0	-100	0	230	101300000	1000	0	0	-1	200
21322275	5941	1128	0	-100	0	230	101300000	1000	0	0	-1	200
21334835	5939	1128	0	-100	0	230	101300000	1000	0	0	-1	200
21347395	5944	1128	0	-100	0	230	101300000	1000	0	0	-1	200
21359955	5944	1128	0	-100	0	230	101300000	1000	0	0	-1	200
21372515	5942	1117	0	-100	0	230	101300000	1000	0	0	-1	200
21385075	5941	1117	0	-100	0	230	101300000	1000	0	0	-1	200
21397635	5936	1127	0	-100	0	230	101300000	1000	0	0	-1	200
21410195	5936	1122	0	-100	0	230	101300000	1000	0	0	-1	200
21422755	5936	1126	0	-100	0	230	101300000	1000	0	0	-1	200
21435315	5941	1121	0	-100	0	230	101300000	1000	0	0	-1	200
21447875	5941	1121	0	-100	0	230	101300000	1000	0	0	-1	200
21460435	5932	1126	0	-100	0	230	101300000	1000	0	0	-1	200
21472995	5939	1128	0	-100	0	230	101300000	1000	0	0	-1	200
21485555	5937	1124	0	-100	0	230	101300000	1000	0	0	-1	200
21498115	5941	1127	0	-100	0	230	101300000	1000	0	0	-1	200
21510675	5944	1121	0	-100	0	230	101300000	1000	0	0	-1	200
21523235	5942	1130	0	-100	0	230	101300000	1000	0	0	-1	200
21535795	5936	1127	0	-100	0	230	101300000	1000	0	0	-1	200
21548355	5936	1126	0	-100	0	230	101300000	1000	0	0	-1	200
21560915	5939	1129	0	-100	0	230	101300000	1000	0	0	-1	200
21573475	5945	1119	0	-100	0	230	101300000	1000	0	0	-1	200
21586035	5935	1125	0	-100	0	230	101300000	1000	0	0	-1	200
21598595	5937	1121	0	-100	0	230	101300000	1000	0	0	-1	200
21611155	5947	1120	0	-100	0	230	101300000	1000	0	0	-1	200
21623715	5940	1121	0	-100	0	230	101300000	1000	0	0	-1	200
21636275	5933	1121	0	-100	0	230	101300000	1000	0	0	-1	200
21648835	5941	1131	0	-100	0	230	101300000	1000	0	0	-1	200
21661395	5940	1132	0	-100	0	230	101300000	1000	0	0	-1	200
21673955	5942	1136	0	-100	0	230	101300000	1000	0	0	-1	200
21686515	5935	1132	0	-100	0	230	101300000	1000	0	0	-1	200
21699075	5942	1128	0	-100	0	230	101300000	1000	0	0	-1	200
21711635	5941	1127	0	-100	0	230	101300000	1000	0	0	-1	200
21724195	5941	1128	0	-100	0	230	101300000	1000	0	0	-1	200
21736755	5937	1119	0	-100	0	230	101300000	1000	0	0	-1	200
21749315	5938	1126	0	-100	0	230	101300000	1000	0	0	-1	200
21761875	5939	1130	0	-100	0	230	101300000	1000	0	0	-1	200
21774435	5940	1115	0	-100	0	230	101300000	1000	0	0	-1	200
21786995	5935	1128	0	-100	0	230	101300000	1000	0	0	-1	200
21799555	5941	1135	0	-100	0	230	101300000	1000	0	0	-1	200
21812115	5934	1126	0	-100	0	230	101300000	1000	0	0	-1	200
21824675	5943	1126	0	-100	0	230	101300000	1000	0	0	-1	200
21837235	5943	1122	0	-100	0	230	101300000	1000	0	0	-1	200
21849795	5937	1123	0	-100	0	230	101300000	1000	0	0	-1	200
21862355	5936	1121	0	-100	0	230	101300000	1000	0	0	-1	200
21874915	5941	1128	0	-100	0	230	101300000	1000	0	0	-1	200
21887475	5945	1125	0	-100	0	230	101300000	1000	0	0	-1	200
21900035	5942	1123	0	-100	0	230	101300000	1000	0	0	-1	200
21912595	5937	1126	0	-100	0	230	101300000	1000	0	0	-1	200
21925155	5938	1131	0	-100	0	230	101300000	1000	0	0	-1	200
21937715	5937	1111	0	-100	0	230	101300000	1000	0	0	-1	200
21950275	5943	1127	0	-100	0	230	101300000	1000	0	0	-1	200
21962835	5939	1121	0	-100	0	230	101300000	1000	0	0	-1	200
21975395	5937	1131	0	-100	0	230	101300000	1000	0	0	-1	200
21987955	5937	1128	0	-100	0	230	101300000	1000	0	0	-1	200
22000515	5937	1135	0	-100	0	230	101300000	1000	0	0	-1	200
22013075	5943	1124	0	-100	0	230	101300000	1000	0	0	-1	200
22025635	5940	1126	0	-100	0	230	101300000	1000	0	0	-1	200
22038195	5945	1124	0	-100	0	230	101300000	1000	0	0	-1	200
22050755	5940	1122	0	-100	0	230	101300000	1000	0	0	-1	200
22063315	5937	1123	0	-100	0	230	101300000	1000	0	0	-1	200
22075875	5936	1116	0	-100	0	230	101300000	1000	0	0	-1	200
22088435	5935	1115	0	-100	0	230	101300000	1000	0	0	-1	200
22100995	5932	1122	0	-100	0	230	101300000	1000	0	0	-1	200
22113555	5937	1128	0	-100	0	230	101300000	1000	0	0	-1	200
22126115	5939	1124	0	-100	0	230	101300000	1000	0	0	-1	200
22138675	5936	1127	0	-100	0	230	101300000	1000	0	0	-1	200
22151235	5938	1127	0	-100	0	230	101300000	1000	0	0	-1	200
22163795	5932	1120	0	-100	0	230	101300000	1000	0	0	-1	200
22176355	5935	1119	0	-100	0	230	101300000	1000	0	0	-1	200
22188915	5939	1120	0	-100	0	230	101300000	1000	0	0	-1	200
22201475	5941	1120	0	-100	0	230	101300000	1000	0	0	-1	200
22214035	5945	1128	0	-100	0	230	101300000	1000	0	0	-1	200
22226595	5941	1119	0	-100	0	230	101300000	1000	0	0	-1	200
22239155	5941	1131	0	-100	0	230	101300000	1000	0	0	-1	200
22251715	5941	1117	0	-100	0	230	101300000	1000	0	0	-1	200
22264275	5941	1124	0	-100	0	230	101300000	1000	0	0	-1	200
22276835	5938	1120	0	-100	0	230	101300000	1000	0	0	-1	200
22289395	5934	1117	0	-100	0	230	101300000	1000	0	0	-1	200
22301955	5936	1120	0	-100	0	230	101300000	1000	0	0	-1	200
22314515	5936	1123	0	-100	0	230	101300000	1000	0	0	-1	200
22327075	5939	1131	0	-100	0	230	101300000	1000	0	0	-1	200
22339635	5935	1126	0	-100	0	230	101300000	1000	0	0	-1	200
22352195	5936	1125	0	-100	0	230	101300000	1000	0	0	-1	200
22364755	5936	1129	0	-100	0	230	101300000	1000	0	0	-1	200
22377315	5937	1120	0	-100	0	230	101300000	1000	0	0	-1	200
22389875	5943	1126	0	-100	0	230	101300000	1000	0	0	-1	200
22402435	5939	1125	0	-100	0	230	101300000	1000	0	0	-1	200
22414995	5939	1126	0	-100	0	230	101300000	1000	0	0	-1	200
22427555	5939	1126	0	-100	0	230	101300000	1000	0	0	-1	200
22440115	5935	1125	0	-100	0	230	101300000	1000	0	0	-1	200
22452675	5932	1129	0	-100	0	230	101300000	1000	0	0	-1	200
22465235	5935	1118	0	-100	0	230	101300000	1000	0	0	-1	200
22477795	5934	1120	0	-100	0	230	101300000	1000	0	0	-1	200
22490355	5929	1117	0	-100	0	230	101300000	1000	0	0	-1	200
22502915	5936	1124	0	-100	0	230	101300000	1000	0	0	-1	200
22515475	5932	1124	0	-100	0	230	101300000	1000	0	0	-1	200
22528035	5929	1122	0	-100	0	230	101300000	1000	0	0	-1	200
22540595	5932	1125	0	-100	0	230	101300000	1000	0	0	-1	200
22553155	5934	1121	0	-100	0	230	101300000	1000	0	0	-1	200
22565715	5932	1133	0	-100	0	230	101300000	1000	0	0	-1	200
22578275	5933	1125	0	-100	0	230	101300000	1000	0	0	-1	200
22590835	5936	1116	0	-100	0	230	101300000	1000	0	0	-1	200
22603395	5932	1123	0	-100	0	230	101300000	1000	0	0	-1	200
22615955	5940	1124	0	-100	0	230	101300000	1000	0	0	-1	200
22628515	5933	1129	0	-100	0	230	101300000	1000	0	0	-1	200
22641075	5936	1120	0	-100	0	230	101300000	1000	0	0	-1	200
22653635	5935	1113	0	-100	0	230	101300000	1000	0	0	-1	200
22666195	5936	1118	0	-100	0	230	101300000	1000	0	0	-1	200
22678755	5938	1123	0	-100	0	230	101300000	1000	0	0	-1	200
22691315	5937	1127	0	-100	0	230	101300000	1000	0	0	-1	200
22703875	5938	1130	0	-100	0	230	101300000	1000	0	0	-1	200
22716435	5940	1128	0	-100	0	230	101300000	1000	0	0	-1	200
22728995	5946	1122	0	-100	0	230	101300000	1000	0	0	-1	200
22741555	5942	1128	0	-100	0	230	101300000	1000	0	0	-1	200
22754115	5939	1126	0	-100	0	230	101300000	1000	0	0	-1	200
22766675	5941	1120	0	-100	0	230	101300000	1000	0	0	-1	200
22779235	5941	1129	0	-100	0	230	101300000	1000	0	0	-1	200
22791795	5935	1132	0	-100	0	230	101300000	1000	0	0	-1	200
22804355	5934	1125	0	-100	0	230	101300000	1000	0	0	-1	200
22816915	5939	1133	0	-100	0	230	101300000	1000	0	0	-1	200
22829475	5942	1123	0	-100	0	230	101300000	1000	0	0	-1	200
22842035	5938	1131	0	-100	0	230	101300000	1000	0	0	-1	200
22854595	5934	1131	0	-100	0	230	101300000	1000	0	0	-1	200
22867155	5940	1133	0	-100	0	230	101300000	1000	0	0	-1	200
22879715	5939	1122	0	-100	0	230	101300000	1000	0	0	-1	200
22892275	5934	1126	0	-100	0	230	101300000	1000	0	0	-1	200
22904835	5935	1117	0	-100	0	230	101300000	1000	0	0	-1	200
22917395	5939	1121	0	-100	0	230	101300000	1000	0	0	-1	200
22929955	5938	1118	0	-100	0	230	101300000	1000	0	0	-1	200
22942515	5944	1126	0	-100	0	230	101300000	1000	0	0	-1	200
22955075	5944	1121	0	-100	0	230	101300000	1000	0	0	-1	200
22967635	5945	1126	0	-100	0	230	101300000	1000	0	0	-1	200
22980195	5941	1123	0	-100	0	230	101300000	1000	0	0	-1	200
22992755	5938	1128	0	-100	0	230	101300000	1000	0	0	-1	200
23005315	5937	1125	0	-100	0	230	101300000	1000	0	0	-1	200
23017875	5939	1122	0	-100	0	230	101300000	1000	0	0	-1	200
23030435	5944	1119	0	-100	0	230	101300000	1000	0	0	-1	200
23042995	5940	1122	0	-100	0	230	101300000	1000	0	0	-1	200
23055555	5941	1123	0	-100	0	230	101300000	1000	0	0	-1	200
23068115	5937	1121	0	-100	0	230	101300000	1000	0	0	-1	200
23080675	5934	1133	0	-100	0	230	101300000	1000	0	0	-1	200
23093235	5941	1117	0	-100	0	230	101300000	1000	0	0	-1	200
23105795	5933	1126	0	-100	0	230	101300000	1000	0	0	-1	200
23118355	5938	1131	0	-100	0	230	101300000	1000	0	0	-1	200
23130915	5932	1130	0	-100	0	230	101300000	1000	0	0	-1	200
23143475	5939	1130	0	-100	0	230	101300000	1000	0	0	-1	200
23156035	5938	1127	0	-100	0	230	101300000	1000	0	0	-1	200
23168595	5938	1131	0	-100	0	230	101300000	1000	0	0	-1	200
23181155	5935	1124	0	-100	0	230	101300000	1000	0	0	-1	200
23193715	5942	1119	0	-100	0	230	101300000	1000	0	0	-1	200
23206275	5942	1127	0	-100	0	230	101300000	1000	0	0	-1	200
23218835	5936	1129	0	-100	0	230	101300000	1000	0	0	-1	200
23231395	5937	1124	0	-100	0	230	101300000	1000	0	0	-1	200
23243955	5939	1130	0	-100	0	230	101300000	1000	0	0	-1	200
23256515	5946	1129	0	-100	0	230	101300000	1000	0	0	-1	200
23269075	5937	1125	0	-100	0	230	101300000	1000	0	0	-1	200
23281635	5937	1136	0	-100	0	230	101300000	1000	0	0	-1	200
23294195	5941	1131	0	-100	0	230	101300000	1000	0	0	-1	200
23306755	5942	1109	0	-100	0	230	101300000	1000	0	0	-1	200
23319315	5936	1115	0	-100	0	230	101300000	1000	0	0	-1	200
23331875	5938	1120	0	-100	0	230	101300000	1000	0	0	-1	200
23344435	5936	1116	0	-100	0	230	101300000	1000	0	0	-1	200
23356995	5941	1130	0	-100	0	230	101300000	1000	0	0	-1	200
23369555	5941	1128	0	-100	0	230	101300000	1000	0	0	-1	200
23382115	5943	1126	0	-100	0	230	101300000	1000	0	0	-1	200
23394675	5935	1120	0	-100	0	230	101300000	1000	0	0	-1	200
23407235	5936	1118	0	-100	0	230	101300000	1000	0	0	-1	200
23419795	5939	1122	0	-100	0	230	101300000	1000	0	0	-1	200
23432355	5940	1125	0	-100	0	230	101300000	1000	0	0	-1	200
23444915	5938	1124	0	-100	0	230	101300000	1000	0	0	-1	200
23457475	5937	1128	0	-100	0	230	101300000	1000	0	0	-1	200
23470035	5936	1123	0	-100	0	230	101300000	1000	0	0	-1	200
23482595	5938	1122	0	-100	0	230	101300000	1000	0	0	-1	200
23495155	5942	1120	0	-100	0	230	101300000	1000	0	0	-1	200
23507715	5945	1120	0	-100	0	230	101300000	1000	0	0	-1	200
23520275	5936	1126	0	-100	0	230	101300000	1000	0	0	-1	200
23532835	5939	1122	0	-100	0	230	101300000	1000	0	0	-1	200
23545395	5934	1116	0	-100	0	230	101300000	1000	0	0	-1	200
23557955	5936	1132	0	-100	0	230	101300000	1000	0	0	-1	200
23570515	5936	1121	0	-100	0	230	101300000	1000	0	0	-1	200
23583075	5939	1125	0	-100	0	230	101300000	1000	0	0	-1	200
23595635	5937	1122	0	-100	0	230	101300000	1000	0	0	-1	200
23608195	5940	1116	0	-100	0	230	101300000	1000	0	0	-1	200
23620755	5943	1117	0	-100	0	230	101300000	1000	0	0	-1	200
23633315	5937	1108	0	-100	0	230	101300000	1000	0	0	-1	200
23645875	5940	1133	0	-100	0	230	101300000	1000	0	0	-1	200
23658435	5936	1119	0	-100	0	230	101300000	1000	0	0	-1	200
23670995	5944	1129	0	-100	0	230	101300000	1000	0	0	-1	200
23683555	5935	1125	0	-100	0	230	101300000	1000	0	0	-1	200
23696115	5937	1132	0	-100	0	230	101300000	1000	0	0	-1	200
23708675	5935	1125	0	-100	0	230	101300000	1000	0	0	-1	200
23721235	5944	1130	0	-100	0	230	101300000	1000	0	0	-1	200
23733795	5943	1127	0	-100	0	230	101300000	1000	0	0	-1	200
23746355	5941	1117	0	-100	0	230	101300000	1000	0	0	-1	200
23758915	5943	1126	0	-100	0	230	101300000	1000	0	0	-1	200
23771475	5941	1117	0	-100	0	230	101300000	1000	0	0	-1	200
23784035	5936	1131	0	-100	0	230	101300000	1000	0	0	-1	200
23796595	5940	1123	0	-100	0	230	101300000	1000	0	0	-1	200
23809155	5936	1126	0	-100	0	230	101300000	1000	0	0	-1	200
23821715	5942	1124	0	-100	0	230	101300000	1000	0	0	-1	200
23834275	5943	1126	0	-100	0	230	101300000	1000	0	0	-1	200
23846835	5939	1129	0	-100	0	230	101300000	1000	0	0	-1	200
23859395	5937	1128	0	-100	0	230	101300000	1000	0	0	-1	200
23871955	5939	1132	0	-100	0	230	101300000	1000	0	0	-1	200
23884515	5936	1123	0	-100	0	230	101300000	1000	0	0	-1	200
23897075	5940	1131	0	-100	0	230	101300000	1000	0	0	-1	200
23909635	5945	1123	0	-100	0	230	101300000	1000	0	0	-1	200
23922195	5939	1127	0	-100	0	230	101300000	1000	0	0	-1	200
23934755	5935	1131	0	-100	0	230	101300000	1000	0	0	-1	200
23947315	5932	1124	0	-100	0	230	101300000	1000	0	0	-1	200
23959875	5937	1120	0	-100	0	230	101300000	1000	0	0	-1	200
23972435	5942	1120	0	-100	0	230	101300000	1000	0	0	-1	200
23984995	5944	1126	0	-100	0	230	101300000	1000	0	0	-1	200
23997555	5948	1131	0	-100	0	230	101300000	1000	0	0	-1	200
24010115	5935	1118	0	-100	0	230	101300000	1000	0	0	-1	200
24022675	5945	1130	0	-100	0	230	101300000	1000	0	0	-1	200
24035235	5936	1118	0	-100	0	230	101300000	1000	0	0	-1	200
24047795	5941	1122	0	-100	0	230	101300000	1000	0	0	-1	200
24060355	5943	1127	0	-100	0	230	101300000	1000	0	0	-1	200
24072915	5938	1131	0	-100	0	230	101300000	1000	0	0	-1	200
24085475	5938	1126	0	-100	0	230	101300000	1000	0	0	-1	200
24098035	5935	1127	0	-100	0	230	101300000	1000	0	0	-1	200
24110595	5945	1120	0	-100	0	230	101300000	1000	0	0	-1	200
24123155	5938	1124	0	-100	0	230	101300000	1000	0	0	-1	200
24135715	5933	1122	0	-100	0	230	101300000	1000	0	0	-1	200
24148275	5939	1120	0	-100	0	230	101300000	1000	0	0	-1	200
24160835	5943	1127	0	-100	0	230	101300000	1000	0	0	-1	200
24173395	5937	1126	0	-100	0	230	101300000	1000	0	0	-1	200
24185955	5937	1123	0	-100	0	230	101300000	1000	0	0	-1	200
24198515	5941	1117	0	-100	0	230	101300000	1000	0	0	-1	200
24211075	5941	1135	0	-100	0	230	101300000	1000	0	0	-1	200
24223635	5941	1133	0	-100	0	230	101300000	1000	0	0	-1	200
24236195	5937	1113	0	-100	0	230	101300000	1000	0	0	-1	200
24248755	5940	1123	0	-100	0	230	101300000	1000	0	0	-1	200
24261315	5941	1121	0	-100	0	230	101300000	1000	0	0	-1	200
24273875	5936	1132	0	-100	0	230	101300000	1000	0	0	-1	200
24286435	5935	1125	0	-100	0	230	101300000	1000	0	0	-1	200
24298995	5943	1123	0	-100	0	230	101300000	1000	0	0	-1	200
24311555	5940	1121	0	-100	0	230	101300000	1000	0	0	-1	200
24324115	5937	1124	0	-100	0	230	101300000	1000	0	0	-1	200
24336675	5937	1121	0	-100	0	230	101300000	1000	0	0	-1	200
24349235	5938	1131	0	-100	0	230	101300000	1000	0	0	-1	200
24361795	5937	1124	0	-100	0	230	101300000	1000	0	0	-1	200
24374355	5939	1118	0	-100	0	230	101300000	1000	0	0	-1	200
24386915	5932	1119	0	-100	0	230	101300000	1000	0	0	-1	200
24399475	5941	1128	0	-100	0	230	101300000	1000	0	0	-1	200
24412035	5937	1120	0	-100	0	230	101300000	1000	0	0	-1	200
24424595	5937	1122	0	-100	0	230	101300000	1000	0	0	-1	200
24437155	5935	1131	0	-100	0	230	101300000	1000	0	0	-1	200
24449715	5936	1138	0	-100	0	230	101300000	1000	0	0	-1	200
24462275	5937	1119	0	-100	0	230	101300000	1000	0	0	-1	200
24474835	5936	1121	0	-100	0	230	101300000	1000	0	0	-1	200
24487395	5937	1120	0	-100	0	230	101300000	1000	0	0	-1	200
24499955	5941	1127	0	-100	0	230	101300000	1000	0	0	-1	200
24512515	5939	1123	0	-100	0	230	101300000	1000	0	0	-1	200
24525075	5933	1129	0	-100	0	230	101300000	1000	0	0	-1	200
24537635	5941	1124	0	-100	0	230	101300000	1000	0	0	-1	200
24550195	5941	1127	0	-100	0	230	101300000	1000	0	0	-1	200
24562755	5938	1121	0	-100	0	230	101300000	1000	0	0	-1	200
24575315	5938	1119	0	-100	0	230	101300000	1000	0	0	-1	200
24587875	5941	1127	0	-100	0	230	101300000	1000	0	0	-1	200
24600435	5941	1117	0	-100	0	230	101300000	1000	0	0	-1	200
24612995	5941	1129	0	-100	0	230	101300000	1000	0	0	-1	200
24625555	5937	1126	0	-100	0	230	101300000	1000	0	0	-1	200
24638115	5935	1125	0	-100	0	230	101300000	1000	0	0	-1	200
24650675	5946	1125	0	-100	0	230	101300000	1000	0	0	-1	200
24663235	5941	1113	0	-100	0	230	101300000	1000	0	0	-1	200
24675795	5936	1118	0	-100	0	230	101300000	1000	0	0	-1	200
24688355	5937	1128	0	-100	0	230	101300000	1000	0	0	-1	200
24700915	5946	1120	0	-100	0	230	101300000	1000	0	0	-1	200
24713475	5941	1126	0	-100	0	230	101300000	1000	0	0	-1	200
24726035	5940	1129	0	-100	0	230	101300000	1000	0	0	-1	200
24738595	5936	1124	0	-100	0	230	101300000	1000	0	0	-1	200
24751155	5942	1129	0	-100	0	230	101300000	1000	0	0	-1	200
24763715	5938	1127	0	-100	0	230	101300000	1000	0	0	-1	200
24776275	5934	1115	0	-100	0	230	101300000	1000	0	0	-1	200
24788835	5936	1126	0	-100	0	230	101300000	1000	0	0	-1	200
24801395	5941	1121	0	-100	0	230	101300000	1000	0	0	-1	200
24813955	5943	1119	0	-100	0	230	101300000	1000	0	0	-1	200
24826515	5940	1134	0	-100	0	230	101300000	1000	0	0	-1	200
24839075	5937	1118	0	-100	0	230	101300000	1000	0	0	-1	200
24851635	5934	1126	0	-100	0	230	101300000	1000	0	0	-1	200
24864195	5937	1123	0	-100	0	230	101300000	1000	0	0	-1	200
24876755	5946	1118	0	-100	0	230	101300000	1000	0	0	-1	200
24889315	5936	1116	0	-100	0	230	101300000	1000	0	0	-1	200
24901875	5937	1124	0	-100	0	230	101300000	1000	0	0	-1	200
24914435	5935	1125	0	-100	0	230	101300000	1000	0	0	-1	200
24926995	5932	1129	0	-100	0	230	101300000	1000	0	0	-1	200
24939555	5942	1118	0	-100	0	230	101300000	1000	0	0	-1	200
24952115	5940	1125	0	-100	0	230	101300000	1000	0	0	-1	200
24964675	5937	1125	0	-100	0	230	101300000	1000	0	0	-1	200
24977235	5932	1132	0	-100	0	230	101300000	1000	0	0	-1	200
24989795	5937	1119	0	-100	0	230	101300000	1000	0	0	-1	200
25002355	5944	1118	0	-100	0	230	101300000	1000	0	0	-1	200
25014915	5940	1116	0	-100	0	230	101300000	1000	0	0	-1	200
25027475	5938	1122	0	-100	0	230	101300000	1000	0	0	-1	200
25040035	5938	1122	0	-100	0	230	101300000	1000	0	0	-1	200
25052595	5934	1122	0	-100	0	230	101300000	1000	0	0	-1	200
25065155	5936	1127	0	-100	0	230	101300000	1000	0	0	-1	200
25077715	5939	1121	0	-100	0	230	101300000	1000	0	0	-1	200
25090275	5939	1119	0	-100	0	230	101300000	1000	0	0	-1	200
25102835	5938	1132	0	-100	0	230	101300000	1000	0	0	-1	200
25115395	5935	1124	0	-100	0	230	101300000	1000	0	0	-1	200
25127955	5940	1116	0	-100	0	230	101300000	1000	0	0	-1	200
25140515	5940	1128	0	-100	0	230	101300000	1000	0	0	-1	200
25153075	5942	1124	0	-100	0	230	101300000	1000	0	0	-1	200
25165635	5948	1132	0	-100	0	230	101300000	1000	0	0	-1	200
25178195	5941	1127	0	-100	0	230	101300000	1000	0	0	-1	200
25190755	5938	1131	0	-100	0	230	101300000	1000	0	0	-1	200
25203315	5939	1134	0	-100	0	230	101300000	1000	0	0	-1	200
25215875	5941	1125	0	-100	0	230	101300000	1000	0	0	-1	200
25228435	5939	1124	0	-100	0	230	101300000	1000	0	0	-1	200
25240995	5938	1123	0	-100	0	230	101300000	1000	0	0	-1	200
25253555	5935	1128	0	-100	0	230	101300000	1000	0	0	-1	200
25266115	5932	1121	0	-100	0	230	101300000	1000	0	0	-1	200
25278675	5932	1127	0	-100	0	230	101300000	1000	0	0	-1	200
25291235	5936	1120	0	-100	0	230	101300000	1000	0	0	-1	200
25303795	5937	1126	0	-100	0	230	101300000	1000	0	0	-1	200
25316355	5941	1129	0	-100	0	230	101300000	1000	0	0	-1	200
25328915	5942	1128	0	-100	0	230	101300000	1000	0	0	-1	200
25341475	5938	1129	0	-100	0	230	101300000	1000	0	0	-1	200
25354035	5944	1126	0	-100	0	230	101300000	1000	0	0	-1	200
25366595	5941	1116	0	-100	0	230	101300000	1000	0	0	-1	200
25379155	5944	1114	0	-100	0	230	101300000	1000	0	0	-1	200
25391715	5945	1124	0	-100	0	230	101300000	1000	0	0	-1	200
25404275	5940	1128	0	-100	0	230	101300000	1000	0	0	-1	200
25416835	5938	1123	0	-100	0	230	101300000	1000	0	0	-1	200
25429395	5936	1123	0	-100	0	230	101300000	1000	0	0	-1	200
25441955	5935	1118	0	-100	0	230	101300000	1000	0	0	-1	200
25454515	5933	1127	0	-100	0	230	101300000	1000	0	0	-1	200
25467075	5940	1124	0	-100	0	230	101300000	1000	0	0	-1	200
25479635	5942	1120	0	-100	0	230	101300000	1000	0	0	-1	200
25492195	5943	1122	0	-100	0	230	101300000	1000	0	0	-1	200
25504755	5940	1123	0	-100	0	230	101300000	1000	0	0	-1	200
25517315	5936	1131	0	-100	0	230	101300000	1000	0	0	-1	200
25529875	5935	1126	0	-100	0	230	101300000	1000	0	0	-1	200
25542435	5941	1126	0	-100	0	230	101300000	1000	0	0	-1	200
25554995	5937	1120	0	-100	0	230	101300000	1000	0	0	-1	200
25567555	5942	1125	0	-100	0	230	101300000	1000	0	0	-1	200
25580115	5942	1116	0	-100	0	230	101300000	1000	0	0	-1	200
25592675	5944	1124	0	-100	0	230	101300000	1000	0	0	-1	200
25605235	5941	1115	0	-100	0	230	101300000	1000	0	0	-1	200
25617795	5944	1131	0	-100	0	230	101300000	1000	0	0	-1	200
25630355	5945	1134	0	-100	0	230	101300000	1000	0	0	-1	200
25642915	5946	1113	0	-100	0	230	101300000	1000	0	0	-1	200
25655475	5945	1120	0	-100	0	230	101300000	1000	0	0	-1	200
25668035	5942	1128	0	-100	0	230	101300000	1000	0	0	-1	200
25680595	5935	1119	0	-100	0	230	101300000	1000	0	0	-1	200
25693155	5936	1124	0	-100	0	230	101300000	1000	0	0	-1	200
25705715	5936	1128	0	-100	0	230	101300000	1000	0	0	-1	200
25718275	5939	1122	0	-100	0	230	101300000	1000	0	0	-1	200
25730835	5936	1131	0	-100	0	230	101300000	1000	0	0	-1	200
25743395	5940	1116	0	-100	0	230	101300000	1000	0	0	-1	200
25755955	5945	1123	0	-100	0	230	101300000	1000	0	0	-1	200
25768515	5941	1125	0	-100	0	230	101300000	1000	0	0	-1	200
25781075	5938	1127	0	-100	0	230	101300000	1000	0	0	-1	200
25793635	5942	1126	0	-100	0	230	101300000	1000	0	0	-1	200
25806195	5940	1128	0	-100	0	230	101300000	1000	0	0	-1	200
25818755	5933	1118	0	-100	0	230	101300000	1000	0	0	-1	200
25831315	5938	1125	0	-100	0	230	101300000	1000	0	0	-1	200
25843875	5940	1127	0	-100	0	230	101300000	1000	0	0	-1	200
25856435	5941	1126	0	-100	0	230	101300000	1000	0	0	-1	200
25868995	5941	1117	0	-100	0	230	101300000	1000	0	0	-1	200
25881555	5940	1131	0	-100	0	230	101300000	1000	0	0	-1	200
25894115	5937	1129	0	-100	0	230	101300000	1000	0	0	-1	200
25906675	5941	1125	0	-100	0	230	101300000	1000	0	0	-1	200
25919235	5941	1127	0	-100	0	230	101300000	1000	0	0	-1	200
25931795	5933	1118	0	-100	0	230	101300000	1000	0	0	-1	200
25944355	5934	1126	0	-100	0	230	101300000	1000	0	0	-1	200
25956915	5937	1125	0	-100	0	230	101300000	1000	0	0	-1	200
25969475	5936	1119	0	-100	0	230	101300000	1000	0	0	-1	200
25982035	5937	1130	0	-100	0	230	101300000	1000	0	0	-1	200
25994595	5941	1123	0	-100	0	230	101300000	1000	0	0	-1	200
26007155	5940	1119	0	-100	0	230	101300000	1000	0	0	-1	200
26019715	5937	1121	0	-100	0	230	101300000	1000	0	0	-1	200
26032275	5937	1122	0	-100	0	230	101300000	1000	0	0	-1	200
26044835	5940	1125	0	-100	0	230	101300000	1000	0	0	-1	200
26057395	5941	1128	0	-100	0	230	101300000	1000	0	0	-1	200
26069955	5942	1125	0	-100	0	230	101300000	1000	0	0	-1	200
26082515	5942	1122	0	-100	0	230	101300000	1000	0	0	-1	200
26095075	5945	1125	0	-100	0	230	101300000	1000	0	0	-1	200
26107635	5941	1131	0	-100	0	230	101300000	1000	0	0	-1	200
26120195	5937	1121	0	-100	0	230	101300000	1000	0	0	-1	200
26132755	5934	1121	0	-100	0	230	101300000	1000	0	0	-1	200
26145315	5939	1122	0	-100	0	230	101300000	1000	0	0	-1	200
26157875	5937	1112	0	-100	0	230	101300000	1000	0	0	-1	200
26170435	5933	1114	0	-100	0	230	101300000	1000	0	0	-1	200
26182995	5940	1124	0	-100	0	230	101300000	1000	0	0	-1	200
26195555	5941	1121	0	-100	0	230	101300000	1000	0	0	-1	200
26208115	5939	1125	0	-100	0	230	101300000	1000	0	0	-1	200
26220675	5935	1130	0	-100	0	230	101300000	1000	0	0	-1	200
26233235	5935	1116	0	-100	0	230	101300000	1000	0	0	-1	200
26245795	5937	1126	0	-100	0	230	101300000	1000	0	0	-1	200
26258355	5937	1118	0	-100	0	230	101300000	1000	0	0	-1	200
26270915	5935	1123	0	-100	0	230	101300000	1000	0	0	-1	200
26283475	5935	1128	0	-100	0	230	101300000	1000	0	0	-1	200
26296035	5939	1121	0	-100	0	230	101300000	1000	0	0	-1	200
26308595	5941	1129	0	-100	0	230	101300000	1000	0	0	-1	200
26321155	5943	1115	0	-100	0	230	101300000	1000	0	0	-1	200
26333715	5944	1124	0	-100	0	230	101300000	1000	0	0	-1	200
26346275	5941	1121	0	-100	0	230	101300000	1000	0	0	-1	200
26358835	5941	1120	0	-100	0	230	101300000	1000	0	0	-1	200
26371395	5933	1124	0	-100	0	230	101300000	1000	0	0	-1	200
26383955	5939	1128	0	-100	0	230	101300000	1000	0	0	-1	200
26396515	5938	1123	0	-100	0	230	101300000	1000	0	0	-1	200
26409075	5938	1123	0	-100	0	230	101300000	1000	0	0	-1	200
26421635	5944	1119	0	-100	0	230	101300000	1000	0	0	-1	200
26434195	5944	1121	0	-100	0	230	101300000	1000	0	0	-1	200
26446755	5942	1129	0	-100	0	230	101300000	1000	0	0	-1	200
26459315	5944	1119	0	-100	0	230	101300000	1000	0	0	-1	200
26471875	5939	1117	0	-100	0	230	101300000	1000	0	0	-1	200
26484435	5942	1124	0	-100	0	230	101300000	1000	0	0	-1	200
26496995	5942	1128	0	-100	0	230	101300000	1000	0	0	-1	200
26509555	5942	1123	0	-100	0	230	101300000	1000	0	0	-1	200
26522115	5944	1123	0	-100	0	230	101300000	1000	0	0	-1	200
26534675	5944	1122	0	-100	0	230	101300000	1000	0	0	-1	200
26547235	5941	1118	0	-100	0	230	101300000	1000	0	0	-1	200
26559795	5945	1125	0	-100	0	230	101300000	1000	0	0	-1	200
26572355	5936	1122	0	-100	0	230	101300000	1000	0	0	-1	200
26584915	5938	1127	0	-100	0	230	101300000	1000	0	0	-1	200
26597475	5936	1124	0	-100	0	230	101300000	1000	0	0	-1	200
26610035	5939	1121	0	-100	0	230	101300000	1000	0	0	-1	200
26622595	5941	1124	0	-100	0	230	101300000	1000	0	0	-1	200
26635155	5941	1129	0	-100	0	230	101300000	1000	0	0	-1	200
26647715	5938	1126	0	-100	0	230	101300000	1000	0	0	-1	200
26660275	5939	1121	0	-100	0	230	101300000	1000	0	0	-1	200
26672835	5941	1110	0	-100	0	230	101300000	1000	0	0	-1	200
26685395	5940	1125	0	-100	0	230	101300000	1000	0	0	-1	200
26697955	5939	1119	0	-100	0	230	101300000	1000	0	0	-1	200
26710515	5946	1123	0	-100	0	230	101300000	1000	0	0	-1	200
26723075	5940	1128	0	-100	0	230	101300000	1000	0	0	-1	200
26735635	5940	1134	0	-100	0	230	101300000	1000	0	0	-1	200
26748195	5937	1123	0	-100	0	230	101300000	1000	0	0	-1	200
26760755	5937	1128	0	-100	0	230	101300000	1000	0	0	-1	200
26773315	5937	1128	0	-100	0	230	101300000	1000	0	0	-1	200
26785875	5937	1130	0	-100	0	230	101300000	1000	0	0	-1	200
26798435	5939	1122	0	-100	0	230	101300000	1000	0	0	-1	200
26810995	5946	1123	0	-100	0	230	101300000	1000	0	0	-1	200
26823555	5937	1123	0	-100	0	230	101300000	1000	0	0	-1	200
26836115	5936	1130	0	-100	0	230	101300000	1000	0	0	-1	200
26848675	5941	1126	0	-100	0	230	101300000	1000	0	0	-1	200
26861235	5932	1126	0	-100	0	230	101300000	1000	0	0	-1	200
26873795	5938	1131	0	-100	0	230	101300000	1000	0	0	-1	200
26886355	5943	1118	0	-100	0	230	101300000	1000	0	0	-1	200
26898915	5940	1124	0	-100	0	230	101300000	1000	0	0	-1	200
26911475	5938	1125	0	-100	0	230	101300000	1000	0	0	-1	200
26924035	5935	1120	0	-100	0	230	101300000	1000	0	0	-1	200
26936595	5942	1130	0	-100	0	230	101300000	1000	0	0	-1	200
26949155	5945	1128	0	-100	0	230	101300000	1000	0	0	-1	200
26961715	5939	1121	0	-100	0	230	101300000	1000	0	0	-1	200
26974275	5936	1123	0	-100	0	230	101300000	1000	0	0	-1	200
26986835	5939	1126	0	-100	0	230	101300000	1000	0	0	-1	200
26999395	5939	1112	0	-100	0	230	101300000	1000	0	0	-1	200
27011955	5944	1127	0	-100	0	230	101300000	1000	0	0	-1	200
27024515	5936	1126	0	-100	0	230	101300000	1000	0	0	-1	200
27037075	5935	1125	0	-100	0	230	101300000	1000	0	0	-1	200
27049635	5941	1127	0	-100	0	230	101300000	1000	0	0	-1	200
