timestamp	voltage	current	windSpeed	pitchAngle	rpm	temperature	ambientPressure	humidity	accelerationX	accelerationY	accelerationZ	currentSink
7040070	6023	862	0	-100	0	230	101300000	1000	0	0	-1	0
7047523	6017	855	0	-100	0	230	101300000	1000	0	0	-1	0
7060083	6012	864	0	-100	0	230	101300000	1000	0	0	-1	0
7072643	6009	860	0	-100	0	230	101300000	1000	0	0	-1	0
7085203	6016	852	0	-100	0	230	101300000	1000	0	0	-1	0
7097763	6008	860	0	-100	0	230	101300000	1000	0	0	-1	0
7110323	6011	866	0	-100	0	230	101300000	1000	0	0	-1	0
7122883	6017	855	0	-100	0	230	101300000	1000	0	0	-1	0
7135443	6012	858	0	-100	0	230	101300000	1000	0	0	-1	0
7148004	6008	855	0	-100	0	230	101300000	1000	0	0	-1	0
7160563	6016	857	0	-100	0	230	101300000	1000	0	0	-1	0
7173123	6009	861	0	-100	0	230	101300000	1000	0	0	-1	0
7185683	6009	857	0	-100	0	230	101300000	1000	0	0	-1	0
7198243	6019	851	0	-100	0	230	101300000	1000	0	0	-1	0
7210803	6006	855	0	-100	0	230	101300000	1000	0	0	-1	0
7223363	6010	862	0	-100	0	230	101300000	1000	0	0	-1	0
7235923	6016	860	0	-100	0	230	101300000	1000	0	0	-1	0
7248483	6008	856	0	-100	0	230	101300000	1000	0	0	-1	0
7261043	6013	859	0	-100	0	230	101300000	1000	0	0	-1	0
7273603	6012	854	0	-100	0	230	101300000	1000	0	0	-1	0
7286163	6007	855	0	-100	0	230	101300000	1000	0	0	-1	0
7298723	6021	868	0	-100	0	230	101300000	1000	0	0	-1	0
7311283	6012	865	0	-100	0	230	101300000	1000	0	0	-1	0
7323843	6009	861	0	-100	0	230	101300000	1000	0	0	-1	0
7336403	6015	851	0	-100	0	230	101300000	1000	0	0	-1	0
7348963	6011	856	0	-100	0	230	101300000	1000	0	0	-1	0
7719795	5939	1137	0	-100	0	230	101300000	1000	0	0	-1	210
7732355	5934	1138	0	-100	0	230	101300000	1000	0	0	-1	210
7744915	5945	1143	0	-100	0	230	101300000	1000	0	0	-1	210
7757475	5936	1134	0	-100	0	230	101300000	1000	0	0	-1	210
7770035	5942	1139	0	-100	0	230	101300000	1000	0	0	-1	210
7782595	5938	1133	0	-100	0	230	101300000	1000	0	0	-1	210
7795155	5938	1141	0	-100	0	230	101300000	1000	0	0	-1	210
7807715	5938	1136	0	-100	0	230	101300000	1000	0	0	-1	210
7820275	5938	1134	0	-100	0	230	101300000	1000	0	0	-1	210
7832835	5946	1142	0	-100	0	230	101300000	1000	0	0	-1	210
7845395	5934	1140	0	-100	0	230	101300000	1000	0	0	-1	210
7857955	5937	1140	0	-100	0	230	101300000	1000	0	0	-1	210
7870515	5936	1141	0	-100	0	230	101300000	1000	0	0	-1	210
7883075	5934	1135	0	-100	0	230	101300000	1000	0	0	-1	210
7895635	5938	1138	0	-100	0	230	101300000	1000	0	0	-1	210
7908195	5934	1141	0	-100	0	230	101300000	1000	0	0	-1	210
7920755	5943	1133	0	-100	0	230	101300000	1000	0	0	-1	210
7933315	5928	1139	0	-100	0	230	101300000	1000	0	0	-1	210
7945875	5941	1141	0	-100	0	230	101300000	1000	0	0	-1	210
7958435	5930	1132	0	-100	0	230	101300000	1000	0	0	-1	210
7970995	5934	1134	0	-100	0	230	101300000	1000	0	0	-1	210
7983555	5938	1139	0	-100	0	230	101300000	1000	0	0	-1	210
7996115	5932	1136	0	-100	0	230	101300000	1000	0	0	-1	210
8008675	5938	1137	0	-100	0	230	101300000	1000	0	0	-1	210
8021235	5935	1133	0	-100	0	230	101300000	1000	0	0	-1	210
8033795	5934	1137	0	-100	0	230	101300000	1000	0	0	-1	210
8046355	5942	1133	0	-100	0	230	101300000	1000	0	0	-1	210
8058915	5935	1133	0	-100	0	230	101300000	1000	0	0	-1	210
8071475	5938	1137	0	-100	0	230	101300000	1000	0	0	-1	210
8084035	5932	1145	0	-100	0	230	101300000	1000	0	0	-1	210
8096595	5939	1133	0	-100	0	230	101300000	1000	0	0	-1	210
8109155	5938	1134	0	-100	0	230	101300000	1000	0	0	-1	210
8121715	5936	1146	0	-100	0	230	101300000	1000	0	0	-1	210
8134275	5941	1134	0	-100	0	230	101300000	1000	0	0	-1	210
8146835	5931	1144	0	-100	0	230	101300000	1000	0	0	-1	210
8159395	5938	1137	0	-100	0	230	101300000	1000	0	0	-1	210
8171955	5937	1133	0	-100	0	230	101300000	1000	0	0	-1	210
8184515	5934	1142	0	-100	0	230	101300000	1000	0	0	-1	210
8197075	5936	1135	0	-100	0	230	101300000	1000	0	0	-1	210
8209635	5936	1136	0	-100	0	230	101300000	1000	0	0	-1	210
8222195	5940	1137	0	-100	0	230	101300000	1000	0	0	-1	210
8234755	5938	1134	0	-100	0	230	101300000	1000	0	0	-1	210
8247315	5943	1141	0	-100	0	230	101300000	1000	0	0	-1	210
8259875	5932	1141	0	-100	0	230	101300000	1000	0	0	-1	210
8272435	5934	1136	0	-100	0	230	101300000	1000	0	0	-1	210
8284995	5939	1131	0	-100	0	230	101300000	1000	0	0	-1	210
8297555	5938	1140	0	-100	0	230	101300000	1000	0	0	-1	210
8310115	5942	1142	0	-100	0	230	101300000	1000	0	0	-1	210
8322675	5934	1139	0	-100	0	230	101300000	1000	0	0	-1	210
8335235	5936	1138	0	-100	0	230	101300000	1000	0	0	-1	210
8347795	5936	1132	0	-100	0	230	101300000	1000	0	0	-1	210
8360355	5934	1138	0	-100	0	230	101300000	1000	0	0	-1	210
8372915	5939	1134	0	-100	0	230	101300000	1000	0	0	-1	210
8385475	5936	1140	0	-100	0	230	101300000	1000	0	0	-1	210
8398035	5945	1135	0	-100	0	230	101300000	1000	0	0	-1	210
8410595	5936	1135	0	-100	0	230	101300000	1000	0	0	-1	210
8423155	5934	1147	0	-100	0	230	101300000	1000	0	0	-1	210
8435715	5944	1137	0	-100	0	230	101300000	1000	0	0	-1	210
8448275	5933	1143	0	-100	0	230	101300000	1000	0	0	-1	210
8460835	5933	1140	0	-100	0	230	101300000	1000	0	0	-1	210
8473395	5938	1136	0	-100	0	230	101300000	1000	0	0	-1	210
8485955	5935	1145	0	-100	0	230	101300000	1000	0	0	-1	210
8498515	5942	1136	0	-100	0	230	101300000	1000	0	0	-1	210
8511075	5936	1135	0	-100	0	230	101300000	1000	0	0	-1	210
8523635	5932	1145	0	-100	0	230	101300000	1000	0	0	-1	210
8536195	5939	1140	0	-100	0	230	101300000	1000	0	0	-1	210
8548755	5935	1137	0	-100	0	230	101300000	1000	0	0	-1	210
8561315	5936	1144	0	-100	0	230	101300000	1000	0	0	-1	210
8573875	5931	1136	0	-100	0	230	101300000	1000	0	0	-1	210
8586435	5934	1144	0	-100	0	230	101300000	1000	0	0	-1	210
8598995	5937	1138	0	-100	0	230	101300000	1000	0	0	-1	210
8611555	5931	1134	0	-100	0	230	101300000	1000	0	0	-1	210
8624115	5941	1135	0	-100	0	230	101300000	1000	0	0	-1	210
8636675	5932	1130	0	-100	0	230	101300000	1000	0	0	-1	210
8649235	5934	1147	0	-100	0	230	101300000	1000	0	0	-1	210
8661795	5937	1132	0	-100	0	230	101300000	1000	0	0	-1	210
8674355	5933	1135	0	-100	0	230	101300000	1000	0	0	-1	210
8686915	5943	1136	0	-100	0	230	101300000	1000	0	0	-1	210
8699475	5932	1131	0	-100	0	230	101300000	1000	0	0	-1	210
8712035	5932	1136	0	-100	0	230	101300000	1000	0	0	-1	210
8724595	5940	1137	0	-100	0	230	101300000	1000	0	0	-1	210
8737155	5935	1132	0	-100	0	230	101300000	1000	0	0	-1	210
8749715	5938	1143	0	-100	0	230	101300000	1000	0	0	-1	210
8762275	5941	1136	0	-100	0	230	101300000	1000	0	0	-1	210
8774835	5932	1138	0	-100	0	230	101300000	1000	0	0	-1	210
8787395	5938	1141	0	-100	0	230	101300000	1000	0	0	-1	210
8799955	5937	1132	0	-100	0	230	101300000	1000	0	0	-1	210
8812515	5938	1135	0	-100	0	230	101300000	1000	0	0	-1	210
8825075	5937	1141	0	-100	0	230	101300000	1000	0	0	-1	210
8837635	5934	1140	0	-100	0	230	101300000	1000	0	0	-1	210
8850195	5938	1137	0	-100	0	230	101300000	1000	0	0	-1	210
8862755	5933	1141	0	-100	0	230	101300000	1000	0	0	-1	210
8875315	5941	1134	0	-100	0	230	101300000	1000	0	0	-1	210
8887875	5932	1142	0	-100	0	230	101300000	1000	0	0	-1	210
8900435	5941	1135	0	-100	0	230	101300000	1000	0	0	-1	210
8912995	5935	1132	0	-100	0	230	101300000	1000	0	0	-1	210
8925555	5941	1129	0	-100	0	230	101300000	1000	0	0	-1	210
8938115	5930	1131	0	-100	0	230	101300000	1000	0	0	-1	210
8950675	5945	1139	0	-100	0	230	101300000	1000	0	0	-1	210
8963235	5934	1138	0	-100	0	230	101300000	1000	0	0	-1	210
8975795	5936	1135	0	-100	0	230	101300000	1000	0	0	-1	210
8988355	5935	1141	0	-100	0	230	101300000	1000	0	0	-1	210
9000915	5932	1137	0	-100	0	230	101300000	1000	0	0	-1	210
9013475	5937	1137	0	-100	0	230	101300000	1000	0	0	-1	210
9026035	5936	1141	0	-100	0	230	101300000	1000	0	0	-1	210
9038595	5943	1138	0	-100	0	230	101300000	1000	0	0	-1	210
9051155	5936	1135	0	-100	0	230	101300000	1000	0	0	-1	210
9063715	5936	1139	0	-100	0	230	101300000	1000	0	0	-1	210
9076275	5943	1140	0	-100	0	230	101300000	1000	0	0	-1	210
9088835	5934	1139	0	-100	0	230	101300000	1000	0	0	-1	210
9101395	5936	1143	0	-100	0	230	101300000	1000	0	0	-1	210
9113955	5942	1137	0	-100	0	230	101300000	1000	0	0	-1	210
9126515	5935	1144	0	-100	0	230	101300000	1000	0	0	-1	210
9139075	5932	1137	0	-100	0	230	101300000	1000	0	0	-1	210
9151635	5938	1136	0	-100	0	230	101300000	1000	0	0	-1	210
9164195	5936	1142	0	-100	0	230	101300000	1000	0	0	-1	210
9176755	5944	1140	0	-100	0	230	101300000	1000	0	0	-1	210
9189315	5938	1139	0	-100	0	230	101300000	1000	0	0	-1	210
9201875	5930	1140	0	-100	0	230	101300000	1000	0	0	-1	210
9214435	5937	1146	0	-100	0	230	101300000	1000	0	0	-1	210
9226995	5940	1141	0	-100	0	230	101300000	1000	0	0	-1	210
9239555	5932	1143	0	-100	0	230	101300000	1000	0	0	-1	210
9252115	5936	1139	0	-100	0	230	101300000	1000	0	0	-1	210
9264675	5941	1137	0	-100	0	230	101300000	1000	0	0	-1	210
9277235	5935	1138	0	-100	0	230	101300000	1000	0	0	-1	210
9289795	5933	1137	0	-100	0	230	101300000	1000	0	0	-1	210
9302355	5945	1140	0	-100	0	230	101300000	1000	0	0	-1	210
9314915	5936	1131	0	-100	0	230	101300000	1000	0	0	-1	210
9327475	5934	1134	0	-100	0	230	101300000	1000	0	0	-1	210
9340035	5942	1137	0	-100	0	230	101300000	1000	0	0	-1	210
9352595	5934	1135	0	-100	0	230	101300000	1000	0	0	-1	210
9365155	5941	1139	0	-100	0	230	101300000	1000	0	0	-1	210
9377715	5931	1142	0	-100	0	230	101300000	1000	0	0	-1	210
9390275	5935	1145	0	-100	0	230	101300000	1000	0	0	-1	210
9402835	5935	1135	0	-100	0	230	101300000	1000	0	0	-1	210
9415395	5938	1140	0	-100	0	230	101300000	1000	0	0	-1	210
9427955	5941	1136	0	-100	0	230	101300000	1000	0	0	-1	210
9440515	5930	1142	0	-100	0	230	101300000	1000	0	0	-1	210
9453075	5935	1137	0	-100	0	230	101300000	1000	0	0	-1	210
9465635	5934	1135	0	-100	0	230	101300000	1000	0	0	-1	210
9478195	5932	1136	0	-100	0	230	101300000	1000	0	0	-1	210
9490755	5935	1141	0	-100	0	230	101300000	1000	0	0	-1	210
9503315	5937	1135	0	-100	0	230	101300000	1000	0	0	-1	210
9515875	5936	1138	0	-100	0	230	101300000	1000	0	0	-1	210
9528435	5940	1137	0	-100	0	230	101300000	1000	0	0	-1	210
9540995	5934	1137	0	-100	0	230	101300000	1000	0	0	-1	210
9553555	5938	1136	0	-100	0	230	101300000	1000	0	0	-1	210
9566115	5933	1139	0	-100	0	230	101300000	1000	0	0	-1	210
9578675	5936	1136	0	-100	0	230	101300000	1000	0	0	-1	210
9591235	5941	1139	0	-100	0	230	101300000	1000	0	0	-1	210
9603795	5938	1144	0	-100	0	230	101300000	1000	0	0	-1	210
9616355	5943	1138	0	-100	0	230	101300000	1000	0	0	-1	210
9628915	5932	1132	0	-100	0	230	101300000	1000	0	0	-1	210
9641475	5934	1141	0	-100	0	230	101300000	1000	0	0	-1	210
9654035	5941	1134	0	-100	0	230	101300000	1000	0	0	-1	210
9666595	5935	1133	0	-100	0	230	101300000	1000	0	0	-1	210
9679155	5941	1140	0	-100	0	230	101300000	1000	0	0	-1	210
9691715	5931	1130	0	-100	0	230	101300000	1000	0	0	-1	210
9704275	5938	1136	0	-100	0	230	101300000	1000	0	0	-1	210
9716835	5936	1123	0	-100	0	230	101300000	1000	0	0	-1	210
9729395	5934	1141	0	-100	0	230	101300000	1000	0	0	-1	210
9741955	5937	1145	0	-100	0	230	101300000	1000	0	0	-1	210
9754515	5931	1138	0	-100	0	230	101300000	1000	0	0	-1	210
9767075	5942	1141	0	-100	0	230	101300000	1000	0	0	-1	210
9779635	5934	1145	0	-100	0	230	101300000	1000	0	0	-1	210
9792195	5932	1137	0	-100	0	230	101300000	1000	0	0	-1	210
9804755	5938	1136	0	-100	0	230	101300000	1000	0	0	-1	210
9817315	5929	1138	0	-100	0	230	101300000	1000	0	0	-1	210
9829875	5934	1136	0	-100	0	230	101300000	1000	0	0	-1	210
9842435	5936	1138	0	-100	0	230	101300000	1000	0	0	-1	210
9854995	5929	1138	0	-100	0	230	101300000	1000	0	0	-1	210
9867555	5936	1139	0	-100	0	230	101300000	1000	0	0	-1	210
9880115	5943	1136	0	-100	0	230	101300000	1000	0	0	-1	210
9892675	5932	1137	0	-100	0	230	101300000	1000	0	0	-1	210
9905235	5934	1138	0	-100	0	230	101300000	1000	0	0	-1	210
9917795	5937	1125	0	-100	0	230	101300000	1000	0	0	-1	210
9930355	5936	1139	0	-100	0	230	101300000	1000	0	0	-1	210
9942915	5932	1143	0	-100	0	230	101300000	1000	0	0	-1	210
9955475	5934	1133	0	-100	0	230	101300000	1000	0	0	-1	210
9968035	5931	1133	0	-100	0	230	101300000	1000	0	0	-1	210
9980595	5936	1135	0	-100	0	230	101300000	1000	0	0	-1	210
9993155	5940	1137	0	-100	0	230	101300000	1000	0	0	-1	210
10005715	5935	1137	0	-100	0	230	101300000	1000	0	0	-1	210
10018275	5938	1140	0	-100	0	230	101300000	1000	0	0	-1	210
10030835	5937	1136	0	-100	0	230	101300000	1000	0	0	-1	210
10043395	5935	1138	0	-100	0	230	101300000	1000	0	0	-1	210
10055955	5934	1138	0	-100	0	230	101300000	1000	0	0	-1	210
10068515	5936	1148	0	-100	0	230	101300000	1000	0	0	-1	210
10081075	5941	1139	0	-100	0	230	101300000	1000	0	0	-1	210
10093635	5939	1131	0	-100	0	230	101300000	1000	0	0	-1	210
10106195	5924	1135	0	-100	0	230	101300000	1000	0	0	-1	210
10118755	5933	1140	0	-100	0	230	101300000	1000	0	0	-1	210
10131315	5941	1135	0	-100	0	230	101300000	1000	0	0	-1	210
10143875	5937	1134	0	-100	0	230	101300000	1000	0	0	-1	210
10156435	5935	1132	0	-100	0	230	101300000	1000	0	0	-1	210
10168995	5937	1137	0	-100	0	230	101300000	1000	0	0	-1	210
10181555	5937	1132	0	-100	0	230	101300000	1000	0	0	-1	210
10194115	5930	1142	0	-100	0	230	101300000	1000	0	0	-1	210
10206675	5940	1141	0	-100	0	230	101300000	1000	0	0	-1	210
10219235	5931	1143	0	-100	0	230	101300000	1000	0	0	-1	210
10231795	5937	1136	0	-100	0	230	101300000	1000	0	0	-1	210
10244355	5932	1136	0	-100	0	230	101300000	1000	0	0	-1	210
10256915	5933	1138	0	-100	0	230	101300000	1000	0	0	-1	210
10269475	5936	1142	0	-100	0	230	101300000	1000	0	0	-1	210
10282035	5934	1146	0	-100	0	230	101300000	1000	0	0	-1	210
10294595	5945	1140	0	-100	0	230	101300000	1000	0	0	-1	210
10307155	5936	1133	0	-100	0	230	101300000	1000	0	0	-1	210
10319715	5934	1135	0	-100	0	230	101300000	1000	0	0	-1	210
10332275	5938	1133	0	-100	0	230	101300000	1000	0	0	-1	210
10344835	5931	1141	0	-100	0	230	101300000	1000	0	0	-1	210
10357395	5941	1144	0	-100	0	230	101300000	1000	0	0	-1	210
10369955	5936	1133	0	-100	0	230	101300000	1000	0	0	-1	210
10382515	5932	1136	0	-100	0	230	101300000	1000	0	0	-1	210
10395075	5934	1135	0	-100	0	230	101300000	1000	0	0	-1	210
10407635	5939	1139	0	-100	0	230	101300000	1000	0	0	-1	210
10420195	5932	1141	0	-100	0	230	101300000	1000	0	0	-1	210
10432755	5930	1142	0	-100	0	230	101300000	1000	0	0	-1	210
10445315	5937	1131	0	-100	0	230	101300000	1000	0	0	-1	210
10457875	5932	1140	0	-100	0	230	101300000	1000	0	0	-1	210
10470435	5940	1137	0	-100	0	230	101300000	1000	0	0	-1	210
10482995	5931	1136	0	-100	0	230	101300000	1000	0	0	-1	210
10495555	5940	1138	0	-100	0	230	101300000	1000	0	0	-1	210
10508115	5934	1134	0	-100	0	230	101300000	1000	0	0	-1	210
10520675	5931	1141	0	-100	0	230	101300000	1000	0	0	-1	210
10533235	5938	1129	0	-100	0	230	101300000	1000	0	0	-1	210
10545795	5931	1138	0	-100	0	230	101300000	1000	0	0	-1	210
10558355	5934	1139	0	-100	0	230	101300000	1000	0	0	-1	210
10570915	5941	1144	0	-100	0	230	101300000	1000	0	0	-1	210
10583475	5935	1133	0	-100	0	230	101300000	1000	0	0	-1	210
10596035	5936	1136	0	-100	0	230	101300000	1000	0	0	-1	210
10608595	5937	1136	0	-100	0	230	101300000	1000	0	0	-1	210
10621155	5936	1136	0	-100	0	230	101300000	1000	0	0	-1	210
10633715	5946	1138	0	-100	0	230	101300000	1000	0	0	-1	210
10646275	5936	1138	0	-100	0	230	101300000	1000	0	0	-1	210
10658835	5936	1139	0	-100	0	230	101300000	1000	0	0	-1	210
10671395	5939	1132	0	-100	0	230	101300000	1000	0	0	-1	210
10683955	5935	1140	0	-100	0	230	101300000	1000	0	0	-1	210
10696515	5932	1128	0	-100	0	230	101300000	1000	0	0	-1	210
10709075	5944	1139	0	-100	0	230	101300000	1000	0	0	-1	210
10721635	5930	1141	0	-100	0	230	101300000	1000	0	0	-1	210
10734195	5936	1140	0	-100	0	230	101300000	1000	0	0	-1	210
10746755	5933	1139	0	-100	0	230	101300000	1000	0	0	-1	210
10759315	5933	1140	0	-100	0	230	101300000	1000	0	0	-1	210
10771875	5938	1136	0	-100	0	230	101300000	1000	0	0	-1	210
10784435	5932	1140	0	-100	0	230	101300000	1000	0	0	-1	210
10796995	5930	1133	0	-100	0	230	101300000	1000	0	0	-1	210
10809555	5939	1137	0	-100	0	230	101300000	1000	0	0	-1	210
10822115	5933	1140	0	-100	0	230	101300000	1000	0	0	-1	210
10834675	5937	1130	0	-100	0	230	101300000	1000	0	0	-1	210
10847235	5930	1138	0	-100	0	230	101300000	1000	0	0	-1	210
10859795	5936	1144	0	-100	0	230	101300000	1000	0	0	-1	210
10872355	5939	1135	0	-100	0	230	101300000	1000	0	0	-1	210
10884915	5930	1147	0	-100	0	230	101300000	1000	0	0	-1	210
10897475	5940	1142	0	-100	0	230	101300000	1000	0	0	-1	210
10910035	5937	1141	0	-100	0	230	101300000	1000	0	0	-1	210
10922595	5938	1139	0	-100	0	230	101300000	1000	0	0	-1	210
10935155	5937	1137	0	-100	0	230	101300000	1000	0	0	-1	210
10947715	5934	1144	0	-100	0	230	101300000	1000	0	0	-1	210
10960275	5937	1138	0	-100	0	230	101300000	1000	0	0	-1	210
10972835	5934	1130	0	-100	0	230	101300000	1000	0	0	-1	210
10985395	5936	1140	0	-100	0	230	101300000	1000	0	0	-1	210
10997955	5943	1144	0	-100	0	230	101300000	1000	0	0	-1	210
11010515	5932	1139	0	-100	0	230	101300000	1000	0	0	-1	210
11023075	5932	1141	0	-100	0	230	101300000	1000	0	0	-1	210
11035635	5936	1137	0	-100	0	230	101300000	1000	0	0	-1	210
11048195	5936	1138	0	-100	0	230	101300000	1000	0	0	-1	210
11060755	5936	1141	0	-100	0	230	101300000	1000	0	0	-1	210
11073315	5941	1136	0	-100	0	230	101300000	1000	0	0	-1	210
11085875	5932	1143	0	-100	0	230	101300000	1000	0	0	-1	210
11098435	5932	1135	0	-100	0	230	101300000	1000	0	0	-1	210
11110995	5941	1135	0	-100	0	230	101300000	1000	0	0	-1	210
11123555	5933	1139	0	-100	0	230	101300000	1000	0	0	-1	210
11136115	5933	1141	0	-100	0	230	101300000	1000	0	0	-1	210
11148675	5937	1141	0	-100	0	230	101300000	1000	0	0	-1	210
11161235	5928	1138	0	-100	0	230	101300000	1000	0	0	-1	210
11173795	5934	1140	0	-100	0	230	101300000	1000	0	0	-1	210
11186355	5940	1129	0	-100	0	230	101300000	1000	0	0	-1	210
11198915	5931	1140	0	-100	0	230	101300000	1000	0	0	-1	210
11211475	5934	1142	0	-100	0	230	101300000	1000	0	0	-1	210
11224035	5933	1132	0	-100	0	230	101300000	1000	0	0	-1	210
11236595	5936	1149	0	-100	0	230	101300000	1000	0	0	-1	210
11249155	5940	1141	0	-100	0	230	101300000	1000	0	0	-1	210
11261715	5932	1134	0	-100	0	230	101300000	1000	0	0	-1	210
11274275	5932	1134	0	-100	0	230	101300000	1000	0	0	-1	210
11286835	5936	1130	0	-100	0	230	101300000	1000	0	0	-1	210
11299395	5932	1139	0	-100	0	230	101300000	1000	0	0	-1	210
11311955	5938	1141	0	-100	0	230	101300000	1000	0	0	-1	210
11324515	5934	1137	0	-100	0	230	101300000	1000	0	0	-1	210
11337075	5935	1139	0	-100	0	230	101300000	1000	0	0	-1	210
11349635	5945	1145	0	-100	0	230	101300000	1000	0	0	-1	210
11362195	5936	1138	0	-100	0	230	101300000	1000	0	0	-1	210
11374755	5933	1139	0	-100	0	230	101300000	1000	0	0	-1	210
11387315	5939	1136	0	-100	0	230	101300000	1000	0	0	-1	210
11399875	5936	1134	0	-100	0	230	101300000	1000	0	0	-1	210
11412435	5941	1141	0	-100	0	230	101300000	1000	0	0	-1	210
11424995	5932	1137	0	-100	0	230	101300000	1000	0	0	-1	210
11437555	5933	1134	0	-100	0	230	101300000	1000	0	0	-1	210
11450115	5935	1136	0	-100	0	230	101300000	1000	0	0	-1	210
11462675	5930	1145	0	-100	0	230	101300000	1000	0	0	-1	210
11475235	5941	1140	0	-100	0	230	101300000	1000	0	0	-1	210
11487795	5935	1132	0	-100	0	230	101300000	1000	0	0	-1	210
11500355	5941	1145	0	-100	0	230	101300000	1000	0	0	-1	210
11512915	5937	1136	0	-100	0	230	101300000	1000	0	0	-1	210
11525475	5935	1138	0	-100	0	230	101300000	1000	0	0	-1	210
11538035	5940	1132	0	-100	0	230	101300000	1000	0	0	-1	210
11550595	5928	1132	0	-100	0	230	101300000	1000	0	0	-1	210
11563155	5936	1137	0	-100	0	230	101300000	1000	0	0	-1	210
11575715	5941	1140	0	-100	0	230	101300000	1000	0	0	-1	210
11588275	5938	1142	0	-100	0	230	101300000	1000	0	0	-1	210
11600835	5928	1132	0	-100	0	230	101300000	1000	0	0	-1	210
11613395	5939	1142	0	-100	0	230	101300000	1000	0	0	-1	210
11625955	5935	1133	0	-100	0	230	101300000	1000	0	0	-1	210
11638515	5935	1136	0	-100	0	230	101300000	1000	0	0	-1	210
11651075	5929	1140	0	-100	0	230	101300000	1000	0	0	-1	210
11663635	5936	1138	0	-100	0	230	101300000	1000	0	0	-1	210
11676195	5932	1137	0	-100	0	230	101300000	1000	0	0	-1	210
11688755	5936	1147	0	-100	0	230	101300000	1000	0	0	-1	210
11701315	5935	1143	0	-100	0	230	101300000	1000	0	0	-1	210
11713875	5932	1144	0	-100	0	230	101300000	1000	0	0	-1	210
11726435	5938	1132	0	-100	0	230	101300000	1000	0	0	-1	210
11738995	5936	1138	0	-100	0	230	101300000	1000	0	0	-1	210
11751555	5936	1136	0	-100	0	230	101300000	1000	0	0	-1	210
11764115	5931	1136	0	-100	0	230	101300000	1000	0	0	-1	210
11776675	5934	1140	0	-100	0	230	101300000	1000	0	0	-1	210
11789235	5936	1145	0	-100	0	230	101300000	1000	0	0	-1	210
11801795	5933	1139	0	-100	0	230	101300000	1000	0	0	-1	210
11814355	5933	1142	0	-100	0	230	101300000	1000	0	0	-1	210
11826915	5931	1139	0	-100	0	230	101300000	1000	0	0	-1	210
11839475	5940	1134	0	-100	0	230	101300000	1000	0	0	-1	210
11852035	5932	1130	0	-100	0	230	101300000	1000	0	0	-1	210
11864595	5938	1134	0	-100	0	230	101300000	1000	0	0	-1	210
11877155	5934	1148	0	-100	0	230	101300000	1000	0	0	-1	210
11889715	5936	1137	0	-100	0	230	101300000	1000	0	0	-1	210
11902275	5934	1143	0	-100	0	230	101300000	1000	0	0	-1	210
11914835	5933	1135	0	-100	0	230	101300000	1000	0	0	-1	210
11927395	5936	1136	0	-100	0	230	101300000	1000	0	0	-1	210
11939955	5932	1135	0	-100	0	230	101300000	1000	0	0	-1	210
11952515	5932	1141	0	-100	0	230	101300000	1000	0	0	-1	210
11965075	5936	1142	0	-100	0	230	101300000	1000	0	0	-1	210
11977635	5935	1138	0	-100	0	230	101300000	1000	0	0	-1	210
11990195	5938	1145	0	-100	0	230	101300000	1000	0	0	-1	210
12002755	5932	1132	0	-100	0	230	101300000	1000	0	0	-1	210
12015315	5931	1139	0	-100	0	230	101300000	1000	0	0	-1	210
12027875	5939	1134	0	-100	0	230	101300000	1000	0	0	-1	210
12040435	5933	1146	0	-100	0	230	101300000	1000	0	0	-1	210
12052995	5930	1141	0	-100	0	230	101300000	1000	0	0	-1	210
12065555	5939	1133	0	-100	0	230	101300000	1000	0	0	-1	210
12078115	5934	1143	0	-100	0	230	101300000	1000	0	0	-1	210
12090675	5934	1143	0	-100	0	230	101300000	1000	0	0	-1	210
12103235	5932	1135	0	-100	0	230	101300000	1000	0	0	-1	210
12115795	5941	1138	0	-100	0	230	101300000	1000	0	0	-1	210
12128355	5934	1139	0	-100	0	230	101300000	1000	0	0	-1	210
12140915	5935	1132	0	-100	0	230	101300000	1000	0	0	-1	210
12153475	5936	1140	0	-100	0	230	101300000	1000	0	0	-1	210
12166035	5930	1135	0	-100	0	230	101300000	1000	0	0	-1	210
12178595	5937	1140	0	-100	0	230	101300000	1000	0	0	-1	210
12191155	5931	1139	0	-100	0	230	101300000	1000	0	0	-1	210
12203715	5936	1140	0	-100	0	230	101300000	1000	0	0	-1	210
12216275	5936	1141	0	-100	0	230	101300000	1000	0	0	-1	210
12228835	5930	1132	0	-100	0	230	101300000	1000	0	0	-1	210
12241395	5936	1143	0	-100	0	230	101300000	1000	0	0	-1	210
12253955	5932	1137	0	-100	0	230	101300000	1000	0	0	-1	210
12266515	5936	1135	0	-100	0	230	101300000	1000	0	0	-1	210
12279075	5936	1142	0	-100	0	230	101300000	1000	0	0	-1	210
12291635	5932	1131	0	-100	0	230	101300000	1000	0	0	-1	210
12304195	5939	1133	0	-100	0	230	101300000	1000	0	0	-1	210
12316755	5935	1141	0	-100	0	230	101300000	1000	0	0	-1	210
12329315	5928	1136	0	-100	0	230	101300000	1000	0	0	-1	210
12341875	5936	1134	0	-100	0	230	101300000	1000	0	0	-1	210
12354435	5943	1133	0	-100	0	230	101300000	1000	0	0	-1	210
12366995	5933	1131	0	-100	0	230	101300000	1000	0	0	-1	210
12379555	5932	1142	0	-100	0	230	101300000	1000	0	0	-1	210
12392115	5937	1141	0	-100	0	230	101300000	1000	0	0	-1	210
12404675	5941	1137	0	-100	0	230	101300000	1000	0	0	-1	210
12417235	5934	1145	0	-100	0	230	101300000	1000	0	0	-1	210
12429795	5931	1139	0	-100	0	230	101300000	1000	0	0	-1	210
12442355	5939	1136	0	-100	0	230	101300000	1000	0	0	-1	210
12454915	5936	1134	0	-100	0	230	101300000	1000	0	0	-1	210
12467475	5936	1133	0	-100	0	230	101300000	1000	0	0	-1	210
12480035	5936	1139	0	-100	0	230	101300000	1000	0	0	-1	210
12492595	5940	1136	0	-100	0	230	101300000	1000	0	0	-1	210
12505155	5933	1142	0	-100	0	230	101300000	1000	0	0	-1	210
12517715	5936	1139	0	-100	0	230	101300000	1000	0	0	-1	210
12530275	5932	1137	0	-100	0	230	101300000	1000	0	0	-1	210
12542835	5938	1131	0	-100	0	230	101300000	1000	0	0	-1	210
12555395	5945	1141	0	-100	0	230	101300000	1000	0	0	-1	210
12567955	5934	1149	0	-100	0	230	101300000	1000	0	0	-1	210
12580515	5932	1143	0	-100	0	230	101300000	1000	0	0	-1	210
12593075	5933	1135	0	-100	0	230	101300000	1000	0	0	-1	210
12605635	5939	1141	0	-100	0	230	101300000	1000	0	0	-1	210
12618195	5936	1133	0	-100	0	230	101300000	1000	0	0	-1	210
12630755	5945	1140	0	-100	0	230	101300000	1000	0	0	-1	210
12643315	5936	1143	0	-100	0	230	101300000	1000	0	0	-1	210
12655875	5935	1137	0	-100	0	230	101300000	1000	0	0	-1	210
12668435	5932	1139	0	-100	0	230	101300000	1000	0	0	-1	210
12680995	5936	1144	0	-100	0	230	101300000	1000	0	0	-1	210
12693555	5932	1138	0	-100	0	230	101300000	1000	0	0	-1	210
12706115	5933	1131	0	-100	0	230	101300000	1000	0	0	-1	210
12718675	5934	1136	0	-100	0	230	101300000	1000	0	0	-1	210
12731235	5934	1135	0	-100	0	230	101300000	1000	0	0	-1	210
12743795	5934	1138	0	-100	0	230	101300000	1000	0	0	-1	210
12756355	5936	1134	0	-100	0	230	101300000	1000	0	0	-1	210
12768915	5933	1141	0	-100	0	230	101300000	1000	0	0	-1	210
12781475	5939	1134	0	-100	0	230	101300000	1000	0	0	-1	210
12794035	5935	1138	0	-100	0	230	101300000	1000	0	0	-1	210
12806595	5937	1134	0	-100	0	230	101300000	1000	0	0	-1	210
12819155	5934	1146	0	-100	0	230	101300000	1000	0	0	-1	210
12831715	5931	1138	0	-100	0	230	101300000	1000	0	0	-1	210
12844275	5936	1141	0	-100	0	230	101300000	1000	0	0	-1	210
12856835	5934	1142	0	-100	0	230	101300000	1000	0	0	-1	210
12869395	5932	1135	0	-100	0	230	101300000	1000	0	0	-1	210
12881955	5936	1141	0	-100	0	230	101300000	1000	0	0	-1	210
12894515	5937	1140	0	-100	0	230	101300000	1000	0	0	-1	210
12907075	5936	1142	0	-100	0	230	101300000	1000	0	0	-1	210
12919635	5936	1131	0	-100	0	230	101300000	1000	0	0	-1	210
12932195	5935	1134	0	-100	0	230	101300000	1000	0	0	-1	210
12944755	5935	1139	0	-100	0	230	101300000	1000	0	0	-1	210
12957315	5937	1137	0	-100	0	230	101300000	1000	0	0	-1	210
12969875	5934	1142	0	-100	0	230	101300000	1000	0	0	-1	210
12982435	5930	1128	0	-100	0	230	101300000	1000	0	0	-1	210
12994995	5937	1140	0	-100	0	230	101300000	1000	0	0	-1	210
13007555	5932	1137	0	-100	0	230	101300000	1000	0	0	-1	210
13020115	5932	1134	0	-100	0	230	101300000	1000	0	0	-1	210
13032675	5940	1135	0	-100	0	230	101300000	1000	0	0	-1	210
13045235	5932	1134	0	-100	0	230	101300000	1000	0	0	-1	210
13057795	5930	1138	0	-100	0	230	101300000	1000	0	0	-1	210
13070355	5937	1133	0	-100	0	230	101300000	1000	0	0	-1	210
13082915	5931	1142	0	-100	0	230	101300000	1000	0	0	-1	210
13095475	5928	1135	0	-100	0	230	101300000	1000	0	0	-1	210
13108035	5934	1135	0	-100	0	230	101300000	1000	0	0	-1	210
13120595	5933	1144	0	-100	0	230	101300000	1000	0	0	-1	210
13133155	5932	1138	0	-100	0	230	101300000	1000	0	0	-1	210
13145715	5940	1136	0	-100	0	230	101300000	1000	0	0	-1	210
13158275	5932	1141	0	-100	0	230	101300000	1000	0	0	-1	210
13170835	5931	1133	0	-100	0	230	101300000	1000	0	0	-1	210
13183395	5939	1127	0	-100	0	230	101300000	1000	0	0	-1	210
13195955	5941	1140	0	-100	0	230	101300000	1000	0	0	-1	210
13208515	5932	1134	0	-100	0	230	101300000	1000	0	0	-1	210
13221075	5936	1139	0	-100	0	230	101300000	1000	0	0	-1	210
13233635	5941	1141	0	-100	0	230	101300000	1000	0	0	-1	210
13246195	5934	1148	0	-100	0	230	101300000	1000	0	0	-1	210
13258755	5928	1142	0	-100	0	230	101300000	1000	0	0	-1	210
13271315	5935	1132	0	-100	0	230	101300000	1000	0	0	-1	210
13283875	5932	1141	0	-100	0	230	101300000	1000	0	0	-1	210
13296435	5934	1142	0	-100	0	230	101300000	1000	0	0	-1	210
13308995	5932	1144	0	-100	0	230	101300000	1000	0	0	-1	210
13321555	5940	1141	0	-100	0	230	101300000	1000	0	0	-1	210
13334115	5933	1143	0	-100	0	230	101300000	1000	0	0	-1	210
13346675	5931	1143	0	-100	0	230	101300000	1000	0	0	-1	210
13359235	5939	1137	0	-100	0	230	101300000	1000	0	0	-1	210
13371795	5934	1139	0	-100	0	230	101300000	1000	0	0	-1	210
13384355	5932	1132	0	-100	0	230	101300000	1000	0	0	-1	210
13396915	5937	1137	0	-100	0	230	101300000	1000	0	0	-1	210
13409475	5941	1141	0	-100	0	230	101300000	1000	0	0	-1	210
13422035	5932	1140	0	-100	0	230	101300000	1000	0	0	-1	210
13434595	5936	1138	0	-100	0	230	101300000	1000	0	0	-1	210
13447155	5940	1136	0	-100	0	230	101300000	1000	0	0	-1	210
13459715	5934	1134	0	-100	0	230	101300000	1000	0	0	-1	210
13472275	5932	1137	0	-100	0	230	101300000	1000	0	0	-1	210
13484835	5937	1132	0	-100	0	230	101300000	1000	0	0	-1	210
13497395	5936	1138	0	-100	0	230	101300000	1000	0	0	-1	210
13509955	5938	1140	0	-100	0	230	101300000	1000	0	0	-1	210
13522515	5938	1143	0	-100	0	230	101300000	1000	0	0	-1	210
13535075	5940	1137	0	-100	0	230	101300000	1000	0	0	-1	210
13547635	5934	1137	0	-100	0	230	101300000	1000	0	0	-1	210
13560195	5935	1141	0	-100	0	230	101300000	1000	0	0	-1	210
13572755	5936	1140	0	-100	0	230	101300000	1000	0	0	-1	210
13585315	5935	1138	0	-100	0	230	101300000	1000	0	0	-1	210
13597875	5935	1138	0	-100	0	230	101300000	1000	0	0	-1	210
13610435	5934	1138	0	-100	0	230	101300000	1000	0	0	-1	210
13622995	5938	1140	0	-100	0	230	101300000	1000	0	0	-1	210
13635555	5931	1139	0	-100	0	230	101300000	1000	0	0	-1	210
13648115	5942	1146	0	-100	0	230	101300000	1000	0	0	-1	210
13660675	5932	1137	0	-100	0	230	101300000	1000	0	0	-1	210
13673235	5943	1138	0	-100	0	230	101300000	1000	0	0	-1	210
13685795	5935	1130	0	-100	0	230	101300000	1000	0	0	-1	210
13698355	5939	1138	0	-100	0	230	101300000	1000	0	0	-1	210
13710915	5933	1140	0	-100	0	230	101300000	1000	0	0	-1	210
13723475	5937	1134	0	-100	0	230	101300000	1000	0	0	-1	210
13736035	5934	1128	0	-100	0	230	101300000	1000	0	0	-1	210
13748595	5932	1137	0	-100	0	230	101300000	1000	0	0	-1	210
13761155	5944	1138	0	-100	0	230	101300000	1000	0	0	-1	210
13773715	5933	1131	0	-100	0	230	101300000	1000	0	0	-1	210
13786275	5937	1137	0	-100	0	230	101300000	1000	0	0	-1	210
13798835	5937	1138	0	-100	0	230	101300000	1000	0	0	-1	210
13811395	5937	1138	0	-100	0	230	101300000	1000	0	0	-1	210
13823955	5940	1146	0	-100	0	230	101300000	1000	0	0	-1	210
13836515	5941	1138	0	-100	0	230	101300000	1000	0	0	-1	210
13849075	5930	1138	0	-100	0	230	101300000	1000	0	0	-1	210
13861635	5932	1137	0	-100	0	230	101300000	1000	0	0	-1	210
13874195	5937	1141	0	-100	0	230	101300000	1000	0	0	-1	210
13886755	5932	1135	0	-100	0	230	101300000	1000	0	0	-1	210
13899315	5943	1136	0	-100	0	230	101300000	1000	0	0	-1	210
13911875	5934	1142	0	-100	0	230	101300000	1000	0	0	-1	210
13924435	5933	1127	0	-100	0	230	101300000	1000	0	0	-1	210
13936995	5933	1136	0	-100	0	230	101300000	1000	0	0	-1	210
13949555	5934	1139	0	-100	0	230	101300000	1000	0	0	-1	210
13962115	5936	1139	0	-100	0	230	101300000	1000	0	0	-1	210
13974675	5933	1133	0	-100	0	230	101300000	1000	0	0	-1	210
13987235	5942	1139	0	-100	0	230	101300000	1000	0	0	-1	210
13999795	5929	1133	0	-100	0	230	101300000	1000	0	0	-1	210
14012355	5940	1147	0	-100	0	230	101300000	1000	0	0	-1	210
14024915	5932	1134	0	-100	0	230	101300000	1000	0	0	-1	210
14037475	5937	1136	0	-100	0	230	101300000	1000	0	0	-1	210
14050035	5936	1140	0	-100	0	230	101300000	1000	0	0	-1	210
14062595	5933	1141	0	-100	0	230	101300000	1000	0	0	-1	210
14075155	5936	1136	0	-100	0	230	101300000	1000	0	0	-1	210
14087715	5935	1140	0	-100	0	230	101300000	1000	0	0	-1	210
14100275	5932	1146	0	-100	0	230	101300000	1000	0	0	-1	210
14112835	5934	1140	0	-100	0	230	101300000	1000	0	0	-1	210
14125395	5935	1136	0	-100	0	230	101300000	1000	0	0	-1	210
14137955	5937	1132	0	-100	0	230	101300000	1000	0	0	-1	210
14150515	5934	1137	0	-100	0	230	101300000	1000	0	0	-1	210
14163075	5932	1131	0	-100	0	230	101300000	1000	0	0	-1	210
14175635	5934	1138	0	-100	0	230	101300000	1000	0	0	-1	210
14188195	5937	1130	0	-100	0	230	101300000	1000	0	0	-1	210
14200755	5938	1144	0	-100	0	230	101300000	1000	0	0	-1	210
14213315	5941	1145	0	-100	0	230	101300000	1000	0	0	-1	210
14225875	5935	1141	0	-100	0	230	101300000	1000	0	0	-1	210
14238435	5934	1141	0	-100	0	230	101300000	1000	0	0	-1	210
14250995	5939	1142	0	-100	0	230	101300000	1000	0	0	-1	210
14263555	5938	1142	0	-100	0	230	101300000	1000	0	0	-1	210
14276115	5941	1136	0	-100	0	230	101300000	1000	0	0	-1	210
14288675	5931	1139	0	-100	0	230	101300000	1000	0	0	-1	210
14301235	5934	1152	0	-100	0	230	101300000	1000	0	0	-1	210
14313795	5943	1142	0	-100	0	230	101300000	1000	0	0	-1	210
14326355	5936	1140	0	-100	0	230	101300000	1000	0	0	-1	210
14338915	5936	1130	0	-100	0	230	101300000	1000	0	0	-1	210
14351475	5934	1147	0	-100	0	230	101300000	1000	0	0	-1	210
14364035	5934	1133	0	-100	0	230	101300000	1000	0	0	-1	210
14376595	5934	1136	0	-100	0	230	101300000	1000	0	0	-1	210
14389155	5936	1138	0	-100	0	230	101300000	1000	0	0	-1	210
14401715	5944	1139	0	-100	0	230	101300000	1000	0	0	-1	210
14414275	5933	1136	0	-100	0	230	101300000	1000	0	0	-1	210
14426835	5931	1139	0	-100	0	230	101300000	1000	0	0	-1	210
14439395	5938	1133	0	-100	0	230	101300000	1000	0	0	-1	210
14451955	5935	1139	0	-100	0	230	101300000	1000	0	0	-1	210
14464515	5928	1140	0	-100	0	230	101300000	1000	0	0	-1	210
14477075	5939	1136	0	-100	0	230	101300000	1000	0	0	-1	210
14489635	5943	1138	0	-100	0	230	101300000	1000	0	0	-1	210
14502195	5933	1134	0	-100	0	230	101300000	1000	0	0	-1	210
14514755	5940	1133	0	-100	0	230	101300000	1000	0	0	-1	210
14527315	5934	1132	0	-100	0	230	101300000	1000	0	0	-1	210
14539875	5928	1135	0	-100	0	230	101300000	1000	0	0	-1	210
14552435	5938	1139	0	-100	0	230	101300000	1000	0	0	-1	210
14564995	5935	1137	0	-100	0	230	101300000	1000	0	0	-1	210
14577555	5935	1145	0	-100	0	230	101300000	1000	0	0	-1	210
14590115	5932	1137	0	-100	0	230	101300000	1000	0	0	-1	210
14602675	5935	1132	0	-100	0	230	101300000	1000	0	0	-1	210
14615235	5939	1133	0	-100	0	230	101300000	1000	0	0	-1	210
14627795	5939	1141	0	-100	0	230	101300000	1000	0	0	-1	210
14640355	5936	1144	0	-100	0	230	101300000	1000	0	0	-1	210
14652915	5939	1138	0	-100	0	230	101300000	1000	0	0	-1	210
14665475	5932	1132	0	-100	0	230	101300000	1000	0	0	-1	210
14678035	5940	1143	0	-100	0	230	101300000	1000	0	0	-1	210
14690595	5935	1132	0	-100	0	230	101300000	1000	0	0	-1	210
14703155	5934	1144	0	-100	0	230	101300000	1000	0	0	-1	210
14715715	5934	1134	0	-100	0	230	101300000	1000	0	0	-1	210
14728275	5940	1131	0	-100	0	230	101300000	1000	0	0	-1	210
14740835	5932	1145	0	-100	0	230	101300000	1000	0	0	-1	210
14753395	5937	1138	0	-100	0	230	101300000	1000	0	0	-1	210
14765955	5937	1130	0	-100	0	230	101300000	1000	0	0	-1	210
14778515	5937	1140	0	-100	0	230	101300000	1000	0	0	-1	210
14791075	5932	1134	0	-100	0	230	101300000	1000	0	0	-1	210
14803635	5940	1141	0	-100	0	230	101300000	1000	0	0	-1	210
14816195	5935	1137	0	-100	0	230	101300000	1000	0	0	-1	210
14828755	5939	1138	0	-100	0	230	101300000	1000	0	0	-1	210
14841315	5932	1130	0	-100	0	230	101300000	1000	0	0	-1	210
14853875	5943	1144	0	-100	0	230	101300000	1000	0	0	-1	210
14866435	5930	1137	0	-100	0	230	101300000	1000	0	0	-1	210
14878995	5936	1139	0	-100	0	230	101300000	1000	0	0	-1	210
14891555	5932	1140	0	-100	0	230	101300000	1000	0	0	-1	210
14904115	5939	1139	0	-100	0	230	101300000	1000	0	0	-1	210
14916675	5933	1137	0	-100	0	230	101300000	1000	0	0	-1	210
14929235	5940	1143	0	-100	0	230	101300000	1000	0	0	-1	210
14941795	5934	1139	0	-100	0	230	101300000	1000	0	0	-1	210
14954355	5932	1137	0	-100	0	230	101300000	1000	0	0	-1	210
14966915	5939	1137	0	-100	0	230	101300000	1000	0	0	-1	210
14979475	5930	1130	0	-100	0	230	101300000	1000	0	0	-1	210
14992035	5938	1134	0	-100	0	230	101300000	1000	0	0	-1	210
15004595	5934	1146	0	-100	0	230	101300000	1000	0	0	-1	210
15017155	5939	1134	0	-100	0	230	101300000	1000	0	0	-1	210
15029715	5932	1142	0	-100	0	230	101300000	1000	0	0	-1	210
15042275	5933	1143	0	-100	0	230	101300000	1000	0	0	-1	210
15054835	5939	1138	0	-100	0	230	101300000	1000	0	0	-1	210
15067395	5936	1143	0	-100	0	230	101300000	1000	0	0	-1	210
15079955	5936	1138	0	-100	0	230	101300000	1000	0	0	-1	210
15092515	5932	1143	0	-100	0	230	101300000	1000	0	0	-1	210
15105075	5937	1139	0	-100	0	230	101300000	1000	0	0	-1	210
15117635	5934	1134	0	-100	0	230	101300000	1000	0	0	-1	210
15130195	5940	1143	0	-100	0	230	101300000	1000	0	0	-1	210
15142755	5934	1138	0	-100	0	230	101300000	1000	0	0	-1	210
15155315	5933	1140	0	-100	0	230	101300000	1000	0	0	-1	210
15167875	5936	1141	0	-100	0	230	101300000	1000	0	0	-1	210
15180435	5937	1139	0	-100	0	230	101300000	1000	0	0	-1	210
15192995	5937	1135	0	-100	0	230	101300000	1000	0	0	-1	210
15205555	5936	1134	0	-100	0	230	101300000	1000	0	0	-1	210
15218115	5941	1140	0	-100	0	230	101300000	1000	0	0	-1	210
15230675	5940	1140	0	-100	0	230	101300000	1000	0	0	-1	210
15243235	5939	1138	0	-100	0	230	101300000	1000	0	0	-1	210
15255795	5932	1134	0	-100	0	230	101300000	1000	0	0	-1	210
15268355	5932	1141	0	-100	0	230	101300000	1000	0	0	-1	210
15280915	5933	1133	0	-100	0	230	101300000	1000	0	0	-1	210
15293475	5932	1144	0	-100	0	230	101300000	1000	0	0	-1	210
15306035	5940	1135	0	-100	0	230	101300000	1000	0	0	-1	210
15318595	5931	1137	0	-100	0	230	101300000	1000	0	0	-1	210
15331155	5936	1140	0	-100	0	230	101300000	1000	0	0	-1	210
15343715	5935	1139	0	-100	0	230	101300000	1000	0	0	-1	210
15356275	5936	1143	0	-100	0	230	101300000	1000	0	0	-1	210
15368835	5929	1132	0	-100	0	230	101300000	1000	0	0	-1	210
15381395	5934	1142	0	-100	0	230	101300000	1000	0	0	-1	210
15393955	5934	1138	0	-100	0	230	101300000	1000	0	0	-1	210
15406515	5934	1142	0	-100	0	230	101300000	1000	0	0	-1	210
15419075	5934	1144	0	-100	0	230	101300000	1000	0	0	-1	210
15431635	5936	1141	0	-100	0	230	101300000	1000	0	0	-1	210
15444195	5932	1142	0	-100	0	230	101300000	1000	0	0	-1	210
15456755	5932	1138	0	-100	0	230	101300000	1000	0	0	-1	210
15469315	5929	1137	0	-100	0	230	101300000	1000	0	0	-1	210
15481875	5936	1134	0	-100	0	230	101300000	1000	0	0	-1	210
15494435	5939	1135	0	-100	0	230	101300000	1000	0	0	-1	210
15506995	5927	1144	0	-100	0	230	101300000	1000	0	0	-1	210
15519555	5934	1138	0	-100	0	230	101300000	1000	0	0	-1	210
15532115	5936	1142	0	-100	0	230	101300000	1000	0	0	-1	210
15544675	5936	1138	0	-100	0	230	101300000	1000	0	0	-1	210
15557235	5932	1140	0	-100	0	230	101300000	1000	0	0	-1	210
15569795	5935	1142	0	-100	0	230	101300000	1000	0	0	-1	210
15582355	5936	1138	0	-100	0	230	101300000	1000	0	0	-1	210
15594915	5941	1145	0	-100	0	230	101300000	1000	0	0	-1	210
15607475	5934	1134	0	-100	0	230	101300000	1000	0	0	-1	210
15620035	5933	1135	0	-100	0	230	101300000	1000	0	0	-1	210
15632595	5932	1142	0	-100	0	230	101300000	1000	0	0	-1	210
15645155	5937	1140	0	-100	0	230	101300000	1000	0	0	-1	210
15657715	5945	1142	0	-100	0	230	101300000	1000	0	0	-1	210
15670275	5941	1132	0	-100	0	230	101300000	1000	0	0	-1	210
15682835	5939	1140	0	-100	0	230	101300000	1000	0	0	-1	210
15695395	5928	1139	0	-100	0	230	101300000	1000	0	0	-1	210
15707955	5932	1137	0	-100	0	230	101300000	1000	0	0	-1	210
15720515	5938	1143	0	-100	0	230	101300000	1000	0	0	-1	210
15733075	5937	1138	0	-100	0	230	101300000	1000	0	0	-1	210
15745635	5936	1146	0	-100	0	230	101300000	1000	0	0	-1	210
15758195	5936	1140	0	-100	0	230	101300000	1000	0	0	-1	210
15770755	5939	1140	0	-100	0	230	101300000	1000	0	0	-1	210
15783315	5930	1137	0	-100	0	230	101300000	1000	0	0	-1	210
15795875	5932	1147	0	-100	0	230	101300000	1000	0	0	-1	210
15808435	5941	1134	0	-100	0	230	101300000	1000	0	0	-1	210
15820995	5935	1142	0	-100	0	230	101300000	1000	0	0	-1	210
15833555	5934	1142	0	-100	0	230	101300000	1000	0	0	-1	210
15846115	5935	1137	0	-100	0	230	101300000	1000	0	0	-1	210
15858675	5938	1138	0	-100	0	230	101300000	1000	0	0	-1	210
15871235	5939	1133	0	-100	0	230	101300000	1000	0	0	-1	210
15883795	5939	1132	0	-100	0	230	101300000	1000	0	0	-1	210
15896355	5930	1138	0	-100	0	230	101300000	1000	0	0	-1	210
15908915	5932	1132	0	-100	0	230	101300000	1000	0	0	-1	210
15921475	5931	1135	0	-100	0	230	101300000	1000	0	0	-1	210
15934035	5936	1144	0	-100	0	230	101300000	1000	0	0	-1	210
15946595	5940	1139	0	-100	0	230	101300000	1000	0	0	-1	210
15959155	5936	1145	0	-100	0	230	101300000	1000	0	0	-1	210
15971715	5933	1134	0	-100	0	230	101300000	1000	0	0	-1	210
15984275	5936	1147	0	-100	0	230	101300000	1000	0	0	-1	210
15996835	5938	1140	0	-100	0	230	101300000	1000	0	0	-1	210
16009395	5935	1132	0	-100	0	230	101300000	1000	0	0	-1	210
16021955	5938	1136	0	-100	0	230	101300000	1000	0	0	-1	210
16034515	5936	1137	0	-100	0	230	101300000	1000	0	0	-1	210
16047075	5932	1142	0	-100	0	230	101300000	1000	0	0	-1	210
16059635	5932	1136	0	-100	0	230	101300000	1000	0	0	-1	210
16072195	5933	1141	0	-100	0	230	101300000	1000	0	0	-1	210
16084755	5938	1140	0	-100	0	230	101300000	1000	0	0	-1	210
16097315	5941	1138	0	-100	0	230	101300000	1000	0	0	-1	210
16109875	5936	1136	0	-100	0	230	101300000	1000	0	0	-1	210
16122435	5930	1138	0	-100	0	230	101300000	1000	0	0	-1	210
16134995	5931	1134	0	-100	0	230	101300000	1000	0	0	-1	210
16147555	5934	1140	0	-100	0	230	101300000	1000	0	0	-1	210
16160115	5935	1142	0	-100	0	230	101300000	1000	0	0	-1	210
16172675	5938	1141	0	-100	0	230	101300000	1000	0	0	-1	210
16185235	5936	1135	0	-100	0	230	101300000	1000	0	0	-1	210
16197795	5933	1138	0	-100	0	230	101300000	1000	0	0	-1	210
16210355	5934	1140	0	-100	0	230	101300000	1000	0	0	-1	210
16222915	5936	1140	0	-100	0	230	101300000	1000	0	0	-1	210
16235475	5932	1134	0	-100	0	230	101300000	1000	0	0	-1	210
16248035	5943	1140	0	-100	0	230	101300000	1000	0	0	-1	210
16260595	5937	1140	0	-100	0	230	101300000	1000	0	0	-1	210
16273155	5932	1131	0	-100	0	230	101300000	1000	0	0	-1	210
16285715	5933	1142	0	-100	0	230	101300000	1000	0	0	-1	210
16298275	5936	1142	0	-100	0	230	101300000	1000	0	0	-1	210
16310835	5938	1128	0	-100	0	230	101300000	1000	0	0	-1	210
16323395	5936	1135	0	-100	0	230	101300000	1000	0	0	-1	210
16335955	5932	1144	0	-100	0	230	101300000	1000	0	0	-1	210
16348515	5935	1137	0	-100	0	230	101300000	1000	0	0	-1	210
16361075	5935	1138	0	-100	0	230	101300000	1000	0	0	-1	210
16373635	5938	1144	0	-100	0	230	101300000	1000	0	0	-1	210
16386195	5942	1139	0	-100	0	230	101300000	1000	0	0	-1	210
16398755	5941	1131	0	-100	0	230	101300000	1000	0	0	-1	210
16411315	5936	1135	0	-100	0	230	101300000	1000	0	0	-1	210
16423875	5930	1132	0	-100	0	230	101300000	1000	0	0	-1	210
16436435	5932	1138	0	-100	0	230	101300000	1000	0	0	-1	210
16448995	5938	1134	0	-100	0	230	101300000	1000	0	0	-1	210
16461555	5941	1137	0	-100	0	230	101300000	1000	0	0	-1	210
16474115	5939	1142	0	-100	0	230	101300000	1000	0	0	-1	210
16486675	5931	1141	0	-100	0	230	101300000	1000	0	0	-1	210
16499235	5932	1137	0	-100	0	230	101300000	1000	0	0	-1	210
16511795	5932	1145	0	-100	0	230	101300000	1000	0	0	-1	210
16524355	5936	1138	0	-100	0	230	101300000	1000	0	0	-1	210
16536915	5942	1141	0	-100	0	230	101300000	1000	0	0	-1	210
16549475	5939	1131	0	-100	0	230	101300000	1000	0	0	-1	210
16562035	5937	1133	0	-100	0	230	101300000	1000	0	0	-1	210
16574595	5934	1141	0	-100	0	230	101300000	1000	0	0	-1	210
16587155	5936	1142	0	-100	0	230	101300000	1000	0	0	-1	210
16599715	5932	1145	0	-100	0	230	101300000	1000	0	0	-1	210
16612275	5937	1129	0	-100	0	230	101300000	1000	0	0	-1	210
16624835	5933	1140	0	-100	0	230	101300000	1000	0	0	-1	210
16637395	5931	1140	0	-100	0	230	101300000	1000	0	0	-1	210
16649955	5932	1139	0	-100	0	230	101300000	1000	0	0	-1	210
16662515	5930	1144	0	-100	0	230	101300000	1000	0	0	-1	210
16675075	5936	1137	0	-100	0	230	101300000	1000	0	0	-1	210
16687635	5936	1127	0	-100	0	230	101300000	1000	0	0	-1	210
16700195	5933	1138	0	-100	0	230	101300000	1000	0	0	-1	210
16712755	5930	1136	0	-100	0	230	101300000	1000	0	0	-1	210
16725315	5938	1142	0	-100	0	230	101300000	1000	0	0	-1	210
16737875	5938	1144	0	-100	0	230	101300000	1000	0	0	-1	210
16750435	5933	1141	0	-100	0	230	101300000	1000	0	0	-1	210
16762995	5936	1140	0	-100	0	230	101300000	1000	0	0	-1	210
16775555	5936	1137	0	-100	0	230	101300000	1000	0	0	-1	210
16788115	5936	1140	0	-100	0	230	101300000	1000	0	0	-1	210
16800675	5940	1135	0	-100	0	230	101300000	1000	0	0	-1	210
16813235	5940	1132	0	-100	0	230	101300000	1000	0	0	-1	210
16825795	5929	1138	0	-100	0	230	101300000	1000	0	0	-1	210
16838355	5933	1142	0	-100	0	230	101300000	1000	0	0	-1	210
16850915	5935	1139	0	-100	0	230	101300000	1000	0	0	-1	210
16863475	5937	1133	0	-100	0	230	101300000	1000	0	0	-1	210
16876035	5931	1143	0	-100	0	230	101300000	1000	0	0	-1	210
16888595	5930	1137	0	-100	0	230	101300000	1000	0	0	-1	210
16901155	5936	1144	0	-100	0	230	101300000	1000	0	0	-1	210
16913715	5933	1139	0	-100	0	230	101300000	1000	0	0	-1	210
16926275	5942	1139	0	-100	0	230	101300000	1000	0	0	-1	210
16938835	5940	1141	0	-100	0	230	101300000	1000	0	0	-1	210
16951395	5936	1143	0	-100	0	230	101300000	1000	0	0	-1	210
16963955	5937	1130	0	-100	0	230	101300000	1000	0	0	-1	210
16976515	5932	1138	0	-100	0	230	101300000	1000	0	0	-1	210
16989075	5928	1138	0	-100	0	230	101300000	1000	0	0	-1	210
17001635	5932	1145	0	-100	0	230	101300000	1000	0	0	-1	210
17014195	5943	1141	0	-100	0	230	101300000	1000	0	0	-1	210
17026755	5936	1133	0	-100	0	230	101300000	1000	0	0	-1	210
17039315	5932	1128	0	-100	0	230	101300000	1000	0	0	-1	210
17051875	5931	1139	0	-100	0	230	101300000	1000	0	0	-1	210
17064435	5933	1142	0	-100	0	230	101300000	1000	0	0	-1	210
17076995	5936	1132	0	-100	0	230	101300000	1000	0	0	-1	210
17089555	5940	1132	0	-100	0	230	101300000	1000	0	0	-1	210
17102115	5935	1138	0	-100	0	230	101300000	1000	0	0	-1	210
17114675	5936	1139	0	-100	0	230	101300000	1000	0	0	-1	210
17127235	5932	1133	0	-100	0	230	101300000	1000	0	0	-1	210
17139795	5938	1144	0	-100	0	230	101300000	1000	0	0	-1	210
17152355	5932	1134	0	-100	0	230	101300000	1000	0	0	-1	210
17164915	5941	1137	0	-100	0	230	101300000	1000	0	0	-1	210
17177475	5939	1134	0	-100	0	230	101300000	1000	0	0	-1	210
17190035	5941	1134	0	-100	0	230	101300000	1000	0	0	-1	210
17202595	5936	1138	0	-100	0	230	101300000	1000	0	0	-1	210
17215155	5935	1132	0	-100	0	230	101300000	1000	0	0	-1	210
17227715	5932	1131	0	-100	0	230	101300000	1000	0	0	-1	210
17240275	5932	1142	0	-100	0	230	101300000	1000	0	0	-1	210
17252835	5932	1130	0	-100	0	230	101300000	1000	0	0	-1	210
17265395	5931	1136	0	-100	0	230	101300000	1000	0	0	-1	210
17277955	5939	1140	0	-100	0	230	101300000	1000	0	0	-1	210
17290515	5930	1137	0	-100	0	230	101300000	1000	0	0	-1	210
17303075	5932	1131	0	-100	0	230	101300000	1000	0	0	-1	210
17315635	5935	1131	0	-100	0	230	101300000	1000	0	0	-1	210
17328195	5936	1135	0	-100	0	230	101300000	1000	0	0	-1	210
17340755	5938	1140	0	-100	0	230	101300000	1000	0	0	-1	210
17353315	5933	1136	0	-100	0	230	101300000	1000	0	0	-1	210
17365875	5936	1138	0	-100	0	230	101300000	1000	0	0	-1	210
17378435	5936	1143	0	-100	0	230	101300000	1000	0	0	-1	210
17390995	5937	1139	0	-100	0	230	101300000	1000	0	0	-1	210
17403555	5941	1137	0	-100	0	230	101300000	1000	0	0	-1	210
17416115	5939	1134	0	-100	0	230	101300000	1000	0	0	-1	210
17428675	5939	1142	0	-100	0	230	101300000	1000	0	0	-1	210
17441235	5938	1138	0	-100	0	230	101300000	1000	0	0	-1	210
17453795	5938	1143	0	-100	0	230	101300000	1000	0	0	-1	210
17466355	5938	1139	0	-100	0	230	101300000	1000	0	0	-1	210
17478915	5941	1131	0	-100	0	230	101300000	1000	0	0	-1	210
17491475	5932	1141	0	-100	0	230	101300000	1000	0	0	-1	210
17504035	5938	1137	0	-100	0	230	101300000	1000	0	0	-1	210
17516595	5937	1141	0	-100	0	230	101300000	1000	0	0	-1	210
17529155	5932	1141	0	-100	0	230	101300000	1000	0	0	-1	210
17541715	5936	1138	0	-100	0	230	101300000	1000	0	0	-1	210
17554275	5936	1140	0	-100	0	230	101300000	1000	0	0	-1	210
17566835	5934	1138	0	-100	0	230	101300000	1000	0	0	-1	210
17579395	5938	1139	0	-100	0	230	101300000	1000	0	0	-1	210
17591955	5936	1134	0	-100	0	230	101300000	1000	0	0	-1	210
17604515	5941	1139	0	-100	0	230	101300000	1000	0	0	-1	210
17617075	5943	1146	0	-100	0	230	101300000	1000	0	0	-1	210
17629635	5941	1133	0	-100	0	230	101300000	1000	0	0	-1	210
17642195	5932	1139	0	-100	0	230	101300000	1000	0	0	-1	210
17654755	5933	1140	0	-100	0	230	101300000	1000	0	0	-1	210
17667315	5938	1141	0	-100	0	230	101300000	1000	0	0	-1	210
17679875	5931	1134	0	-100	0	230	101300000	1000	0	0	-1	210
17692435	5929	1133	0	-100	0	230	101300000	1000	0	0	-1	210
17704995	5932	1141	0	-100	0	230	101300000	1000	0	0	-1	210
17717555	5936	1138	0	-100	0	230	101300000	1000	0	0	-1	210
17730115	5932	1130	0	-100	0	230	101300000	1000	0	0	-1	210
17742675	5932	1138	0	-100	0	230	101300000	1000	0	0	-1	210
17755235	5939	1137	0	-100	0	230	101300000	1000	0	0	-1	210
17767795	5936	1134	0	-100	0	230	101300000	1000	0	0	-1	210
17780355	5939	1139	0	-100	0	230	101300000	1000	0	0	-1	210
17792915	5936	1138	0	-100	0	230	101300000	1000	0	0	-1	210
17805475	5929	1133	0	-100	0	230	101300000	1000	0	0	-1	210
17818035	5932	1135	0	-100	0	230	101300000	1000	0	0	-1	210
17830595	5933	1139	0	-100	0	230	101300000	1000	0	0	-1	210
17843155	5936	1140	0	-100	0	230	101300000	1000	0	0	-1	210
17855715	5936	1138	0	-100	0	230	101300000	1000	0	0	-1	210
17868275	5934	1142	0	-100	0	230	101300000	1000	0	0	-1	210
17880835	5936	1137	0	-100	0	230	101300000	1000	0	0	-1	210
17893395	5941	1138	0	-100	0	230	101300000	1000	0	0	-1	210
17905955	5934	1131	0	-100	0	230	101300000	1000	0	0	-1	210
17918515	5939	1122	0	-100	0	230	101300000	1000	0	0	-1	210
17931075	5937	1133	0	-100	0	230	101300000	1000	0	0	-1	210
17943635	5941	1138	0	-100	0	230	101300000	1000	0	0	-1	210
17956195	5935	1135	0	-100	0	230	101300000	1000	0	0	-1	210
17968755	5939	1138	0	-100	0	230	101300000	1000	0	0	-1	210
17981315	5941	1140	0	-100	0	230	101300000	1000	0	0	-1	210
17993875	5940	1136	0	-100	0	230	101300000	1000	0	0	-1	210
18006435	5937	1138	0	-100	0	230	101300000	1000	0	0	-1	210
18018995	5941	1138	0	-100	0	230	101300000	1000	0	0	-1	210
18031555	5940	1138	0	-100	0	230	101300000	1000	0	0	-1	210
18044115	5934	1137	0	-100	0	230	101300000	1000	0	0	-1	210
18056675	5932	1142	0	-100	0	230	101300000	1000	0	0	-1	210
18069235	5932	1143	0	-100	0	230	101300000	1000	0	0	-1	210
18081795	5934	1138	0	-100	0	230	101300000	1000	0	0	-1	210
18094355	5933	1135	0	-100	0	230	101300000	1000	0	0	-1	210
18106915	5930	1141	0	-100	0	230	101300000	1000	0	0	-1	210
18119475	5932	1145	0	-100	0	230	101300000	1000	0	0	-1	210
18132035	5937	1134	0	-100	0	230	101300000	1000	0	0	-1	210
18144595	5936	1143	0	-100	0	230	101300000	1000	0	0	-1	210
18157155	5937	1132	0	-100	0	230	101300000	1000	0	0	-1	210
18169715	5932	1135	0	-100	0	230	101300000	1000	0	0	-1	210
18182275	5934	1136	0	-100	0	230	101300000	1000	0	0	-1	210
18194835	5928	1139	0	-100	0	230	101300000	1000	0	0	-1	210
18207395	5928	1131	0	-100	0	230	101300000	1000	0	0	-1	210
18219955	5932	1137	0	-100	0	230	101300000	1000	0	0	-1	210
18232515	5931	1133	0	-100	0	230	101300000	1000	0	0	-1	210
18245075	5929	1131	0	-100	0	230	101300000	1000	0	0	-1	210
18257635	5933	1137	0	-100	0	230	101300000	1000	0	0	-1	210
18270195	5936	1137	0	-100	0	230	101300000	1000	0	0	-1	210
18282755	5934	1138	0	-100	0	230	101300000	1000	0	0	-1	210
18295315	5941	1141	0	-100	0	230	101300000	1000	0	0	-1	210
18307875	5938	1131	0	-100	0	230	101300000	1000	0	0	-1	210
18320435	5935	1139	0	-100	0	230	101300000	1000	0	0	-1	210
18332995	5934	1142	0	-100	0	230	101300000	1000	0	0	-1	210
18345555	5931	1139	0	-100	0	230	101300000	1000	0	0	-1	210
18358115	5933	1136	0	-100	0	230	101300000	1000	0	0	-1	210
18370675	5936	1139	0	-100	0	230	101300000	1000	0	0	-1	210
18383235	5936	1133	0	-100	0	230	101300000	1000	0	0	-1	210
18395795	5938	1135	0	-100	0	230	101300000	1000	0	0	-1	210
18408355	5936	1131	0	-100	0	230	101300000	1000	0	0	-1	210
18420915	5931	1138	0	-100	0	230	101300000	1000	0	0	-1	210
18433475	5934	1138	0	-100	0	230	101300000	1000	0	0	-1	210
18446035	5939	1134	0	-100	0	230	101300000	1000	0	0	-1	210
18458595	5932	1134	0	-100	0	230	101300000	1000	0	0	-1	210
18471155	5935	1136	0	-100	0	230	101300000	1000	0	0	-1	210
18483715	5932	1141	0	-100	0	230	101300000	1000	0	0	-1	210
18496275	5940	1142	0	-100	0	230	101300000	1000	0	0	-1	210
18508835	5937	1134	0	-100	0	230	101300000	1000	0	0	-1	210
18521395	5930	1132	0	-100	0	230	101300000	1000	0	0	-1	210
18533955	5936	1140	0	-100	0	230	101300000	1000	0	0	-1	210
18546515	5937	1135	0	-100	0	230	101300000	1000	0	0	-1	210
18559075	5936	1135	0	-100	0	230	101300000	1000	0	0	-1	210
18571635	5933	1133	0	-100	0	230	101300000	1000	0	0	-1	210
18584195	5934	1140	0	-100	0	230	101300000	1000	0	0	-1	210
18596755	5939	1141	0	-100	0	230	101300000	1000	0	0	-1	210
18609315	5932	1135	0	-100	0	230	101300000	1000	0	0	-1	210
18621875	5935	1136	0	-100	0	230	101300000	1000	0	0	-1	210
18634435	5940	1138	0	-100	0	230	101300000	1000	0	0	-1	210
18646995	5933	1141	0	-100	0	230	101300000	1000	0	0	-1	210
18659555	5936	1138	0	-100	0	230	101300000	1000	0	0	-1	210
18672115	5933	1144	0	-100	0	230	101300000	1000	0	0	-1	210
18684675	5939	1138	0	-100	0	230	101300000	1000	0	0	-1	210
18697235	5930	1141	0	-100	0	230	101300000	1000	0	0	-1	210
18709795	5932	1130	0	-100	0	230	101300000	1000	0	0	-1	210
18722355	5939	1131	0	-100	0	230	101300000	1000	0	0	-1	210
18734915	5936	1131	0	-100	0	230	101300000	1000	0	0	-1	210
18747475	5930	1137	0	-100	0	230	101300000	1000	0	0	-1	210
18760035	5932	1139	0	-100	0	230	101300000	1000	0	0	-1	210
18772595	5944	1137	0	-100	0	230	101300000	1000	0	0	-1	210
18785155	5933	1132	0	-100	0	230	101300000	1000	0	0	-1	210
18797715	5935	1133	0	-100	0	230	101300000	1000	0	0	-1	210
18810275	5933	1139	0	-100	0	230	101300000	1000	0	0	-1	210
18822835	5933	1139	0	-100	0	230	101300000	1000	0	0	-1	210
18835395	5943	1139	0	-100	0	230	101300000	1000	0	0	-1	210
18847955	5934	1139	0	-100	0	230	101300000	1000	0	0	-1	210
18860515	5935	1144	0	-100	0	230	101300000	1000	0	0	-1	210
18873075	5934	1138	0	-100	0	230	101300000	1000	0	0	-1	210
18885635	5939	1135	0	-100	0	230	101300000	1000	0	0	-1	210
18898195	5929	1142	0	-100	0	230	101300000	1000	0	0	-1	210
18910755	5932	1147	0	-100	0	230	101300000	1000	0	0	-1	210
18923315	5941	1134	0	-100	0	230	101300000	1000	0	0	-1	210
18935875	5931	1138	0	-100	0	230	101300000	1000	0	0	-1	210
18948435	5934	1138	0	-100	0	230	101300000	1000	0	0	-1	210
18960995	5941	1136	0	-100	0	230	101300000	1000	0	0	-1	210
18973555	5931	1134	0	-100	0	230	101300000	1000	0	0	-1	210
18986115	5935	1140	0	-100	0	230	101300000	1000	0	0	-1	210
18998675	5936	1131	0	-100	0	230	101300000	1000	0	0	-1	210
19011235	5931	1144	0	-100	0	230	101300000	1000	0	0	-1	210
19023795	5934	1143	0	-100	0	230	101300000	1000	0	0	-1	210
19036355	5938	1128	0	-100	0	230	101300000	1000	0	0	-1	210
19048915	5935	1137	0	-100	0	230	101300000	1000	0	0	-1	210
19061475	5930	1141	0	-100	0	230	101300000	1000	0	0	-1	210
19074035	5940	1137	0	-100	0	230	101300000	1000	0	0	-1	210
19086595	5936	1136	0	-100	0	230	101300000	1000	0	0	-1	210
19099155	5928	1136	0	-100	0	230	101300000	1000	0	0	-1	210
19111715	5932	1144	0	-100	0	230	101300000	1000	0	0	-1	210
19124275	5938	1142	0	-100	0	230	101300000	1000	0	0	-1	210
19136835	5936	1133	0	-100	0	230	101300000	1000	0	0	-1	210
19149395	5937	1134	0	-100	0	230	101300000	1000	0	0	-1	210
19161955	5928	1135	0	-100	0	230	101300000	1000	0	0	-1	210
19174515	5928	1137	0	-100	0	230	101300000	1000	0	0	-1	210
19187075	5944	1138	0	-100	0	230	101300000	1000	0	0	-1	210
19199635	5932	1132	0	-100	0	230	101300000	1000	0	0	-1	210
19212195	5930	1139	0	-100	0	230	101300000	1000	0	0	-1	210
19224755	5940	1134	0	-100	0	230	101300000	1000	0	0	-1	210
19237315	5933	1136	0	-100	0	230	101300000	1000	0	0	-1	210
19249875	5930	1142	0	-100	0	230	101300000	1000	0	0	-1	210
19262435	5941	1142	0	-100	0	230	101300000	1000	0	0	-1	210
19274995	5935	1135	0	-100	0	230	101300000	1000	0	0	-1	210
19287555	5934	1143	0	-100	0	230	101300000	1000	0	0	-1	210
19300115	5934	1143	0	-100	0	230	101300000	1000	0	0	-1	210
19312675	5937	1130	0	-100	0	230	101300000	1000	0	0	-1	210
19325235	5932	1146	0	-100	0	230	101300000	1000	0	0	-1	210
19337795	5932	1139	0	-100	0	230	101300000	1000	0	0	-1	210
19350355	5940	1136	0	-100	0	230	101300000	1000	0	0	-1	210
19362915	5930	1134	0	-100	0	230	101300000	1000	0	0	-1	210
19375475	5933	1141	0	-100	0	230	101300000	1000	0	0	-1	210
19388035	5941	1135	0	-100	0	230	101300000	1000	0	0	-1	210
19400595	5934	1138	0	-100	0	230	101300000	1000	0	0	-1	210
19413155	5932	1140	0	-100	0	230	101300000	1000	0	0	-1	210
19425715	5941	1142	0	-100	0	230	101300000	1000	0	0	-1	210
19438275	5940	1134	0	-100	0	230	101300000	1000	0	0	-1	210
19450835	5935	1143	0	-100	0	230	101300000	1000	0	0	-1	210
19463395	5932	1136	0	-100	0	230	101300000	1000	0	0	-1	210
19475955	5936	1136	0	-100	0	230	101300000	1000	0	0	-1	210
19488515	5942	1137	0	-100	0	230	101300000	1000	0	0	-1	210
19501075	5936	1134	0	-100	0	230	101300000	1000	0	0	-1	210
19513635	5927	1132	0	-100	0	230	101300000	1000	0	0	-1	210
19526195	5932	1140	0	-100	0	230	101300000	1000	0	0	-1	210
19538755	5938	1134	0	-100	0	230	101300000	1000	0	0	-1	210
19551315	5937	1132	0	-100	0	230	101300000	1000	0	0	-1	210
19563875	5932	1138	0	-100	0	230	101300000	1000	0	0	-1	210
19576435	5932	1144	0	-100	0	230	101300000	1000	0	0	-1	210
19588995	5938	1136	0	-100	0	230	101300000	1000	0	0	-1	210
19601555	5943	1134	0	-100	0	230	101300000	1000	0	0	-1	210
19614115	5932	1133	0	-100	0	230	101300000	1000	0	0	-1	210
19626675	5937	1140	0	-100	0	230	101300000	1000	0	0	-1	210
19639235	5943	1136	0	-100	0	230	101300000	1000	0	0	-1	210
19651795	5934	1139	0	-100	0	230	101300000	1000	0	0	-1	210
19664355	5934	1145	0	-100	0	230	101300000	1000	0	0	-1	210
19676915	5940	1141	0	-100	0	230	101300000	1000	0	0	-1	210
19689475	5936	1139	0	-100	0	230	101300000	1000	0	0	-1	210
19702035	5940	1136	0	-100	0	230	101300000	1000	0	0	-1	210
19714595	5930	1138	0	-100	0	230	101300000	1000	0	0	-1	210
19727155	5943	1144	0	-100	0	230	101300000	1000	0	0	-1	210
19739715	5930	1141	0	-100	0	230	101300000	1000	0	0	-1	210
19752275	5939	1131	0	-100	0	230	101300000	1000	0	0	-1	210
19764835	5932	1138	0	-100	0	230	101300000	1000	0	0	-1	210
19777395	5939	1142	0	-100	0	230	101300000	1000	0	0	-1	210
19789955	5935	1138	0	-100	0	230	101300000	1000	0	0	-1	210
19802515	5933	1140	0	-100	0	230	101300000	1000	0	0	-1	210
19815075	5936	1132	0	-100	0	230	101300000	1000	0	0	-1	210
19827635	5934	1135	0	-100	0	230	101300000	1000	0	0	-1	210
19840195	5937	1136	0	-100	0	230	101300000	1000	0	0	-1	210
19852755	5940	1145	0	-100	0	230	101300000	1000	0	0	-1	210
19865315	5936	1145	0	-100	0	230	101300000	1000	0	0	-1	210
19877875	5935	1141	0	-100	0	230	101300000	1000	0	0	-1	210
19890435	5930	1136	0	-100	0	230	101300000	1000	0	0	-1	210
19902995	5930	1137	0	-100	0	230	101300000	1000	0	0	-1	210
19915555	5945	1142	0	-100	0	230	101300000	1000	0	0	-1	210
19928115	5937	1138	0	-100	0	230	101300000	1000	0	0	-1	210
19940675	5936	1145	0	-100	0	230	101300000	1000	0	0	-1	210
19953235	5934	1140	0	-100	0	230	101300000	1000	0	0	-1	210
19965795	5937	1136	0	-100	0	230	101300000	1000	0	0	-1	210
19978355	5934	1144	0	-100	0	230	101300000	1000	0	0	-1	210
19990915	5937	1138	0	-100	0	230	101300000	1000	0	0	-1	210
20003475	5937	1141	0	-100	0	230	101300000	1000	0	0	-1	210
20016035	5929	1138	0	-100	0	230	101300000	1000	0	0	-1	210
20028595	5936	1136	0	-100	0	230	101300000	1000	0	0	-1	210
20041155	5942	1133	0	-100	0	230	101300000	1000	0	0	-1	210
20053715	5941	1140	0	-100	0	230	101300000	1000	0	0	-1	210
20066275	5935	1136	0	-100	0	230	101300000	1000	0	0	-1	210
20078835	5932	1141	0	-100	0	230	101300000	1000	0	0	-1	210
20091395	5932	1142	0	-100	0	230	101300000	1000	0	0	-1	210
20103955	5932	1141	0	-100	0	230	101300000	1000	0	0	-1	210
20116515	5941	1140	0	-100	0	230	101300000	1000	0	0	-1	210
20129075	5931	1130	0	-100	0	230	101300000	1000	0	0	-1	210
20141635	5934	1142	0	-100	0	230	101300000	1000	0	0	-1	210
20154195	5941	1140	0	-100	0	230	101300000	1000	0	0	-1	210
20166755	5937	1132	0	-100	0	230	101300000	1000	0	0	-1	210
20179315	5928	1137	0	-100	0	230	101300000	1000	0	0	-1	210
20191875	5938	1139	0	-100	0	230	101300000	1000	0	0	-1	210
20204435	5941	1140	0	-100	0	230	101300000	1000	0	0	-1	210
20216995	5939	1143	0	-100	0	230	101300000	1000	0	0	-1	210
20229555	5935	1145	0	-100	0	230	101300000	1000	0	0	-1	210
20242115	5935	1150	0	-100	0	230	101300000	1000	0	0	-1	210
20254675	5937	1134	0	-100	0	230	101300000	1000	0	0	-1	210
20267235	5936	1131	0	-100	0	230	101300000	1000	0	0	-1	210
20279795	5928	1139	0	-100	0	230	101300000	1000	0	0	-1	210
20292355	5932	1140	0	-100	0	230	101300000	1000	0	0	-1	210
20304915	5941	1136	0	-100	0	230	101300000	1000	0	0	-1	210
20317475	5940	1132	0	-100	0	230	101300000	1000	0	0	-1	210
20330035	5935	1132	0	-100	0	230	101300000	1000	0	0	-1	210
20342595	5928	1137	0	-100	0	230	101300000	1000	0	0	-1	210
20355155	5935	1141	0	-100	0	230	101300000	1000	0	0	-1	210
20367715	5932	1138	0	-100	0	230	101300000	1000	0	0	-1	210
20380275	5933	1141	0	-100	0	230	101300000	1000	0	0	-1	210
20392835	5940	1141	0	-100	0	230	101300000	1000	0	0	-1	210
20405395	5936	1137	0	-100	0	230	101300000	1000	0	0	-1	210
20417955	5936	1134	0	-100	0	230	101300000	1000	0	0	-1	210
20430515	5934	1135	0	-100	0	230	101300000	1000	0	0	-1	210
20443075	5940	1136	0	-100	0	230	101300000	1000	0	0	-1	210
20455635	5937	1141	0	-100	0	230	101300000	1000	0	0	-1	210
20468195	5932	1135	0	-100	0	230	101300000	1000	0	0	-1	210
20480755	5932	1135	0	-100	0	230	101300000	1000	0	0	-1	210
20493315	5928	1144	0	-100	0	230	101300000	1000	0	0	-1	210
20505875	5939	1135	0	-100	0	230	101300000	1000	0	0	-1	210
20518435	5935	1138	0	-100	0	230	101300000	1000	0	0	-1	210
20530995	5928	1138	0	-100	0	230	101300000	1000	0	0	-1	210
20543555	5932	1137	0	-100	0	230	101300000	1000	0	0	-1	210
20556115	5942	1125	0	-100	0	230	101300000	1000	0	0	-1	210
20568675	5937	1137	0	-100	0	230	101300000	1000	0	0	-1	210
20581235	5931	1134	0	-100	0	230	101300000	1000	0	0	-1	210
20593795	5932	1144	0	-100	0	230	101300000	1000	0	0	-1	210
20606355	5936	1138	0	-100	0	230	101300000	1000	0	0	-1	210
20618915	5941	1130	0	-100	0	230	101300000	1000	0	0	-1	210
20631475	5936	1141	0	-100	0	230	101300000	1000	0	0	-1	210
20644035	5932	1141	0	-100	0	230	101300000	1000	0	0	-1	210
20656595	5935	1139	0	-100	0	230	101300000	1000	0	0	-1	210
20669155	5936	1149	0	-100	0	230	101300000	1000	0	0	-1	210
20681715	5932	1134	0	-100	0	230	101300000	1000	0	0	-1	210
20694275	5943	1138	0	-100	0	230	101300000	1000	0	0	-1	210
20706835	5940	1137	0	-100	0	230	101300000	1000	0	0	-1	210
20719395	5935	1136	0	-100	0	230	101300000	1000	0	0	-1	210
20731955	5932	1146	0	-100	0	230	101300000	1000	0	0	-1	210
20744515	5936	1138	0	-100	0	230	101300000	1000	0	0	-1	210
20757075	5939	1138	0	-100	0	230	101300000	1000	0	0	-1	210
20769635	5934	1132	0	-100	0	230	101300000	1000	0	0	-1	210
20782195	5931	1135	0	-100	0	230	101300000	1000	0	0	-1	210
20794755	5940	1146	0	-100	0	230	101300000	1000	0	0	-1	210
20807315	5936	1140	0	-100	0	230	101300000	1000	0	0	-1	210
20819875	5932	1133	0	-100	0	230	101300000	1000	0	0	-1	210
20832435	5936	1136	0	-100	0	230	101300000	1000	0	0	-1	210
20844995	5933	1140	0	-100	0	230	101300000	1000	0	0	-1	210
20857555	5930	1135	0	-100	0	230	101300000	1000	0	0	-1	210
20870115	5939	1140	0	-100	0	230	101300000	1000	0	0	-1	210
20882675	5940	1141	0	-100	0	230	101300000	1000	0	0	-1	210
20895235	5931	1132	0	-100	0	230	101300000	1000	0	0	-1	210
20907795	5934	1138	0	-100	0	230	101300000	1000	0	0	-1	210
20920355	5932	1142	0	-100	0	230	101300000	1000	0	0	-1	210
20932915	5935	1131	0	-100	0	230	101300000	1000	0	0	-1	210
20945475	5936	1134	0	-100	0	230	101300000	1000	0	0	-1	210
20958035	5934	1140	0	-100	0	230	101300000	1000	0	0	-1	210
20970595	5934	1131	0	-100	0	230	101300000	1000	0	0	-1	210
20983155	5941	1133	0	-100	0	230	101300000	1000	0	0	-1	210
20995715	5928	1137	0	-100	0	230	101300000	1000	0	0	-1	210
21008275	5936	1136	0	-100	0	230	101300000	1000	0	0	-1	210
21020835	5932	1137	0	-100	0	230	101300000	1000	0	0	-1	210
21033395	5941	1140	0	-100	0	230	101300000	1000	0	0	-1	210
21045955	5936	1140	0	-100	0	230	101300000	1000	0	0	-1	210
21058515	5934	1139	0	-100	0	230	101300000	1000	0	0	-1	210
21071075	5935	1138	0	-100	0	230	101300000	1000	0	0	-1	210
21083635	5932	1140	0	-100	0	230	101300000	1000	0	0	-1	210
21096195	5938	1142	0	-100	0	230	101300000	1000	0	0	-1	210
21108755	5941	1138	0	-100	0	230	101300000	1000	0	0	-1	210
21121315	5937	1132	0	-100	0	230	101300000	1000	0	0	-1	210
21133875	5936	1138	0	-100	0	230	101300000	1000	0	0	-1	210
21146435	5934	1137	0	-100	0	230	101300000	1000	0	0	-1	210
21158995	5935	1130	0	-100	0	230	101300000	1000	0	0	-1	210
21171555	5940	1136	0	-100	0	230	101300000	1000	0	0	-1	210
21184115	5936	1142	0	-100	0	230	101300000	1000	0	0	-1	210
21196675	5935	1138	0	-100	0	230	101300000	1000	0	0	-1	210
21209235	5930	1137	0	-100	0	230	101300000	1000	0	0	-1	210
21221795	5936	1129	0	-100	0	230	101300000	1000	0	0	-1	210
21234355	5935	1135	0	-100	0	230	101300000	1000	0	0	-1	210
21246915	5931	1135	0	-100	0	230	101300000	1000	0	0	-1	210
21259475	5936	1147	0	-100	0	230	101300000	1000	0	0	-1	210
21272035	5936	1136	0	-100	0	230	101300000	1000	0	0	-1	210
21284595	5940	1138	0	-100	0	230	101300000	1000	0	0	-1	210
21297155	5936	1134	0	-100	0	230	101300000	1000	0	0	-1	210
21309715	5936	1138	0	-100	0	230	101300000	1000	0	0	-1	210
21322275	5938	1144	0	-100	0	230	101300000	1000	0	0	-1	210
21334835	5938	1138	0	-100	0	230	101300000	1000	0	0	-1	210
21347395	5937	1141	0	-100	0	230	101300000	1000	0	0	-1	210
21359955	5930	1149	0	-100	0	230	101300000	1000	0	0	-1	210
21372515	5930	1134	0	-100	0	230	101300000	1000	0	0	-1	210
21385075	5935	1143	0	-100	0	230	101300000	1000	0	0	-1	210
21397635	5935	1141	0	-100	0	230	101300000	1000	0	0	-1	210
21410195	5931	1140	0	-100	0	230	101300000	1000	0	0	-1	210
21422755	5941	1144	0	-100	0	230	101300000	1000	0	0	-1	210
21435315	5936	1128	0	-100	0	230	101300000	1000	0	0	-1	210
21447875	5939	1135	0	-100	0	230	101300000	1000	0	0	-1	210
21460435	5932	1134	0	-100	0	230	101300000	1000	0	0	-1	210
21472995	5938	1139	0	-100	0	230	101300000	1000	0	0	-1	210
21485555	5932	1142	0	-100	0	230	101300000	1000	0	0	-1	210
21498115	5934	1138	0	-100	0	230	101300000	1000	0	0	-1	210
21510675	5941	1140	0	-100	0	230	101300000	1000	0	0	-1	210
21523235	5936	1135	0	-100	0	230	101300000	1000	0	0	-1	210
21535795	5932	1132	0	-100	0	230	101300000	1000	0	0	-1	210
21548355	5932	1138	0	-100	0	230	101300000	1000	0	0	-1	210
21560915	5934	1142	0	-100	0	230	101300000	1000	0	0	-1	210
21573475	5932	1141	0	-100	0	230	101300000	1000	0	0	-1	210
21586035	5940	1135	0	-100	0	230	101300000	1000	0	0	-1	210
21598595	5938	1133	0	-100	0	230	101300000	1000	0	0	-1	210
21611155	5936	1134	0	-100	0	230	101300000	1000	0	0	-1	210
21623715	5936	1138	0	-100	0	230	101300000	1000	0	0	-1	210
21636275	5937	1140	0	-100	0	230	101300000	1000	0	0	-1	210
21648835	5931	1135	0	-100	0	230	101300000	1000	0	0	-1	210
21661395	5932	1138	0	-100	0	230	101300000	1000	0	0	-1	210
21673955	5932	1139	0	-100	0	230	101300000	1000	0	0	-1	210
21686515	5932	1137	0	-100	0	230	101300000	1000	0	0	-1	210
21699075	5943	1148	0	-100	0	230	101300000	1000	0	0	-1	210
21711635	5936	1142	0	-100	0	230	101300000	1000	0	0	-1	210
21724195	5932	1137	0	-100	0	230	101300000	1000	0	0	-1	210
21736755	5935	1136	0	-100	0	230	101300000	1000	0	0	-1	210
21749315	5941	1133	0	-100	0	230	101300000	1000	0	0	-1	210
21761875	5936	1136	0	-100	0	230	101300000	1000	0	0	-1	210
21774435	5934	1144	0	-100	0	230	101300000	1000	0	0	-1	210
21786995	5934	1142	0	-100	0	230	101300000	1000	0	0	-1	210
21799555	5947	1136	0	-100	0	230	101300000	1000	0	0	-1	210
21812115	5941	1134	0	-100	0	230	101300000	1000	0	0	-1	210
21824675	5933	1135	0	-100	0	230	101300000	1000	0	0	-1	210
21837235	5931	1137	0	-100	0	230	101300000	1000	0	0	-1	210
21849795	5941	1141	0	-100	0	230	101300000	1000	0	0	-1	210
21862355	5932	1135	0	-100	0	230	101300000	1000	0	0	-1	210
21874915	5933	1136	0	-100	0	230	101300000	1000	0	0	-1	210
21887475	5935	1141	0	-100	0	230	101300000	1000	0	0	-1	210
21900035	5942	1137	0	-100	0	230	101300000	1000	0	0	-1	210
21912595	5936	1134	0	-100	0	230	101300000	1000	0	0	-1	210
21925155	5928	1135	0	-100	0	230	101300000	1000	0	0	-1	210
21937715	5935	1142	0	-100	0	230	101300000	1000	0	0	-1	210
21950275	5936	1134	0	-100	0	230	101300000	1000	0	0	-1	210
21962835	5937	1136	0	-100	0	230	101300000	1000	0	0	-1	210
21975395	5934	1134	0	-100	0	230	101300000	1000	0	0	-1	210
21987955	5933	1136	0	-100	0	230	101300000	1000	0	0	-1	210
22000515	5933	1138	0	-100	0	230	101300000	1000	0	0	-1	210
22013075	5938	1131	0	-100	0	230	101300000	1000	0	0	-1	210
22025635	5941	1134	0	-100	0	230	101300000	1000	0	0	-1	210
22038195	5933	1138	0	-100	0	230	101300000	1000	0	0	-1	210
22050755	5928	1140	0	-100	0	230	101300000	1000	0	0	-1	210
22063315	5930	1130	0	-100	0	230	101300000	1000	0	0	-1	210
22075875	5934	1134	0	-100	0	230	101300000	1000	0	0	-1	210
22088435	5940	1137	0	-100	0	230	101300000	1000	0	0	-1	210
22100995	5940	1146	0	-100	0	230	101300000	1000	0	0	-1	210
22113555	5936	1136	0	-100	0	230	101300000	1000	0	0	-1	210
22126115	5930	1137	0	-100	0	230	101300000	1000	0	0	-1	210
22138675	5936	1138	0	-100	0	230	101300000	1000	0	0	-1	210
22151235	5933	1134	0	-100	0	230	101300000	1000	0	0	-1	210
22163795	5934	1142	0	-100	0	230	101300000	1000	0	0	-1	210
22176355	5940	1135	0	-100	0	230	101300000	1000	0	0	-1	210
22188915	5940	1145	0	-100	0	230	101300000	1000	0	0	-1	210
22201475	5935	1134	0	-100	0	230	101300000	1000	0	0	-1	210
22214035	5930	1139	0	-100	0	230	101300000	1000	0	0	-1	210
22226595	5935	1144	0	-100	0	230	101300000	1000	0	0	-1	210
22239155	5934	1139	0	-100	0	230	101300000	1000	0	0	-1	210
22251715	5936	1139	0	-100	0	230	101300000	1000	0	0	-1	210
22264275	5940	1141	0	-100	0	230	101300000	1000	0	0	-1	210
22276835	5936	1139	0	-100	0	230	101300000	1000	0	0	-1	210
22289395	5931	1134	0	-100	0	230	101300000	1000	0	0	-1	210
22301955	5933	1133	0	-100	0	230	101300000	1000	0	0	-1	210
22314515	5943	1141	0	-100	0	230	101300000	1000	0	0	-1	210
22327075	5939	1132	0	-100	0	230	101300000	1000	0	0	-1	210
22339635	5935	1137	0	-100	0	230	101300000	1000	0	0	-1	210
22352195	5936	1134	0	-100	0	230	101300000	1000	0	0	-1	210
22364755	5941	1141	0	-100	0	230	101300000	1000	0	0	-1	210
22377315	5933	1130	0	-100	0	230	101300000	1000	0	0	-1	210
22389875	5936	1141	0	-100	0	230	101300000	1000	0	0	-1	210
22402435	5934	1134	0	-100	0	230	101300000	1000	0	0	-1	210
22414995	5942	1141	0	-100	0	230	101300000	1000	0	0	-1	210
22427555	5940	1137	0	-100	0	230	101300000	1000	0	0	-1	210
22440115	5932	1142	0	-100	0	230	101300000	1000	0	0	-1	210
22452675	5928	1130	0	-100	0	230	101300000	1000	0	0	-1	210
22465235	5936	1139	0	-100	0	230	101300000	1000	0	0	-1	210
22477795	5937	1132	0	-100	0	230	101300000	1000	0	0	-1	210
22490355	5932	1141	0	-100	0	230	101300000	1000	0	0	-1	210
22502915	5935	1129	0	-100	0	230	101300000	1000	0	0	-1	210
22515475	5933	1139	0	-100	0	230	101300000	1000	0	0	-1	210
22528035	5942	1136	0	-100	0	230	101300000	1000	0	0	-1	210
22540595	5940	1135	0	-100	0	230	101300000	1000	0	0	-1	210
22553155	5937	1132	0	-100	0	230	101300000	1000	0	0	-1	210
22565715	5940	1134	0	-100	0	230	101300000	1000	0	0	-1	210
22578275	5939	1129	0	-100	0	230	101300000	1000	0	0	-1	210
22590835	5940	1139	0	-100	0	230	101300000	1000	0	0	-1	210
22603395	5929	1132	0	-100	0	230	101300000	1000	0	0	-1	210
22615955	5934	1137	0	-100	0	230	101300000	1000	0	0	-1	210
22628515	5934	1134	0	-100	0	230	101300000	1000	0	0	-1	210
22641075	5936	1140	0	-100	0	230	101300000	1000	0	0	-1	210
22653635	5935	1139	0	-100	0	230	101300000	1000	0	0	-1	210
22666195	5938	1131	0	-100	0	230	101300000	1000	0	0	-1	210
22678755	5939	1133	0	-100	0	230	101300000	1000	0	0	-1	210
22691315	5936	1131	0	-100	0	230	101300000	1000	0	0	-1	210
22703875	5932	1132	0	-100	0	230	101300000	1000	0	0	-1	210
22716435	5936	1135	0	-100	0	230	101300000	1000	0	0	-1	210
22728995	5936	1137	0	-100	0	230	101300000	1000	0	0	-1	210
22741555	5938	1135	0	-100	0	230	101300000	1000	0	0	-1	210
22754115	5939	1130	0	-100	0	230	101300000	1000	0	0	-1	210
22766675	5928	1137	0	-100	0	230	101300000	1000	0	0	-1	210
22779235	5932	1137	0	-100	0	230	101300000	1000	0	0	-1	210
22791795	5941	1146	0	-100	0	230	101300000	1000	0	0	-1	210
22804355	5937	1137	0	-100	0	230	101300000	1000	0	0	-1	210
22816915	5927	1138	0	-100	0	230	101300000	1000	0	0	-1	210
22829475	5936	1140	0	-100	0	230	101300000	1000	0	0	-1	210
22842035	5935	1135	0	-100	0	230	101300000	1000	0	0	-1	210
22854595	5941	1143	0	-100	0	230	101300000	1000	0	0	-1	210
22867155	5936	1137	0	-100	0	230	101300000	1000	0	0	-1	210
22879715	5929	1129	0	-100	0	230	101300000	1000	0	0	-1	210
22892275	5936	1135	0	-100	0	230	101300000	1000	0	0	-1	210
22904835	5934	1140	0	-100	0	230	101300000	1000	0	0	-1	210
22917395	5938	1129	0	-100	0	230	101300000	1000	0	0	-1	210
22929955	5935	1134	0	-100	0	230	101300000	1000	0	0	-1	210
22942515	5939	1133	0	-100	0	230	101300000	1000	0	0	-1	210
22955075	5933	1135	0	-100	0	230	101300000	1000	0	0	-1	210
22967635	5944	1135	0	-100	0	230	101300000	1000	0	0	-1	210
22980195	5940	1136	0	-100	0	230	101300000	1000	0	0	-1	210
22992755	5931	1141	0	-100	0	230	101300000	1000	0	0	-1	210
23005315	5937	1136	0	-100	0	230	101300000	1000	0	0	-1	210
23017875	5932	1136	0	-100	0	230	101300000	1000	0	0	-1	210
23030435	5937	1132	0	-100	0	230	101300000	1000	0	0	-1	210
23042995	5939	1139	0	-100	0	230	101300000	1000	0	0	-1	210
23055555	5932	1137	0	-100	0	230	101300000	1000	0	0	-1	210
23068115	5936	1139	0	-100	0	230	101300000	1000	0	0	-1	210
23080675	5938	1136	0	-100	0	230	101300000	1000	0	0	-1	210
23093235	5938	1135	0	-100	0	230	101300000	1000	0	0	-1	210
23105795	5935	1131	0	-100	0	230	101300000	1000	0	0	-1	210
23118355	5932	1134	0	-100	0	230	101300000	1000	0	0	-1	210
23130915	5936	1142	0	-100	0	230	101300000	1000	0	0	-1	210
23143475	5936	1137	0	-100	0	230	101300000	1000	0	0	-1	210
23156035	5936	1129	0	-100	0	230	101300000	1000	0	0	-1	210
23168595	5937	1128	0	-100	0	230	101300000	1000	0	0	-1	210
23181155	5937	1137	0	-100	0	230	101300000	1000	0	0	-1	210
23193715	5936	1129	0	-100	0	230	101300000	1000	0	0	-1	210
23206275	5935	1129	0	-100	0	230	101300000	1000	0	0	-1	210
23218835	5936	1136	0	-100	0	230	101300000	1000	0	0	-1	210
23231395	5942	1130	0	-100	0	230	101300000	1000	0	0	-1	210
23243955	5940	1125	0	-100	0	230	101300000	1000	0	0	-1	210
23256515	5933	1135	0	-100	0	230	101300000	1000	0	0	-1	210
23269075	5935	1138	0	-100	0	230	101300000	1000	0	0	-1	210
23281635	5933	1137	0	-100	0	230	101300000	1000	0	0	-1	210
23294195	5935	1141	0	-100	0	230	101300000	1000	0	0	-1	210
23306755	5939	1132	0	-100	0	230	101300000	1000	0	0	-1	210
23319315	5939	1133	0	-100	0	230	101300000	1000	0	0	-1	210
23331875	5931	1134	0	-100	0	230	101300000	1000	0	0	-1	210
23344435	5935	1141	0	-100	0	230	101300000	1000	0	0	-1	210
23356995	5936	1138	0	-100	0	230	101300000	1000	0	0	-1	210
23369555	5937	1137	0	-100	0	230	101300000	1000	0	0	-1	210
23382115	5937	1136	0	-100	0	230	101300000	1000	0	0	-1	210
23394675	5935	1137	0	-100	0	230	101300000	1000	0	0	-1	210
23407235	5934	1137	0	-100	0	230	101300000	1000	0	0	-1	210
23419795	5945	1141	0	-100	0	230	101300000	1000	0	0	-1	210
23432355	5938	1129	0	-100	0	230	101300000	1000	0	0	-1	210
23444915	5934	1137	0	-100	0	230	101300000	1000	0	0	-1	210
23457475	5934	1142	0	-100	0	230	101300000	1000	0	0	-1	210
23470035	5939	1136	0	-100	0	230	101300000	1000	0	0	-1	210
23482595	5940	1137	0	-100	0	230	101300000	1000	0	0	-1	210
23495155	5934	1138	0	-100	0	230	101300000	1000	0	0	-1	210
23507715	5932	1136	0	-100	0	230	101300000	1000	0	0	-1	210
23520275	5932	1137	0	-100	0	230	101300000	1000	0	0	-1	210
23532835	5938	1132	0	-100	0	230	101300000	1000	0	0	-1	210
23545395	5932	1140	0	-100	0	230	101300000	1000	0	0	-1	210
23557955	5930	1135	0	-100	0	230	101300000	1000	0	0	-1	210
23570515	5942	1141	0	-100	0	230	101300000	1000	0	0	-1	210
23583075	5932	1137	0	-100	0	230	101300000	1000	0	0	-1	210
23595635	5928	1131	0	-100	0	230	101300000	1000	0	0	-1	210
23608195	5936	1140	0	-100	0	230	101300000	1000	0	0	-1	210
23620755	5936	1131	0	-100	0	230	101300000	1000	0	0	-1	210
23633315	5941	1130	0	-100	0	230	101300000	1000	0	0	-1	210
23645875	5937	1129	0	-100	0	230	101300000	1000	0	0	-1	210
23658435	5932	1139	0	-100	0	230	101300000	1000	0	0	-1	210
23670995	5934	1134	0	-100	0	230	101300000	1000	0	0	-1	210
23683555	5941	1141	0	-100	0	230	101300000	1000	0	0	-1	210
23696115	5937	1134	0	-100	0	230	101300000	1000	0	0	-1	210
23708675	5938	1134	0	-100	0	230	101300000	1000	0	0	-1	210
23721235	5937	1129	0	-100	0	230	101300000	1000	0	0	-1	210
23733795	5936	1135	0	-100	0	230	101300000	1000	0	0	-1	210
23746355	5932	1134	0	-100	0	230	101300000	1000	0	0	-1	210
23758915	5930	1135	0	-100	0	230	101300000	1000	0	0	-1	210
23771475	5939	1134	0	-100	0	230	101300000	1000	0	0	-1	210
23784035	5936	1133	0	-100	0	230	101300000	1000	0	0	-1	210
23796595	5938	1141	0	-100	0	230	101300000	1000	0	0	-1	210
23809155	5934	1138	0	-100	0	230	101300000	1000	0	0	-1	210
23821715	5938	1138	0	-100	0	230	101300000	1000	0	0	-1	210
23834275	5938	1139	0	-100	0	230	101300000	1000	0	0	-1	210
23846835	5929	1135	0	-100	0	230	101300000	1000	0	0	-1	210
23859395	5936	1137	0	-100	0	230	101300000	1000	0	0	-1	210
23871955	5939	1138	0	-100	0	230	101300000	1000	0	0	-1	210
23884515	5933	1136	0	-100	0	230	101300000	1000	0	0	-1	210
23897075	5938	1139	0	-100	0	230	101300000	1000	0	0	-1	210
23909635	5938	1140	0	-100	0	230	101300000	1000	0	0	-1	210
23922195	5937	1138	0	-100	0	230	101300000	1000	0	0	-1	210
23934755	5938	1131	0	-100	0	230	101300000	1000	0	0	-1	210
23947315	5929	1133	0	-100	0	230	101300000	1000	0	0	-1	210
23959875	5940	1137	0	-100	0	230	101300000	1000	0	0	-1	210
23972435	5932	1133	0	-100	0	230	101300000	1000	0	0	-1	210
23984995	5936	1130	0	-100	0	230	101300000	1000	0	0	-1	210
23997555	5934	1138	0	-100	0	230	101300000	1000	0	0	-1	210
24010115	5936	1140	0	-100	0	230	101300000	1000	0	0	-1	210
24022675	5943	1141	0	-100	0	230	101300000	1000	0	0	-1	210
24035235	5935	1138	0	-100	0	230	101300000	1000	0	0	-1	210
24047795	5936	1137	0	-100	0	230	101300000	1000	0	0	-1	210
24060355	5938	1135	0	-100	0	230	101300000	1000	0	0	-1	210
24072915	5931	1139	0	-100	0	230	101300000	1000	0	0	-1	210
24085475	5932	1142	0	-100	0	230	101300000	1000	0	0	-1	210
24098035	5941	1137	0	-100	0	230	101300000	1000	0	0	-1	210
24110595	5937	1139	0	-100	0	230	101300000	1000	0	0	-1	210
24123155	5934	1130	0	-100	0	230	101300000	1000	0	0	-1	210
24135715	5933	1134	0	-100	0	230	101300000	1000	0	0	-1	210
24148275	5936	1134	0	-100	0	230	101300000	1000	0	0	-1	210
24160835	5941	1130	0	-100	0	230	101300000	1000	0	0	-1	210
24173395	5929	1141	0	-100	0	230	101300000	1000	0	0	-1	210
24185955	5935	1139	0	-100	0	230	101300000	1000	0	0	-1	210
24198515	5940	1133	0	-100	0	230	101300000	1000	0	0	-1	210
24211075	5937	1135	0	-100	0	230	101300000	1000	0	0	-1	210
24223635	5934	1131	0	-100	0	230	101300000	1000	0	0	-1	210
24236195	5936	1136	0	-100	0	230	101300000	1000	0	0	-1	210
24248755	5935	1132	0	-100	0	230	101300000	1000	0	0	-1	210
24261315	5936	1135	0	-100	0	230	101300000	1000	0	0	-1	210
24273875	5944	1134	0	-100	0	230	101300000	1000	0	0	-1	210
24286435	5935	1135	0	-100	0	230	101300000	1000	0	0	-1	210
24298995	5937	1136	0	-100	0	230	101300000	1000	0	0	-1	210
24311555	5941	1133	0	-100	0	230	101300000	1000	0	0	-1	210
24324115	5936	1136	0	-100	0	230	101300000	1000	0	0	-1	210
24336675	5934	1139	0	-100	0	230	101300000	1000	0	0	-1	210
24349235	5934	1138	0	-100	0	230	101300000	1000	0	0	-1	210
24361795	5942	1132	0	-100	0	230	101300000	1000	0	0	-1	210
24374355	5934	1133	0	-100	0	230	101300000	1000	0	0	-1	210
24386915	5932	1140	0	-100	0	230	101300000	1000	0	0	-1	210
24399475	5936	1134	0	-100	0	230	101300000	1000	0	0	-1	210
24412035	5941	1133	0	-100	0	230	101300000	1000	0	0	-1	210
24424595	5938	1136	0	-100	0	230	101300000	1000	0	0	-1	210
24437155	5938	1136	0	-100	0	230	101300000	1000	0	0	-1	210
24449715	5938	1129	0	-100	0	230	101300000	1000	0	0	-1	210
24462275	5931	1133	0	-100	0	230	101300000	1000	0	0	-1	210
24474835	5931	1135	0	-100	0	230	101300000	1000	0	0	-1	210
24487395	5940	1132	0	-100	0	230	101300000	1000	0	0	-1	210
24499955	5937	1135	0	-100	0	230	101300000	1000	0	0	-1	210
24512515	5936	1135	0	-100	0	230	101300000	1000	0	0	-1	210
24525075	5934	1137	0	-100	0	230	101300000	1000	0	0	-1	210
24537635	5936	1130	0	-100	0	230	101300000	1000	0	0	-1	210
24550195	5934	1143	0	-100	0	230	101300000	1000	0	0	-1	210
24562755	5941	1135	0	-100	0	230	101300000	1000	0	0	-1	210
24575315	5936	1133	0	-100	0	230	101300000	1000	0	0	-1	210
24587875	5931	1130	0	-100	0	230	101300000	1000	0	0	-1	210
24600435	5932	1142	0	-100	0	230	101300000	1000	0	0	-1	210
24612995	5938	1137	0	-100	0	230	101300000	1000	0	0	-1	210
24625555	5932	1139	0	-100	0	230	101300000	1000	0	0	-1	210
24638115	5932	1138	0	-100	0	230	101300000	1000	0	0	-1	210
24650675	5937	1138	0	-100	0	230	101300000	1000	0	0	-1	210
24663235	5936	1138	0	-100	0	230	101300000	1000	0	0	-1	210
24675795	5936	1142	0	-100	0	230	101300000	1000	0	0	-1	210
24688355	5937	1133	0	-100	0	230	101300000	1000	0	0	-1	210
24700915	5930	1138	0	-100	0	230	101300000	1000	0	0	-1	210
24713475	5936	1141	0	-100	0	230	101300000	1000	0	0	-1	210
24726035	5936	1139	0	-100	0	230	101300000	1000	0	0	-1	210
24738595	5936	1135	0	-100	0	230	101300000	1000	0	0	-1	210
24751155	5932	1136	0	-100	0	230	101300000	1000	0	0	-1	210
24763715	5936	1139	0	-100	0	230	101300000	1000	0	0	-1	210
24776275	5936	1132	0	-100	0	230	101300000	1000	0	0	-1	210
24788835	5937	1132	0	-100	0	230	101300000	1000	0	0	-1	210
24801395	5929	1133	0	-100	0	230	101300000	1000	0	0	-1	210
24813955	5936	1135	0	-100	0	230	101300000	1000	0	0	-1	210
24826515	5941	1136	0	-100	0	230	101300000	1000	0	0	-1	210
24839075	5940	1134	0	-100	0	230	101300000	1000	0	0	-1	210
24851635	5935	1137	0	-100	0	230	101300000	1000	0	0	-1	210
24864195	5932	1131	0	-100	0	230	101300000	1000	0	0	-1	210
24876755	5935	1132	0	-100	0	230	101300000	1000	0	0	-1	210
24889315	5937	1137	0	-100	0	230	101300000	1000	0	0	-1	210
24901875	5936	1135	0	-100	0	230	101300000	1000	0	0	-1	210
24914435	5941	1127	0	-100	0	230	101300000	1000	0	0	-1	210
24926995	5933	1135	0	-100	0	230	101300000	1000	0	0	-1	210
24939555	5932	1131	0	-100	0	230	101300000	1000	0	0	-1	210
24952115	5934	1131	0	-100	0	230	101300000	1000	0	0	-1	210
24964675	5939	1135	0	-100	0	230	101300000	1000	0	0	-1	210
24977235	5932	1133	0	-100	0	230	101300000	1000	0	0	-1	210
24989795	5931	1142	0	-100	0	230	101300000	1000	0	0	-1	210
25002355	5938	1133	0	-100	0	230	101300000	1000	0	0	-1	210
25014915	5939	1134	0	-100	0	230	101300000	1000	0	0	-1	210
25027475	5931	1137	0	-100	0	230	101300000	1000	0	0	-1	210
25040035	5937	1140	0	-100	0	230	101300000	1000	0	0	-1	210
25052595	5941	1128	0	-100	0	230	101300000	1000	0	0	-1	210
25065155	5938	1139	0	-100	0	230	101300000	1000	0	0	-1	210
25077715	5933	1136	0	-100	0	230	101300000	1000	0	0	-1	210
25090275	5935	1134	0	-100	0	230	101300000	1000	0	0	-1	210
25102835	5941	1138	0	-100	0	230	101300000	1000	0	0	-1	210
25115395	5931	1135	0	-100	0	230	101300000	1000	0	0	-1	210
25127955	5932	1134	0	-100	0	230	101300000	1000	0	0	-1	210
25140515	5933	1132	0	-100	0	230	101300000	1000	0	0	-1	210
25153075	5940	1139	0	-100	0	230	101300000	1000	0	0	-1	210
25165635	5932	1133	0	-100	0	230	101300000	1000	0	0	-1	210
25178195	5933	1138	0	-100	0	230	101300000	1000	0	0	-1	210
25190755	5941	1135	0	-100	0	230	101300000	1000	0	0	-1	210
25203315	5935	1136	0	-100	0	230	101300000	1000	0	0	-1	210
25215875	5932	1128	0	-100	0	230	101300000	1000	0	0	-1	210
25228435	5939	1137	0	-100	0	230	101300000	1000	0	0	-1	210
25240995	5933	1136	0	-100	0	230	101300000	1000	0	0	-1	210
25253555	5941	1135	0	-100	0	230	101300000	1000	0	0	-1	210
25266115	5934	1137	0	-100	0	230	101300000	1000	0	0	-1	210
25278675	5938	1135	0	-100	0	230	101300000	1000	0	0	-1	210
25291235	5937	1138	0	-100	0	230	101300000	1000	0	0	-1	210
25303795	5936	1143	0	-100	0	230	101300000	1000	0	0	-1	210
25316355	5944	1133	0	-100	0	230	101300000	1000	0	0	-1	210
25328915	5931	1129	0	-100	0	230	101300000	1000	0	0	-1	210
25341475	5934	1138	0	-100	0	230	101300000	1000	0	0	-1	210
25354035	5935	1139	0	-100	0	230	101300000	1000	0	0	-1	210
25366595	5944	1136	0	-100	0	230	101300000	1000	0	0	-1	210
25379155	5935	1135	0	-100	0	230	101300000	1000	0	0	-1	210
25391715	5931	1136	0	-100	0	230	101300000	1000	0	0	-1	210
25404275	5932	1136	0	-100	0	230	101300000	1000	0	0	-1	210
25416835	5941	1134	0	-100	0	230	101300000	1000	0	0	-1	210
25429395	5936	1134	0	-100	0	230	101300000	1000	0	0	-1	210
25441955	5932	1140	0	-100	0	230	101300000	1000	0	0	-1	210
25454515	5933	1133	0	-100	0	230	101300000	1000	0	0	-1	210
25467075	5935	1142	0	-100	0	230	101300000	1000	0	0	-1	210
25479635	5941	1139	0	-100	0	230	101300000	1000	0	0	-1	210
25492195	5931	1141	0	-100	0	230	101300000	1000	0	0	-1	210
25504755	5935	1145	0	-100	0	230	101300000	1000	0	0	-1	210
25517315	5937	1139	0	-100	0	230	101300000	1000	0	0	-1	210
25529875	5938	1128	0	-100	0	230	101300000	1000	0	0	-1	210
25542435	5930	1137	0	-100	0	230	101300000	1000	0	0	-1	210
25554995	5932	1140	0	-100	0	230	101300000	1000	0	0	-1	210
25567555	5933	1141	0	-100	0	230	101300000	1000	0	0	-1	210
25580115	5937	1137	0	-100	0	230	101300000	1000	0	0	-1	210
25592675	5938	1133	0	-100	0	230	101300000	1000	0	0	-1	210
25605235	5933	1132	0	-100	0	230	101300000	1000	0	0	-1	210
25617795	5934	1143	0	-100	0	230	101300000	1000	0	0	-1	210
25630355	5938	1141	0	-100	0	230	101300000	1000	0	0	-1	210
25642915	5934	1141	0	-100	0	230	101300000	1000	0	0	-1	210
25655475	5936	1137	0	-100	0	230	101300000	1000	0	0	-1	210
25668035	5941	1141	0	-100	0	230	101300000	1000	0	0	-1	210
25680595	5937	1131	0	-100	0	230	101300000	1000	0	0	-1	210
25693155	5933	1131	0	-100	0	230	101300000	1000	0	0	-1	210
25705715	5936	1140	0	-100	0	230	101300000	1000	0	0	-1	210
25718275	5935	1137	0	-100	0	230	101300000	1000	0	0	-1	210
25730835	5936	1142	0	-100	0	230	101300000	1000	0	0	-1	210
25743395	5938	1133	0	-100	0	230	101300000	1000	0	0	-1	210
25755955	5938	1135	0	-100	0	230	101300000	1000	0	0	-1	210
25768515	5932	1136	0	-100	0	230	101300000	1000	0	0	-1	210
25781075	5930	1134	0	-100	0	230	101300000	1000	0	0	-1	210
25793635	5932	1142	0	-100	0	230	101300000	1000	0	0	-1	210
25806195	5941	1136	0	-100	0	230	101300000	1000	0	0	-1	210
25818755	5939	1138	0	-100	0	230	101300000	1000	0	0	-1	210
25831315	5938	1139	0	-100	0	230	101300000	1000	0	0	-1	210
25843875	5932	1132	0	-100	0	230	101300000	1000	0	0	-1	210
25856435	5936	1146	0	-100	0	230	101300000	1000	0	0	-1	210
25868995	5933	1140	0	-100	0	230	101300000	1000	0	0	-1	210
25881555	5943	1134	0	-100	0	230	101300000	1000	0	0	-1	210
25894115	5937	1142	0	-100	0	230	101300000	1000	0	0	-1	210
25906675	5937	1129	0	-100	0	230	101300000	1000	0	0	-1	210
25919235	5930	1132	0	-100	0	230	101300000	1000	0	0	-1	210
25931795	5936	1144	0	-100	0	230	101300000	1000	0	0	-1	210
25944355	5936	1142	0	-100	0	230	101300000	1000	0	0	-1	210
25956915	5941	1140	0	-100	0	230	101300000	1000	0	0	-1	210
25969475	5936	1127	0	-100	0	230	101300000	1000	0	0	-1	210
25982035	5930	1138	0	-100	0	230	101300000	1000	0	0	-1	210
25994595	5935	1135	0	-100	0	230	101300000	1000	0	0	-1	210
26007155	5934	1138	0	-100	0	230	101300000	1000	0	0	-1	210
26019715	5933	1131	0	-100	0	230	101300000	1000	0	0	-1	210
26032275	5940	1139	0	-100	0	230	101300000	1000	0	0	-1	210
26044835	5937	1139	0	-100	0	230	101300000	1000	0	0	-1	210
26057395	5932	1132	0	-100	0	230	101300000	1000	0	0	-1	210
26069955	5934	1134	0	-100	0	230	101300000	1000	0	0	-1	210
26082515	5933	1140	0	-100	0	230	101300000	1000	0	0	-1	210
26095075	5932	1142	0	-100	0	230	101300000	1000	0	0	-1	210
26107635	5942	1139	0	-100	0	230	101300000	1000	0	0	-1	210
26120195	5937	1135	0	-100	0	230	101300000	1000	0	0	-1	210
26132755	5931	1134	0	-100	0	230	101300000	1000	0	0	-1	210
26145315	5936	1139	0	-100	0	230	101300000	1000	0	0	-1	210
26157875	5932	1142	0	-100	0	230	101300000	1000	0	0	-1	210
26170435	5942	1144	0	-100	0	230	101300000	1000	0	0	-1	210
26182995	5943	1140	0	-100	0	230	101300000	1000	0	0	-1	210
26195555	5937	1137	0	-100	0	230	101300000	1000	0	0	-1	210
26208115	5933	1141	0	-100	0	230	101300000	1000	0	0	-1	210
26220675	5934	1144	0	-100	0	230	101300000	1000	0	0	-1	210
26233235	5932	1129	0	-100	0	230	101300000	1000	0	0	-1	210
26245795	5935	1136	0	-100	0	230	101300000	1000	0	0	-1	210
26258355	5936	1141	0	-100	0	230	101300000	1000	0	0	-1	210
26270915	5934	1138	0	-100	0	230	101300000	1000	0	0	-1	210
26283475	5932	1134	0	-100	0	230	101300000	1000	0	0	-1	210
26296035	5942	1125	0	-100	0	230	101300000	1000	0	0	-1	210
26308595	5937	1129	0	-100	0	230	101300000	1000	0	0	-1	210
26321155	5937	1137	0	-100	0	230	101300000	1000	0	0	-1	210
26333715	5932	1135	0	-100	0	230	101300000	1000	0	0	-1	210
26346275	5931	1136	0	-100	0	230	101300000	1000	0	0	-1	210
26358835	5936	1138	0	-100	0	230	101300000	1000	0	0	-1	210
26371395	5932	1137	0	-100	0	230	101300000	1000	0	0	-1	210
26383955	5938	1136	0	-100	0	230	101300000	1000	0	0	-1	210
26396515	5940	1137	0	-100	0	230	101300000	1000	0	0	-1	210
26409075	5936	1139	0	-100	0	230	101300000	1000	0	0	-1	210
26421635	5935	1133	0	-100	0	230	101300000	1000	0	0	-1	210
26434195	5934	1134	0	-100	0	230	101300000	1000	0	0	-1	210
26446755	5931	1135	0	-100	0	230	101300000	1000	0	0	-1	210
26459315	5932	1139	0	-100	0	230	101300000	1000	0	0	-1	210
26471875	5932	1137	0	-100	0	230	101300000	1000	0	0	-1	210
26484435	5936	1135	0	-100	0	230	101300000	1000	0	0	-1	210
26496995	5942	1136	0	-100	0	230	101300000	1000	0	0	-1	210
26509555	5939	1132	0	-100	0	230	101300000	1000	0	0	-1	210
26522115	5938	1131	0	-100	0	230	101300000	1000	0	0	-1	210
26534675	5930	1136	0	-100	0	230	101300000	1000	0	0	-1	210
26547235	5931	1139	0	-100	0	230	101300000	1000	0	0	-1	210
26559795	5941	1136	0	-100	0	230	101300000	1000	0	0	-1	210
26572355	5933	1131	0	-100	0	230	101300000	1000	0	0	-1	210
26584915	5931	1133	0	-100	0	230	101300000	1000	0	0	-1	210
26597475	5936	1137	0	-100	0	230	101300000	1000	0	0	-1	210
26610035	5942	1135	0	-100	0	230	101300000	1000	0	0	-1	210
26622595	5938	1132	0	-100	0	230	101300000	1000	0	0	-1	210
26635155	5934	1130	0	-100	0	230	101300000	1000	0	0	-1	210
26647715	5932	1131	0	-100	0	230	101300000	1000	0	0	-1	210
26660275	5932	1146	0	-100	0	230	101300000	1000	0	0	-1	210
26672835	5939	1135	0	-100	0	230	101300000	1000	0	0	-1	210
26685395	5943	1133	0	-100	0	230	101300000	1000	0	0	-1	210
26697955	5932	1138	0	-100	0	230	101300000	1000	0	0	-1	210
26710515	5932	1136	0	-100	0	230	101300000	1000	0	0	-1	210
26723075	5936	1132	0	-100	0	230	101300000	1000	0	0	-1	210
26735635	5938	1136	0	-100	0	230	101300000	1000	0	0	-1	210
26748195	5934	1142	0	-100	0	230	101300000	1000	0	0	-1	210
26760755	5932	1130	0	-100	0	230	101300000	1000	0	0	-1	210
26773315	5940	1140	0	-100	0	230	101300000	1000	0	0	-1	210
26785875	5939	1139	0	-100	0	230	101300000	1000	0	0	-1	210
26798435	5932	1135	0	-100	0	230	101300000	1000	0	0	-1	210
26810995	5934	1130	0	-100	0	230	101300000	1000	0	0	-1	210
26823555	5931	1132	0	-100	0	230	101300000	1000	0	0	-1	210
26836115	5935	1144	0	-100	0	230	101300000	1000	0	0	-1	210
26848675	5932	1139	0	-100	0	230	101300000	1000	0	0	-1	210
26861235	5938	1132	0	-100	0	230	101300000	1000	0	0	-1	210
26873795	5941	1136	0	-100	0	230	101300000	1000	0	0	-1	210
26886355	5941	1142	0	-100	0	230	101300000	1000	0	0	-1	210
26898915	5938	1134	0	-100	0	230	101300000	1000	0	0	-1	210
26911475	5939	1129	0	-100	0	230	101300000	1000	0	0	-1	210
26924035	5927	1129	0	-100	0	230	101300000	1000	0	0	-1	210
26936595	5934	1137	0	-100	0	230	101300000	1000	0	0	-1	210
26949155	5932	1134	0	-100	0	230	101300000	1000	0	0	-1	210
26961715	5938	1142	0	-100	0	230	101300000	1000	0	0	-1	210
26974275	5936	1131	0	-100	0	230	101300000	1000	0	0	-1	210
26986835	5934	1133	0	-100	0	230	101300000	1000	0	0	-1	210
26999395	5938	1138	0	-100	0	230	101300000	1000	0	0	-1	210
27011955	5936	1131	0	-100	0	230	101300000	1000	0	0	-1	210
27024515	5933	1127	0	-100	0	230	101300000	1000	0	0	-1	210
27037075	5932	1137	0	-100	0	230	101300000	1000	0	0	-1	210
27049635	5932	1143	0	-100	0	230	101300000	1000	0	0	-1	210
