timestamp	voltage	current	windSpeed	pitchAngle	rpm	temperature	ambientPressure	humidity	accelerationX	accelerationY	accelerationZ	currentSink
7039070	6015	855	0	-100	0	230	101300000	1000	0	0	-1	0
7046523	6018	841	0	-100	0	230	101300000	1000	0	0	-1	0
7059083	6012	865	0	-100	0	230	101300000	1000	0	0	-1	0
7071643	6010	861	0	-100	0	230	101300000	1000	0	0	-1	0
7084203	6010	863	0	-100	0	230	101300000	1000	0	0	-1	0
7096763	6008	857	0	-100	0	230	101300000	1000	0	0	-1	0
7109323	6013	856	0	-100	0	230	101300000	1000	0	0	-1	0
7121883	6012	864	0	-100	0	230	101300000	1000	0	0	-1	0
7134443	6009	860	0	-100	0	230	101300000	1000	0	0	-1	0
7147004	6016	857	0	-100	0	230	101300000	1000	0	0	-1	0
7159563	6017	864	0	-100	0	230	101300000	1000	0	0	-1	0
7172123	6013	862	0	-100	0	230	101300000	1000	0	0	-1	0
7184683	6012	858	0	-100	0	230	101300000	1000	0	0	-1	0
7197243	6012	854	0	-100	0	230	101300000	1000	0	0	-1	0
7209803	6011	859	0	-100	0	230	101300000	1000	0	0	-1	0
7222363	6015	858	0	-100	0	230	101300000	1000	0	0	-1	0
7234923	6016	865	0	-100	0	230	101300000	1000	0	0	-1	0
7247483	6013	860	0	-100	0	230	101300000	1000	0	0	-1	0
7260043	6013	867	0	-100	0	230	101300000	1000	0	0	-1	0
7272603	6008	856	0	-100	0	230	101300000	1000	0	0	-1	0
7285163	6012	860	0	-100	0	230	101300000	1000	0	0	-1	0
7297723	6018	859	0	-100	0	230	101300000	1000	0	0	-1	0
7310283	6009	865	0	-100	0	230	101300000	1000	0	0	-1	0
7322843	6008	863	0	-100	0	230	101300000	1000	0	0	-1	0
7335403	6015	860	0	-100	0	230	101300000	1000	0	0	-1	0
7347963	6013	851	0	-100	0	230	101300000	1000	0	0	-1	0
7706235	5923	1187	0	-100	0	230	101300000	1000	0	0	-1	250
7718795	5924	1184	0	-100	0	230	101300000	1000	0	0	-1	250
7731355	5930	1174	0	-100	0	230	101300000	1000	0	0	-1	250
7743915	5931	1188	0	-100	0	230	101300000	1000	0	0	-1	250
7756475	5923	1187	0	-100	0	230	101300000	1000	0	0	-1	250
7769035	5925	1176	0	-100	0	230	101300000	1000	0	0	-1	250
7781595	5928	1177	0	-100	0	230	101300000	1000	0	0	-1	250
7794155	5928	1178	0	-100	0	230	101300000	1000	0	0	-1	250
7806715	5930	1188	0	-100	0	230	101300000	1000	0	0	-1	250
7819275	5927	1189	0	-100	0	230	101300000	1000	0	0	-1	250
7831835	5920	1179	0	-100	0	230	101300000	1000	0	0	-1	250
7844395	5927	1174	0	-100	0	230	101300000	1000	0	0	-1	250
7856955	5929	1176	0	-100	0	230	101300000	1000	0	0	-1	250
7869515	5929	1190	0	-100	0	230	101300000	1000	0	0	-1	250
7882075	5920	1186	0	-100	0	230	101300000	1000	0	0	-1	250
7894635	5921	1177	0	-100	0	230	101300000	1000	0	0	-1	250
7907195	5928	1179	0	-100	0	230	101300000	1000	0	0	-1	250
7919755	5931	1183	0	-100	0	230	101300000	1000	0	0	-1	250
7932315	5928	1191	0	-100	0	230	101300000	1000	0	0	-1	250
7944875	5927	1182	0	-100	0	230	101300000	1000	0	0	-1	250
7957435	5929	1180	0	-100	0	230	101300000	1000	0	0	-1	250
7969995	5928	1180	0	-100	0	230	101300000	1000	0	0	-1	250
7982555	5924	1182	0	-100	0	230	101300000	1000	0	0	-1	250
7995115	5924	1184	0	-100	0	230	101300000	1000	0	0	-1	250
8007675	5921	1185	0	-100	0	230	101300000	1000	0	0	-1	250
8020235	5923	1183	0	-100	0	230	101300000	1000	0	0	-1	250
8032795	5930	1180	0	-100	0	230	101300000	1000	0	0	-1	250
8045355	5930	1184	0	-100	0	230	101300000	1000	0	0	-1	250
8057915	5926	1187	0	-100	0	230	101300000	1000	0	0	-1	250
8070475	5924	1183	0	-100	0	230	101300000	1000	0	0	-1	250
8083035	5930	1179	0	-100	0	230	101300000	1000	0	0	-1	250
8095595	5932	1179	0	-100	0	230	101300000	1000	0	0	-1	250
8108155	5920	1180	0	-100	0	230	101300000	1000	0	0	-1	250
8120715	5919	1177	0	-100	0	230	101300000	1000	0	0	-1	250
8133275	5926	1185	0	-100	0	230	101300000	1000	0	0	-1	250
8145835	5928	1180	0	-100	0	230	101300000	1000	0	0	-1	250
8158395	5928	1171	0	-100	0	230	101300000	1000	0	0	-1	250
8170955	5924	1191	0	-100	0	230	101300000	1000	0	0	-1	250
8183515	5923	1185	0	-100	0	230	101300000	1000	0	0	-1	250
8196075	5930	1183	0	-100	0	230	101300000	1000	0	0	-1	250
8208635	5924	1176	0	-100	0	230	101300000	1000	0	0	-1	250
8221195	5924	1178	0	-100	0	230	101300000	1000	0	0	-1	250
8233755	5924	1184	0	-100	0	230	101300000	1000	0	0	-1	250
8246315	5917	1175	0	-100	0	230	101300000	1000	0	0	-1	250
8258875	5932	1173	0	-100	0	230	101300000	1000	0	0	-1	250
8271435	5924	1190	0	-100	0	230	101300000	1000	0	0	-1	250
8283995	5929	1180	0	-100	0	230	101300000	1000	0	0	-1	250
8296555	5926	1187	0	-100	0	230	101300000	1000	0	0	-1	250
8309115	5926	1189	0	-100	0	230	101300000	1000	0	0	-1	250
8321675	5921	1178	0	-100	0	230	101300000	1000	0	0	-1	250
8334235	5927	1179	0	-100	0	230	101300000	1000	0	0	-1	250
8346795	5923	1181	0	-100	0	230	101300000	1000	0	0	-1	250
8359355	5927	1181	0	-100	0	230	101300000	1000	0	0	-1	250
8371915	5923	1182	0	-100	0	230	101300000	1000	0	0	-1	250
8384475	5927	1182	0	-100	0	230	101300000	1000	0	0	-1	250
8397035	5928	1179	0	-100	0	230	101300000	1000	0	0	-1	250
8409595	5926	1183	0	-100	0	230	101300000	1000	0	0	-1	250
8422155	5922	1185	0	-100	0	230	101300000	1000	0	0	-1	250
8434715	5929	1183	0	-100	0	230	101300000	1000	0	0	-1	250
8447275	5932	1185	0	-100	0	230	101300000	1000	0	0	-1	250
8459835	5919	1187	0	-100	0	230	101300000	1000	0	0	-1	250
8472395	5917	1192	0	-100	0	230	101300000	1000	0	0	-1	250
8484955	5931	1182	0	-100	0	230	101300000	1000	0	0	-1	250
8497515	5924	1182	0	-100	0	230	101300000	1000	0	0	-1	250
8510075	5921	1171	0	-100	0	230	101300000	1000	0	0	-1	250
8522635	5928	1177	0	-100	0	230	101300000	1000	0	0	-1	250
8535195	5931	1190	0	-100	0	230	101300000	1000	0	0	-1	250
8547755	5924	1181	0	-100	0	230	101300000	1000	0	0	-1	250
8560315	5921	1179	0	-100	0	230	101300000	1000	0	0	-1	250
8572875	5932	1170	0	-100	0	230	101300000	1000	0	0	-1	250
8585435	5925	1178	0	-100	0	230	101300000	1000	0	0	-1	250
8597995	5925	1179	0	-100	0	230	101300000	1000	0	0	-1	250
8610555	5926	1182	0	-100	0	230	101300000	1000	0	0	-1	250
8623115	5928	1171	0	-100	0	230	101300000	1000	0	0	-1	250
8660795	5920	1185	0	-100	0	230	101300000	1000	0	0	-1	250
8673355	5929	1178	0	-100	0	230	101300000	1000	0	0	-1	250
8685915	5932	1182	0	-100	0	230	101300000	1000	0	0	-1	250
8698475	5927	1183	0	-100	0	230	101300000	1000	0	0	-1	250
8711035	5923	1187	0	-100	0	230	101300000	1000	0	0	-1	250
8723595	5923	1187	0	-100	0	230	101300000	1000	0	0	-1	250
8736155	5923	1187	0	-100	0	230	101300000	1000	0	0	-1	250
8748715	5926	1180	0	-100	0	230	101300000	1000	0	0	-1	250
8761275	5923	1182	0	-100	0	230	101300000	1000	0	0	-1	250
8773835	5924	1175	0	-100	0	230	101300000	1000	0	0	-1	250
8786395	5926	1175	0	-100	0	230	101300000	1000	0	0	-1	250
8836635	5928	1177	0	-100	0	230	101300000	1000	0	0	-1	250
8849195	5928	1178	0	-100	0	230	101300000	1000	0	0	-1	250
8861755	5931	1187	0	-100	0	230	101300000	1000	0	0	-1	250
8874315	5927	1186	0	-100	0	230	101300000	1000	0	0	-1	250
8886875	5925	1179	0	-100	0	230	101300000	1000	0	0	-1	250
8899435	5930	1182	0	-100	0	230	101300000	1000	0	0	-1	250
8911995	5927	1181	0	-100	0	230	101300000	1000	0	0	-1	250
8924555	5924	1180	0	-100	0	230	101300000	1000	0	0	-1	250
8937115	5920	1175	0	-100	0	230	101300000	1000	0	0	-1	250
8949675	5923	1177	0	-100	0	230	101300000	1000	0	0	-1	250
8962235	5924	1178	0	-100	0	230	101300000	1000	0	0	-1	250
8974795	5923	1180	0	-100	0	230	101300000	1000	0	0	-1	250
8987355	5925	1176	0	-100	0	230	101300000	1000	0	0	-1	250
8999915	5925	1180	0	-100	0	230	101300000	1000	0	0	-1	250
9012475	5926	1181	0	-100	0	230	101300000	1000	0	0	-1	250
9025035	5929	1188	0	-100	0	230	101300000	1000	0	0	-1	250
9037595	5926	1175	0	-100	0	230	101300000	1000	0	0	-1	250
9050155	5931	1182	0	-100	0	230	101300000	1000	0	0	-1	250
9062715	5932	1181	0	-100	0	230	101300000	1000	0	0	-1	250
9075275	5925	1176	0	-100	0	230	101300000	1000	0	0	-1	250
9087835	5924	1184	0	-100	0	230	101300000	1000	0	0	-1	250
9100395	5923	1183	0	-100	0	230	101300000	1000	0	0	-1	250
9112955	5923	1177	0	-100	0	230	101300000	1000	0	0	-1	250
9125515	5917	1167	0	-100	0	230	101300000	1000	0	0	-1	250
9138075	5923	1175	0	-100	0	230	101300000	1000	0	0	-1	250
9150635	5926	1180	0	-100	0	230	101300000	1000	0	0	-1	250
9163195	5932	1180	0	-100	0	230	101300000	1000	0	0	-1	250
9175755	5922	1183	0	-100	0	230	101300000	1000	0	0	-1	250
9188315	5924	1186	0	-100	0	230	101300000	1000	0	0	-1	250
9200875	5930	1179	0	-100	0	230	101300000	1000	0	0	-1	250
9213435	5924	1181	0	-100	0	230	101300000	1000	0	0	-1	250
9225995	5928	1178	0	-100	0	230	101300000	1000	0	0	-1	250
9238555	5923	1174	0	-100	0	230	101300000	1000	0	0	-1	250
9251115	5928	1179	0	-100	0	230	101300000	1000	0	0	-1	250
9263675	5931	1179	0	-100	0	230	101300000	1000	0	0	-1	250
9276235	5924	1182	0	-100	0	230	101300000	1000	0	0	-1	250
9288795	5925	1183	0	-100	0	230	101300000	1000	0	0	-1	250
9301355	5924	1178	0	-100	0	230	101300000	1000	0	0	-1	250
9313915	5929	1183	0	-100	0	230	101300000	1000	0	0	-1	250
9326475	5930	1185	0	-100	0	230	101300000	1000	0	0	-1	250
9339035	5928	1174	0	-100	0	230	101300000	1000	0	0	-1	250
9351595	5928	1180	0	-100	0	230	101300000	1000	0	0	-1	250
9364155	5924	1178	0	-100	0	230	101300000	1000	0	0	-1	250
9376715	5924	1182	0	-100	0	230	101300000	1000	0	0	-1	250
9389275	5920	1180	0	-100	0	230	101300000	1000	0	0	-1	250
9401835	5928	1175	0	-100	0	230	101300000	1000	0	0	-1	250
9414395	5928	1183	0	-100	0	230	101300000	1000	0	0	-1	250
9426955	5926	1185	0	-100	0	230	101300000	1000	0	0	-1	250
9439515	5928	1179	0	-100	0	230	101300000	1000	0	0	-1	250
9452075	5926	1177	0	-100	0	230	101300000	1000	0	0	-1	250
9464635	5924	1177	0	-100	0	230	101300000	1000	0	0	-1	250
9477195	5924	1181	0	-100	0	230	101300000	1000	0	0	-1	250
9489755	5919	1177	0	-100	0	230	101300000	1000	0	0	-1	250
9502315	5922	1179	0	-100	0	230	101300000	1000	0	0	-1	250
9514875	5930	1181	0	-100	0	230	101300000	1000	0	0	-1	250
9527435	5928	1176	0	-100	0	230	101300000	1000	0	0	-1	250
9539995	5924	1177	0	-100	0	230	101300000	1000	0	0	-1	250
9552555	5922	1184	0	-100	0	230	101300000	1000	0	0	-1	250
9565115	5919	1185	0	-100	0	230	101300000	1000	0	0	-1	250
9577675	5920	1181	0	-100	0	230	101300000	1000	0	0	-1	250
9590235	5926	1177	0	-100	0	230	101300000	1000	0	0	-1	250
9602795	5930	1181	0	-100	0	230	101300000	1000	0	0	-1	250
9615355	5925	1180	0	-100	0	230	101300000	1000	0	0	-1	250
9627915	5926	1177	0	-100	0	230	101300000	1000	0	0	-1	250
9640475	5927	1181	0	-100	0	230	101300000	1000	0	0	-1	250
9653035	5927	1184	0	-100	0	230	101300000	1000	0	0	-1	250
9665595	5923	1173	0	-100	0	230	101300000	1000	0	0	-1	250
9678155	5922	1179	0	-100	0	230	101300000	1000	0	0	-1	250
9690715	5928	1177	0	-100	0	230	101300000	1000	0	0	-1	250
9703275	5925	1178	0	-100	0	230	101300000	1000	0	0	-1	250
9715835	5924	1188	0	-100	0	230	101300000	1000	0	0	-1	250
9728395	5924	1172	0	-100	0	230	101300000	1000	0	0	-1	250
9740955	5931	1180	0	-100	0	230	101300000	1000	0	0	-1	250
9753515	5927	1185	0	-100	0	230	101300000	1000	0	0	-1	250
9766075	5927	1177	0	-100	0	230	101300000	1000	0	0	-1	250
9778635	5928	1179	0	-100	0	230	101300000	1000	0	0	-1	250
9791195	5923	1180	0	-100	0	230	101300000	1000	0	0	-1	250
9803755	5925	1180	0	-100	0	230	101300000	1000	0	0	-1	250
9816315	5925	1180	0	-100	0	230	101300000	1000	0	0	-1	250
9828875	5927	1180	0	-100	0	230	101300000	1000	0	0	-1	250
9841435	5926	1182	0	-100	0	230	101300000	1000	0	0	-1	250
9853995	5926	1182	0	-100	0	230	101300000	1000	0	0	-1	250
9866555	5932	1183	0	-100	0	230	101300000	1000	0	0	-1	250
9879115	5922	1181	0	-100	0	230	101300000	1000	0	0	-1	250
9891675	5921	1178	0	-100	0	230	101300000	1000	0	0	-1	250
9904235	5926	1183	0	-100	0	230	101300000	1000	0	0	-1	250
9916795	5917	1181	0	-100	0	230	101300000	1000	0	0	-1	250
9929355	5927	1177	0	-100	0	230	101300000	1000	0	0	-1	250
9941915	5923	1183	0	-100	0	230	101300000	1000	0	0	-1	250
9954475	5928	1179	0	-100	0	230	101300000	1000	0	0	-1	250
9967035	5929	1176	0	-100	0	230	101300000	1000	0	0	-1	250
9979595	5924	1182	0	-100	0	230	101300000	1000	0	0	-1	250
9992155	5929	1179	0	-100	0	230	101300000	1000	0	0	-1	250
10004715	5922	1184	0	-100	0	230	101300000	1000	0	0	-1	250
10017275	5924	1186	0	-100	0	230	101300000	1000	0	0	-1	250
10029835	5926	1175	0	-100	0	230	101300000	1000	0	0	-1	250
10042395	5928	1182	0	-100	0	230	101300000	1000	0	0	-1	250
10054955	5928	1180	0	-100	0	230	101300000	1000	0	0	-1	250
10067515	5927	1183	0	-100	0	230	101300000	1000	0	0	-1	250
10080075	5921	1181	0	-100	0	230	101300000	1000	0	0	-1	250
10092635	5928	1181	0	-100	0	230	101300000	1000	0	0	-1	250
10105195	5922	1178	0	-100	0	230	101300000	1000	0	0	-1	250
10117755	5920	1174	0	-100	0	230	101300000	1000	0	0	-1	250
10130315	5924	1184	0	-100	0	230	101300000	1000	0	0	-1	250
10142875	5923	1180	0	-100	0	230	101300000	1000	0	0	-1	250
10155435	5920	1183	0	-100	0	230	101300000	1000	0	0	-1	250
10167995	5924	1181	0	-100	0	230	101300000	1000	0	0	-1	250
10180555	5925	1179	0	-100	0	230	101300000	1000	0	0	-1	250
10193115	5928	1181	0	-100	0	230	101300000	1000	0	0	-1	250
10205675	5924	1181	0	-100	0	230	101300000	1000	0	0	-1	250
10218235	5931	1177	0	-100	0	230	101300000	1000	0	0	-1	250
10230795	5923	1181	0	-100	0	230	101300000	1000	0	0	-1	250
10243355	5921	1182	0	-100	0	230	101300000	1000	0	0	-1	250
10255915	5927	1177	0	-100	0	230	101300000	1000	0	0	-1	250
10268475	5926	1178	0	-100	0	230	101300000	1000	0	0	-1	250
10281035	5926	1185	0	-100	0	230	101300000	1000	0	0	-1	250
10293595	5925	1179	0	-100	0	230	101300000	1000	0	0	-1	250
10306155	5932	1178	0	-100	0	230	101300000	1000	0	0	-1	250
10318715	5924	1180	0	-100	0	230	101300000	1000	0	0	-1	250
10331275	5927	1178	0	-100	0	230	101300000	1000	0	0	-1	250
10343835	5934	1180	0	-100	0	230	101300000	1000	0	0	-1	250
10356395	5926	1182	0	-100	0	230	101300000	1000	0	0	-1	250
10368955	5928	1174	0	-100	0	230	101300000	1000	0	0	-1	250
10381515	5926	1182	0	-100	0	230	101300000	1000	0	0	-1	250
10394075	5922	1185	0	-100	0	230	101300000	1000	0	0	-1	250
10406635	5929	1184	0	-100	0	230	101300000	1000	0	0	-1	250
10419195	5925	1179	0	-100	0	230	101300000	1000	0	0	-1	250
10431755	5924	1184	0	-100	0	230	101300000	1000	0	0	-1	250
10444315	5922	1184	0	-100	0	230	101300000	1000	0	0	-1	250
10456875	5926	1181	0	-100	0	230	101300000	1000	0	0	-1	250
10469435	5924	1178	0	-100	0	230	101300000	1000	0	0	-1	250
10481995	5924	1182	0	-100	0	230	101300000	1000	0	0	-1	250
10494555	5917	1180	0	-100	0	230	101300000	1000	0	0	-1	250
10507115	5924	1179	0	-100	0	230	101300000	1000	0	0	-1	250
10519675	5926	1175	0	-100	0	230	101300000	1000	0	0	-1	250
10532235	5928	1179	0	-100	0	230	101300000	1000	0	0	-1	250
10544795	5923	1183	0	-100	0	230	101300000	1000	0	0	-1	250
10557355	5922	1180	0	-100	0	230	101300000	1000	0	0	-1	250
10569915	5928	1178	0	-100	0	230	101300000	1000	0	0	-1	250
10582475	5929	1179	0	-100	0	230	101300000	1000	0	0	-1	250
10595035	5924	1184	0	-100	0	230	101300000	1000	0	0	-1	250
10607595	5922	1177	0	-100	0	230	101300000	1000	0	0	-1	250
10620155	5929	1185	0	-100	0	230	101300000	1000	0	0	-1	250
10632715	5927	1181	0	-100	0	230	101300000	1000	0	0	-1	250
10645275	5924	1184	0	-100	0	230	101300000	1000	0	0	-1	250
10657835	5925	1190	0	-100	0	230	101300000	1000	0	0	-1	250
10670395	5924	1180	0	-100	0	230	101300000	1000	0	0	-1	250
10682955	5923	1184	0	-100	0	230	101300000	1000	0	0	-1	250
10695515	5926	1177	0	-100	0	230	101300000	1000	0	0	-1	250
10708075	5926	1173	0	-100	0	230	101300000	1000	0	0	-1	250
10720635	5931	1188	0	-100	0	230	101300000	1000	0	0	-1	250
10733195	5924	1180	0	-100	0	230	101300000	1000	0	0	-1	250
10745755	5923	1183	0	-100	0	230	101300000	1000	0	0	-1	250
10758315	5928	1185	0	-100	0	230	101300000	1000	0	0	-1	250
10770875	5930	1175	0	-100	0	230	101300000	1000	0	0	-1	250
10783435	5932	1184	0	-100	0	230	101300000	1000	0	0	-1	250
10795995	5923	1172	0	-100	0	230	101300000	1000	0	0	-1	250
10808555	5917	1179	0	-100	0	230	101300000	1000	0	0	-1	250
10821115	5926	1177	0	-100	0	230	101300000	1000	0	0	-1	250
10833675	5928	1187	0	-100	0	230	101300000	1000	0	0	-1	250
10846235	5924	1185	0	-100	0	230	101300000	1000	0	0	-1	250
10858795	5924	1180	0	-100	0	230	101300000	1000	0	0	-1	250
10871355	5924	1183	0	-100	0	230	101300000	1000	0	0	-1	250
10883915	5929	1187	0	-100	0	230	101300000	1000	0	0	-1	250
10896475	5929	1181	0	-100	0	230	101300000	1000	0	0	-1	250
10909035	5921	1178	0	-100	0	230	101300000	1000	0	0	-1	250
10921595	5928	1182	0	-100	0	230	101300000	1000	0	0	-1	250
10934155	5921	1179	0	-100	0	230	101300000	1000	0	0	-1	250
10946715	5927	1180	0	-100	0	230	101300000	1000	0	0	-1	250
10959275	5927	1177	0	-100	0	230	101300000	1000	0	0	-1	250
10971835	5928	1183	0	-100	0	230	101300000	1000	0	0	-1	250
10984395	5924	1177	0	-100	0	230	101300000	1000	0	0	-1	250
10996955	5924	1188	0	-100	0	230	101300000	1000	0	0	-1	250
11009515	5927	1182	0	-100	0	230	101300000	1000	0	0	-1	250
11022075	5925	1180	0	-100	0	230	101300000	1000	0	0	-1	250
11034635	5930	1180	0	-100	0	230	101300000	1000	0	0	-1	250
11047195	5928	1179	0	-100	0	230	101300000	1000	0	0	-1	250
11059755	5922	1184	0	-100	0	230	101300000	1000	0	0	-1	250
11072315	5927	1174	0	-100	0	230	101300000	1000	0	0	-1	250
11084875	5924	1175	0	-100	0	230	101300000	1000	0	0	-1	250
11097435	5928	1181	0	-100	0	230	101300000	1000	0	0	-1	250
11109995	5928	1183	0	-100	0	230	101300000	1000	0	0	-1	250
11122555	5921	1187	0	-100	0	230	101300000	1000	0	0	-1	250
11135115	5920	1178	0	-100	0	230	101300000	1000	0	0	-1	250
11147675	5924	1182	0	-100	0	230	101300000	1000	0	0	-1	250
11160235	5928	1180	0	-100	0	230	101300000	1000	0	0	-1	250
11172795	5929	1183	0	-100	0	230	101300000	1000	0	0	-1	250
11185355	5926	1186	0	-100	0	230	101300000	1000	0	0	-1	250
11197915	5927	1179	0	-100	0	230	101300000	1000	0	0	-1	250
11210475	5932	1180	0	-100	0	230	101300000	1000	0	0	-1	250
11223035	5924	1179	0	-100	0	230	101300000	1000	0	0	-1	250
11235595	5920	1179	0	-100	0	230	101300000	1000	0	0	-1	250
11248155	5919	1183	0	-100	0	230	101300000	1000	0	0	-1	250
11260715	5926	1178	0	-100	0	230	101300000	1000	0	0	-1	250
11273275	5931	1181	0	-100	0	230	101300000	1000	0	0	-1	250
11285835	5928	1180	0	-100	0	230	101300000	1000	0	0	-1	250
11298395	5928	1188	0	-100	0	230	101300000	1000	0	0	-1	250
11310955	5922	1173	0	-100	0	230	101300000	1000	0	0	-1	250
11323515	5924	1187	0	-100	0	230	101300000	1000	0	0	-1	250
11336075	5924	1180	0	-100	0	230	101300000	1000	0	0	-1	250
11348635	5925	1179	0	-100	0	230	101300000	1000	0	0	-1	250
11361195	5931	1183	0	-100	0	230	101300000	1000	0	0	-1	250
11373755	5923	1183	0	-100	0	230	101300000	1000	0	0	-1	250
11386315	5921	1180	0	-100	0	230	101300000	1000	0	0	-1	250
11398875	5924	1185	0	-100	0	230	101300000	1000	0	0	-1	250
11411435	5926	1182	0	-100	0	230	101300000	1000	0	0	-1	250
11423995	5929	1176	0	-100	0	230	101300000	1000	0	0	-1	250
11436555	5928	1179	0	-100	0	230	101300000	1000	0	0	-1	250
11449115	5924	1188	0	-100	0	230	101300000	1000	0	0	-1	250
11461675	5921	1179	0	-100	0	230	101300000	1000	0	0	-1	250
11474235	5928	1174	0	-100	0	230	101300000	1000	0	0	-1	250
11486795	5932	1179	0	-100	0	230	101300000	1000	0	0	-1	250
11499355	5923	1181	0	-100	0	230	101300000	1000	0	0	-1	250
11511915	5923	1180	0	-100	0	230	101300000	1000	0	0	-1	250
11524475	5932	1182	0	-100	0	230	101300000	1000	0	0	-1	250
11537035	5928	1178	0	-100	0	230	101300000	1000	0	0	-1	250
11549595	5928	1178	0	-100	0	230	101300000	1000	0	0	-1	250
11562155	5916	1176	0	-100	0	230	101300000	1000	0	0	-1	250
11574715	5927	1182	0	-100	0	230	101300000	1000	0	0	-1	250
11587275	5934	1180	0	-100	0	230	101300000	1000	0	0	-1	250
11599835	5920	1173	0	-100	0	230	101300000	1000	0	0	-1	250
11612395	5923	1171	0	-100	0	230	101300000	1000	0	0	-1	250
11624955	5929	1174	0	-100	0	230	101300000	1000	0	0	-1	250
11637515	5930	1174	0	-100	0	230	101300000	1000	0	0	-1	250
11650075	5924	1181	0	-100	0	230	101300000	1000	0	0	-1	250
11662635	5927	1179	0	-100	0	230	101300000	1000	0	0	-1	250
11675195	5923	1171	0	-100	0	230	101300000	1000	0	0	-1	250
11687755	5928	1171	0	-100	0	230	101300000	1000	0	0	-1	250
11700315	5923	1178	0	-100	0	230	101300000	1000	0	0	-1	250
11712875	5924	1181	0	-100	0	230	101300000	1000	0	0	-1	250
11725435	5923	1174	0	-100	0	230	101300000	1000	0	0	-1	250
11737995	5929	1181	0	-100	0	230	101300000	1000	0	0	-1	250
11750555	5931	1181	0	-100	0	230	101300000	1000	0	0	-1	250
11763115	5922	1181	0	-100	0	230	101300000	1000	0	0	-1	250
11775675	5924	1178	0	-100	0	230	101300000	1000	0	0	-1	250
11788235	5927	1175	0	-100	0	230	101300000	1000	0	0	-1	250
11800795	5928	1172	0	-100	0	230	101300000	1000	0	0	-1	250
11813355	5929	1177	0	-100	0	230	101300000	1000	0	0	-1	250
11825915	5930	1174	0	-100	0	230	101300000	1000	0	0	-1	250
11838475	5932	1181	0	-100	0	230	101300000	1000	0	0	-1	250
11851035	5927	1180	0	-100	0	230	101300000	1000	0	0	-1	250
11863595	5924	1184	0	-100	0	230	101300000	1000	0	0	-1	250
11876155	5923	1180	0	-100	0	230	101300000	1000	0	0	-1	250
11888715	5926	1173	0	-100	0	230	101300000	1000	0	0	-1	250
11901275	5926	1185	0	-100	0	230	101300000	1000	0	0	-1	250
11913835	5928	1170	0	-100	0	230	101300000	1000	0	0	-1	250
11926395	5926	1179	0	-100	0	230	101300000	1000	0	0	-1	250
11938955	5929	1176	0	-100	0	230	101300000	1000	0	0	-1	250
11951515	5924	1177	0	-100	0	230	101300000	1000	0	0	-1	250
11964075	5925	1179	0	-100	0	230	101300000	1000	0	0	-1	250
11976635	5926	1179	0	-100	0	230	101300000	1000	0	0	-1	250
11989195	5921	1176	0	-100	0	230	101300000	1000	0	0	-1	250
12001755	5922	1176	0	-100	0	230	101300000	1000	0	0	-1	250
12014315	5925	1174	0	-100	0	230	101300000	1000	0	0	-1	250
12026875	5930	1180	0	-100	0	230	101300000	1000	0	0	-1	250
12039435	5924	1183	0	-100	0	230	101300000	1000	0	0	-1	250
12051995	5920	1182	0	-100	0	230	101300000	1000	0	0	-1	250
12064555	5919	1183	0	-100	0	230	101300000	1000	0	0	-1	250
12077115	5922	1183	0	-100	0	230	101300000	1000	0	0	-1	250
12089675	5921	1181	0	-100	0	230	101300000	1000	0	0	-1	250
12102235	5919	1177	0	-100	0	230	101300000	1000	0	0	-1	250
12114795	5920	1179	0	-100	0	230	101300000	1000	0	0	-1	250
12127355	5919	1171	0	-100	0	230	101300000	1000	0	0	-1	250
12139915	5927	1178	0	-100	0	230	101300000	1000	0	0	-1	250
12152475	5927	1184	0	-100	0	230	101300000	1000	0	0	-1	250
12165035	5928	1181	0	-100	0	230	101300000	1000	0	0	-1	250
12177595	5927	1179	0	-100	0	230	101300000	1000	0	0	-1	250
12190155	5924	1181	0	-100	0	230	101300000	1000	0	0	-1	250
12202715	5926	1178	0	-100	0	230	101300000	1000	0	0	-1	250
12215275	5924	1178	0	-100	0	230	101300000	1000	0	0	-1	250
12227835	5926	1177	0	-100	0	230	101300000	1000	0	0	-1	250
12240395	5924	1180	0	-100	0	230	101300000	1000	0	0	-1	250
12252955	5928	1177	0	-100	0	230	101300000	1000	0	0	-1	250
12265515	5925	1179	0	-100	0	230	101300000	1000	0	0	-1	250
12278075	5929	1178	0	-100	0	230	101300000	1000	0	0	-1	250
12290635	5936	1174	0	-100	0	230	101300000	1000	0	0	-1	250
12303195	5927	1181	0	-100	0	230	101300000	1000	0	0	-1	250
12315755	5930	1178	0	-100	0	230	101300000	1000	0	0	-1	250
12328315	5928	1179	0	-100	0	230	101300000	1000	0	0	-1	250
12340875	5926	1180	0	-100	0	230	101300000	1000	0	0	-1	250
12353435	5928	1179	0	-100	0	230	101300000	1000	0	0	-1	250
12365995	5927	1181	0	-100	0	230	101300000	1000	0	0	-1	250
12378555	5928	1179	0	-100	0	230	101300000	1000	0	0	-1	250
12391115	5932	1179	0	-100	0	230	101300000	1000	0	0	-1	250
12403675	5926	1170	0	-100	0	230	101300000	1000	0	0	-1	250
12416235	5928	1171	0	-100	0	230	101300000	1000	0	0	-1	250
12428795	5928	1185	0	-100	0	230	101300000	1000	0	0	-1	250
12441355	5932	1178	0	-100	0	230	101300000	1000	0	0	-1	250
12453915	5932	1179	0	-100	0	230	101300000	1000	0	0	-1	250
12466475	5930	1174	0	-100	0	230	101300000	1000	0	0	-1	250
12479035	5932	1178	0	-100	0	230	101300000	1000	0	0	-1	250
12491595	5928	1174	0	-100	0	230	101300000	1000	0	0	-1	250
12504155	5928	1182	0	-100	0	230	101300000	1000	0	0	-1	250
12516715	5921	1172	0	-100	0	230	101300000	1000	0	0	-1	250
12529275	5920	1179	0	-100	0	230	101300000	1000	0	0	-1	250
12541835	5922	1173	0	-100	0	230	101300000	1000	0	0	-1	250
12554395	5923	1166	0	-100	0	230	101300000	1000	0	0	-1	250
12566955	5924	1183	0	-100	0	230	101300000	1000	0	0	-1	250
12579515	5924	1174	0	-100	0	230	101300000	1000	0	0	-1	250
12592075	5924	1181	0	-100	0	230	101300000	1000	0	0	-1	250
12604635	5925	1182	0	-100	0	230	101300000	1000	0	0	-1	250
12617195	5924	1180	0	-100	0	230	101300000	1000	0	0	-1	250
12629755	5924	1186	0	-100	0	230	101300000	1000	0	0	-1	250
12642315	5924	1182	0	-100	0	230	101300000	1000	0	0	-1	250
12654875	5923	1181	0	-100	0	230	101300000	1000	0	0	-1	250
12667435	5929	1180	0	-100	0	230	101300000	1000	0	0	-1	250
12679995	5936	1183	0	-100	0	230	101300000	1000	0	0	-1	250
12692555	5934	1166	0	-100	0	230	101300000	1000	0	0	-1	250
12705115	5930	1179	0	-100	0	230	101300000	1000	0	0	-1	250
12717675	5930	1170	0	-100	0	230	101300000	1000	0	0	-1	250
12730235	5928	1176	0	-100	0	230	101300000	1000	0	0	-1	250
12742795	5926	1178	0	-100	0	230	101300000	1000	0	0	-1	250
12755355	5928	1176	0	-100	0	230	101300000	1000	0	0	-1	250
12767915	5926	1176	0	-100	0	230	101300000	1000	0	0	-1	250
12780475	5928	1181	0	-100	0	230	101300000	1000	0	0	-1	250
12793035	5932	1174	0	-100	0	230	101300000	1000	0	0	-1	250
12805595	5926	1177	0	-100	0	230	101300000	1000	0	0	-1	250
12818155	5931	1177	0	-100	0	230	101300000	1000	0	0	-1	250
12830715	5926	1176	0	-100	0	230	101300000	1000	0	0	-1	250
12843275	5925	1178	0	-100	0	230	101300000	1000	0	0	-1	250
12855835	5925	1176	0	-100	0	230	101300000	1000	0	0	-1	250
12868395	5929	1178	0	-100	0	230	101300000	1000	0	0	-1	250
12880955	5925	1176	0	-100	0	230	101300000	1000	0	0	-1	250
12893515	5920	1185	0	-100	0	230	101300000	1000	0	0	-1	250
12906075	5924	1185	0	-100	0	230	101300000	1000	0	0	-1	250
12918635	5927	1180	0	-100	0	230	101300000	1000	0	0	-1	250
12931195	5924	1174	0	-100	0	230	101300000	1000	0	0	-1	250
12943755	5927	1180	0	-100	0	230	101300000	1000	0	0	-1	250
12956315	5928	1178	0	-100	0	230	101300000	1000	0	0	-1	250
12968875	5928	1175	0	-100	0	230	101300000	1000	0	0	-1	250
12981435	5928	1173	0	-100	0	230	101300000	1000	0	0	-1	250
12993995	5930	1183	0	-100	0	230	101300000	1000	0	0	-1	250
13006555	5932	1172	0	-100	0	230	101300000	1000	0	0	-1	250
13019115	5929	1179	0	-100	0	230	101300000	1000	0	0	-1	250
13031675	5932	1176	0	-100	0	230	101300000	1000	0	0	-1	250
13044235	5931	1172	0	-100	0	230	101300000	1000	0	0	-1	250
13056795	5935	1183	0	-100	0	230	101300000	1000	0	0	-1	250
13069355	5923	1182	0	-100	0	230	101300000	1000	0	0	-1	250
13081915	5922	1179	0	-100	0	230	101300000	1000	0	0	-1	250
13094475	5922	1189	0	-100	0	230	101300000	1000	0	0	-1	250
13107035	5922	1183	0	-100	0	230	101300000	1000	0	0	-1	250
13119595	5926	1183	0	-100	0	230	101300000	1000	0	0	-1	250
13132155	5928	1177	0	-100	0	230	101300000	1000	0	0	-1	250
13144715	5928	1183	0	-100	0	230	101300000	1000	0	0	-1	250
13157275	5923	1179	0	-100	0	230	101300000	1000	0	0	-1	250
13169835	5925	1179	0	-100	0	230	101300000	1000	0	0	-1	250
13182395	5924	1180	0	-100	0	230	101300000	1000	0	0	-1	250
13194955	5930	1182	0	-100	0	230	101300000	1000	0	0	-1	250
13207515	5924	1176	0	-100	0	230	101300000	1000	0	0	-1	250
13220075	5923	1183	0	-100	0	230	101300000	1000	0	0	-1	250
13232635	5924	1172	0	-100	0	230	101300000	1000	0	0	-1	250
13245195	5930	1179	0	-100	0	230	101300000	1000	0	0	-1	250
13257755	5927	1174	0	-100	0	230	101300000	1000	0	0	-1	250
13270315	5926	1179	0	-100	0	230	101300000	1000	0	0	-1	250
13282875	5923	1182	0	-100	0	230	101300000	1000	0	0	-1	250
13295435	5924	1175	0	-100	0	230	101300000	1000	0	0	-1	250
13307995	5926	1172	0	-100	0	230	101300000	1000	0	0	-1	250
13320555	5925	1176	0	-100	0	230	101300000	1000	0	0	-1	250
13333115	5926	1189	0	-100	0	230	101300000	1000	0	0	-1	250
13345675	5924	1177	0	-100	0	230	101300000	1000	0	0	-1	250
13358235	5930	1185	0	-100	0	230	101300000	1000	0	0	-1	250
13370795	5928	1179	0	-100	0	230	101300000	1000	0	0	-1	250
13383355	5926	1176	0	-100	0	230	101300000	1000	0	0	-1	250
13395915	5922	1181	0	-100	0	230	101300000	1000	0	0	-1	250
13408475	5926	1185	0	-100	0	230	101300000	1000	0	0	-1	250
13421035	5925	1173	0	-100	0	230	101300000	1000	0	0	-1	250
13433595	5932	1179	0	-100	0	230	101300000	1000	0	0	-1	250
13446155	5930	1174	0	-100	0	230	101300000	1000	0	0	-1	250
13458715	5934	1175	0	-100	0	230	101300000	1000	0	0	-1	250
13471275	5927	1176	0	-100	0	230	101300000	1000	0	0	-1	250
13483835	5933	1185	0	-100	0	230	101300000	1000	0	0	-1	250
13496395	5928	1173	0	-100	0	230	101300000	1000	0	0	-1	250
13508955	5928	1177	0	-100	0	230	101300000	1000	0	0	-1	250
13521515	5932	1178	0	-100	0	230	101300000	1000	0	0	-1	250
13534075	5931	1176	0	-100	0	230	101300000	1000	0	0	-1	250
13546635	5927	1179	0	-100	0	230	101300000	1000	0	0	-1	250
13559195	5928	1183	0	-100	0	230	101300000	1000	0	0	-1	250
13571755	5932	1176	0	-100	0	230	101300000	1000	0	0	-1	250
13584315	5930	1180	0	-100	0	230	101300000	1000	0	0	-1	250
13596875	5936	1179	0	-100	0	230	101300000	1000	0	0	-1	250
13609435	5932	1184	0	-100	0	230	101300000	1000	0	0	-1	250
13621995	5930	1180	0	-100	0	230	101300000	1000	0	0	-1	250
13634555	5928	1175	0	-100	0	230	101300000	1000	0	0	-1	250
13647115	5932	1176	0	-100	0	230	101300000	1000	0	0	-1	250
13659675	5930	1178	0	-100	0	230	101300000	1000	0	0	-1	250
13672235	5926	1175	0	-100	0	230	101300000	1000	0	0	-1	250
13684795	5925	1172	0	-100	0	230	101300000	1000	0	0	-1	250
13697355	5920	1174	0	-100	0	230	101300000	1000	0	0	-1	250
13709915	5922	1179	0	-100	0	230	101300000	1000	0	0	-1	250
13722475	5923	1179	0	-100	0	230	101300000	1000	0	0	-1	250
13735035	5923	1187	0	-100	0	230	101300000	1000	0	0	-1	250
13747595	5917	1180	0	-100	0	230	101300000	1000	0	0	-1	250
13760155	5919	1173	0	-100	0	230	101300000	1000	0	0	-1	250
13772715	5924	1183	0	-100	0	230	101300000	1000	0	0	-1	250
13785275	5924	1182	0	-100	0	230	101300000	1000	0	0	-1	250
13797835	5924	1176	0	-100	0	230	101300000	1000	0	0	-1	250
13810395	5926	1182	0	-100	0	230	101300000	1000	0	0	-1	250
13822955	5924	1186	0	-100	0	230	101300000	1000	0	0	-1	250
13835515	5924	1180	0	-100	0	230	101300000	1000	0	0	-1	250
13848075	5926	1183	0	-100	0	230	101300000	1000	0	0	-1	250
13860635	5924	1178	0	-100	0	230	101300000	1000	0	0	-1	250
13873195	5930	1177	0	-100	0	230	101300000	1000	0	0	-1	250
13885755	5925	1175	0	-100	0	230	101300000	1000	0	0	-1	250
13898315	5933	1176	0	-100	0	230	101300000	1000	0	0	-1	250
13910875	5924	1176	0	-100	0	230	101300000	1000	0	0	-1	250
13923435	5926	1182	0	-100	0	230	101300000	1000	0	0	-1	250
13935995	5924	1173	0	-100	0	230	101300000	1000	0	0	-1	250
13948555	5921	1181	0	-100	0	230	101300000	1000	0	0	-1	250
13961115	5926	1177	0	-100	0	230	101300000	1000	0	0	-1	250
13973675	5926	1176	0	-100	0	230	101300000	1000	0	0	-1	250
13986235	5928	1173	0	-100	0	230	101300000	1000	0	0	-1	250
13998795	5928	1186	0	-100	0	230	101300000	1000	0	0	-1	250
14011355	5932	1176	0	-100	0	230	101300000	1000	0	0	-1	250
14023915	5931	1177	0	-100	0	230	101300000	1000	0	0	-1	250
14036475	5927	1174	0	-100	0	230	101300000	1000	0	0	-1	250
14049035	5928	1170	0	-100	0	230	101300000	1000	0	0	-1	250
14061595	5928	1185	0	-100	0	230	101300000	1000	0	0	-1	250
14074155	5931	1180	0	-100	0	230	101300000	1000	0	0	-1	250
14086715	5928	1178	0	-100	0	230	101300000	1000	0	0	-1	250
14099275	5925	1174	0	-100	0	230	101300000	1000	0	0	-1	250
14111835	5922	1176	0	-100	0	230	101300000	1000	0	0	-1	250
14124395	5919	1175	0	-100	0	230	101300000	1000	0	0	-1	250
14136955	5923	1179	0	-100	0	230	101300000	1000	0	0	-1	250
14149515	5923	1174	0	-100	0	230	101300000	1000	0	0	-1	250
14162075	5920	1179	0	-100	0	230	101300000	1000	0	0	-1	250
14174635	5920	1184	0	-100	0	230	101300000	1000	0	0	-1	250
14187195	5925	1179	0	-100	0	230	101300000	1000	0	0	-1	250
14199755	5929	1173	0	-100	0	230	101300000	1000	0	0	-1	250
14212315	5929	1179	0	-100	0	230	101300000	1000	0	0	-1	250
14237435	5931	1167	0	-100	0	230	101300000	1000	0	0	-1	250
14249995	5928	1181	0	-100	0	230	101300000	1000	0	0	-1	250
14262555	5930	1176	0	-100	0	230	101300000	1000	0	0	-1	250
14275115	5930	1184	0	-100	0	230	101300000	1000	0	0	-1	250
14287675	5932	1175	0	-100	0	230	101300000	1000	0	0	-1	250
14300235	5928	1176	0	-100	0	230	101300000	1000	0	0	-1	250
14312795	5928	1181	0	-100	0	230	101300000	1000	0	0	-1	250
14325355	5929	1182	0	-100	0	230	101300000	1000	0	0	-1	250
14337915	5923	1179	0	-100	0	230	101300000	1000	0	0	-1	250
14350475	5928	1175	0	-100	0	230	101300000	1000	0	0	-1	250
14363035	5927	1176	0	-100	0	230	101300000	1000	0	0	-1	250
14375595	5930	1180	0	-100	0	230	101300000	1000	0	0	-1	250
14463515	5927	1177	0	-100	0	230	101300000	1000	0	0	-1	250
14476075	5929	1176	0	-100	0	230	101300000	1000	0	0	-1	250
14488635	5927	1182	0	-100	0	230	101300000	1000	0	0	-1	250
14501195	5924	1181	0	-100	0	230	101300000	1000	0	0	-1	250
14513755	5934	1172	0	-100	0	230	101300000	1000	0	0	-1	250
14526315	5927	1181	0	-100	0	230	101300000	1000	0	0	-1	250
14538875	5923	1180	0	-100	0	230	101300000	1000	0	0	-1	250
14551435	5927	1184	0	-100	0	230	101300000	1000	0	0	-1	250
14563995	5930	1179	0	-100	0	230	101300000	1000	0	0	-1	250
14576555	5923	1183	0	-100	0	230	101300000	1000	0	0	-1	250
14589115	5935	1176	0	-100	0	230	101300000	1000	0	0	-1	250
14601675	5927	1178	0	-100	0	230	101300000	1000	0	0	-1	250
14614235	5925	1174	0	-100	0	230	101300000	1000	0	0	-1	250
14626795	5924	1177	0	-100	0	230	101300000	1000	0	0	-1	250
14639355	5930	1174	0	-100	0	230	101300000	1000	0	0	-1	250
14651915	5924	1180	0	-100	0	230	101300000	1000	0	0	-1	250
14664475	5925	1183	0	-100	0	230	101300000	1000	0	0	-1	250
14677035	5925	1185	0	-100	0	230	101300000	1000	0	0	-1	250
14689595	5928	1176	0	-100	0	230	101300000	1000	0	0	-1	250
14702155	5927	1180	0	-100	0	230	101300000	1000	0	0	-1	250
14714715	5929	1180	0	-100	0	230	101300000	1000	0	0	-1	250
14727275	5924	1178	0	-100	0	230	101300000	1000	0	0	-1	250
14739835	5921	1181	0	-100	0	230	101300000	1000	0	0	-1	250
14752395	5925	1166	0	-100	0	230	101300000	1000	0	0	-1	250
14764955	5924	1184	0	-100	0	230	101300000	1000	0	0	-1	250
14777515	5923	1179	0	-100	0	230	101300000	1000	0	0	-1	250
14790075	5927	1186	0	-100	0	230	101300000	1000	0	0	-1	250
14802635	5924	1177	0	-100	0	230	101300000	1000	0	0	-1	250
14815195	5924	1180	0	-100	0	230	101300000	1000	0	0	-1	250
14827755	5924	1176	0	-100	0	230	101300000	1000	0	0	-1	250
14840315	5920	1184	0	-100	0	230	101300000	1000	0	0	-1	250
14852875	5923	1180	0	-100	0	230	101300000	1000	0	0	-1	250
14865435	5931	1182	0	-100	0	230	101300000	1000	0	0	-1	250
14877995	5932	1174	0	-100	0	230	101300000	1000	0	0	-1	250
14890555	5929	1172	0	-100	0	230	101300000	1000	0	0	-1	250
14903115	5929	1179	0	-100	0	230	101300000	1000	0	0	-1	250
14915675	5925	1179	0	-100	0	230	101300000	1000	0	0	-1	250
14928235	5924	1180	0	-100	0	230	101300000	1000	0	0	-1	250
14940795	5927	1178	0	-100	0	230	101300000	1000	0	0	-1	250
14953355	5927	1180	0	-100	0	230	101300000	1000	0	0	-1	250
14965915	5924	1179	0	-100	0	230	101300000	1000	0	0	-1	250
14978475	5924	1186	0	-100	0	230	101300000	1000	0	0	-1	250
14991035	5923	1179	0	-100	0	230	101300000	1000	0	0	-1	250
15003595	5923	1178	0	-100	0	230	101300000	1000	0	0	-1	250
15016155	5925	1186	0	-100	0	230	101300000	1000	0	0	-1	250
15028715	5924	1176	0	-100	0	230	101300000	1000	0	0	-1	250
15041275	5927	1173	0	-100	0	230	101300000	1000	0	0	-1	250
15053835	5931	1180	0	-100	0	230	101300000	1000	0	0	-1	250
15066395	5932	1173	0	-100	0	230	101300000	1000	0	0	-1	250
15078955	5929	1175	0	-100	0	230	101300000	1000	0	0	-1	250
15091515	5928	1179	0	-100	0	230	101300000	1000	0	0	-1	250
15104075	5926	1173	0	-100	0	230	101300000	1000	0	0	-1	250
15116635	5924	1180	0	-100	0	230	101300000	1000	0	0	-1	250
15129195	5921	1177	0	-100	0	230	101300000	1000	0	0	-1	250
15141755	5924	1180	0	-100	0	230	101300000	1000	0	0	-1	250
15154315	5928	1180	0	-100	0	230	101300000	1000	0	0	-1	250
15166875	5920	1183	0	-100	0	230	101300000	1000	0	0	-1	250
15179435	5924	1180	0	-100	0	230	101300000	1000	0	0	-1	250
15191995	5923	1180	0	-100	0	230	101300000	1000	0	0	-1	250
15204555	5924	1180	0	-100	0	230	101300000	1000	0	0	-1	250
15217115	5926	1182	0	-100	0	230	101300000	1000	0	0	-1	250
15229675	5930	1182	0	-100	0	230	101300000	1000	0	0	-1	250
15242235	5928	1173	0	-100	0	230	101300000	1000	0	0	-1	250
15254795	5934	1168	0	-100	0	230	101300000	1000	0	0	-1	250
15267355	5932	1169	0	-100	0	230	101300000	1000	0	0	-1	250
15279915	5934	1171	0	-100	0	230	101300000	1000	0	0	-1	250
15292475	5928	1174	0	-100	0	230	101300000	1000	0	0	-1	250
15305035	5925	1182	0	-100	0	230	101300000	1000	0	0	-1	250
15317595	5925	1182	0	-100	0	230	101300000	1000	0	0	-1	250
15330155	5924	1180	0	-100	0	230	101300000	1000	0	0	-1	250
15342715	5925	1182	0	-100	0	230	101300000	1000	0	0	-1	250
15355275	5932	1177	0	-100	0	230	101300000	1000	0	0	-1	250
15367835	5931	1181	0	-100	0	230	101300000	1000	0	0	-1	250
15380395	5930	1179	0	-100	0	230	101300000	1000	0	0	-1	250
15392955	5924	1181	0	-100	0	230	101300000	1000	0	0	-1	250
15405515	5924	1181	0	-100	0	230	101300000	1000	0	0	-1	250
15418075	5922	1180	0	-100	0	230	101300000	1000	0	0	-1	250
15430635	5924	1178	0	-100	0	230	101300000	1000	0	0	-1	250
15443195	5927	1175	0	-100	0	230	101300000	1000	0	0	-1	250
15455755	5927	1181	0	-100	0	230	101300000	1000	0	0	-1	250
15468315	5927	1174	0	-100	0	230	101300000	1000	0	0	-1	250
15480875	5920	1181	0	-100	0	230	101300000	1000	0	0	-1	250
15493435	5922	1177	0	-100	0	230	101300000	1000	0	0	-1	250
15505995	5924	1177	0	-100	0	230	101300000	1000	0	0	-1	250
15518555	5928	1177	0	-100	0	230	101300000	1000	0	0	-1	250
15531115	5924	1180	0	-100	0	230	101300000	1000	0	0	-1	250
15543675	5922	1183	0	-100	0	230	101300000	1000	0	0	-1	250
15556235	5921	1175	0	-100	0	230	101300000	1000	0	0	-1	250
15568795	5923	1178	0	-100	0	230	101300000	1000	0	0	-1	250
15581355	5927	1180	0	-100	0	230	101300000	1000	0	0	-1	250
15593915	5931	1177	0	-100	0	230	101300000	1000	0	0	-1	250
15606475	5932	1182	0	-100	0	230	101300000	1000	0	0	-1	250
15619035	5929	1180	0	-100	0	230	101300000	1000	0	0	-1	250
15631595	5934	1185	0	-100	0	230	101300000	1000	0	0	-1	250
15644155	5931	1179	0	-100	0	230	101300000	1000	0	0	-1	250
15656715	5926	1180	0	-100	0	230	101300000	1000	0	0	-1	250
15669275	5924	1180	0	-100	0	230	101300000	1000	0	0	-1	250
15681835	5924	1181	0	-100	0	230	101300000	1000	0	0	-1	250
15694395	5926	1179	0	-100	0	230	101300000	1000	0	0	-1	250
15706955	5926	1178	0	-100	0	230	101300000	1000	0	0	-1	250
15719515	5928	1173	0	-100	0	230	101300000	1000	0	0	-1	250
15732075	5922	1175	0	-100	0	230	101300000	1000	0	0	-1	250
15744635	5921	1181	0	-100	0	230	101300000	1000	0	0	-1	250
15757195	5926	1182	0	-100	0	230	101300000	1000	0	0	-1	250
15769755	5921	1172	0	-100	0	230	101300000	1000	0	0	-1	250
15782315	5927	1176	0	-100	0	230	101300000	1000	0	0	-1	250
15794875	5923	1176	0	-100	0	230	101300000	1000	0	0	-1	250
15807435	5925	1170	0	-100	0	230	101300000	1000	0	0	-1	250
15819995	5927	1181	0	-100	0	230	101300000	1000	0	0	-1	250
15832555	5930	1171	0	-100	0	230	101300000	1000	0	0	-1	250
15845115	5932	1179	0	-100	0	230	101300000	1000	0	0	-1	250
15857675	5929	1184	0	-100	0	230	101300000	1000	0	0	-1	250
15870235	5926	1182	0	-100	0	230	101300000	1000	0	0	-1	250
15882795	5928	1182	0	-100	0	230	101300000	1000	0	0	-1	250
15895355	5930	1177	0	-100	0	230	101300000	1000	0	0	-1	250
15907915	5929	1171	0	-100	0	230	101300000	1000	0	0	-1	250
15920475	5927	1181	0	-100	0	230	101300000	1000	0	0	-1	250
15933035	5928	1177	0	-100	0	230	101300000	1000	0	0	-1	250
15945595	5930	1174	0	-100	0	230	101300000	1000	0	0	-1	250
15958155	5927	1174	0	-100	0	230	101300000	1000	0	0	-1	250
15970715	5932	1185	0	-100	0	230	101300000	1000	0	0	-1	250
15983275	5928	1175	0	-100	0	230	101300000	1000	0	0	-1	250
15995835	5930	1174	0	-100	0	230	101300000	1000	0	0	-1	250
16008395	5928	1173	0	-100	0	230	101300000	1000	0	0	-1	250
16020955	5926	1176	0	-100	0	230	101300000	1000	0	0	-1	250
16033515	5926	1179	0	-100	0	230	101300000	1000	0	0	-1	250
16046075	5930	1179	0	-100	0	230	101300000	1000	0	0	-1	250
16058635	5924	1175	0	-100	0	230	101300000	1000	0	0	-1	250
16071195	5924	1173	0	-100	0	230	101300000	1000	0	0	-1	250
16083755	5926	1182	0	-100	0	230	101300000	1000	0	0	-1	250
16096315	5925	1170	0	-100	0	230	101300000	1000	0	0	-1	250
16108875	5924	1178	0	-100	0	230	101300000	1000	0	0	-1	250
16121435	5920	1170	0	-100	0	230	101300000	1000	0	0	-1	250
16133995	5923	1177	0	-100	0	230	101300000	1000	0	0	-1	250
16146555	5925	1173	0	-100	0	230	101300000	1000	0	0	-1	250
16159115	5927	1172	0	-100	0	230	101300000	1000	0	0	-1	250
16171675	5926	1173	0	-100	0	230	101300000	1000	0	0	-1	250
16184235	5926	1178	0	-100	0	230	101300000	1000	0	0	-1	250
16196795	5925	1178	0	-100	0	230	101300000	1000	0	0	-1	250
16209355	5925	1175	0	-100	0	230	101300000	1000	0	0	-1	250
16221915	5924	1178	0	-100	0	230	101300000	1000	0	0	-1	250
16234475	5920	1178	0	-100	0	230	101300000	1000	0	0	-1	250
16247035	5927	1180	0	-100	0	230	101300000	1000	0	0	-1	250
16259595	5933	1179	0	-100	0	230	101300000	1000	0	0	-1	250
16272155	5930	1182	0	-100	0	230	101300000	1000	0	0	-1	250
16284715	5929	1174	0	-100	0	230	101300000	1000	0	0	-1	250
16297275	5925	1169	0	-100	0	230	101300000	1000	0	0	-1	250
16309835	5924	1179	0	-100	0	230	101300000	1000	0	0	-1	250
16322395	5924	1179	0	-100	0	230	101300000	1000	0	0	-1	250
16334955	5919	1176	0	-100	0	230	101300000	1000	0	0	-1	250
16347515	5924	1176	0	-100	0	230	101300000	1000	0	0	-1	250
16360075	5925	1179	0	-100	0	230	101300000	1000	0	0	-1	250
16372635	5923	1177	0	-100	0	230	101300000	1000	0	0	-1	250
16385195	5924	1177	0	-100	0	230	101300000	1000	0	0	-1	250
16397755	5927	1172	0	-100	0	230	101300000	1000	0	0	-1	250
16410315	5931	1178	0	-100	0	230	101300000	1000	0	0	-1	250
16422875	5928	1173	0	-100	0	230	101300000	1000	0	0	-1	250
16435435	5923	1175	0	-100	0	230	101300000	1000	0	0	-1	250
16447995	5923	1175	0	-100	0	230	101300000	1000	0	0	-1	250
16460555	5924	1177	0	-100	0	230	101300000	1000	0	0	-1	250
16473115	5924	1176	0	-100	0	230	101300000	1000	0	0	-1	250
16485675	5931	1179	0	-100	0	230	101300000	1000	0	0	-1	250
16498235	5928	1178	0	-100	0	230	101300000	1000	0	0	-1	250
16510795	5927	1180	0	-100	0	230	101300000	1000	0	0	-1	250
16523355	5924	1172	0	-100	0	230	101300000	1000	0	0	-1	250
16535915	5924	1180	0	-100	0	230	101300000	1000	0	0	-1	250
16548475	5924	1176	0	-100	0	230	101300000	1000	0	0	-1	250
16561035	5925	1177	0	-100	0	230	101300000	1000	0	0	-1	250
16573595	5930	1181	0	-100	0	230	101300000	1000	0	0	-1	250
16586155	5927	1176	0	-100	0	230	101300000	1000	0	0	-1	250
16598715	5925	1173	0	-100	0	230	101300000	1000	0	0	-1	250
16611275	5924	1169	0	-100	0	230	101300000	1000	0	0	-1	250
16623835	5926	1182	0	-100	0	230	101300000	1000	0	0	-1	250
16636395	5925	1178	0	-100	0	230	101300000	1000	0	0	-1	250
16648955	5928	1174	0	-100	0	230	101300000	1000	0	0	-1	250
16661515	5936	1180	0	-100	0	230	101300000	1000	0	0	-1	250
16674075	5924	1179	0	-100	0	230	101300000	1000	0	0	-1	250
16686635	5923	1183	0	-100	0	230	101300000	1000	0	0	-1	250
16699195	5924	1182	0	-100	0	230	101300000	1000	0	0	-1	250
16711755	5927	1180	0	-100	0	230	101300000	1000	0	0	-1	250
16724315	5926	1176	0	-100	0	230	101300000	1000	0	0	-1	250
16736875	5932	1177	0	-100	0	230	101300000	1000	0	0	-1	250
16749435	5932	1170	0	-100	0	230	101300000	1000	0	0	-1	250
16761995	5928	1174	0	-100	0	230	101300000	1000	0	0	-1	250
16774555	5920	1183	0	-100	0	230	101300000	1000	0	0	-1	250
16787115	5926	1179	0	-100	0	230	101300000	1000	0	0	-1	250
16799675	5925	1183	0	-100	0	230	101300000	1000	0	0	-1	250
16812235	5926	1177	0	-100	0	230	101300000	1000	0	0	-1	250
16824795	5923	1183	0	-100	0	230	101300000	1000	0	0	-1	250
16837355	5926	1176	0	-100	0	230	101300000	1000	0	0	-1	250
16849915	5932	1177	0	-100	0	230	101300000	1000	0	0	-1	250
16862475	5928	1169	0	-100	0	230	101300000	1000	0	0	-1	250
16875035	5926	1176	0	-100	0	230	101300000	1000	0	0	-1	250
16887595	5920	1175	0	-100	0	230	101300000	1000	0	0	-1	250
16900155	5925	1181	0	-100	0	230	101300000	1000	0	0	-1	250
16912715	5932	1172	0	-100	0	230	101300000	1000	0	0	-1	250
16925275	5926	1178	0	-100	0	230	101300000	1000	0	0	-1	250
16937835	5920	1180	0	-100	0	230	101300000	1000	0	0	-1	250
16950395	5926	1174	0	-100	0	230	101300000	1000	0	0	-1	250
16962955	5924	1175	0	-100	0	230	101300000	1000	0	0	-1	250
16975515	5931	1179	0	-100	0	230	101300000	1000	0	0	-1	250
16988075	5930	1175	0	-100	0	230	101300000	1000	0	0	-1	250
17000635	5926	1167	0	-100	0	230	101300000	1000	0	0	-1	250
17013195	5921	1177	0	-100	0	230	101300000	1000	0	0	-1	250
17025755	5924	1180	0	-100	0	230	101300000	1000	0	0	-1	250
17038315	5926	1175	0	-100	0	230	101300000	1000	0	0	-1	250
17050875	5929	1179	0	-100	0	230	101300000	1000	0	0	-1	250
17063435	5921	1179	0	-100	0	230	101300000	1000	0	0	-1	250
17075995	5920	1171	0	-100	0	230	101300000	1000	0	0	-1	250
17088555	5920	1179	0	-100	0	230	101300000	1000	0	0	-1	250
17101115	5923	1181	0	-100	0	230	101300000	1000	0	0	-1	250
17113675	5924	1171	0	-100	0	230	101300000	1000	0	0	-1	250
17126235	5931	1178	0	-100	0	230	101300000	1000	0	0	-1	250
17176475	5923	1174	0	-100	0	230	101300000	1000	0	0	-1	250
17189035	5927	1185	0	-100	0	230	101300000	1000	0	0	-1	250
17201595	5925	1182	0	-100	0	230	101300000	1000	0	0	-1	250
17214155	5922	1183	0	-100	0	230	101300000	1000	0	0	-1	250
17226715	5930	1176	0	-100	0	230	101300000	1000	0	0	-1	250
17239275	5929	1179	0	-100	0	230	101300000	1000	0	0	-1	250
17251835	5924	1176	0	-100	0	230	101300000	1000	0	0	-1	250
17264395	5921	1179	0	-100	0	230	101300000	1000	0	0	-1	250
17276955	5923	1179	0	-100	0	230	101300000	1000	0	0	-1	250
17289515	5929	1174	0	-100	0	230	101300000	1000	0	0	-1	250
17302075	5928	1170	0	-100	0	230	101300000	1000	0	0	-1	250
17389995	5931	1179	0	-100	0	230	101300000	1000	0	0	-1	250
17402555	5919	1173	0	-100	0	230	101300000	1000	0	0	-1	250
17415115	5928	1182	0	-100	0	230	101300000	1000	0	0	-1	250
17427675	5923	1183	0	-100	0	230	101300000	1000	0	0	-1	250
17440235	5926	1179	0	-100	0	230	101300000	1000	0	0	-1	250
17452795	5923	1170	0	-100	0	230	101300000	1000	0	0	-1	250
17465355	5923	1179	0	-100	0	230	101300000	1000	0	0	-1	250
17477915	5925	1179	0	-100	0	230	101300000	1000	0	0	-1	250
17490475	5926	1177	0	-100	0	230	101300000	1000	0	0	-1	250
17503035	5929	1176	0	-100	0	230	101300000	1000	0	0	-1	250
17515595	5927	1176	0	-100	0	230	101300000	1000	0	0	-1	250
17553275	5928	1177	0	-100	0	230	101300000	1000	0	0	-1	250
17565835	5928	1174	0	-100	0	230	101300000	1000	0	0	-1	250
17578395	5919	1173	0	-100	0	230	101300000	1000	0	0	-1	250
17590955	5922	1177	0	-100	0	230	101300000	1000	0	0	-1	250
17603515	5932	1180	0	-100	0	230	101300000	1000	0	0	-1	250
17616075	5930	1179	0	-100	0	230	101300000	1000	0	0	-1	250
17628635	5924	1180	0	-100	0	230	101300000	1000	0	0	-1	250
17641195	5922	1184	0	-100	0	230	101300000	1000	0	0	-1	250
17653755	5922	1177	0	-100	0	230	101300000	1000	0	0	-1	250
17666315	5930	1183	0	-100	0	230	101300000	1000	0	0	-1	250
17678875	5928	1181	0	-100	0	230	101300000	1000	0	0	-1	250
17691435	5927	1179	0	-100	0	230	101300000	1000	0	0	-1	250
17703995	5924	1178	0	-100	0	230	101300000	1000	0	0	-1	250
17716555	5927	1181	0	-100	0	230	101300000	1000	0	0	-1	250
17729115	5920	1180	0	-100	0	230	101300000	1000	0	0	-1	250
17741675	5923	1179	0	-100	0	230	101300000	1000	0	0	-1	250
17754235	5927	1179	0	-100	0	230	101300000	1000	0	0	-1	250
17766795	5927	1179	0	-100	0	230	101300000	1000	0	0	-1	250
17779355	5928	1176	0	-100	0	230	101300000	1000	0	0	-1	250
17791915	5925	1171	0	-100	0	230	101300000	1000	0	0	-1	250
17804475	5923	1177	0	-100	0	230	101300000	1000	0	0	-1	250
17817035	5928	1178	0	-100	0	230	101300000	1000	0	0	-1	250
17829595	5932	1176	0	-100	0	230	101300000	1000	0	0	-1	250
17842155	5924	1172	0	-100	0	230	101300000	1000	0	0	-1	250
17854715	5923	1179	0	-100	0	230	101300000	1000	0	0	-1	250
17867275	5923	1184	0	-100	0	230	101300000	1000	0	0	-1	250
17879835	5926	1180	0	-100	0	230	101300000	1000	0	0	-1	250
17892395	5924	1181	0	-100	0	230	101300000	1000	0	0	-1	250
17904955	5924	1177	0	-100	0	230	101300000	1000	0	0	-1	250
17917515	5922	1179	0	-100	0	230	101300000	1000	0	0	-1	250
17930075	5925	1174	0	-100	0	230	101300000	1000	0	0	-1	250
17942635	5926	1171	0	-100	0	230	101300000	1000	0	0	-1	250
17955195	5928	1175	0	-100	0	230	101300000	1000	0	0	-1	250
17967755	5924	1177	0	-100	0	230	101300000	1000	0	0	-1	250
17980315	5925	1179	0	-100	0	230	101300000	1000	0	0	-1	250
17992875	5925	1175	0	-100	0	230	101300000	1000	0	0	-1	250
18005435	5929	1173	0	-100	0	230	101300000	1000	0	0	-1	250
18017995	5928	1170	0	-100	0	230	101300000	1000	0	0	-1	250
18030555	5923	1178	0	-100	0	230	101300000	1000	0	0	-1	250
18043115	5924	1184	0	-100	0	230	101300000	1000	0	0	-1	250
18055675	5928	1177	0	-100	0	230	101300000	1000	0	0	-1	250
18068235	5928	1176	0	-100	0	230	101300000	1000	0	0	-1	250
18080795	5917	1175	0	-100	0	230	101300000	1000	0	0	-1	250
18093355	5924	1177	0	-100	0	230	101300000	1000	0	0	-1	250
18105915	5926	1180	0	-100	0	230	101300000	1000	0	0	-1	250
18118475	5924	1177	0	-100	0	230	101300000	1000	0	0	-1	250
18131035	5920	1176	0	-100	0	230	101300000	1000	0	0	-1	250
18143595	5925	1176	0	-100	0	230	101300000	1000	0	0	-1	250
18156155	5928	1171	0	-100	0	230	101300000	1000	0	0	-1	250
18168715	5926	1173	0	-100	0	230	101300000	1000	0	0	-1	250
18181275	5923	1180	0	-100	0	230	101300000	1000	0	0	-1	250
18193835	5928	1188	0	-100	0	230	101300000	1000	0	0	-1	250
18206395	5924	1176	0	-100	0	230	101300000	1000	0	0	-1	250
18218955	5932	1184	0	-100	0	230	101300000	1000	0	0	-1	250
18231515	5930	1181	0	-100	0	230	101300000	1000	0	0	-1	250
18244075	5924	1180	0	-100	0	230	101300000	1000	0	0	-1	250
18256635	5927	1176	0	-100	0	230	101300000	1000	0	0	-1	250
18269195	5932	1174	0	-100	0	230	101300000	1000	0	0	-1	250
18281755	5924	1178	0	-100	0	230	101300000	1000	0	0	-1	250
18294315	5924	1176	0	-100	0	230	101300000	1000	0	0	-1	250
18306875	5924	1177	0	-100	0	230	101300000	1000	0	0	-1	250
18319435	5927	1176	0	-100	0	230	101300000	1000	0	0	-1	250
18331995	5925	1178	0	-100	0	230	101300000	1000	0	0	-1	250
18344555	5926	1184	0	-100	0	230	101300000	1000	0	0	-1	250
18357115	5925	1179	0	-100	0	230	101300000	1000	0	0	-1	250
18369675	5930	1172	0	-100	0	230	101300000	1000	0	0	-1	250
18382235	5928	1170	0	-100	0	230	101300000	1000	0	0	-1	250
18394795	5919	1177	0	-100	0	230	101300000	1000	0	0	-1	250
18407355	5926	1182	0	-100	0	230	101300000	1000	0	0	-1	250
18419915	5926	1181	0	-100	0	230	101300000	1000	0	0	-1	250
18432475	5928	1168	0	-100	0	230	101300000	1000	0	0	-1	250
18445035	5927	1172	0	-100	0	230	101300000	1000	0	0	-1	250
18457595	5927	1182	0	-100	0	230	101300000	1000	0	0	-1	250
18470155	5924	1176	0	-100	0	230	101300000	1000	0	0	-1	250
18482715	5930	1172	0	-100	0	230	101300000	1000	0	0	-1	250
18495275	5927	1173	0	-100	0	230	101300000	1000	0	0	-1	250
18507835	5927	1184	0	-100	0	230	101300000	1000	0	0	-1	250
18520395	5926	1183	0	-100	0	230	101300000	1000	0	0	-1	250
18532955	5928	1179	0	-100	0	230	101300000	1000	0	0	-1	250
18545515	5920	1174	0	-100	0	230	101300000	1000	0	0	-1	250
18558075	5923	1181	0	-100	0	230	101300000	1000	0	0	-1	250
18570635	5930	1181	0	-100	0	230	101300000	1000	0	0	-1	250
18583195	5921	1177	0	-100	0	230	101300000	1000	0	0	-1	250
18595755	5924	1186	0	-100	0	230	101300000	1000	0	0	-1	250
18608315	5928	1175	0	-100	0	230	101300000	1000	0	0	-1	250
18620875	5928	1172	0	-100	0	230	101300000	1000	0	0	-1	250
18633435	5924	1180	0	-100	0	230	101300000	1000	0	0	-1	250
18645995	5928	1178	0	-100	0	230	101300000	1000	0	0	-1	250
18658555	5921	1180	0	-100	0	230	101300000	1000	0	0	-1	250
18671115	5928	1178	0	-100	0	230	101300000	1000	0	0	-1	250
18683675	5927	1171	0	-100	0	230	101300000	1000	0	0	-1	250
18696235	5923	1173	0	-100	0	230	101300000	1000	0	0	-1	250
18708795	5926	1180	0	-100	0	230	101300000	1000	0	0	-1	250
18721355	5929	1179	0	-100	0	230	101300000	1000	0	0	-1	250
18733915	5928	1180	0	-100	0	230	101300000	1000	0	0	-1	250
18746475	5924	1177	0	-100	0	230	101300000	1000	0	0	-1	250
18759035	5931	1179	0	-100	0	230	101300000	1000	0	0	-1	250
18771595	5932	1172	0	-100	0	230	101300000	1000	0	0	-1	250
18784155	5920	1179	0	-100	0	230	101300000	1000	0	0	-1	250
18796715	5923	1172	0	-100	0	230	101300000	1000	0	0	-1	250
18809275	5930	1178	0	-100	0	230	101300000	1000	0	0	-1	250
18821835	5930	1179	0	-100	0	230	101300000	1000	0	0	-1	250
18834395	5923	1181	0	-100	0	230	101300000	1000	0	0	-1	250
18846955	5922	1176	0	-100	0	230	101300000	1000	0	0	-1	250
18859515	5926	1182	0	-100	0	230	101300000	1000	0	0	-1	250
18872075	5930	1178	0	-100	0	230	101300000	1000	0	0	-1	250
18884635	5928	1169	0	-100	0	230	101300000	1000	0	0	-1	250
18897195	5923	1176	0	-100	0	230	101300000	1000	0	0	-1	250
18909755	5923	1179	0	-100	0	230	101300000	1000	0	0	-1	250
18922315	5924	1181	0	-100	0	230	101300000	1000	0	0	-1	250
18934875	5932	1181	0	-100	0	230	101300000	1000	0	0	-1	250
18947435	5924	1175	0	-100	0	230	101300000	1000	0	0	-1	250
18959995	5926	1180	0	-100	0	230	101300000	1000	0	0	-1	250
18972555	5926	1178	0	-100	0	230	101300000	1000	0	0	-1	250
18985115	5922	1177	0	-100	0	230	101300000	1000	0	0	-1	250
18997675	5927	1173	0	-100	0	230	101300000	1000	0	0	-1	250
19010235	5927	1174	0	-100	0	230	101300000	1000	0	0	-1	250
19022795	5927	1169	0	-100	0	230	101300000	1000	0	0	-1	250
19035355	5922	1185	0	-100	0	230	101300000	1000	0	0	-1	250
19047915	5924	1177	0	-100	0	230	101300000	1000	0	0	-1	250
19060475	5934	1172	0	-100	0	230	101300000	1000	0	0	-1	250
19073035	5928	1171	0	-100	0	230	101300000	1000	0	0	-1	250
19085595	5920	1171	0	-100	0	230	101300000	1000	0	0	-1	250
19098155	5926	1178	0	-100	0	230	101300000	1000	0	0	-1	250
19110715	5921	1180	0	-100	0	230	101300000	1000	0	0	-1	250
19123275	5930	1174	0	-100	0	230	101300000	1000	0	0	-1	250
19135835	5927	1172	0	-100	0	230	101300000	1000	0	0	-1	250
19148395	5928	1182	0	-100	0	230	101300000	1000	0	0	-1	250
19160955	5924	1176	0	-100	0	230	101300000	1000	0	0	-1	250
19173515	5927	1169	0	-100	0	230	101300000	1000	0	0	-1	250
19186075	5921	1177	0	-100	0	230	101300000	1000	0	0	-1	250
19198635	5924	1180	0	-100	0	230	101300000	1000	0	0	-1	250
19211195	5928	1178	0	-100	0	230	101300000	1000	0	0	-1	250
19223755	5927	1174	0	-100	0	230	101300000	1000	0	0	-1	250
19236315	5928	1180	0	-100	0	230	101300000	1000	0	0	-1	250
19248875	5933	1185	0	-100	0	230	101300000	1000	0	0	-1	250
19261435	5929	1171	0	-100	0	230	101300000	1000	0	0	-1	250
19273995	5920	1179	0	-100	0	230	101300000	1000	0	0	-1	250
19286555	5925	1177	0	-100	0	230	101300000	1000	0	0	-1	250
19299115	5924	1178	0	-100	0	230	101300000	1000	0	0	-1	250
19311675	5931	1182	0	-100	0	230	101300000	1000	0	0	-1	250
19324235	5923	1173	0	-100	0	230	101300000	1000	0	0	-1	250
19336795	5924	1173	0	-100	0	230	101300000	1000	0	0	-1	250
19349355	5923	1174	0	-100	0	230	101300000	1000	0	0	-1	250
19361915	5924	1184	0	-100	0	230	101300000	1000	0	0	-1	250
19374475	5933	1176	0	-100	0	230	101300000	1000	0	0	-1	250
19387035	5927	1171	0	-100	0	230	101300000	1000	0	0	-1	250
19399595	5932	1174	0	-100	0	230	101300000	1000	0	0	-1	250
19412155	5928	1171	0	-100	0	230	101300000	1000	0	0	-1	250
19424715	5924	1167	0	-100	0	230	101300000	1000	0	0	-1	250
19437275	5921	1174	0	-100	0	230	101300000	1000	0	0	-1	250
19449835	5928	1180	0	-100	0	230	101300000	1000	0	0	-1	250
19462395	5923	1174	0	-100	0	230	101300000	1000	0	0	-1	250
19474955	5924	1186	0	-100	0	230	101300000	1000	0	0	-1	250
19487515	5933	1182	0	-100	0	230	101300000	1000	0	0	-1	250
19500075	5930	1170	0	-100	0	230	101300000	1000	0	0	-1	250
19512635	5928	1174	0	-100	0	230	101300000	1000	0	0	-1	250
19525195	5926	1176	0	-100	0	230	101300000	1000	0	0	-1	250
19537755	5924	1175	0	-100	0	230	101300000	1000	0	0	-1	250
19550315	5925	1175	0	-100	0	230	101300000	1000	0	0	-1	250
19562875	5926	1177	0	-100	0	230	101300000	1000	0	0	-1	250
19575435	5926	1179	0	-100	0	230	101300000	1000	0	0	-1	250
19587995	5930	1178	0	-100	0	230	101300000	1000	0	0	-1	250
19600555	5924	1173	0	-100	0	230	101300000	1000	0	0	-1	250
19613115	5934	1177	0	-100	0	230	101300000	1000	0	0	-1	250
19625675	5928	1177	0	-100	0	230	101300000	1000	0	0	-1	250
19638235	5925	1179	0	-100	0	230	101300000	1000	0	0	-1	250
19650795	5921	1179	0	-100	0	230	101300000	1000	0	0	-1	250
19663355	5927	1180	0	-100	0	230	101300000	1000	0	0	-1	250
19675915	5925	1183	0	-100	0	230	101300000	1000	0	0	-1	250
19688475	5928	1175	0	-100	0	230	101300000	1000	0	0	-1	250
19701035	5932	1180	0	-100	0	230	101300000	1000	0	0	-1	250
19713595	5928	1173	0	-100	0	230	101300000	1000	0	0	-1	250
19726155	5927	1179	0	-100	0	230	101300000	1000	0	0	-1	250
19738715	5921	1177	0	-100	0	230	101300000	1000	0	0	-1	250
19751275	5927	1175	0	-100	0	230	101300000	1000	0	0	-1	250
19763835	5924	1179	0	-100	0	230	101300000	1000	0	0	-1	250
19776395	5924	1177	0	-100	0	230	101300000	1000	0	0	-1	250
19788955	5923	1178	0	-100	0	230	101300000	1000	0	0	-1	250
19801515	5924	1173	0	-100	0	230	101300000	1000	0	0	-1	250
19814075	5933	1175	0	-100	0	230	101300000	1000	0	0	-1	250
19826635	5928	1180	0	-100	0	230	101300000	1000	0	0	-1	250
19839195	5921	1174	0	-100	0	230	101300000	1000	0	0	-1	250
19851755	5923	1181	0	-100	0	230	101300000	1000	0	0	-1	250
19864315	5924	1175	0	-100	0	230	101300000	1000	0	0	-1	250
19876875	5930	1173	0	-100	0	230	101300000	1000	0	0	-1	250
19889435	5924	1179	0	-100	0	230	101300000	1000	0	0	-1	250
19901995	5924	1171	0	-100	0	230	101300000	1000	0	0	-1	250
19914555	5925	1179	0	-100	0	230	101300000	1000	0	0	-1	250
19927115	5926	1179	0	-100	0	230	101300000	1000	0	0	-1	250
19939675	5925	1175	0	-100	0	230	101300000	1000	0	0	-1	250
19952235	5927	1177	0	-100	0	230	101300000	1000	0	0	-1	250
19964795	5930	1177	0	-100	0	230	101300000	1000	0	0	-1	250
19977355	5929	1176	0	-100	0	230	101300000	1000	0	0	-1	250
19989915	5925	1176	0	-100	0	230	101300000	1000	0	0	-1	250
20002475	5923	1175	0	-100	0	230	101300000	1000	0	0	-1	250
20015035	5928	1172	0	-100	0	230	101300000	1000	0	0	-1	250
20027595	5928	1179	0	-100	0	230	101300000	1000	0	0	-1	250
20040155	5933	1175	0	-100	0	230	101300000	1000	0	0	-1	250
20052715	5926	1172	0	-100	0	230	101300000	1000	0	0	-1	250
20065275	5923	1173	0	-100	0	230	101300000	1000	0	0	-1	250
20077835	5921	1173	0	-100	0	230	101300000	1000	0	0	-1	250
20090395	5928	1177	0	-100	0	230	101300000	1000	0	0	-1	250
20102955	5924	1182	0	-100	0	230	101300000	1000	0	0	-1	250
20115515	5925	1175	0	-100	0	230	101300000	1000	0	0	-1	250
20128075	5928	1174	0	-100	0	230	101300000	1000	0	0	-1	250
20140635	5927	1169	0	-100	0	230	101300000	1000	0	0	-1	250
20153195	5920	1179	0	-100	0	230	101300000	1000	0	0	-1	250
20165755	5925	1178	0	-100	0	230	101300000	1000	0	0	-1	250
20178315	5924	1179	0	-100	0	230	101300000	1000	0	0	-1	250
20190875	5922	1181	0	-100	0	230	101300000	1000	0	0	-1	250
20203435	5924	1173	0	-100	0	230	101300000	1000	0	0	-1	250
20215995	5933	1174	0	-100	0	230	101300000	1000	0	0	-1	250
20228555	5932	1177	0	-100	0	230	101300000	1000	0	0	-1	250
20241115	5936	1176	0	-100	0	230	101300000	1000	0	0	-1	250
20291355	5934	1177	0	-100	0	230	101300000	1000	0	0	-1	250
20303915	5924	1180	0	-100	0	230	101300000	1000	0	0	-1	250
20316475	5923	1182	0	-100	0	230	101300000	1000	0	0	-1	250
20329035	5924	1176	0	-100	0	230	101300000	1000	0	0	-1	250
20341595	5924	1181	0	-100	0	230	101300000	1000	0	0	-1	250
20354155	5931	1178	0	-100	0	230	101300000	1000	0	0	-1	250
20366715	5932	1177	0	-100	0	230	101300000	1000	0	0	-1	250
20379275	5928	1179	0	-100	0	230	101300000	1000	0	0	-1	250
20391835	5927	1174	0	-100	0	230	101300000	1000	0	0	-1	250
20404395	5928	1180	0	-100	0	230	101300000	1000	0	0	-1	250
20416955	5928	1177	0	-100	0	230	101300000	1000	0	0	-1	250
20429515	5931	1178	0	-100	0	230	101300000	1000	0	0	-1	250
20492315	5926	1177	0	-100	0	230	101300000	1000	0	0	-1	250
20504875	5925	1169	0	-100	0	230	101300000	1000	0	0	-1	250
20517435	5934	1173	0	-100	0	230	101300000	1000	0	0	-1	250
20529995	5930	1172	0	-100	0	230	101300000	1000	0	0	-1	250
20542555	5926	1181	0	-100	0	230	101300000	1000	0	0	-1	250
20555115	5930	1168	0	-100	0	230	101300000	1000	0	0	-1	250
20567675	5928	1177	0	-100	0	230	101300000	1000	0	0	-1	250
20580235	5932	1173	0	-100	0	230	101300000	1000	0	0	-1	250
20592795	5932	1176	0	-100	0	230	101300000	1000	0	0	-1	250
20605355	5924	1172	0	-100	0	230	101300000	1000	0	0	-1	250
20617915	5929	1175	0	-100	0	230	101300000	1000	0	0	-1	250
20630475	5932	1177	0	-100	0	230	101300000	1000	0	0	-1	250
20643035	5933	1178	0	-100	0	230	101300000	1000	0	0	-1	250
20655595	5929	1175	0	-100	0	230	101300000	1000	0	0	-1	250
20668155	5932	1179	0	-100	0	230	101300000	1000	0	0	-1	250
20680715	5928	1173	0	-100	0	230	101300000	1000	0	0	-1	250
20693275	5925	1175	0	-100	0	230	101300000	1000	0	0	-1	250
20705835	5922	1179	0	-100	0	230	101300000	1000	0	0	-1	250
20718395	5920	1174	0	-100	0	230	101300000	1000	0	0	-1	250
20730955	5920	1177	0	-100	0	230	101300000	1000	0	0	-1	250
20743515	5930	1176	0	-100	0	230	101300000	1000	0	0	-1	250
20756075	5930	1171	0	-100	0	230	101300000	1000	0	0	-1	250
20768635	5924	1185	0	-100	0	230	101300000	1000	0	0	-1	250
20781195	5921	1177	0	-100	0	230	101300000	1000	0	0	-1	250
20793755	5925	1172	0	-100	0	230	101300000	1000	0	0	-1	250
20806315	5927	1177	0	-100	0	230	101300000	1000	0	0	-1	250
20818875	5924	1181	0	-100	0	230	101300000	1000	0	0	-1	250
20831435	5929	1179	0	-100	0	230	101300000	1000	0	0	-1	250
20843995	5932	1184	0	-100	0	230	101300000	1000	0	0	-1	250
20856555	5928	1172	0	-100	0	230	101300000	1000	0	0	-1	250
20869115	5931	1174	0	-100	0	230	101300000	1000	0	0	-1	250
20881675	5927	1183	0	-100	0	230	101300000	1000	0	0	-1	250
20894235	5924	1181	0	-100	0	230	101300000	1000	0	0	-1	250
20906795	5924	1173	0	-100	0	230	101300000	1000	0	0	-1	250
20919355	5920	1180	0	-100	0	230	101300000	1000	0	0	-1	250
20931915	5926	1179	0	-100	0	230	101300000	1000	0	0	-1	250
20944475	5924	1172	0	-100	0	230	101300000	1000	0	0	-1	250
20957035	5930	1174	0	-100	0	230	101300000	1000	0	0	-1	250
20969595	5930	1170	0	-100	0	230	101300000	1000	0	0	-1	250
20982155	5929	1172	0	-100	0	230	101300000	1000	0	0	-1	250
20994715	5928	1168	0	-100	0	230	101300000	1000	0	0	-1	250
21007275	5930	1181	0	-100	0	230	101300000	1000	0	0	-1	250
21019835	5928	1173	0	-100	0	230	101300000	1000	0	0	-1	250
21032395	5928	1177	0	-100	0	230	101300000	1000	0	0	-1	250
21044955	5926	1176	0	-100	0	230	101300000	1000	0	0	-1	250
21057515	5925	1178	0	-100	0	230	101300000	1000	0	0	-1	250
21070075	5924	1177	0	-100	0	230	101300000	1000	0	0	-1	250
21082635	5926	1171	0	-100	0	230	101300000	1000	0	0	-1	250
21095195	5932	1173	0	-100	0	230	101300000	1000	0	0	-1	250
21107755	5928	1178	0	-100	0	230	101300000	1000	0	0	-1	250
21120315	5929	1172	0	-100	0	230	101300000	1000	0	0	-1	250
21132875	5932	1172	0	-100	0	230	101300000	1000	0	0	-1	250
21145435	5930	1185	0	-100	0	230	101300000	1000	0	0	-1	250
21157995	5928	1178	0	-100	0	230	101300000	1000	0	0	-1	250
21170555	5924	1181	0	-100	0	230	101300000	1000	0	0	-1	250
21183115	5926	1180	0	-100	0	230	101300000	1000	0	0	-1	250
21195675	5927	1174	0	-100	0	230	101300000	1000	0	0	-1	250
21208235	5924	1172	0	-100	0	230	101300000	1000	0	0	-1	250
21220795	5929	1180	0	-100	0	230	101300000	1000	0	0	-1	250
21233355	5930	1179	0	-100	0	230	101300000	1000	0	0	-1	250
21245915	5930	1183	0	-100	0	230	101300000	1000	0	0	-1	250
21258475	5925	1170	0	-100	0	230	101300000	1000	0	0	-1	250
21271035	5921	1174	0	-100	0	230	101300000	1000	0	0	-1	250
21283595	5924	1180	0	-100	0	230	101300000	1000	0	0	-1	250
21296155	5922	1167	0	-100	0	230	101300000	1000	0	0	-1	250
21308715	5927	1178	0	-100	0	230	101300000	1000	0	0	-1	250
21321275	5930	1182	0	-100	0	230	101300000	1000	0	0	-1	250
21333835	5931	1170	0	-100	0	230	101300000	1000	0	0	-1	250
21346395	5930	1175	0	-100	0	230	101300000	1000	0	0	-1	250
21358955	5925	1175	0	-100	0	230	101300000	1000	0	0	-1	250
21371515	5928	1178	0	-100	0	230	101300000	1000	0	0	-1	250
21384075	5920	1170	0	-100	0	230	101300000	1000	0	0	-1	250
21396635	5921	1176	0	-100	0	230	101300000	1000	0	0	-1	250
21409195	5924	1172	0	-100	0	230	101300000	1000	0	0	-1	250
21421755	5928	1171	0	-100	0	230	101300000	1000	0	0	-1	250
21434315	5932	1175	0	-100	0	230	101300000	1000	0	0	-1	250
21446875	5928	1173	0	-100	0	230	101300000	1000	0	0	-1	250
21459435	5929	1181	0	-100	0	230	101300000	1000	0	0	-1	250
21471995	5928	1179	0	-100	0	230	101300000	1000	0	0	-1	250
21484555	5923	1177	0	-100	0	230	101300000	1000	0	0	-1	250
21497115	5924	1178	0	-100	0	230	101300000	1000	0	0	-1	250
21509675	5920	1180	0	-100	0	230	101300000	1000	0	0	-1	250
21522235	5923	1174	0	-100	0	230	101300000	1000	0	0	-1	250
21534795	5923	1170	0	-100	0	230	101300000	1000	0	0	-1	250
21547355	5923	1179	0	-100	0	230	101300000	1000	0	0	-1	250
21559915	5929	1175	0	-100	0	230	101300000	1000	0	0	-1	250
21572475	5928	1173	0	-100	0	230	101300000	1000	0	0	-1	250
21585035	5927	1182	0	-100	0	230	101300000	1000	0	0	-1	250
21597595	5925	1176	0	-100	0	230	101300000	1000	0	0	-1	250
21610155	5929	1175	0	-100	0	230	101300000	1000	0	0	-1	250
21622715	5932	1170	0	-100	0	230	101300000	1000	0	0	-1	250
21635275	5929	1171	0	-100	0	230	101300000	1000	0	0	-1	250
21647835	5932	1174	0	-100	0	230	101300000	1000	0	0	-1	250
21660395	5932	1176	0	-100	0	230	101300000	1000	0	0	-1	250
21672955	5924	1172	0	-100	0	230	101300000	1000	0	0	-1	250
21685515	5925	1174	0	-100	0	230	101300000	1000	0	0	-1	250
21698075	5926	1180	0	-100	0	230	101300000	1000	0	0	-1	250
21710635	5923	1179	0	-100	0	230	101300000	1000	0	0	-1	250
21723195	5924	1173	0	-100	0	230	101300000	1000	0	0	-1	250
21735755	5923	1182	0	-100	0	230	101300000	1000	0	0	-1	250
21748315	5923	1174	0	-100	0	230	101300000	1000	0	0	-1	250
21760875	5928	1166	0	-100	0	230	101300000	1000	0	0	-1	250
21773435	5932	1172	0	-100	0	230	101300000	1000	0	0	-1	250
21785995	5932	1180	0	-100	0	230	101300000	1000	0	0	-1	250
21798555	5924	1182	0	-100	0	230	101300000	1000	0	0	-1	250
21811115	5924	1183	0	-100	0	230	101300000	1000	0	0	-1	250
21823675	5918	1177	0	-100	0	230	101300000	1000	0	0	-1	250
21836235	5924	1180	0	-100	0	230	101300000	1000	0	0	-1	250
21848795	5928	1174	0	-100	0	230	101300000	1000	0	0	-1	250
21861355	5934	1177	0	-100	0	230	101300000	1000	0	0	-1	250
21873915	5924	1179	0	-100	0	230	101300000	1000	0	0	-1	250
21886475	5923	1175	0	-100	0	230	101300000	1000	0	0	-1	250
21899035	5929	1180	0	-100	0	230	101300000	1000	0	0	-1	250
21911595	5923	1181	0	-100	0	230	101300000	1000	0	0	-1	250
21924155	5924	1178	0	-100	0	230	101300000	1000	0	0	-1	250
21936715	5923	1182	0	-100	0	230	101300000	1000	0	0	-1	250
21949275	5924	1178	0	-100	0	230	101300000	1000	0	0	-1	250
21961835	5928	1177	0	-100	0	230	101300000	1000	0	0	-1	250
21974395	5929	1176	0	-100	0	230	101300000	1000	0	0	-1	250
21986955	5924	1182	0	-100	0	230	101300000	1000	0	0	-1	250
21999515	5924	1180	0	-100	0	230	101300000	1000	0	0	-1	250
22012075	5922	1171	0	-100	0	230	101300000	1000	0	0	-1	250
22024635	5927	1170	0	-100	0	230	101300000	1000	0	0	-1	250
22037195	5929	1176	0	-100	0	230	101300000	1000	0	0	-1	250
22049755	5932	1175	0	-100	0	230	101300000	1000	0	0	-1	250
22062315	5924	1185	0	-100	0	230	101300000	1000	0	0	-1	250
22074875	5926	1175	0	-100	0	230	101300000	1000	0	0	-1	250
22087435	5928	1178	0	-100	0	230	101300000	1000	0	0	-1	250
22099995	5931	1177	0	-100	0	230	101300000	1000	0	0	-1	250
22112555	5923	1181	0	-100	0	230	101300000	1000	0	0	-1	250
22125115	5928	1175	0	-100	0	230	101300000	1000	0	0	-1	250
22137675	5925	1170	0	-100	0	230	101300000	1000	0	0	-1	250
22150235	5933	1173	0	-100	0	230	101300000	1000	0	0	-1	250
22162795	5924	1173	0	-100	0	230	101300000	1000	0	0	-1	250
22175355	5919	1182	0	-100	0	230	101300000	1000	0	0	-1	250
22187915	5926	1180	0	-100	0	230	101300000	1000	0	0	-1	250
22200475	5931	1178	0	-100	0	230	101300000	1000	0	0	-1	250
22213035	5923	1183	0	-100	0	230	101300000	1000	0	0	-1	250
22225595	5921	1168	0	-100	0	230	101300000	1000	0	0	-1	250
22238155	5928	1176	0	-100	0	230	101300000	1000	0	0	-1	250
22250715	5927	1178	0	-100	0	230	101300000	1000	0	0	-1	250
22263275	5924	1175	0	-100	0	230	101300000	1000	0	0	-1	250
22275835	5924	1175	0	-100	0	230	101300000	1000	0	0	-1	250
22288395	5927	1169	0	-100	0	230	101300000	1000	0	0	-1	250
22300955	5925	1179	0	-100	0	230	101300000	1000	0	0	-1	250
22313515	5924	1186	0	-100	0	230	101300000	1000	0	0	-1	250
22326075	5923	1178	0	-100	0	230	101300000	1000	0	0	-1	250
22338635	5920	1165	0	-100	0	230	101300000	1000	0	0	-1	250
22351195	5922	1174	0	-100	0	230	101300000	1000	0	0	-1	250
22363755	5928	1174	0	-100	0	230	101300000	1000	0	0	-1	250
22376315	5930	1175	0	-100	0	230	101300000	1000	0	0	-1	250
22388875	5929	1181	0	-100	0	230	101300000	1000	0	0	-1	250
22401435	5921	1178	0	-100	0	230	101300000	1000	0	0	-1	250
22413995	5924	1170	0	-100	0	230	101300000	1000	0	0	-1	250
22426555	5924	1180	0	-100	0	230	101300000	1000	0	0	-1	250
22439115	5927	1177	0	-100	0	230	101300000	1000	0	0	-1	250
22451675	5928	1184	0	-100	0	230	101300000	1000	0	0	-1	250
22464235	5932	1179	0	-100	0	230	101300000	1000	0	0	-1	250
22476795	5920	1177	0	-100	0	230	101300000	1000	0	0	-1	250
22489355	5919	1179	0	-100	0	230	101300000	1000	0	0	-1	250
22501915	5922	1168	0	-100	0	230	101300000	1000	0	0	-1	250
22514475	5930	1170	0	-100	0	230	101300000	1000	0	0	-1	250
22527035	5933	1173	0	-100	0	230	101300000	1000	0	0	-1	250
22539595	5926	1176	0	-100	0	230	101300000	1000	0	0	-1	250
22552155	5919	1181	0	-100	0	230	101300000	1000	0	0	-1	250
22564715	5928	1177	0	-100	0	230	101300000	1000	0	0	-1	250
22577275	5931	1174	0	-100	0	230	101300000	1000	0	0	-1	250
22589835	5922	1171	0	-100	0	230	101300000	1000	0	0	-1	250
22602395	5925	1169	0	-100	0	230	101300000	1000	0	0	-1	250
22614955	5925	1179	0	-100	0	230	101300000	1000	0	0	-1	250
22627515	5928	1174	0	-100	0	230	101300000	1000	0	0	-1	250
22640075	5930	1174	0	-100	0	230	101300000	1000	0	0	-1	250
22652635	5929	1181	0	-100	0	230	101300000	1000	0	0	-1	250
22665195	5924	1177	0	-100	0	230	101300000	1000	0	0	-1	250
22677755	5918	1179	0	-100	0	230	101300000	1000	0	0	-1	250
22690315	5926	1182	0	-100	0	230	101300000	1000	0	0	-1	250
22702875	5922	1176	0	-100	0	230	101300000	1000	0	0	-1	250
22715435	5926	1173	0	-100	0	230	101300000	1000	0	0	-1	250
22727995	5931	1180	0	-100	0	230	101300000	1000	0	0	-1	250
22740555	5924	1176	0	-100	0	230	101300000	1000	0	0	-1	250
22753115	5927	1176	0	-100	0	230	101300000	1000	0	0	-1	250
22765675	5924	1176	0	-100	0	230	101300000	1000	0	0	-1	250
22778235	5929	1173	0	-100	0	230	101300000	1000	0	0	-1	250
22790795	5924	1181	0	-100	0	230	101300000	1000	0	0	-1	250
22803355	5923	1183	0	-100	0	230	101300000	1000	0	0	-1	250
22815915	5920	1177	0	-100	0	230	101300000	1000	0	0	-1	250
22828475	5926	1175	0	-100	0	230	101300000	1000	0	0	-1	250
22841035	5928	1169	0	-100	0	230	101300000	1000	0	0	-1	250
22853595	5919	1175	0	-100	0	230	101300000	1000	0	0	-1	250
22866155	5924	1173	0	-100	0	230	101300000	1000	0	0	-1	250
22878715	5927	1174	0	-100	0	230	101300000	1000	0	0	-1	250
22891275	5921	1176	0	-100	0	230	101300000	1000	0	0	-1	250
22903835	5924	1182	0	-100	0	230	101300000	1000	0	0	-1	250
22916395	5924	1180	0	-100	0	230	101300000	1000	0	0	-1	250
22928955	5928	1179	0	-100	0	230	101300000	1000	0	0	-1	250
22941515	5928	1175	0	-100	0	230	101300000	1000	0	0	-1	250
22954075	5924	1178	0	-100	0	230	101300000	1000	0	0	-1	250
22966635	5920	1179	0	-100	0	230	101300000	1000	0	0	-1	250
22979195	5923	1174	0	-100	0	230	101300000	1000	0	0	-1	250
22991755	5923	1174	0	-100	0	230	101300000	1000	0	0	-1	250
23004315	5925	1171	0	-100	0	230	101300000	1000	0	0	-1	250
23016875	5930	1180	0	-100	0	230	101300000	1000	0	0	-1	250
23029435	5928	1169	0	-100	0	230	101300000	1000	0	0	-1	250
23041995	5931	1173	0	-100	0	230	101300000	1000	0	0	-1	250
23054555	5933	1185	0	-100	0	230	101300000	1000	0	0	-1	250
23067115	5926	1178	0	-100	0	230	101300000	1000	0	0	-1	250
23079675	5920	1173	0	-100	0	230	101300000	1000	0	0	-1	250
23092235	5924	1177	0	-100	0	230	101300000	1000	0	0	-1	250
23104795	5921	1172	0	-100	0	230	101300000	1000	0	0	-1	250
23117355	5920	1179	0	-100	0	230	101300000	1000	0	0	-1	250
23129915	5924	1174	0	-100	0	230	101300000	1000	0	0	-1	250
23142475	5922	1175	0	-100	0	230	101300000	1000	0	0	-1	250
23155035	5924	1168	0	-100	0	230	101300000	1000	0	0	-1	250
23167595	5924	1167	0	-100	0	230	101300000	1000	0	0	-1	250
23217835	5930	1169	0	-100	0	230	101300000	1000	0	0	-1	250
23230395	5930	1177	0	-100	0	230	101300000	1000	0	0	-1	250
23242955	5928	1174	0	-100	0	230	101300000	1000	0	0	-1	250
23255515	5926	1178	0	-100	0	230	101300000	1000	0	0	-1	250
23268075	5924	1180	0	-100	0	230	101300000	1000	0	0	-1	250
23280635	5924	1174	0	-100	0	230	101300000	1000	0	0	-1	250
23293195	5932	1179	0	-100	0	230	101300000	1000	0	0	-1	250
23305755	5932	1174	0	-100	0	230	101300000	1000	0	0	-1	250
23318315	5923	1171	0	-100	0	230	101300000	1000	0	0	-1	250
23330875	5921	1172	0	-100	0	230	101300000	1000	0	0	-1	250
23343435	5926	1182	0	-100	0	230	101300000	1000	0	0	-1	250
23431355	5923	1174	0	-100	0	230	101300000	1000	0	0	-1	250
23443915	5925	1179	0	-100	0	230	101300000	1000	0	0	-1	250
23456475	5920	1178	0	-100	0	230	101300000	1000	0	0	-1	250
23469035	5924	1174	0	-100	0	230	101300000	1000	0	0	-1	250
23481595	5931	1178	0	-100	0	230	101300000	1000	0	0	-1	250
23494155	5929	1176	0	-100	0	230	101300000	1000	0	0	-1	250
23506715	5926	1173	0	-100	0	230	101300000	1000	0	0	-1	250
23519275	5922	1180	0	-100	0	230	101300000	1000	0	0	-1	250
23531835	5923	1174	0	-100	0	230	101300000	1000	0	0	-1	250
23544395	5920	1178	0	-100	0	230	101300000	1000	0	0	-1	250
23556955	5924	1176	0	-100	0	230	101300000	1000	0	0	-1	250
23569515	5933	1173	0	-100	0	230	101300000	1000	0	0	-1	250
23594635	5923	1173	0	-100	0	230	101300000	1000	0	0	-1	250
23607195	5926	1186	0	-100	0	230	101300000	1000	0	0	-1	250
23619755	5924	1181	0	-100	0	230	101300000	1000	0	0	-1	250
23632315	5932	1175	0	-100	0	230	101300000	1000	0	0	-1	250
23644875	5929	1174	0	-100	0	230	101300000	1000	0	0	-1	250
23657435	5926	1174	0	-100	0	230	101300000	1000	0	0	-1	250
23669995	5928	1181	0	-100	0	230	101300000	1000	0	0	-1	250
23682555	5924	1168	0	-100	0	230	101300000	1000	0	0	-1	250
23695115	5920	1175	0	-100	0	230	101300000	1000	0	0	-1	250
23707675	5927	1180	0	-100	0	230	101300000	1000	0	0	-1	250
23720235	5924	1178	0	-100	0	230	101300000	1000	0	0	-1	250
23732795	5926	1166	0	-100	0	230	101300000	1000	0	0	-1	250
23745355	5927	1178	0	-100	0	230	101300000	1000	0	0	-1	250
23757915	5923	1180	0	-100	0	230	101300000	1000	0	0	-1	250
23770475	5924	1175	0	-100	0	230	101300000	1000	0	0	-1	250
23783035	5935	1178	0	-100	0	230	101300000	1000	0	0	-1	250
23795595	5932	1170	0	-100	0	230	101300000	1000	0	0	-1	250
23808155	5924	1176	0	-100	0	230	101300000	1000	0	0	-1	250
23820715	5925	1175	0	-100	0	230	101300000	1000	0	0	-1	250
23833275	5922	1176	0	-100	0	230	101300000	1000	0	0	-1	250
23845835	5922	1179	0	-100	0	230	101300000	1000	0	0	-1	250
23858395	5928	1182	0	-100	0	230	101300000	1000	0	0	-1	250
23870955	5928	1172	0	-100	0	230	101300000	1000	0	0	-1	250
23883515	5928	1169	0	-100	0	230	101300000	1000	0	0	-1	250
23896075	5930	1175	0	-100	0	230	101300000	1000	0	0	-1	250
23908635	5928	1177	0	-100	0	230	101300000	1000	0	0	-1	250
23921195	5928	1177	0	-100	0	230	101300000	1000	0	0	-1	250
23933755	5925	1172	0	-100	0	230	101300000	1000	0	0	-1	250
23946315	5922	1176	0	-100	0	230	101300000	1000	0	0	-1	250
23958875	5925	1174	0	-100	0	230	101300000	1000	0	0	-1	250
23971435	5922	1171	0	-100	0	230	101300000	1000	0	0	-1	250
23983995	5920	1172	0	-100	0	230	101300000	1000	0	0	-1	250
23996555	5923	1177	0	-100	0	230	101300000	1000	0	0	-1	250
24009115	5917	1178	0	-100	0	230	101300000	1000	0	0	-1	250
24021675	5924	1172	0	-100	0	230	101300000	1000	0	0	-1	250
24034235	5926	1181	0	-100	0	230	101300000	1000	0	0	-1	250
24046795	5931	1174	0	-100	0	230	101300000	1000	0	0	-1	250
24059355	5930	1173	0	-100	0	230	101300000	1000	0	0	-1	250
24071915	5929	1175	0	-100	0	230	101300000	1000	0	0	-1	250
24084475	5925	1175	0	-100	0	230	101300000	1000	0	0	-1	250
24097035	5919	1177	0	-100	0	230	101300000	1000	0	0	-1	250
24109595	5928	1177	0	-100	0	230	101300000	1000	0	0	-1	250
24122155	5924	1179	0	-100	0	230	101300000	1000	0	0	-1	250
24134715	5926	1174	0	-100	0	230	101300000	1000	0	0	-1	250
24147275	5926	1176	0	-100	0	230	101300000	1000	0	0	-1	250
24159835	5928	1175	0	-100	0	230	101300000	1000	0	0	-1	250
24172395	5924	1173	0	-100	0	230	101300000	1000	0	0	-1	250
24184955	5920	1175	0	-100	0	230	101300000	1000	0	0	-1	250
24197515	5924	1177	0	-100	0	230	101300000	1000	0	0	-1	250
24210075	5925	1176	0	-100	0	230	101300000	1000	0	0	-1	250
24222635	5928	1176	0	-100	0	230	101300000	1000	0	0	-1	250
24235195	5923	1173	0	-100	0	230	101300000	1000	0	0	-1	250
24247755	5924	1173	0	-100	0	230	101300000	1000	0	0	-1	250
24260315	5924	1178	0	-100	0	230	101300000	1000	0	0	-1	250
24272875	5922	1175	0	-100	0	230	101300000	1000	0	0	-1	250
24285435	5928	1172	0	-100	0	230	101300000	1000	0	0	-1	250
24297995	5929	1180	0	-100	0	230	101300000	1000	0	0	-1	250
24310555	5930	1174	0	-100	0	230	101300000	1000	0	0	-1	250
24323115	5928	1174	0	-100	0	230	101300000	1000	0	0	-1	250
24335675	5930	1181	0	-100	0	230	101300000	1000	0	0	-1	250
24348235	5933	1180	0	-100	0	230	101300000	1000	0	0	-1	250
24360795	5929	1174	0	-100	0	230	101300000	1000	0	0	-1	250
24373355	5933	1174	0	-100	0	230	101300000	1000	0	0	-1	250
24385915	5928	1161	0	-100	0	230	101300000	1000	0	0	-1	250
24398475	5930	1178	0	-100	0	230	101300000	1000	0	0	-1	250
24411035	5926	1170	0	-100	0	230	101300000	1000	0	0	-1	250
24423595	5925	1175	0	-100	0	230	101300000	1000	0	0	-1	250
24436155	5923	1174	0	-100	0	230	101300000	1000	0	0	-1	250
24448715	5927	1178	0	-100	0	230	101300000	1000	0	0	-1	250
24461275	5921	1174	0	-100	0	230	101300000	1000	0	0	-1	250
24473835	5921	1174	0	-100	0	230	101300000	1000	0	0	-1	250
24486395	5921	1172	0	-100	0	230	101300000	1000	0	0	-1	250
24498955	5923	1177	0	-100	0	230	101300000	1000	0	0	-1	250
24511515	5923	1176	0	-100	0	230	101300000	1000	0	0	-1	250
24524075	5918	1179	0	-100	0	230	101300000	1000	0	0	-1	250
24536635	5924	1178	0	-100	0	230	101300000	1000	0	0	-1	250
24549195	5923	1176	0	-100	0	230	101300000	1000	0	0	-1	250
24561755	5926	1184	0	-100	0	230	101300000	1000	0	0	-1	250
24574315	5920	1182	0	-100	0	230	101300000	1000	0	0	-1	250
24586875	5922	1172	0	-100	0	230	101300000	1000	0	0	-1	250
24599435	5922	1177	0	-100	0	230	101300000	1000	0	0	-1	250
24611995	5922	1175	0	-100	0	230	101300000	1000	0	0	-1	250
24624555	5920	1177	0	-100	0	230	101300000	1000	0	0	-1	250
24637115	5922	1182	0	-100	0	230	101300000	1000	0	0	-1	250
24649675	5927	1179	0	-100	0	230	101300000	1000	0	0	-1	250
24662235	5925	1174	0	-100	0	230	101300000	1000	0	0	-1	250
24674795	5927	1178	0	-100	0	230	101300000	1000	0	0	-1	250
24687355	5933	1179	0	-100	0	230	101300000	1000	0	0	-1	250
24699915	5934	1175	0	-100	0	230	101300000	1000	0	0	-1	250
24712475	5928	1179	0	-100	0	230	101300000	1000	0	0	-1	250
24725035	5932	1179	0	-100	0	230	101300000	1000	0	0	-1	250
24737595	5934	1176	0	-100	0	230	101300000	1000	0	0	-1	250
24750155	5931	1174	0	-100	0	230	101300000	1000	0	0	-1	250
24762715	5931	1183	0	-100	0	230	101300000	1000	0	0	-1	250
24775275	5933	1177	0	-100	0	230	101300000	1000	0	0	-1	250
24787835	5930	1180	0	-100	0	230	101300000	1000	0	0	-1	250
24800395	5928	1174	0	-100	0	230	101300000	1000	0	0	-1	250
24812955	5928	1176	0	-100	0	230	101300000	1000	0	0	-1	250
24825515	5927	1175	0	-100	0	230	101300000	1000	0	0	-1	250
24838075	5927	1175	0	-100	0	230	101300000	1000	0	0	-1	250
24850635	5928	1179	0	-100	0	230	101300000	1000	0	0	-1	250
24863195	5927	1176	0	-100	0	230	101300000	1000	0	0	-1	250
24875755	5928	1176	0	-100	0	230	101300000	1000	0	0	-1	250
24888315	5923	1174	0	-100	0	230	101300000	1000	0	0	-1	250
24900875	5923	1177	0	-100	0	230	101300000	1000	0	0	-1	250
24913435	5927	1176	0	-100	0	230	101300000	1000	0	0	-1	250
24925995	5927	1172	0	-100	0	230	101300000	1000	0	0	-1	250
24938555	5927	1178	0	-100	0	230	101300000	1000	0	0	-1	250
24951115	5920	1179	0	-100	0	230	101300000	1000	0	0	-1	250
24963675	5920	1181	0	-100	0	230	101300000	1000	0	0	-1	250
24976235	5917	1174	0	-100	0	230	101300000	1000	0	0	-1	250
24988795	5921	1177	0	-100	0	230	101300000	1000	0	0	-1	250
25001355	5925	1172	0	-100	0	230	101300000	1000	0	0	-1	250
25013915	5923	1175	0	-100	0	230	101300000	1000	0	0	-1	250
25026475	5920	1174	0	-100	0	230	101300000	1000	0	0	-1	250
25039035	5930	1170	0	-100	0	230	101300000	1000	0	0	-1	250
25051595	5932	1173	0	-100	0	230	101300000	1000	0	0	-1	250
25064155	5925	1174	0	-100	0	230	101300000	1000	0	0	-1	250
25076715	5924	1171	0	-100	0	230	101300000	1000	0	0	-1	250
25089275	5921	1171	0	-100	0	230	101300000	1000	0	0	-1	250
25101835	5923	1167	0	-100	0	230	101300000	1000	0	0	-1	250
25114395	5924	1176	0	-100	0	230	101300000	1000	0	0	-1	250
25126955	5921	1181	0	-100	0	230	101300000	1000	0	0	-1	250
25139515	5927	1173	0	-100	0	230	101300000	1000	0	0	-1	250
25152075	5924	1175	0	-100	0	230	101300000	1000	0	0	-1	250
25164635	5924	1175	0	-100	0	230	101300000	1000	0	0	-1	250
25177195	5924	1176	0	-100	0	230	101300000	1000	0	0	-1	250
25189755	5920	1182	0	-100	0	230	101300000	1000	0	0	-1	250
25202315	5922	1175	0	-100	0	230	101300000	1000	0	0	-1	250
25214875	5920	1175	0	-100	0	230	101300000	1000	0	0	-1	250
25227435	5923	1174	0	-100	0	230	101300000	1000	0	0	-1	250
25239995	5924	1170	0	-100	0	230	101300000	1000	0	0	-1	250
25252555	5923	1174	0	-100	0	230	101300000	1000	0	0	-1	250
25265115	5925	1170	0	-100	0	230	101300000	1000	0	0	-1	250
25277675	5918	1174	0	-100	0	230	101300000	1000	0	0	-1	250
25290235	5922	1180	0	-100	0	230	101300000	1000	0	0	-1	250
25302795	5920	1179	0	-100	0	230	101300000	1000	0	0	-1	250
25315355	5925	1174	0	-100	0	230	101300000	1000	0	0	-1	250
25327915	5928	1171	0	-100	0	230	101300000	1000	0	0	-1	250
25340475	5928	1173	0	-100	0	230	101300000	1000	0	0	-1	250
25353035	5924	1179	0	-100	0	230	101300000	1000	0	0	-1	250
25365595	5929	1178	0	-100	0	230	101300000	1000	0	0	-1	250
25378155	5928	1172	0	-100	0	230	101300000	1000	0	0	-1	250
25390715	5925	1172	0	-100	0	230	101300000	1000	0	0	-1	250
25403275	5933	1173	0	-100	0	230	101300000	1000	0	0	-1	250
25415835	5928	1176	0	-100	0	230	101300000	1000	0	0	-1	250
25428395	5932	1175	0	-100	0	230	101300000	1000	0	0	-1	250
25440955	5928	1170	0	-100	0	230	101300000	1000	0	0	-1	250
25453515	5929	1171	0	-100	0	230	101300000	1000	0	0	-1	250
25466075	5929	1175	0	-100	0	230	101300000	1000	0	0	-1	250
25478635	5926	1173	0	-100	0	230	101300000	1000	0	0	-1	250
25491195	5929	1172	0	-100	0	230	101300000	1000	0	0	-1	250
25503755	5930	1183	0	-100	0	230	101300000	1000	0	0	-1	250
25516315	5926	1174	0	-100	0	230	101300000	1000	0	0	-1	250
25528875	5928	1180	0	-100	0	230	101300000	1000	0	0	-1	250
25541435	5926	1175	0	-100	0	230	101300000	1000	0	0	-1	250
25553995	5922	1172	0	-100	0	230	101300000	1000	0	0	-1	250
25566555	5920	1176	0	-100	0	230	101300000	1000	0	0	-1	250
25579115	5924	1173	0	-100	0	230	101300000	1000	0	0	-1	250
25591675	5920	1174	0	-100	0	230	101300000	1000	0	0	-1	250
25604235	5921	1180	0	-100	0	230	101300000	1000	0	0	-1	250
25616795	5922	1173	0	-100	0	230	101300000	1000	0	0	-1	250
25629355	5924	1176	0	-100	0	230	101300000	1000	0	0	-1	250
25641915	5928	1174	0	-100	0	230	101300000	1000	0	0	-1	250
25654475	5930	1175	0	-100	0	230	101300000	1000	0	0	-1	250
25667035	5929	1168	0	-100	0	230	101300000	1000	0	0	-1	250
25679595	5930	1175	0	-100	0	230	101300000	1000	0	0	-1	250
25692155	5919	1178	0	-100	0	230	101300000	1000	0	0	-1	250
25704715	5926	1178	0	-100	0	230	101300000	1000	0	0	-1	250
25717275	5924	1179	0	-100	0	230	101300000	1000	0	0	-1	250
25729835	5925	1181	0	-100	0	230	101300000	1000	0	0	-1	250
25742395	5926	1182	0	-100	0	230	101300000	1000	0	0	-1	250
25754955	5923	1163	0	-100	0	230	101300000	1000	0	0	-1	250
25767515	5919	1178	0	-100	0	230	101300000	1000	0	0	-1	250
25780075	5928	1173	0	-100	0	230	101300000	1000	0	0	-1	250
25792635	5928	1181	0	-100	0	230	101300000	1000	0	0	-1	250
25805195	5925	1169	0	-100	0	230	101300000	1000	0	0	-1	250
25817755	5925	1173	0	-100	0	230	101300000	1000	0	0	-1	250
25830315	5923	1178	0	-100	0	230	101300000	1000	0	0	-1	250
25842875	5926	1173	0	-100	0	230	101300000	1000	0	0	-1	250
25855435	5921	1172	0	-100	0	230	101300000	1000	0	0	-1	250
25867995	5920	1174	0	-100	0	230	101300000	1000	0	0	-1	250
25880555	5922	1176	0	-100	0	230	101300000	1000	0	0	-1	250
25893115	5920	1176	0	-100	0	230	101300000	1000	0	0	-1	250
25905675	5920	1172	0	-100	0	230	101300000	1000	0	0	-1	250
25918235	5920	1172	0	-100	0	230	101300000	1000	0	0	-1	250
25930795	5924	1172	0	-100	0	230	101300000	1000	0	0	-1	250
25943355	5931	1173	0	-100	0	230	101300000	1000	0	0	-1	250
25955915	5924	1171	0	-100	0	230	101300000	1000	0	0	-1	250
25968475	5923	1172	0	-100	0	230	101300000	1000	0	0	-1	250
25981035	5923	1172	0	-100	0	230	101300000	1000	0	0	-1	250
25993595	5921	1173	0	-100	0	230	101300000	1000	0	0	-1	250
26006155	5924	1184	0	-100	0	230	101300000	1000	0	0	-1	250
26018715	5920	1176	0	-100	0	230	101300000	1000	0	0	-1	250
26031275	5922	1171	0	-100	0	230	101300000	1000	0	0	-1	250
26043835	5926	1178	0	-100	0	230	101300000	1000	0	0	-1	250
26056395	5930	1178	0	-100	0	230	101300000	1000	0	0	-1	250
26068955	5928	1166	0	-100	0	230	101300000	1000	0	0	-1	250
26081515	5924	1166	0	-100	0	230	101300000	1000	0	0	-1	250
26094075	5920	1174	0	-100	0	230	101300000	1000	0	0	-1	250
26106635	5926	1175	0	-100	0	230	101300000	1000	0	0	-1	250
26131755	5932	1173	0	-100	0	230	101300000	1000	0	0	-1	250
26144315	5924	1178	0	-100	0	230	101300000	1000	0	0	-1	250
26156875	5923	1174	0	-100	0	230	101300000	1000	0	0	-1	250
26169435	5920	1173	0	-100	0	230	101300000	1000	0	0	-1	250
26181995	5923	1171	0	-100	0	230	101300000	1000	0	0	-1	250
26194555	5928	1170	0	-100	0	230	101300000	1000	0	0	-1	250
26207115	5923	1178	0	-100	0	230	101300000	1000	0	0	-1	250
26219675	5922	1172	0	-100	0	230	101300000	1000	0	0	-1	250
26232235	5926	1168	0	-100	0	230	101300000	1000	0	0	-1	250
26244795	5919	1173	0	-100	0	230	101300000	1000	0	0	-1	250
26257355	5924	1179	0	-100	0	230	101300000	1000	0	0	-1	250
26269915	5928	1181	0	-100	0	230	101300000	1000	0	0	-1	250
26357835	5924	1175	0	-100	0	230	101300000	1000	0	0	-1	250
26370395	5928	1171	0	-100	0	230	101300000	1000	0	0	-1	250
26382955	5928	1178	0	-100	0	230	101300000	1000	0	0	-1	250
26395515	5917	1179	0	-100	0	230	101300000	1000	0	0	-1	250
26408075	5922	1170	0	-100	0	230	101300000	1000	0	0	-1	250
26420635	5931	1174	0	-100	0	230	101300000	1000	0	0	-1	250
26433195	5923	1170	0	-100	0	230	101300000	1000	0	0	-1	250
26445755	5921	1174	0	-100	0	230	101300000	1000	0	0	-1	250
26458315	5926	1173	0	-100	0	230	101300000	1000	0	0	-1	250
26470875	5920	1180	0	-100	0	230	101300000	1000	0	0	-1	250
26483435	5925	1179	0	-100	0	230	101300000	1000	0	0	-1	250
26533675	5928	1172	0	-100	0	230	101300000	1000	0	0	-1	250
26546235	5932	1174	0	-100	0	230	101300000	1000	0	0	-1	250
26558795	5928	1173	0	-100	0	230	101300000	1000	0	0	-1	250
26571355	5921	1171	0	-100	0	230	101300000	1000	0	0	-1	250
26583915	5922	1176	0	-100	0	230	101300000	1000	0	0	-1	250
26596475	5929	1166	0	-100	0	230	101300000	1000	0	0	-1	250
26609035	5922	1173	0	-100	0	230	101300000	1000	0	0	-1	250
26621595	5921	1181	0	-100	0	230	101300000	1000	0	0	-1	250
26634155	5926	1170	0	-100	0	230	101300000	1000	0	0	-1	250
26646715	5923	1172	0	-100	0	230	101300000	1000	0	0	-1	250
26659275	5922	1184	0	-100	0	230	101300000	1000	0	0	-1	250
26671835	5929	1176	0	-100	0	230	101300000	1000	0	0	-1	250
26684395	5925	1176	0	-100	0	230	101300000	1000	0	0	-1	250
26696955	5923	1173	0	-100	0	230	101300000	1000	0	0	-1	250
26709515	5928	1182	0	-100	0	230	101300000	1000	0	0	-1	250
26722075	5929	1172	0	-100	0	230	101300000	1000	0	0	-1	250
26734635	5922	1170	0	-100	0	230	101300000	1000	0	0	-1	250
26747195	5920	1179	0	-100	0	230	101300000	1000	0	0	-1	250
26759755	5926	1173	0	-100	0	230	101300000	1000	0	0	-1	250
26772315	5923	1176	0	-100	0	230	101300000	1000	0	0	-1	250
26784875	5923	1172	0	-100	0	230	101300000	1000	0	0	-1	250
26797435	5928	1174	0	-100	0	230	101300000	1000	0	0	-1	250
26809995	5924	1176	0	-100	0	230	101300000	1000	0	0	-1	250
26822555	5922	1175	0	-100	0	230	101300000	1000	0	0	-1	250
26835115	5928	1177	0	-100	0	230	101300000	1000	0	0	-1	250
26847675	5923	1174	0	-100	0	230	101300000	1000	0	0	-1	250
26860235	5932	1179	0	-100	0	230	101300000	1000	0	0	-1	250
26872795	5919	1174	0	-100	0	230	101300000	1000	0	0	-1	250
26885355	5921	1182	0	-100	0	230	101300000	1000	0	0	-1	250
26897915	5924	1171	0	-100	0	230	101300000	1000	0	0	-1	250
26910475	5923	1170	0	-100	0	230	101300000	1000	0	0	-1	250
26923035	5925	1176	0	-100	0	230	101300000	1000	0	0	-1	250
26935595	5927	1175	0	-100	0	230	101300000	1000	0	0	-1	250
26948155	5923	1181	0	-100	0	230	101300000	1000	0	0	-1	250
26960715	5928	1174	0	-100	0	230	101300000	1000	0	0	-1	250
26973275	5918	1177	0	-100	0	230	101300000	1000	0	0	-1	250
26985835	5927	1174	0	-100	0	230	101300000	1000	0	0	-1	250
26998395	5922	1172	0	-100	0	230	101300000	1000	0	0	-1	250
27010955	5924	1176	0	-100	0	230	101300000	1000	0	0	-1	250
27023515	5929	1166	0	-100	0	230	101300000	1000	0	0	-1	250
27036075	5919	1174	0	-100	0	230	101300000	1000	0	0	-1	250
27048635	5918	1173	0	-100	0	230	101300000	1000	0	0	-1	250
