timestamp	voltage	current	windSpeed	pitchAngle	rpm	temperature	ambientPressure	humidity	accelerationX	accelerationY	accelerationZ	currentSink
7040070	6019	862	0	-100	0	230	101300000	1000	0	0	-1	0
7047523	6019	865	0	-100	0	230	101300000	1000	0	0	-1	0
7060083	6017	861	0	-100	0	230	101300000	1000	0	0	-1	0
7072643	6019	860	0	-100	0	230	101300000	1000	0	0	-1	0
7085203	6018	867	0	-100	0	230	101300000	1000	0	0	-1	0
7097763	6016	863	0	-100	0	230	101300000	1000	0	0	-1	0
7110323	6016	864	0	-100	0	230	101300000	1000	0	0	-1	0
7122883	6015	859	0	-100	0	230	101300000	1000	0	0	-1	0
7135443	6019	865	0	-100	0	230	101300000	1000	0	0	-1	0
7148004	6016	865	0	-100	0	230	101300000	1000	0	0	-1	0
7160563	6016	860	0	-100	0	230	101300000	1000	0	0	-1	0
7173123	6020	860	0	-100	0	230	101300000	1000	0	0	-1	0
7185683	6022	859	0	-100	0	230	101300000	1000	0	0	-1	0
7198243	6024	858	0	-100	0	230	101300000	1000	0	0	-1	0
7210803	6019	861	0	-100	0	230	101300000	1000	0	0	-1	0
7223363	6020	856	0	-100	0	230	101300000	1000	0	0	-1	0
7235923	6014	859	0	-100	0	230	101300000	1000	0	0	-1	0
7248483	6013	866	0	-100	0	230	101300000	1000	0	0	-1	0
7261043	6016	862	0	-100	0	230	101300000	1000	0	0	-1	0
7273603	6017	857	0	-100	0	230	101300000	1000	0	0	-1	0
7286163	6009	861	0	-100	0	230	101300000	1000	0	0	-1	0
7298723	6021	870	0	-100	0	230	101300000	1000	0	0	-1	0
7311283	6016	860	0	-100	0	230	101300000	1000	0	0	-1	0
7323843	6022	861	0	-100	0	230	101300000	1000	0	0	-1	0
7336403	6025	864	0	-100	0	230	101300000	1000	0	0	-1	0
7348963	6026	860	0	-100	0	230	101300000	1000	0	0	-1	0
7707235	5915	1248	0	-100	0	230	101300000	1000	0	0	-1	300
7719795	5911	1249	0	-100	0	230	101300000	1000	0	0	-1	300
7732355	5914	1250	0	-100	0	230	101300000	1000	0	0	-1	300
7744915	5916	1244	0	-100	0	230	101300000	1000	0	0	-1	300
7757475	5911	1247	0	-100	0	230	101300000	1000	0	0	-1	300
7770035	5913	1246	0	-100	0	230	101300000	1000	0	0	-1	300
7782595	5919	1244	0	-100	0	230	101300000	1000	0	0	-1	300
7795155	5902	1241	0	-100	0	230	101300000	1000	0	0	-1	300
7807715	5910	1244	0	-100	0	230	101300000	1000	0	0	-1	300
7820275	5915	1246	0	-100	0	230	101300000	1000	0	0	-1	300
7832835	5920	1246	0	-100	0	230	101300000	1000	0	0	-1	300
7845395	5916	1249	0	-100	0	230	101300000	1000	0	0	-1	300
7857955	5917	1241	0	-100	0	230	101300000	1000	0	0	-1	300
7870515	5908	1250	0	-100	0	230	101300000	1000	0	0	-1	300
7883075	5911	1241	0	-100	0	230	101300000	1000	0	0	-1	300
7895635	5910	1250	0	-100	0	230	101300000	1000	0	0	-1	300
7908195	5917	1248	0	-100	0	230	101300000	1000	0	0	-1	300
7920755	5916	1252	0	-100	0	230	101300000	1000	0	0	-1	300
7933315	5913	1246	0	-100	0	230	101300000	1000	0	0	-1	300
7945875	5914	1236	0	-100	0	230	101300000	1000	0	0	-1	300
7958435	5912	1242	0	-100	0	230	101300000	1000	0	0	-1	300
7970995	5909	1246	0	-100	0	230	101300000	1000	0	0	-1	300
7983555	5907	1249	0	-100	0	230	101300000	1000	0	0	-1	300
7996115	5912	1243	0	-100	0	230	101300000	1000	0	0	-1	300
8008675	5918	1241	0	-100	0	230	101300000	1000	0	0	-1	300
8021235	5910	1244	0	-100	0	230	101300000	1000	0	0	-1	300
8033795	5908	1246	0	-100	0	230	101300000	1000	0	0	-1	300
8046355	5911	1243	0	-100	0	230	101300000	1000	0	0	-1	300
8058915	5908	1254	0	-100	0	230	101300000	1000	0	0	-1	300
8071475	5910	1250	0	-100	0	230	101300000	1000	0	0	-1	300
8084035	5913	1246	0	-100	0	230	101300000	1000	0	0	-1	300
8096595	5915	1247	0	-100	0	230	101300000	1000	0	0	-1	300
8109155	5905	1244	0	-100	0	230	101300000	1000	0	0	-1	300
8121715	5911	1247	0	-100	0	230	101300000	1000	0	0	-1	300
8134275	5910	1250	0	-100	0	230	101300000	1000	0	0	-1	300
8146835	5918	1255	0	-100	0	230	101300000	1000	0	0	-1	300
8159395	5915	1242	0	-100	0	230	101300000	1000	0	0	-1	300
8171955	5917	1241	0	-100	0	230	101300000	1000	0	0	-1	300
8184515	5911	1245	0	-100	0	230	101300000	1000	0	0	-1	300
8197075	5911	1252	0	-100	0	230	101300000	1000	0	0	-1	300
8209635	5915	1245	0	-100	0	230	101300000	1000	0	0	-1	300
8222195	5910	1252	0	-100	0	230	101300000	1000	0	0	-1	300
8234755	5911	1247	0	-100	0	230	101300000	1000	0	0	-1	300
8247315	5916	1246	0	-100	0	230	101300000	1000	0	0	-1	300
8259875	5914	1242	0	-100	0	230	101300000	1000	0	0	-1	300
8272435	5911	1245	0	-100	0	230	101300000	1000	0	0	-1	300
8284995	5912	1252	0	-100	0	230	101300000	1000	0	0	-1	300
8297555	5911	1252	0	-100	0	230	101300000	1000	0	0	-1	300
8310115	5915	1251	0	-100	0	230	101300000	1000	0	0	-1	300
8322675	5913	1251	0	-100	0	230	101300000	1000	0	0	-1	300
8335235	5906	1250	0	-100	0	230	101300000	1000	0	0	-1	300
8347795	5911	1253	0	-100	0	230	101300000	1000	0	0	-1	300
8360355	5911	1243	0	-100	0	230	101300000	1000	0	0	-1	300
8372915	5913	1255	0	-100	0	230	101300000	1000	0	0	-1	300
8385475	5918	1256	0	-100	0	230	101300000	1000	0	0	-1	300
8398035	5912	1242	0	-100	0	230	101300000	1000	0	0	-1	300
8410595	5912	1250	0	-100	0	230	101300000	1000	0	0	-1	300
8423155	5905	1243	0	-100	0	230	101300000	1000	0	0	-1	300
8435715	5906	1244	0	-100	0	230	101300000	1000	0	0	-1	300
8448275	5911	1246	0	-100	0	230	101300000	1000	0	0	-1	300
8460835	5911	1247	0	-100	0	230	101300000	1000	0	0	-1	300
8473395	5912	1248	0	-100	0	230	101300000	1000	0	0	-1	300
8485955	5912	1251	0	-100	0	230	101300000	1000	0	0	-1	300
8498515	5918	1249	0	-100	0	230	101300000	1000	0	0	-1	300
8511075	5915	1243	0	-100	0	230	101300000	1000	0	0	-1	300
8523635	5911	1249	0	-100	0	230	101300000	1000	0	0	-1	300
8536195	5911	1249	0	-100	0	230	101300000	1000	0	0	-1	300
8548755	5912	1248	0	-100	0	230	101300000	1000	0	0	-1	300
8561315	5912	1248	0	-100	0	230	101300000	1000	0	0	-1	300
8573875	5912	1247	0	-100	0	230	101300000	1000	0	0	-1	300
8586435	5912	1243	0	-100	0	230	101300000	1000	0	0	-1	300
8598995	5909	1249	0	-100	0	230	101300000	1000	0	0	-1	300
8611555	5907	1246	0	-100	0	230	101300000	1000	0	0	-1	300
8624115	5905	1249	0	-100	0	230	101300000	1000	0	0	-1	300
8636675	5912	1255	0	-100	0	230	101300000	1000	0	0	-1	300
8649235	5915	1250	0	-100	0	230	101300000	1000	0	0	-1	300
8661795	5915	1240	0	-100	0	230	101300000	1000	0	0	-1	300
8674355	5917	1244	0	-100	0	230	101300000	1000	0	0	-1	300
8686915	5909	1240	0	-100	0	230	101300000	1000	0	0	-1	300
8699475	5912	1246	0	-100	0	230	101300000	1000	0	0	-1	300
8712035	5911	1250	0	-100	0	230	101300000	1000	0	0	-1	300
8724595	5917	1246	0	-100	0	230	101300000	1000	0	0	-1	300
8737155	5912	1246	0	-100	0	230	101300000	1000	0	0	-1	300
8749715	5916	1240	0	-100	0	230	101300000	1000	0	0	-1	300
8762275	5911	1251	0	-100	0	230	101300000	1000	0	0	-1	300
8774835	5912	1245	0	-100	0	230	101300000	1000	0	0	-1	300
8787395	5912	1246	0	-100	0	230	101300000	1000	0	0	-1	300
8799955	5912	1253	0	-100	0	230	101300000	1000	0	0	-1	300
8812515	5911	1251	0	-100	0	230	101300000	1000	0	0	-1	300
8825075	5915	1243	0	-100	0	230	101300000	1000	0	0	-1	300
8837635	5913	1252	0	-100	0	230	101300000	1000	0	0	-1	300
8850195	5907	1248	0	-100	0	230	101300000	1000	0	0	-1	300
8862755	5912	1245	0	-100	0	230	101300000	1000	0	0	-1	300
8875315	5912	1250	0	-100	0	230	101300000	1000	0	0	-1	300
8887875	5911	1247	0	-100	0	230	101300000	1000	0	0	-1	300
8900435	5911	1252	0	-100	0	230	101300000	1000	0	0	-1	300
8912995	5915	1245	0	-100	0	230	101300000	1000	0	0	-1	300
8925555	5915	1247	0	-100	0	230	101300000	1000	0	0	-1	300
8938115	5914	1248	0	-100	0	230	101300000	1000	0	0	-1	300
8950675	5911	1239	0	-100	0	230	101300000	1000	0	0	-1	300
8963235	5913	1243	0	-100	0	230	101300000	1000	0	0	-1	300
8975795	5911	1249	0	-100	0	230	101300000	1000	0	0	-1	300
8988355	5916	1246	0	-100	0	230	101300000	1000	0	0	-1	300
9000915	5908	1242	0	-100	0	230	101300000	1000	0	0	-1	300
9013475	5915	1247	0	-100	0	230	101300000	1000	0	0	-1	300
9026035	5917	1243	0	-100	0	230	101300000	1000	0	0	-1	300
9038595	5915	1239	0	-100	0	230	101300000	1000	0	0	-1	300
9051155	5909	1247	0	-100	0	230	101300000	1000	0	0	-1	300
9063715	5911	1240	0	-100	0	230	101300000	1000	0	0	-1	300
9076275	5907	1246	0	-100	0	230	101300000	1000	0	0	-1	300
9088835	5910	1255	0	-100	0	230	101300000	1000	0	0	-1	300
9101395	5915	1244	0	-100	0	230	101300000	1000	0	0	-1	300
9113955	5915	1252	0	-100	0	230	101300000	1000	0	0	-1	300
9126515	5923	1252	0	-100	0	230	101300000	1000	0	0	-1	300
9139075	5916	1245	0	-100	0	230	101300000	1000	0	0	-1	300
9151635	5914	1244	0	-100	0	230	101300000	1000	0	0	-1	300
9164195	5914	1242	0	-100	0	230	101300000	1000	0	0	-1	300
9176755	5914	1247	0	-100	0	230	101300000	1000	0	0	-1	300
9189315	5911	1252	0	-100	0	230	101300000	1000	0	0	-1	300
9201875	5911	1251	0	-100	0	230	101300000	1000	0	0	-1	300
9214435	5910	1248	0	-100	0	230	101300000	1000	0	0	-1	300
9226995	5922	1250	0	-100	0	230	101300000	1000	0	0	-1	300
9239555	5910	1242	0	-100	0	230	101300000	1000	0	0	-1	300
9252115	5909	1248	0	-100	0	230	101300000	1000	0	0	-1	300
9264675	5911	1245	0	-100	0	230	101300000	1000	0	0	-1	300
9277235	5910	1250	0	-100	0	230	101300000	1000	0	0	-1	300
9289795	5916	1254	0	-100	0	230	101300000	1000	0	0	-1	300
9302355	5914	1243	0	-100	0	230	101300000	1000	0	0	-1	300
9314915	5913	1247	0	-100	0	230	101300000	1000	0	0	-1	300
9327475	5908	1246	0	-100	0	230	101300000	1000	0	0	-1	300
9340035	5915	1247	0	-100	0	230	101300000	1000	0	0	-1	300
9352595	5912	1248	0	-100	0	230	101300000	1000	0	0	-1	300
9365155	5907	1256	0	-100	0	230	101300000	1000	0	0	-1	300
9377715	5915	1247	0	-100	0	230	101300000	1000	0	0	-1	300
9390275	5916	1249	0	-100	0	230	101300000	1000	0	0	-1	300
9402835	5918	1242	0	-100	0	230	101300000	1000	0	0	-1	300
9415395	5916	1243	0	-100	0	230	101300000	1000	0	0	-1	300
9427955	5915	1244	0	-100	0	230	101300000	1000	0	0	-1	300
9440515	5911	1248	0	-100	0	230	101300000	1000	0	0	-1	300
9453075	5911	1247	0	-100	0	230	101300000	1000	0	0	-1	300
9465635	5909	1245	0	-100	0	230	101300000	1000	0	0	-1	300
9478195	5911	1254	0	-100	0	230	101300000	1000	0	0	-1	300
9490755	5913	1244	0	-100	0	230	101300000	1000	0	0	-1	300
9503315	5916	1249	0	-100	0	230	101300000	1000	0	0	-1	300
9515875	5916	1245	0	-100	0	230	101300000	1000	0	0	-1	300
9528435	5911	1251	0	-100	0	230	101300000	1000	0	0	-1	300
9540995	5907	1242	0	-100	0	230	101300000	1000	0	0	-1	300
9553555	5908	1254	0	-100	0	230	101300000	1000	0	0	-1	300
9566115	5910	1253	0	-100	0	230	101300000	1000	0	0	-1	300
9578675	5913	1251	0	-100	0	230	101300000	1000	0	0	-1	300
9591235	5915	1245	0	-100	0	230	101300000	1000	0	0	-1	300
9603795	5921	1248	0	-100	0	230	101300000	1000	0	0	-1	300
9616355	5910	1244	0	-100	0	230	101300000	1000	0	0	-1	300
9628915	5910	1253	0	-100	0	230	101300000	1000	0	0	-1	300
9641475	5911	1247	0	-100	0	230	101300000	1000	0	0	-1	300
9654035	5918	1246	0	-100	0	230	101300000	1000	0	0	-1	300
9666595	5911	1248	0	-100	0	230	101300000	1000	0	0	-1	300
9679155	5906	1246	0	-100	0	230	101300000	1000	0	0	-1	300
9691715	5914	1246	0	-100	0	230	101300000	1000	0	0	-1	300
9704275	5916	1247	0	-100	0	230	101300000	1000	0	0	-1	300
9716835	5912	1244	0	-100	0	230	101300000	1000	0	0	-1	300
9729395	5909	1251	0	-100	0	230	101300000	1000	0	0	-1	300
9741955	5909	1250	0	-100	0	230	101300000	1000	0	0	-1	300
9754515	5911	1249	0	-100	0	230	101300000	1000	0	0	-1	300
9767075	5909	1248	0	-100	0	230	101300000	1000	0	0	-1	300
9779635	5915	1246	0	-100	0	230	101300000	1000	0	0	-1	300
9792195	5914	1249	0	-100	0	230	101300000	1000	0	0	-1	300
9804755	5914	1250	0	-100	0	230	101300000	1000	0	0	-1	300
9817315	5911	1247	0	-100	0	230	101300000	1000	0	0	-1	300
9829875	5912	1253	0	-100	0	230	101300000	1000	0	0	-1	300
9842435	5909	1244	0	-100	0	230	101300000	1000	0	0	-1	300
9854995	5920	1251	0	-100	0	230	101300000	1000	0	0	-1	300
9867555	5915	1245	0	-100	0	230	101300000	1000	0	0	-1	300
9880115	5915	1248	0	-100	0	230	101300000	1000	0	0	-1	300
9892675	5915	1247	0	-100	0	230	101300000	1000	0	0	-1	300
9905235	5910	1246	0	-100	0	230	101300000	1000	0	0	-1	300
9917795	5915	1251	0	-100	0	230	101300000	1000	0	0	-1	300
9930355	5918	1247	0	-100	0	230	101300000	1000	0	0	-1	300
9942915	5915	1250	0	-100	0	230	101300000	1000	0	0	-1	300
9955475	5915	1241	0	-100	0	230	101300000	1000	0	0	-1	300
9968035	5910	1249	0	-100	0	230	101300000	1000	0	0	-1	300
9980595	5913	1242	0	-100	0	230	101300000	1000	0	0	-1	300
9993155	5907	1249	0	-100	0	230	101300000	1000	0	0	-1	300
10005715	5912	1247	0	-100	0	230	101300000	1000	0	0	-1	300
10018275	5908	1249	0	-100	0	230	101300000	1000	0	0	-1	300
10030835	5908	1251	0	-100	0	230	101300000	1000	0	0	-1	300
10043395	5912	1243	0	-100	0	230	101300000	1000	0	0	-1	300
10055955	5922	1246	0	-100	0	230	101300000	1000	0	0	-1	300
10068515	5918	1254	0	-100	0	230	101300000	1000	0	0	-1	300
10081075	5909	1245	0	-100	0	230	101300000	1000	0	0	-1	300
10093635	5909	1248	0	-100	0	230	101300000	1000	0	0	-1	300
10106195	5912	1245	0	-100	0	230	101300000	1000	0	0	-1	300
10118755	5908	1254	0	-100	0	230	101300000	1000	0	0	-1	300
10131315	5910	1245	0	-100	0	230	101300000	1000	0	0	-1	300
10143875	5911	1250	0	-100	0	230	101300000	1000	0	0	-1	300
10156435	5915	1242	0	-100	0	230	101300000	1000	0	0	-1	300
10168995	5918	1254	0	-100	0	230	101300000	1000	0	0	-1	300
10181555	5915	1243	0	-100	0	230	101300000	1000	0	0	-1	300
10194115	5909	1242	0	-100	0	230	101300000	1000	0	0	-1	300
10206675	5911	1244	0	-100	0	230	101300000	1000	0	0	-1	300
10219235	5911	1248	0	-100	0	230	101300000	1000	0	0	-1	300
10231795	5910	1250	0	-100	0	230	101300000	1000	0	0	-1	300
10244355	5915	1251	0	-100	0	230	101300000	1000	0	0	-1	300
10256915	5919	1239	0	-100	0	230	101300000	1000	0	0	-1	300
10269475	5914	1248	0	-100	0	230	101300000	1000	0	0	-1	300
10282035	5912	1244	0	-100	0	230	101300000	1000	0	0	-1	300
10294595	5909	1248	0	-100	0	230	101300000	1000	0	0	-1	300
10307155	5902	1245	0	-100	0	230	101300000	1000	0	0	-1	300
10319715	5923	1254	0	-100	0	230	101300000	1000	0	0	-1	300
10332275	5912	1249	0	-100	0	230	101300000	1000	0	0	-1	300
10344835	5908	1246	0	-100	0	230	101300000	1000	0	0	-1	300
10357395	5909	1247	0	-100	0	230	101300000	1000	0	0	-1	300
10369955	5910	1248	0	-100	0	230	101300000	1000	0	0	-1	300
10382515	5915	1253	0	-100	0	230	101300000	1000	0	0	-1	300
10395075	5915	1247	0	-100	0	230	101300000	1000	0	0	-1	300
10407635	5911	1246	0	-100	0	230	101300000	1000	0	0	-1	300
10420195	5910	1243	0	-100	0	230	101300000	1000	0	0	-1	300
10432755	5918	1248	0	-100	0	230	101300000	1000	0	0	-1	300
10445315	5915	1252	0	-100	0	230	101300000	1000	0	0	-1	300
10457875	5915	1252	0	-100	0	230	101300000	1000	0	0	-1	300
10470435	5907	1244	0	-100	0	230	101300000	1000	0	0	-1	300
10482995	5910	1245	0	-100	0	230	101300000	1000	0	0	-1	300
10495555	5913	1242	0	-100	0	230	101300000	1000	0	0	-1	300
10508115	5910	1253	0	-100	0	230	101300000	1000	0	0	-1	300
10520675	5912	1254	0	-100	0	230	101300000	1000	0	0	-1	300
10533235	5912	1252	0	-100	0	230	101300000	1000	0	0	-1	300
10545795	5918	1248	0	-100	0	230	101300000	1000	0	0	-1	300
10558355	5913	1250	0	-100	0	230	101300000	1000	0	0	-1	300
10570915	5910	1245	0	-100	0	230	101300000	1000	0	0	-1	300
10583475	5907	1241	0	-100	0	230	101300000	1000	0	0	-1	300
10596035	5912	1247	0	-100	0	230	101300000	1000	0	0	-1	300
10608595	5907	1237	0	-100	0	230	101300000	1000	0	0	-1	300
10621155	5904	1245	0	-100	0	230	101300000	1000	0	0	-1	300
10633715	5911	1250	0	-100	0	230	101300000	1000	0	0	-1	300
10646275	5913	1248	0	-100	0	230	101300000	1000	0	0	-1	300
10658835	5915	1243	0	-100	0	230	101300000	1000	0	0	-1	300
10671395	5908	1248	0	-100	0	230	101300000	1000	0	0	-1	300
10683955	5911	1245	0	-100	0	230	101300000	1000	0	0	-1	300
10696515	5914	1245	0	-100	0	230	101300000	1000	0	0	-1	300
10709075	5915	1248	0	-100	0	230	101300000	1000	0	0	-1	300
10721635	5914	1241	0	-100	0	230	101300000	1000	0	0	-1	300
10734195	5906	1242	0	-100	0	230	101300000	1000	0	0	-1	300
10746755	5911	1248	0	-100	0	230	101300000	1000	0	0	-1	300
10759315	5913	1249	0	-100	0	230	101300000	1000	0	0	-1	300
10771875	5915	1247	0	-100	0	230	101300000	1000	0	0	-1	300
10784435	5914	1250	0	-100	0	230	101300000	1000	0	0	-1	300
10796995	5913	1249	0	-100	0	230	101300000	1000	0	0	-1	300
10809555	5911	1242	0	-100	0	230	101300000	1000	0	0	-1	300
10822115	5908	1247	0	-100	0	230	101300000	1000	0	0	-1	300
10834675	5911	1248	0	-100	0	230	101300000	1000	0	0	-1	300
10847235	5914	1249	0	-100	0	230	101300000	1000	0	0	-1	300
10859795	5914	1249	0	-100	0	230	101300000	1000	0	0	-1	300
10872355	5915	1251	0	-100	0	230	101300000	1000	0	0	-1	300
10884915	5916	1241	0	-100	0	230	101300000	1000	0	0	-1	300
10897475	5915	1242	0	-100	0	230	101300000	1000	0	0	-1	300
10910035	5916	1251	0	-100	0	230	101300000	1000	0	0	-1	300
10922595	5909	1241	0	-100	0	230	101300000	1000	0	0	-1	300
10935155	5902	1250	0	-100	0	230	101300000	1000	0	0	-1	300
10947715	5915	1257	0	-100	0	230	101300000	1000	0	0	-1	300
10960275	5912	1244	0	-100	0	230	101300000	1000	0	0	-1	300
10972835	5916	1251	0	-100	0	230	101300000	1000	0	0	-1	300
10985395	5915	1246	0	-100	0	230	101300000	1000	0	0	-1	300
10997955	5912	1241	0	-100	0	230	101300000	1000	0	0	-1	300
11010515	5911	1239	0	-100	0	230	101300000	1000	0	0	-1	300
11023075	5910	1251	0	-100	0	230	101300000	1000	0	0	-1	300
11035635	5918	1246	0	-100	0	230	101300000	1000	0	0	-1	300
11048195	5911	1242	0	-100	0	230	101300000	1000	0	0	-1	300
11060755	5911	1243	0	-100	0	230	101300000	1000	0	0	-1	300
11073315	5908	1242	0	-100	0	230	101300000	1000	0	0	-1	300
11085875	5912	1253	0	-100	0	230	101300000	1000	0	0	-1	300
11098435	5919	1252	0	-100	0	230	101300000	1000	0	0	-1	300
11110995	5915	1245	0	-100	0	230	101300000	1000	0	0	-1	300
11123555	5908	1244	0	-100	0	230	101300000	1000	0	0	-1	300
11136115	5914	1247	0	-100	0	230	101300000	1000	0	0	-1	300
11148675	5914	1241	0	-100	0	230	101300000	1000	0	0	-1	300
11161235	5914	1241	0	-100	0	230	101300000	1000	0	0	-1	300
11173795	5919	1244	0	-100	0	230	101300000	1000	0	0	-1	300
11186355	5915	1248	0	-100	0	230	101300000	1000	0	0	-1	300
11198915	5907	1247	0	-100	0	230	101300000	1000	0	0	-1	300
11211475	5910	1253	0	-100	0	230	101300000	1000	0	0	-1	300
11224035	5914	1250	0	-100	0	230	101300000	1000	0	0	-1	300
11236595	5914	1249	0	-100	0	230	101300000	1000	0	0	-1	300
11249155	5910	1241	0	-100	0	230	101300000	1000	0	0	-1	300
11261715	5914	1243	0	-100	0	230	101300000	1000	0	0	-1	300
11274275	5916	1240	0	-100	0	230	101300000	1000	0	0	-1	300
11286835	5915	1248	0	-100	0	230	101300000	1000	0	0	-1	300
11299395	5909	1242	0	-100	0	230	101300000	1000	0	0	-1	300
11311955	5911	1255	0	-100	0	230	101300000	1000	0	0	-1	300
11324515	5911	1244	0	-100	0	230	101300000	1000	0	0	-1	300
11337075	5910	1245	0	-100	0	230	101300000	1000	0	0	-1	300
11349635	5912	1243	0	-100	0	230	101300000	1000	0	0	-1	300
11362195	5915	1242	0	-100	0	230	101300000	1000	0	0	-1	300
11374755	5912	1249	0	-100	0	230	101300000	1000	0	0	-1	300
11387315	5914	1246	0	-100	0	230	101300000	1000	0	0	-1	300
11399875	5913	1252	0	-100	0	230	101300000	1000	0	0	-1	300
11412435	5910	1247	0	-100	0	230	101300000	1000	0	0	-1	300
11424995	5907	1247	0	-100	0	230	101300000	1000	0	0	-1	300
11437555	5905	1251	0	-100	0	230	101300000	1000	0	0	-1	300
11450115	5912	1243	0	-100	0	230	101300000	1000	0	0	-1	300
11462675	5910	1250	0	-100	0	230	101300000	1000	0	0	-1	300
11475235	5908	1249	0	-100	0	230	101300000	1000	0	0	-1	300
11487795	5908	1255	0	-100	0	230	101300000	1000	0	0	-1	300
11500355	5911	1246	0	-100	0	230	101300000	1000	0	0	-1	300
11512915	5923	1246	0	-100	0	230	101300000	1000	0	0	-1	300
11525475	5915	1240	0	-100	0	230	101300000	1000	0	0	-1	300
11538035	5911	1243	0	-100	0	230	101300000	1000	0	0	-1	300
11550595	5906	1247	0	-100	0	230	101300000	1000	0	0	-1	300
11563155	5901	1250	0	-100	0	230	101300000	1000	0	0	-1	300
11575715	5907	1248	0	-100	0	230	101300000	1000	0	0	-1	300
11588275	5911	1251	0	-100	0	230	101300000	1000	0	0	-1	300
11600835	5911	1254	0	-100	0	230	101300000	1000	0	0	-1	300
11613395	5913	1251	0	-100	0	230	101300000	1000	0	0	-1	300
11625955	5913	1247	0	-100	0	230	101300000	1000	0	0	-1	300
11638515	5915	1249	0	-100	0	230	101300000	1000	0	0	-1	300
11651075	5917	1251	0	-100	0	230	101300000	1000	0	0	-1	300
11663635	5919	1247	0	-100	0	230	101300000	1000	0	0	-1	300
11676195	5920	1246	0	-100	0	230	101300000	1000	0	0	-1	300
11688755	5915	1242	0	-100	0	230	101300000	1000	0	0	-1	300
11701315	5916	1249	0	-100	0	230	101300000	1000	0	0	-1	300
11713875	5912	1244	0	-100	0	230	101300000	1000	0	0	-1	300
11726435	5909	1243	0	-100	0	230	101300000	1000	0	0	-1	300
11738995	5907	1247	0	-100	0	230	101300000	1000	0	0	-1	300
11751555	5915	1254	0	-100	0	230	101300000	1000	0	0	-1	300
11764115	5910	1246	0	-100	0	230	101300000	1000	0	0	-1	300
11776675	5914	1246	0	-100	0	230	101300000	1000	0	0	-1	300
11789235	5911	1242	0	-100	0	230	101300000	1000	0	0	-1	300
11801795	5919	1245	0	-100	0	230	101300000	1000	0	0	-1	300
11814355	5913	1244	0	-100	0	230	101300000	1000	0	0	-1	300
11826915	5905	1246	0	-100	0	230	101300000	1000	0	0	-1	300
11839475	5911	1257	0	-100	0	230	101300000	1000	0	0	-1	300
11852035	5914	1245	0	-100	0	230	101300000	1000	0	0	-1	300
11864595	5916	1248	0	-100	0	230	101300000	1000	0	0	-1	300
11877155	5902	1248	0	-100	0	230	101300000	1000	0	0	-1	300
11889715	5912	1248	0	-100	0	230	101300000	1000	0	0	-1	300
11902275	5918	1248	0	-100	0	230	101300000	1000	0	0	-1	300
11914835	5907	1242	0	-100	0	230	101300000	1000	0	0	-1	300
11927395	5914	1250	0	-100	0	230	101300000	1000	0	0	-1	300
11939955	5912	1247	0	-100	0	230	101300000	1000	0	0	-1	300
11952515	5918	1251	0	-100	0	230	101300000	1000	0	0	-1	300
11965075	5913	1244	0	-100	0	230	101300000	1000	0	0	-1	300
11977635	5909	1241	0	-100	0	230	101300000	1000	0	0	-1	300
11990195	5912	1247	0	-100	0	230	101300000	1000	0	0	-1	300
12002755	5919	1244	0	-100	0	230	101300000	1000	0	0	-1	300
12015315	5913	1243	0	-100	0	230	101300000	1000	0	0	-1	300
12027875	5909	1253	0	-100	0	230	101300000	1000	0	0	-1	300
12040435	5919	1256	0	-100	0	230	101300000	1000	0	0	-1	300
12052995	5911	1242	0	-100	0	230	101300000	1000	0	0	-1	300
12065555	5913	1254	0	-100	0	230	101300000	1000	0	0	-1	300
12078115	5919	1247	0	-100	0	230	101300000	1000	0	0	-1	300
12090675	5912	1246	0	-100	0	230	101300000	1000	0	0	-1	300
12103235	5914	1249	0	-100	0	230	101300000	1000	0	0	-1	300
12115795	5910	1248	0	-100	0	230	101300000	1000	0	0	-1	300
12128355	5914	1242	0	-100	0	230	101300000	1000	0	0	-1	300
12140915	5912	1248	0	-100	0	230	101300000	1000	0	0	-1	300
12153475	5918	1242	0	-100	0	230	101300000	1000	0	0	-1	300
12166035	5911	1251	0	-100	0	230	101300000	1000	0	0	-1	300
12178595	5911	1249	0	-100	0	230	101300000	1000	0	0	-1	300
12191155	5905	1248	0	-100	0	230	101300000	1000	0	0	-1	300
12203715	5919	1243	0	-100	0	230	101300000	1000	0	0	-1	300
12216275	5909	1250	0	-100	0	230	101300000	1000	0	0	-1	300
12228835	5910	1255	0	-100	0	230	101300000	1000	0	0	-1	300
12241395	5915	1242	0	-100	0	230	101300000	1000	0	0	-1	300
12253955	5908	1249	0	-100	0	230	101300000	1000	0	0	-1	300
12266515	5914	1249	0	-100	0	230	101300000	1000	0	0	-1	300
12279075	5915	1247	0	-100	0	230	101300000	1000	0	0	-1	300
12291635	5911	1246	0	-100	0	230	101300000	1000	0	0	-1	300
12304195	5923	1253	0	-100	0	230	101300000	1000	0	0	-1	300
12316755	5913	1247	0	-100	0	230	101300000	1000	0	0	-1	300
12329315	5908	1251	0	-100	0	230	101300000	1000	0	0	-1	300
12341875	5921	1247	0	-100	0	230	101300000	1000	0	0	-1	300
12354435	5913	1245	0	-100	0	230	101300000	1000	0	0	-1	300
12366995	5909	1244	0	-100	0	230	101300000	1000	0	0	-1	300
12379555	5912	1249	0	-100	0	230	101300000	1000	0	0	-1	300
12392115	5915	1251	0	-100	0	230	101300000	1000	0	0	-1	300
12404675	5907	1245	0	-100	0	230	101300000	1000	0	0	-1	300
12417235	5911	1251	0	-100	0	230	101300000	1000	0	0	-1	300
12429795	5917	1257	0	-100	0	230	101300000	1000	0	0	-1	300
12442355	5907	1250	0	-100	0	230	101300000	1000	0	0	-1	300
12454915	5910	1244	0	-100	0	230	101300000	1000	0	0	-1	300
12467475	5917	1246	0	-100	0	230	101300000	1000	0	0	-1	300
12480035	5909	1248	0	-100	0	230	101300000	1000	0	0	-1	300
12492595	5908	1245	0	-100	0	230	101300000	1000	0	0	-1	300
12505155	5909	1244	0	-100	0	230	101300000	1000	0	0	-1	300
12517715	5911	1251	0	-100	0	230	101300000	1000	0	0	-1	300
12530275	5911	1246	0	-100	0	230	101300000	1000	0	0	-1	300
12542835	5907	1251	0	-100	0	230	101300000	1000	0	0	-1	300
12555395	5918	1244	0	-100	0	230	101300000	1000	0	0	-1	300
12567955	5915	1244	0	-100	0	230	101300000	1000	0	0	-1	300
12580515	5909	1244	0	-100	0	230	101300000	1000	0	0	-1	300
12593075	5912	1254	0	-100	0	230	101300000	1000	0	0	-1	300
12605635	5917	1240	0	-100	0	230	101300000	1000	0	0	-1	300
12618195	5919	1249	0	-100	0	230	101300000	1000	0	0	-1	300
12630755	5912	1243	0	-100	0	230	101300000	1000	0	0	-1	300
12643315	5910	1249	0	-100	0	230	101300000	1000	0	0	-1	300
12655875	5909	1246	0	-100	0	230	101300000	1000	0	0	-1	300
12668435	5915	1247	0	-100	0	230	101300000	1000	0	0	-1	300
12680995	5911	1244	0	-100	0	230	101300000	1000	0	0	-1	300
12693555	5912	1249	0	-100	0	230	101300000	1000	0	0	-1	300
12706115	5914	1250	0	-100	0	230	101300000	1000	0	0	-1	300
12718675	5911	1247	0	-100	0	230	101300000	1000	0	0	-1	300
12731235	5911	1248	0	-100	0	230	101300000	1000	0	0	-1	300
12743795	5917	1244	0	-100	0	230	101300000	1000	0	0	-1	300
12756355	5916	1245	0	-100	0	230	101300000	1000	0	0	-1	300
12768915	5906	1248	0	-100	0	230	101300000	1000	0	0	-1	300
12781475	5911	1251	0	-100	0	230	101300000	1000	0	0	-1	300
12794035	5916	1248	0	-100	0	230	101300000	1000	0	0	-1	300
12806595	5913	1252	0	-100	0	230	101300000	1000	0	0	-1	300
12819155	5909	1252	0	-100	0	230	101300000	1000	0	0	-1	300
12831715	5911	1240	0	-100	0	230	101300000	1000	0	0	-1	300
12844275	5913	1252	0	-100	0	230	101300000	1000	0	0	-1	300
12856835	5915	1251	0	-100	0	230	101300000	1000	0	0	-1	300
12869395	5913	1243	0	-100	0	230	101300000	1000	0	0	-1	300
12881955	5915	1247	0	-100	0	230	101300000	1000	0	0	-1	300
12894515	5915	1248	0	-100	0	230	101300000	1000	0	0	-1	300
12907075	5915	1241	0	-100	0	230	101300000	1000	0	0	-1	300
12919635	5912	1256	0	-100	0	230	101300000	1000	0	0	-1	300
12932195	5920	1251	0	-100	0	230	101300000	1000	0	0	-1	300
12944755	5911	1243	0	-100	0	230	101300000	1000	0	0	-1	300
12957315	5910	1249	0	-100	0	230	101300000	1000	0	0	-1	300
12969875	5919	1251	0	-100	0	230	101300000	1000	0	0	-1	300
12982435	5907	1244	0	-100	0	230	101300000	1000	0	0	-1	300
12994995	5912	1253	0	-100	0	230	101300000	1000	0	0	-1	300
13007555	5912	1241	0	-100	0	230	101300000	1000	0	0	-1	300
13020115	5910	1250	0	-100	0	230	101300000	1000	0	0	-1	300
13032675	5919	1253	0	-100	0	230	101300000	1000	0	0	-1	300
13045235	5909	1248	0	-100	0	230	101300000	1000	0	0	-1	300
13057795	5908	1250	0	-100	0	230	101300000	1000	0	0	-1	300
13070355	5915	1245	0	-100	0	230	101300000	1000	0	0	-1	300
13082915	5907	1247	0	-100	0	230	101300000	1000	0	0	-1	300
13095475	5915	1243	0	-100	0	230	101300000	1000	0	0	-1	300
13108035	5910	1245	0	-100	0	230	101300000	1000	0	0	-1	300
13120595	5911	1246	0	-100	0	230	101300000	1000	0	0	-1	300
13133155	5906	1248	0	-100	0	230	101300000	1000	0	0	-1	300
13145715	5912	1251	0	-100	0	230	101300000	1000	0	0	-1	300
13158275	5918	1253	0	-100	0	230	101300000	1000	0	0	-1	300
13170835	5910	1245	0	-100	0	230	101300000	1000	0	0	-1	300
13183395	5912	1252	0	-100	0	230	101300000	1000	0	0	-1	300
13195955	5909	1241	0	-100	0	230	101300000	1000	0	0	-1	300
13208515	5912	1247	0	-100	0	230	101300000	1000	0	0	-1	300
13221075	5911	1251	0	-100	0	230	101300000	1000	0	0	-1	300
13233635	5914	1254	0	-100	0	230	101300000	1000	0	0	-1	300
13246195	5919	1248	0	-100	0	230	101300000	1000	0	0	-1	300
13258755	5909	1246	0	-100	0	230	101300000	1000	0	0	-1	300
13271315	5921	1250	0	-100	0	230	101300000	1000	0	0	-1	300
13283875	5910	1244	0	-100	0	230	101300000	1000	0	0	-1	300
13296435	5913	1246	0	-100	0	230	101300000	1000	0	0	-1	300
13308995	5913	1250	0	-100	0	230	101300000	1000	0	0	-1	300
13321555	5907	1244	0	-100	0	230	101300000	1000	0	0	-1	300
13334115	5915	1251	0	-100	0	230	101300000	1000	0	0	-1	300
13346675	5908	1248	0	-100	0	230	101300000	1000	0	0	-1	300
13359235	5914	1244	0	-100	0	230	101300000	1000	0	0	-1	300
13371795	5907	1248	0	-100	0	230	101300000	1000	0	0	-1	300
13384355	5912	1249	0	-100	0	230	101300000	1000	0	0	-1	300
13396915	5912	1246	0	-100	0	230	101300000	1000	0	0	-1	300
13409475	5912	1248	0	-100	0	230	101300000	1000	0	0	-1	300
13422035	5918	1249	0	-100	0	230	101300000	1000	0	0	-1	300
13434595	5912	1247	0	-100	0	230	101300000	1000	0	0	-1	300
13447155	5905	1258	0	-100	0	230	101300000	1000	0	0	-1	300
13459715	5915	1248	0	-100	0	230	101300000	1000	0	0	-1	300
13472275	5911	1251	0	-100	0	230	101300000	1000	0	0	-1	300
13484835	5919	1248	0	-100	0	230	101300000	1000	0	0	-1	300
13497395	5913	1247	0	-100	0	230	101300000	1000	0	0	-1	300
13509955	5914	1247	0	-100	0	230	101300000	1000	0	0	-1	300
13522515	5915	1241	0	-100	0	230	101300000	1000	0	0	-1	300
13535075	5908	1248	0	-100	0	230	101300000	1000	0	0	-1	300
13547635	5916	1244	0	-100	0	230	101300000	1000	0	0	-1	300
13560195	5911	1242	0	-100	0	230	101300000	1000	0	0	-1	300
13572755	5912	1247	0	-100	0	230	101300000	1000	0	0	-1	300
13585315	5911	1240	0	-100	0	230	101300000	1000	0	0	-1	300
13597875	5912	1247	0	-100	0	230	101300000	1000	0	0	-1	300
13610435	5914	1239	0	-100	0	230	101300000	1000	0	0	-1	300
13622995	5908	1242	0	-100	0	230	101300000	1000	0	0	-1	300
13635555	5911	1252	0	-100	0	230	101300000	1000	0	0	-1	300
13648115	5912	1251	0	-100	0	230	101300000	1000	0	0	-1	300
13660675	5915	1247	0	-100	0	230	101300000	1000	0	0	-1	300
13673235	5919	1253	0	-100	0	230	101300000	1000	0	0	-1	300
13685795	5908	1246	0	-100	0	230	101300000	1000	0	0	-1	300
13698355	5920	1247	0	-100	0	230	101300000	1000	0	0	-1	300
13710915	5911	1254	0	-100	0	230	101300000	1000	0	0	-1	300
13723475	5909	1253	0	-100	0	230	101300000	1000	0	0	-1	300
13736035	5916	1245	0	-100	0	230	101300000	1000	0	0	-1	300
13748595	5911	1241	0	-100	0	230	101300000	1000	0	0	-1	300
13761155	5907	1253	0	-100	0	230	101300000	1000	0	0	-1	300
13773715	5915	1248	0	-100	0	230	101300000	1000	0	0	-1	300
13786275	5915	1247	0	-100	0	230	101300000	1000	0	0	-1	300
13798835	5912	1253	0	-100	0	230	101300000	1000	0	0	-1	300
13811395	5919	1243	0	-100	0	230	101300000	1000	0	0	-1	300
13823955	5912	1245	0	-100	0	230	101300000	1000	0	0	-1	300
13836515	5908	1251	0	-100	0	230	101300000	1000	0	0	-1	300
13849075	5912	1245	0	-100	0	230	101300000	1000	0	0	-1	300
13861635	5909	1246	0	-100	0	230	101300000	1000	0	0	-1	300
13874195	5911	1254	0	-100	0	230	101300000	1000	0	0	-1	300
13886755	5913	1245	0	-100	0	230	101300000	1000	0	0	-1	300
13899315	5916	1247	0	-100	0	230	101300000	1000	0	0	-1	300
13911875	5911	1247	0	-100	0	230	101300000	1000	0	0	-1	300
13924435	5905	1251	0	-100	0	230	101300000	1000	0	0	-1	300
13936995	5913	1253	0	-100	0	230	101300000	1000	0	0	-1	300
13949555	5917	1247	0	-100	0	230	101300000	1000	0	0	-1	300
13962115	5917	1238	0	-100	0	230	101300000	1000	0	0	-1	300
13974675	5915	1246	0	-100	0	230	101300000	1000	0	0	-1	300
13987235	5907	1253	0	-100	0	230	101300000	1000	0	0	-1	300
13999795	5913	1252	0	-100	0	230	101300000	1000	0	0	-1	300
14012355	5915	1244	0	-100	0	230	101300000	1000	0	0	-1	300
14024915	5912	1245	0	-100	0	230	101300000	1000	0	0	-1	300
14037475	5908	1243	0	-100	0	230	101300000	1000	0	0	-1	300
14050035	5911	1249	0	-100	0	230	101300000	1000	0	0	-1	300
14062595	5919	1250	0	-100	0	230	101300000	1000	0	0	-1	300
14075155	5908	1245	0	-100	0	230	101300000	1000	0	0	-1	300
14087715	5907	1247	0	-100	0	230	101300000	1000	0	0	-1	300
14100275	5912	1247	0	-100	0	230	101300000	1000	0	0	-1	300
14112835	5915	1240	0	-100	0	230	101300000	1000	0	0	-1	300
14125395	5916	1248	0	-100	0	230	101300000	1000	0	0	-1	300
14137955	5911	1245	0	-100	0	230	101300000	1000	0	0	-1	300
14150515	5911	1243	0	-100	0	230	101300000	1000	0	0	-1	300
14163075	5909	1246	0	-100	0	230	101300000	1000	0	0	-1	300
14175635	5919	1247	0	-100	0	230	101300000	1000	0	0	-1	300
14188195	5910	1252	0	-100	0	230	101300000	1000	0	0	-1	300
14200755	5911	1250	0	-100	0	230	101300000	1000	0	0	-1	300
14213315	5911	1245	0	-100	0	230	101300000	1000	0	0	-1	300
14225875	5915	1248	0	-100	0	230	101300000	1000	0	0	-1	300
14238435	5907	1250	0	-100	0	230	101300000	1000	0	0	-1	300
14250995	5911	1252	0	-100	0	230	101300000	1000	0	0	-1	300
14263555	5911	1245	0	-100	0	230	101300000	1000	0	0	-1	300
14276115	5908	1242	0	-100	0	230	101300000	1000	0	0	-1	300
14288675	5910	1246	0	-100	0	230	101300000	1000	0	0	-1	300
14301235	5908	1245	0	-100	0	230	101300000	1000	0	0	-1	300
14313795	5919	1251	0	-100	0	230	101300000	1000	0	0	-1	300
14326355	5913	1248	0	-100	0	230	101300000	1000	0	0	-1	300
14338915	5904	1245	0	-100	0	230	101300000	1000	0	0	-1	300
14351475	5912	1249	0	-100	0	230	101300000	1000	0	0	-1	300
14364035	5916	1246	0	-100	0	230	101300000	1000	0	0	-1	300
14376595	5907	1244	0	-100	0	230	101300000	1000	0	0	-1	300
14389155	5914	1253	0	-100	0	230	101300000	1000	0	0	-1	300
14401715	5908	1242	0	-100	0	230	101300000	1000	0	0	-1	300
14414275	5908	1252	0	-100	0	230	101300000	1000	0	0	-1	300
14426835	5912	1246	0	-100	0	230	101300000	1000	0	0	-1	300
14439395	5913	1244	0	-100	0	230	101300000	1000	0	0	-1	300
14451955	5912	1248	0	-100	0	230	101300000	1000	0	0	-1	300
14464515	5915	1250	0	-100	0	230	101300000	1000	0	0	-1	300
14477075	5915	1245	0	-100	0	230	101300000	1000	0	0	-1	300
14489635	5914	1249	0	-100	0	230	101300000	1000	0	0	-1	300
14502195	5911	1244	0	-100	0	230	101300000	1000	0	0	-1	300
14514755	5908	1243	0	-100	0	230	101300000	1000	0	0	-1	300
14527315	5915	1247	0	-100	0	230	101300000	1000	0	0	-1	300
14539875	5906	1246	0	-100	0	230	101300000	1000	0	0	-1	300
14552435	5914	1249	0	-100	0	230	101300000	1000	0	0	-1	300
14564995	5917	1250	0	-100	0	230	101300000	1000	0	0	-1	300
14577555	5912	1241	0	-100	0	230	101300000	1000	0	0	-1	300
14590115	5915	1251	0	-100	0	230	101300000	1000	0	0	-1	300
14602675	5915	1239	0	-100	0	230	101300000	1000	0	0	-1	300
14615235	5905	1247	0	-100	0	230	101300000	1000	0	0	-1	300
14627795	5909	1255	0	-100	0	230	101300000	1000	0	0	-1	300
14640355	5917	1244	0	-100	0	230	101300000	1000	0	0	-1	300
14652915	5911	1248	0	-100	0	230	101300000	1000	0	0	-1	300
14665475	5914	1245	0	-100	0	230	101300000	1000	0	0	-1	300
14678035	5907	1248	0	-100	0	230	101300000	1000	0	0	-1	300
14690595	5911	1251	0	-100	0	230	101300000	1000	0	0	-1	300
14703155	5907	1248	0	-100	0	230	101300000	1000	0	0	-1	300
14715715	5911	1243	0	-100	0	230	101300000	1000	0	0	-1	300
14728275	5909	1246	0	-100	0	230	101300000	1000	0	0	-1	300
14740835	5917	1248	0	-100	0	230	101300000	1000	0	0	-1	300
14753395	5909	1243	0	-100	0	230	101300000	1000	0	0	-1	300
14765955	5915	1240	0	-100	0	230	101300000	1000	0	0	-1	300
14778515	5909	1247	0	-100	0	230	101300000	1000	0	0	-1	300
14791075	5907	1252	0	-100	0	230	101300000	1000	0	0	-1	300
14803635	5915	1253	0	-100	0	230	101300000	1000	0	0	-1	300
14816195	5908	1241	0	-100	0	230	101300000	1000	0	0	-1	300
14828755	5905	1248	0	-100	0	230	101300000	1000	0	0	-1	300
14841315	5912	1254	0	-100	0	230	101300000	1000	0	0	-1	300
14853875	5909	1245	0	-100	0	230	101300000	1000	0	0	-1	300
14866435	5918	1247	0	-100	0	230	101300000	1000	0	0	-1	300
14878995	5918	1247	0	-100	0	230	101300000	1000	0	0	-1	300
14891555	5913	1247	0	-100	0	230	101300000	1000	0	0	-1	300
14904115	5908	1249	0	-100	0	230	101300000	1000	0	0	-1	300
14916675	5911	1254	0	-100	0	230	101300000	1000	0	0	-1	300
14929235	5913	1242	0	-100	0	230	101300000	1000	0	0	-1	300
14941795	5915	1252	0	-100	0	230	101300000	1000	0	0	-1	300
14954355	5910	1249	0	-100	0	230	101300000	1000	0	0	-1	300
14966915	5909	1245	0	-100	0	230	101300000	1000	0	0	-1	300
14979475	5907	1248	0	-100	0	230	101300000	1000	0	0	-1	300
14992035	5908	1250	0	-100	0	230	101300000	1000	0	0	-1	300
15004595	5918	1250	0	-100	0	230	101300000	1000	0	0	-1	300
15017155	5912	1247	0	-100	0	230	101300000	1000	0	0	-1	300
15029715	5912	1245	0	-100	0	230	101300000	1000	0	0	-1	300
15042275	5911	1246	0	-100	0	230	101300000	1000	0	0	-1	300
15054835	5910	1248	0	-100	0	230	101300000	1000	0	0	-1	300
15067395	5915	1248	0	-100	0	230	101300000	1000	0	0	-1	300
15079955	5913	1251	0	-100	0	230	101300000	1000	0	0	-1	300
15092515	5905	1246	0	-100	0	230	101300000	1000	0	0	-1	300
15105075	5912	1255	0	-100	0	230	101300000	1000	0	0	-1	300
15117635	5922	1248	0	-100	0	230	101300000	1000	0	0	-1	300
15130195	5915	1250	0	-100	0	230	101300000	1000	0	0	-1	300
15142755	5909	1242	0	-100	0	230	101300000	1000	0	0	-1	300
15155315	5911	1253	0	-100	0	230	101300000	1000	0	0	-1	300
15167875	5915	1242	0	-100	0	230	101300000	1000	0	0	-1	300
15180435	5916	1246	0	-100	0	230	101300000	1000	0	0	-1	300
15192995	5911	1246	0	-100	0	230	101300000	1000	0	0	-1	300
15205555	5909	1243	0	-100	0	230	101300000	1000	0	0	-1	300
15218115	5912	1245	0	-100	0	230	101300000	1000	0	0	-1	300
15230675	5916	1241	0	-100	0	230	101300000	1000	0	0	-1	300
15243235	5915	1247	0	-100	0	230	101300000	1000	0	0	-1	300
15255795	5907	1246	0	-100	0	230	101300000	1000	0	0	-1	300
15268355	5914	1249	0	-100	0	230	101300000	1000	0	0	-1	300
15280915	5915	1251	0	-100	0	230	101300000	1000	0	0	-1	300
15293475	5910	1239	0	-100	0	230	101300000	1000	0	0	-1	300
15306035	5911	1250	0	-100	0	230	101300000	1000	0	0	-1	300
15318595	5912	1244	0	-100	0	230	101300000	1000	0	0	-1	300
15331155	5908	1251	0	-100	0	230	101300000	1000	0	0	-1	300
15343715	5914	1250	0	-100	0	230	101300000	1000	0	0	-1	300
15356275	5912	1243	0	-100	0	230	101300000	1000	0	0	-1	300
15368835	5910	1243	0	-100	0	230	101300000	1000	0	0	-1	300
15381395	5907	1253	0	-100	0	230	101300000	1000	0	0	-1	300
15393955	5914	1240	0	-100	0	230	101300000	1000	0	0	-1	300
15406515	5908	1246	0	-100	0	230	101300000	1000	0	0	-1	300
15419075	5908	1250	0	-100	0	230	101300000	1000	0	0	-1	300
15431635	5912	1243	0	-100	0	230	101300000	1000	0	0	-1	300
15444195	5911	1253	0	-100	0	230	101300000	1000	0	0	-1	300
15456755	5915	1243	0	-100	0	230	101300000	1000	0	0	-1	300
15469315	5911	1246	0	-100	0	230	101300000	1000	0	0	-1	300
15481875	5914	1245	0	-100	0	230	101300000	1000	0	0	-1	300
15494435	5912	1243	0	-100	0	230	101300000	1000	0	0	-1	300
15506995	5910	1250	0	-100	0	230	101300000	1000	0	0	-1	300
15519555	5911	1247	0	-100	0	230	101300000	1000	0	0	-1	300
15532115	5912	1250	0	-100	0	230	101300000	1000	0	0	-1	300
15544675	5912	1248	0	-100	0	230	101300000	1000	0	0	-1	300
15557235	5911	1243	0	-100	0	230	101300000	1000	0	0	-1	300
15569795	5915	1247	0	-100	0	230	101300000	1000	0	0	-1	300
15582355	5911	1237	0	-100	0	230	101300000	1000	0	0	-1	300
15594915	5913	1247	0	-100	0	230	101300000	1000	0	0	-1	300
15607475	5909	1250	0	-100	0	230	101300000	1000	0	0	-1	300
15620035	5915	1251	0	-100	0	230	101300000	1000	0	0	-1	300
15632595	5908	1251	0	-100	0	230	101300000	1000	0	0	-1	300
15645155	5903	1247	0	-100	0	230	101300000	1000	0	0	-1	300
15657715	5916	1249	0	-100	0	230	101300000	1000	0	0	-1	300
15670275	5911	1241	0	-100	0	230	101300000	1000	0	0	-1	300
15682835	5913	1242	0	-100	0	230	101300000	1000	0	0	-1	300
15695395	5912	1254	0	-100	0	230	101300000	1000	0	0	-1	300
15707955	5916	1253	0	-100	0	230	101300000	1000	0	0	-1	300
15720515	5915	1244	0	-100	0	230	101300000	1000	0	0	-1	300
15733075	5907	1245	0	-100	0	230	101300000	1000	0	0	-1	300
15745635	5912	1250	0	-100	0	230	101300000	1000	0	0	-1	300
15758195	5912	1237	0	-100	0	230	101300000	1000	0	0	-1	300
15770755	5911	1247	0	-100	0	230	101300000	1000	0	0	-1	300
15783315	5916	1250	0	-100	0	230	101300000	1000	0	0	-1	300
15795875	5922	1245	0	-100	0	230	101300000	1000	0	0	-1	300
15808435	5911	1245	0	-100	0	230	101300000	1000	0	0	-1	300
15820995	5909	1250	0	-100	0	230	101300000	1000	0	0	-1	300
15833555	5918	1242	0	-100	0	230	101300000	1000	0	0	-1	300
15846115	5910	1244	0	-100	0	230	101300000	1000	0	0	-1	300
15858675	5910	1250	0	-100	0	230	101300000	1000	0	0	-1	300
15871235	5916	1245	0	-100	0	230	101300000	1000	0	0	-1	300
15883795	5911	1250	0	-100	0	230	101300000	1000	0	0	-1	300
15896355	5909	1249	0	-100	0	230	101300000	1000	0	0	-1	300
15908915	5908	1255	0	-100	0	230	101300000	1000	0	0	-1	300
15921475	5919	1244	0	-100	0	230	101300000	1000	0	0	-1	300
15934035	5914	1251	0	-100	0	230	101300000	1000	0	0	-1	300
15946595	5913	1247	0	-100	0	230	101300000	1000	0	0	-1	300
15959155	5907	1249	0	-100	0	230	101300000	1000	0	0	-1	300
15971715	5919	1250	0	-100	0	230	101300000	1000	0	0	-1	300
15984275	5917	1253	0	-100	0	230	101300000	1000	0	0	-1	300
15996835	5910	1246	0	-100	0	230	101300000	1000	0	0	-1	300
16009395	5905	1243	0	-100	0	230	101300000	1000	0	0	-1	300
16021955	5912	1257	0	-100	0	230	101300000	1000	0	0	-1	300
16034515	5916	1249	0	-100	0	230	101300000	1000	0	0	-1	300
16047075	5920	1240	0	-100	0	230	101300000	1000	0	0	-1	300
16059635	5915	1247	0	-100	0	230	101300000	1000	0	0	-1	300
16072195	5911	1244	0	-100	0	230	101300000	1000	0	0	-1	300
16084755	5909	1249	0	-100	0	230	101300000	1000	0	0	-1	300
16097315	5913	1242	0	-100	0	230	101300000	1000	0	0	-1	300
16109875	5909	1253	0	-100	0	230	101300000	1000	0	0	-1	300
16122435	5909	1247	0	-100	0	230	101300000	1000	0	0	-1	300
16134995	5907	1244	0	-100	0	230	101300000	1000	0	0	-1	300
16147555	5915	1248	0	-100	0	230	101300000	1000	0	0	-1	300
16160115	5919	1241	0	-100	0	230	101300000	1000	0	0	-1	300
16172675	5922	1251	0	-100	0	230	101300000	1000	0	0	-1	300
16185235	5915	1247	0	-100	0	230	101300000	1000	0	0	-1	300
16197795	5915	1247	0	-100	0	230	101300000	1000	0	0	-1	300
16210355	5911	1245	0	-100	0	230	101300000	1000	0	0	-1	300
16222915	5909	1247	0	-100	0	230	101300000	1000	0	0	-1	300
16235475	5911	1249	0	-100	0	230	101300000	1000	0	0	-1	300
16248035	5911	1251	0	-100	0	230	101300000	1000	0	0	-1	300
16260595	5913	1251	0	-100	0	230	101300000	1000	0	0	-1	300
16273155	5907	1247	0	-100	0	230	101300000	1000	0	0	-1	300
16285715	5911	1251	0	-100	0	230	101300000	1000	0	0	-1	300
16298275	5911	1249	0	-100	0	230	101300000	1000	0	0	-1	300
16310835	5912	1254	0	-100	0	230	101300000	1000	0	0	-1	300
16323395	5905	1240	0	-100	0	230	101300000	1000	0	0	-1	300
16335955	5917	1254	0	-100	0	230	101300000	1000	0	0	-1	300
16348515	5912	1243	0	-100	0	230	101300000	1000	0	0	-1	300
16361075	5914	1243	0	-100	0	230	101300000	1000	0	0	-1	300
16373635	5915	1242	0	-100	0	230	101300000	1000	0	0	-1	300
16386195	5914	1249	0	-100	0	230	101300000	1000	0	0	-1	300
16398755	5912	1247	0	-100	0	230	101300000	1000	0	0	-1	300
16411315	5911	1245	0	-100	0	230	101300000	1000	0	0	-1	300
16423875	5914	1244	0	-100	0	230	101300000	1000	0	0	-1	300
16436435	5908	1253	0	-100	0	230	101300000	1000	0	0	-1	300
16448995	5908	1247	0	-100	0	230	101300000	1000	0	0	-1	300
16461555	5911	1242	0	-100	0	230	101300000	1000	0	0	-1	300
16474115	5911	1243	0	-100	0	230	101300000	1000	0	0	-1	300
16486675	5910	1248	0	-100	0	230	101300000	1000	0	0	-1	300
16499235	5915	1250	0	-100	0	230	101300000	1000	0	0	-1	300
16511795	5917	1240	0	-100	0	230	101300000	1000	0	0	-1	300
16524355	5915	1244	0	-100	0	230	101300000	1000	0	0	-1	300
16536915	5908	1246	0	-100	0	230	101300000	1000	0	0	-1	300
16549475	5910	1240	0	-100	0	230	101300000	1000	0	0	-1	300
16562035	5912	1252	0	-100	0	230	101300000	1000	0	0	-1	300
16574595	5909	1246	0	-100	0	230	101300000	1000	0	0	-1	300
16587155	5906	1241	0	-100	0	230	101300000	1000	0	0	-1	300
16599715	5918	1254	0	-100	0	230	101300000	1000	0	0	-1	300
16612275	5915	1245	0	-100	0	230	101300000	1000	0	0	-1	300
16624835	5913	1247	0	-100	0	230	101300000	1000	0	0	-1	300
16637395	5911	1245	0	-100	0	230	101300000	1000	0	0	-1	300
16649955	5911	1255	0	-100	0	230	101300000	1000	0	0	-1	300
16662515	5911	1250	0	-100	0	230	101300000	1000	0	0	-1	300
16675075	5916	1249	0	-100	0	230	101300000	1000	0	0	-1	300
16687635	5918	1251	0	-100	0	230	101300000	1000	0	0	-1	300
16700195	5914	1243	0	-100	0	230	101300000	1000	0	0	-1	300
16712755	5907	1248	0	-100	0	230	101300000	1000	0	0	-1	300
16725315	5912	1247	0	-100	0	230	101300000	1000	0	0	-1	300
16737875	5919	1243	0	-100	0	230	101300000	1000	0	0	-1	300
16750435	5911	1254	0	-100	0	230	101300000	1000	0	0	-1	300
16762995	5914	1249	0	-100	0	230	101300000	1000	0	0	-1	300
16775555	5907	1249	0	-100	0	230	101300000	1000	0	0	-1	300
16788115	5915	1246	0	-100	0	230	101300000	1000	0	0	-1	300
16800675	5913	1251	0	-100	0	230	101300000	1000	0	0	-1	300
16813235	5918	1244	0	-100	0	230	101300000	1000	0	0	-1	300
16825795	5913	1247	0	-100	0	230	101300000	1000	0	0	-1	300
16838355	5911	1243	0	-100	0	230	101300000	1000	0	0	-1	300
16850915	5916	1254	0	-100	0	230	101300000	1000	0	0	-1	300
16863475	5918	1246	0	-100	0	230	101300000	1000	0	0	-1	300
16876035	5907	1242	0	-100	0	230	101300000	1000	0	0	-1	300
16888595	5907	1245	0	-100	0	230	101300000	1000	0	0	-1	300
16901155	5911	1250	0	-100	0	230	101300000	1000	0	0	-1	300
16913715	5911	1242	0	-100	0	230	101300000	1000	0	0	-1	300
16926275	5909	1250	0	-100	0	230	101300000	1000	0	0	-1	300
16938835	5911	1250	0	-100	0	230	101300000	1000	0	0	-1	300
16951395	5916	1242	0	-100	0	230	101300000	1000	0	0	-1	300
16963955	5912	1248	0	-100	0	230	101300000	1000	0	0	-1	300
16976515	5910	1243	0	-100	0	230	101300000	1000	0	0	-1	300
16989075	5911	1250	0	-100	0	230	101300000	1000	0	0	-1	300
17001635	5921	1252	0	-100	0	230	101300000	1000	0	0	-1	300
17014195	5918	1246	0	-100	0	230	101300000	1000	0	0	-1	300
17026755	5911	1252	0	-100	0	230	101300000	1000	0	0	-1	300
17039315	5905	1252	0	-100	0	230	101300000	1000	0	0	-1	300
17051875	5916	1244	0	-100	0	230	101300000	1000	0	0	-1	300
17064435	5915	1236	0	-100	0	230	101300000	1000	0	0	-1	300
17076995	5915	1243	0	-100	0	230	101300000	1000	0	0	-1	300
17089555	5913	1245	0	-100	0	230	101300000	1000	0	0	-1	300
17102115	5909	1248	0	-100	0	230	101300000	1000	0	0	-1	300
17114675	5911	1248	0	-100	0	230	101300000	1000	0	0	-1	300
17127235	5908	1253	0	-100	0	230	101300000	1000	0	0	-1	300
17139795	5909	1249	0	-100	0	230	101300000	1000	0	0	-1	300
17152355	5911	1246	0	-100	0	230	101300000	1000	0	0	-1	300
17164915	5911	1251	0	-100	0	230	101300000	1000	0	0	-1	300
17177475	5911	1250	0	-100	0	230	101300000	1000	0	0	-1	300
17190035	5909	1242	0	-100	0	230	101300000	1000	0	0	-1	300
17202595	5913	1247	0	-100	0	230	101300000	1000	0	0	-1	300
17215155	5899	1251	0	-100	0	230	101300000	1000	0	0	-1	300
17227715	5911	1241	0	-100	0	230	101300000	1000	0	0	-1	300
17240275	5911	1249	0	-100	0	230	101300000	1000	0	0	-1	300
17252835	5912	1253	0	-100	0	230	101300000	1000	0	0	-1	300
17265395	5910	1251	0	-100	0	230	101300000	1000	0	0	-1	300
17277955	5922	1248	0	-100	0	230	101300000	1000	0	0	-1	300
17290515	5917	1240	0	-100	0	230	101300000	1000	0	0	-1	300
17303075	5914	1247	0	-100	0	230	101300000	1000	0	0	-1	300
17315635	5907	1242	0	-100	0	230	101300000	1000	0	0	-1	300
17328195	5908	1248	0	-100	0	230	101300000	1000	0	0	-1	300
17340755	5913	1250	0	-100	0	230	101300000	1000	0	0	-1	300
17353315	5911	1249	0	-100	0	230	101300000	1000	0	0	-1	300
17365875	5911	1242	0	-100	0	230	101300000	1000	0	0	-1	300
17378435	5908	1252	0	-100	0	230	101300000	1000	0	0	-1	300
17390995	5912	1245	0	-100	0	230	101300000	1000	0	0	-1	300
17403555	5915	1246	0	-100	0	230	101300000	1000	0	0	-1	300
17416115	5918	1245	0	-100	0	230	101300000	1000	0	0	-1	300
17428675	5912	1245	0	-100	0	230	101300000	1000	0	0	-1	300
17441235	5915	1247	0	-100	0	230	101300000	1000	0	0	-1	300
17453795	5915	1247	0	-100	0	230	101300000	1000	0	0	-1	300
17466355	5915	1247	0	-100	0	230	101300000	1000	0	0	-1	300
17478915	5914	1244	0	-100	0	230	101300000	1000	0	0	-1	300
17491475	5909	1250	0	-100	0	230	101300000	1000	0	0	-1	300
17504035	5910	1244	0	-100	0	230	101300000	1000	0	0	-1	300
17516595	5906	1248	0	-100	0	230	101300000	1000	0	0	-1	300
17529155	5914	1250	0	-100	0	230	101300000	1000	0	0	-1	300
17541715	5916	1249	0	-100	0	230	101300000	1000	0	0	-1	300
17554275	5913	1239	0	-100	0	230	101300000	1000	0	0	-1	300
17566835	5905	1249	0	-100	0	230	101300000	1000	0	0	-1	300
17579395	5915	1254	0	-100	0	230	101300000	1000	0	0	-1	300
17591955	5909	1249	0	-100	0	230	101300000	1000	0	0	-1	300
17604515	5917	1253	0	-100	0	230	101300000	1000	0	0	-1	300
17617075	5915	1245	0	-100	0	230	101300000	1000	0	0	-1	300
17629635	5915	1247	0	-100	0	230	101300000	1000	0	0	-1	300
17642195	5907	1245	0	-100	0	230	101300000	1000	0	0	-1	300
17654755	5909	1250	0	-100	0	230	101300000	1000	0	0	-1	300
17667315	5911	1245	0	-100	0	230	101300000	1000	0	0	-1	300
17679875	5919	1253	0	-100	0	230	101300000	1000	0	0	-1	300
17692435	5916	1248	0	-100	0	230	101300000	1000	0	0	-1	300
17704995	5916	1248	0	-100	0	230	101300000	1000	0	0	-1	300
17717555	5912	1247	0	-100	0	230	101300000	1000	0	0	-1	300
17730115	5915	1246	0	-100	0	230	101300000	1000	0	0	-1	300
17742675	5915	1247	0	-100	0	230	101300000	1000	0	0	-1	300
17755235	5910	1250	0	-100	0	230	101300000	1000	0	0	-1	300
17767795	5910	1247	0	-100	0	230	101300000	1000	0	0	-1	300
17780355	5907	1247	0	-100	0	230	101300000	1000	0	0	-1	300
17792915	5914	1253	0	-100	0	230	101300000	1000	0	0	-1	300
17805475	5909	1247	0	-100	0	230	101300000	1000	0	0	-1	300
17818035	5911	1251	0	-100	0	230	101300000	1000	0	0	-1	300
17830595	5911	1250	0	-100	0	230	101300000	1000	0	0	-1	300
17843155	5906	1251	0	-100	0	230	101300000	1000	0	0	-1	300
17855715	5919	1248	0	-100	0	230	101300000	1000	0	0	-1	300
17868275	5916	1249	0	-100	0	230	101300000	1000	0	0	-1	300
17880835	5918	1247	0	-100	0	230	101300000	1000	0	0	-1	300
17893395	5911	1245	0	-100	0	230	101300000	1000	0	0	-1	300
17905955	5911	1250	0	-100	0	230	101300000	1000	0	0	-1	300
17918515	5908	1253	0	-100	0	230	101300000	1000	0	0	-1	300
17931075	5910	1248	0	-100	0	230	101300000	1000	0	0	-1	300
17943635	5911	1251	0	-100	0	230	101300000	1000	0	0	-1	300
17956195	5913	1247	0	-100	0	230	101300000	1000	0	0	-1	300
17968755	5917	1253	0	-100	0	230	101300000	1000	0	0	-1	300
17981315	5919	1252	0	-100	0	230	101300000	1000	0	0	-1	300
17993875	5919	1246	0	-100	0	230	101300000	1000	0	0	-1	300
18006435	5915	1241	0	-100	0	230	101300000	1000	0	0	-1	300
18018995	5910	1254	0	-100	0	230	101300000	1000	0	0	-1	300
18031555	5911	1250	0	-100	0	230	101300000	1000	0	0	-1	300
18044115	5905	1239	0	-100	0	230	101300000	1000	0	0	-1	300
18056675	5911	1251	0	-100	0	230	101300000	1000	0	0	-1	300
18069235	5911	1247	0	-100	0	230	101300000	1000	0	0	-1	300
18081795	5911	1258	0	-100	0	230	101300000	1000	0	0	-1	300
18094355	5910	1250	0	-100	0	230	101300000	1000	0	0	-1	300
18106915	5914	1246	0	-100	0	230	101300000	1000	0	0	-1	300
18119475	5915	1248	0	-100	0	230	101300000	1000	0	0	-1	300
18132035	5915	1242	0	-100	0	230	101300000	1000	0	0	-1	300
18144595	5916	1250	0	-100	0	230	101300000	1000	0	0	-1	300
18157155	5914	1246	0	-100	0	230	101300000	1000	0	0	-1	300
18169715	5915	1247	0	-100	0	230	101300000	1000	0	0	-1	300
18182275	5912	1252	0	-100	0	230	101300000	1000	0	0	-1	300
18194835	5915	1249	0	-100	0	230	101300000	1000	0	0	-1	300
18207395	5915	1250	0	-100	0	230	101300000	1000	0	0	-1	300
18219955	5918	1250	0	-100	0	230	101300000	1000	0	0	-1	300
18232515	5914	1241	0	-100	0	230	101300000	1000	0	0	-1	300
18245075	5911	1244	0	-100	0	230	101300000	1000	0	0	-1	300
18257635	5908	1246	0	-100	0	230	101300000	1000	0	0	-1	300
18270195	5905	1242	0	-100	0	230	101300000	1000	0	0	-1	300
18282755	5911	1242	0	-100	0	230	101300000	1000	0	0	-1	300
18295315	5909	1251	0	-100	0	230	101300000	1000	0	0	-1	300
18307875	5913	1247	0	-100	0	230	101300000	1000	0	0	-1	300
18320435	5915	1251	0	-100	0	230	101300000	1000	0	0	-1	300
18332995	5922	1251	0	-100	0	230	101300000	1000	0	0	-1	300
18345555	5919	1239	0	-100	0	230	101300000	1000	0	0	-1	300
18358115	5913	1245	0	-100	0	230	101300000	1000	0	0	-1	300
18370675	5912	1243	0	-100	0	230	101300000	1000	0	0	-1	300
18383235	5911	1245	0	-100	0	230	101300000	1000	0	0	-1	300
18395795	5910	1247	0	-100	0	230	101300000	1000	0	0	-1	300
18408355	5913	1242	0	-100	0	230	101300000	1000	0	0	-1	300
18420915	5909	1249	0	-100	0	230	101300000	1000	0	0	-1	300
18433475	5907	1247	0	-100	0	230	101300000	1000	0	0	-1	300
18446035	5909	1245	0	-100	0	230	101300000	1000	0	0	-1	300
18458595	5907	1251	0	-100	0	230	101300000	1000	0	0	-1	300
18471155	5905	1246	0	-100	0	230	101300000	1000	0	0	-1	300
18483715	5911	1256	0	-100	0	230	101300000	1000	0	0	-1	300
18496275	5908	1250	0	-100	0	230	101300000	1000	0	0	-1	300
18508835	5905	1255	0	-100	0	230	101300000	1000	0	0	-1	300
18521395	5915	1256	0	-100	0	230	101300000	1000	0	0	-1	300
18533955	5915	1246	0	-100	0	230	101300000	1000	0	0	-1	300
18546515	5913	1248	0	-100	0	230	101300000	1000	0	0	-1	300
18559075	5913	1242	0	-100	0	230	101300000	1000	0	0	-1	300
18571635	5905	1246	0	-100	0	230	101300000	1000	0	0	-1	300
18584195	5908	1251	0	-100	0	230	101300000	1000	0	0	-1	300
18596755	5914	1245	0	-100	0	230	101300000	1000	0	0	-1	300
18609315	5918	1251	0	-100	0	230	101300000	1000	0	0	-1	300
18621875	5918	1251	0	-100	0	230	101300000	1000	0	0	-1	300
18634435	5912	1243	0	-100	0	230	101300000	1000	0	0	-1	300
18646995	5910	1246	0	-100	0	230	101300000	1000	0	0	-1	300
18659555	5911	1251	0	-100	0	230	101300000	1000	0	0	-1	300
18672115	5912	1246	0	-100	0	230	101300000	1000	0	0	-1	300
18684675	5908	1249	0	-100	0	230	101300000	1000	0	0	-1	300
18697235	5916	1248	0	-100	0	230	101300000	1000	0	0	-1	300
18709795	5911	1249	0	-100	0	230	101300000	1000	0	0	-1	300
18722355	5909	1242	0	-100	0	230	101300000	1000	0	0	-1	300
18734915	5906	1249	0	-100	0	230	101300000	1000	0	0	-1	300
18747475	5911	1253	0	-100	0	230	101300000	1000	0	0	-1	300
18760035	5921	1251	0	-100	0	230	101300000	1000	0	0	-1	300
18772595	5915	1242	0	-100	0	230	101300000	1000	0	0	-1	300
18785155	5901	1247	0	-100	0	230	101300000	1000	0	0	-1	300
18797715	5910	1251	0	-100	0	230	101300000	1000	0	0	-1	300
18810275	5915	1243	0	-100	0	230	101300000	1000	0	0	-1	300
18822835	5910	1247	0	-100	0	230	101300000	1000	0	0	-1	300
18835395	5909	1245	0	-100	0	230	101300000	1000	0	0	-1	300
18847955	5910	1250	0	-100	0	230	101300000	1000	0	0	-1	300
18860515	5915	1249	0	-100	0	230	101300000	1000	0	0	-1	300
18873075	5915	1249	0	-100	0	230	101300000	1000	0	0	-1	300
18885635	5907	1252	0	-100	0	230	101300000	1000	0	0	-1	300
18898195	5911	1255	0	-100	0	230	101300000	1000	0	0	-1	300
18910755	5915	1251	0	-100	0	230	101300000	1000	0	0	-1	300
18923315	5905	1243	0	-100	0	230	101300000	1000	0	0	-1	300
18935875	5910	1251	0	-100	0	230	101300000	1000	0	0	-1	300
18948435	5914	1241	0	-100	0	230	101300000	1000	0	0	-1	300
18960995	5904	1253	0	-100	0	230	101300000	1000	0	0	-1	300
18973555	5911	1249	0	-100	0	230	101300000	1000	0	0	-1	300
18986115	5915	1245	0	-100	0	230	101300000	1000	0	0	-1	300
18998675	5913	1249	0	-100	0	230	101300000	1000	0	0	-1	300
19011235	5914	1248	0	-100	0	230	101300000	1000	0	0	-1	300
19023795	5917	1252	0	-100	0	230	101300000	1000	0	0	-1	300
19036355	5911	1249	0	-100	0	230	101300000	1000	0	0	-1	300
19048915	5911	1253	0	-100	0	230	101300000	1000	0	0	-1	300
19061475	5914	1250	0	-100	0	230	101300000	1000	0	0	-1	300
19074035	5911	1250	0	-100	0	230	101300000	1000	0	0	-1	300
19086595	5914	1251	0	-100	0	230	101300000	1000	0	0	-1	300
19099155	5911	1251	0	-100	0	230	101300000	1000	0	0	-1	300
19111715	5911	1250	0	-100	0	230	101300000	1000	0	0	-1	300
19124275	5908	1251	0	-100	0	230	101300000	1000	0	0	-1	300
19136835	5910	1248	0	-100	0	230	101300000	1000	0	0	-1	300
19149395	5911	1255	0	-100	0	230	101300000	1000	0	0	-1	300
19161955	5914	1247	0	-100	0	230	101300000	1000	0	0	-1	300
19174515	5909	1244	0	-100	0	230	101300000	1000	0	0	-1	300
19187075	5911	1247	0	-100	0	230	101300000	1000	0	0	-1	300
19199635	5916	1242	0	-100	0	230	101300000	1000	0	0	-1	300
19212195	5911	1249	0	-100	0	230	101300000	1000	0	0	-1	300
19224755	5908	1251	0	-100	0	230	101300000	1000	0	0	-1	300
19237315	5915	1248	0	-100	0	230	101300000	1000	0	0	-1	300
19249875	5909	1249	0	-100	0	230	101300000	1000	0	0	-1	300
19262435	5911	1252	0	-100	0	230	101300000	1000	0	0	-1	300
19274995	5912	1244	0	-100	0	230	101300000	1000	0	0	-1	300
19287555	5917	1240	0	-100	0	230	101300000	1000	0	0	-1	300
19300115	5912	1247	0	-100	0	230	101300000	1000	0	0	-1	300
19312675	5910	1251	0	-100	0	230	101300000	1000	0	0	-1	300
19325235	5914	1254	0	-100	0	230	101300000	1000	0	0	-1	300
19337795	5917	1248	0	-100	0	230	101300000	1000	0	0	-1	300
19350355	5913	1248	0	-100	0	230	101300000	1000	0	0	-1	300
19362915	5913	1252	0	-100	0	230	101300000	1000	0	0	-1	300
19375475	5914	1245	0	-100	0	230	101300000	1000	0	0	-1	300
19388035	5907	1252	0	-100	0	230	101300000	1000	0	0	-1	300
19400595	5909	1251	0	-100	0	230	101300000	1000	0	0	-1	300
19413155	5908	1248	0	-100	0	230	101300000	1000	0	0	-1	300
19425715	5911	1242	0	-100	0	230	101300000	1000	0	0	-1	300
19438275	5907	1247	0	-100	0	230	101300000	1000	0	0	-1	300
19450835	5912	1249	0	-100	0	230	101300000	1000	0	0	-1	300
19463395	5914	1253	0	-100	0	230	101300000	1000	0	0	-1	300
19475955	5911	1251	0	-100	0	230	101300000	1000	0	0	-1	300
19488515	5912	1252	0	-100	0	230	101300000	1000	0	0	-1	300
19501075	5916	1253	0	-100	0	230	101300000	1000	0	0	-1	300
19513635	5914	1245	0	-100	0	230	101300000	1000	0	0	-1	300
19526195	5912	1244	0	-100	0	230	101300000	1000	0	0	-1	300
19538755	5911	1247	0	-100	0	230	101300000	1000	0	0	-1	300
19551315	5915	1244	0	-100	0	230	101300000	1000	0	0	-1	300
19563875	5915	1248	0	-100	0	230	101300000	1000	0	0	-1	300
19576435	5916	1246	0	-100	0	230	101300000	1000	0	0	-1	300
19588995	5912	1244	0	-100	0	230	101300000	1000	0	0	-1	300
19601555	5910	1250	0	-100	0	230	101300000	1000	0	0	-1	300
19614115	5909	1253	0	-100	0	230	101300000	1000	0	0	-1	300
19626675	5908	1254	0	-100	0	230	101300000	1000	0	0	-1	300
19639235	5917	1256	0	-100	0	230	101300000	1000	0	0	-1	300
19651795	5920	1244	0	-100	0	230	101300000	1000	0	0	-1	300
19664355	5913	1251	0	-100	0	230	101300000	1000	0	0	-1	300
19676915	5915	1244	0	-100	0	230	101300000	1000	0	0	-1	300
19689475	5911	1257	0	-100	0	230	101300000	1000	0	0	-1	300
19702035	5919	1245	0	-100	0	230	101300000	1000	0	0	-1	300
19714595	5919	1254	0	-100	0	230	101300000	1000	0	0	-1	300
19727155	5906	1244	0	-100	0	230	101300000	1000	0	0	-1	300
19739715	5907	1251	0	-100	0	230	101300000	1000	0	0	-1	300
19752275	5907	1246	0	-100	0	230	101300000	1000	0	0	-1	300
19764835	5919	1254	0	-100	0	230	101300000	1000	0	0	-1	300
19777395	5912	1250	0	-100	0	230	101300000	1000	0	0	-1	300
19789955	5905	1250	0	-100	0	230	101300000	1000	0	0	-1	300
19802515	5910	1253	0	-100	0	230	101300000	1000	0	0	-1	300
19815075	5911	1254	0	-100	0	230	101300000	1000	0	0	-1	300
19827635	5911	1237	0	-100	0	230	101300000	1000	0	0	-1	300
19840195	5907	1244	0	-100	0	230	101300000	1000	0	0	-1	300
19852755	5913	1244	0	-100	0	230	101300000	1000	0	0	-1	300
19865315	5910	1253	0	-100	0	230	101300000	1000	0	0	-1	300
19877875	5911	1244	0	-100	0	230	101300000	1000	0	0	-1	300
19890435	5911	1237	0	-100	0	230	101300000	1000	0	0	-1	300
19902995	5911	1251	0	-100	0	230	101300000	1000	0	0	-1	300
19915555	5912	1247	0	-100	0	230	101300000	1000	0	0	-1	300
19928115	5908	1251	0	-100	0	230	101300000	1000	0	0	-1	300
19940675	5907	1258	0	-100	0	230	101300000	1000	0	0	-1	300
19953235	5911	1253	0	-100	0	230	101300000	1000	0	0	-1	300
19965795	5919	1251	0	-100	0	230	101300000	1000	0	0	-1	300
19978355	5918	1246	0	-100	0	230	101300000	1000	0	0	-1	300
19990915	5914	1241	0	-100	0	230	101300000	1000	0	0	-1	300
20003475	5911	1246	0	-100	0	230	101300000	1000	0	0	-1	300
20016035	5911	1251	0	-100	0	230	101300000	1000	0	0	-1	300
20028595	5909	1245	0	-100	0	230	101300000	1000	0	0	-1	300
20041155	5901	1254	0	-100	0	230	101300000	1000	0	0	-1	300
20053715	5909	1254	0	-100	0	230	101300000	1000	0	0	-1	300
20066275	5912	1245	0	-100	0	230	101300000	1000	0	0	-1	300
20078835	5907	1248	0	-100	0	230	101300000	1000	0	0	-1	300
20091395	5910	1248	0	-100	0	230	101300000	1000	0	0	-1	300
20103955	5906	1253	0	-100	0	230	101300000	1000	0	0	-1	300
20116515	5909	1250	0	-100	0	230	101300000	1000	0	0	-1	300
20129075	5908	1247	0	-100	0	230	101300000	1000	0	0	-1	300
20141635	5907	1251	0	-100	0	230	101300000	1000	0	0	-1	300
20154195	5910	1248	0	-100	0	230	101300000	1000	0	0	-1	300
20166755	5911	1250	0	-100	0	230	101300000	1000	0	0	-1	300
20179315	5923	1243	0	-100	0	230	101300000	1000	0	0	-1	300
20191875	5911	1247	0	-100	0	230	101300000	1000	0	0	-1	300
20204435	5915	1246	0	-100	0	230	101300000	1000	0	0	-1	300
20216995	5916	1253	0	-100	0	230	101300000	1000	0	0	-1	300
20229555	5910	1248	0	-100	0	230	101300000	1000	0	0	-1	300
20242115	5911	1245	0	-100	0	230	101300000	1000	0	0	-1	300
20254675	5914	1250	0	-100	0	230	101300000	1000	0	0	-1	300
20267235	5914	1250	0	-100	0	230	101300000	1000	0	0	-1	300
20279795	5910	1247	0	-100	0	230	101300000	1000	0	0	-1	300
20292355	5910	1255	0	-100	0	230	101300000	1000	0	0	-1	300
20304915	5906	1243	0	-100	0	230	101300000	1000	0	0	-1	300
20317475	5907	1252	0	-100	0	230	101300000	1000	0	0	-1	300
20330035	5916	1245	0	-100	0	230	101300000	1000	0	0	-1	300
20342595	5907	1245	0	-100	0	230	101300000	1000	0	0	-1	300
20355155	5907	1249	0	-100	0	230	101300000	1000	0	0	-1	300
20367715	5907	1249	0	-100	0	230	101300000	1000	0	0	-1	300
20380275	5911	1248	0	-100	0	230	101300000	1000	0	0	-1	300
20392835	5914	1242	0	-100	0	230	101300000	1000	0	0	-1	300
20405395	5911	1254	0	-100	0	230	101300000	1000	0	0	-1	300
20417955	5907	1246	0	-100	0	230	101300000	1000	0	0	-1	300
20430515	5911	1251	0	-100	0	230	101300000	1000	0	0	-1	300
20443075	5914	1260	0	-100	0	230	101300000	1000	0	0	-1	300
20455635	5910	1236	0	-100	0	230	101300000	1000	0	0	-1	300
20468195	5914	1249	0	-100	0	230	101300000	1000	0	0	-1	300
20480755	5910	1249	0	-100	0	230	101300000	1000	0	0	-1	300
20493315	5913	1247	0	-100	0	230	101300000	1000	0	0	-1	300
20505875	5909	1246	0	-100	0	230	101300000	1000	0	0	-1	300
20518435	5919	1252	0	-100	0	230	101300000	1000	0	0	-1	300
20530995	5915	1257	0	-100	0	230	101300000	1000	0	0	-1	300
20543555	5910	1249	0	-100	0	230	101300000	1000	0	0	-1	300
20556115	5910	1252	0	-100	0	230	101300000	1000	0	0	-1	300
20568675	5917	1253	0	-100	0	230	101300000	1000	0	0	-1	300
20581235	5910	1253	0	-100	0	230	101300000	1000	0	0	-1	300
20593795	5910	1256	0	-100	0	230	101300000	1000	0	0	-1	300
20606355	5911	1249	0	-100	0	230	101300000	1000	0	0	-1	300
20618915	5910	1251	0	-100	0	230	101300000	1000	0	0	-1	300
20631475	5911	1248	0	-100	0	230	101300000	1000	0	0	-1	300
20644035	5913	1244	0	-100	0	230	101300000	1000	0	0	-1	300
20656595	5910	1245	0	-100	0	230	101300000	1000	0	0	-1	300
20669155	5907	1247	0	-100	0	230	101300000	1000	0	0	-1	300
20681715	5911	1251	0	-100	0	230	101300000	1000	0	0	-1	300
20694275	5918	1253	0	-100	0	230	101300000	1000	0	0	-1	300
20706835	5905	1244	0	-100	0	230	101300000	1000	0	0	-1	300
20719395	5909	1248	0	-100	0	230	101300000	1000	0	0	-1	300
20731955	5908	1253	0	-100	0	230	101300000	1000	0	0	-1	300
20744515	5913	1248	0	-100	0	230	101300000	1000	0	0	-1	300
20757075	5907	1244	0	-100	0	230	101300000	1000	0	0	-1	300
20769635	5909	1248	0	-100	0	230	101300000	1000	0	0	-1	300
20782195	5907	1256	0	-100	0	230	101300000	1000	0	0	-1	300
20794755	5911	1247	0	-100	0	230	101300000	1000	0	0	-1	300
20807315	5911	1245	0	-100	0	230	101300000	1000	0	0	-1	300
20819875	5913	1253	0	-100	0	230	101300000	1000	0	0	-1	300
20832435	5909	1249	0	-100	0	230	101300000	1000	0	0	-1	300
20844995	5906	1247	0	-100	0	230	101300000	1000	0	0	-1	300
20857555	5907	1248	0	-100	0	230	101300000	1000	0	0	-1	300
20870115	5916	1250	0	-100	0	230	101300000	1000	0	0	-1	300
20882675	5917	1250	0	-100	0	230	101300000	1000	0	0	-1	300
20895235	5915	1244	0	-100	0	230	101300000	1000	0	0	-1	300
20907795	5914	1248	0	-100	0	230	101300000	1000	0	0	-1	300
20920355	5910	1249	0	-100	0	230	101300000	1000	0	0	-1	300
20932915	5911	1245	0	-100	0	230	101300000	1000	0	0	-1	300
20945475	5910	1247	0	-100	0	230	101300000	1000	0	0	-1	300
20958035	5911	1247	0	-100	0	230	101300000	1000	0	0	-1	300
20970595	5910	1249	0	-100	0	230	101300000	1000	0	0	-1	300
20983155	5902	1247	0	-100	0	230	101300000	1000	0	0	-1	300
20995715	5908	1251	0	-100	0	230	101300000	1000	0	0	-1	300
21008275	5911	1252	0	-100	0	230	101300000	1000	0	0	-1	300
21020835	5913	1246	0	-100	0	230	101300000	1000	0	0	-1	300
21033395	5910	1252	0	-100	0	230	101300000	1000	0	0	-1	300
21045955	5907	1245	0	-100	0	230	101300000	1000	0	0	-1	300
21058515	5910	1249	0	-100	0	230	101300000	1000	0	0	-1	300
21071075	5915	1251	0	-100	0	230	101300000	1000	0	0	-1	300
21083635	5917	1249	0	-100	0	230	101300000	1000	0	0	-1	300
21096195	5907	1248	0	-100	0	230	101300000	1000	0	0	-1	300
21108755	5912	1252	0	-100	0	230	101300000	1000	0	0	-1	300
21121315	5907	1248	0	-100	0	230	101300000	1000	0	0	-1	300
21133875	5912	1252	0	-100	0	230	101300000	1000	0	0	-1	300
21146435	5915	1245	0	-100	0	230	101300000	1000	0	0	-1	300
21158995	5907	1252	0	-100	0	230	101300000	1000	0	0	-1	300
21171555	5911	1249	0	-100	0	230	101300000	1000	0	0	-1	300
21184115	5910	1253	0	-100	0	230	101300000	1000	0	0	-1	300
21196675	5913	1251	0	-100	0	230	101300000	1000	0	0	-1	300
21209235	5915	1251	0	-100	0	230	101300000	1000	0	0	-1	300
21221795	5911	1247	0	-100	0	230	101300000	1000	0	0	-1	300
21234355	5908	1255	0	-100	0	230	101300000	1000	0	0	-1	300
21246915	5912	1249	0	-100	0	230	101300000	1000	0	0	-1	300
21259475	5913	1243	0	-100	0	230	101300000	1000	0	0	-1	300
21272035	5909	1247	0	-100	0	230	101300000	1000	0	0	-1	300
21284595	5907	1246	0	-100	0	230	101300000	1000	0	0	-1	300
21297155	5899	1250	0	-100	0	230	101300000	1000	0	0	-1	300
21309715	5912	1254	0	-100	0	230	101300000	1000	0	0	-1	300
21322275	5915	1246	0	-100	0	230	101300000	1000	0	0	-1	300
21334835	5911	1241	0	-100	0	230	101300000	1000	0	0	-1	300
21347395	5911	1250	0	-100	0	230	101300000	1000	0	0	-1	300
21359955	5911	1238	0	-100	0	230	101300000	1000	0	0	-1	300
21372515	5915	1239	0	-100	0	230	101300000	1000	0	0	-1	300
21385075	5912	1253	0	-100	0	230	101300000	1000	0	0	-1	300
21397635	5909	1247	0	-100	0	230	101300000	1000	0	0	-1	300
21410195	5917	1244	0	-100	0	230	101300000	1000	0	0	-1	300
21422755	5911	1249	0	-100	0	230	101300000	1000	0	0	-1	300
21435315	5911	1257	0	-100	0	230	101300000	1000	0	0	-1	300
21447875	5908	1256	0	-100	0	230	101300000	1000	0	0	-1	300
21460435	5916	1250	0	-100	0	230	101300000	1000	0	0	-1	300
21472995	5916	1253	0	-100	0	230	101300000	1000	0	0	-1	300
21485555	5909	1243	0	-100	0	230	101300000	1000	0	0	-1	300
21498115	5909	1250	0	-100	0	230	101300000	1000	0	0	-1	300
21510675	5910	1246	0	-100	0	230	101300000	1000	0	0	-1	300
21523235	5911	1251	0	-100	0	230	101300000	1000	0	0	-1	300
21535795	5919	1250	0	-100	0	230	101300000	1000	0	0	-1	300
21548355	5912	1247	0	-100	0	230	101300000	1000	0	0	-1	300
21560915	5909	1251	0	-100	0	230	101300000	1000	0	0	-1	300
21573475	5910	1242	0	-100	0	230	101300000	1000	0	0	-1	300
21586035	5908	1249	0	-100	0	230	101300000	1000	0	0	-1	300
21598595	5912	1252	0	-100	0	230	101300000	1000	0	0	-1	300
21611155	5908	1252	0	-100	0	230	101300000	1000	0	0	-1	300
21623715	5916	1250	0	-100	0	230	101300000	1000	0	0	-1	300
21636275	5911	1249	0	-100	0	230	101300000	1000	0	0	-1	300
21648835	5912	1254	0	-100	0	230	101300000	1000	0	0	-1	300
21661395	5910	1253	0	-100	0	230	101300000	1000	0	0	-1	300
21673955	5914	1246	0	-100	0	230	101300000	1000	0	0	-1	300
21686515	5913	1243	0	-100	0	230	101300000	1000	0	0	-1	300
21699075	5915	1247	0	-100	0	230	101300000	1000	0	0	-1	300
21711635	5914	1250	0	-100	0	230	101300000	1000	0	0	-1	300
21724195	5914	1250	0	-100	0	230	101300000	1000	0	0	-1	300
21736755	5915	1242	0	-100	0	230	101300000	1000	0	0	-1	300
21749315	5916	1245	0	-100	0	230	101300000	1000	0	0	-1	300
21761875	5918	1241	0	-100	0	230	101300000	1000	0	0	-1	300
21774435	5911	1255	0	-100	0	230	101300000	1000	0	0	-1	300
21786995	5913	1245	0	-100	0	230	101300000	1000	0	0	-1	300
21799555	5908	1243	0	-100	0	230	101300000	1000	0	0	-1	300
21812115	5911	1243	0	-100	0	230	101300000	1000	0	0	-1	300
21824675	5907	1244	0	-100	0	230	101300000	1000	0	0	-1	300
21837235	5912	1243	0	-100	0	230	101300000	1000	0	0	-1	300
21849795	5913	1251	0	-100	0	230	101300000	1000	0	0	-1	300
21862355	5918	1251	0	-100	0	230	101300000	1000	0	0	-1	300
21874915	5917	1246	0	-100	0	230	101300000	1000	0	0	-1	300
21887475	5915	1244	0	-100	0	230	101300000	1000	0	0	-1	300
21900035	5913	1242	0	-100	0	230	101300000	1000	0	0	-1	300
21912595	5911	1247	0	-100	0	230	101300000	1000	0	0	-1	300
21925155	5912	1243	0	-100	0	230	101300000	1000	0	0	-1	300
21937715	5915	1247	0	-100	0	230	101300000	1000	0	0	-1	300
21950275	5912	1246	0	-100	0	230	101300000	1000	0	0	-1	300
21962835	5917	1251	0	-100	0	230	101300000	1000	0	0	-1	300
21975395	5919	1248	0	-100	0	230	101300000	1000	0	0	-1	300
21987955	5913	1247	0	-100	0	230	101300000	1000	0	0	-1	300
22000515	5915	1252	0	-100	0	230	101300000	1000	0	0	-1	300
22013075	5906	1245	0	-100	0	230	101300000	1000	0	0	-1	300
22025635	5914	1252	0	-100	0	230	101300000	1000	0	0	-1	300
22038195	5912	1250	0	-100	0	230	101300000	1000	0	0	-1	300
22050755	5907	1248	0	-100	0	230	101300000	1000	0	0	-1	300
22063315	5908	1247	0	-100	0	230	101300000	1000	0	0	-1	300
22075875	5911	1253	0	-100	0	230	101300000	1000	0	0	-1	300
22088435	5910	1247	0	-100	0	230	101300000	1000	0	0	-1	300
22100995	5911	1242	0	-100	0	230	101300000	1000	0	0	-1	300
22113555	5912	1246	0	-100	0	230	101300000	1000	0	0	-1	300
22126115	5906	1253	0	-100	0	230	101300000	1000	0	0	-1	300
22138675	5907	1248	0	-100	0	230	101300000	1000	0	0	-1	300
22151235	5907	1245	0	-100	0	230	101300000	1000	0	0	-1	300
22163795	5917	1255	0	-100	0	230	101300000	1000	0	0	-1	300
22176355	5915	1246	0	-100	0	230	101300000	1000	0	0	-1	300
22188915	5913	1254	0	-100	0	230	101300000	1000	0	0	-1	300
22201475	5910	1244	0	-100	0	230	101300000	1000	0	0	-1	300
22214035	5912	1256	0	-100	0	230	101300000	1000	0	0	-1	300
22226595	5910	1253	0	-100	0	230	101300000	1000	0	0	-1	300
22239155	5903	1251	0	-100	0	230	101300000	1000	0	0	-1	300
22251715	5907	1243	0	-100	0	230	101300000	1000	0	0	-1	300
22264275	5907	1248	0	-100	0	230	101300000	1000	0	0	-1	300
22276835	5911	1252	0	-100	0	230	101300000	1000	0	0	-1	300
22289395	5915	1246	0	-100	0	230	101300000	1000	0	0	-1	300
22301955	5914	1247	0	-100	0	230	101300000	1000	0	0	-1	300
22314515	5917	1248	0	-100	0	230	101300000	1000	0	0	-1	300
22327075	5914	1247	0	-100	0	230	101300000	1000	0	0	-1	300
22339635	5916	1253	0	-100	0	230	101300000	1000	0	0	-1	300
22352195	5923	1244	0	-100	0	230	101300000	1000	0	0	-1	300
22364755	5911	1251	0	-100	0	230	101300000	1000	0	0	-1	300
22377315	5912	1250	0	-100	0	230	101300000	1000	0	0	-1	300
22389875	5914	1252	0	-100	0	230	101300000	1000	0	0	-1	300
22402435	5912	1248	0	-100	0	230	101300000	1000	0	0	-1	300
22414995	5912	1240	0	-100	0	230	101300000	1000	0	0	-1	300
22427555	5911	1252	0	-100	0	230	101300000	1000	0	0	-1	300
22440115	5908	1253	0	-100	0	230	101300000	1000	0	0	-1	300
22452675	5910	1252	0	-100	0	230	101300000	1000	0	0	-1	300
22465235	5907	1244	0	-100	0	230	101300000	1000	0	0	-1	300
22477795	5909	1253	0	-100	0	230	101300000	1000	0	0	-1	300
22490355	5909	1244	0	-100	0	230	101300000	1000	0	0	-1	300
22502915	5911	1247	0	-100	0	230	101300000	1000	0	0	-1	300
22515475	5903	1249	0	-100	0	230	101300000	1000	0	0	-1	300
22528035	5911	1247	0	-100	0	230	101300000	1000	0	0	-1	300
22540595	5908	1250	0	-100	0	230	101300000	1000	0	0	-1	300
22553155	5905	1247	0	-100	0	230	101300000	1000	0	0	-1	300
22565715	5910	1246	0	-100	0	230	101300000	1000	0	0	-1	300
22578275	5914	1248	0	-100	0	230	101300000	1000	0	0	-1	300
22590835	5918	1253	0	-100	0	230	101300000	1000	0	0	-1	300
22603395	5913	1252	0	-100	0	230	101300000	1000	0	0	-1	300
22615955	5911	1249	0	-100	0	230	101300000	1000	0	0	-1	300
22628515	5914	1246	0	-100	0	230	101300000	1000	0	0	-1	300
22641075	5908	1251	0	-100	0	230	101300000	1000	0	0	-1	300
22653635	5911	1248	0	-100	0	230	101300000	1000	0	0	-1	300
22666195	5909	1246	0	-100	0	230	101300000	1000	0	0	-1	300
22678755	5915	1256	0	-100	0	230	101300000	1000	0	0	-1	300
22691315	5915	1242	0	-100	0	230	101300000	1000	0	0	-1	300
22703875	5909	1244	0	-100	0	230	101300000	1000	0	0	-1	300
22716435	5909	1246	0	-100	0	230	101300000	1000	0	0	-1	300
22728995	5910	1248	0	-100	0	230	101300000	1000	0	0	-1	300
22741555	5915	1257	0	-100	0	230	101300000	1000	0	0	-1	300
22754115	5912	1244	0	-100	0	230	101300000	1000	0	0	-1	300
22766675	5915	1247	0	-100	0	230	101300000	1000	0	0	-1	300
22779235	5903	1245	0	-100	0	230	101300000	1000	0	0	-1	300
22791795	5908	1247	0	-100	0	230	101300000	1000	0	0	-1	300
22804355	5911	1246	0	-100	0	230	101300000	1000	0	0	-1	300
22816915	5917	1248	0	-100	0	230	101300000	1000	0	0	-1	300
22829475	5913	1251	0	-100	0	230	101300000	1000	0	0	-1	300
22842035	5905	1243	0	-100	0	230	101300000	1000	0	0	-1	300
22854595	5911	1251	0	-100	0	230	101300000	1000	0	0	-1	300
22867155	5902	1248	0	-100	0	230	101300000	1000	0	0	-1	300
22879715	5913	1250	0	-100	0	230	101300000	1000	0	0	-1	300
22892275	5917	1248	0	-100	0	230	101300000	1000	0	0	-1	300
22904835	5909	1246	0	-100	0	230	101300000	1000	0	0	-1	300
22917395	5911	1250	0	-100	0	230	101300000	1000	0	0	-1	300
22929955	5912	1243	0	-100	0	230	101300000	1000	0	0	-1	300
22942515	5912	1252	0	-100	0	230	101300000	1000	0	0	-1	300
22955075	5907	1249	0	-100	0	230	101300000	1000	0	0	-1	300
22967635	5917	1253	0	-100	0	230	101300000	1000	0	0	-1	300
22980195	5915	1251	0	-100	0	230	101300000	1000	0	0	-1	300
22992755	5912	1250	0	-100	0	230	101300000	1000	0	0	-1	300
23005315	5914	1248	0	-100	0	230	101300000	1000	0	0	-1	300
23017875	5911	1242	0	-100	0	230	101300000	1000	0	0	-1	300
23030435	5909	1249	0	-100	0	230	101300000	1000	0	0	-1	300
23042995	5918	1247	0	-100	0	230	101300000	1000	0	0	-1	300
23055555	5915	1249	0	-100	0	230	101300000	1000	0	0	-1	300
23068115	5911	1244	0	-100	0	230	101300000	1000	0	0	-1	300
23080675	5912	1245	0	-100	0	230	101300000	1000	0	0	-1	300
23093235	5911	1243	0	-100	0	230	101300000	1000	0	0	-1	300
23105795	5908	1249	0	-100	0	230	101300000	1000	0	0	-1	300
23118355	5911	1246	0	-100	0	230	101300000	1000	0	0	-1	300
23130915	5906	1247	0	-100	0	230	101300000	1000	0	0	-1	300
23143475	5915	1240	0	-100	0	230	101300000	1000	0	0	-1	300
23156035	5915	1248	0	-100	0	230	101300000	1000	0	0	-1	300
23168595	5910	1250	0	-100	0	230	101300000	1000	0	0	-1	300
23181155	5911	1243	0	-100	0	230	101300000	1000	0	0	-1	300
23193715	5912	1250	0	-100	0	230	101300000	1000	0	0	-1	300
23206275	5911	1252	0	-100	0	230	101300000	1000	0	0	-1	300
23218835	5915	1251	0	-100	0	230	101300000	1000	0	0	-1	300
23231395	5905	1247	0	-100	0	230	101300000	1000	0	0	-1	300
23243955	5914	1250	0	-100	0	230	101300000	1000	0	0	-1	300
23256515	5912	1254	0	-100	0	230	101300000	1000	0	0	-1	300
23269075	5917	1244	0	-100	0	230	101300000	1000	0	0	-1	300
23281635	5905	1252	0	-100	0	230	101300000	1000	0	0	-1	300
23294195	5909	1250	0	-100	0	230	101300000	1000	0	0	-1	300
23306755	5915	1253	0	-100	0	230	101300000	1000	0	0	-1	300
23319315	5910	1245	0	-100	0	230	101300000	1000	0	0	-1	300
23331875	5915	1242	0	-100	0	230	101300000	1000	0	0	-1	300
23344435	5909	1253	0	-100	0	230	101300000	1000	0	0	-1	300
23356995	5921	1253	0	-100	0	230	101300000	1000	0	0	-1	300
23369555	5909	1242	0	-100	0	230	101300000	1000	0	0	-1	300
23382115	5911	1254	0	-100	0	230	101300000	1000	0	0	-1	300
23394675	5920	1246	0	-100	0	230	101300000	1000	0	0	-1	300
23407235	5909	1247	0	-100	0	230	101300000	1000	0	0	-1	300
23419795	5917	1249	0	-100	0	230	101300000	1000	0	0	-1	300
23432355	5915	1250	0	-100	0	230	101300000	1000	0	0	-1	300
23444915	5910	1254	0	-100	0	230	101300000	1000	0	0	-1	300
23457475	5912	1243	0	-100	0	230	101300000	1000	0	0	-1	300
23470035	5912	1253	0	-100	0	230	101300000	1000	0	0	-1	300
23482595	5913	1240	0	-100	0	230	101300000	1000	0	0	-1	300
23495155	5904	1250	0	-100	0	230	101300000	1000	0	0	-1	300
23507715	5918	1249	0	-100	0	230	101300000	1000	0	0	-1	300
23520275	5911	1248	0	-100	0	230	101300000	1000	0	0	-1	300
23532835	5919	1251	0	-100	0	230	101300000	1000	0	0	-1	300
23545395	5912	1255	0	-100	0	230	101300000	1000	0	0	-1	300
23557955	5915	1257	0	-100	0	230	101300000	1000	0	0	-1	300
23570515	5911	1243	0	-100	0	230	101300000	1000	0	0	-1	300
23583075	5910	1245	0	-100	0	230	101300000	1000	0	0	-1	300
23595635	5911	1250	0	-100	0	230	101300000	1000	0	0	-1	300
23608195	5910	1248	0	-100	0	230	101300000	1000	0	0	-1	300
23620755	5913	1242	0	-100	0	230	101300000	1000	0	0	-1	300
23633315	5910	1244	0	-100	0	230	101300000	1000	0	0	-1	300
23645875	5913	1244	0	-100	0	230	101300000	1000	0	0	-1	300
23658435	5907	1249	0	-100	0	230	101300000	1000	0	0	-1	300
23670995	5915	1256	0	-100	0	230	101300000	1000	0	0	-1	300
23683555	5910	1247	0	-100	0	230	101300000	1000	0	0	-1	300
23696115	5915	1240	0	-100	0	230	101300000	1000	0	0	-1	300
23708675	5905	1246	0	-100	0	230	101300000	1000	0	0	-1	300
23721235	5914	1246	0	-100	0	230	101300000	1000	0	0	-1	300
23733795	5912	1248	0	-100	0	230	101300000	1000	0	0	-1	300
23746355	5911	1247	0	-100	0	230	101300000	1000	0	0	-1	300
23758915	5911	1250	0	-100	0	230	101300000	1000	0	0	-1	300
23771475	5910	1250	0	-100	0	230	101300000	1000	0	0	-1	300
23784035	5908	1247	0	-100	0	230	101300000	1000	0	0	-1	300
23796595	5914	1244	0	-100	0	230	101300000	1000	0	0	-1	300
23809155	5906	1252	0	-100	0	230	101300000	1000	0	0	-1	300
23821715	5908	1247	0	-100	0	230	101300000	1000	0	0	-1	300
23834275	5914	1248	0	-100	0	230	101300000	1000	0	0	-1	300
23846835	5912	1251	0	-100	0	230	101300000	1000	0	0	-1	300
23859395	5912	1245	0	-100	0	230	101300000	1000	0	0	-1	300
23871955	5908	1251	0	-100	0	230	101300000	1000	0	0	-1	300
23884515	5919	1249	0	-100	0	230	101300000	1000	0	0	-1	300
23897075	5911	1250	0	-100	0	230	101300000	1000	0	0	-1	300
23909635	5908	1245	0	-100	0	230	101300000	1000	0	0	-1	300
23922195	5918	1251	0	-100	0	230	101300000	1000	0	0	-1	300
23934755	5913	1244	0	-100	0	230	101300000	1000	0	0	-1	300
23947315	5915	1255	0	-100	0	230	101300000	1000	0	0	-1	300
23959875	5909	1248	0	-100	0	230	101300000	1000	0	0	-1	300
23972435	5915	1244	0	-100	0	230	101300000	1000	0	0	-1	300
23984995	5907	1247	0	-100	0	230	101300000	1000	0	0	-1	300
23997555	5915	1251	0	-100	0	230	101300000	1000	0	0	-1	300
24010115	5911	1248	0	-100	0	230	101300000	1000	0	0	-1	300
24022675	5916	1243	0	-100	0	230	101300000	1000	0	0	-1	300
24035235	5914	1250	0	-100	0	230	101300000	1000	0	0	-1	300
24047795	5910	1250	0	-100	0	230	101300000	1000	0	0	-1	300
24060355	5909	1252	0	-100	0	230	101300000	1000	0	0	-1	300
24072915	5919	1254	0	-100	0	230	101300000	1000	0	0	-1	300
24085475	5907	1247	0	-100	0	230	101300000	1000	0	0	-1	300
24098035	5915	1248	0	-100	0	230	101300000	1000	0	0	-1	300
24110595	5912	1245	0	-100	0	230	101300000	1000	0	0	-1	300
24123155	5909	1250	0	-100	0	230	101300000	1000	0	0	-1	300
24135715	5911	1251	0	-100	0	230	101300000	1000	0	0	-1	300
24148275	5918	1241	0	-100	0	230	101300000	1000	0	0	-1	300
24160835	5910	1245	0	-100	0	230	101300000	1000	0	0	-1	300
24173395	5918	1248	0	-100	0	230	101300000	1000	0	0	-1	300
24185955	5911	1249	0	-100	0	230	101300000	1000	0	0	-1	300
24198515	5915	1246	0	-100	0	230	101300000	1000	0	0	-1	300
24211075	5911	1248	0	-100	0	230	101300000	1000	0	0	-1	300
24223635	5910	1252	0	-100	0	230	101300000	1000	0	0	-1	300
24236195	5911	1240	0	-100	0	230	101300000	1000	0	0	-1	300
24248755	5912	1248	0	-100	0	230	101300000	1000	0	0	-1	300
24261315	5915	1247	0	-100	0	230	101300000	1000	0	0	-1	300
24273875	5908	1250	0	-100	0	230	101300000	1000	0	0	-1	300
24286435	5913	1251	0	-100	0	230	101300000	1000	0	0	-1	300
24298995	5911	1250	0	-100	0	230	101300000	1000	0	0	-1	300
24311555	5910	1257	0	-100	0	230	101300000	1000	0	0	-1	300
24324115	5911	1245	0	-100	0	230	101300000	1000	0	0	-1	300
24336675	5912	1250	0	-100	0	230	101300000	1000	0	0	-1	300
24349235	5913	1246	0	-100	0	230	101300000	1000	0	0	-1	300
24361795	5910	1246	0	-100	0	230	101300000	1000	0	0	-1	300
24374355	5913	1253	0	-100	0	230	101300000	1000	0	0	-1	300
24386915	5916	1252	0	-100	0	230	101300000	1000	0	0	-1	300
24399475	5918	1247	0	-100	0	230	101300000	1000	0	0	-1	300
24412035	5907	1247	0	-100	0	230	101300000	1000	0	0	-1	300
24424595	5912	1253	0	-100	0	230	101300000	1000	0	0	-1	300
24437155	5910	1251	0	-100	0	230	101300000	1000	0	0	-1	300
24449715	5911	1248	0	-100	0	230	101300000	1000	0	0	-1	300
24462275	5911	1247	0	-100	0	230	101300000	1000	0	0	-1	300
24474835	5912	1249	0	-100	0	230	101300000	1000	0	0	-1	300
24487395	5917	1252	0	-100	0	230	101300000	1000	0	0	-1	300
24499955	5909	1245	0	-100	0	230	101300000	1000	0	0	-1	300
24512515	5916	1250	0	-100	0	230	101300000	1000	0	0	-1	300
24525075	5915	1253	0	-100	0	230	101300000	1000	0	0	-1	300
24537635	5907	1243	0	-100	0	230	101300000	1000	0	0	-1	300
24550195	5912	1246	0	-100	0	230	101300000	1000	0	0	-1	300
24562755	5908	1247	0	-100	0	230	101300000	1000	0	0	-1	300
24575315	5914	1237	0	-100	0	230	101300000	1000	0	0	-1	300
24587875	5907	1246	0	-100	0	230	101300000	1000	0	0	-1	300
24600435	5910	1251	0	-100	0	230	101300000	1000	0	0	-1	300
24612995	5907	1251	0	-100	0	230	101300000	1000	0	0	-1	300
24625555	5917	1248	0	-100	0	230	101300000	1000	0	0	-1	300
24638115	5918	1248	0	-100	0	230	101300000	1000	0	0	-1	300
24650675	5915	1247	0	-100	0	230	101300000	1000	0	0	-1	300
24663235	5909	1241	0	-100	0	230	101300000	1000	0	0	-1	300
24675795	5907	1246	0	-100	0	230	101300000	1000	0	0	-1	300
24688355	5911	1247	0	-100	0	230	101300000	1000	0	0	-1	300
24700915	5907	1245	0	-100	0	230	101300000	1000	0	0	-1	300
24713475	5907	1245	0	-100	0	230	101300000	1000	0	0	-1	300
24726035	5910	1246	0	-100	0	230	101300000	1000	0	0	-1	300
24738595	5909	1248	0	-100	0	230	101300000	1000	0	0	-1	300
24751155	5897	1250	0	-100	0	230	101300000	1000	0	0	-1	300
24763715	5913	1245	0	-100	0	230	101300000	1000	0	0	-1	300
24776275	5912	1253	0	-100	0	230	101300000	1000	0	0	-1	300
24788835	5912	1244	0	-100	0	230	101300000	1000	0	0	-1	300
24801395	5907	1252	0	-100	0	230	101300000	1000	0	0	-1	300
24813955	5912	1256	0	-100	0	230	101300000	1000	0	0	-1	300
24826515	5915	1246	0	-100	0	230	101300000	1000	0	0	-1	300
24839075	5912	1242	0	-100	0	230	101300000	1000	0	0	-1	300
24851635	5913	1247	0	-100	0	230	101300000	1000	0	0	-1	300
24864195	5910	1248	0	-100	0	230	101300000	1000	0	0	-1	300
24876755	5919	1250	0	-100	0	230	101300000	1000	0	0	-1	300
24889315	5920	1251	0	-100	0	230	101300000	1000	0	0	-1	300
24901875	5912	1245	0	-100	0	230	101300000	1000	0	0	-1	300
24914435	5914	1245	0	-100	0	230	101300000	1000	0	0	-1	300
24926995	5915	1247	0	-100	0	230	101300000	1000	0	0	-1	300
24939555	5909	1252	0	-100	0	230	101300000	1000	0	0	-1	300
24952115	5906	1241	0	-100	0	230	101300000	1000	0	0	-1	300
24964675	5913	1251	0	-100	0	230	101300000	1000	0	0	-1	300
24977235	5914	1250	0	-100	0	230	101300000	1000	0	0	-1	300
24989795	5912	1251	0	-100	0	230	101300000	1000	0	0	-1	300
25002355	5910	1253	0	-100	0	230	101300000	1000	0	0	-1	300
25014915	5912	1253	0	-100	0	230	101300000	1000	0	0	-1	300
25027475	5909	1250	0	-100	0	230	101300000	1000	0	0	-1	300
25040035	5908	1250	0	-100	0	230	101300000	1000	0	0	-1	300
25052595	5911	1253	0	-100	0	230	101300000	1000	0	0	-1	300
25065155	5905	1257	0	-100	0	230	101300000	1000	0	0	-1	300
25077715	5919	1252	0	-100	0	230	101300000	1000	0	0	-1	300
25090275	5913	1248	0	-100	0	230	101300000	1000	0	0	-1	300
25102835	5918	1247	0	-100	0	230	101300000	1000	0	0	-1	300
25115395	5914	1244	0	-100	0	230	101300000	1000	0	0	-1	300
25127955	5908	1251	0	-100	0	230	101300000	1000	0	0	-1	300
25140515	5911	1242	0	-100	0	230	101300000	1000	0	0	-1	300
25153075	5909	1245	0	-100	0	230	101300000	1000	0	0	-1	300
25165635	5913	1249	0	-100	0	230	101300000	1000	0	0	-1	300
25178195	5919	1250	0	-100	0	230	101300000	1000	0	0	-1	300
25190755	5914	1238	0	-100	0	230	101300000	1000	0	0	-1	300
25203315	5915	1251	0	-100	0	230	101300000	1000	0	0	-1	300
25215875	5911	1250	0	-100	0	230	101300000	1000	0	0	-1	300
25228435	5909	1237	0	-100	0	230	101300000	1000	0	0	-1	300
25240995	5914	1253	0	-100	0	230	101300000	1000	0	0	-1	300
25253555	5913	1247	0	-100	0	230	101300000	1000	0	0	-1	300
25266115	5915	1241	0	-100	0	230	101300000	1000	0	0	-1	300
25278675	5910	1252	0	-100	0	230	101300000	1000	0	0	-1	300
25291235	5920	1248	0	-100	0	230	101300000	1000	0	0	-1	300
25303795	5914	1251	0	-100	0	230	101300000	1000	0	0	-1	300
25316355	5911	1243	0	-100	0	230	101300000	1000	0	0	-1	300
25328915	5907	1252	0	-100	0	230	101300000	1000	0	0	-1	300
25341475	5910	1256	0	-100	0	230	101300000	1000	0	0	-1	300
25354035	5911	1249	0	-100	0	230	101300000	1000	0	0	-1	300
25366595	5911	1245	0	-100	0	230	101300000	1000	0	0	-1	300
25379155	5903	1246	0	-100	0	230	101300000	1000	0	0	-1	300
25391715	5919	1245	0	-100	0	230	101300000	1000	0	0	-1	300
25404275	5917	1247	0	-100	0	230	101300000	1000	0	0	-1	300
25416835	5912	1248	0	-100	0	230	101300000	1000	0	0	-1	300
25429395	5911	1246	0	-100	0	230	101300000	1000	0	0	-1	300
25441955	5910	1251	0	-100	0	230	101300000	1000	0	0	-1	300
25454515	5913	1242	0	-100	0	230	101300000	1000	0	0	-1	300
25467075	5904	1248	0	-100	0	230	101300000	1000	0	0	-1	300
25479635	5908	1259	0	-100	0	230	101300000	1000	0	0	-1	300
25492195	5911	1245	0	-100	0	230	101300000	1000	0	0	-1	300
25504755	5919	1246	0	-100	0	230	101300000	1000	0	0	-1	300
25517315	5914	1249	0	-100	0	230	101300000	1000	0	0	-1	300
25529875	5911	1249	0	-100	0	230	101300000	1000	0	0	-1	300
25542435	5908	1255	0	-100	0	230	101300000	1000	0	0	-1	300
25554995	5912	1245	0	-100	0	230	101300000	1000	0	0	-1	300
25567555	5916	1244	0	-100	0	230	101300000	1000	0	0	-1	300
25580115	5912	1246	0	-100	0	230	101300000	1000	0	0	-1	300
25592675	5915	1247	0	-100	0	230	101300000	1000	0	0	-1	300
25605235	5915	1252	0	-100	0	230	101300000	1000	0	0	-1	300
25617795	5915	1250	0	-100	0	230	101300000	1000	0	0	-1	300
25630355	5909	1250	0	-100	0	230	101300000	1000	0	0	-1	300
25642915	5907	1254	0	-100	0	230	101300000	1000	0	0	-1	300
25655475	5911	1247	0	-100	0	230	101300000	1000	0	0	-1	300
25668035	5909	1246	0	-100	0	230	101300000	1000	0	0	-1	300
25680595	5918	1249	0	-100	0	230	101300000	1000	0	0	-1	300
25693155	5907	1251	0	-100	0	230	101300000	1000	0	0	-1	300
25705715	5909	1245	0	-100	0	230	101300000	1000	0	0	-1	300
25718275	5909	1242	0	-100	0	230	101300000	1000	0	0	-1	300
25730835	5910	1250	0	-100	0	230	101300000	1000	0	0	-1	300
25743395	5912	1250	0	-100	0	230	101300000	1000	0	0	-1	300
25755955	5915	1245	0	-100	0	230	101300000	1000	0	0	-1	300
25768515	5910	1257	0	-100	0	230	101300000	1000	0	0	-1	300
25781075	5910	1254	0	-100	0	230	101300000	1000	0	0	-1	300
25793635	5915	1250	0	-100	0	230	101300000	1000	0	0	-1	300
25806195	5915	1246	0	-100	0	230	101300000	1000	0	0	-1	300
25818755	5913	1247	0	-100	0	230	101300000	1000	0	0	-1	300
25831315	5914	1254	0	-100	0	230	101300000	1000	0	0	-1	300
25843875	5919	1249	0	-100	0	230	101300000	1000	0	0	-1	300
25856435	5914	1242	0	-100	0	230	101300000	1000	0	0	-1	300
25868995	5909	1242	0	-100	0	230	101300000	1000	0	0	-1	300
25881555	5912	1249	0	-100	0	230	101300000	1000	0	0	-1	300
25894115	5915	1252	0	-100	0	230	101300000	1000	0	0	-1	300
25906675	5914	1245	0	-100	0	230	101300000	1000	0	0	-1	300
25919235	5913	1247	0	-100	0	230	101300000	1000	0	0	-1	300
25931795	5916	1254	0	-100	0	230	101300000	1000	0	0	-1	300
25944355	5915	1245	0	-100	0	230	101300000	1000	0	0	-1	300
25956915	5911	1247	0	-100	0	230	101300000	1000	0	0	-1	300
25969475	5907	1251	0	-100	0	230	101300000	1000	0	0	-1	300
25982035	5910	1251	0	-100	0	230	101300000	1000	0	0	-1	300
25994595	5921	1248	0	-100	0	230	101300000	1000	0	0	-1	300
26007155	5908	1248	0	-100	0	230	101300000	1000	0	0	-1	300
26019715	5910	1252	0	-100	0	230	101300000	1000	0	0	-1	300
26032275	5912	1252	0	-100	0	230	101300000	1000	0	0	-1	300
26044835	5915	1245	0	-100	0	230	101300000	1000	0	0	-1	300
26057395	5910	1250	0	-100	0	230	101300000	1000	0	0	-1	300
26069955	5908	1259	0	-100	0	230	101300000	1000	0	0	-1	300
26082515	5912	1253	0	-100	0	230	101300000	1000	0	0	-1	300
26095075	5914	1253	0	-100	0	230	101300000	1000	0	0	-1	300
26107635	5910	1249	0	-100	0	230	101300000	1000	0	0	-1	300
26120195	5913	1248	0	-100	0	230	101300000	1000	0	0	-1	300
26132755	5920	1251	0	-100	0	230	101300000	1000	0	0	-1	300
26145315	5911	1252	0	-100	0	230	101300000	1000	0	0	-1	300
26157875	5910	1254	0	-100	0	230	101300000	1000	0	0	-1	300
26170435	5921	1255	0	-100	0	230	101300000	1000	0	0	-1	300
26182995	5908	1254	0	-100	0	230	101300000	1000	0	0	-1	300
26195555	5910	1253	0	-100	0	230	101300000	1000	0	0	-1	300
26208115	5918	1246	0	-100	0	230	101300000	1000	0	0	-1	300
26220675	5915	1252	0	-100	0	230	101300000	1000	0	0	-1	300
26233235	5910	1253	0	-100	0	230	101300000	1000	0	0	-1	300
26245795	5916	1251	0	-100	0	230	101300000	1000	0	0	-1	300
26258355	5909	1257	0	-100	0	230	101300000	1000	0	0	-1	300
26270915	5912	1255	0	-100	0	230	101300000	1000	0	0	-1	300
26283475	5912	1243	0	-100	0	230	101300000	1000	0	0	-1	300
26296035	5911	1247	0	-100	0	230	101300000	1000	0	0	-1	300
26308595	5912	1253	0	-100	0	230	101300000	1000	0	0	-1	300
26321155	5906	1246	0	-100	0	230	101300000	1000	0	0	-1	300
26333715	5917	1249	0	-100	0	230	101300000	1000	0	0	-1	300
26346275	5915	1248	0	-100	0	230	101300000	1000	0	0	-1	300
26358835	5910	1246	0	-100	0	230	101300000	1000	0	0	-1	300
26371395	5907	1249	0	-100	0	230	101300000	1000	0	0	-1	300
26383955	5919	1251	0	-100	0	230	101300000	1000	0	0	-1	300
26396515	5914	1249	0	-100	0	230	101300000	1000	0	0	-1	300
26409075	5911	1251	0	-100	0	230	101300000	1000	0	0	-1	300
26421635	5910	1250	0	-100	0	230	101300000	1000	0	0	-1	300
26434195	5918	1250	0	-100	0	230	101300000	1000	0	0	-1	300
26446755	5912	1252	0	-100	0	230	101300000	1000	0	0	-1	300
26459315	5914	1246	0	-100	0	230	101300000	1000	0	0	-1	300
26471875	5919	1256	0	-100	0	230	101300000	1000	0	0	-1	300
26484435	5915	1255	0	-100	0	230	101300000	1000	0	0	-1	300
26496995	5911	1247	0	-100	0	230	101300000	1000	0	0	-1	300
26509555	5910	1253	0	-100	0	230	101300000	1000	0	0	-1	300
26522115	5913	1246	0	-100	0	230	101300000	1000	0	0	-1	300
26534675	5915	1244	0	-100	0	230	101300000	1000	0	0	-1	300
26547235	5907	1254	0	-100	0	230	101300000	1000	0	0	-1	300
26559795	5912	1257	0	-100	0	230	101300000	1000	0	0	-1	300
26572355	5911	1255	0	-100	0	230	101300000	1000	0	0	-1	300
26584915	5915	1248	0	-100	0	230	101300000	1000	0	0	-1	300
26597475	5915	1249	0	-100	0	230	101300000	1000	0	0	-1	300
26610035	5913	1240	0	-100	0	230	101300000	1000	0	0	-1	300
26622595	5911	1255	0	-100	0	230	101300000	1000	0	0	-1	300
26635155	5910	1241	0	-100	0	230	101300000	1000	0	0	-1	300
26647715	5913	1248	0	-100	0	230	101300000	1000	0	0	-1	300
26660275	5908	1249	0	-100	0	230	101300000	1000	0	0	-1	300
26672835	5915	1252	0	-100	0	230	101300000	1000	0	0	-1	300
26685395	5912	1247	0	-100	0	230	101300000	1000	0	0	-1	300
26697955	5912	1247	0	-100	0	230	101300000	1000	0	0	-1	300
26710515	5915	1250	0	-100	0	230	101300000	1000	0	0	-1	300
26723075	5909	1245	0	-100	0	230	101300000	1000	0	0	-1	300
26735635	5918	1247	0	-100	0	230	101300000	1000	0	0	-1	300
26748195	5905	1244	0	-100	0	230	101300000	1000	0	0	-1	300
26760755	5915	1248	0	-100	0	230	101300000	1000	0	0	-1	300
26773315	5911	1242	0	-100	0	230	101300000	1000	0	0	-1	300
26785875	5913	1238	0	-100	0	230	101300000	1000	0	0	-1	300
26798435	5911	1243	0	-100	0	230	101300000	1000	0	0	-1	300
26810995	5909	1246	0	-100	0	230	101300000	1000	0	0	-1	300
26823555	5912	1244	0	-100	0	230	101300000	1000	0	0	-1	300
26836115	5911	1246	0	-100	0	230	101300000	1000	0	0	-1	300
26848675	5914	1249	0	-100	0	230	101300000	1000	0	0	-1	300
26861235	5915	1251	0	-100	0	230	101300000	1000	0	0	-1	300
26873795	5910	1255	0	-100	0	230	101300000	1000	0	0	-1	300
26886355	5916	1247	0	-100	0	230	101300000	1000	0	0	-1	300
26898915	5913	1251	0	-100	0	230	101300000	1000	0	0	-1	300
26911475	5909	1239	0	-100	0	230	101300000	1000	0	0	-1	300
26924035	5910	1254	0	-100	0	230	101300000	1000	0	0	-1	300
26936595	5917	1245	0	-100	0	230	101300000	1000	0	0	-1	300
26949155	5908	1250	0	-100	0	230	101300000	1000	0	0	-1	300
26961715	5909	1249	0	-100	0	230	101300000	1000	0	0	-1	300
26974275	5912	1253	0	-100	0	230	101300000	1000	0	0	-1	300
26986835	5916	1248	0	-100	0	230	101300000	1000	0	0	-1	300
26999395	5918	1248	0	-100	0	230	101300000	1000	0	0	-1	300
27011955	5915	1244	0	-100	0	230	101300000	1000	0	0	-1	300
27024515	5908	1249	0	-100	0	230	101300000	1000	0	0	-1	300
27037075	5911	1250	0	-100	0	230	101300000	1000	0	0	-1	300
27049635	5911	1250	0	-100	0	230	101300000	1000	0	0	-1	300
