timestamp	voltage	current	windSpeed	pitchAngle	rpm	temperature	ambientPressure	humidity	accelerationX	accelerationY	accelerationZ	currentSink
7039070	6017	856	0	-100	0	230	101300000	1000	0	0	-1	0
7046523	6025	863	0	-100	0	230	101300000	1000	0	0	-1	0
7059083	6025	865	0	-100	0	230	101300000	1000	0	0	-1	0
7071643	6017	867	0	-100	0	230	101300000	1000	0	0	-1	0
7084203	6017	865	0	-100	0	230	101300000	1000	0	0	-1	0
7096763	6017	862	0	-100	0	230	101300000	1000	0	0	-1	0
7109323	6014	857	0	-100	0	230	101300000	1000	0	0	-1	0
7121883	6020	858	0	-100	0	230	101300000	1000	0	0	-1	0
7134443	6013	863	0	-100	0	230	101300000	1000	0	0	-1	0
7147004	6019	868	0	-100	0	230	101300000	1000	0	0	-1	0
7159563	6023	866	0	-100	0	230	101300000	1000	0	0	-1	0
7172123	6012	860	0	-100	0	230	101300000	1000	0	0	-1	0
7184683	6017	863	0	-100	0	230	101300000	1000	0	0	-1	0
7197243	6016	844	0	-100	0	230	101300000	1000	0	0	-1	0
7209803	6021	862	0	-100	0	230	101300000	1000	0	0	-1	0
7222363	6017	873	0	-100	0	230	101300000	1000	0	0	-1	0
7234923	6016	862	0	-100	0	230	101300000	1000	0	0	-1	0
7247483	6022	863	0	-100	0	230	101300000	1000	0	0	-1	0
7260043	6018	860	0	-100	0	230	101300000	1000	0	0	-1	0
7272603	6027	867	0	-100	0	230	101300000	1000	0	0	-1	0
7285163	6016	862	0	-100	0	230	101300000	1000	0	0	-1	0
7297723	6017	868	0	-100	0	230	101300000	1000	0	0	-1	0
7310283	6022	859	0	-100	0	230	101300000	1000	0	0	-1	0
7322843	6016	862	0	-100	0	230	101300000	1000	0	0	-1	0
7335403	6016	875	0	-100	0	230	101300000	1000	0	0	-1	0
7347963	6017	866	0	-100	0	230	101300000	1000	0	0	-1	0
7706235	5899	1315	0	-100	0	230	101300000	1000	0	0	-1	400
7718795	5890	1309	0	-100	0	230	101300000	1000	0	0	-1	400
7731355	5896	1309	0	-100	0	230	101300000	1000	0	0	-1	400
7743915	5903	1313	0	-100	0	230	101300000	1000	0	0	-1	400
7756475	5894	1314	0	-100	0	230	101300000	1000	0	0	-1	400
7769035	5894	1306	0	-100	0	230	101300000	1000	0	0	-1	400
7781595	5903	1314	0	-100	0	230	101300000	1000	0	0	-1	400
7794155	5903	1306	0	-100	0	230	101300000	1000	0	0	-1	400
7806715	5896	1320	0	-100	0	230	101300000	1000	0	0	-1	400
7819275	5898	1317	0	-100	0	230	101300000	1000	0	0	-1	400
7831835	5898	1320	0	-100	0	230	101300000	1000	0	0	-1	400
7844395	5894	1309	0	-100	0	230	101300000	1000	0	0	-1	400
7856955	5906	1306	0	-100	0	230	101300000	1000	0	0	-1	400
7869515	5900	1315	0	-100	0	230	101300000	1000	0	0	-1	400
7882075	5903	1312	0	-100	0	230	101300000	1000	0	0	-1	400
7894635	5895	1310	0	-100	0	230	101300000	1000	0	0	-1	400
7907195	5896	1311	0	-100	0	230	101300000	1000	0	0	-1	400
7919755	5899	1310	0	-100	0	230	101300000	1000	0	0	-1	400
7932315	5889	1313	0	-100	0	230	101300000	1000	0	0	-1	400
7944875	5893	1310	0	-100	0	230	101300000	1000	0	0	-1	400
7957435	5900	1313	0	-100	0	230	101300000	1000	0	0	-1	400
7969995	5897	1310	0	-100	0	230	101300000	1000	0	0	-1	400
7982555	5899	1309	0	-100	0	230	101300000	1000	0	0	-1	400
7995115	5890	1304	0	-100	0	230	101300000	1000	0	0	-1	400
8007675	5900	1320	0	-100	0	230	101300000	1000	0	0	-1	400
8020235	5898	1310	0	-100	0	230	101300000	1000	0	0	-1	400
8032795	5903	1311	0	-100	0	230	101300000	1000	0	0	-1	400
8045355	5901	1311	0	-100	0	230	101300000	1000	0	0	-1	400
8057915	5894	1316	0	-100	0	230	101300000	1000	0	0	-1	400
8070475	5895	1318	0	-100	0	230	101300000	1000	0	0	-1	400
8083035	5896	1317	0	-100	0	230	101300000	1000	0	0	-1	400
8095595	5901	1315	0	-100	0	230	101300000	1000	0	0	-1	400
8108155	5902	1316	0	-100	0	230	101300000	1000	0	0	-1	400
8120715	5905	1303	0	-100	0	230	101300000	1000	0	0	-1	400
8133275	5901	1314	0	-100	0	230	101300000	1000	0	0	-1	400
8145835	5894	1316	0	-100	0	230	101300000	1000	0	0	-1	400
8158395	5896	1316	0	-100	0	230	101300000	1000	0	0	-1	400
8170955	5901	1312	0	-100	0	230	101300000	1000	0	0	-1	400
8183515	5902	1310	0	-100	0	230	101300000	1000	0	0	-1	400
8196075	5902	1305	0	-100	0	230	101300000	1000	0	0	-1	400
8208635	5899	1308	0	-100	0	230	101300000	1000	0	0	-1	400
8221195	5903	1318	0	-100	0	230	101300000	1000	0	0	-1	400
8233755	5899	1307	0	-100	0	230	101300000	1000	0	0	-1	400
8246315	5890	1319	0	-100	0	230	101300000	1000	0	0	-1	400
8258875	5891	1317	0	-100	0	230	101300000	1000	0	0	-1	400
8271435	5907	1309	0	-100	0	230	101300000	1000	0	0	-1	400
8283995	5901	1314	0	-100	0	230	101300000	1000	0	0	-1	400
8296555	5901	1314	0	-100	0	230	101300000	1000	0	0	-1	400
8309115	5894	1311	0	-100	0	230	101300000	1000	0	0	-1	400
8321675	5894	1309	0	-100	0	230	101300000	1000	0	0	-1	400
8334235	5894	1308	0	-100	0	230	101300000	1000	0	0	-1	400
8346795	5905	1307	0	-100	0	230	101300000	1000	0	0	-1	400
8359355	5898	1310	0	-100	0	230	101300000	1000	0	0	-1	400
8371915	5905	1309	0	-100	0	230	101300000	1000	0	0	-1	400
8384475	5900	1314	0	-100	0	230	101300000	1000	0	0	-1	400
8397035	5898	1312	0	-100	0	230	101300000	1000	0	0	-1	400
8409595	5902	1307	0	-100	0	230	101300000	1000	0	0	-1	400
8422155	5902	1312	0	-100	0	230	101300000	1000	0	0	-1	400
8434715	5897	1308	0	-100	0	230	101300000	1000	0	0	-1	400
8447275	5896	1313	0	-100	0	230	101300000	1000	0	0	-1	400
8459835	5898	1315	0	-100	0	230	101300000	1000	0	0	-1	400
8472395	5891	1311	0	-100	0	230	101300000	1000	0	0	-1	400
8484955	5898	1309	0	-100	0	230	101300000	1000	0	0	-1	400
8497515	5898	1310	0	-100	0	230	101300000	1000	0	0	-1	400
8510075	5894	1304	0	-100	0	230	101300000	1000	0	0	-1	400
8522635	5903	1310	0	-100	0	230	101300000	1000	0	0	-1	400
8535195	5903	1312	0	-100	0	230	101300000	1000	0	0	-1	400
8547755	5902	1313	0	-100	0	230	101300000	1000	0	0	-1	400
8560315	5895	1315	0	-100	0	230	101300000	1000	0	0	-1	400
8572875	5900	1314	0	-100	0	230	101300000	1000	0	0	-1	400
8585435	5894	1311	0	-100	0	230	101300000	1000	0	0	-1	400
8597995	5899	1311	0	-100	0	230	101300000	1000	0	0	-1	400
8610555	5902	1312	0	-100	0	230	101300000	1000	0	0	-1	400
8623115	5895	1306	0	-100	0	230	101300000	1000	0	0	-1	400
8635675	5905	1310	0	-100	0	230	101300000	1000	0	0	-1	400
8648235	5901	1314	0	-100	0	230	101300000	1000	0	0	-1	400
8660795	5899	1311	0	-100	0	230	101300000	1000	0	0	-1	400
8673355	5901	1310	0	-100	0	230	101300000	1000	0	0	-1	400
8685915	5900	1310	0	-100	0	230	101300000	1000	0	0	-1	400
8698475	5904	1310	0	-100	0	230	101300000	1000	0	0	-1	400
8711035	5899	1315	0	-100	0	230	101300000	1000	0	0	-1	400
8723595	5897	1310	0	-100	0	230	101300000	1000	0	0	-1	400
8736155	5894	1316	0	-100	0	230	101300000	1000	0	0	-1	400
8748715	5894	1322	0	-100	0	230	101300000	1000	0	0	-1	400
8761275	5897	1316	0	-100	0	230	101300000	1000	0	0	-1	400
8773835	5898	1320	0	-100	0	230	101300000	1000	0	0	-1	400
8786395	5895	1316	0	-100	0	230	101300000	1000	0	0	-1	400
8798955	5898	1315	0	-100	0	230	101300000	1000	0	0	-1	400
8811515	5895	1318	0	-100	0	230	101300000	1000	0	0	-1	400
8824075	5898	1320	0	-100	0	230	101300000	1000	0	0	-1	400
8836635	5896	1316	0	-100	0	230	101300000	1000	0	0	-1	400
8849195	5898	1313	0	-100	0	230	101300000	1000	0	0	-1	400
8861755	5901	1308	0	-100	0	230	101300000	1000	0	0	-1	400
8874315	5894	1306	0	-100	0	230	101300000	1000	0	0	-1	400
8886875	5905	1305	0	-100	0	230	101300000	1000	0	0	-1	400
8899435	5905	1312	0	-100	0	230	101300000	1000	0	0	-1	400
8911995	5907	1315	0	-100	0	230	101300000	1000	0	0	-1	400
8924555	5899	1303	0	-100	0	230	101300000	1000	0	0	-1	400
8937115	5892	1314	0	-100	0	230	101300000	1000	0	0	-1	400
8949675	5901	1318	0	-100	0	230	101300000	1000	0	0	-1	400
8962235	5899	1308	0	-100	0	230	101300000	1000	0	0	-1	400
8974795	5900	1306	0	-100	0	230	101300000	1000	0	0	-1	400
8987355	5901	1314	0	-100	0	230	101300000	1000	0	0	-1	400
8999915	5897	1307	0	-100	0	230	101300000	1000	0	0	-1	400
9012475	5898	1315	0	-100	0	230	101300000	1000	0	0	-1	400
9025035	5898	1310	0	-100	0	230	101300000	1000	0	0	-1	400
9037595	5902	1306	0	-100	0	230	101300000	1000	0	0	-1	400
9050155	5897	1309	0	-100	0	230	101300000	1000	0	0	-1	400
9062715	5897	1312	0	-100	0	230	101300000	1000	0	0	-1	400
9075275	5896	1314	0	-100	0	230	101300000	1000	0	0	-1	400
9087835	5896	1311	0	-100	0	230	101300000	1000	0	0	-1	400
9100395	5898	1314	0	-100	0	230	101300000	1000	0	0	-1	400
9112955	5896	1310	0	-100	0	230	101300000	1000	0	0	-1	400
9125515	5897	1316	0	-100	0	230	101300000	1000	0	0	-1	400
9138075	5894	1310	0	-100	0	230	101300000	1000	0	0	-1	400
9150635	5899	1311	0	-100	0	230	101300000	1000	0	0	-1	400
9163195	5901	1315	0	-100	0	230	101300000	1000	0	0	-1	400
9175755	5897	1311	0	-100	0	230	101300000	1000	0	0	-1	400
9188315	5888	1303	0	-100	0	230	101300000	1000	0	0	-1	400
9200875	5902	1304	0	-100	0	230	101300000	1000	0	0	-1	400
9213435	5897	1318	0	-100	0	230	101300000	1000	0	0	-1	400
9225995	5901	1306	0	-100	0	230	101300000	1000	0	0	-1	400
9238555	5894	1310	0	-100	0	230	101300000	1000	0	0	-1	400
9251115	5889	1312	0	-100	0	230	101300000	1000	0	0	-1	400
9263675	5898	1303	0	-100	0	230	101300000	1000	0	0	-1	400
9276235	5894	1308	0	-100	0	230	101300000	1000	0	0	-1	400
9288795	5896	1312	0	-100	0	230	101300000	1000	0	0	-1	400
9301355	5895	1311	0	-100	0	230	101300000	1000	0	0	-1	400
9313915	5894	1306	0	-100	0	230	101300000	1000	0	0	-1	400
9326475	5894	1308	0	-100	0	230	101300000	1000	0	0	-1	400
9339035	5895	1315	0	-100	0	230	101300000	1000	0	0	-1	400
9351595	5898	1309	0	-100	0	230	101300000	1000	0	0	-1	400
9364155	5903	1314	0	-100	0	230	101300000	1000	0	0	-1	400
9376715	5903	1311	0	-100	0	230	101300000	1000	0	0	-1	400
9389275	5903	1316	0	-100	0	230	101300000	1000	0	0	-1	400
9401835	5898	1314	0	-100	0	230	101300000	1000	0	0	-1	400
9414395	5899	1312	0	-100	0	230	101300000	1000	0	0	-1	400
9426955	5905	1308	0	-100	0	230	101300000	1000	0	0	-1	400
9439515	5902	1316	0	-100	0	230	101300000	1000	0	0	-1	400
9452075	5903	1315	0	-100	0	230	101300000	1000	0	0	-1	400
9464635	5902	1311	0	-100	0	230	101300000	1000	0	0	-1	400
9477195	5898	1308	0	-100	0	230	101300000	1000	0	0	-1	400
9489755	5897	1316	0	-100	0	230	101300000	1000	0	0	-1	400
9502315	5895	1308	0	-100	0	230	101300000	1000	0	0	-1	400
9514875	5903	1310	0	-100	0	230	101300000	1000	0	0	-1	400
9527435	5898	1314	0	-100	0	230	101300000	1000	0	0	-1	400
9539995	5896	1308	0	-100	0	230	101300000	1000	0	0	-1	400
9552555	5898	1309	0	-100	0	230	101300000	1000	0	0	-1	400
9565115	5894	1311	0	-100	0	230	101300000	1000	0	0	-1	400
9577675	5900	1314	0	-100	0	230	101300000	1000	0	0	-1	400
9590235	5896	1310	0	-100	0	230	101300000	1000	0	0	-1	400
9602795	5898	1312	0	-100	0	230	101300000	1000	0	0	-1	400
9615355	5896	1315	0	-100	0	230	101300000	1000	0	0	-1	400
9627915	5898	1312	0	-100	0	230	101300000	1000	0	0	-1	400
9640475	5902	1319	0	-100	0	230	101300000	1000	0	0	-1	400
9653035	5898	1313	0	-100	0	230	101300000	1000	0	0	-1	400
9665595	5894	1310	0	-100	0	230	101300000	1000	0	0	-1	400
9678155	5900	1308	0	-100	0	230	101300000	1000	0	0	-1	400
9690715	5900	1312	0	-100	0	230	101300000	1000	0	0	-1	400
9703275	5900	1310	0	-100	0	230	101300000	1000	0	0	-1	400
9715835	5899	1316	0	-100	0	230	101300000	1000	0	0	-1	400
9728395	5897	1307	0	-100	0	230	101300000	1000	0	0	-1	400
9740955	5904	1312	0	-100	0	230	101300000	1000	0	0	-1	400
9753515	5900	1305	0	-100	0	230	101300000	1000	0	0	-1	400
9766075	5903	1310	0	-100	0	230	101300000	1000	0	0	-1	400
9778635	5907	1309	0	-100	0	230	101300000	1000	0	0	-1	400
9791195	5903	1310	0	-100	0	230	101300000	1000	0	0	-1	400
9803755	5905	1312	0	-100	0	230	101300000	1000	0	0	-1	400
9816315	5897	1310	0	-100	0	230	101300000	1000	0	0	-1	400
9828875	5903	1309	0	-100	0	230	101300000	1000	0	0	-1	400
9841435	5898	1304	0	-100	0	230	101300000	1000	0	0	-1	400
9853995	5898	1311	0	-100	0	230	101300000	1000	0	0	-1	400
9866555	5899	1312	0	-100	0	230	101300000	1000	0	0	-1	400
9879115	5898	1315	0	-100	0	230	101300000	1000	0	0	-1	400
9891675	5905	1314	0	-100	0	230	101300000	1000	0	0	-1	400
9904235	5898	1310	0	-100	0	230	101300000	1000	0	0	-1	400
9916795	5899	1313	0	-100	0	230	101300000	1000	0	0	-1	400
9929355	5905	1309	0	-100	0	230	101300000	1000	0	0	-1	400
9941915	5906	1314	0	-100	0	230	101300000	1000	0	0	-1	400
9954475	5897	1308	0	-100	0	230	101300000	1000	0	0	-1	400
9967035	5901	1314	0	-100	0	230	101300000	1000	0	0	-1	400
9979595	5898	1317	0	-100	0	230	101300000	1000	0	0	-1	400
9992155	5893	1317	0	-100	0	230	101300000	1000	0	0	-1	400
10004715	5895	1313	0	-100	0	230	101300000	1000	0	0	-1	400
10017275	5897	1314	0	-100	0	230	101300000	1000	0	0	-1	400
10029835	5897	1312	0	-100	0	230	101300000	1000	0	0	-1	400
10042395	5898	1320	0	-100	0	230	101300000	1000	0	0	-1	400
10054955	5898	1310	0	-100	0	230	101300000	1000	0	0	-1	400
10067515	5896	1314	0	-100	0	230	101300000	1000	0	0	-1	400
10080075	5895	1315	0	-100	0	230	101300000	1000	0	0	-1	400
10092635	5897	1310	0	-100	0	230	101300000	1000	0	0	-1	400
10105195	5901	1307	0	-100	0	230	101300000	1000	0	0	-1	400
10117755	5903	1305	0	-100	0	230	101300000	1000	0	0	-1	400
10130315	5894	1315	0	-100	0	230	101300000	1000	0	0	-1	400
10142875	5900	1318	0	-100	0	230	101300000	1000	0	0	-1	400
10155435	5890	1307	0	-100	0	230	101300000	1000	0	0	-1	400
10167995	5900	1318	0	-100	0	230	101300000	1000	0	0	-1	400
10180555	5903	1313	0	-100	0	230	101300000	1000	0	0	-1	400
10193115	5891	1311	0	-100	0	230	101300000	1000	0	0	-1	400
10205675	5896	1308	0	-100	0	230	101300000	1000	0	0	-1	400
10218235	5893	1307	0	-100	0	230	101300000	1000	0	0	-1	400
10230795	5898	1311	0	-100	0	230	101300000	1000	0	0	-1	400
10243355	5905	1308	0	-100	0	230	101300000	1000	0	0	-1	400
10255915	5904	1314	0	-100	0	230	101300000	1000	0	0	-1	400
10268475	5898	1312	0	-100	0	230	101300000	1000	0	0	-1	400
10281035	5893	1314	0	-100	0	230	101300000	1000	0	0	-1	400
10293595	5898	1307	0	-100	0	230	101300000	1000	0	0	-1	400
10306155	5899	1310	0	-100	0	230	101300000	1000	0	0	-1	400
10318715	5898	1317	0	-100	0	230	101300000	1000	0	0	-1	400
10331275	5893	1312	0	-100	0	230	101300000	1000	0	0	-1	400
10343835	5899	1312	0	-100	0	230	101300000	1000	0	0	-1	400
10356395	5902	1314	0	-100	0	230	101300000	1000	0	0	-1	400
10368955	5894	1312	0	-100	0	230	101300000	1000	0	0	-1	400
10381515	5896	1314	0	-100	0	230	101300000	1000	0	0	-1	400
10394075	5899	1307	0	-100	0	230	101300000	1000	0	0	-1	400
10406635	5897	1318	0	-100	0	230	101300000	1000	0	0	-1	400
10419195	5899	1314	0	-100	0	230	101300000	1000	0	0	-1	400
10431755	5901	1312	0	-100	0	230	101300000	1000	0	0	-1	400
10444315	5899	1314	0	-100	0	230	101300000	1000	0	0	-1	400
10456875	5890	1316	0	-100	0	230	101300000	1000	0	0	-1	400
10469435	5894	1312	0	-100	0	230	101300000	1000	0	0	-1	400
10481995	5894	1317	0	-100	0	230	101300000	1000	0	0	-1	400
10494555	5899	1320	0	-100	0	230	101300000	1000	0	0	-1	400
10507115	5888	1310	0	-100	0	230	101300000	1000	0	0	-1	400
10519675	5899	1318	0	-100	0	230	101300000	1000	0	0	-1	400
10532235	5894	1308	0	-100	0	230	101300000	1000	0	0	-1	400
10544795	5897	1314	0	-100	0	230	101300000	1000	0	0	-1	400
10557355	5894	1314	0	-100	0	230	101300000	1000	0	0	-1	400
10569915	5896	1313	0	-100	0	230	101300000	1000	0	0	-1	400
10582475	5890	1310	0	-100	0	230	101300000	1000	0	0	-1	400
10595035	5902	1316	0	-100	0	230	101300000	1000	0	0	-1	400
10607595	5900	1310	0	-100	0	230	101300000	1000	0	0	-1	400
10620155	5893	1305	0	-100	0	230	101300000	1000	0	0	-1	400
10632715	5898	1302	0	-100	0	230	101300000	1000	0	0	-1	400
10645275	5894	1309	0	-100	0	230	101300000	1000	0	0	-1	400
10657835	5900	1317	0	-100	0	230	101300000	1000	0	0	-1	400
10670395	5897	1310	0	-100	0	230	101300000	1000	0	0	-1	400
10682955	5902	1318	0	-100	0	230	101300000	1000	0	0	-1	400
10695515	5898	1315	0	-100	0	230	101300000	1000	0	0	-1	400
10708075	5891	1314	0	-100	0	230	101300000	1000	0	0	-1	400
10720635	5896	1312	0	-100	0	230	101300000	1000	0	0	-1	400
10733195	5903	1314	0	-100	0	230	101300000	1000	0	0	-1	400
10745755	5897	1313	0	-100	0	230	101300000	1000	0	0	-1	400
10758315	5886	1312	0	-100	0	230	101300000	1000	0	0	-1	400
10770875	5896	1320	0	-100	0	230	101300000	1000	0	0	-1	400
10783435	5892	1310	0	-100	0	230	101300000	1000	0	0	-1	400
10795995	5903	1315	0	-100	0	230	101300000	1000	0	0	-1	400
10808555	5891	1314	0	-100	0	230	101300000	1000	0	0	-1	400
10821115	5886	1308	0	-100	0	230	101300000	1000	0	0	-1	400
10833675	5901	1310	0	-100	0	230	101300000	1000	0	0	-1	400
10846235	5892	1310	0	-100	0	230	101300000	1000	0	0	-1	400
10858795	5894	1316	0	-100	0	230	101300000	1000	0	0	-1	400
10871355	5900	1304	0	-100	0	230	101300000	1000	0	0	-1	400
10883915	5899	1311	0	-100	0	230	101300000	1000	0	0	-1	400
10896475	5898	1314	0	-100	0	230	101300000	1000	0	0	-1	400
10909035	5898	1317	0	-100	0	230	101300000	1000	0	0	-1	400
10921595	5894	1308	0	-100	0	230	101300000	1000	0	0	-1	400
10934155	5899	1308	0	-100	0	230	101300000	1000	0	0	-1	400
10946715	5901	1312	0	-100	0	230	101300000	1000	0	0	-1	400
10959275	5899	1314	0	-100	0	230	101300000	1000	0	0	-1	400
10971835	5898	1309	0	-100	0	230	101300000	1000	0	0	-1	400
10984395	5899	1312	0	-100	0	230	101300000	1000	0	0	-1	400
10996955	5896	1318	0	-100	0	230	101300000	1000	0	0	-1	400
11009515	5898	1319	0	-100	0	230	101300000	1000	0	0	-1	400
11022075	5894	1310	0	-100	0	230	101300000	1000	0	0	-1	400
11034635	5892	1314	0	-100	0	230	101300000	1000	0	0	-1	400
11047195	5898	1312	0	-100	0	230	101300000	1000	0	0	-1	400
11059755	5897	1315	0	-100	0	230	101300000	1000	0	0	-1	400
11072315	5894	1310	0	-100	0	230	101300000	1000	0	0	-1	400
11084875	5898	1313	0	-100	0	230	101300000	1000	0	0	-1	400
11097435	5905	1309	0	-100	0	230	101300000	1000	0	0	-1	400
11109995	5904	1314	0	-100	0	230	101300000	1000	0	0	-1	400
11122555	5901	1309	0	-100	0	230	101300000	1000	0	0	-1	400
11135115	5895	1313	0	-100	0	230	101300000	1000	0	0	-1	400
11147675	5896	1310	0	-100	0	230	101300000	1000	0	0	-1	400
11160235	5894	1321	0	-100	0	230	101300000	1000	0	0	-1	400
11172795	5894	1316	0	-100	0	230	101300000	1000	0	0	-1	400
11185355	5900	1312	0	-100	0	230	101300000	1000	0	0	-1	400
11197915	5896	1319	0	-100	0	230	101300000	1000	0	0	-1	400
11210475	5894	1310	0	-100	0	230	101300000	1000	0	0	-1	400
11223035	5900	1309	0	-100	0	230	101300000	1000	0	0	-1	400
11235595	5905	1308	0	-100	0	230	101300000	1000	0	0	-1	400
11248155	5900	1315	0	-100	0	230	101300000	1000	0	0	-1	400
11260715	5895	1307	0	-100	0	230	101300000	1000	0	0	-1	400
11273275	5909	1319	0	-100	0	230	101300000	1000	0	0	-1	400
11285835	5892	1312	0	-100	0	230	101300000	1000	0	0	-1	400
11298395	5902	1316	0	-100	0	230	101300000	1000	0	0	-1	400
11310955	5898	1316	0	-100	0	230	101300000	1000	0	0	-1	400
11323515	5897	1308	0	-100	0	230	101300000	1000	0	0	-1	400
11336075	5902	1312	0	-100	0	230	101300000	1000	0	0	-1	400
11348635	5898	1315	0	-100	0	230	101300000	1000	0	0	-1	400
11361195	5895	1312	0	-100	0	230	101300000	1000	0	0	-1	400
11373755	5898	1316	0	-100	0	230	101300000	1000	0	0	-1	400
11386315	5889	1313	0	-100	0	230	101300000	1000	0	0	-1	400
11398875	5895	1313	0	-100	0	230	101300000	1000	0	0	-1	400
11411435	5896	1310	0	-100	0	230	101300000	1000	0	0	-1	400
11423995	5898	1318	0	-100	0	230	101300000	1000	0	0	-1	400
11436555	5892	1312	0	-100	0	230	101300000	1000	0	0	-1	400
11449115	5890	1310	0	-100	0	230	101300000	1000	0	0	-1	400
11461675	5896	1306	0	-100	0	230	101300000	1000	0	0	-1	400
11474235	5899	1307	0	-100	0	230	101300000	1000	0	0	-1	400
11486795	5901	1312	0	-100	0	230	101300000	1000	0	0	-1	400
11499355	5906	1305	0	-100	0	230	101300000	1000	0	0	-1	400
11511915	5902	1304	0	-100	0	230	101300000	1000	0	0	-1	400
11524475	5903	1314	0	-100	0	230	101300000	1000	0	0	-1	400
11537035	5901	1308	0	-100	0	230	101300000	1000	0	0	-1	400
11549595	5903	1310	0	-100	0	230	101300000	1000	0	0	-1	400
11562155	5902	1307	0	-100	0	230	101300000	1000	0	0	-1	400
11574715	5898	1306	0	-100	0	230	101300000	1000	0	0	-1	400
11587275	5905	1318	0	-100	0	230	101300000	1000	0	0	-1	400
11599835	5899	1314	0	-100	0	230	101300000	1000	0	0	-1	400
11612395	5902	1317	0	-100	0	230	101300000	1000	0	0	-1	400
11624955	5896	1312	0	-100	0	230	101300000	1000	0	0	-1	400
11637515	5895	1317	0	-100	0	230	101300000	1000	0	0	-1	400
11650075	5894	1309	0	-100	0	230	101300000	1000	0	0	-1	400
11662635	5894	1307	0	-100	0	230	101300000	1000	0	0	-1	400
11675195	5902	1310	0	-100	0	230	101300000	1000	0	0	-1	400
11687755	5901	1314	0	-100	0	230	101300000	1000	0	0	-1	400
11700315	5889	1312	0	-100	0	230	101300000	1000	0	0	-1	400
11712875	5895	1312	0	-100	0	230	101300000	1000	0	0	-1	400
11725435	5891	1308	0	-100	0	230	101300000	1000	0	0	-1	400
11737995	5901	1312	0	-100	0	230	101300000	1000	0	0	-1	400
11750555	5898	1315	0	-100	0	230	101300000	1000	0	0	-1	400
11763115	5896	1308	0	-100	0	230	101300000	1000	0	0	-1	400
11775675	5898	1313	0	-100	0	230	101300000	1000	0	0	-1	400
11788235	5904	1308	0	-100	0	230	101300000	1000	0	0	-1	400
11800795	5899	1304	0	-100	0	230	101300000	1000	0	0	-1	400
11813355	5903	1317	0	-100	0	230	101300000	1000	0	0	-1	400
11825915	5894	1313	0	-100	0	230	101300000	1000	0	0	-1	400
11838475	5896	1314	0	-100	0	230	101300000	1000	0	0	-1	400
11851035	5896	1319	0	-100	0	230	101300000	1000	0	0	-1	400
11863595	5897	1312	0	-100	0	230	101300000	1000	0	0	-1	400
11876155	5902	1313	0	-100	0	230	101300000	1000	0	0	-1	400
11888715	5896	1311	0	-100	0	230	101300000	1000	0	0	-1	400
11901275	5902	1309	0	-100	0	230	101300000	1000	0	0	-1	400
11913835	5895	1306	0	-100	0	230	101300000	1000	0	0	-1	400
11926395	5894	1306	0	-100	0	230	101300000	1000	0	0	-1	400
11938955	5893	1307	0	-100	0	230	101300000	1000	0	0	-1	400
11951515	5894	1311	0	-100	0	230	101300000	1000	0	0	-1	400
11964075	5894	1319	0	-100	0	230	101300000	1000	0	0	-1	400
11976635	5907	1313	0	-100	0	230	101300000	1000	0	0	-1	400
11989195	5901	1305	0	-100	0	230	101300000	1000	0	0	-1	400
12001755	5900	1306	0	-100	0	230	101300000	1000	0	0	-1	400
12014315	5895	1307	0	-100	0	230	101300000	1000	0	0	-1	400
12026875	5895	1311	0	-100	0	230	101300000	1000	0	0	-1	400
12039435	5894	1306	0	-100	0	230	101300000	1000	0	0	-1	400
12051995	5899	1315	0	-100	0	230	101300000	1000	0	0	-1	400
12064555	5902	1314	0	-100	0	230	101300000	1000	0	0	-1	400
12077115	5891	1309	0	-100	0	230	101300000	1000	0	0	-1	400
12089675	5897	1311	0	-100	0	230	101300000	1000	0	0	-1	400
12102235	5900	1313	0	-100	0	230	101300000	1000	0	0	-1	400
12114795	5900	1312	0	-100	0	230	101300000	1000	0	0	-1	400
12127355	5898	1312	0	-100	0	230	101300000	1000	0	0	-1	400
12139915	5897	1316	0	-100	0	230	101300000	1000	0	0	-1	400
12152475	5902	1316	0	-100	0	230	101300000	1000	0	0	-1	400
12165035	5906	1314	0	-100	0	230	101300000	1000	0	0	-1	400
12177595	5899	1308	0	-100	0	230	101300000	1000	0	0	-1	400
12190155	5897	1309	0	-100	0	230	101300000	1000	0	0	-1	400
12202715	5893	1318	0	-100	0	230	101300000	1000	0	0	-1	400
12215275	5899	1312	0	-100	0	230	101300000	1000	0	0	-1	400
12227835	5900	1316	0	-100	0	230	101300000	1000	0	0	-1	400
12240395	5897	1315	0	-100	0	230	101300000	1000	0	0	-1	400
12252955	5892	1308	0	-100	0	230	101300000	1000	0	0	-1	400
12265515	5896	1310	0	-100	0	230	101300000	1000	0	0	-1	400
12278075	5893	1319	0	-100	0	230	101300000	1000	0	0	-1	400
12290635	5900	1313	0	-100	0	230	101300000	1000	0	0	-1	400
12303195	5903	1310	0	-100	0	230	101300000	1000	0	0	-1	400
12315755	5900	1311	0	-100	0	230	101300000	1000	0	0	-1	400
12328315	5891	1310	0	-100	0	230	101300000	1000	0	0	-1	400
12340875	5902	1320	0	-100	0	230	101300000	1000	0	0	-1	400
12353435	5903	1314	0	-100	0	230	101300000	1000	0	0	-1	400
12365995	5902	1319	0	-100	0	230	101300000	1000	0	0	-1	400
12378555	5897	1307	0	-100	0	230	101300000	1000	0	0	-1	400
12391115	5891	1304	0	-100	0	230	101300000	1000	0	0	-1	400
12403675	5898	1313	0	-100	0	230	101300000	1000	0	0	-1	400
12416235	5897	1318	0	-100	0	230	101300000	1000	0	0	-1	400
12428795	5892	1312	0	-100	0	230	101300000	1000	0	0	-1	400
12441355	5896	1310	0	-100	0	230	101300000	1000	0	0	-1	400
12453915	5894	1311	0	-100	0	230	101300000	1000	0	0	-1	400
12466475	5895	1306	0	-100	0	230	101300000	1000	0	0	-1	400
12479035	5898	1314	0	-100	0	230	101300000	1000	0	0	-1	400
12491595	5896	1303	0	-100	0	230	101300000	1000	0	0	-1	400
12504155	5898	1315	0	-100	0	230	101300000	1000	0	0	-1	400
12516715	5894	1313	0	-100	0	230	101300000	1000	0	0	-1	400
12529275	5894	1314	0	-100	0	230	101300000	1000	0	0	-1	400
12541835	5890	1310	0	-100	0	230	101300000	1000	0	0	-1	400
12554395	5896	1310	0	-100	0	230	101300000	1000	0	0	-1	400
12566955	5898	1307	0	-100	0	230	101300000	1000	0	0	-1	400
12579515	5896	1314	0	-100	0	230	101300000	1000	0	0	-1	400
12592075	5900	1312	0	-100	0	230	101300000	1000	0	0	-1	400
12604635	5899	1314	0	-100	0	230	101300000	1000	0	0	-1	400
12617195	5900	1320	0	-100	0	230	101300000	1000	0	0	-1	400
12629755	5904	1318	0	-100	0	230	101300000	1000	0	0	-1	400
12642315	5893	1310	0	-100	0	230	101300000	1000	0	0	-1	400
12654875	5898	1311	0	-100	0	230	101300000	1000	0	0	-1	400
12667435	5898	1304	0	-100	0	230	101300000	1000	0	0	-1	400
12679995	5898	1311	0	-100	0	230	101300000	1000	0	0	-1	400
12692555	5898	1319	0	-100	0	230	101300000	1000	0	0	-1	400
12705115	5892	1312	0	-100	0	230	101300000	1000	0	0	-1	400
12717675	5907	1316	0	-100	0	230	101300000	1000	0	0	-1	400
12730235	5904	1303	0	-100	0	230	101300000	1000	0	0	-1	400
12742795	5901	1314	0	-100	0	230	101300000	1000	0	0	-1	400
12755355	5894	1312	0	-100	0	230	101300000	1000	0	0	-1	400
12767915	5894	1316	0	-100	0	230	101300000	1000	0	0	-1	400
12780475	5895	1317	0	-100	0	230	101300000	1000	0	0	-1	400
12793035	5898	1319	0	-100	0	230	101300000	1000	0	0	-1	400
12805595	5901	1306	0	-100	0	230	101300000	1000	0	0	-1	400
12818155	5901	1306	0	-100	0	230	101300000	1000	0	0	-1	400
12830715	5895	1308	0	-100	0	230	101300000	1000	0	0	-1	400
12843275	5891	1306	0	-100	0	230	101300000	1000	0	0	-1	400
12855835	5898	1316	0	-100	0	230	101300000	1000	0	0	-1	400
12868395	5902	1306	0	-100	0	230	101300000	1000	0	0	-1	400
12880955	5898	1314	0	-100	0	230	101300000	1000	0	0	-1	400
12893515	5898	1310	0	-100	0	230	101300000	1000	0	0	-1	400
12906075	5905	1313	0	-100	0	230	101300000	1000	0	0	-1	400
12918635	5897	1312	0	-100	0	230	101300000	1000	0	0	-1	400
12931195	5897	1310	0	-100	0	230	101300000	1000	0	0	-1	400
12943755	5898	1312	0	-100	0	230	101300000	1000	0	0	-1	400
12956315	5886	1319	0	-100	0	230	101300000	1000	0	0	-1	400
12968875	5890	1310	0	-100	0	230	101300000	1000	0	0	-1	400
12981435	5900	1312	0	-100	0	230	101300000	1000	0	0	-1	400
12993995	5894	1312	0	-100	0	230	101300000	1000	0	0	-1	400
13006555	5891	1317	0	-100	0	230	101300000	1000	0	0	-1	400
13019115	5886	1321	0	-100	0	230	101300000	1000	0	0	-1	400
13031675	5891	1320	0	-100	0	230	101300000	1000	0	0	-1	400
13044235	5891	1313	0	-100	0	230	101300000	1000	0	0	-1	400
13056795	5895	1322	0	-100	0	230	101300000	1000	0	0	-1	400
13069355	5894	1311	0	-100	0	230	101300000	1000	0	0	-1	400
13081915	5895	1317	0	-100	0	230	101300000	1000	0	0	-1	400
13094475	5896	1317	0	-100	0	230	101300000	1000	0	0	-1	400
13107035	5898	1308	0	-100	0	230	101300000	1000	0	0	-1	400
13119595	5902	1311	0	-100	0	230	101300000	1000	0	0	-1	400
13132155	5903	1309	0	-100	0	230	101300000	1000	0	0	-1	400
13144715	5900	1310	0	-100	0	230	101300000	1000	0	0	-1	400
13157275	5895	1314	0	-100	0	230	101300000	1000	0	0	-1	400
13169835	5893	1307	0	-100	0	230	101300000	1000	0	0	-1	400
13182395	5894	1305	0	-100	0	230	101300000	1000	0	0	-1	400
13194955	5898	1310	0	-100	0	230	101300000	1000	0	0	-1	400
13207515	5895	1304	0	-100	0	230	101300000	1000	0	0	-1	400
13220075	5898	1311	0	-100	0	230	101300000	1000	0	0	-1	400
13232635	5892	1315	0	-100	0	230	101300000	1000	0	0	-1	400
13245195	5894	1319	0	-100	0	230	101300000	1000	0	0	-1	400
13257755	5895	1316	0	-100	0	230	101300000	1000	0	0	-1	400
13270315	5896	1309	0	-100	0	230	101300000	1000	0	0	-1	400
13282875	5901	1313	0	-100	0	230	101300000	1000	0	0	-1	400
13295435	5900	1314	0	-100	0	230	101300000	1000	0	0	-1	400
13307995	5898	1307	0	-100	0	230	101300000	1000	0	0	-1	400
13320555	5904	1308	0	-100	0	230	101300000	1000	0	0	-1	400
13333115	5895	1315	0	-100	0	230	101300000	1000	0	0	-1	400
13345675	5900	1317	0	-100	0	230	101300000	1000	0	0	-1	400
13358235	5895	1312	0	-100	0	230	101300000	1000	0	0	-1	400
13370795	5901	1320	0	-100	0	230	101300000	1000	0	0	-1	400
13383355	5898	1306	0	-100	0	230	101300000	1000	0	0	-1	400
13395915	5896	1312	0	-100	0	230	101300000	1000	0	0	-1	400
13408475	5894	1306	0	-100	0	230	101300000	1000	0	0	-1	400
13421035	5898	1312	0	-100	0	230	101300000	1000	0	0	-1	400
13433595	5897	1312	0	-100	0	230	101300000	1000	0	0	-1	400
13446155	5897	1318	0	-100	0	230	101300000	1000	0	0	-1	400
13458715	5911	1311	0	-100	0	230	101300000	1000	0	0	-1	400
13471275	5897	1306	0	-100	0	230	101300000	1000	0	0	-1	400
13483835	5893	1310	0	-100	0	230	101300000	1000	0	0	-1	400
13496395	5895	1315	0	-100	0	230	101300000	1000	0	0	-1	400
13508955	5901	1313	0	-100	0	230	101300000	1000	0	0	-1	400
13521515	5899	1315	0	-100	0	230	101300000	1000	0	0	-1	400
13534075	5894	1318	0	-100	0	230	101300000	1000	0	0	-1	400
13546635	5899	1318	0	-100	0	230	101300000	1000	0	0	-1	400
13559195	5894	1315	0	-100	0	230	101300000	1000	0	0	-1	400
13571755	5902	1304	0	-100	0	230	101300000	1000	0	0	-1	400
13584315	5890	1307	0	-100	0	230	101300000	1000	0	0	-1	400
13596875	5896	1316	0	-100	0	230	101300000	1000	0	0	-1	400
13609435	5898	1311	0	-100	0	230	101300000	1000	0	0	-1	400
13621995	5895	1306	0	-100	0	230	101300000	1000	0	0	-1	400
13634555	5901	1316	0	-100	0	230	101300000	1000	0	0	-1	400
13647115	5895	1311	0	-100	0	230	101300000	1000	0	0	-1	400
13659675	5897	1314	0	-100	0	230	101300000	1000	0	0	-1	400
13672235	5894	1318	0	-100	0	230	101300000	1000	0	0	-1	400
13684795	5903	1314	0	-100	0	230	101300000	1000	0	0	-1	400
13697355	5901	1314	0	-100	0	230	101300000	1000	0	0	-1	400
13709915	5900	1309	0	-100	0	230	101300000	1000	0	0	-1	400
13722475	5896	1315	0	-100	0	230	101300000	1000	0	0	-1	400
13735035	5898	1311	0	-100	0	230	101300000	1000	0	0	-1	400
13747595	5902	1322	0	-100	0	230	101300000	1000	0	0	-1	400
13760155	5894	1314	0	-100	0	230	101300000	1000	0	0	-1	400
13772715	5907	1316	0	-100	0	230	101300000	1000	0	0	-1	400
13785275	5903	1310	0	-100	0	230	101300000	1000	0	0	-1	400
13797835	5905	1313	0	-100	0	230	101300000	1000	0	0	-1	400
13810395	5896	1310	0	-100	0	230	101300000	1000	0	0	-1	400
13822955	5902	1314	0	-100	0	230	101300000	1000	0	0	-1	400
13835515	5895	1310	0	-100	0	230	101300000	1000	0	0	-1	400
13848075	5905	1309	0	-100	0	230	101300000	1000	0	0	-1	400
13860635	5897	1314	0	-100	0	230	101300000	1000	0	0	-1	400
13873195	5894	1317	0	-100	0	230	101300000	1000	0	0	-1	400
13885755	5901	1318	0	-100	0	230	101300000	1000	0	0	-1	400
13898315	5890	1319	0	-100	0	230	101300000	1000	0	0	-1	400
13910875	5898	1314	0	-100	0	230	101300000	1000	0	0	-1	400
13923435	5894	1305	0	-100	0	230	101300000	1000	0	0	-1	400
13935995	5894	1308	0	-100	0	230	101300000	1000	0	0	-1	400
13948555	5893	1315	0	-100	0	230	101300000	1000	0	0	-1	400
13961115	5894	1309	0	-100	0	230	101300000	1000	0	0	-1	400
13973675	5899	1310	0	-100	0	230	101300000	1000	0	0	-1	400
13986235	5898	1310	0	-100	0	230	101300000	1000	0	0	-1	400
13998795	5896	1317	0	-100	0	230	101300000	1000	0	0	-1	400
14011355	5900	1314	0	-100	0	230	101300000	1000	0	0	-1	400
14023915	5902	1314	0	-100	0	230	101300000	1000	0	0	-1	400
14036475	5902	1317	0	-100	0	230	101300000	1000	0	0	-1	400
14049035	5901	1314	0	-100	0	230	101300000	1000	0	0	-1	400
14061595	5898	1315	0	-100	0	230	101300000	1000	0	0	-1	400
14074155	5894	1317	0	-100	0	230	101300000	1000	0	0	-1	400
14086715	5903	1313	0	-100	0	230	101300000	1000	0	0	-1	400
14099275	5898	1317	0	-100	0	230	101300000	1000	0	0	-1	400
14111835	5899	1315	0	-100	0	230	101300000	1000	0	0	-1	400
14124395	5896	1313	0	-100	0	230	101300000	1000	0	0	-1	400
14136955	5899	1314	0	-100	0	230	101300000	1000	0	0	-1	400
14149515	5902	1317	0	-100	0	230	101300000	1000	0	0	-1	400
14162075	5901	1307	0	-100	0	230	101300000	1000	0	0	-1	400
14174635	5899	1309	0	-100	0	230	101300000	1000	0	0	-1	400
14187195	5894	1310	0	-100	0	230	101300000	1000	0	0	-1	400
14199755	5893	1306	0	-100	0	230	101300000	1000	0	0	-1	400
14212315	5893	1315	0	-100	0	230	101300000	1000	0	0	-1	400
14224875	5902	1314	0	-100	0	230	101300000	1000	0	0	-1	400
14237435	5905	1310	0	-100	0	230	101300000	1000	0	0	-1	400
14249995	5894	1313	0	-100	0	230	101300000	1000	0	0	-1	400
14262555	5896	1313	0	-100	0	230	101300000	1000	0	0	-1	400
14275115	5896	1314	0	-100	0	230	101300000	1000	0	0	-1	400
14287675	5895	1302	0	-100	0	230	101300000	1000	0	0	-1	400
14300235	5898	1315	0	-100	0	230	101300000	1000	0	0	-1	400
14312795	5902	1311	0	-100	0	230	101300000	1000	0	0	-1	400
14325355	5902	1314	0	-100	0	230	101300000	1000	0	0	-1	400
14337915	5899	1311	0	-100	0	230	101300000	1000	0	0	-1	400
14350475	5895	1305	0	-100	0	230	101300000	1000	0	0	-1	400
14363035	5895	1310	0	-100	0	230	101300000	1000	0	0	-1	400
14375595	5896	1311	0	-100	0	230	101300000	1000	0	0	-1	400
14388155	5897	1320	0	-100	0	230	101300000	1000	0	0	-1	400
14400715	5903	1312	0	-100	0	230	101300000	1000	0	0	-1	400
14413275	5898	1310	0	-100	0	230	101300000	1000	0	0	-1	400
14425835	5898	1318	0	-100	0	230	101300000	1000	0	0	-1	400
14438395	5897	1315	0	-100	0	230	101300000	1000	0	0	-1	400
14450955	5898	1316	0	-100	0	230	101300000	1000	0	0	-1	400
14463515	5898	1310	0	-100	0	230	101300000	1000	0	0	-1	400
14476075	5888	1307	0	-100	0	230	101300000	1000	0	0	-1	400
14488635	5897	1317	0	-100	0	230	101300000	1000	0	0	-1	400
14501195	5902	1318	0	-100	0	230	101300000	1000	0	0	-1	400
14513755	5903	1318	0	-100	0	230	101300000	1000	0	0	-1	400
14526315	5891	1309	0	-100	0	230	101300000	1000	0	0	-1	400
14538875	5894	1305	0	-100	0	230	101300000	1000	0	0	-1	400
14551435	5895	1311	0	-100	0	230	101300000	1000	0	0	-1	400
14563995	5907	1308	0	-100	0	230	101300000	1000	0	0	-1	400
14576555	5898	1312	0	-100	0	230	101300000	1000	0	0	-1	400
14589115	5898	1313	0	-100	0	230	101300000	1000	0	0	-1	400
14601675	5900	1312	0	-100	0	230	101300000	1000	0	0	-1	400
14614235	5902	1312	0	-100	0	230	101300000	1000	0	0	-1	400
14626795	5899	1311	0	-100	0	230	101300000	1000	0	0	-1	400
14639355	5905	1315	0	-100	0	230	101300000	1000	0	0	-1	400
14651915	5905	1314	0	-100	0	230	101300000	1000	0	0	-1	400
14664475	5903	1319	0	-100	0	230	101300000	1000	0	0	-1	400
14677035	5895	1318	0	-100	0	230	101300000	1000	0	0	-1	400
14689595	5895	1315	0	-100	0	230	101300000	1000	0	0	-1	400
14702155	5901	1314	0	-100	0	230	101300000	1000	0	0	-1	400
14714715	5894	1315	0	-100	0	230	101300000	1000	0	0	-1	400
14727275	5896	1318	0	-100	0	230	101300000	1000	0	0	-1	400
14739835	5895	1306	0	-100	0	230	101300000	1000	0	0	-1	400
14752395	5890	1318	0	-100	0	230	101300000	1000	0	0	-1	400
14764955	5895	1316	0	-100	0	230	101300000	1000	0	0	-1	400
14777515	5898	1312	0	-100	0	230	101300000	1000	0	0	-1	400
14790075	5898	1319	0	-100	0	230	101300000	1000	0	0	-1	400
14802635	5895	1312	0	-100	0	230	101300000	1000	0	0	-1	400
14815195	5896	1314	0	-100	0	230	101300000	1000	0	0	-1	400
14827755	5897	1308	0	-100	0	230	101300000	1000	0	0	-1	400
14840315	5889	1313	0	-100	0	230	101300000	1000	0	0	-1	400
14852875	5898	1308	0	-100	0	230	101300000	1000	0	0	-1	400
14865435	5896	1316	0	-100	0	230	101300000	1000	0	0	-1	400
14877995	5892	1318	0	-100	0	230	101300000	1000	0	0	-1	400
14890555	5890	1302	0	-100	0	230	101300000	1000	0	0	-1	400
14903115	5885	1311	0	-100	0	230	101300000	1000	0	0	-1	400
14915675	5898	1311	0	-100	0	230	101300000	1000	0	0	-1	400
14928235	5898	1311	0	-100	0	230	101300000	1000	0	0	-1	400
14940795	5899	1313	0	-100	0	230	101300000	1000	0	0	-1	400
14953355	5901	1312	0	-100	0	230	101300000	1000	0	0	-1	400
14965915	5899	1307	0	-100	0	230	101300000	1000	0	0	-1	400
14978475	5892	1310	0	-100	0	230	101300000	1000	0	0	-1	400
14991035	5898	1310	0	-100	0	230	101300000	1000	0	0	-1	400
15003595	5898	1315	0	-100	0	230	101300000	1000	0	0	-1	400
15016155	5899	1313	0	-100	0	230	101300000	1000	0	0	-1	400
15028715	5898	1313	0	-100	0	230	101300000	1000	0	0	-1	400
15041275	5898	1316	0	-100	0	230	101300000	1000	0	0	-1	400
15053835	5902	1314	0	-100	0	230	101300000	1000	0	0	-1	400
15066395	5900	1315	0	-100	0	230	101300000	1000	0	0	-1	400
15078955	5900	1317	0	-100	0	230	101300000	1000	0	0	-1	400
15091515	5895	1309	0	-100	0	230	101300000	1000	0	0	-1	400
15104075	5899	1314	0	-100	0	230	101300000	1000	0	0	-1	400
15116635	5900	1321	0	-100	0	230	101300000	1000	0	0	-1	400
15129195	5898	1324	0	-100	0	230	101300000	1000	0	0	-1	400
15141755	5898	1314	0	-100	0	230	101300000	1000	0	0	-1	400
15154315	5891	1316	0	-100	0	230	101300000	1000	0	0	-1	400
15166875	5900	1309	0	-100	0	230	101300000	1000	0	0	-1	400
15179435	5890	1313	0	-100	0	230	101300000	1000	0	0	-1	400
15191995	5893	1315	0	-100	0	230	101300000	1000	0	0	-1	400
15204555	5898	1319	0	-100	0	230	101300000	1000	0	0	-1	400
15217115	5894	1309	0	-100	0	230	101300000	1000	0	0	-1	400
15229675	5903	1309	0	-100	0	230	101300000	1000	0	0	-1	400
15242235	5897	1307	0	-100	0	230	101300000	1000	0	0	-1	400
15254795	5901	1318	0	-100	0	230	101300000	1000	0	0	-1	400
15267355	5901	1318	0	-100	0	230	101300000	1000	0	0	-1	400
15279915	5894	1313	0	-100	0	230	101300000	1000	0	0	-1	400
15292475	5896	1323	0	-100	0	230	101300000	1000	0	0	-1	400
15305035	5895	1316	0	-100	0	230	101300000	1000	0	0	-1	400
15317595	5899	1320	0	-100	0	230	101300000	1000	0	0	-1	400
15330155	5901	1315	0	-100	0	230	101300000	1000	0	0	-1	400
15342715	5896	1310	0	-100	0	230	101300000	1000	0	0	-1	400
15355275	5901	1313	0	-100	0	230	101300000	1000	0	0	-1	400
15367835	5903	1317	0	-100	0	230	101300000	1000	0	0	-1	400
15380395	5902	1310	0	-100	0	230	101300000	1000	0	0	-1	400
15392955	5902	1306	0	-100	0	230	101300000	1000	0	0	-1	400
15405515	5894	1314	0	-100	0	230	101300000	1000	0	0	-1	400
15418075	5900	1324	0	-100	0	230	101300000	1000	0	0	-1	400
15430635	5895	1312	0	-100	0	230	101300000	1000	0	0	-1	400
15443195	5894	1310	0	-100	0	230	101300000	1000	0	0	-1	400
15455755	5889	1312	0	-100	0	230	101300000	1000	0	0	-1	400
15468315	5882	1315	0	-100	0	230	101300000	1000	0	0	-1	400
15480875	5900	1317	0	-100	0	230	101300000	1000	0	0	-1	400
15493435	5898	1311	0	-100	0	230	101300000	1000	0	0	-1	400
15505995	5898	1314	0	-100	0	230	101300000	1000	0	0	-1	400
15518555	5898	1311	0	-100	0	230	101300000	1000	0	0	-1	400
15531115	5899	1313	0	-100	0	230	101300000	1000	0	0	-1	400
15543675	5906	1313	0	-100	0	230	101300000	1000	0	0	-1	400
15556235	5893	1317	0	-100	0	230	101300000	1000	0	0	-1	400
15568795	5895	1309	0	-100	0	230	101300000	1000	0	0	-1	400
15581355	5895	1312	0	-100	0	230	101300000	1000	0	0	-1	400
15593915	5898	1315	0	-100	0	230	101300000	1000	0	0	-1	400
15606475	5896	1316	0	-100	0	230	101300000	1000	0	0	-1	400
15619035	5898	1314	0	-100	0	230	101300000	1000	0	0	-1	400
15631595	5901	1314	0	-100	0	230	101300000	1000	0	0	-1	400
15644155	5902	1311	0	-100	0	230	101300000	1000	0	0	-1	400
15656715	5896	1315	0	-100	0	230	101300000	1000	0	0	-1	400
15669275	5902	1318	0	-100	0	230	101300000	1000	0	0	-1	400
15681835	5898	1315	0	-100	0	230	101300000	1000	0	0	-1	400
15694395	5901	1310	0	-100	0	230	101300000	1000	0	0	-1	400
15706955	5898	1313	0	-100	0	230	101300000	1000	0	0	-1	400
15719515	5900	1312	0	-100	0	230	101300000	1000	0	0	-1	400
15732075	5901	1312	0	-100	0	230	101300000	1000	0	0	-1	400
15744635	5907	1311	0	-100	0	230	101300000	1000	0	0	-1	400
15757195	5898	1314	0	-100	0	230	101300000	1000	0	0	-1	400
15769755	5897	1322	0	-100	0	230	101300000	1000	0	0	-1	400
15782315	5890	1310	0	-100	0	230	101300000	1000	0	0	-1	400
15794875	5891	1309	0	-100	0	230	101300000	1000	0	0	-1	400
15807435	5895	1312	0	-100	0	230	101300000	1000	0	0	-1	400
15819995	5897	1315	0	-100	0	230	101300000	1000	0	0	-1	400
15832555	5899	1311	0	-100	0	230	101300000	1000	0	0	-1	400
15845115	5898	1315	0	-100	0	230	101300000	1000	0	0	-1	400
15857675	5897	1313	0	-100	0	230	101300000	1000	0	0	-1	400
15870235	5906	1315	0	-100	0	230	101300000	1000	0	0	-1	400
15882795	5895	1312	0	-100	0	230	101300000	1000	0	0	-1	400
15895355	5902	1309	0	-100	0	230	101300000	1000	0	0	-1	400
15907915	5901	1318	0	-100	0	230	101300000	1000	0	0	-1	400
15920475	5893	1312	0	-100	0	230	101300000	1000	0	0	-1	400
15933035	5896	1310	0	-100	0	230	101300000	1000	0	0	-1	400
15945595	5900	1312	0	-100	0	230	101300000	1000	0	0	-1	400
15958155	5894	1306	0	-100	0	230	101300000	1000	0	0	-1	400
15970715	5899	1315	0	-100	0	230	101300000	1000	0	0	-1	400
15983275	5898	1315	0	-100	0	230	101300000	1000	0	0	-1	400
15995835	5898	1312	0	-100	0	230	101300000	1000	0	0	-1	400
16008395	5897	1313	0	-100	0	230	101300000	1000	0	0	-1	400
16020955	5891	1314	0	-100	0	230	101300000	1000	0	0	-1	400
16033515	5894	1316	0	-100	0	230	101300000	1000	0	0	-1	400
16046075	5890	1317	0	-100	0	230	101300000	1000	0	0	-1	400
16058635	5895	1308	0	-100	0	230	101300000	1000	0	0	-1	400
16071195	5894	1316	0	-100	0	230	101300000	1000	0	0	-1	400
16083755	5894	1315	0	-100	0	230	101300000	1000	0	0	-1	400
16096315	5886	1314	0	-100	0	230	101300000	1000	0	0	-1	400
16108875	5900	1318	0	-100	0	230	101300000	1000	0	0	-1	400
16121435	5905	1312	0	-100	0	230	101300000	1000	0	0	-1	400
16133995	5898	1318	0	-100	0	230	101300000	1000	0	0	-1	400
16146555	5896	1310	0	-100	0	230	101300000	1000	0	0	-1	400
16159115	5893	1315	0	-100	0	230	101300000	1000	0	0	-1	400
16171675	5896	1315	0	-100	0	230	101300000	1000	0	0	-1	400
16184235	5896	1318	0	-100	0	230	101300000	1000	0	0	-1	400
16196795	5900	1312	0	-100	0	230	101300000	1000	0	0	-1	400
16209355	5906	1314	0	-100	0	230	101300000	1000	0	0	-1	400
16221915	5901	1314	0	-100	0	230	101300000	1000	0	0	-1	400
16234475	5907	1309	0	-100	0	230	101300000	1000	0	0	-1	400
16247035	5898	1318	0	-100	0	230	101300000	1000	0	0	-1	400
16259595	5905	1315	0	-100	0	230	101300000	1000	0	0	-1	400
16272155	5902	1315	0	-100	0	230	101300000	1000	0	0	-1	400
16284715	5894	1320	0	-100	0	230	101300000	1000	0	0	-1	400
16297275	5900	1317	0	-100	0	230	101300000	1000	0	0	-1	400
16309835	5901	1312	0	-100	0	230	101300000	1000	0	0	-1	400
16322395	5900	1314	0	-100	0	230	101300000	1000	0	0	-1	400
16334955	5897	1315	0	-100	0	230	101300000	1000	0	0	-1	400
16347515	5899	1313	0	-100	0	230	101300000	1000	0	0	-1	400
16360075	5899	1312	0	-100	0	230	101300000	1000	0	0	-1	400
16372635	5899	1316	0	-100	0	230	101300000	1000	0	0	-1	400
16385195	5902	1308	0	-100	0	230	101300000	1000	0	0	-1	400
16397755	5897	1314	0	-100	0	230	101300000	1000	0	0	-1	400
16410315	5890	1312	0	-100	0	230	101300000	1000	0	0	-1	400
16422875	5892	1318	0	-100	0	230	101300000	1000	0	0	-1	400
16435435	5894	1308	0	-100	0	230	101300000	1000	0	0	-1	400
16447995	5894	1311	0	-100	0	230	101300000	1000	0	0	-1	400
16460555	5892	1316	0	-100	0	230	101300000	1000	0	0	-1	400
16473115	5894	1325	0	-100	0	230	101300000	1000	0	0	-1	400
16485675	5907	1314	0	-100	0	230	101300000	1000	0	0	-1	400
16498235	5897	1316	0	-100	0	230	101300000	1000	0	0	-1	400
16510795	5895	1315	0	-100	0	230	101300000	1000	0	0	-1	400
16523355	5895	1312	0	-100	0	230	101300000	1000	0	0	-1	400
16535915	5896	1318	0	-100	0	230	101300000	1000	0	0	-1	400
16548475	5890	1314	0	-100	0	230	101300000	1000	0	0	-1	400
16561035	5894	1317	0	-100	0	230	101300000	1000	0	0	-1	400
16573595	5906	1318	0	-100	0	230	101300000	1000	0	0	-1	400
16586155	5902	1312	0	-100	0	230	101300000	1000	0	0	-1	400
16598715	5895	1313	0	-100	0	230	101300000	1000	0	0	-1	400
16611275	5898	1308	0	-100	0	230	101300000	1000	0	0	-1	400
16623835	5903	1317	0	-100	0	230	101300000	1000	0	0	-1	400
16636395	5902	1307	0	-100	0	230	101300000	1000	0	0	-1	400
16648955	5903	1306	0	-100	0	230	101300000	1000	0	0	-1	400
16661515	5894	1314	0	-100	0	230	101300000	1000	0	0	-1	400
16674075	5898	1319	0	-100	0	230	101300000	1000	0	0	-1	400
16686635	5894	1316	0	-100	0	230	101300000	1000	0	0	-1	400
16699195	5900	1317	0	-100	0	230	101300000	1000	0	0	-1	400
16711755	5894	1307	0	-100	0	230	101300000	1000	0	0	-1	400
16724315	5894	1309	0	-100	0	230	101300000	1000	0	0	-1	400
16736875	5895	1313	0	-100	0	230	101300000	1000	0	0	-1	400
16749435	5896	1318	0	-100	0	230	101300000	1000	0	0	-1	400
16761995	5898	1318	0	-100	0	230	101300000	1000	0	0	-1	400
16774555	5899	1315	0	-100	0	230	101300000	1000	0	0	-1	400
16787115	5896	1313	0	-100	0	230	101300000	1000	0	0	-1	400
16799675	5900	1316	0	-100	0	230	101300000	1000	0	0	-1	400
16812235	5901	1318	0	-100	0	230	101300000	1000	0	0	-1	400
16824795	5903	1314	0	-100	0	230	101300000	1000	0	0	-1	400
16837355	5902	1325	0	-100	0	230	101300000	1000	0	0	-1	400
16849915	5896	1317	0	-100	0	230	101300000	1000	0	0	-1	400
16862475	5898	1319	0	-100	0	230	101300000	1000	0	0	-1	400
16875035	5890	1311	0	-100	0	230	101300000	1000	0	0	-1	400
16887595	5895	1309	0	-100	0	230	101300000	1000	0	0	-1	400
16900155	3850	1187	0	-100	0	230	101300000	1000	0	0	-1	400
16912715	3830	1197	0	-100	0	230	101300000	1000	0	0	-1	400
16925275	3808	1193	0	-100	0	230	101300000	1000	0	0	-1	400
16937835	3808	1192	0	-100	0	230	101300000	1000	0	0	-1	400
16950395	3802	1189	0	-100	0	230	101300000	1000	0	0	-1	400
16962955	3852	1189	0	-100	0	230	101300000	1000	0	0	-1	400
16975515	5873	1316	0	-100	0	230	101300000	1000	0	0	-1	400
16988075	5891	1313	0	-100	0	230	101300000	1000	0	0	-1	400
17000635	5893	1314	0	-100	0	230	101300000	1000	0	0	-1	400
17013195	5898	1311	0	-100	0	230	101300000	1000	0	0	-1	400
17025755	5901	1317	0	-100	0	230	101300000	1000	0	0	-1	400
17038315	5892	1318	0	-100	0	230	101300000	1000	0	0	-1	400
17050875	5905	1312	0	-100	0	230	101300000	1000	0	0	-1	400
17063435	5902	1320	0	-100	0	230	101300000	1000	0	0	-1	400
17075995	5887	1315	0	-100	0	230	101300000	1000	0	0	-1	400
17088555	5891	1314	0	-100	0	230	101300000	1000	0	0	-1	400
17101115	5884	1317	0	-100	0	230	101300000	1000	0	0	-1	400
17113675	5895	1313	0	-100	0	230	101300000	1000	0	0	-1	400
17126235	5892	1317	0	-100	0	230	101300000	1000	0	0	-1	400
17138795	5889	1314	0	-100	0	230	101300000	1000	0	0	-1	400
17151355	5898	1313	0	-100	0	230	101300000	1000	0	0	-1	400
17163915	5889	1316	0	-100	0	230	101300000	1000	0	0	-1	400
17176475	5897	1323	0	-100	0	230	101300000	1000	0	0	-1	400
17189035	5892	1319	0	-100	0	230	101300000	1000	0	0	-1	400
17201595	5894	1321	0	-100	0	230	101300000	1000	0	0	-1	400
17214155	5894	1317	0	-100	0	230	101300000	1000	0	0	-1	400
17226715	5893	1319	0	-100	0	230	101300000	1000	0	0	-1	400
17239275	5895	1318	0	-100	0	230	101300000	1000	0	0	-1	400
17251835	5899	1308	0	-100	0	230	101300000	1000	0	0	-1	400
17264395	5896	1321	0	-100	0	230	101300000	1000	0	0	-1	400
17276955	5892	1324	0	-100	0	230	101300000	1000	0	0	-1	400
17289515	5893	1321	0	-100	0	230	101300000	1000	0	0	-1	400
17302075	5899	1316	0	-100	0	230	101300000	1000	0	0	-1	400
17314635	5896	1316	0	-100	0	230	101300000	1000	0	0	-1	400
17327195	5894	1318	0	-100	0	230	101300000	1000	0	0	-1	400
17339755	5895	1321	0	-100	0	230	101300000	1000	0	0	-1	400
17352315	5895	1315	0	-100	0	230	101300000	1000	0	0	-1	400
17364875	5887	1316	0	-100	0	230	101300000	1000	0	0	-1	400
17377435	5894	1312	0	-100	0	230	101300000	1000	0	0	-1	400
17389995	5896	1319	0	-100	0	230	101300000	1000	0	0	-1	400
17402555	5894	1310	0	-100	0	230	101300000	1000	0	0	-1	400
17415115	5882	1315	0	-100	0	230	101300000	1000	0	0	-1	400
17427675	5895	1319	0	-100	0	230	101300000	1000	0	0	-1	400
17440235	5895	1321	0	-100	0	230	101300000	1000	0	0	-1	400
17452795	5894	1321	0	-100	0	230	101300000	1000	0	0	-1	400
17465355	5890	1321	0	-100	0	230	101300000	1000	0	0	-1	400
17477915	5894	1309	0	-100	0	230	101300000	1000	0	0	-1	400
17490475	5897	1313	0	-100	0	230	101300000	1000	0	0	-1	400
17503035	5899	1318	0	-100	0	230	101300000	1000	0	0	-1	400
17515595	5898	1317	0	-100	0	230	101300000	1000	0	0	-1	400
17528155	5899	1309	0	-100	0	230	101300000	1000	0	0	-1	400
17540715	5898	1313	0	-100	0	230	101300000	1000	0	0	-1	400
17553275	5900	1318	0	-100	0	230	101300000	1000	0	0	-1	400
17565835	5896	1310	0	-100	0	230	101300000	1000	0	0	-1	400
17578395	5893	1310	0	-100	0	230	101300000	1000	0	0	-1	400
17590955	5901	1318	0	-100	0	230	101300000	1000	0	0	-1	400
17603515	5901	1316	0	-100	0	230	101300000	1000	0	0	-1	400
17616075	5890	1308	0	-100	0	230	101300000	1000	0	0	-1	400
17628635	5893	1324	0	-100	0	230	101300000	1000	0	0	-1	400
17641195	5899	1316	0	-100	0	230	101300000	1000	0	0	-1	400
17653755	5899	1315	0	-100	0	230	101300000	1000	0	0	-1	400
17666315	5887	1316	0	-100	0	230	101300000	1000	0	0	-1	400
17678875	5888	1318	0	-100	0	230	101300000	1000	0	0	-1	400
17691435	5895	1316	0	-100	0	230	101300000	1000	0	0	-1	400
17703995	5902	1312	0	-100	0	230	101300000	1000	0	0	-1	400
17716555	5892	1316	0	-100	0	230	101300000	1000	0	0	-1	400
17729115	5888	1323	0	-100	0	230	101300000	1000	0	0	-1	400
17741675	5899	1319	0	-100	0	230	101300000	1000	0	0	-1	400
17754235	5902	1313	0	-100	0	230	101300000	1000	0	0	-1	400
17766795	5895	1319	0	-100	0	230	101300000	1000	0	0	-1	400
17779355	5898	1318	0	-100	0	230	101300000	1000	0	0	-1	400
17791915	5898	1312	0	-100	0	230	101300000	1000	0	0	-1	400
17804475	5891	1318	0	-100	0	230	101300000	1000	0	0	-1	400
17817035	5900	1322	0	-100	0	230	101300000	1000	0	0	-1	400
17829595	5901	1316	0	-100	0	230	101300000	1000	0	0	-1	400
17842155	5898	1321	0	-100	0	230	101300000	1000	0	0	-1	400
17854715	5898	1313	0	-100	0	230	101300000	1000	0	0	-1	400
17867275	5902	1319	0	-100	0	230	101300000	1000	0	0	-1	400
17879835	5896	1323	0	-100	0	230	101300000	1000	0	0	-1	400
17892395	5898	1319	0	-100	0	230	101300000	1000	0	0	-1	400
17904955	5904	1322	0	-100	0	230	101300000	1000	0	0	-1	400
17917515	5891	1316	0	-100	0	230	101300000	1000	0	0	-1	400
17930075	5895	1320	0	-100	0	230	101300000	1000	0	0	-1	400
17942635	5897	1312	0	-100	0	230	101300000	1000	0	0	-1	400
17955195	5893	1321	0	-100	0	230	101300000	1000	0	0	-1	400
17967755	5903	1314	0	-100	0	230	101300000	1000	0	0	-1	400
17980315	5886	1316	0	-100	0	230	101300000	1000	0	0	-1	400
17992875	5896	1311	0	-100	0	230	101300000	1000	0	0	-1	400
18005435	5895	1316	0	-100	0	230	101300000	1000	0	0	-1	400
18017995	5894	1316	0	-100	0	230	101300000	1000	0	0	-1	400
18030555	5894	1312	0	-100	0	230	101300000	1000	0	0	-1	400
18043115	5884	1312	0	-100	0	230	101300000	1000	0	0	-1	400
18055675	5901	1312	0	-100	0	230	101300000	1000	0	0	-1	400
18068235	5896	1317	0	-100	0	230	101300000	1000	0	0	-1	400
18080795	5893	1321	0	-100	0	230	101300000	1000	0	0	-1	400
18093355	5895	1320	0	-100	0	230	101300000	1000	0	0	-1	400
18105915	5896	1313	0	-100	0	230	101300000	1000	0	0	-1	400
18118475	5894	1316	0	-100	0	230	101300000	1000	0	0	-1	400
18131035	5894	1327	0	-100	0	230	101300000	1000	0	0	-1	400
18143595	5896	1313	0	-100	0	230	101300000	1000	0	0	-1	400
18156155	5893	1312	0	-100	0	230	101300000	1000	0	0	-1	400
18168715	5898	1314	0	-100	0	230	101300000	1000	0	0	-1	400
18181275	5893	1314	0	-100	0	230	101300000	1000	0	0	-1	400
18193835	5894	1321	0	-100	0	230	101300000	1000	0	0	-1	400
18206395	5901	1315	0	-100	0	230	101300000	1000	0	0	-1	400
18218955	5892	1316	0	-100	0	230	101300000	1000	0	0	-1	400
18231515	5902	1312	0	-100	0	230	101300000	1000	0	0	-1	400
18244075	5898	1308	0	-100	0	230	101300000	1000	0	0	-1	400
18256635	5901	1325	0	-100	0	230	101300000	1000	0	0	-1	400
18269195	5895	1310	0	-100	0	230	101300000	1000	0	0	-1	400
18281755	5894	1313	0	-100	0	230	101300000	1000	0	0	-1	400
18294315	5894	1312	0	-100	0	230	101300000	1000	0	0	-1	400
18306875	5891	1312	0	-100	0	230	101300000	1000	0	0	-1	400
18319435	5894	1312	0	-100	0	230	101300000	1000	0	0	-1	400
18331995	5900	1319	0	-100	0	230	101300000	1000	0	0	-1	400
18344555	5897	1320	0	-100	0	230	101300000	1000	0	0	-1	400
18357115	5896	1317	0	-100	0	230	101300000	1000	0	0	-1	400
18369675	5893	1315	0	-100	0	230	101300000	1000	0	0	-1	400
18382235	5907	1317	0	-100	0	230	101300000	1000	0	0	-1	400
18394795	5890	1316	0	-100	0	230	101300000	1000	0	0	-1	400
18407355	5904	1319	0	-100	0	230	101300000	1000	0	0	-1	400
18419915	5894	1313	0	-100	0	230	101300000	1000	0	0	-1	400
18432475	5892	1314	0	-100	0	230	101300000	1000	0	0	-1	400
18445035	5898	1315	0	-100	0	230	101300000	1000	0	0	-1	400
18457595	5898	1314	0	-100	0	230	101300000	1000	0	0	-1	400
18470155	5896	1321	0	-100	0	230	101300000	1000	0	0	-1	400
18482715	5891	1314	0	-100	0	230	101300000	1000	0	0	-1	400
18495275	5898	1322	0	-100	0	230	101300000	1000	0	0	-1	400
18507835	5901	1303	0	-100	0	230	101300000	1000	0	0	-1	400
18520395	5896	1315	0	-100	0	230	101300000	1000	0	0	-1	400
18532955	5894	1321	0	-100	0	230	101300000	1000	0	0	-1	400
18545515	5899	1325	0	-100	0	230	101300000	1000	0	0	-1	400
18558075	5907	1318	0	-100	0	230	101300000	1000	0	0	-1	400
18570635	5891	1315	0	-100	0	230	101300000	1000	0	0	-1	400
18583195	5892	1314	0	-100	0	230	101300000	1000	0	0	-1	400
18595755	5886	1313	0	-100	0	230	101300000	1000	0	0	-1	400
18608315	5886	1313	0	-100	0	230	101300000	1000	0	0	-1	400
18620875	5907	1322	0	-100	0	230	101300000	1000	0	0	-1	400
18633435	5901	1314	0	-100	0	230	101300000	1000	0	0	-1	400
18645995	5892	1312	0	-100	0	230	101300000	1000	0	0	-1	400
18658555	5897	1323	0	-100	0	230	101300000	1000	0	0	-1	400
18671115	5886	1315	0	-100	0	230	101300000	1000	0	0	-1	400
18683675	5899	1311	0	-100	0	230	101300000	1000	0	0	-1	400
18696235	5890	1312	0	-100	0	230	101300000	1000	0	0	-1	400
18708795	5890	1320	0	-100	0	230	101300000	1000	0	0	-1	400
18721355	5903	1318	0	-100	0	230	101300000	1000	0	0	-1	400
18733915	5892	1307	0	-100	0	230	101300000	1000	0	0	-1	400
18746475	5898	1316	0	-100	0	230	101300000	1000	0	0	-1	400
18759035	5894	1315	0	-100	0	230	101300000	1000	0	0	-1	400
18771595	5894	1313	0	-100	0	230	101300000	1000	0	0	-1	400
18784155	5900	1323	0	-100	0	230	101300000	1000	0	0	-1	400
18796715	5898	1314	0	-100	0	230	101300000	1000	0	0	-1	400
18809275	5898	1319	0	-100	0	230	101300000	1000	0	0	-1	400
18821835	5900	1319	0	-100	0	230	101300000	1000	0	0	-1	400
18834395	5903	1306	0	-100	0	230	101300000	1000	0	0	-1	400
18846955	5896	1314	0	-100	0	230	101300000	1000	0	0	-1	400
18859515	5894	1315	0	-100	0	230	101300000	1000	0	0	-1	400
18872075	5895	1314	0	-100	0	230	101300000	1000	0	0	-1	400
18884635	5892	1316	0	-100	0	230	101300000	1000	0	0	-1	400
18897195	5899	1319	0	-100	0	230	101300000	1000	0	0	-1	400
18909755	5898	1322	0	-100	0	230	101300000	1000	0	0	-1	400
18922315	5895	1319	0	-100	0	230	101300000	1000	0	0	-1	400
18934875	5899	1308	0	-100	0	230	101300000	1000	0	0	-1	400
18947435	5891	1315	0	-100	0	230	101300000	1000	0	0	-1	400
18959995	5895	1314	0	-100	0	230	101300000	1000	0	0	-1	400
18972555	5900	1320	0	-100	0	230	101300000	1000	0	0	-1	400
18985115	5893	1310	0	-100	0	230	101300000	1000	0	0	-1	400
18997675	5894	1318	0	-100	0	230	101300000	1000	0	0	-1	400
19010235	5899	1314	0	-100	0	230	101300000	1000	0	0	-1	400
19022795	5902	1319	0	-100	0	230	101300000	1000	0	0	-1	400
19035355	5890	1309	0	-100	0	230	101300000	1000	0	0	-1	400
19047915	5891	1312	0	-100	0	230	101300000	1000	0	0	-1	400
19060475	5899	1316	0	-100	0	230	101300000	1000	0	0	-1	400
19073035	5896	1320	0	-100	0	230	101300000	1000	0	0	-1	400
19085595	5893	1316	0	-100	0	230	101300000	1000	0	0	-1	400
19098155	5905	1313	0	-100	0	230	101300000	1000	0	0	-1	400
19110715	5898	1313	0	-100	0	230	101300000	1000	0	0	-1	400
19123275	5894	1314	0	-100	0	230	101300000	1000	0	0	-1	400
19135835	5899	1314	0	-100	0	230	101300000	1000	0	0	-1	400
19148395	5898	1318	0	-100	0	230	101300000	1000	0	0	-1	400
19160955	5897	1312	0	-100	0	230	101300000	1000	0	0	-1	400
19173515	5898	1322	0	-100	0	230	101300000	1000	0	0	-1	400
19186075	5899	1318	0	-100	0	230	101300000	1000	0	0	-1	400
19198635	5897	1315	0	-100	0	230	101300000	1000	0	0	-1	400
19211195	5891	1317	0	-100	0	230	101300000	1000	0	0	-1	400
19223755	5898	1327	0	-100	0	230	101300000	1000	0	0	-1	400
19236315	5896	1316	0	-100	0	230	101300000	1000	0	0	-1	400
19248875	5902	1318	0	-100	0	230	101300000	1000	0	0	-1	400
19261435	5894	1317	0	-100	0	230	101300000	1000	0	0	-1	400
19273995	5897	1315	0	-100	0	230	101300000	1000	0	0	-1	400
19286555	5897	1321	0	-100	0	230	101300000	1000	0	0	-1	400
19299115	5884	1318	0	-100	0	230	101300000	1000	0	0	-1	400
19311675	5906	1313	0	-100	0	230	101300000	1000	0	0	-1	400
19324235	5897	1310	0	-100	0	230	101300000	1000	0	0	-1	400
19336795	5894	1312	0	-100	0	230	101300000	1000	0	0	-1	400
19349355	5897	1319	0	-100	0	230	101300000	1000	0	0	-1	400
19361915	5895	1317	0	-100	0	230	101300000	1000	0	0	-1	400
19374475	5902	1315	0	-100	0	230	101300000	1000	0	0	-1	400
19387035	5893	1311	0	-100	0	230	101300000	1000	0	0	-1	400
19399595	5898	1317	0	-100	0	230	101300000	1000	0	0	-1	400
19412155	5893	1316	0	-100	0	230	101300000	1000	0	0	-1	400
19424715	5891	1320	0	-100	0	230	101300000	1000	0	0	-1	400
19437275	5896	1314	0	-100	0	230	101300000	1000	0	0	-1	400
19449835	5898	1314	0	-100	0	230	101300000	1000	0	0	-1	400
19462395	5890	1322	0	-100	0	230	101300000	1000	0	0	-1	400
19474955	5898	1316	0	-100	0	230	101300000	1000	0	0	-1	400
19487515	5902	1318	0	-100	0	230	101300000	1000	0	0	-1	400
19500075	5897	1317	0	-100	0	230	101300000	1000	0	0	-1	400
19512635	5890	1313	0	-100	0	230	101300000	1000	0	0	-1	400
19525195	5893	1316	0	-100	0	230	101300000	1000	0	0	-1	400
19537755	5898	1319	0	-100	0	230	101300000	1000	0	0	-1	400
19550315	5894	1311	0	-100	0	230	101300000	1000	0	0	-1	400
19562875	5890	1319	0	-100	0	230	101300000	1000	0	0	-1	400
19575435	5890	1312	0	-100	0	230	101300000	1000	0	0	-1	400
19587995	5901	1318	0	-100	0	230	101300000	1000	0	0	-1	400
19600555	5895	1314	0	-100	0	230	101300000	1000	0	0	-1	400
19613115	5886	1320	0	-100	0	230	101300000	1000	0	0	-1	400
19625675	5898	1321	0	-100	0	230	101300000	1000	0	0	-1	400
19638235	5894	1312	0	-100	0	230	101300000	1000	0	0	-1	400
19650795	5890	1313	0	-100	0	230	101300000	1000	0	0	-1	400
19663355	5891	1321	0	-100	0	230	101300000	1000	0	0	-1	400
19675915	5894	1313	0	-100	0	230	101300000	1000	0	0	-1	400
19688475	5897	1319	0	-100	0	230	101300000	1000	0	0	-1	400
19701035	5898	1315	0	-100	0	230	101300000	1000	0	0	-1	400
19713595	5898	1316	0	-100	0	230	101300000	1000	0	0	-1	400
19726155	5901	1315	0	-100	0	230	101300000	1000	0	0	-1	400
19738715	5898	1309	0	-100	0	230	101300000	1000	0	0	-1	400
19751275	5897	1315	0	-100	0	230	101300000	1000	0	0	-1	400
19763835	5899	1308	0	-100	0	230	101300000	1000	0	0	-1	400
19776395	5888	1310	0	-100	0	230	101300000	1000	0	0	-1	400
19788955	5894	1312	0	-100	0	230	101300000	1000	0	0	-1	400
19801515	5894	1318	0	-100	0	230	101300000	1000	0	0	-1	400
19814075	5898	1313	0	-100	0	230	101300000	1000	0	0	-1	400
19826635	5892	1308	0	-100	0	230	101300000	1000	0	0	-1	400
19839195	5895	1319	0	-100	0	230	101300000	1000	0	0	-1	400
19851755	5892	1309	0	-100	0	230	101300000	1000	0	0	-1	400
19864315	5891	1313	0	-100	0	230	101300000	1000	0	0	-1	400
19876875	5894	1314	0	-100	0	230	101300000	1000	0	0	-1	400
19889435	5892	1316	0	-100	0	230	101300000	1000	0	0	-1	400
19901995	5896	1313	0	-100	0	230	101300000	1000	0	0	-1	400
19914555	5895	1314	0	-100	0	230	101300000	1000	0	0	-1	400
19927115	5892	1314	0	-100	0	230	101300000	1000	0	0	-1	400
19939675	5899	1308	0	-100	0	230	101300000	1000	0	0	-1	400
19952235	5891	1318	0	-100	0	230	101300000	1000	0	0	-1	400
19964795	5903	1314	0	-100	0	230	101300000	1000	0	0	-1	400
19977355	5894	1308	0	-100	0	230	101300000	1000	0	0	-1	400
19989915	5891	1315	0	-100	0	230	101300000	1000	0	0	-1	400
20002475	5897	1311	0	-100	0	230	101300000	1000	0	0	-1	400
20015035	5891	1317	0	-100	0	230	101300000	1000	0	0	-1	400
20027595	5901	1306	0	-100	0	230	101300000	1000	0	0	-1	400
20040155	5893	1320	0	-100	0	230	101300000	1000	0	0	-1	400
20052715	5900	1314	0	-100	0	230	101300000	1000	0	0	-1	400
20065275	5896	1314	0	-100	0	230	101300000	1000	0	0	-1	400
20077835	5894	1316	0	-100	0	230	101300000	1000	0	0	-1	400
20090395	5902	1321	0	-100	0	230	101300000	1000	0	0	-1	400
20102955	5894	1314	0	-100	0	230	101300000	1000	0	0	-1	400
20115515	5898	1316	0	-100	0	230	101300000	1000	0	0	-1	400
20128075	5895	1309	0	-100	0	230	101300000	1000	0	0	-1	400
20140635	5890	1320	0	-100	0	230	101300000	1000	0	0	-1	400
20153195	5896	1314	0	-100	0	230	101300000	1000	0	0	-1	400
20165755	5890	1307	0	-100	0	230	101300000	1000	0	0	-1	400
20178315	5894	1313	0	-100	0	230	101300000	1000	0	0	-1	400
20190875	5898	1323	0	-100	0	230	101300000	1000	0	0	-1	400
20203435	5893	1316	0	-100	0	230	101300000	1000	0	0	-1	400
20215995	5903	1314	0	-100	0	230	101300000	1000	0	0	-1	400
20228555	5894	1311	0	-100	0	230	101300000	1000	0	0	-1	400
20241115	5892	1319	0	-100	0	230	101300000	1000	0	0	-1	400
20253675	5903	1312	0	-100	0	230	101300000	1000	0	0	-1	400
20266235	5891	1312	0	-100	0	230	101300000	1000	0	0	-1	400
20278795	5897	1315	0	-100	0	230	101300000	1000	0	0	-1	400
20291355	5896	1305	0	-100	0	230	101300000	1000	0	0	-1	400
20303915	5891	1313	0	-100	0	230	101300000	1000	0	0	-1	400
20316475	5894	1312	0	-100	0	230	101300000	1000	0	0	-1	400
20329035	5897	1311	0	-100	0	230	101300000	1000	0	0	-1	400
20341595	5892	1312	0	-100	0	230	101300000	1000	0	0	-1	400
20354155	5900	1316	0	-100	0	230	101300000	1000	0	0	-1	400
20366715	5903	1310	0	-100	0	230	101300000	1000	0	0	-1	400
20379275	5892	1310	0	-100	0	230	101300000	1000	0	0	-1	400
20391835	5896	1317	0	-100	0	230	101300000	1000	0	0	-1	400
20404395	5891	1315	0	-100	0	230	101300000	1000	0	0	-1	400
20416955	5898	1312	0	-100	0	230	101300000	1000	0	0	-1	400
20429515	5900	1315	0	-100	0	230	101300000	1000	0	0	-1	400
20442075	5891	1313	0	-100	0	230	101300000	1000	0	0	-1	400
20454635	5898	1312	0	-100	0	230	101300000	1000	0	0	-1	400
20467195	5901	1309	0	-100	0	230	101300000	1000	0	0	-1	400
20479755	5896	1321	0	-100	0	230	101300000	1000	0	0	-1	400
20492315	5888	1313	0	-100	0	230	101300000	1000	0	0	-1	400
20504875	5898	1320	0	-100	0	230	101300000	1000	0	0	-1	400
20517435	5898	1320	0	-100	0	230	101300000	1000	0	0	-1	400
20529995	5896	1312	0	-100	0	230	101300000	1000	0	0	-1	400
20542555	5891	1311	0	-100	0	230	101300000	1000	0	0	-1	400
20555115	5883	1317	0	-100	0	230	101300000	1000	0	0	-1	400
20567675	5898	1315	0	-100	0	230	101300000	1000	0	0	-1	400
20580235	5901	1314	0	-100	0	230	101300000	1000	0	0	-1	400
20592795	5891	1314	0	-100	0	230	101300000	1000	0	0	-1	400
20605355	5896	1321	0	-100	0	230	101300000	1000	0	0	-1	400
20617915	5905	1316	0	-100	0	230	101300000	1000	0	0	-1	400
20630475	5896	1310	0	-100	0	230	101300000	1000	0	0	-1	400
20643035	5895	1317	0	-100	0	230	101300000	1000	0	0	-1	400
20655595	5901	1319	0	-100	0	230	101300000	1000	0	0	-1	400
20668155	5891	1309	0	-100	0	230	101300000	1000	0	0	-1	400
20680715	5894	1310	0	-100	0	230	101300000	1000	0	0	-1	400
20693275	5892	1316	0	-100	0	230	101300000	1000	0	0	-1	400
20705835	5898	1313	0	-100	0	230	101300000	1000	0	0	-1	400
20718395	5897	1314	0	-100	0	230	101300000	1000	0	0	-1	400
20730955	5896	1313	0	-100	0	230	101300000	1000	0	0	-1	400
20743515	5901	1319	0	-100	0	230	101300000	1000	0	0	-1	400
20756075	5895	1309	0	-100	0	230	101300000	1000	0	0	-1	400
20768635	5892	1316	0	-100	0	230	101300000	1000	0	0	-1	400
20781195	5904	1318	0	-100	0	230	101300000	1000	0	0	-1	400
20793755	5901	1314	0	-100	0	230	101300000	1000	0	0	-1	400
20806315	5888	1308	0	-100	0	230	101300000	1000	0	0	-1	400
20818875	5899	1321	0	-100	0	230	101300000	1000	0	0	-1	400
20831435	5894	1316	0	-100	0	230	101300000	1000	0	0	-1	400
20843995	5894	1320	0	-100	0	230	101300000	1000	0	0	-1	400
20856555	5891	1312	0	-100	0	230	101300000	1000	0	0	-1	400
20869115	5898	1315	0	-100	0	230	101300000	1000	0	0	-1	400
20881675	5894	1314	0	-100	0	230	101300000	1000	0	0	-1	400
20894235	5895	1310	0	-100	0	230	101300000	1000	0	0	-1	400
20906795	5890	1315	0	-100	0	230	101300000	1000	0	0	-1	400
20919355	5905	1310	0	-100	0	230	101300000	1000	0	0	-1	400
20931915	5900	1318	0	-100	0	230	101300000	1000	0	0	-1	400
20944475	5893	1314	0	-100	0	230	101300000	1000	0	0	-1	400
20957035	5907	1315	0	-100	0	230	101300000	1000	0	0	-1	400
20969595	5892	1309	0	-100	0	230	101300000	1000	0	0	-1	400
20982155	5892	1312	0	-100	0	230	101300000	1000	0	0	-1	400
20994715	5902	1317	0	-100	0	230	101300000	1000	0	0	-1	400
21007275	5898	1315	0	-100	0	230	101300000	1000	0	0	-1	400
21019835	5889	1306	0	-100	0	230	101300000	1000	0	0	-1	400
21032395	5898	1320	0	-100	0	230	101300000	1000	0	0	-1	400
21044955	5899	1316	0	-100	0	230	101300000	1000	0	0	-1	400
21057515	5890	1310	0	-100	0	230	101300000	1000	0	0	-1	400
21070075	5890	1314	0	-100	0	230	101300000	1000	0	0	-1	400
21082635	5898	1312	0	-100	0	230	101300000	1000	0	0	-1	400
21095195	5896	1309	0	-100	0	230	101300000	1000	0	0	-1	400
21107755	5894	1314	0	-100	0	230	101300000	1000	0	0	-1	400
21120315	5891	1316	0	-100	0	230	101300000	1000	0	0	-1	400
21132875	5899	1316	0	-100	0	230	101300000	1000	0	0	-1	400
21145435	5892	1311	0	-100	0	230	101300000	1000	0	0	-1	400
21157995	5898	1308	0	-100	0	230	101300000	1000	0	0	-1	400
21170555	5903	1318	0	-100	0	230	101300000	1000	0	0	-1	400
21183115	5893	1312	0	-100	0	230	101300000	1000	0	0	-1	400
21195675	5895	1308	0	-100	0	230	101300000	1000	0	0	-1	400
21208235	5891	1315	0	-100	0	230	101300000	1000	0	0	-1	400
21220795	5904	1318	0	-100	0	230	101300000	1000	0	0	-1	400
21233355	5898	1314	0	-100	0	230	101300000	1000	0	0	-1	400
21245915	5897	1319	0	-100	0	230	101300000	1000	0	0	-1	400
21258475	5898	1314	0	-100	0	230	101300000	1000	0	0	-1	400
21271035	5895	1309	0	-100	0	230	101300000	1000	0	0	-1	400
21283595	5894	1323	0	-100	0	230	101300000	1000	0	0	-1	400
21296155	5900	1323	0	-100	0	230	101300000	1000	0	0	-1	400
21308715	5901	1318	0	-100	0	230	101300000	1000	0	0	-1	400
21321275	5894	1319	0	-100	0	230	101300000	1000	0	0	-1	400
21333835	5894	1323	0	-100	0	230	101300000	1000	0	0	-1	400
21346395	5902	1316	0	-100	0	230	101300000	1000	0	0	-1	400
21358955	5889	1313	0	-100	0	230	101300000	1000	0	0	-1	400
21371515	5898	1313	0	-100	0	230	101300000	1000	0	0	-1	400
21384075	5898	1314	0	-100	0	230	101300000	1000	0	0	-1	400
21396635	5898	1317	0	-100	0	230	101300000	1000	0	0	-1	400
21409195	5902	1320	0	-100	0	230	101300000	1000	0	0	-1	400
21421755	5894	1315	0	-100	0	230	101300000	1000	0	0	-1	400
21434315	5890	1313	0	-100	0	230	101300000	1000	0	0	-1	400
21446875	5893	1306	0	-100	0	230	101300000	1000	0	0	-1	400
21459435	5894	1316	0	-100	0	230	101300000	1000	0	0	-1	400
21471995	5898	1309	0	-100	0	230	101300000	1000	0	0	-1	400
21484555	5898	1315	0	-100	0	230	101300000	1000	0	0	-1	400
21497115	5892	1317	0	-100	0	230	101300000	1000	0	0	-1	400
21509675	5893	1314	0	-100	0	230	101300000	1000	0	0	-1	400
21522235	5898	1315	0	-100	0	230	101300000	1000	0	0	-1	400
21534795	5896	1312	0	-100	0	230	101300000	1000	0	0	-1	400
21547355	5900	1314	0	-100	0	230	101300000	1000	0	0	-1	400
21559915	5891	1313	0	-100	0	230	101300000	1000	0	0	-1	400
21572475	5890	1316	0	-100	0	230	101300000	1000	0	0	-1	400
21585035	5900	1316	0	-100	0	230	101300000	1000	0	0	-1	400
21597595	5890	1318	0	-100	0	230	101300000	1000	0	0	-1	400
21610155	5890	1319	0	-100	0	230	101300000	1000	0	0	-1	400
21622715	5899	1314	0	-100	0	230	101300000	1000	0	0	-1	400
21635275	5890	1314	0	-100	0	230	101300000	1000	0	0	-1	400
21647835	5892	1311	0	-100	0	230	101300000	1000	0	0	-1	400
21660395	5897	1312	0	-100	0	230	101300000	1000	0	0	-1	400
21672955	5898	1308	0	-100	0	230	101300000	1000	0	0	-1	400
21685515	5899	1314	0	-100	0	230	101300000	1000	0	0	-1	400
21698075	5898	1311	0	-100	0	230	101300000	1000	0	0	-1	400
21710635	5896	1316	0	-100	0	230	101300000	1000	0	0	-1	400
21723195	5894	1315	0	-100	0	230	101300000	1000	0	0	-1	400
21735755	5898	1308	0	-100	0	230	101300000	1000	0	0	-1	400
21748315	5890	1316	0	-100	0	230	101300000	1000	0	0	-1	400
21760875	5892	1307	0	-100	0	230	101300000	1000	0	0	-1	400
21773435	5897	1318	0	-100	0	230	101300000	1000	0	0	-1	400
21785995	5897	1312	0	-100	0	230	101300000	1000	0	0	-1	400
21798555	5895	1317	0	-100	0	230	101300000	1000	0	0	-1	400
21811115	5893	1315	0	-100	0	230	101300000	1000	0	0	-1	400
21823675	5902	1315	0	-100	0	230	101300000	1000	0	0	-1	400
21836235	5890	1313	0	-100	0	230	101300000	1000	0	0	-1	400
21848795	5899	1318	0	-100	0	230	101300000	1000	0	0	-1	400
21861355	5894	1308	0	-100	0	230	101300000	1000	0	0	-1	400
21873915	5899	1316	0	-100	0	230	101300000	1000	0	0	-1	400
21886475	5894	1314	0	-100	0	230	101300000	1000	0	0	-1	400
21899035	5897	1318	0	-100	0	230	101300000	1000	0	0	-1	400
21911595	5901	1307	0	-100	0	230	101300000	1000	0	0	-1	400
21924155	5894	1309	0	-100	0	230	101300000	1000	0	0	-1	400
21936715	5892	1319	0	-100	0	230	101300000	1000	0	0	-1	400
21949275	5894	1317	0	-100	0	230	101300000	1000	0	0	-1	400
21961835	5901	1315	0	-100	0	230	101300000	1000	0	0	-1	400
21974395	5892	1309	0	-100	0	230	101300000	1000	0	0	-1	400
21986955	5896	1314	0	-100	0	230	101300000	1000	0	0	-1	400
21999515	5896	1310	0	-100	0	230	101300000	1000	0	0	-1	400
22012075	5894	1320	0	-100	0	230	101300000	1000	0	0	-1	400
22024635	5902	1317	0	-100	0	230	101300000	1000	0	0	-1	400
22037195	5904	1321	0	-100	0	230	101300000	1000	0	0	-1	400
22049755	5892	1310	0	-100	0	230	101300000	1000	0	0	-1	400
22062315	5890	1313	0	-100	0	230	101300000	1000	0	0	-1	400
22074875	5898	1313	0	-100	0	230	101300000	1000	0	0	-1	400
22087435	5893	1316	0	-100	0	230	101300000	1000	0	0	-1	400
22099995	5905	1321	0	-100	0	230	101300000	1000	0	0	-1	400
22112555	5895	1316	0	-100	0	230	101300000	1000	0	0	-1	400
22125115	5883	1309	0	-100	0	230	101300000	1000	0	0	-1	400
22137675	5902	1317	0	-100	0	230	101300000	1000	0	0	-1	400
22150235	5902	1316	0	-100	0	230	101300000	1000	0	0	-1	400
22162795	5899	1316	0	-100	0	230	101300000	1000	0	0	-1	400
22175355	5899	1316	0	-100	0	230	101300000	1000	0	0	-1	400
22187915	5888	1312	0	-100	0	230	101300000	1000	0	0	-1	400
22200475	5901	1312	0	-100	0	230	101300000	1000	0	0	-1	400
22213035	5889	1317	0	-100	0	230	101300000	1000	0	0	-1	400
22225595	5894	1307	0	-100	0	230	101300000	1000	0	0	-1	400
22238155	5898	1315	0	-100	0	230	101300000	1000	0	0	-1	400
22250715	5890	1323	0	-100	0	230	101300000	1000	0	0	-1	400
22263275	5901	1323	0	-100	0	230	101300000	1000	0	0	-1	400
22275835	5897	1311	0	-100	0	230	101300000	1000	0	0	-1	400
22288395	5901	1306	0	-100	0	230	101300000	1000	0	0	-1	400
22300955	5898	1312	0	-100	0	230	101300000	1000	0	0	-1	400
22313515	5899	1309	0	-100	0	230	101300000	1000	0	0	-1	400
22326075	5895	1320	0	-100	0	230	101300000	1000	0	0	-1	400
22338635	5902	1309	0	-100	0	230	101300000	1000	0	0	-1	400
22351195	5899	1316	0	-100	0	230	101300000	1000	0	0	-1	400
22363755	5901	1312	0	-100	0	230	101300000	1000	0	0	-1	400
22376315	5890	1315	0	-100	0	230	101300000	1000	0	0	-1	400
22388875	5899	1310	0	-100	0	230	101300000	1000	0	0	-1	400
22401435	5895	1313	0	-100	0	230	101300000	1000	0	0	-1	400
22413995	5896	1305	0	-100	0	230	101300000	1000	0	0	-1	400
22426555	5907	1314	0	-100	0	230	101300000	1000	0	0	-1	400
22439115	5881	1312	0	-100	0	230	101300000	1000	0	0	-1	400
22451675	5903	1314	0	-100	0	230	101300000	1000	0	0	-1	400
22464235	5890	1317	0	-100	0	230	101300000	1000	0	0	-1	400
22476795	5903	1320	0	-100	0	230	101300000	1000	0	0	-1	400
22489355	5897	1310	0	-100	0	230	101300000	1000	0	0	-1	400
22501915	5895	1312	0	-100	0	230	101300000	1000	0	0	-1	400
22514475	5895	1316	0	-100	0	230	101300000	1000	0	0	-1	400
22527035	5902	1309	0	-100	0	230	101300000	1000	0	0	-1	400
22539595	5891	1318	0	-100	0	230	101300000	1000	0	0	-1	400
22552155	5898	1314	0	-100	0	230	101300000	1000	0	0	-1	400
22564715	5894	1316	0	-100	0	230	101300000	1000	0	0	-1	400
22577275	5897	1316	0	-100	0	230	101300000	1000	0	0	-1	400
22589835	5894	1313	0	-100	0	230	101300000	1000	0	0	-1	400
22602395	5901	1307	0	-100	0	230	101300000	1000	0	0	-1	400
22614955	5894	1313	0	-100	0	230	101300000	1000	0	0	-1	400
22627515	5898	1320	0	-100	0	230	101300000	1000	0	0	-1	400
22640075	5900	1312	0	-100	0	230	101300000	1000	0	0	-1	400
22652635	5895	1314	0	-100	0	230	101300000	1000	0	0	-1	400
22665195	5894	1311	0	-100	0	230	101300000	1000	0	0	-1	400
22677755	5893	1316	0	-100	0	230	101300000	1000	0	0	-1	400
22690315	5895	1315	0	-100	0	230	101300000	1000	0	0	-1	400
22702875	5890	1315	0	-100	0	230	101300000	1000	0	0	-1	400
22715435	5904	1318	0	-100	0	230	101300000	1000	0	0	-1	400
22727995	5888	1311	0	-100	0	230	101300000	1000	0	0	-1	400
22740555	5905	1316	0	-100	0	230	101300000	1000	0	0	-1	400
22753115	5886	1323	0	-100	0	230	101300000	1000	0	0	-1	400
22765675	5898	1316	0	-100	0	230	101300000	1000	0	0	-1	400
22778235	5899	1319	0	-100	0	230	101300000	1000	0	0	-1	400
22790795	5900	1312	0	-100	0	230	101300000	1000	0	0	-1	400
22803355	5900	1318	0	-100	0	230	101300000	1000	0	0	-1	400
22815915	5899	1319	0	-100	0	230	101300000	1000	0	0	-1	400
22828475	5898	1312	0	-100	0	230	101300000	1000	0	0	-1	400
22841035	5892	1320	0	-100	0	230	101300000	1000	0	0	-1	400
22853595	5898	1310	0	-100	0	230	101300000	1000	0	0	-1	400
22866155	5896	1322	0	-100	0	230	101300000	1000	0	0	-1	400
22878715	5897	1324	0	-100	0	230	101300000	1000	0	0	-1	400
22891275	5902	1314	0	-100	0	230	101300000	1000	0	0	-1	400
22903835	5901	1312	0	-100	0	230	101300000	1000	0	0	-1	400
22916395	5896	1316	0	-100	0	230	101300000	1000	0	0	-1	400
22928955	5902	1320	0	-100	0	230	101300000	1000	0	0	-1	400
22941515	5899	1316	0	-100	0	230	101300000	1000	0	0	-1	400
22954075	5901	1311	0	-100	0	230	101300000	1000	0	0	-1	400
22966635	5890	1317	0	-100	0	230	101300000	1000	0	0	-1	400
22979195	5887	1316	0	-100	0	230	101300000	1000	0	0	-1	400
22991755	5895	1310	0	-100	0	230	101300000	1000	0	0	-1	400
23004315	5887	1306	0	-100	0	230	101300000	1000	0	0	-1	400
23016875	5902	1310	0	-100	0	230	101300000	1000	0	0	-1	400
23029435	5897	1312	0	-100	0	230	101300000	1000	0	0	-1	400
23041995	5896	1323	0	-100	0	230	101300000	1000	0	0	-1	400
23054555	5896	1312	0	-100	0	230	101300000	1000	0	0	-1	400
23067115	5895	1311	0	-100	0	230	101300000	1000	0	0	-1	400
23079675	5894	1314	0	-100	0	230	101300000	1000	0	0	-1	400
23092235	5895	1315	0	-100	0	230	101300000	1000	0	0	-1	400
23104795	5907	1318	0	-100	0	230	101300000	1000	0	0	-1	400
23117355	5892	1309	0	-100	0	230	101300000	1000	0	0	-1	400
23129915	5894	1318	0	-100	0	230	101300000	1000	0	0	-1	400
23142475	5905	1320	0	-100	0	230	101300000	1000	0	0	-1	400
23155035	5890	1305	0	-100	0	230	101300000	1000	0	0	-1	400
23167595	5894	1319	0	-100	0	230	101300000	1000	0	0	-1	400
23180155	5895	1317	0	-100	0	230	101300000	1000	0	0	-1	400
23192715	5899	1312	0	-100	0	230	101300000	1000	0	0	-1	400
23205275	5896	1317	0	-100	0	230	101300000	1000	0	0	-1	400
23217835	5896	1318	0	-100	0	230	101300000	1000	0	0	-1	400
23230395	5903	1316	0	-100	0	230	101300000	1000	0	0	-1	400
23242955	5897	1308	0	-100	0	230	101300000	1000	0	0	-1	400
23255515	5893	1311	0	-100	0	230	101300000	1000	0	0	-1	400
23268075	5891	1312	0	-100	0	230	101300000	1000	0	0	-1	400
23280635	5897	1311	0	-100	0	230	101300000	1000	0	0	-1	400
23293195	5899	1312	0	-100	0	230	101300000	1000	0	0	-1	400
23305755	5886	1313	0	-100	0	230	101300000	1000	0	0	-1	400
23318315	5888	1316	0	-100	0	230	101300000	1000	0	0	-1	400
23330875	5902	1314	0	-100	0	230	101300000	1000	0	0	-1	400
23343435	5898	1312	0	-100	0	230	101300000	1000	0	0	-1	400
23355995	5893	1317	0	-100	0	230	101300000	1000	0	0	-1	400
23368555	5901	1313	0	-100	0	230	101300000	1000	0	0	-1	400
23381115	5895	1310	0	-100	0	230	101300000	1000	0	0	-1	400
23393675	5892	1316	0	-100	0	230	101300000	1000	0	0	-1	400
23406235	5896	1319	0	-100	0	230	101300000	1000	0	0	-1	400
23418795	5899	1313	0	-100	0	230	101300000	1000	0	0	-1	400
23431355	5900	1317	0	-100	0	230	101300000	1000	0	0	-1	400
23443915	5901	1316	0	-100	0	230	101300000	1000	0	0	-1	400
23456475	5895	1315	0	-100	0	230	101300000	1000	0	0	-1	400
23469035	5890	1315	0	-100	0	230	101300000	1000	0	0	-1	400
23481595	5892	1315	0	-100	0	230	101300000	1000	0	0	-1	400
23494155	5893	1313	0	-100	0	230	101300000	1000	0	0	-1	400
23506715	5894	1318	0	-100	0	230	101300000	1000	0	0	-1	400
23519275	5902	1316	0	-100	0	230	101300000	1000	0	0	-1	400
23531835	5900	1316	0	-100	0	230	101300000	1000	0	0	-1	400
23544395	5894	1316	0	-100	0	230	101300000	1000	0	0	-1	400
23556955	5894	1316	0	-100	0	230	101300000	1000	0	0	-1	400
23569515	5899	1317	0	-100	0	230	101300000	1000	0	0	-1	400
23582075	5894	1310	0	-100	0	230	101300000	1000	0	0	-1	400
23594635	5897	1321	0	-100	0	230	101300000	1000	0	0	-1	400
23607195	5898	1311	0	-100	0	230	101300000	1000	0	0	-1	400
23619755	5896	1312	0	-100	0	230	101300000	1000	0	0	-1	400
23632315	5886	1318	0	-100	0	230	101300000	1000	0	0	-1	400
23644875	5893	1315	0	-100	0	230	101300000	1000	0	0	-1	400
23657435	5898	1318	0	-100	0	230	101300000	1000	0	0	-1	400
23669995	5900	1307	0	-100	0	230	101300000	1000	0	0	-1	400
23682555	5896	1315	0	-100	0	230	101300000	1000	0	0	-1	400
23695115	5895	1315	0	-100	0	230	101300000	1000	0	0	-1	400
23707675	5890	1316	0	-100	0	230	101300000	1000	0	0	-1	400
23720235	5891	1317	0	-100	0	230	101300000	1000	0	0	-1	400
23732795	5902	1314	0	-100	0	230	101300000	1000	0	0	-1	400
23745355	5901	1316	0	-100	0	230	101300000	1000	0	0	-1	400
23757915	5895	1314	0	-100	0	230	101300000	1000	0	0	-1	400
23770475	5895	1316	0	-100	0	230	101300000	1000	0	0	-1	400
23783035	5894	1316	0	-100	0	230	101300000	1000	0	0	-1	400
23795595	5903	1310	0	-100	0	230	101300000	1000	0	0	-1	400
23808155	5894	1311	0	-100	0	230	101300000	1000	0	0	-1	400
23820715	5896	1315	0	-100	0	230	101300000	1000	0	0	-1	400
23833275	5895	1316	0	-100	0	230	101300000	1000	0	0	-1	400
23845835	5898	1314	0	-100	0	230	101300000	1000	0	0	-1	400
23858395	5906	1306	0	-100	0	230	101300000	1000	0	0	-1	400
23870955	5895	1315	0	-100	0	230	101300000	1000	0	0	-1	400
23883515	5896	1316	0	-100	0	230	101300000	1000	0	0	-1	400
23896075	5896	1318	0	-100	0	230	101300000	1000	0	0	-1	400
23908635	5892	1315	0	-100	0	230	101300000	1000	0	0	-1	400
23921195	5896	1317	0	-100	0	230	101300000	1000	0	0	-1	400
23933755	5902	1313	0	-100	0	230	101300000	1000	0	0	-1	400
23946315	5894	1317	0	-100	0	230	101300000	1000	0	0	-1	400
23958875	5894	1317	0	-100	0	230	101300000	1000	0	0	-1	400
23971435	5894	1316	0	-100	0	230	101300000	1000	0	0	-1	400
23983995	5896	1313	0	-100	0	230	101300000	1000	0	0	-1	400
23996555	5899	1313	0	-100	0	230	101300000	1000	0	0	-1	400
24009115	5892	1311	0	-100	0	230	101300000	1000	0	0	-1	400
24021675	5898	1313	0	-100	0	230	101300000	1000	0	0	-1	400
24034235	5890	1319	0	-100	0	230	101300000	1000	0	0	-1	400
24046795	5894	1308	0	-100	0	230	101300000	1000	0	0	-1	400
24059355	5893	1314	0	-100	0	230	101300000	1000	0	0	-1	400
24071915	5902	1323	0	-100	0	230	101300000	1000	0	0	-1	400
24084475	5898	1314	0	-100	0	230	101300000	1000	0	0	-1	400
24097035	5898	1312	0	-100	0	230	101300000	1000	0	0	-1	400
24109595	5898	1316	0	-100	0	230	101300000	1000	0	0	-1	400
24122155	5895	1318	0	-100	0	230	101300000	1000	0	0	-1	400
24134715	5896	1314	0	-100	0	230	101300000	1000	0	0	-1	400
24147275	5899	1312	0	-100	0	230	101300000	1000	0	0	-1	400
24159835	5890	1311	0	-100	0	230	101300000	1000	0	0	-1	400
24172395	5894	1319	0	-100	0	230	101300000	1000	0	0	-1	400
24184955	5898	1318	0	-100	0	230	101300000	1000	0	0	-1	400
24197515	5898	1313	0	-100	0	230	101300000	1000	0	0	-1	400
24210075	5891	1317	0	-100	0	230	101300000	1000	0	0	-1	400
24222635	5903	1314	0	-100	0	230	101300000	1000	0	0	-1	400
24235195	5901	1313	0	-100	0	230	101300000	1000	0	0	-1	400
24247755	5891	1318	0	-100	0	230	101300000	1000	0	0	-1	400
24260315	5894	1319	0	-100	0	230	101300000	1000	0	0	-1	400
24272875	5896	1318	0	-100	0	230	101300000	1000	0	0	-1	400
24285435	5898	1312	0	-100	0	230	101300000	1000	0	0	-1	400
24297995	5900	1320	0	-100	0	230	101300000	1000	0	0	-1	400
24310555	5896	1308	0	-100	0	230	101300000	1000	0	0	-1	400
24323115	5890	1314	0	-100	0	230	101300000	1000	0	0	-1	400
24335675	5892	1320	0	-100	0	230	101300000	1000	0	0	-1	400
24348235	5892	1317	0	-100	0	230	101300000	1000	0	0	-1	400
24360795	5899	1314	0	-100	0	230	101300000	1000	0	0	-1	400
24373355	5897	1318	0	-100	0	230	101300000	1000	0	0	-1	400
24385915	5895	1315	0	-100	0	230	101300000	1000	0	0	-1	400
24398475	5894	1314	0	-100	0	230	101300000	1000	0	0	-1	400
24411035	5897	1312	0	-100	0	230	101300000	1000	0	0	-1	400
24423595	5896	1324	0	-100	0	230	101300000	1000	0	0	-1	400
24436155	5893	1316	0	-100	0	230	101300000	1000	0	0	-1	400
24448715	5903	1312	0	-100	0	230	101300000	1000	0	0	-1	400
24461275	5896	1315	0	-100	0	230	101300000	1000	0	0	-1	400
24473835	5893	1314	0	-100	0	230	101300000	1000	0	0	-1	400
24486395	5898	1317	0	-100	0	230	101300000	1000	0	0	-1	400
24498955	5894	1322	0	-100	0	230	101300000	1000	0	0	-1	400
24511515	5898	1315	0	-100	0	230	101300000	1000	0	0	-1	400
24524075	5898	1315	0	-100	0	230	101300000	1000	0	0	-1	400
24536635	5896	1319	0	-100	0	230	101300000	1000	0	0	-1	400
24549195	5890	1312	0	-100	0	230	101300000	1000	0	0	-1	400
24561755	5894	1315	0	-100	0	230	101300000	1000	0	0	-1	400
24574315	5889	1313	0	-100	0	230	101300000	1000	0	0	-1	400
24586875	5901	1305	0	-100	0	230	101300000	1000	0	0	-1	400
24599435	5901	1315	0	-100	0	230	101300000	1000	0	0	-1	400
24611995	5895	1314	0	-100	0	230	101300000	1000	0	0	-1	400
24624555	5899	1322	0	-100	0	230	101300000	1000	0	0	-1	400
24637115	5890	1312	0	-100	0	230	101300000	1000	0	0	-1	400
24649675	5903	1318	0	-100	0	230	101300000	1000	0	0	-1	400
24662235	5896	1314	0	-100	0	230	101300000	1000	0	0	-1	400
24674795	5892	1322	0	-100	0	230	101300000	1000	0	0	-1	400
24687355	5900	1320	0	-100	0	230	101300000	1000	0	0	-1	400
24699915	5898	1317	0	-100	0	230	101300000	1000	0	0	-1	400
24712475	5902	1312	0	-100	0	230	101300000	1000	0	0	-1	400
24725035	5897	1315	0	-100	0	230	101300000	1000	0	0	-1	400
24737595	5891	1317	0	-100	0	230	101300000	1000	0	0	-1	400
24750155	5898	1324	0	-100	0	230	101300000	1000	0	0	-1	400
24762715	5900	1313	0	-100	0	230	101300000	1000	0	0	-1	400
24775275	5896	1309	0	-100	0	230	101300000	1000	0	0	-1	400
24787835	5894	1313	0	-100	0	230	101300000	1000	0	0	-1	400
24800395	5896	1319	0	-100	0	230	101300000	1000	0	0	-1	400
24812955	5902	1321	0	-100	0	230	101300000	1000	0	0	-1	400
24825515	5898	1316	0	-100	0	230	101300000	1000	0	0	-1	400
24838075	5889	1313	0	-100	0	230	101300000	1000	0	0	-1	400
24850635	5895	1317	0	-100	0	230	101300000	1000	0	0	-1	400
24863195	5907	1314	0	-100	0	230	101300000	1000	0	0	-1	400
24875755	5903	1319	0	-100	0	230	101300000	1000	0	0	-1	400
24888315	5894	1312	0	-100	0	230	101300000	1000	0	0	-1	400
24900875	5896	1314	0	-100	0	230	101300000	1000	0	0	-1	400
24913435	5892	1312	0	-100	0	230	101300000	1000	0	0	-1	400
24925995	5900	1317	0	-100	0	230	101300000	1000	0	0	-1	400
24938555	5899	1312	0	-100	0	230	101300000	1000	0	0	-1	400
24951115	5891	1316	0	-100	0	230	101300000	1000	0	0	-1	400
24963675	5889	1315	0	-100	0	230	101300000	1000	0	0	-1	400
24976235	5902	1314	0	-100	0	230	101300000	1000	0	0	-1	400
24988795	5903	1309	0	-100	0	230	101300000	1000	0	0	-1	400
25001355	5896	1315	0	-100	0	230	101300000	1000	0	0	-1	400
25013915	5892	1309	0	-100	0	230	101300000	1000	0	0	-1	400
25026475	5905	1317	0	-100	0	230	101300000	1000	0	0	-1	400
25039035	5900	1320	0	-100	0	230	101300000	1000	0	0	-1	400
25051595	5900	1315	0	-100	0	230	101300000	1000	0	0	-1	400
25064155	5896	1316	0	-100	0	230	101300000	1000	0	0	-1	400
25076715	5892	1310	0	-100	0	230	101300000	1000	0	0	-1	400
25089275	5892	1315	0	-100	0	230	101300000	1000	0	0	-1	400
25101835	5892	1314	0	-100	0	230	101300000	1000	0	0	-1	400
25114395	5907	1316	0	-100	0	230	101300000	1000	0	0	-1	400
25126955	5901	1308	0	-100	0	230	101300000	1000	0	0	-1	400
25139515	5892	1315	0	-100	0	230	101300000	1000	0	0	-1	400
25152075	5895	1320	0	-100	0	230	101300000	1000	0	0	-1	400
25164635	5901	1314	0	-100	0	230	101300000	1000	0	0	-1	400
25177195	5895	1307	0	-100	0	230	101300000	1000	0	0	-1	400
25189755	5894	1314	0	-100	0	230	101300000	1000	0	0	-1	400
25202315	5890	1312	0	-100	0	230	101300000	1000	0	0	-1	400
25214875	5896	1316	0	-100	0	230	101300000	1000	0	0	-1	400
25227435	5895	1308	0	-100	0	230	101300000	1000	0	0	-1	400
25239995	5897	1315	0	-100	0	230	101300000	1000	0	0	-1	400
25252555	5893	1317	0	-100	0	230	101300000	1000	0	0	-1	400
25265115	5898	1312	0	-100	0	230	101300000	1000	0	0	-1	400
25277675	5895	1310	0	-100	0	230	101300000	1000	0	0	-1	400
25290235	5894	1318	0	-100	0	230	101300000	1000	0	0	-1	400
25302795	5902	1322	0	-100	0	230	101300000	1000	0	0	-1	400
25315355	5898	1310	0	-100	0	230	101300000	1000	0	0	-1	400
25327915	5893	1313	0	-100	0	230	101300000	1000	0	0	-1	400
25340475	5896	1320	0	-100	0	230	101300000	1000	0	0	-1	400
25353035	5899	1309	0	-100	0	230	101300000	1000	0	0	-1	400
25365595	5903	1310	0	-100	0	230	101300000	1000	0	0	-1	400
25378155	5892	1315	0	-100	0	230	101300000	1000	0	0	-1	400
25390715	5890	1316	0	-100	0	230	101300000	1000	0	0	-1	400
25403275	5905	1317	0	-100	0	230	101300000	1000	0	0	-1	400
25415835	5892	1323	0	-100	0	230	101300000	1000	0	0	-1	400
25428395	5898	1320	0	-100	0	230	101300000	1000	0	0	-1	400
25440955	5899	1313	0	-100	0	230	101300000	1000	0	0	-1	400
25453515	5901	1309	0	-100	0	230	101300000	1000	0	0	-1	400
25466075	5898	1313	0	-100	0	230	101300000	1000	0	0	-1	400
25478635	5891	1322	0	-100	0	230	101300000	1000	0	0	-1	400
25491195	5897	1316	0	-100	0	230	101300000	1000	0	0	-1	400
25503755	5890	1315	0	-100	0	230	101300000	1000	0	0	-1	400
25516315	5902	1321	0	-100	0	230	101300000	1000	0	0	-1	400
25528875	5892	1312	0	-100	0	230	101300000	1000	0	0	-1	400
25541435	5898	1319	0	-100	0	230	101300000	1000	0	0	-1	400
25553995	5902	1320	0	-100	0	230	101300000	1000	0	0	-1	400
25566555	5897	1319	0	-100	0	230	101300000	1000	0	0	-1	400
25579115	5890	1316	0	-100	0	230	101300000	1000	0	0	-1	400
25591675	5894	1315	0	-100	0	230	101300000	1000	0	0	-1	400
25604235	5898	1310	0	-100	0	230	101300000	1000	0	0	-1	400
25616795	5898	1312	0	-100	0	230	101300000	1000	0	0	-1	400
25629355	5895	1311	0	-100	0	230	101300000	1000	0	0	-1	400
25641915	5897	1314	0	-100	0	230	101300000	1000	0	0	-1	400
25654475	5902	1312	0	-100	0	230	101300000	1000	0	0	-1	400
25667035	5898	1314	0	-100	0	230	101300000	1000	0	0	-1	400
25679595	5892	1321	0	-100	0	230	101300000	1000	0	0	-1	400
25692155	5894	1322	0	-100	0	230	101300000	1000	0	0	-1	400
25704715	5899	1313	0	-100	0	230	101300000	1000	0	0	-1	400
25717275	5899	1316	0	-100	0	230	101300000	1000	0	0	-1	400
25729835	5890	1315	0	-100	0	230	101300000	1000	0	0	-1	400
25742395	5895	1316	0	-100	0	230	101300000	1000	0	0	-1	400
25754955	5901	1317	0	-100	0	230	101300000	1000	0	0	-1	400
25767515	5894	1321	0	-100	0	230	101300000	1000	0	0	-1	400
25780075	5894	1316	0	-100	0	230	101300000	1000	0	0	-1	400
25792635	5894	1313	0	-100	0	230	101300000	1000	0	0	-1	400
25805195	5899	1315	0	-100	0	230	101300000	1000	0	0	-1	400
25817755	5893	1315	0	-100	0	230	101300000	1000	0	0	-1	400
25830315	5888	1321	0	-100	0	230	101300000	1000	0	0	-1	400
25842875	5894	1312	0	-100	0	230	101300000	1000	0	0	-1	400
25855435	5898	1310	0	-100	0	230	101300000	1000	0	0	-1	400
25867995	5896	1320	0	-100	0	230	101300000	1000	0	0	-1	400
25880555	5898	1310	0	-100	0	230	101300000	1000	0	0	-1	400
25893115	5890	1312	0	-100	0	230	101300000	1000	0	0	-1	400
25905675	5901	1315	0	-100	0	230	101300000	1000	0	0	-1	400
25918235	5896	1319	0	-100	0	230	101300000	1000	0	0	-1	400
25930795	5895	1313	0	-100	0	230	101300000	1000	0	0	-1	400
25943355	5898	1310	0	-100	0	230	101300000	1000	0	0	-1	400
25955915	5901	1312	0	-100	0	230	101300000	1000	0	0	-1	400
25968475	5894	1316	0	-100	0	230	101300000	1000	0	0	-1	400
25981035	5894	1313	0	-100	0	230	101300000	1000	0	0	-1	400
25993595	5898	1310	0	-100	0	230	101300000	1000	0	0	-1	400
26006155	5891	1313	0	-100	0	230	101300000	1000	0	0	-1	400
26018715	5898	1318	0	-100	0	230	101300000	1000	0	0	-1	400
26031275	5896	1314	0	-100	0	230	101300000	1000	0	0	-1	400
26043835	5902	1316	0	-100	0	230	101300000	1000	0	0	-1	400
26056395	5896	1314	0	-100	0	230	101300000	1000	0	0	-1	400
26068955	5896	1314	0	-100	0	230	101300000	1000	0	0	-1	400
26081515	5894	1321	0	-100	0	230	101300000	1000	0	0	-1	400
26094075	5898	1316	0	-100	0	230	101300000	1000	0	0	-1	400
26106635	5894	1317	0	-100	0	230	101300000	1000	0	0	-1	400
26119195	5898	1323	0	-100	0	230	101300000	1000	0	0	-1	400
26131755	5895	1310	0	-100	0	230	101300000	1000	0	0	-1	400
26144315	5894	1308	0	-100	0	230	101300000	1000	0	0	-1	400
26156875	5898	1315	0	-100	0	230	101300000	1000	0	0	-1	400
26169435	5892	1317	0	-100	0	230	101300000	1000	0	0	-1	400
26181995	5898	1319	0	-100	0	230	101300000	1000	0	0	-1	400
26194555	5902	1317	0	-100	0	230	101300000	1000	0	0	-1	400
26207115	5888	1320	0	-100	0	230	101300000	1000	0	0	-1	400
26219675	5899	1315	0	-100	0	230	101300000	1000	0	0	-1	400
26232235	5902	1320	0	-100	0	230	101300000	1000	0	0	-1	400
26244795	5894	1311	0	-100	0	230	101300000	1000	0	0	-1	400
26257355	5890	1323	0	-100	0	230	101300000	1000	0	0	-1	400
26269915	5894	1312	0	-100	0	230	101300000	1000	0	0	-1	400
26282475	5904	1317	0	-100	0	230	101300000	1000	0	0	-1	400
26295035	5899	1311	0	-100	0	230	101300000	1000	0	0	-1	400
26307595	5895	1314	0	-100	0	230	101300000	1000	0	0	-1	400
26320155	5894	1319	0	-100	0	230	101300000	1000	0	0	-1	400
26332715	5895	1320	0	-100	0	230	101300000	1000	0	0	-1	400
26345275	5898	1313	0	-100	0	230	101300000	1000	0	0	-1	400
26357835	5892	1312	0	-100	0	230	101300000	1000	0	0	-1	400
26370395	5894	1321	0	-100	0	230	101300000	1000	0	0	-1	400
26382955	5905	1324	0	-100	0	230	101300000	1000	0	0	-1	400
26395515	5896	1318	0	-100	0	230	101300000	1000	0	0	-1	400
26408075	5895	1322	0	-100	0	230	101300000	1000	0	0	-1	400
26420635	5898	1318	0	-100	0	230	101300000	1000	0	0	-1	400
26433195	5898	1314	0	-100	0	230	101300000	1000	0	0	-1	400
26445755	5898	1312	0	-100	0	230	101300000	1000	0	0	-1	400
26458315	5892	1318	0	-100	0	230	101300000	1000	0	0	-1	400
26470875	5902	1314	0	-100	0	230	101300000	1000	0	0	-1	400
26483435	5891	1306	0	-100	0	230	101300000	1000	0	0	-1	400
26495995	5895	1311	0	-100	0	230	101300000	1000	0	0	-1	400
26508555	5894	1316	0	-100	0	230	101300000	1000	0	0	-1	400
26521115	5898	1315	0	-100	0	230	101300000	1000	0	0	-1	400
26533675	5894	1318	0	-100	0	230	101300000	1000	0	0	-1	400
26546235	5899	1321	0	-100	0	230	101300000	1000	0	0	-1	400
26558795	5900	1312	0	-100	0	230	101300000	1000	0	0	-1	400
26571355	5899	1316	0	-100	0	230	101300000	1000	0	0	-1	400
26583915	5892	1319	0	-100	0	230	101300000	1000	0	0	-1	400
26596475	5890	1311	0	-100	0	230	101300000	1000	0	0	-1	400
26609035	5894	1323	0	-100	0	230	101300000	1000	0	0	-1	400
26621595	5899	1321	0	-100	0	230	101300000	1000	0	0	-1	400
26634155	5898	1311	0	-100	0	230	101300000	1000	0	0	-1	400
26646715	5901	1311	0	-100	0	230	101300000	1000	0	0	-1	400
26659275	5895	1317	0	-100	0	230	101300000	1000	0	0	-1	400
26671835	5892	1319	0	-100	0	230	101300000	1000	0	0	-1	400
26684395	5895	1310	0	-100	0	230	101300000	1000	0	0	-1	400
26696955	5897	1321	0	-100	0	230	101300000	1000	0	0	-1	400
26709515	5900	1316	0	-100	0	230	101300000	1000	0	0	-1	400
26722075	5902	1313	0	-100	0	230	101300000	1000	0	0	-1	400
26734635	5900	1314	0	-100	0	230	101300000	1000	0	0	-1	400
26747195	5894	1316	0	-100	0	230	101300000	1000	0	0	-1	400
26759755	5896	1314	0	-100	0	230	101300000	1000	0	0	-1	400
26772315	5887	1307	0	-100	0	230	101300000	1000	0	0	-1	400
26784875	5894	1318	0	-100	0	230	101300000	1000	0	0	-1	400
26797435	5898	1312	0	-100	0	230	101300000	1000	0	0	-1	400
26809995	5894	1313	0	-100	0	230	101300000	1000	0	0	-1	400
26822555	5898	1323	0	-100	0	230	101300000	1000	0	0	-1	400
26835115	5891	1310	0	-100	0	230	101300000	1000	0	0	-1	400
26847675	5896	1317	0	-100	0	230	101300000	1000	0	0	-1	400
26860235	5894	1310	0	-100	0	230	101300000	1000	0	0	-1	400
26872795	5899	1318	0	-100	0	230	101300000	1000	0	0	-1	400
26885355	5902	1318	0	-100	0	230	101300000	1000	0	0	-1	400
26897915	5902	1315	0	-100	0	230	101300000	1000	0	0	-1	400
26910475	5894	1318	0	-100	0	230	101300000	1000	0	0	-1	400
26923035	5892	1312	0	-100	0	230	101300000	1000	0	0	-1	400
26935595	5899	1319	0	-100	0	230	101300000	1000	0	0	-1	400
26948155	5896	1309	0	-100	0	230	101300000	1000	0	0	-1	400
26960715	5900	1324	0	-100	0	230	101300000	1000	0	0	-1	400
26973275	5899	1315	0	-100	0	230	101300000	1000	0	0	-1	400
26985835	5899	1320	0	-100	0	230	101300000	1000	0	0	-1	400
26998395	5900	1311	0	-100	0	230	101300000	1000	0	0	-1	400
27010955	5898	1317	0	-100	0	230	101300000	1000	0	0	-1	400
27023515	5901	1306	0	-100	0	230	101300000	1000	0	0	-1	400
27036075	5891	1308	0	-100	0	230	101300000	1000	0	0	-1	400
27048635	5894	1314	0	-100	0	230	101300000	1000	0	0	-1	400
