timestamp	voltage	current	windSpeed	pitchAngle	rpm	temperature	ambientPressure	humidity	accelerationX	accelerationY	accelerationZ	currentSink
7040070	6012	869	0	-100	0	230	101300000	1000	0	0	-1	0
7047523	6014	864	0	-100	0	230	101300000	1000	0	0	-1	0
7060083	6012	850	0	-100	0	230	101300000	1000	0	0	-1	0
7072643	6008	869	0	-100	0	230	101300000	1000	0	0	-1	0
7085203	6008	864	0	-100	0	230	101300000	1000	0	0	-1	0
7097763	6008	864	0	-100	0	230	101300000	1000	0	0	-1	0
7110323	6018	863	0	-100	0	230	101300000	1000	0	0	-1	0
7122883	6009	865	0	-100	0	230	101300000	1000	0	0	-1	0
7135443	6010	870	0	-100	0	230	101300000	1000	0	0	-1	0
7148004	6013	862	0	-100	0	230	101300000	1000	0	0	-1	0
7160563	6015	871	0	-100	0	230	101300000	1000	0	0	-1	0
7173123	6021	872	0	-100	0	230	101300000	1000	0	0	-1	0
7185683	6013	870	0	-100	0	230	101300000	1000	0	0	-1	0
7198243	6019	861	0	-100	0	230	101300000	1000	0	0	-1	0
7210803	6018	867	0	-100	0	230	101300000	1000	0	0	-1	0
7223363	6015	865	0	-100	0	230	101300000	1000	0	0	-1	0
7235923	6018	869	0	-100	0	230	101300000	1000	0	0	-1	0
7248483	6016	865	0	-100	0	230	101300000	1000	0	0	-1	0
7261043	6008	867	0	-100	0	230	101300000	1000	0	0	-1	0
7273603	6008	868	0	-100	0	230	101300000	1000	0	0	-1	0
7286163	6013	866	0	-100	0	230	101300000	1000	0	0	-1	0
7298723	6011	867	0	-100	0	230	101300000	1000	0	0	-1	0
7311283	6011	863	0	-100	0	230	101300000	1000	0	0	-1	0
7323843	6013	862	0	-100	0	230	101300000	1000	0	0	-1	0
7336403	6008	868	0	-100	0	230	101300000	1000	0	0	-1	0
7348963	6016	864	0	-100	0	230	101300000	1000	0	0	-1	0
7719795	5886	1346	0	-100	0	230	101300000	1000	0	0	-1	500
7732355	5890	1354	0	-100	0	230	101300000	1000	0	0	-1	500
7744915	5890	1350	0	-100	0	230	101300000	1000	0	0	-1	500
7757475	5885	1344	0	-100	0	230	101300000	1000	0	0	-1	500
7770035	5893	1347	0	-100	0	230	101300000	1000	0	0	-1	500
7782595	5886	1345	0	-100	0	230	101300000	1000	0	0	-1	500
7795155	5890	1345	0	-100	0	230	101300000	1000	0	0	-1	500
7807715	5890	1352	0	-100	0	230	101300000	1000	0	0	-1	500
7820275	5889	1350	0	-100	0	230	101300000	1000	0	0	-1	500
7832835	5890	1348	0	-100	0	230	101300000	1000	0	0	-1	500
7845395	5886	1347	0	-100	0	230	101300000	1000	0	0	-1	500
7857955	5888	1348	0	-100	0	230	101300000	1000	0	0	-1	500
7870515	5886	1350	0	-100	0	230	101300000	1000	0	0	-1	500
7883075	5880	1350	0	-100	0	230	101300000	1000	0	0	-1	500
7895635	5886	1344	0	-100	0	230	101300000	1000	0	0	-1	500
7908195	5887	1353	0	-100	0	230	101300000	1000	0	0	-1	500
7920755	5881	1356	0	-100	0	230	101300000	1000	0	0	-1	500
7933315	5894	1352	0	-100	0	230	101300000	1000	0	0	-1	500
7945875	5881	1348	0	-100	0	230	101300000	1000	0	0	-1	500
7958435	5884	1353	0	-100	0	230	101300000	1000	0	0	-1	500
7970995	5886	1351	0	-100	0	230	101300000	1000	0	0	-1	500
7983555	5883	1348	0	-100	0	230	101300000	1000	0	0	-1	500
7996115	5893	1348	0	-100	0	230	101300000	1000	0	0	-1	500
8008675	5886	1345	0	-100	0	230	101300000	1000	0	0	-1	500
8021235	5890	1354	0	-100	0	230	101300000	1000	0	0	-1	500
8033795	5886	1351	0	-100	0	230	101300000	1000	0	0	-1	500
8046355	5894	1351	0	-100	0	230	101300000	1000	0	0	-1	500
8058915	5888	1354	0	-100	0	230	101300000	1000	0	0	-1	500
8071475	5896	1348	0	-100	0	230	101300000	1000	0	0	-1	500
8084035	5888	1352	0	-100	0	230	101300000	1000	0	0	-1	500
8096595	5886	1352	0	-100	0	230	101300000	1000	0	0	-1	500
8109155	5895	1354	0	-100	0	230	101300000	1000	0	0	-1	500
8121715	5890	1350	0	-100	0	230	101300000	1000	0	0	-1	500
8134275	5887	1351	0	-100	0	230	101300000	1000	0	0	-1	500
8146835	5890	1351	0	-100	0	230	101300000	1000	0	0	-1	500
8159395	5896	1357	0	-100	0	230	101300000	1000	0	0	-1	500
8171955	5888	1351	0	-100	0	230	101300000	1000	0	0	-1	500
8184515	5893	1359	0	-100	0	230	101300000	1000	0	0	-1	500
8197075	5892	1356	0	-100	0	230	101300000	1000	0	0	-1	500
8209635	5894	1352	0	-100	0	230	101300000	1000	0	0	-1	500
8222195	5887	1350	0	-100	0	230	101300000	1000	0	0	-1	500
8234755	5890	1354	0	-100	0	230	101300000	1000	0	0	-1	500
8247315	5894	1356	0	-100	0	230	101300000	1000	0	0	-1	500
8259875	5882	1345	0	-100	0	230	101300000	1000	0	0	-1	500
8272435	5889	1357	0	-100	0	230	101300000	1000	0	0	-1	500
8284995	5881	1352	0	-100	0	230	101300000	1000	0	0	-1	500
8297555	5892	1351	0	-100	0	230	101300000	1000	0	0	-1	500
8310115	5901	1354	0	-100	0	230	101300000	1000	0	0	-1	500
8322675	5888	1347	0	-100	0	230	101300000	1000	0	0	-1	500
8335235	5883	1355	0	-100	0	230	101300000	1000	0	0	-1	500
8347795	5887	1352	0	-100	0	230	101300000	1000	0	0	-1	500
8360355	5881	1352	0	-100	0	230	101300000	1000	0	0	-1	500
8372915	5887	1357	0	-100	0	230	101300000	1000	0	0	-1	500
8385475	5894	1349	0	-100	0	230	101300000	1000	0	0	-1	500
8398035	5886	1347	0	-100	0	230	101300000	1000	0	0	-1	500
8410595	5892	1354	0	-100	0	230	101300000	1000	0	0	-1	500
8423155	5882	1347	0	-100	0	230	101300000	1000	0	0	-1	500
8435715	5884	1355	0	-100	0	230	101300000	1000	0	0	-1	500
8448275	5879	1359	0	-100	0	230	101300000	1000	0	0	-1	500
8460835	5882	1352	0	-100	0	230	101300000	1000	0	0	-1	500
8473395	5883	1348	0	-100	0	230	101300000	1000	0	0	-1	500
8485955	5884	1359	0	-100	0	230	101300000	1000	0	0	-1	500
8498515	5882	1355	0	-100	0	230	101300000	1000	0	0	-1	500
8511075	5887	1354	0	-100	0	230	101300000	1000	0	0	-1	500
8523635	5881	1356	0	-100	0	230	101300000	1000	0	0	-1	500
8536195	5890	1363	0	-100	0	230	101300000	1000	0	0	-1	500
8548755	5889	1357	0	-100	0	230	101300000	1000	0	0	-1	500
8561315	5905	1352	0	-100	0	230	101300000	1000	0	0	-1	500
8573875	5890	1357	0	-100	0	230	101300000	1000	0	0	-1	500
8586435	5897	1354	0	-100	0	230	101300000	1000	0	0	-1	500
8598995	5891	1350	0	-100	0	230	101300000	1000	0	0	-1	500
8611555	5886	1348	0	-100	0	230	101300000	1000	0	0	-1	500
8624115	5898	1355	0	-100	0	230	101300000	1000	0	0	-1	500
8636675	5888	1350	0	-100	0	230	101300000	1000	0	0	-1	500
8649235	5883	1348	0	-100	0	230	101300000	1000	0	0	-1	500
8661795	5894	1352	0	-100	0	230	101300000	1000	0	0	-1	500
8674355	5881	1346	0	-100	0	230	101300000	1000	0	0	-1	500
8686915	5890	1350	0	-100	0	230	101300000	1000	0	0	-1	500
8699475	5890	1350	0	-100	0	230	101300000	1000	0	0	-1	500
8712035	5886	1352	0	-100	0	230	101300000	1000	0	0	-1	500
8724595	5890	1349	0	-100	0	230	101300000	1000	0	0	-1	500
8737155	5890	1351	0	-100	0	230	101300000	1000	0	0	-1	500
8749715	5886	1356	0	-100	0	230	101300000	1000	0	0	-1	500
8762275	5892	1354	0	-100	0	230	101300000	1000	0	0	-1	500
8774835	5886	1353	0	-100	0	230	101300000	1000	0	0	-1	500
8787395	5881	1357	0	-100	0	230	101300000	1000	0	0	-1	500
8799955	5886	1351	0	-100	0	230	101300000	1000	0	0	-1	500
8812515	5887	1354	0	-100	0	230	101300000	1000	0	0	-1	500
8825075	5885	1359	0	-100	0	230	101300000	1000	0	0	-1	500
8837635	5884	1343	0	-100	0	230	101300000	1000	0	0	-1	500
8850195	5881	1358	0	-100	0	230	101300000	1000	0	0	-1	500
8862755	5885	1350	0	-100	0	230	101300000	1000	0	0	-1	500
8875315	5887	1350	0	-100	0	230	101300000	1000	0	0	-1	500
8887875	5886	1349	0	-100	0	230	101300000	1000	0	0	-1	500
8900435	5888	1357	0	-100	0	230	101300000	1000	0	0	-1	500
8912995	5879	1346	0	-100	0	230	101300000	1000	0	0	-1	500
8925555	5888	1349	0	-100	0	230	101300000	1000	0	0	-1	500
8938115	5896	1352	0	-100	0	230	101300000	1000	0	0	-1	500
8950675	5883	1346	0	-100	0	230	101300000	1000	0	0	-1	500
8963235	5890	1354	0	-100	0	230	101300000	1000	0	0	-1	500
8975795	5881	1352	0	-100	0	230	101300000	1000	0	0	-1	500
8988355	5886	1352	0	-100	0	230	101300000	1000	0	0	-1	500
9000915	5881	1348	0	-100	0	230	101300000	1000	0	0	-1	500
9013475	5884	1355	0	-100	0	230	101300000	1000	0	0	-1	500
9026035	5882	1364	0	-100	0	230	101300000	1000	0	0	-1	500
9038595	5883	1352	0	-100	0	230	101300000	1000	0	0	-1	500
9051155	5890	1362	0	-100	0	230	101300000	1000	0	0	-1	500
9063715	5879	1358	0	-100	0	230	101300000	1000	0	0	-1	500
9076275	5883	1357	0	-100	0	230	101300000	1000	0	0	-1	500
9088835	5893	1350	0	-100	0	230	101300000	1000	0	0	-1	500
9101395	5885	1354	0	-100	0	230	101300000	1000	0	0	-1	500
9113955	5886	1347	0	-100	0	230	101300000	1000	0	0	-1	500
9126515	5885	1350	0	-100	0	230	101300000	1000	0	0	-1	500
9139075	5885	1359	0	-100	0	230	101300000	1000	0	0	-1	500
9151635	5878	1344	0	-100	0	230	101300000	1000	0	0	-1	500
9164195	5890	1352	0	-100	0	230	101300000	1000	0	0	-1	500
9176755	5886	1357	0	-100	0	230	101300000	1000	0	0	-1	500
9189315	5890	1354	0	-100	0	230	101300000	1000	0	0	-1	500
9201875	5889	1360	0	-100	0	230	101300000	1000	0	0	-1	500
9214435	5885	1353	0	-100	0	230	101300000	1000	0	0	-1	500
9226995	5891	1350	0	-100	0	230	101300000	1000	0	0	-1	500
9239555	5891	1347	0	-100	0	230	101300000	1000	0	0	-1	500
9252115	5896	1355	0	-100	0	230	101300000	1000	0	0	-1	500
9264675	5890	1358	0	-100	0	230	101300000	1000	0	0	-1	500
9277235	5886	1355	0	-100	0	230	101300000	1000	0	0	-1	500
9289795	5883	1346	0	-100	0	230	101300000	1000	0	0	-1	500
9302355	5890	1348	0	-100	0	230	101300000	1000	0	0	-1	500
9314915	5882	1352	0	-100	0	230	101300000	1000	0	0	-1	500
9327475	5889	1351	0	-100	0	230	101300000	1000	0	0	-1	500
9340035	5882	1356	0	-100	0	230	101300000	1000	0	0	-1	500
9352595	5882	1355	0	-100	0	230	101300000	1000	0	0	-1	500
9365155	5887	1349	0	-100	0	230	101300000	1000	0	0	-1	500
9377715	5882	1353	0	-100	0	230	101300000	1000	0	0	-1	500
9390275	5879	1349	0	-100	0	230	101300000	1000	0	0	-1	500
9402835	5880	1354	0	-100	0	230	101300000	1000	0	0	-1	500
9415395	5892	1353	0	-100	0	230	101300000	1000	0	0	-1	500
9427955	5893	1343	0	-100	0	230	101300000	1000	0	0	-1	500
9440515	5886	1352	0	-100	0	230	101300000	1000	0	0	-1	500
9453075	5896	1354	0	-100	0	230	101300000	1000	0	0	-1	500
9465635	5893	1354	0	-100	0	230	101300000	1000	0	0	-1	500
9478195	5888	1358	0	-100	0	230	101300000	1000	0	0	-1	500
9490755	5892	1355	0	-100	0	230	101300000	1000	0	0	-1	500
9503315	5903	1361	0	-100	0	230	101300000	1000	0	0	-1	500
9515875	5889	1351	0	-100	0	230	101300000	1000	0	0	-1	500
9528435	5888	1355	0	-100	0	230	101300000	1000	0	0	-1	500
9540995	5888	1342	0	-100	0	230	101300000	1000	0	0	-1	500
9553555	5878	1351	0	-100	0	230	101300000	1000	0	0	-1	500
9566115	5894	1357	0	-100	0	230	101300000	1000	0	0	-1	500
9578675	5882	1360	0	-100	0	230	101300000	1000	0	0	-1	500
9591235	5890	1354	0	-100	0	230	101300000	1000	0	0	-1	500
9603795	5889	1354	0	-100	0	230	101300000	1000	0	0	-1	500
9616355	5889	1356	0	-100	0	230	101300000	1000	0	0	-1	500
9628915	5888	1357	0	-100	0	230	101300000	1000	0	0	-1	500
9641475	5892	1354	0	-100	0	230	101300000	1000	0	0	-1	500
9654035	5891	1349	0	-100	0	230	101300000	1000	0	0	-1	500
9666595	5892	1356	0	-100	0	230	101300000	1000	0	0	-1	500
9679155	5893	1352	0	-100	0	230	101300000	1000	0	0	-1	500
9691715	5889	1355	0	-100	0	230	101300000	1000	0	0	-1	500
9704275	5889	1349	0	-100	0	230	101300000	1000	0	0	-1	500
9716835	5891	1355	0	-100	0	230	101300000	1000	0	0	-1	500
9729395	5890	1352	0	-100	0	230	101300000	1000	0	0	-1	500
9741955	5894	1354	0	-100	0	230	101300000	1000	0	0	-1	500
9754515	5887	1352	0	-100	0	230	101300000	1000	0	0	-1	500
9767075	5894	1353	0	-100	0	230	101300000	1000	0	0	-1	500
9779635	5887	1354	0	-100	0	230	101300000	1000	0	0	-1	500
9792195	5894	1353	0	-100	0	230	101300000	1000	0	0	-1	500
9804755	5883	1359	0	-100	0	230	101300000	1000	0	0	-1	500
9817315	5896	1356	0	-100	0	230	101300000	1000	0	0	-1	500
9829875	5890	1354	0	-100	0	230	101300000	1000	0	0	-1	500
9842435	5892	1355	0	-100	0	230	101300000	1000	0	0	-1	500
9854995	5888	1357	0	-100	0	230	101300000	1000	0	0	-1	500
9867555	5896	1354	0	-100	0	230	101300000	1000	0	0	-1	500
9880115	5896	1358	0	-100	0	230	101300000	1000	0	0	-1	500
9892675	5890	1358	0	-100	0	230	101300000	1000	0	0	-1	500
9905235	5894	1355	0	-100	0	230	101300000	1000	0	0	-1	500
9917795	5888	1360	0	-100	0	230	101300000	1000	0	0	-1	500
9930355	5894	1357	0	-100	0	230	101300000	1000	0	0	-1	500
9942915	5890	1347	0	-100	0	230	101300000	1000	0	0	-1	500
9955475	5894	1350	0	-100	0	230	101300000	1000	0	0	-1	500
9968035	5890	1354	0	-100	0	230	101300000	1000	0	0	-1	500
9980595	5892	1349	0	-100	0	230	101300000	1000	0	0	-1	500
9993155	5891	1351	0	-100	0	230	101300000	1000	0	0	-1	500
10005715	5892	1359	0	-100	0	230	101300000	1000	0	0	-1	500
10018275	5898	1361	0	-100	0	230	101300000	1000	0	0	-1	500
10030835	5888	1354	0	-100	0	230	101300000	1000	0	0	-1	500
10043395	5890	1359	0	-100	0	230	101300000	1000	0	0	-1	500
10055955	5888	1356	0	-100	0	230	101300000	1000	0	0	-1	500
10068515	5893	1347	0	-100	0	230	101300000	1000	0	0	-1	500
10081075	5889	1352	0	-100	0	230	101300000	1000	0	0	-1	500
10093635	5886	1354	0	-100	0	230	101300000	1000	0	0	-1	500
10106195	5890	1353	0	-100	0	230	101300000	1000	0	0	-1	500
10118755	5881	1359	0	-100	0	230	101300000	1000	0	0	-1	500
10131315	5894	1355	0	-100	0	230	101300000	1000	0	0	-1	500
10143875	5885	1356	0	-100	0	230	101300000	1000	0	0	-1	500
10156435	5884	1357	0	-100	0	230	101300000	1000	0	0	-1	500
10168995	5886	1355	0	-100	0	230	101300000	1000	0	0	-1	500
10181555	5887	1358	0	-100	0	230	101300000	1000	0	0	-1	500
10194115	5897	1347	0	-100	0	230	101300000	1000	0	0	-1	500
10206675	5884	1355	0	-100	0	230	101300000	1000	0	0	-1	500
10219235	5886	1350	0	-100	0	230	101300000	1000	0	0	-1	500
10231795	5886	1360	0	-100	0	230	101300000	1000	0	0	-1	500
10244355	5882	1360	0	-100	0	230	101300000	1000	0	0	-1	500
10256915	5878	1352	0	-100	0	230	101300000	1000	0	0	-1	500
10269475	5896	1356	0	-100	0	230	101300000	1000	0	0	-1	500
10282035	5891	1347	0	-100	0	230	101300000	1000	0	0	-1	500
10294595	5884	1351	0	-100	0	230	101300000	1000	0	0	-1	500
10307155	5882	1355	0	-100	0	230	101300000	1000	0	0	-1	500
10319715	5883	1357	0	-100	0	230	101300000	1000	0	0	-1	500
10332275	5888	1358	0	-100	0	230	101300000	1000	0	0	-1	500
10344835	5890	1356	0	-100	0	230	101300000	1000	0	0	-1	500
10357395	5892	1348	0	-100	0	230	101300000	1000	0	0	-1	500
10369955	5886	1356	0	-100	0	230	101300000	1000	0	0	-1	500
10382515	5886	1351	0	-100	0	230	101300000	1000	0	0	-1	500
10395075	5878	1353	0	-100	0	230	101300000	1000	0	0	-1	500
10407635	5887	1350	0	-100	0	230	101300000	1000	0	0	-1	500
10420195	5882	1357	0	-100	0	230	101300000	1000	0	0	-1	500
10432755	5887	1363	0	-100	0	230	101300000	1000	0	0	-1	500
10445315	5897	1350	0	-100	0	230	101300000	1000	0	0	-1	500
10457875	5886	1353	0	-100	0	230	101300000	1000	0	0	-1	500
10470435	5879	1346	0	-100	0	230	101300000	1000	0	0	-1	500
10482995	5883	1355	0	-100	0	230	101300000	1000	0	0	-1	500
10495555	5889	1357	0	-100	0	230	101300000	1000	0	0	-1	500
10508115	5891	1352	0	-100	0	230	101300000	1000	0	0	-1	500
10520675	5883	1352	0	-100	0	230	101300000	1000	0	0	-1	500
10533235	5893	1358	0	-100	0	230	101300000	1000	0	0	-1	500
10545795	5889	1354	0	-100	0	230	101300000	1000	0	0	-1	500
10558355	5883	1350	0	-100	0	230	101300000	1000	0	0	-1	500
10570915	5885	1357	0	-100	0	230	101300000	1000	0	0	-1	500
10583475	5886	1367	0	-100	0	230	101300000	1000	0	0	-1	500
10596035	5882	1350	0	-100	0	230	101300000	1000	0	0	-1	500
10608595	5887	1362	0	-100	0	230	101300000	1000	0	0	-1	500
10621155	5890	1354	0	-100	0	230	101300000	1000	0	0	-1	500
10633715	5885	1348	0	-100	0	230	101300000	1000	0	0	-1	500
10646275	5886	1354	0	-100	0	230	101300000	1000	0	0	-1	500
10658835	5891	1361	0	-100	0	230	101300000	1000	0	0	-1	500
10671395	5879	1359	0	-100	0	230	101300000	1000	0	0	-1	500
10683955	5887	1354	0	-100	0	230	101300000	1000	0	0	-1	500
10696515	5889	1357	0	-100	0	230	101300000	1000	0	0	-1	500
10709075	5884	1351	0	-100	0	230	101300000	1000	0	0	-1	500
10721635	5890	1356	0	-100	0	230	101300000	1000	0	0	-1	500
10734195	5882	1355	0	-100	0	230	101300000	1000	0	0	-1	500
10746755	5882	1362	0	-100	0	230	101300000	1000	0	0	-1	500
10759315	5897	1355	0	-100	0	230	101300000	1000	0	0	-1	500
10771875	5887	1350	0	-100	0	230	101300000	1000	0	0	-1	500
10784435	5890	1349	0	-100	0	230	101300000	1000	0	0	-1	500
10796995	5890	1353	0	-100	0	230	101300000	1000	0	0	-1	500
10809555	5880	1355	0	-100	0	230	101300000	1000	0	0	-1	500
10822115	5894	1346	0	-100	0	230	101300000	1000	0	0	-1	500
10834675	5881	1358	0	-100	0	230	101300000	1000	0	0	-1	500
10847235	5889	1353	0	-100	0	230	101300000	1000	0	0	-1	500
10859795	5893	1352	0	-100	0	230	101300000	1000	0	0	-1	500
10872355	5880	1352	0	-100	0	230	101300000	1000	0	0	-1	500
10884915	5888	1358	0	-100	0	230	101300000	1000	0	0	-1	500
10897475	5889	1350	0	-100	0	230	101300000	1000	0	0	-1	500
10910035	5886	1353	0	-100	0	230	101300000	1000	0	0	-1	500
10922595	5886	1361	0	-100	0	230	101300000	1000	0	0	-1	500
10935155	5886	1359	0	-100	0	230	101300000	1000	0	0	-1	500
10947715	5886	1357	0	-100	0	230	101300000	1000	0	0	-1	500
10960275	5896	1356	0	-100	0	230	101300000	1000	0	0	-1	500
10972835	5892	1356	0	-100	0	230	101300000	1000	0	0	-1	500
10985395	5890	1350	0	-100	0	230	101300000	1000	0	0	-1	500
10997955	5883	1353	0	-100	0	230	101300000	1000	0	0	-1	500
11010515	5888	1352	0	-100	0	230	101300000	1000	0	0	-1	500
11023075	5885	1361	0	-100	0	230	101300000	1000	0	0	-1	500
11035635	5885	1350	0	-100	0	230	101300000	1000	0	0	-1	500
11048195	5893	1347	0	-100	0	230	101300000	1000	0	0	-1	500
11060755	5886	1358	0	-100	0	230	101300000	1000	0	0	-1	500
11073315	5895	1358	0	-100	0	230	101300000	1000	0	0	-1	500
11085875	5882	1345	0	-100	0	230	101300000	1000	0	0	-1	500
11098435	5885	1364	0	-100	0	230	101300000	1000	0	0	-1	500
11110995	5887	1353	0	-100	0	230	101300000	1000	0	0	-1	500
11123555	5892	1362	0	-100	0	230	101300000	1000	0	0	-1	500
11136115	5895	1359	0	-100	0	230	101300000	1000	0	0	-1	500
11148675	5887	1354	0	-100	0	230	101300000	1000	0	0	-1	500
11161235	5884	1364	0	-100	0	230	101300000	1000	0	0	-1	500
11173795	5885	1363	0	-100	0	230	101300000	1000	0	0	-1	500
11186355	5891	1358	0	-100	0	230	101300000	1000	0	0	-1	500
11198915	5888	1346	0	-100	0	230	101300000	1000	0	0	-1	500
11211475	5888	1350	0	-100	0	230	101300000	1000	0	0	-1	500
11224035	5884	1347	0	-100	0	230	101300000	1000	0	0	-1	500
11236595	5879	1351	0	-100	0	230	101300000	1000	0	0	-1	500
11249155	5883	1360	0	-100	0	230	101300000	1000	0	0	-1	500
11261715	5883	1358	0	-100	0	230	101300000	1000	0	0	-1	500
11274275	5874	1353	0	-100	0	230	101300000	1000	0	0	-1	500
11286835	5882	1357	0	-100	0	230	101300000	1000	0	0	-1	500
11299395	5889	1356	0	-100	0	230	101300000	1000	0	0	-1	500
11311955	5881	1358	0	-100	0	230	101300000	1000	0	0	-1	500
11324515	5881	1358	0	-100	0	230	101300000	1000	0	0	-1	500
11337075	5886	1357	0	-100	0	230	101300000	1000	0	0	-1	500
11349635	5889	1365	0	-100	0	230	101300000	1000	0	0	-1	500
11362195	5881	1359	0	-100	0	230	101300000	1000	0	0	-1	500
11374755	5884	1349	0	-100	0	230	101300000	1000	0	0	-1	500
11387315	5898	1353	0	-100	0	230	101300000	1000	0	0	-1	500
11399875	5890	1359	0	-100	0	230	101300000	1000	0	0	-1	500
11412435	5885	1367	0	-100	0	230	101300000	1000	0	0	-1	500
11424995	5887	1368	0	-100	0	230	101300000	1000	0	0	-1	500
11437555	5892	1356	0	-100	0	230	101300000	1000	0	0	-1	500
11450115	5895	1357	0	-100	0	230	101300000	1000	0	0	-1	500
11462675	5893	1354	0	-100	0	230	101300000	1000	0	0	-1	500
11475235	5892	1352	0	-100	0	230	101300000	1000	0	0	-1	500
11487795	5886	1348	0	-100	0	230	101300000	1000	0	0	-1	500
11500355	5894	1354	0	-100	0	230	101300000	1000	0	0	-1	500
11512915	5886	1354	0	-100	0	230	101300000	1000	0	0	-1	500
11525475	5882	1352	0	-100	0	230	101300000	1000	0	0	-1	500
11538035	5886	1352	0	-100	0	230	101300000	1000	0	0	-1	500
11550595	5887	1363	0	-100	0	230	101300000	1000	0	0	-1	500
11563155	5886	1354	0	-100	0	230	101300000	1000	0	0	-1	500
11575715	5879	1355	0	-100	0	230	101300000	1000	0	0	-1	500
11588275	5880	1356	0	-100	0	230	101300000	1000	0	0	-1	500
11600835	5887	1354	0	-100	0	230	101300000	1000	0	0	-1	500
11613395	5888	1361	0	-100	0	230	101300000	1000	0	0	-1	500
11625955	5887	1359	0	-100	0	230	101300000	1000	0	0	-1	500
11638515	5882	1350	0	-100	0	230	101300000	1000	0	0	-1	500
11651075	5880	1353	0	-100	0	230	101300000	1000	0	0	-1	500
11663635	5889	1356	0	-100	0	230	101300000	1000	0	0	-1	500
11676195	5890	1352	0	-100	0	230	101300000	1000	0	0	-1	500
11688755	5883	1357	0	-100	0	230	101300000	1000	0	0	-1	500
11701315	5893	1360	0	-100	0	230	101300000	1000	0	0	-1	500
11713875	5890	1358	0	-100	0	230	101300000	1000	0	0	-1	500
11726435	5880	1362	0	-100	0	230	101300000	1000	0	0	-1	500
11738995	5885	1363	0	-100	0	230	101300000	1000	0	0	-1	500
11751555	5887	1357	0	-100	0	230	101300000	1000	0	0	-1	500
11764115	5891	1359	0	-100	0	230	101300000	1000	0	0	-1	500
11776675	5894	1358	0	-100	0	230	101300000	1000	0	0	-1	500
11789235	5891	1358	0	-100	0	230	101300000	1000	0	0	-1	500
11801795	5883	1358	0	-100	0	230	101300000	1000	0	0	-1	500
11814355	5893	1364	0	-100	0	230	101300000	1000	0	0	-1	500
11826915	5883	1354	0	-100	0	230	101300000	1000	0	0	-1	500
11839475	5890	1366	0	-100	0	230	101300000	1000	0	0	-1	500
11852035	5894	1356	0	-100	0	230	101300000	1000	0	0	-1	500
11864595	5889	1355	0	-100	0	230	101300000	1000	0	0	-1	500
11877155	5883	1352	0	-100	0	230	101300000	1000	0	0	-1	500
11889715	5892	1359	0	-100	0	230	101300000	1000	0	0	-1	500
11902275	5886	1356	0	-100	0	230	101300000	1000	0	0	-1	500
11914835	5887	1357	0	-100	0	230	101300000	1000	0	0	-1	500
11927395	5886	1359	0	-100	0	230	101300000	1000	0	0	-1	500
11939955	5882	1354	0	-100	0	230	101300000	1000	0	0	-1	500
11952515	5886	1361	0	-100	0	230	101300000	1000	0	0	-1	500
11965075	5892	1358	0	-100	0	230	101300000	1000	0	0	-1	500
11977635	5890	1360	0	-100	0	230	101300000	1000	0	0	-1	500
11990195	5883	1347	0	-100	0	230	101300000	1000	0	0	-1	500
12002755	5883	1352	0	-100	0	230	101300000	1000	0	0	-1	500
12015315	5888	1365	0	-100	0	230	101300000	1000	0	0	-1	500
12027875	5894	1357	0	-100	0	230	101300000	1000	0	0	-1	500
12040435	5884	1354	0	-100	0	230	101300000	1000	0	0	-1	500
12052995	5890	1359	0	-100	0	230	101300000	1000	0	0	-1	500
12065555	5882	1354	0	-100	0	230	101300000	1000	0	0	-1	500
12078115	5890	1364	0	-100	0	230	101300000	1000	0	0	-1	500
12090675	5883	1363	0	-100	0	230	101300000	1000	0	0	-1	500
12103235	5883	1360	0	-100	0	230	101300000	1000	0	0	-1	500
12115795	5885	1352	0	-100	0	230	101300000	1000	0	0	-1	500
12128355	5886	1350	0	-100	0	230	101300000	1000	0	0	-1	500
12140915	5878	1357	0	-100	0	230	101300000	1000	0	0	-1	500
12153475	5890	1358	0	-100	0	230	101300000	1000	0	0	-1	500
12166035	5885	1362	0	-100	0	230	101300000	1000	0	0	-1	500
12178595	5890	1363	0	-100	0	230	101300000	1000	0	0	-1	500
12191155	5887	1356	0	-100	0	230	101300000	1000	0	0	-1	500
12203715	5886	1362	0	-100	0	230	101300000	1000	0	0	-1	500
12216275	5887	1349	0	-100	0	230	101300000	1000	0	0	-1	500
12228835	5883	1358	0	-100	0	230	101300000	1000	0	0	-1	500
12241395	5882	1359	0	-100	0	230	101300000	1000	0	0	-1	500
12253955	5893	1355	0	-100	0	230	101300000	1000	0	0	-1	500
12266515	5880	1354	0	-100	0	230	101300000	1000	0	0	-1	500
12279075	5886	1357	0	-100	0	230	101300000	1000	0	0	-1	500
12291635	5888	1356	0	-100	0	230	101300000	1000	0	0	-1	500
12304195	5885	1349	0	-100	0	230	101300000	1000	0	0	-1	500
12316755	5889	1360	0	-100	0	230	101300000	1000	0	0	-1	500
12329315	5894	1354	0	-100	0	230	101300000	1000	0	0	-1	500
12341875	5885	1355	0	-100	0	230	101300000	1000	0	0	-1	500
12354435	5890	1357	0	-100	0	230	101300000	1000	0	0	-1	500
12366995	5886	1351	0	-100	0	230	101300000	1000	0	0	-1	500
12379555	5888	1361	0	-100	0	230	101300000	1000	0	0	-1	500
12392115	5897	1358	0	-100	0	230	101300000	1000	0	0	-1	500
12404675	5887	1355	0	-100	0	230	101300000	1000	0	0	-1	500
12417235	5882	1356	0	-100	0	230	101300000	1000	0	0	-1	500
12429795	5888	1353	0	-100	0	230	101300000	1000	0	0	-1	500
12442355	5886	1358	0	-100	0	230	101300000	1000	0	0	-1	500
12454915	5894	1362	0	-100	0	230	101300000	1000	0	0	-1	500
12467475	5888	1349	0	-100	0	230	101300000	1000	0	0	-1	500
12480035	5880	1357	0	-100	0	230	101300000	1000	0	0	-1	500
12492595	5891	1357	0	-100	0	230	101300000	1000	0	0	-1	500
12505155	5888	1356	0	-100	0	230	101300000	1000	0	0	-1	500
12517715	5882	1361	0	-100	0	230	101300000	1000	0	0	-1	500
12530275	5887	1361	0	-100	0	230	101300000	1000	0	0	-1	500
12542835	5889	1359	0	-100	0	230	101300000	1000	0	0	-1	500
12555395	5879	1350	0	-100	0	230	101300000	1000	0	0	-1	500
12567955	5881	1357	0	-100	0	230	101300000	1000	0	0	-1	500
12580515	5890	1348	0	-100	0	230	101300000	1000	0	0	-1	500
12593075	5886	1354	0	-100	0	230	101300000	1000	0	0	-1	500
12605635	5880	1356	0	-100	0	230	101300000	1000	0	0	-1	500
12618195	5881	1354	0	-100	0	230	101300000	1000	0	0	-1	500
12630755	5896	1360	0	-100	0	230	101300000	1000	0	0	-1	500
12643315	5897	1355	0	-100	0	230	101300000	1000	0	0	-1	500
12655875	5881	1352	0	-100	0	230	101300000	1000	0	0	-1	500
12668435	5882	1355	0	-100	0	230	101300000	1000	0	0	-1	500
12680995	5886	1356	0	-100	0	230	101300000	1000	0	0	-1	500
12693555	5893	1357	0	-100	0	230	101300000	1000	0	0	-1	500
12706115	5897	1354	0	-100	0	230	101300000	1000	0	0	-1	500
12718675	5882	1351	0	-100	0	230	101300000	1000	0	0	-1	500
12731235	5880	1353	0	-100	0	230	101300000	1000	0	0	-1	500
12743795	5888	1355	0	-100	0	230	101300000	1000	0	0	-1	500
12756355	5890	1357	0	-100	0	230	101300000	1000	0	0	-1	500
12768915	5882	1358	0	-100	0	230	101300000	1000	0	0	-1	500
12781475	5885	1354	0	-100	0	230	101300000	1000	0	0	-1	500
12794035	5894	1354	0	-100	0	230	101300000	1000	0	0	-1	500
12806595	5884	1356	0	-100	0	230	101300000	1000	0	0	-1	500
12819155	5882	1360	0	-100	0	230	101300000	1000	0	0	-1	500
12831715	5886	1355	0	-100	0	230	101300000	1000	0	0	-1	500
12844275	5890	1359	0	-100	0	230	101300000	1000	0	0	-1	500
12856835	5886	1359	0	-100	0	230	101300000	1000	0	0	-1	500
12869395	5885	1361	0	-100	0	230	101300000	1000	0	0	-1	500
12881955	5886	1362	0	-100	0	230	101300000	1000	0	0	-1	500
12894515	5886	1357	0	-100	0	230	101300000	1000	0	0	-1	500
12907075	5889	1360	0	-100	0	230	101300000	1000	0	0	-1	500
12919635	5883	1361	0	-100	0	230	101300000	1000	0	0	-1	500
12932195	5887	1357	0	-100	0	230	101300000	1000	0	0	-1	500
12944755	5882	1356	0	-100	0	230	101300000	1000	0	0	-1	500
12957315	5886	1358	0	-100	0	230	101300000	1000	0	0	-1	500
12969875	5886	1357	0	-100	0	230	101300000	1000	0	0	-1	500
12982435	5884	1359	0	-100	0	230	101300000	1000	0	0	-1	500
12994995	5885	1358	0	-100	0	230	101300000	1000	0	0	-1	500
13007555	5889	1355	0	-100	0	230	101300000	1000	0	0	-1	500
13020115	5892	1358	0	-100	0	230	101300000	1000	0	0	-1	500
13032675	5887	1364	0	-100	0	230	101300000	1000	0	0	-1	500
13045235	5893	1351	0	-100	0	230	101300000	1000	0	0	-1	500
13057795	5878	1357	0	-100	0	230	101300000	1000	0	0	-1	500
13070355	5878	1357	0	-100	0	230	101300000	1000	0	0	-1	500
13082915	5889	1355	0	-100	0	230	101300000	1000	0	0	-1	500
13095475	5882	1356	0	-100	0	230	101300000	1000	0	0	-1	500
13108035	5885	1358	0	-100	0	230	101300000	1000	0	0	-1	500
13120595	5887	1359	0	-100	0	230	101300000	1000	0	0	-1	500
13133155	5888	1358	0	-100	0	230	101300000	1000	0	0	-1	500
13145715	5883	1359	0	-100	0	230	101300000	1000	0	0	-1	500
13158275	5886	1357	0	-100	0	230	101300000	1000	0	0	-1	500
13170835	5886	1365	0	-100	0	230	101300000	1000	0	0	-1	500
13183395	5882	1355	0	-100	0	230	101300000	1000	0	0	-1	500
13195955	5886	1349	0	-100	0	230	101300000	1000	0	0	-1	500
13208515	5889	1361	0	-100	0	230	101300000	1000	0	0	-1	500
13221075	5882	1354	0	-100	0	230	101300000	1000	0	0	-1	500
13233635	5891	1361	0	-100	0	230	101300000	1000	0	0	-1	500
13246195	5892	1360	0	-100	0	230	101300000	1000	0	0	-1	500
13258755	5891	1362	0	-100	0	230	101300000	1000	0	0	-1	500
13271315	5888	1361	0	-100	0	230	101300000	1000	0	0	-1	500
13283875	5886	1358	0	-100	0	230	101300000	1000	0	0	-1	500
13296435	5879	1355	0	-100	0	230	101300000	1000	0	0	-1	500
13308995	5882	1359	0	-100	0	230	101300000	1000	0	0	-1	500
13321555	5882	1361	0	-100	0	230	101300000	1000	0	0	-1	500
13334115	5900	1363	0	-100	0	230	101300000	1000	0	0	-1	500
13346675	5888	1359	0	-100	0	230	101300000	1000	0	0	-1	500
13359235	5884	1363	0	-100	0	230	101300000	1000	0	0	-1	500
13371795	5882	1362	0	-100	0	230	101300000	1000	0	0	-1	500
13384355	5888	1361	0	-100	0	230	101300000	1000	0	0	-1	500
13396915	5890	1361	0	-100	0	230	101300000	1000	0	0	-1	500
13409475	5884	1355	0	-100	0	230	101300000	1000	0	0	-1	500
13422035	5880	1353	0	-100	0	230	101300000	1000	0	0	-1	500
13434595	5887	1356	0	-100	0	230	101300000	1000	0	0	-1	500
13447155	5889	1354	0	-100	0	230	101300000	1000	0	0	-1	500
13459715	5888	1351	0	-100	0	230	101300000	1000	0	0	-1	500
13472275	5882	1355	0	-100	0	230	101300000	1000	0	0	-1	500
13484835	5883	1362	0	-100	0	230	101300000	1000	0	0	-1	500
13497395	5892	1359	0	-100	0	230	101300000	1000	0	0	-1	500
13509955	5882	1351	0	-100	0	230	101300000	1000	0	0	-1	500
13522515	5885	1354	0	-100	0	230	101300000	1000	0	0	-1	500
13535075	5885	1351	0	-100	0	230	101300000	1000	0	0	-1	500
13547635	5892	1353	0	-100	0	230	101300000	1000	0	0	-1	500
13560195	5882	1357	0	-100	0	230	101300000	1000	0	0	-1	500
13572755	5882	1352	0	-100	0	230	101300000	1000	0	0	-1	500
13585315	5892	1360	0	-100	0	230	101300000	1000	0	0	-1	500
13597875	5886	1365	0	-100	0	230	101300000	1000	0	0	-1	500
13610435	5880	1360	0	-100	0	230	101300000	1000	0	0	-1	500
13622995	5887	1366	0	-100	0	230	101300000	1000	0	0	-1	500
13635555	5892	1363	0	-100	0	230	101300000	1000	0	0	-1	500
13648115	5896	1357	0	-100	0	230	101300000	1000	0	0	-1	500
13660675	5875	1360	0	-100	0	230	101300000	1000	0	0	-1	500
13673235	5888	1362	0	-100	0	230	101300000	1000	0	0	-1	500
13685795	5889	1357	0	-100	0	230	101300000	1000	0	0	-1	500
13698355	5886	1357	0	-100	0	230	101300000	1000	0	0	-1	500
13710915	5884	1362	0	-100	0	230	101300000	1000	0	0	-1	500
13723475	5877	1359	0	-100	0	230	101300000	1000	0	0	-1	500
13736035	5886	1363	0	-100	0	230	101300000	1000	0	0	-1	500
13748595	5887	1361	0	-100	0	230	101300000	1000	0	0	-1	500
13761155	5890	1364	0	-100	0	230	101300000	1000	0	0	-1	500
13773715	5884	1357	0	-100	0	230	101300000	1000	0	0	-1	500
13786275	5882	1357	0	-100	0	230	101300000	1000	0	0	-1	500
13798835	5888	1356	0	-100	0	230	101300000	1000	0	0	-1	500
13811395	5884	1358	0	-100	0	230	101300000	1000	0	0	-1	500
13823955	5881	1359	0	-100	0	230	101300000	1000	0	0	-1	500
13836515	5889	1356	0	-100	0	230	101300000	1000	0	0	-1	500
13849075	5879	1366	0	-100	0	230	101300000	1000	0	0	-1	500
13861635	5886	1361	0	-100	0	230	101300000	1000	0	0	-1	500
13874195	5890	1355	0	-100	0	230	101300000	1000	0	0	-1	500
13886755	5888	1355	0	-100	0	230	101300000	1000	0	0	-1	500
13899315	5901	1361	0	-100	0	230	101300000	1000	0	0	-1	500
13911875	5886	1356	0	-100	0	230	101300000	1000	0	0	-1	500
13924435	5888	1364	0	-100	0	230	101300000	1000	0	0	-1	500
13936995	5883	1358	0	-100	0	230	101300000	1000	0	0	-1	500
13949555	5885	1361	0	-100	0	230	101300000	1000	0	0	-1	500
13962115	5890	1360	0	-100	0	230	101300000	1000	0	0	-1	500
13974675	5880	1359	0	-100	0	230	101300000	1000	0	0	-1	500
13987235	5894	1356	0	-100	0	230	101300000	1000	0	0	-1	500
13999795	5886	1358	0	-100	0	230	101300000	1000	0	0	-1	500
14012355	5883	1352	0	-100	0	230	101300000	1000	0	0	-1	500
14024915	5883	1363	0	-100	0	230	101300000	1000	0	0	-1	500
14037475	5888	1356	0	-100	0	230	101300000	1000	0	0	-1	500
14050035	5890	1352	0	-100	0	230	101300000	1000	0	0	-1	500
14062595	5886	1355	0	-100	0	230	101300000	1000	0	0	-1	500
14075155	5890	1368	0	-100	0	230	101300000	1000	0	0	-1	500
14087715	5888	1360	0	-100	0	230	101300000	1000	0	0	-1	500
14100275	5882	1363	0	-100	0	230	101300000	1000	0	0	-1	500
14112835	5881	1352	0	-100	0	230	101300000	1000	0	0	-1	500
14125395	5886	1365	0	-100	0	230	101300000	1000	0	0	-1	500
14137955	5888	1365	0	-100	0	230	101300000	1000	0	0	-1	500
14150515	5888	1360	0	-100	0	230	101300000	1000	0	0	-1	500
14163075	5881	1366	0	-100	0	230	101300000	1000	0	0	-1	500
14175635	5884	1363	0	-100	0	230	101300000	1000	0	0	-1	500
14188195	5885	1354	0	-100	0	230	101300000	1000	0	0	-1	500
14200755	5886	1361	0	-100	0	230	101300000	1000	0	0	-1	500
14276115	5898	1351	0	-100	0	230	101300000	1000	0	0	-1	500
14288675	5886	1351	0	-100	0	230	101300000	1000	0	0	-1	500
14301235	5881	1360	0	-100	0	230	101300000	1000	0	0	-1	500
14313795	5882	1363	0	-100	0	230	101300000	1000	0	0	-1	500
14326355	5884	1362	0	-100	0	230	101300000	1000	0	0	-1	500
14338915	5883	1357	0	-100	0	230	101300000	1000	0	0	-1	500
14351475	5885	1350	0	-100	0	230	101300000	1000	0	0	-1	500
14364035	5881	1355	0	-100	0	230	101300000	1000	0	0	-1	500
14376595	5886	1361	0	-100	0	230	101300000	1000	0	0	-1	500
14389155	5875	1356	0	-100	0	230	101300000	1000	0	0	-1	500
14401715	5890	1361	0	-100	0	230	101300000	1000	0	0	-1	500
14414275	5886	1354	0	-100	0	230	101300000	1000	0	0	-1	500
14426835	5879	1359	0	-100	0	230	101300000	1000	0	0	-1	500
14439395	5881	1357	0	-100	0	230	101300000	1000	0	0	-1	500
14451955	5890	1362	0	-100	0	230	101300000	1000	0	0	-1	500
14464515	5883	1360	0	-100	0	230	101300000	1000	0	0	-1	500
14477075	5883	1354	0	-100	0	230	101300000	1000	0	0	-1	500
14489635	5889	1356	0	-100	0	230	101300000	1000	0	0	-1	500
14502195	5887	1358	0	-100	0	230	101300000	1000	0	0	-1	500
14514755	5887	1360	0	-100	0	230	101300000	1000	0	0	-1	500
14527315	5902	1360	0	-100	0	230	101300000	1000	0	0	-1	500
14539875	5891	1353	0	-100	0	230	101300000	1000	0	0	-1	500
14552435	5889	1356	0	-100	0	230	101300000	1000	0	0	-1	500
14564995	5882	1355	0	-100	0	230	101300000	1000	0	0	-1	500
14577555	5882	1352	0	-100	0	230	101300000	1000	0	0	-1	500
14602675	5886	1368	0	-100	0	230	101300000	1000	0	0	-1	500
14615235	5878	1363	0	-100	0	230	101300000	1000	0	0	-1	500
14627795	5884	1356	0	-100	0	230	101300000	1000	0	0	-1	500
14640355	5893	1357	0	-100	0	230	101300000	1000	0	0	-1	500
14652915	5892	1363	0	-100	0	230	101300000	1000	0	0	-1	500
14665475	5892	1353	0	-100	0	230	101300000	1000	0	0	-1	500
14678035	5886	1357	0	-100	0	230	101300000	1000	0	0	-1	500
14690595	5881	1358	0	-100	0	230	101300000	1000	0	0	-1	500
14703155	5881	1358	0	-100	0	230	101300000	1000	0	0	-1	500
14715715	5887	1363	0	-100	0	230	101300000	1000	0	0	-1	500
14728275	5894	1362	0	-100	0	230	101300000	1000	0	0	-1	500
14740835	5890	1363	0	-100	0	230	101300000	1000	0	0	-1	500
14778515	5886	1356	0	-100	0	230	101300000	1000	0	0	-1	500
14791075	5881	1353	0	-100	0	230	101300000	1000	0	0	-1	500
14803635	5882	1365	0	-100	0	230	101300000	1000	0	0	-1	500
14816195	5886	1366	0	-100	0	230	101300000	1000	0	0	-1	500
14828755	5889	1362	0	-100	0	230	101300000	1000	0	0	-1	500
14841315	5890	1361	0	-100	0	230	101300000	1000	0	0	-1	500
14853875	5885	1354	0	-100	0	230	101300000	1000	0	0	-1	500
14866435	5885	1356	0	-100	0	230	101300000	1000	0	0	-1	500
14878995	5880	1360	0	-100	0	230	101300000	1000	0	0	-1	500
14891555	5881	1357	0	-100	0	230	101300000	1000	0	0	-1	500
14904115	5896	1360	0	-100	0	230	101300000	1000	0	0	-1	500
14916675	5887	1357	0	-100	0	230	101300000	1000	0	0	-1	500
14929235	5886	1363	0	-100	0	230	101300000	1000	0	0	-1	500
14941795	5886	1357	0	-100	0	230	101300000	1000	0	0	-1	500
14954355	5885	1361	0	-100	0	230	101300000	1000	0	0	-1	500
14966915	5893	1358	0	-100	0	230	101300000	1000	0	0	-1	500
14979475	5890	1357	0	-100	0	230	101300000	1000	0	0	-1	500
14992035	5879	1358	0	-100	0	230	101300000	1000	0	0	-1	500
15004595	5883	1360	0	-100	0	230	101300000	1000	0	0	-1	500
15017155	5893	1352	0	-100	0	230	101300000	1000	0	0	-1	500
15029715	5886	1359	0	-100	0	230	101300000	1000	0	0	-1	500
15042275	5881	1357	0	-100	0	230	101300000	1000	0	0	-1	500
15054835	5882	1356	0	-100	0	230	101300000	1000	0	0	-1	500
15067395	5891	1358	0	-100	0	230	101300000	1000	0	0	-1	500
15079955	5894	1367	0	-100	0	230	101300000	1000	0	0	-1	500
15092515	5890	1363	0	-100	0	230	101300000	1000	0	0	-1	500
15105075	5890	1351	0	-100	0	230	101300000	1000	0	0	-1	500
15117635	5892	1354	0	-100	0	230	101300000	1000	0	0	-1	500
15130195	5886	1359	0	-100	0	230	101300000	1000	0	0	-1	500
15142755	5888	1368	0	-100	0	230	101300000	1000	0	0	-1	500
15155315	5899	1359	0	-100	0	230	101300000	1000	0	0	-1	500
15167875	5885	1362	0	-100	0	230	101300000	1000	0	0	-1	500
15180435	5886	1357	0	-100	0	230	101300000	1000	0	0	-1	500
15192995	5896	1353	0	-100	0	230	101300000	1000	0	0	-1	500
15205555	5892	1354	0	-100	0	230	101300000	1000	0	0	-1	500
15218115	5889	1355	0	-100	0	230	101300000	1000	0	0	-1	500
15230675	5891	1362	0	-100	0	230	101300000	1000	0	0	-1	500
15243235	5891	1360	0	-100	0	230	101300000	1000	0	0	-1	500
15255795	5882	1367	0	-100	0	230	101300000	1000	0	0	-1	500
15268355	5882	1359	0	-100	0	230	101300000	1000	0	0	-1	500
15280915	5892	1360	0	-100	0	230	101300000	1000	0	0	-1	500
15293475	5892	1359	0	-100	0	230	101300000	1000	0	0	-1	500
15306035	5893	1354	0	-100	0	230	101300000	1000	0	0	-1	500
15318595	5890	1363	0	-100	0	230	101300000	1000	0	0	-1	500
15331155	5886	1352	0	-100	0	230	101300000	1000	0	0	-1	500
15343715	5886	1359	0	-100	0	230	101300000	1000	0	0	-1	500
15356275	5892	1362	0	-100	0	230	101300000	1000	0	0	-1	500
15368835	5891	1356	0	-100	0	230	101300000	1000	0	0	-1	500
15381395	5891	1367	0	-100	0	230	101300000	1000	0	0	-1	500
15393955	5892	1361	0	-100	0	230	101300000	1000	0	0	-1	500
15406515	5890	1352	0	-100	0	230	101300000	1000	0	0	-1	500
15419075	5894	1359	0	-100	0	230	101300000	1000	0	0	-1	500
15431635	5883	1359	0	-100	0	230	101300000	1000	0	0	-1	500
15444195	5882	1365	0	-100	0	230	101300000	1000	0	0	-1	500
15456755	5889	1360	0	-100	0	230	101300000	1000	0	0	-1	500
15469315	5892	1358	0	-100	0	230	101300000	1000	0	0	-1	500
15481875	5886	1352	0	-100	0	230	101300000	1000	0	0	-1	500
15494435	5885	1360	0	-100	0	230	101300000	1000	0	0	-1	500
15506995	5879	1363	0	-100	0	230	101300000	1000	0	0	-1	500
15519555	5884	1358	0	-100	0	230	101300000	1000	0	0	-1	500
15532115	5902	1354	0	-100	0	230	101300000	1000	0	0	-1	500
15544675	5894	1360	0	-100	0	230	101300000	1000	0	0	-1	500
15557235	5880	1359	0	-100	0	230	101300000	1000	0	0	-1	500
15569795	5881	1356	0	-100	0	230	101300000	1000	0	0	-1	500
15582355	5888	1365	0	-100	0	230	101300000	1000	0	0	-1	500
15594915	5881	1364	0	-100	0	230	101300000	1000	0	0	-1	500
15607475	5882	1363	0	-100	0	230	101300000	1000	0	0	-1	500
15620035	5888	1359	0	-100	0	230	101300000	1000	0	0	-1	500
15632595	5888	1361	0	-100	0	230	101300000	1000	0	0	-1	500
15645155	5881	1361	0	-100	0	230	101300000	1000	0	0	-1	500
15657715	5885	1356	0	-100	0	230	101300000	1000	0	0	-1	500
15670275	5883	1356	0	-100	0	230	101300000	1000	0	0	-1	500
15682835	5885	1362	0	-100	0	230	101300000	1000	0	0	-1	500
15695395	5882	1363	0	-100	0	230	101300000	1000	0	0	-1	500
15707955	5884	1357	0	-100	0	230	101300000	1000	0	0	-1	500
15720515	5890	1360	0	-100	0	230	101300000	1000	0	0	-1	500
15733075	5893	1362	0	-100	0	230	101300000	1000	0	0	-1	500
15745635	5890	1354	0	-100	0	230	101300000	1000	0	0	-1	500
15758195	5886	1356	0	-100	0	230	101300000	1000	0	0	-1	500
15770755	5883	1355	0	-100	0	230	101300000	1000	0	0	-1	500
15783315	5890	1362	0	-100	0	230	101300000	1000	0	0	-1	500
15795875	5890	1354	0	-100	0	230	101300000	1000	0	0	-1	500
15808435	5884	1354	0	-100	0	230	101300000	1000	0	0	-1	500
15820995	5884	1355	0	-100	0	230	101300000	1000	0	0	-1	500
15833555	5890	1353	0	-100	0	230	101300000	1000	0	0	-1	500
15846115	5894	1354	0	-100	0	230	101300000	1000	0	0	-1	500
15858675	5879	1353	0	-100	0	230	101300000	1000	0	0	-1	500
15871235	5885	1367	0	-100	0	230	101300000	1000	0	0	-1	500
15883795	5887	1364	0	-100	0	230	101300000	1000	0	0	-1	500
15896355	5888	1361	0	-100	0	230	101300000	1000	0	0	-1	500
15908915	5890	1361	0	-100	0	230	101300000	1000	0	0	-1	500
15921475	5889	1357	0	-100	0	230	101300000	1000	0	0	-1	500
15934035	5878	1358	0	-100	0	230	101300000	1000	0	0	-1	500
15946595	5887	1366	0	-100	0	230	101300000	1000	0	0	-1	500
15959155	5886	1360	0	-100	0	230	101300000	1000	0	0	-1	500
15971715	5889	1358	0	-100	0	230	101300000	1000	0	0	-1	500
15984275	5886	1357	0	-100	0	230	101300000	1000	0	0	-1	500
15996835	5894	1352	0	-100	0	230	101300000	1000	0	0	-1	500
16009395	5889	1354	0	-100	0	230	101300000	1000	0	0	-1	500
16021955	5882	1347	0	-100	0	230	101300000	1000	0	0	-1	500
16034515	5887	1357	0	-100	0	230	101300000	1000	0	0	-1	500
16047075	5884	1359	0	-100	0	230	101300000	1000	0	0	-1	500
16059635	5885	1364	0	-100	0	230	101300000	1000	0	0	-1	500
16072195	5885	1357	0	-100	0	230	101300000	1000	0	0	-1	500
16084755	5886	1361	0	-100	0	230	101300000	1000	0	0	-1	500
16097315	5902	1361	0	-100	0	230	101300000	1000	0	0	-1	500
16109875	5891	1360	0	-100	0	230	101300000	1000	0	0	-1	500
16122435	5888	1355	0	-100	0	230	101300000	1000	0	0	-1	500
16134995	5888	1361	0	-100	0	230	101300000	1000	0	0	-1	500
16147555	5897	1354	0	-100	0	230	101300000	1000	0	0	-1	500
16160115	5897	1346	0	-100	0	230	101300000	1000	0	0	-1	500
16172675	5890	1354	0	-100	0	230	101300000	1000	0	0	-1	500
16185235	5886	1362	0	-100	0	230	101300000	1000	0	0	-1	500
16197795	5890	1361	0	-100	0	230	101300000	1000	0	0	-1	500
16210355	5883	1353	0	-100	0	230	101300000	1000	0	0	-1	500
16222915	5881	1357	0	-100	0	230	101300000	1000	0	0	-1	500
16235475	5879	1352	0	-100	0	230	101300000	1000	0	0	-1	500
16248035	5881	1356	0	-100	0	230	101300000	1000	0	0	-1	500
16260595	5887	1362	0	-100	0	230	101300000	1000	0	0	-1	500
16273155	5882	1356	0	-100	0	230	101300000	1000	0	0	-1	500
16285715	5882	1359	0	-100	0	230	101300000	1000	0	0	-1	500
16298275	5891	1355	0	-100	0	230	101300000	1000	0	0	-1	500
16310835	5890	1359	0	-100	0	230	101300000	1000	0	0	-1	500
16323395	5885	1357	0	-100	0	230	101300000	1000	0	0	-1	500
16335955	5882	1363	0	-100	0	230	101300000	1000	0	0	-1	500
16348515	5878	1352	0	-100	0	230	101300000	1000	0	0	-1	500
16361075	5882	1357	0	-100	0	230	101300000	1000	0	0	-1	500
16373635	5886	1365	0	-100	0	230	101300000	1000	0	0	-1	500
16386195	5891	1359	0	-100	0	230	101300000	1000	0	0	-1	500
16398755	5887	1356	0	-100	0	230	101300000	1000	0	0	-1	500
16411315	5899	1361	0	-100	0	230	101300000	1000	0	0	-1	500
16423875	5886	1354	0	-100	0	230	101300000	1000	0	0	-1	500
16436435	5890	1360	0	-100	0	230	101300000	1000	0	0	-1	500
16448995	5894	1354	0	-100	0	230	101300000	1000	0	0	-1	500
16461555	5887	1356	0	-100	0	230	101300000	1000	0	0	-1	500
16474115	5891	1360	0	-100	0	230	101300000	1000	0	0	-1	500
16486675	5879	1355	0	-100	0	230	101300000	1000	0	0	-1	500
16499235	5880	1354	0	-100	0	230	101300000	1000	0	0	-1	500
16511795	5894	1358	0	-100	0	230	101300000	1000	0	0	-1	500
16524355	5890	1361	0	-100	0	230	101300000	1000	0	0	-1	500
16536915	5885	1359	0	-100	0	230	101300000	1000	0	0	-1	500
16549475	5878	1360	0	-100	0	230	101300000	1000	0	0	-1	500
16562035	5889	1358	0	-100	0	230	101300000	1000	0	0	-1	500
16574595	5897	1355	0	-100	0	230	101300000	1000	0	0	-1	500
16587155	5880	1347	0	-100	0	230	101300000	1000	0	0	-1	500
16599715	5886	1361	0	-100	0	230	101300000	1000	0	0	-1	500
16612275	5888	1357	0	-100	0	230	101300000	1000	0	0	-1	500
16624835	5891	1352	0	-100	0	230	101300000	1000	0	0	-1	500
16637395	5882	1351	0	-100	0	230	101300000	1000	0	0	-1	500
16649955	5886	1352	0	-100	0	230	101300000	1000	0	0	-1	500
16662515	5891	1361	0	-100	0	230	101300000	1000	0	0	-1	500
16675075	5886	1354	0	-100	0	230	101300000	1000	0	0	-1	500
16687635	5884	1357	0	-100	0	230	101300000	1000	0	0	-1	500
16700195	5886	1364	0	-100	0	230	101300000	1000	0	0	-1	500
16712755	5880	1359	0	-100	0	230	101300000	1000	0	0	-1	500
16725315	5890	1360	0	-100	0	230	101300000	1000	0	0	-1	500
16737875	5894	1354	0	-100	0	230	101300000	1000	0	0	-1	500
16750435	5890	1353	0	-100	0	230	101300000	1000	0	0	-1	500
16762995	5887	1357	0	-100	0	230	101300000	1000	0	0	-1	500
16775555	5886	1355	0	-100	0	230	101300000	1000	0	0	-1	500
16788115	5894	1348	0	-100	0	230	101300000	1000	0	0	-1	500
16800675	5881	1354	0	-100	0	230	101300000	1000	0	0	-1	500
16813235	5885	1354	0	-100	0	230	101300000	1000	0	0	-1	500
16825795	5881	1365	0	-100	0	230	101300000	1000	0	0	-1	500
16838355	5882	1361	0	-100	0	230	101300000	1000	0	0	-1	500
16850915	5886	1356	0	-100	0	230	101300000	1000	0	0	-1	500
16863475	5878	1357	0	-100	0	230	101300000	1000	0	0	-1	500
16876035	5882	1366	0	-100	0	230	101300000	1000	0	0	-1	500
16888595	5881	1357	0	-100	0	230	101300000	1000	0	0	-1	500
16901155	5886	1363	0	-100	0	230	101300000	1000	0	0	-1	500
16913715	5891	1363	0	-100	0	230	101300000	1000	0	0	-1	500
16926275	5886	1355	0	-100	0	230	101300000	1000	0	0	-1	500
16938835	5887	1360	0	-100	0	230	101300000	1000	0	0	-1	500
16951395	5886	1362	0	-100	0	230	101300000	1000	0	0	-1	500
16963955	5879	1363	0	-100	0	230	101300000	1000	0	0	-1	500
16976515	5882	1359	0	-100	0	230	101300000	1000	0	0	-1	500
17051875	5877	1359	0	-100	0	230	101300000	1000	0	0	-1	500
17064435	5882	1359	0	-100	0	230	101300000	1000	0	0	-1	500
17076995	5890	1359	0	-100	0	230	101300000	1000	0	0	-1	500
17089555	5883	1368	0	-100	0	230	101300000	1000	0	0	-1	500
17102115	5894	1357	0	-100	0	230	101300000	1000	0	0	-1	500
17114675	5881	1363	0	-100	0	230	101300000	1000	0	0	-1	500
17127235	5876	1366	0	-100	0	230	101300000	1000	0	0	-1	500
17139795	5882	1365	0	-100	0	230	101300000	1000	0	0	-1	500
17152355	5878	1369	0	-100	0	230	101300000	1000	0	0	-1	500
17164915	5876	1363	0	-100	0	230	101300000	1000	0	0	-1	500
17177475	5883	1370	0	-100	0	230	101300000	1000	0	0	-1	500
17215155	5878	1374	0	-100	0	230	101300000	1000	0	0	-1	500
17227715	5886	1366	0	-100	0	230	101300000	1000	0	0	-1	500
17240275	5886	1361	0	-100	0	230	101300000	1000	0	0	-1	500
17252835	5882	1369	0	-100	0	230	101300000	1000	0	0	-1	500
17265395	5885	1367	0	-100	0	230	101300000	1000	0	0	-1	500
17277955	5873	1367	0	-100	0	230	101300000	1000	0	0	-1	500
17290515	5882	1371	0	-100	0	230	101300000	1000	0	0	-1	500
17303075	5888	1361	0	-100	0	230	101300000	1000	0	0	-1	500
17315635	5885	1363	0	-100	0	230	101300000	1000	0	0	-1	500
17328195	5882	1367	0	-100	0	230	101300000	1000	0	0	-1	500
17340755	5878	1364	0	-100	0	230	101300000	1000	0	0	-1	500
17353315	5890	1376	0	-100	0	230	101300000	1000	0	0	-1	500
17365875	5891	1374	0	-100	0	230	101300000	1000	0	0	-1	500
17378435	5872	1375	0	-100	0	230	101300000	1000	0	0	-1	500
17390995	5882	1371	0	-100	0	230	101300000	1000	0	0	-1	500
17403555	5879	1371	0	-100	0	230	101300000	1000	0	0	-1	500
17416115	5886	1378	0	-100	0	230	101300000	1000	0	0	-1	500
17428675	5888	1373	0	-100	0	230	101300000	1000	0	0	-1	500
17441235	5885	1362	0	-100	0	230	101300000	1000	0	0	-1	500
17453795	5886	1367	0	-100	0	230	101300000	1000	0	0	-1	500
17466355	5879	1365	0	-100	0	230	101300000	1000	0	0	-1	500
17478915	5876	1371	0	-100	0	230	101300000	1000	0	0	-1	500
17491475	5886	1373	0	-100	0	230	101300000	1000	0	0	-1	500
17504035	5884	1365	0	-100	0	230	101300000	1000	0	0	-1	500
17541715	5885	1368	0	-100	0	230	101300000	1000	0	0	-1	500
17554275	5882	1365	0	-100	0	230	101300000	1000	0	0	-1	500
17566835	5886	1364	0	-100	0	230	101300000	1000	0	0	-1	500
17579395	5882	1372	0	-100	0	230	101300000	1000	0	0	-1	500
17591955	5883	1375	0	-100	0	230	101300000	1000	0	0	-1	500
17604515	5879	1379	0	-100	0	230	101300000	1000	0	0	-1	500
17617075	5885	1371	0	-100	0	230	101300000	1000	0	0	-1	500
17629635	5878	1375	0	-100	0	230	101300000	1000	0	0	-1	500
17642195	5886	1369	0	-100	0	230	101300000	1000	0	0	-1	500
17654755	5877	1366	0	-100	0	230	101300000	1000	0	0	-1	500
17667315	5883	1371	0	-100	0	230	101300000	1000	0	0	-1	500
17818035	5877	1369	0	-100	0	230	101300000	1000	0	0	-1	500
17830595	5882	1374	0	-100	0	230	101300000	1000	0	0	-1	500
17843155	5890	1370	0	-100	0	230	101300000	1000	0	0	-1	500
17855715	5874	1366	0	-100	0	230	101300000	1000	0	0	-1	500
17868275	5882	1372	0	-100	0	230	101300000	1000	0	0	-1	500
17880835	5881	1373	0	-100	0	230	101300000	1000	0	0	-1	500
17893395	5884	1376	0	-100	0	230	101300000	1000	0	0	-1	500
17905955	5882	1370	0	-100	0	230	101300000	1000	0	0	-1	500
17918515	5885	1359	0	-100	0	230	101300000	1000	0	0	-1	500
17931075	5890	1367	0	-100	0	230	101300000	1000	0	0	-1	500
17943635	5888	1369	0	-100	0	230	101300000	1000	0	0	-1	500
17956195	5877	1369	0	-100	0	230	101300000	1000	0	0	-1	500
17968755	5888	1368	0	-100	0	230	101300000	1000	0	0	-1	500
17981315	5885	1365	0	-100	0	230	101300000	1000	0	0	-1	500
17993875	5889	1373	0	-100	0	230	101300000	1000	0	0	-1	500
18006435	5886	1371	0	-100	0	230	101300000	1000	0	0	-1	500
18018995	5882	1366	0	-100	0	230	101300000	1000	0	0	-1	500
18031555	5879	1377	0	-100	0	230	101300000	1000	0	0	-1	500
18044115	5885	1364	0	-100	0	230	101300000	1000	0	0	-1	500
18056675	5887	1374	0	-100	0	230	101300000	1000	0	0	-1	500
18069235	5878	1371	0	-100	0	230	101300000	1000	0	0	-1	500
18081795	5887	1367	0	-100	0	230	101300000	1000	0	0	-1	500
18094355	5874	1373	0	-100	0	230	101300000	1000	0	0	-1	500
18106915	5877	1369	0	-100	0	230	101300000	1000	0	0	-1	500
18119475	5878	1365	0	-100	0	230	101300000	1000	0	0	-1	500
18132035	5884	1372	0	-100	0	230	101300000	1000	0	0	-1	500
18144595	5882	1374	0	-100	0	230	101300000	1000	0	0	-1	500
18157155	5880	1371	0	-100	0	230	101300000	1000	0	0	-1	500
18169715	5876	1370	0	-100	0	230	101300000	1000	0	0	-1	500
18182275	5879	1374	0	-100	0	230	101300000	1000	0	0	-1	500
18194835	5882	1377	0	-100	0	230	101300000	1000	0	0	-1	500
18207395	5881	1374	0	-100	0	230	101300000	1000	0	0	-1	500
18219955	5881	1365	0	-100	0	230	101300000	1000	0	0	-1	500
18232515	5889	1365	0	-100	0	230	101300000	1000	0	0	-1	500
18245075	5880	1374	0	-100	0	230	101300000	1000	0	0	-1	500
18257635	5874	1377	0	-100	0	230	101300000	1000	0	0	-1	500
18270195	5885	1362	0	-100	0	230	101300000	1000	0	0	-1	500
18282755	5885	1368	0	-100	0	230	101300000	1000	0	0	-1	500
18295315	5892	1371	0	-100	0	230	101300000	1000	0	0	-1	500
18307875	5877	1368	0	-100	0	230	101300000	1000	0	0	-1	500
18320435	5887	1371	0	-100	0	230	101300000	1000	0	0	-1	500
18332995	5881	1369	0	-100	0	230	101300000	1000	0	0	-1	500
18345555	5875	1368	0	-100	0	230	101300000	1000	0	0	-1	500
18358115	5898	1372	0	-100	0	230	101300000	1000	0	0	-1	500
18370675	5876	1364	0	-100	0	230	101300000	1000	0	0	-1	500
18383235	5877	1380	0	-100	0	230	101300000	1000	0	0	-1	500
18395795	5888	1373	0	-100	0	230	101300000	1000	0	0	-1	500
18408355	5876	1370	0	-100	0	230	101300000	1000	0	0	-1	500
18420915	5880	1371	0	-100	0	230	101300000	1000	0	0	-1	500
18433475	5890	1372	0	-100	0	230	101300000	1000	0	0	-1	500
18446035	5881	1372	0	-100	0	230	101300000	1000	0	0	-1	500
18458595	5877	1373	0	-100	0	230	101300000	1000	0	0	-1	500
18471155	5887	1370	0	-100	0	230	101300000	1000	0	0	-1	500
18483715	5882	1375	0	-100	0	230	101300000	1000	0	0	-1	500
18496275	5877	1370	0	-100	0	230	101300000	1000	0	0	-1	500
18508835	5885	1375	0	-100	0	230	101300000	1000	0	0	-1	500
18521395	5885	1369	0	-100	0	230	101300000	1000	0	0	-1	500
18533955	5880	1374	0	-100	0	230	101300000	1000	0	0	-1	500
18546515	5886	1378	0	-100	0	230	101300000	1000	0	0	-1	500
18559075	5888	1369	0	-100	0	230	101300000	1000	0	0	-1	500
18571635	5880	1375	0	-100	0	230	101300000	1000	0	0	-1	500
18584195	5886	1369	0	-100	0	230	101300000	1000	0	0	-1	500
18596755	5881	1365	0	-100	0	230	101300000	1000	0	0	-1	500
18609315	5884	1373	0	-100	0	230	101300000	1000	0	0	-1	500
18621875	5886	1377	0	-100	0	230	101300000	1000	0	0	-1	500
18634435	5880	1375	0	-100	0	230	101300000	1000	0	0	-1	500
18646995	5874	1376	0	-100	0	230	101300000	1000	0	0	-1	500
18659555	5880	1371	0	-100	0	230	101300000	1000	0	0	-1	500
18672115	5892	1378	0	-100	0	230	101300000	1000	0	0	-1	500
18684675	5885	1365	0	-100	0	230	101300000	1000	0	0	-1	500
18697235	5874	1371	0	-100	0	230	101300000	1000	0	0	-1	500
18709795	5880	1368	0	-100	0	230	101300000	1000	0	0	-1	500
18722355	5885	1366	0	-100	0	230	101300000	1000	0	0	-1	500
18734915	5883	1367	0	-100	0	230	101300000	1000	0	0	-1	500
18747475	5877	1371	0	-100	0	230	101300000	1000	0	0	-1	500
18760035	5883	1368	0	-100	0	230	101300000	1000	0	0	-1	500
18772595	5876	1371	0	-100	0	230	101300000	1000	0	0	-1	500
18785155	5871	1372	0	-100	0	230	101300000	1000	0	0	-1	500
18797715	5890	1369	0	-100	0	230	101300000	1000	0	0	-1	500
18810275	5882	1368	0	-100	0	230	101300000	1000	0	0	-1	500
18822835	5890	1371	0	-100	0	230	101300000	1000	0	0	-1	500
18835395	5874	1374	0	-100	0	230	101300000	1000	0	0	-1	500
18847955	5886	1373	0	-100	0	230	101300000	1000	0	0	-1	500
18860515	5886	1367	0	-100	0	230	101300000	1000	0	0	-1	500
18873075	5873	1370	0	-100	0	230	101300000	1000	0	0	-1	500
18885635	5877	1370	0	-100	0	230	101300000	1000	0	0	-1	500
18898195	5887	1371	0	-100	0	230	101300000	1000	0	0	-1	500
18910755	5881	1369	0	-100	0	230	101300000	1000	0	0	-1	500
18923315	5890	1375	0	-100	0	230	101300000	1000	0	0	-1	500
18935875	5883	1373	0	-100	0	230	101300000	1000	0	0	-1	500
18948435	5875	1374	0	-100	0	230	101300000	1000	0	0	-1	500
18960995	5881	1369	0	-100	0	230	101300000	1000	0	0	-1	500
18973555	5884	1364	0	-100	0	230	101300000	1000	0	0	-1	500
18986115	5886	1372	0	-100	0	230	101300000	1000	0	0	-1	500
18998675	5873	1369	0	-100	0	230	101300000	1000	0	0	-1	500
19011235	5881	1370	0	-100	0	230	101300000	1000	0	0	-1	500
19023795	5878	1366	0	-100	0	230	101300000	1000	0	0	-1	500
19036355	5889	1371	0	-100	0	230	101300000	1000	0	0	-1	500
19048915	5883	1369	0	-100	0	230	101300000	1000	0	0	-1	500
19061475	5876	1369	0	-100	0	230	101300000	1000	0	0	-1	500
19074035	5882	1376	0	-100	0	230	101300000	1000	0	0	-1	500
19086595	5880	1375	0	-100	0	230	101300000	1000	0	0	-1	500
19099155	5879	1377	0	-100	0	230	101300000	1000	0	0	-1	500
19111715	5878	1381	0	-100	0	230	101300000	1000	0	0	-1	500
19124275	5878	1365	0	-100	0	230	101300000	1000	0	0	-1	500
19136835	5881	1377	0	-100	0	230	101300000	1000	0	0	-1	500
19149395	5887	1375	0	-100	0	230	101300000	1000	0	0	-1	500
19161955	5879	1374	0	-100	0	230	101300000	1000	0	0	-1	500
19174515	5877	1373	0	-100	0	230	101300000	1000	0	0	-1	500
19187075	5886	1369	0	-100	0	230	101300000	1000	0	0	-1	500
19199635	5882	1377	0	-100	0	230	101300000	1000	0	0	-1	500
19212195	5887	1369	0	-100	0	230	101300000	1000	0	0	-1	500
19224755	5889	1368	0	-100	0	230	101300000	1000	0	0	-1	500
19237315	5897	1362	0	-100	0	230	101300000	1000	0	0	-1	500
19249875	5880	1371	0	-100	0	230	101300000	1000	0	0	-1	500
19262435	5879	1375	0	-100	0	230	101300000	1000	0	0	-1	500
19274995	5874	1372	0	-100	0	230	101300000	1000	0	0	-1	500
19287555	5885	1380	0	-100	0	230	101300000	1000	0	0	-1	500
19300115	5888	1375	0	-100	0	230	101300000	1000	0	0	-1	500
19312675	5872	1375	0	-100	0	230	101300000	1000	0	0	-1	500
19325235	5882	1368	0	-100	0	230	101300000	1000	0	0	-1	500
19337795	5880	1373	0	-100	0	230	101300000	1000	0	0	-1	500
19350355	5879	1374	0	-100	0	230	101300000	1000	0	0	-1	500
19362915	5882	1380	0	-100	0	230	101300000	1000	0	0	-1	500
19375475	5878	1369	0	-100	0	230	101300000	1000	0	0	-1	500
19388035	5889	1372	0	-100	0	230	101300000	1000	0	0	-1	500
19400595	5877	1374	0	-100	0	230	101300000	1000	0	0	-1	500
19413155	5883	1376	0	-100	0	230	101300000	1000	0	0	-1	500
19425715	5886	1375	0	-100	0	230	101300000	1000	0	0	-1	500
19438275	5876	1374	0	-100	0	230	101300000	1000	0	0	-1	500
19450835	5877	1369	0	-100	0	230	101300000	1000	0	0	-1	500
19463395	5888	1367	0	-100	0	230	101300000	1000	0	0	-1	500
19475955	5880	1365	0	-100	0	230	101300000	1000	0	0	-1	500
19488515	5882	1357	0	-100	0	230	101300000	1000	0	0	-1	500
19501075	5882	1371	0	-100	0	230	101300000	1000	0	0	-1	500
19513635	5887	1374	0	-100	0	230	101300000	1000	0	0	-1	500
19526195	5876	1369	0	-100	0	230	101300000	1000	0	0	-1	500
19538755	5884	1373	0	-100	0	230	101300000	1000	0	0	-1	500
19551315	5890	1377	0	-100	0	230	101300000	1000	0	0	-1	500
19563875	5882	1370	0	-100	0	230	101300000	1000	0	0	-1	500
19576435	5877	1373	0	-100	0	230	101300000	1000	0	0	-1	500
19588995	5877	1371	0	-100	0	230	101300000	1000	0	0	-1	500
19601555	5884	1363	0	-100	0	230	101300000	1000	0	0	-1	500
19614115	5888	1376	0	-100	0	230	101300000	1000	0	0	-1	500
19626675	5892	1368	0	-100	0	230	101300000	1000	0	0	-1	500
19639235	5887	1359	0	-100	0	230	101300000	1000	0	0	-1	500
19651795	5885	1367	0	-100	0	230	101300000	1000	0	0	-1	500
19664355	5880	1371	0	-100	0	230	101300000	1000	0	0	-1	500
19676915	5884	1374	0	-100	0	230	101300000	1000	0	0	-1	500
19689475	5890	1370	0	-100	0	230	101300000	1000	0	0	-1	500
19702035	5880	1372	0	-100	0	230	101300000	1000	0	0	-1	500
19714595	5880	1377	0	-100	0	230	101300000	1000	0	0	-1	500
19727155	5884	1361	0	-100	0	230	101300000	1000	0	0	-1	500
19739715	5879	1366	0	-100	0	230	101300000	1000	0	0	-1	500
19752275	5882	1368	0	-100	0	230	101300000	1000	0	0	-1	500
19764835	5886	1369	0	-100	0	230	101300000	1000	0	0	-1	500
19777395	5876	1371	0	-100	0	230	101300000	1000	0	0	-1	500
19789955	5886	1372	0	-100	0	230	101300000	1000	0	0	-1	500
19802515	5879	1365	0	-100	0	230	101300000	1000	0	0	-1	500
19815075	5883	1372	0	-100	0	230	101300000	1000	0	0	-1	500
19827635	5885	1369	0	-100	0	230	101300000	1000	0	0	-1	500
19840195	5877	1373	0	-100	0	230	101300000	1000	0	0	-1	500
19852755	5886	1366	0	-100	0	230	101300000	1000	0	0	-1	500
19865315	5885	1376	0	-100	0	230	101300000	1000	0	0	-1	500
19877875	5876	1377	0	-100	0	230	101300000	1000	0	0	-1	500
19890435	5888	1367	0	-100	0	230	101300000	1000	0	0	-1	500
19902995	5877	1368	0	-100	0	230	101300000	1000	0	0	-1	500
19915555	5882	1370	0	-100	0	230	101300000	1000	0	0	-1	500
19928115	5887	1368	0	-100	0	230	101300000	1000	0	0	-1	500
19940675	5881	1383	0	-100	0	230	101300000	1000	0	0	-1	500
19953235	5888	1372	0	-100	0	230	101300000	1000	0	0	-1	500
19965795	5877	1379	0	-100	0	230	101300000	1000	0	0	-1	500
19978355	5879	1377	0	-100	0	230	101300000	1000	0	0	-1	500
19990915	5885	1367	0	-100	0	230	101300000	1000	0	0	-1	500
20003475	5882	1376	0	-100	0	230	101300000	1000	0	0	-1	500
20016035	5882	1371	0	-100	0	230	101300000	1000	0	0	-1	500
20129075	5879	1377	0	-100	0	230	101300000	1000	0	0	-1	500
20141635	5881	1369	0	-100	0	230	101300000	1000	0	0	-1	500
20154195	5881	1372	0	-100	0	230	101300000	1000	0	0	-1	500
20166755	5886	1359	0	-100	0	230	101300000	1000	0	0	-1	500
20179315	5893	1362	0	-100	0	230	101300000	1000	0	0	-1	500
20191875	5876	1369	0	-100	0	230	101300000	1000	0	0	-1	500
20204435	5878	1370	0	-100	0	230	101300000	1000	0	0	-1	500
20216995	5877	1363	0	-100	0	230	101300000	1000	0	0	-1	500
20229555	5881	1375	0	-100	0	230	101300000	1000	0	0	-1	500
20242115	5891	1365	0	-100	0	230	101300000	1000	0	0	-1	500
20254675	5880	1369	0	-100	0	230	101300000	1000	0	0	-1	500
20267235	5877	1376	0	-100	0	230	101300000	1000	0	0	-1	500
20317475	5881	1361	0	-100	0	230	101300000	1000	0	0	-1	500
20330035	5884	1360	0	-100	0	230	101300000	1000	0	0	-1	500
20342595	5874	1377	0	-100	0	230	101300000	1000	0	0	-1	500
20355155	5889	1377	0	-100	0	230	101300000	1000	0	0	-1	500
20367715	5877	1368	0	-100	0	230	101300000	1000	0	0	-1	500
20380275	5882	1373	0	-100	0	230	101300000	1000	0	0	-1	500
20392835	5874	1372	0	-100	0	230	101300000	1000	0	0	-1	500
20405395	5876	1366	0	-100	0	230	101300000	1000	0	0	-1	500
20417955	5882	1370	0	-100	0	230	101300000	1000	0	0	-1	500
20430515	5885	1374	0	-100	0	230	101300000	1000	0	0	-1	500
20443075	5887	1371	0	-100	0	230	101300000	1000	0	0	-1	500
20455635	5879	1372	0	-100	0	230	101300000	1000	0	0	-1	500
20530995	5886	1370	0	-100	0	230	101300000	1000	0	0	-1	500
20543555	5880	1367	0	-100	0	230	101300000	1000	0	0	-1	500
20556115	5887	1380	0	-100	0	230	101300000	1000	0	0	-1	500
20568675	5877	1369	0	-100	0	230	101300000	1000	0	0	-1	500
20581235	5885	1370	0	-100	0	230	101300000	1000	0	0	-1	500
20593795	5880	1375	0	-100	0	230	101300000	1000	0	0	-1	500
20606355	5875	1365	0	-100	0	230	101300000	1000	0	0	-1	500
20618915	5885	1372	0	-100	0	230	101300000	1000	0	0	-1	500
20631475	5884	1370	0	-100	0	230	101300000	1000	0	0	-1	500
20644035	5882	1370	0	-100	0	230	101300000	1000	0	0	-1	500
20656595	5879	1377	0	-100	0	230	101300000	1000	0	0	-1	500
20669155	5883	1370	0	-100	0	230	101300000	1000	0	0	-1	500
20681715	5885	1371	0	-100	0	230	101300000	1000	0	0	-1	500
20694275	5882	1369	0	-100	0	230	101300000	1000	0	0	-1	500
20706835	5886	1376	0	-100	0	230	101300000	1000	0	0	-1	500
20719395	5883	1371	0	-100	0	230	101300000	1000	0	0	-1	500
20731955	5879	1373	0	-100	0	230	101300000	1000	0	0	-1	500
20744515	5883	1369	0	-100	0	230	101300000	1000	0	0	-1	500
20757075	5881	1370	0	-100	0	230	101300000	1000	0	0	-1	500
20769635	5885	1371	0	-100	0	230	101300000	1000	0	0	-1	500
20782195	5876	1371	0	-100	0	230	101300000	1000	0	0	-1	500
20794755	5874	1376	0	-100	0	230	101300000	1000	0	0	-1	500
20807315	5889	1374	0	-100	0	230	101300000	1000	0	0	-1	500
20819875	5882	1375	0	-100	0	230	101300000	1000	0	0	-1	500
20832435	5887	1371	0	-100	0	230	101300000	1000	0	0	-1	500
20844995	5875	1371	0	-100	0	230	101300000	1000	0	0	-1	500
20857555	5875	1380	0	-100	0	230	101300000	1000	0	0	-1	500
20870115	5896	1378	0	-100	0	230	101300000	1000	0	0	-1	500
20882675	5883	1371	0	-100	0	230	101300000	1000	0	0	-1	500
20895235	5874	1373	0	-100	0	230	101300000	1000	0	0	-1	500
20907795	5880	1367	0	-100	0	230	101300000	1000	0	0	-1	500
20920355	5877	1372	0	-100	0	230	101300000	1000	0	0	-1	500
20932915	5886	1377	0	-100	0	230	101300000	1000	0	0	-1	500
20945475	5887	1378	0	-100	0	230	101300000	1000	0	0	-1	500
20958035	5883	1378	0	-100	0	230	101300000	1000	0	0	-1	500
20970595	5878	1373	0	-100	0	230	101300000	1000	0	0	-1	500
20983155	5882	1374	0	-100	0	230	101300000	1000	0	0	-1	500
20995715	5880	1371	0	-100	0	230	101300000	1000	0	0	-1	500
21008275	5880	1366	0	-100	0	230	101300000	1000	0	0	-1	500
21020835	5880	1371	0	-100	0	230	101300000	1000	0	0	-1	500
21033395	5882	1375	0	-100	0	230	101300000	1000	0	0	-1	500
21045955	5884	1372	0	-100	0	230	101300000	1000	0	0	-1	500
21058515	5881	1365	0	-100	0	230	101300000	1000	0	0	-1	500
21071075	5882	1369	0	-100	0	230	101300000	1000	0	0	-1	500
21083635	5873	1372	0	-100	0	230	101300000	1000	0	0	-1	500
21096195	5878	1370	0	-100	0	230	101300000	1000	0	0	-1	500
21108755	5882	1373	0	-100	0	230	101300000	1000	0	0	-1	500
21121315	5886	1373	0	-100	0	230	101300000	1000	0	0	-1	500
21133875	5891	1374	0	-100	0	230	101300000	1000	0	0	-1	500
21146435	5880	1369	0	-100	0	230	101300000	1000	0	0	-1	500
21158995	5879	1373	0	-100	0	230	101300000	1000	0	0	-1	500
21171555	5877	1368	0	-100	0	230	101300000	1000	0	0	-1	500
21184115	5889	1368	0	-100	0	230	101300000	1000	0	0	-1	500
21196675	5888	1375	0	-100	0	230	101300000	1000	0	0	-1	500
21209235	5882	1373	0	-100	0	230	101300000	1000	0	0	-1	500
21221795	5886	1371	0	-100	0	230	101300000	1000	0	0	-1	500
21234355	5882	1375	0	-100	0	230	101300000	1000	0	0	-1	500
21246915	5882	1376	0	-100	0	230	101300000	1000	0	0	-1	500
21259475	5884	1372	0	-100	0	230	101300000	1000	0	0	-1	500
21272035	5876	1374	0	-100	0	230	101300000	1000	0	0	-1	500
21284595	5886	1367	0	-100	0	230	101300000	1000	0	0	-1	500
21297155	5879	1374	0	-100	0	230	101300000	1000	0	0	-1	500
21309715	5890	1371	0	-100	0	230	101300000	1000	0	0	-1	500
21322275	5882	1382	0	-100	0	230	101300000	1000	0	0	-1	500
21334835	5879	1370	0	-100	0	230	101300000	1000	0	0	-1	500
21347395	5882	1379	0	-100	0	230	101300000	1000	0	0	-1	500
21359955	5890	1371	0	-100	0	230	101300000	1000	0	0	-1	500
21372515	5870	1370	0	-100	0	230	101300000	1000	0	0	-1	500
21385075	5878	1378	0	-100	0	230	101300000	1000	0	0	-1	500
21397635	5884	1373	0	-100	0	230	101300000	1000	0	0	-1	500
21410195	5876	1369	0	-100	0	230	101300000	1000	0	0	-1	500
21422755	5881	1373	0	-100	0	230	101300000	1000	0	0	-1	500
21435315	5888	1383	0	-100	0	230	101300000	1000	0	0	-1	500
21447875	5887	1371	0	-100	0	230	101300000	1000	0	0	-1	500
21460435	5878	1372	0	-100	0	230	101300000	1000	0	0	-1	500
21472995	5878	1373	0	-100	0	230	101300000	1000	0	0	-1	500
21485555	5886	1370	0	-100	0	230	101300000	1000	0	0	-1	500
21498115	5882	1372	0	-100	0	230	101300000	1000	0	0	-1	500
21510675	5874	1368	0	-100	0	230	101300000	1000	0	0	-1	500
21523235	5886	1369	0	-100	0	230	101300000	1000	0	0	-1	500
21535795	5876	1376	0	-100	0	230	101300000	1000	0	0	-1	500
21548355	5877	1373	0	-100	0	230	101300000	1000	0	0	-1	500
21560915	5887	1379	0	-100	0	230	101300000	1000	0	0	-1	500
21573475	5883	1373	0	-100	0	230	101300000	1000	0	0	-1	500
21586035	5880	1375	0	-100	0	230	101300000	1000	0	0	-1	500
21598595	5883	1369	0	-100	0	230	101300000	1000	0	0	-1	500
21611155	5878	1369	0	-100	0	230	101300000	1000	0	0	-1	500
21623715	5880	1372	0	-100	0	230	101300000	1000	0	0	-1	500
21636275	5890	1373	0	-100	0	230	101300000	1000	0	0	-1	500
21648835	5880	1375	0	-100	0	230	101300000	1000	0	0	-1	500
21661395	5874	1375	0	-100	0	230	101300000	1000	0	0	-1	500
21673955	5883	1373	0	-100	0	230	101300000	1000	0	0	-1	500
21686515	5884	1372	0	-100	0	230	101300000	1000	0	0	-1	500
21699075	5885	1375	0	-100	0	230	101300000	1000	0	0	-1	500
21711635	5878	1367	0	-100	0	230	101300000	1000	0	0	-1	500
21724195	5894	1374	0	-100	0	230	101300000	1000	0	0	-1	500
21736755	5877	1372	0	-100	0	230	101300000	1000	0	0	-1	500
21749315	5891	1371	0	-100	0	230	101300000	1000	0	0	-1	500
21761875	5878	1370	0	-100	0	230	101300000	1000	0	0	-1	500
21774435	5886	1375	0	-100	0	230	101300000	1000	0	0	-1	500
21786995	5881	1370	0	-100	0	230	101300000	1000	0	0	-1	500
21799555	5877	1381	0	-100	0	230	101300000	1000	0	0	-1	500
21812115	5889	1370	0	-100	0	230	101300000	1000	0	0	-1	500
21824675	5883	1375	0	-100	0	230	101300000	1000	0	0	-1	500
21837235	5884	1369	0	-100	0	230	101300000	1000	0	0	-1	500
21849795	5887	1371	0	-100	0	230	101300000	1000	0	0	-1	500
21862355	5882	1380	0	-100	0	230	101300000	1000	0	0	-1	500
21874915	5886	1374	0	-100	0	230	101300000	1000	0	0	-1	500
21887475	5874	1378	0	-100	0	230	101300000	1000	0	0	-1	500
21900035	5886	1373	0	-100	0	230	101300000	1000	0	0	-1	500
21912595	5885	1369	0	-100	0	230	101300000	1000	0	0	-1	500
21925155	5876	1378	0	-100	0	230	101300000	1000	0	0	-1	500
21937715	5882	1363	0	-100	0	230	101300000	1000	0	0	-1	500
21950275	5871	1368	0	-100	0	230	101300000	1000	0	0	-1	500
21962835	5881	1377	0	-100	0	230	101300000	1000	0	0	-1	500
21975395	5882	1375	0	-100	0	230	101300000	1000	0	0	-1	500
21987955	5884	1373	0	-100	0	230	101300000	1000	0	0	-1	500
22000515	5890	1375	0	-100	0	230	101300000	1000	0	0	-1	500
22013075	5879	1376	0	-100	0	230	101300000	1000	0	0	-1	500
22025635	5873	1373	0	-100	0	230	101300000	1000	0	0	-1	500
22038195	5877	1370	0	-100	0	230	101300000	1000	0	0	-1	500
22050755	5882	1373	0	-100	0	230	101300000	1000	0	0	-1	500
22063315	5888	1373	0	-100	0	230	101300000	1000	0	0	-1	500
22075875	5873	1377	0	-100	0	230	101300000	1000	0	0	-1	500
22088435	5878	1370	0	-100	0	230	101300000	1000	0	0	-1	500
22100995	5883	1370	0	-100	0	230	101300000	1000	0	0	-1	500
22113555	5878	1373	0	-100	0	230	101300000	1000	0	0	-1	500
22126115	5887	1371	0	-100	0	230	101300000	1000	0	0	-1	500
22138675	5888	1378	0	-100	0	230	101300000	1000	0	0	-1	500
22151235	5881	1375	0	-100	0	230	101300000	1000	0	0	-1	500
22163795	5882	1373	0	-100	0	230	101300000	1000	0	0	-1	500
22176355	5877	1375	0	-100	0	230	101300000	1000	0	0	-1	500
22188915	5885	1378	0	-100	0	230	101300000	1000	0	0	-1	500
22201475	5878	1373	0	-100	0	230	101300000	1000	0	0	-1	500
22214035	5885	1371	0	-100	0	230	101300000	1000	0	0	-1	500
22226595	5880	1378	0	-100	0	230	101300000	1000	0	0	-1	500
22239155	5881	1377	0	-100	0	230	101300000	1000	0	0	-1	500
22251715	5873	1372	0	-100	0	230	101300000	1000	0	0	-1	500
22264275	5880	1368	0	-100	0	230	101300000	1000	0	0	-1	500
22276835	5884	1373	0	-100	0	230	101300000	1000	0	0	-1	500
22289395	5884	1364	0	-100	0	230	101300000	1000	0	0	-1	500
22301955	5877	1373	0	-100	0	230	101300000	1000	0	0	-1	500
22314515	5884	1374	0	-100	0	230	101300000	1000	0	0	-1	500
22327075	5878	1368	0	-100	0	230	101300000	1000	0	0	-1	500
22339635	5882	1379	0	-100	0	230	101300000	1000	0	0	-1	500
22352195	5890	1374	0	-100	0	230	101300000	1000	0	0	-1	500
22364755	5882	1375	0	-100	0	230	101300000	1000	0	0	-1	500
22377315	5890	1381	0	-100	0	230	101300000	1000	0	0	-1	500
22389875	5886	1369	0	-100	0	230	101300000	1000	0	0	-1	500
22402435	5877	1375	0	-100	0	230	101300000	1000	0	0	-1	500
22414995	5882	1375	0	-100	0	230	101300000	1000	0	0	-1	500
22427555	5884	1367	0	-100	0	230	101300000	1000	0	0	-1	500
22440115	5890	1374	0	-100	0	230	101300000	1000	0	0	-1	500
22452675	5882	1374	0	-100	0	230	101300000	1000	0	0	-1	500
22465235	5880	1372	0	-100	0	230	101300000	1000	0	0	-1	500
22477795	5878	1368	0	-100	0	230	101300000	1000	0	0	-1	500
22490355	5877	1373	0	-100	0	230	101300000	1000	0	0	-1	500
22502915	5884	1368	0	-100	0	230	101300000	1000	0	0	-1	500
22515475	5885	1369	0	-100	0	230	101300000	1000	0	0	-1	500
22528035	5877	1372	0	-100	0	230	101300000	1000	0	0	-1	500
22540595	5886	1381	0	-100	0	230	101300000	1000	0	0	-1	500
22553155	5875	1372	0	-100	0	230	101300000	1000	0	0	-1	500
22565715	5876	1374	0	-100	0	230	101300000	1000	0	0	-1	500
22578275	5888	1365	0	-100	0	230	101300000	1000	0	0	-1	500
22590835	5881	1375	0	-100	0	230	101300000	1000	0	0	-1	500
22603395	5884	1379	0	-100	0	230	101300000	1000	0	0	-1	500
22615955	5880	1374	0	-100	0	230	101300000	1000	0	0	-1	500
22628515	5877	1378	0	-100	0	230	101300000	1000	0	0	-1	500
22641075	5889	1373	0	-100	0	230	101300000	1000	0	0	-1	500
22653635	5878	1371	0	-100	0	230	101300000	1000	0	0	-1	500
22666195	5879	1371	0	-100	0	230	101300000	1000	0	0	-1	500
22678755	5879	1370	0	-100	0	230	101300000	1000	0	0	-1	500
22691315	5885	1368	0	-100	0	230	101300000	1000	0	0	-1	500
22703875	5885	1373	0	-100	0	230	101300000	1000	0	0	-1	500
22716435	5882	1373	0	-100	0	230	101300000	1000	0	0	-1	500
22728995	5877	1366	0	-100	0	230	101300000	1000	0	0	-1	500
22741555	5882	1373	0	-100	0	230	101300000	1000	0	0	-1	500
22754115	5886	1371	0	-100	0	230	101300000	1000	0	0	-1	500
22766675	5876	1381	0	-100	0	230	101300000	1000	0	0	-1	500
22779235	5881	1365	0	-100	0	230	101300000	1000	0	0	-1	500
22791795	5880	1376	0	-100	0	230	101300000	1000	0	0	-1	500
22804355	5891	1373	0	-100	0	230	101300000	1000	0	0	-1	500
22816915	5873	1375	0	-100	0	230	101300000	1000	0	0	-1	500
22829475	5880	1374	0	-100	0	230	101300000	1000	0	0	-1	500
22842035	5877	1370	0	-100	0	230	101300000	1000	0	0	-1	500
22854595	5879	1373	0	-100	0	230	101300000	1000	0	0	-1	500
22867155	5878	1374	0	-100	0	230	101300000	1000	0	0	-1	500
22879715	5877	1378	0	-100	0	230	101300000	1000	0	0	-1	500
22892275	5882	1372	0	-100	0	230	101300000	1000	0	0	-1	500
22904835	5882	1373	0	-100	0	230	101300000	1000	0	0	-1	500
22917395	5887	1371	0	-100	0	230	101300000	1000	0	0	-1	500
22929955	5878	1378	0	-100	0	230	101300000	1000	0	0	-1	500
22942515	5878	1371	0	-100	0	230	101300000	1000	0	0	-1	500
22955075	5873	1371	0	-100	0	230	101300000	1000	0	0	-1	500
22967635	5881	1376	0	-100	0	230	101300000	1000	0	0	-1	500
22980195	5879	1373	0	-100	0	230	101300000	1000	0	0	-1	500
22992755	5887	1363	0	-100	0	230	101300000	1000	0	0	-1	500
23005315	5886	1377	0	-100	0	230	101300000	1000	0	0	-1	500
23017875	5881	1365	0	-100	0	230	101300000	1000	0	0	-1	500
23030435	5878	1374	0	-100	0	230	101300000	1000	0	0	-1	500
23042995	5887	1381	0	-100	0	230	101300000	1000	0	0	-1	500
23055555	5883	1377	0	-100	0	230	101300000	1000	0	0	-1	500
23068115	5890	1375	0	-100	0	230	101300000	1000	0	0	-1	500
23080675	5880	1377	0	-100	0	230	101300000	1000	0	0	-1	500
23093235	5885	1377	0	-100	0	230	101300000	1000	0	0	-1	500
23105795	5882	1374	0	-100	0	230	101300000	1000	0	0	-1	500
23118355	5874	1375	0	-100	0	230	101300000	1000	0	0	-1	500
23130915	5888	1369	0	-100	0	230	101300000	1000	0	0	-1	500
23143475	5880	1376	0	-100	0	230	101300000	1000	0	0	-1	500
23156035	5877	1376	0	-100	0	230	101300000	1000	0	0	-1	500
23168595	5878	1367	0	-100	0	230	101300000	1000	0	0	-1	500
23181155	5878	1370	0	-100	0	230	101300000	1000	0	0	-1	500
23193715	5878	1373	0	-100	0	230	101300000	1000	0	0	-1	500
23206275	5882	1370	0	-100	0	230	101300000	1000	0	0	-1	500
23218835	5869	1374	0	-100	0	230	101300000	1000	0	0	-1	500
23231395	5883	1376	0	-100	0	230	101300000	1000	0	0	-1	500
23243955	5884	1373	0	-100	0	230	101300000	1000	0	0	-1	500
23256515	5882	1372	0	-100	0	230	101300000	1000	0	0	-1	500
23269075	5877	1369	0	-100	0	230	101300000	1000	0	0	-1	500
23281635	5876	1378	0	-100	0	230	101300000	1000	0	0	-1	500
23294195	5888	1366	0	-100	0	230	101300000	1000	0	0	-1	500
23306755	5878	1374	0	-100	0	230	101300000	1000	0	0	-1	500
23319315	5885	1367	0	-100	0	230	101300000	1000	0	0	-1	500
23331875	5880	1371	0	-100	0	230	101300000	1000	0	0	-1	500
23344435	5880	1374	0	-100	0	230	101300000	1000	0	0	-1	500
23356995	5880	1371	0	-100	0	230	101300000	1000	0	0	-1	500
23419795	5883	1378	0	-100	0	230	101300000	1000	0	0	-1	500
23432355	5882	1370	0	-100	0	230	101300000	1000	0	0	-1	500
23444915	5879	1372	0	-100	0	230	101300000	1000	0	0	-1	500
23457475	5873	1370	0	-100	0	230	101300000	1000	0	0	-1	500
23470035	5887	1371	0	-100	0	230	101300000	1000	0	0	-1	500
23482595	5882	1375	0	-100	0	230	101300000	1000	0	0	-1	500
23495155	5883	1369	0	-100	0	230	101300000	1000	0	0	-1	500
23507715	5882	1366	0	-100	0	230	101300000	1000	0	0	-1	500
23520275	5876	1372	0	-100	0	230	101300000	1000	0	0	-1	500
23532835	5886	1373	0	-100	0	230	101300000	1000	0	0	-1	500
23545395	5880	1375	0	-100	0	230	101300000	1000	0	0	-1	500
23608195	5881	1365	0	-100	0	230	101300000	1000	0	0	-1	500
23620755	5882	1372	0	-100	0	230	101300000	1000	0	0	-1	500
23633315	5889	1372	0	-100	0	230	101300000	1000	0	0	-1	500
23645875	5882	1361	0	-100	0	230	101300000	1000	0	0	-1	500
23658435	5875	1369	0	-100	0	230	101300000	1000	0	0	-1	500
23670995	5878	1373	0	-100	0	230	101300000	1000	0	0	-1	500
23683555	5886	1369	0	-100	0	230	101300000	1000	0	0	-1	500
23696115	5889	1371	0	-100	0	230	101300000	1000	0	0	-1	500
23708675	5886	1361	0	-100	0	230	101300000	1000	0	0	-1	500
23721235	5876	1373	0	-100	0	230	101300000	1000	0	0	-1	500
23733795	5879	1368	0	-100	0	230	101300000	1000	0	0	-1	500
23746355	5870	1369	0	-100	0	230	101300000	1000	0	0	-1	500
23758915	5879	1366	0	-100	0	230	101300000	1000	0	0	-1	500
23771475	5878	1367	0	-100	0	230	101300000	1000	0	0	-1	500
23784035	5887	1364	0	-100	0	230	101300000	1000	0	0	-1	500
23796595	5880	1375	0	-100	0	230	101300000	1000	0	0	-1	500
23809155	5882	1372	0	-100	0	230	101300000	1000	0	0	-1	500
23821715	5880	1371	0	-100	0	230	101300000	1000	0	0	-1	500
23834275	5873	1377	0	-100	0	230	101300000	1000	0	0	-1	500
23846835	5883	1372	0	-100	0	230	101300000	1000	0	0	-1	500
23859395	5879	1369	0	-100	0	230	101300000	1000	0	0	-1	500
23871955	5882	1367	0	-100	0	230	101300000	1000	0	0	-1	500
23884515	5887	1371	0	-100	0	230	101300000	1000	0	0	-1	500
23897075	5878	1374	0	-100	0	230	101300000	1000	0	0	-1	500
23909635	5877	1376	0	-100	0	230	101300000	1000	0	0	-1	500
23922195	5887	1373	0	-100	0	230	101300000	1000	0	0	-1	500
23934755	5885	1369	0	-100	0	230	101300000	1000	0	0	-1	500
23947315	5889	1363	0	-100	0	230	101300000	1000	0	0	-1	500
23959875	5880	1375	0	-100	0	230	101300000	1000	0	0	-1	500
23972435	5887	1371	0	-100	0	230	101300000	1000	0	0	-1	500
23984995	5876	1369	0	-100	0	230	101300000	1000	0	0	-1	500
23997555	5876	1373	0	-100	0	230	101300000	1000	0	0	-1	500
24010115	5898	1365	0	-100	0	230	101300000	1000	0	0	-1	500
24022675	5882	1372	0	-100	0	230	101300000	1000	0	0	-1	500
24035235	5880	1369	0	-100	0	230	101300000	1000	0	0	-1	500
24047795	5880	1368	0	-100	0	230	101300000	1000	0	0	-1	500
24060355	5882	1367	0	-100	0	230	101300000	1000	0	0	-1	500
24072915	5881	1371	0	-100	0	230	101300000	1000	0	0	-1	500
24085475	5883	1375	0	-100	0	230	101300000	1000	0	0	-1	500
24098035	5882	1366	0	-100	0	230	101300000	1000	0	0	-1	500
24110595	5877	1370	0	-100	0	230	101300000	1000	0	0	-1	500
24123155	5879	1377	0	-100	0	230	101300000	1000	0	0	-1	500
24135715	5883	1367	0	-100	0	230	101300000	1000	0	0	-1	500
24148275	5877	1370	0	-100	0	230	101300000	1000	0	0	-1	500
24160835	5879	1371	0	-100	0	230	101300000	1000	0	0	-1	500
24173395	5884	1368	0	-100	0	230	101300000	1000	0	0	-1	500
24185955	5890	1369	0	-100	0	230	101300000	1000	0	0	-1	500
24198515	5874	1365	0	-100	0	230	101300000	1000	0	0	-1	500
24211075	5885	1371	0	-100	0	230	101300000	1000	0	0	-1	500
24223635	5880	1373	0	-100	0	230	101300000	1000	0	0	-1	500
24236195	5885	1375	0	-100	0	230	101300000	1000	0	0	-1	500
24248755	5882	1373	0	-100	0	230	101300000	1000	0	0	-1	500
24261315	5886	1374	0	-100	0	230	101300000	1000	0	0	-1	500
24273875	5885	1374	0	-100	0	230	101300000	1000	0	0	-1	500
24286435	5881	1375	0	-100	0	230	101300000	1000	0	0	-1	500
24298995	5884	1373	0	-100	0	230	101300000	1000	0	0	-1	500
24311555	5872	1377	0	-100	0	230	101300000	1000	0	0	-1	500
24324115	5886	1371	0	-100	0	230	101300000	1000	0	0	-1	500
24336675	5880	1371	0	-100	0	230	101300000	1000	0	0	-1	500
24349235	5874	1372	0	-100	0	230	101300000	1000	0	0	-1	500
24361795	5884	1370	0	-100	0	230	101300000	1000	0	0	-1	500
24374355	5878	1365	0	-100	0	230	101300000	1000	0	0	-1	500
24386915	5876	1369	0	-100	0	230	101300000	1000	0	0	-1	500
24399475	5886	1373	0	-100	0	230	101300000	1000	0	0	-1	500
24412035	5882	1364	0	-100	0	230	101300000	1000	0	0	-1	500
24424595	5882	1365	0	-100	0	230	101300000	1000	0	0	-1	500
24437155	5882	1371	0	-100	0	230	101300000	1000	0	0	-1	500
24449715	5878	1367	0	-100	0	230	101300000	1000	0	0	-1	500
24462275	5884	1372	0	-100	0	230	101300000	1000	0	0	-1	500
24474835	5886	1371	0	-100	0	230	101300000	1000	0	0	-1	500
24487395	5883	1369	0	-100	0	230	101300000	1000	0	0	-1	500
24499955	5879	1367	0	-100	0	230	101300000	1000	0	0	-1	500
24512515	5886	1373	0	-100	0	230	101300000	1000	0	0	-1	500
24525075	5875	1370	0	-100	0	230	101300000	1000	0	0	-1	500
24537635	5879	1368	0	-100	0	230	101300000	1000	0	0	-1	500
24550195	5889	1372	0	-100	0	230	101300000	1000	0	0	-1	500
24562755	5884	1374	0	-100	0	230	101300000	1000	0	0	-1	500
24575315	5890	1366	0	-100	0	230	101300000	1000	0	0	-1	500
24587875	5878	1366	0	-100	0	230	101300000	1000	0	0	-1	500
24600435	5890	1374	0	-100	0	230	101300000	1000	0	0	-1	500
24612995	5877	1367	0	-100	0	230	101300000	1000	0	0	-1	500
24625555	5879	1369	0	-100	0	230	101300000	1000	0	0	-1	500
24638115	5882	1362	0	-100	0	230	101300000	1000	0	0	-1	500
24650675	5882	1374	0	-100	0	230	101300000	1000	0	0	-1	500
24663235	5889	1371	0	-100	0	230	101300000	1000	0	0	-1	500
24675795	5882	1376	0	-100	0	230	101300000	1000	0	0	-1	500
24688355	5882	1370	0	-100	0	230	101300000	1000	0	0	-1	500
24700915	5879	1370	0	-100	0	230	101300000	1000	0	0	-1	500
24713475	5880	1375	0	-100	0	230	101300000	1000	0	0	-1	500
24726035	5877	1369	0	-100	0	230	101300000	1000	0	0	-1	500
24738595	5880	1374	0	-100	0	230	101300000	1000	0	0	-1	500
24751155	5882	1371	0	-100	0	230	101300000	1000	0	0	-1	500
24763715	5883	1376	0	-100	0	230	101300000	1000	0	0	-1	500
24776275	5880	1371	0	-100	0	230	101300000	1000	0	0	-1	500
24788835	5883	1373	0	-100	0	230	101300000	1000	0	0	-1	500
24801395	5875	1368	0	-100	0	230	101300000	1000	0	0	-1	500
24813955	5884	1372	0	-100	0	230	101300000	1000	0	0	-1	500
24826515	5875	1365	0	-100	0	230	101300000	1000	0	0	-1	500
24839075	5885	1363	0	-100	0	230	101300000	1000	0	0	-1	500
24851635	5878	1369	0	-100	0	230	101300000	1000	0	0	-1	500
24864195	5885	1372	0	-100	0	230	101300000	1000	0	0	-1	500
24876755	5879	1369	0	-100	0	230	101300000	1000	0	0	-1	500
24889315	5894	1373	0	-100	0	230	101300000	1000	0	0	-1	500
24901875	5881	1373	0	-100	0	230	101300000	1000	0	0	-1	500
24914435	5882	1373	0	-100	0	230	101300000	1000	0	0	-1	500
24926995	5881	1373	0	-100	0	230	101300000	1000	0	0	-1	500
24939555	5883	1365	0	-100	0	230	101300000	1000	0	0	-1	500
24952115	5882	1370	0	-100	0	230	101300000	1000	0	0	-1	500
24964675	5875	1365	0	-100	0	230	101300000	1000	0	0	-1	500
24977235	5877	1367	0	-100	0	230	101300000	1000	0	0	-1	500
24989795	5887	1379	0	-100	0	230	101300000	1000	0	0	-1	500
25002355	5877	1372	0	-100	0	230	101300000	1000	0	0	-1	500
25014915	5883	1368	0	-100	0	230	101300000	1000	0	0	-1	500
25027475	5879	1375	0	-100	0	230	101300000	1000	0	0	-1	500
25040035	5882	1366	0	-100	0	230	101300000	1000	0	0	-1	500
25052595	5878	1377	0	-100	0	230	101300000	1000	0	0	-1	500
25065155	5885	1369	0	-100	0	230	101300000	1000	0	0	-1	500
25077715	5873	1371	0	-100	0	230	101300000	1000	0	0	-1	500
25090275	5885	1367	0	-100	0	230	101300000	1000	0	0	-1	500
25102835	5883	1370	0	-100	0	230	101300000	1000	0	0	-1	500
25115395	5876	1367	0	-100	0	230	101300000	1000	0	0	-1	500
25127955	5882	1370	0	-100	0	230	101300000	1000	0	0	-1	500
25140515	5883	1363	0	-100	0	230	101300000	1000	0	0	-1	500
25153075	5878	1370	0	-100	0	230	101300000	1000	0	0	-1	500
25165635	5894	1369	0	-100	0	230	101300000	1000	0	0	-1	500
25178195	5881	1364	0	-100	0	230	101300000	1000	0	0	-1	500
25190755	5879	1362	0	-100	0	230	101300000	1000	0	0	-1	500
25203315	5887	1371	0	-100	0	230	101300000	1000	0	0	-1	500
25215875	5886	1366	0	-100	0	230	101300000	1000	0	0	-1	500
25228435	5878	1371	0	-100	0	230	101300000	1000	0	0	-1	500
25240995	5885	1372	0	-100	0	230	101300000	1000	0	0	-1	500
25253555	5878	1369	0	-100	0	230	101300000	1000	0	0	-1	500
25266115	5884	1373	0	-100	0	230	101300000	1000	0	0	-1	500
25278675	5883	1373	0	-100	0	230	101300000	1000	0	0	-1	500
25291235	5884	1367	0	-100	0	230	101300000	1000	0	0	-1	500
25303795	5879	1367	0	-100	0	230	101300000	1000	0	0	-1	500
25316355	5878	1369	0	-100	0	230	101300000	1000	0	0	-1	500
25328915	5880	1371	0	-100	0	230	101300000	1000	0	0	-1	500
25341475	5883	1375	0	-100	0	230	101300000	1000	0	0	-1	500
25354035	5886	1372	0	-100	0	230	101300000	1000	0	0	-1	500
25366595	5870	1365	0	-100	0	230	101300000	1000	0	0	-1	500
25379155	5875	1370	0	-100	0	230	101300000	1000	0	0	-1	500
25391715	5886	1366	0	-100	0	230	101300000	1000	0	0	-1	500
25404275	5882	1372	0	-100	0	230	101300000	1000	0	0	-1	500
25416835	5883	1373	0	-100	0	230	101300000	1000	0	0	-1	500
25429395	5886	1369	0	-100	0	230	101300000	1000	0	0	-1	500
25441955	5882	1366	0	-100	0	230	101300000	1000	0	0	-1	500
25454515	5874	1369	0	-100	0	230	101300000	1000	0	0	-1	500
25467075	5881	1369	0	-100	0	230	101300000	1000	0	0	-1	500
25479635	5882	1378	0	-100	0	230	101300000	1000	0	0	-1	500
25492195	5890	1362	0	-100	0	230	101300000	1000	0	0	-1	500
25504755	5878	1370	0	-100	0	230	101300000	1000	0	0	-1	500
25517315	5881	1369	0	-100	0	230	101300000	1000	0	0	-1	500
25529875	5884	1378	0	-100	0	230	101300000	1000	0	0	-1	500
25542435	5880	1375	0	-100	0	230	101300000	1000	0	0	-1	500
25554995	5882	1369	0	-100	0	230	101300000	1000	0	0	-1	500
25567555	5885	1371	0	-100	0	230	101300000	1000	0	0	-1	500
25580115	5891	1367	0	-100	0	230	101300000	1000	0	0	-1	500
25592675	5878	1372	0	-100	0	230	101300000	1000	0	0	-1	500
25605235	5882	1367	0	-100	0	230	101300000	1000	0	0	-1	500
25617795	5880	1376	0	-100	0	230	101300000	1000	0	0	-1	500
25630355	5880	1367	0	-100	0	230	101300000	1000	0	0	-1	500
25642915	5882	1369	0	-100	0	230	101300000	1000	0	0	-1	500
25655475	5876	1369	0	-100	0	230	101300000	1000	0	0	-1	500
25668035	5874	1371	0	-100	0	230	101300000	1000	0	0	-1	500
25680595	5884	1373	0	-100	0	230	101300000	1000	0	0	-1	500
25693155	5888	1366	0	-100	0	230	101300000	1000	0	0	-1	500
25705715	5881	1374	0	-100	0	230	101300000	1000	0	0	-1	500
25718275	5876	1363	0	-100	0	230	101300000	1000	0	0	-1	500
25730835	5880	1376	0	-100	0	230	101300000	1000	0	0	-1	500
25743395	5885	1371	0	-100	0	230	101300000	1000	0	0	-1	500
25755955	5886	1367	0	-100	0	230	101300000	1000	0	0	-1	500
25768515	5879	1369	0	-100	0	230	101300000	1000	0	0	-1	500
25781075	5879	1371	0	-100	0	230	101300000	1000	0	0	-1	500
25793635	5880	1364	0	-100	0	230	101300000	1000	0	0	-1	500
25806195	5886	1360	0	-100	0	230	101300000	1000	0	0	-1	500
25818755	5878	1369	0	-100	0	230	101300000	1000	0	0	-1	500
25831315	5894	1368	0	-100	0	230	101300000	1000	0	0	-1	500
25843875	5886	1363	0	-100	0	230	101300000	1000	0	0	-1	500
25856435	5874	1366	0	-100	0	230	101300000	1000	0	0	-1	500
25868995	5876	1369	0	-100	0	230	101300000	1000	0	0	-1	500
25881555	5883	1373	0	-100	0	230	101300000	1000	0	0	-1	500
25894115	5891	1369	0	-100	0	230	101300000	1000	0	0	-1	500
25906675	5878	1369	0	-100	0	230	101300000	1000	0	0	-1	500
25919235	5887	1370	0	-100	0	230	101300000	1000	0	0	-1	500
25931795	5877	1365	0	-100	0	230	101300000	1000	0	0	-1	500
25944355	5877	1377	0	-100	0	230	101300000	1000	0	0	-1	500
25956915	5882	1363	0	-100	0	230	101300000	1000	0	0	-1	500
25969475	5877	1368	0	-100	0	230	101300000	1000	0	0	-1	500
25982035	5877	1371	0	-100	0	230	101300000	1000	0	0	-1	500
25994595	5881	1367	0	-100	0	230	101300000	1000	0	0	-1	500
26007155	5882	1374	0	-100	0	230	101300000	1000	0	0	-1	500
26019715	5882	1375	0	-100	0	230	101300000	1000	0	0	-1	500
26032275	5886	1373	0	-100	0	230	101300000	1000	0	0	-1	500
26044835	5875	1373	0	-100	0	230	101300000	1000	0	0	-1	500
26057395	5886	1370	0	-100	0	230	101300000	1000	0	0	-1	500
26069955	5884	1370	0	-100	0	230	101300000	1000	0	0	-1	500
26082515	5882	1363	0	-100	0	230	101300000	1000	0	0	-1	500
26095075	5881	1368	0	-100	0	230	101300000	1000	0	0	-1	500
26107635	5877	1366	0	-100	0	230	101300000	1000	0	0	-1	500
26120195	5883	1369	0	-100	0	230	101300000	1000	0	0	-1	500
26157875	5883	1368	0	-100	0	230	101300000	1000	0	0	-1	500
26170435	5887	1371	0	-100	0	230	101300000	1000	0	0	-1	500
26182995	5878	1364	0	-100	0	230	101300000	1000	0	0	-1	500
26195555	5880	1371	0	-100	0	230	101300000	1000	0	0	-1	500
26208115	5882	1371	0	-100	0	230	101300000	1000	0	0	-1	500
26220675	5881	1360	0	-100	0	230	101300000	1000	0	0	-1	500
26233235	5878	1367	0	-100	0	230	101300000	1000	0	0	-1	500
26245795	5877	1373	0	-100	0	230	101300000	1000	0	0	-1	500
26258355	5882	1366	0	-100	0	230	101300000	1000	0	0	-1	500
26270915	5877	1376	0	-100	0	230	101300000	1000	0	0	-1	500
26283475	5885	1371	0	-100	0	230	101300000	1000	0	0	-1	500
26296035	5888	1365	0	-100	0	230	101300000	1000	0	0	-1	500
26396515	5882	1371	0	-100	0	230	101300000	1000	0	0	-1	500
26409075	5886	1366	0	-100	0	230	101300000	1000	0	0	-1	500
26421635	5880	1368	0	-100	0	230	101300000	1000	0	0	-1	500
26434195	5881	1365	0	-100	0	230	101300000	1000	0	0	-1	500
26446755	5877	1362	0	-100	0	230	101300000	1000	0	0	-1	500
26459315	5888	1375	0	-100	0	230	101300000	1000	0	0	-1	500
26471875	5884	1366	0	-100	0	230	101300000	1000	0	0	-1	500
26484435	5877	1371	0	-100	0	230	101300000	1000	0	0	-1	500
26496995	5877	1371	0	-100	0	230	101300000	1000	0	0	-1	500
26509555	5887	1369	0	-100	0	230	101300000	1000	0	0	-1	500
26522115	5879	1367	0	-100	0	230	101300000	1000	0	0	-1	500
26635155	5874	1371	0	-100	0	230	101300000	1000	0	0	-1	500
26647715	5888	1364	0	-100	0	230	101300000	1000	0	0	-1	500
26660275	5883	1366	0	-100	0	230	101300000	1000	0	0	-1	500
26672835	5877	1363	0	-100	0	230	101300000	1000	0	0	-1	500
26685395	5882	1374	0	-100	0	230	101300000	1000	0	0	-1	500
26697955	5888	1371	0	-100	0	230	101300000	1000	0	0	-1	500
26710515	5878	1365	0	-100	0	230	101300000	1000	0	0	-1	500
26723075	5882	1356	0	-100	0	230	101300000	1000	0	0	-1	500
26735635	5882	1380	0	-100	0	230	101300000	1000	0	0	-1	500
26748195	5887	1372	0	-100	0	230	101300000	1000	0	0	-1	500
26760755	5882	1365	0	-100	0	230	101300000	1000	0	0	-1	500
26773315	5885	1359	0	-100	0	230	101300000	1000	0	0	-1	500
26785875	5882	1364	0	-100	0	230	101300000	1000	0	0	-1	500
26798435	5880	1370	0	-100	0	230	101300000	1000	0	0	-1	500
26810995	5877	1372	0	-100	0	230	101300000	1000	0	0	-1	500
26823555	5878	1369	0	-100	0	230	101300000	1000	0	0	-1	500
26836115	5890	1370	0	-100	0	230	101300000	1000	0	0	-1	500
26848675	5882	1370	0	-100	0	230	101300000	1000	0	0	-1	500
26861235	5874	1376	0	-100	0	230	101300000	1000	0	0	-1	500
26873795	5874	1373	0	-100	0	230	101300000	1000	0	0	-1	500
26886355	5883	1367	0	-100	0	230	101300000	1000	0	0	-1	500
26898915	5882	1367	0	-100	0	230	101300000	1000	0	0	-1	500
26911475	5877	1371	0	-100	0	230	101300000	1000	0	0	-1	500
26924035	5883	1363	0	-100	0	230	101300000	1000	0	0	-1	500
26936595	5880	1374	0	-100	0	230	101300000	1000	0	0	-1	500
26949155	5881	1367	0	-100	0	230	101300000	1000	0	0	-1	500
26961715	5882	1368	0	-100	0	230	101300000	1000	0	0	-1	500
26974275	5891	1369	0	-100	0	230	101300000	1000	0	0	-1	500
26986835	5880	1373	0	-100	0	230	101300000	1000	0	0	-1	500
26999395	5880	1368	0	-100	0	230	101300000	1000	0	0	-1	500
27011955	5874	1375	0	-100	0	230	101300000	1000	0	0	-1	500
27024515	5890	1367	0	-100	0	230	101300000	1000	0	0	-1	500
27037075	5882	1375	0	-100	0	230	101300000	1000	0	0	-1	500
27049635	5884	1369	0	-100	0	230	101300000	1000	0	0	-1	500
