timestamp	voltage	current	windSpeed	pitchAngle	rpm	temperature	ambientPressure	humidity	accelerationX	accelerationY	accelerationZ	currentSink
7040070	6020	859	0	-100	0	230	101300000	1000	0	0	-1	0
7047523	6015	870	0	-100	0	230	101300000	1000	0	0	-1	0
7060083	6016	838	0	-100	0	230	101300000	1000	0	0	-1	0
7072643	6022	856	0	-100	0	230	101300000	1000	0	0	-1	0
7085203	6019	862	0	-100	0	230	101300000	1000	0	0	-1	0
7097763	6017	852	0	-100	0	230	101300000	1000	0	0	-1	0
7110323	6017	827	0	-100	0	230	101300000	1000	0	0	-1	0
7122883	6025	823	0	-100	0	230	101300000	1000	0	0	-1	0
7135443	6019	862	0	-100	0	230	101300000	1000	0	0	-1	0
7148004	6022	849	0	-100	0	230	101300000	1000	0	0	-1	0
7160563	6019	848	0	-100	0	230	101300000	1000	0	0	-1	0
7173123	6023	862	0	-100	0	230	101300000	1000	0	0	-1	0
7185683	6021	847	0	-100	0	230	101300000	1000	0	0	-1	0
7198243	6016	871	0	-100	0	230	101300000	1000	0	0	-1	0
7210803	6019	851	0	-100	0	230	101300000	1000	0	0	-1	0
7223363	6020	862	0	-100	0	230	101300000	1000	0	0	-1	0
7235923	6016	845	0	-100	0	230	101300000	1000	0	0	-1	0
7248483	6016	824	0	-100	0	230	101300000	1000	0	0	-1	0
7261043	6026	864	0	-100	0	230	101300000	1000	0	0	-1	0
7273603	6017	850	0	-100	0	230	101300000	1000	0	0	-1	0
7286163	6010	847	0	-100	0	230	101300000	1000	0	0	-1	0
7298723	6016	847	0	-100	0	230	101300000	1000	0	0	-1	0
7311283	6027	882	0	-100	0	230	101300000	1000	0	0	-1	0
7323843	6016	859	0	-100	0	230	101300000	1000	0	0	-1	0
7336403	6017	860	0	-100	0	230	101300000	1000	0	0	-1	0
7348963	6016	862	0	-100	0	230	101300000	1000	0	0	-1	0
7697235	5998	897	0	-100	0	230	101300000	1000	0	0	-1	50
7709795	5996	923	0	-100	0	230	101300000	1000	0	0	-1	50
7722355	6004	928	0	-100	0	230	101300000	1000	0	0	-1	50
7734915	6000	910	0	-100	0	230	101300000	1000	0	0	-1	50
7747475	5999	942	0	-100	0	230	101300000	1000	0	0	-1	50
7760035	5997	946	0	-100	0	230	101300000	1000	0	0	-1	50
7772595	6000	914	0	-100	0	230	101300000	1000	0	0	-1	50
7785155	5995	930	0	-100	0	230	101300000	1000	0	0	-1	50
7797715	5999	904	0	-100	0	230	101300000	1000	0	0	-1	50
7810275	5999	872	0	-100	0	230	101300000	1000	0	0	-1	50
7822835	5993	935	0	-100	0	230	101300000	1000	0	0	-1	50
7835395	5996	922	0	-100	0	230	101300000	1000	0	0	-1	50
7847955	6008	916	0	-100	0	230	101300000	1000	0	0	-1	50
7860515	5996	937	0	-100	0	230	101300000	1000	0	0	-1	50
7873075	6004	911	0	-100	0	230	101300000	1000	0	0	-1	50
7885635	6000	936	0	-100	0	230	101300000	1000	0	0	-1	50
7898195	5999	959	0	-100	0	230	101300000	1000	0	0	-1	50
7910755	5997	943	0	-100	0	230	101300000	1000	0	0	-1	50
7923315	5992	932	0	-100	0	230	101300000	1000	0	0	-1	50
7935875	6004	953	0	-100	0	230	101300000	1000	0	0	-1	50
7948435	6000	898	0	-100	0	230	101300000	1000	0	0	-1	50
7960995	6000	953	0	-100	0	230	101300000	1000	0	0	-1	50
7973555	6001	938	0	-100	0	230	101300000	1000	0	0	-1	50
7986115	5996	925	0	-100	0	230	101300000	1000	0	0	-1	50
7998675	5999	923	0	-100	0	230	101300000	1000	0	0	-1	50
8011235	5998	936	0	-100	0	230	101300000	1000	0	0	-1	50
8023795	6003	902	0	-100	0	230	101300000	1000	0	0	-1	50
8036355	5999	946	0	-100	0	230	101300000	1000	0	0	-1	50
8048915	6000	936	0	-100	0	230	101300000	1000	0	0	-1	50
8061475	5998	964	0	-100	0	230	101300000	1000	0	0	-1	50
8074035	5998	880	0	-100	0	230	101300000	1000	0	0	-1	50
8086595	6006	939	0	-100	0	230	101300000	1000	0	0	-1	50
8099155	5989	929	0	-100	0	230	101300000	1000	0	0	-1	50
8111715	5997	911	0	-100	0	230	101300000	1000	0	0	-1	50
8124275	6000	893	0	-100	0	230	101300000	1000	0	0	-1	50
8136835	6003	919	0	-100	0	230	101300000	1000	0	0	-1	50
8149395	5995	948	0	-100	0	230	101300000	1000	0	0	-1	50
8161955	5999	915	0	-100	0	230	101300000	1000	0	0	-1	50
8174515	5999	944	0	-100	0	230	101300000	1000	0	0	-1	50
8187075	6001	938	0	-100	0	230	101300000	1000	0	0	-1	50
8199635	5995	926	0	-100	0	230	101300000	1000	0	0	-1	50
8212195	6004	914	0	-100	0	230	101300000	1000	0	0	-1	50
8224755	5994	926	0	-100	0	230	101300000	1000	0	0	-1	50
8237315	6001	910	0	-100	0	230	101300000	1000	0	0	-1	50
8249875	5997	934	0	-100	0	230	101300000	1000	0	0	-1	50
8262435	6001	939	0	-100	0	230	101300000	1000	0	0	-1	50
8274995	5997	903	0	-100	0	230	101300000	1000	0	0	-1	50
8287555	6003	931	0	-100	0	230	101300000	1000	0	0	-1	50
8300115	5998	929	0	-100	0	230	101300000	1000	0	0	-1	50
8312675	6005	939	0	-100	0	230	101300000	1000	0	0	-1	50
8325235	6001	925	0	-100	0	230	101300000	1000	0	0	-1	50
8337795	6001	918	0	-100	0	230	101300000	1000	0	0	-1	50
8350355	6001	952	0	-100	0	230	101300000	1000	0	0	-1	50
8362915	5996	935	0	-100	0	230	101300000	1000	0	0	-1	50
8375475	6005	926	0	-100	0	230	101300000	1000	0	0	-1	50
8388035	5997	917	0	-100	0	230	101300000	1000	0	0	-1	50
8400595	6001	969	0	-100	0	230	101300000	1000	0	0	-1	50
8413155	5991	914	0	-100	0	230	101300000	1000	0	0	-1	50
8425715	5999	889	0	-100	0	230	101300000	1000	0	0	-1	50
8438275	5994	934	0	-100	0	230	101300000	1000	0	0	-1	50
8450835	6001	949	0	-100	0	230	101300000	1000	0	0	-1	50
8463395	6002	927	0	-100	0	230	101300000	1000	0	0	-1	50
8475955	6001	929	0	-100	0	230	101300000	1000	0	0	-1	50
8488515	5993	900	0	-100	0	230	101300000	1000	0	0	-1	50
8501075	5994	896	0	-100	0	230	101300000	1000	0	0	-1	50
8513635	6000	952	0	-100	0	230	101300000	1000	0	0	-1	50
8526195	6001	929	0	-100	0	230	101300000	1000	0	0	-1	50
8538755	5999	898	0	-100	0	230	101300000	1000	0	0	-1	50
8551315	5997	955	0	-100	0	230	101300000	1000	0	0	-1	50
8563875	6001	950	0	-100	0	230	101300000	1000	0	0	-1	50
8576435	5999	948	0	-100	0	230	101300000	1000	0	0	-1	50
8588995	5995	901	0	-100	0	230	101300000	1000	0	0	-1	50
8601555	5999	916	0	-100	0	230	101300000	1000	0	0	-1	50
8614115	6000	886	0	-100	0	230	101300000	1000	0	0	-1	50
8626675	6002	940	0	-100	0	230	101300000	1000	0	0	-1	50
8639235	6000	930	0	-100	0	230	101300000	1000	0	0	-1	50
8651795	6004	880	0	-100	0	230	101300000	1000	0	0	-1	50
8664355	6000	902	0	-100	0	230	101300000	1000	0	0	-1	50
8676915	6000	961	0	-100	0	230	101300000	1000	0	0	-1	50
8689475	5997	932	0	-100	0	230	101300000	1000	0	0	-1	50
8702035	6003	926	0	-100	0	230	101300000	1000	0	0	-1	50
8714595	5999	902	0	-100	0	230	101300000	1000	0	0	-1	50
8727155	5989	930	0	-100	0	230	101300000	1000	0	0	-1	50
8739715	6003	895	0	-100	0	230	101300000	1000	0	0	-1	50
8752275	5994	889	0	-100	0	230	101300000	1000	0	0	-1	50
8764835	5993	953	0	-100	0	230	101300000	1000	0	0	-1	50
8777395	6003	916	0	-100	0	230	101300000	1000	0	0	-1	50
8789955	6001	908	0	-100	0	230	101300000	1000	0	0	-1	50
8802515	6000	903	0	-100	0	230	101300000	1000	0	0	-1	50
8815075	5997	947	0	-100	0	230	101300000	1000	0	0	-1	50
8827635	6002	948	0	-100	0	230	101300000	1000	0	0	-1	50
8840195	6002	931	0	-100	0	230	101300000	1000	0	0	-1	50
8852755	6002	913	0	-100	0	230	101300000	1000	0	0	-1	50
8865315	6003	953	0	-100	0	230	101300000	1000	0	0	-1	50
8877875	5997	928	0	-100	0	230	101300000	1000	0	0	-1	50
8890435	5995	927	0	-100	0	230	101300000	1000	0	0	-1	50
8902995	6004	940	0	-100	0	230	101300000	1000	0	0	-1	50
8915555	5991	910	0	-100	0	230	101300000	1000	0	0	-1	50
8928115	5999	938	0	-100	0	230	101300000	1000	0	0	-1	50
8940675	5994	957	0	-100	0	230	101300000	1000	0	0	-1	50
8953235	5999	920	0	-100	0	230	101300000	1000	0	0	-1	50
8965795	6001	942	0	-100	0	230	101300000	1000	0	0	-1	50
8978355	5995	913	0	-100	0	230	101300000	1000	0	0	-1	50
8990915	6004	929	0	-100	0	230	101300000	1000	0	0	-1	50
9003475	5998	949	0	-100	0	230	101300000	1000	0	0	-1	50
9016035	5999	921	0	-100	0	230	101300000	1000	0	0	-1	50
9028595	6003	918	0	-100	0	230	101300000	1000	0	0	-1	50
9041155	5992	911	0	-100	0	230	101300000	1000	0	0	-1	50
9053715	5999	935	0	-100	0	230	101300000	1000	0	0	-1	50
9066275	5996	889	0	-100	0	230	101300000	1000	0	0	-1	50
9078835	6000	926	0	-100	0	230	101300000	1000	0	0	-1	50
9091395	5994	911	0	-100	0	230	101300000	1000	0	0	-1	50
9103955	6000	914	0	-100	0	230	101300000	1000	0	0	-1	50
9116515	5995	897	0	-100	0	230	101300000	1000	0	0	-1	50
9129075	6003	944	0	-100	0	230	101300000	1000	0	0	-1	50
9141635	5995	888	0	-100	0	230	101300000	1000	0	0	-1	50
9154195	5998	939	0	-100	0	230	101300000	1000	0	0	-1	50
9166755	6001	905	0	-100	0	230	101300000	1000	0	0	-1	50
9179315	6000	930	0	-100	0	230	101300000	1000	0	0	-1	50
9191875	5992	915	0	-100	0	230	101300000	1000	0	0	-1	50
9204435	6001	922	0	-100	0	230	101300000	1000	0	0	-1	50
9216995	5994	925	0	-100	0	230	101300000	1000	0	0	-1	50
9229555	5994	930	0	-100	0	230	101300000	1000	0	0	-1	50
9242115	6003	954	0	-100	0	230	101300000	1000	0	0	-1	50
9254675	6000	919	0	-100	0	230	101300000	1000	0	0	-1	50
9267235	5998	931	0	-100	0	230	101300000	1000	0	0	-1	50
9279795	5998	939	0	-100	0	230	101300000	1000	0	0	-1	50
9292355	6005	954	0	-100	0	230	101300000	1000	0	0	-1	50
9304915	5997	957	0	-100	0	230	101300000	1000	0	0	-1	50
9317475	5998	931	0	-100	0	230	101300000	1000	0	0	-1	50
9330035	6007	916	0	-100	0	230	101300000	1000	0	0	-1	50
9342595	5997	918	0	-100	0	230	101300000	1000	0	0	-1	50
9355155	5991	921	0	-100	0	230	101300000	1000	0	0	-1	50
9367715	6000	933	0	-100	0	230	101300000	1000	0	0	-1	50
9380275	5999	939	0	-100	0	230	101300000	1000	0	0	-1	50
9392835	6003	914	0	-100	0	230	101300000	1000	0	0	-1	50
9405395	5997	927	0	-100	0	230	101300000	1000	0	0	-1	50
9417955	5995	931	0	-100	0	230	101300000	1000	0	0	-1	50
9430515	6001	947	0	-100	0	230	101300000	1000	0	0	-1	50
9443075	5998	898	0	-100	0	230	101300000	1000	0	0	-1	50
9455635	6000	915	0	-100	0	230	101300000	1000	0	0	-1	50
9468195	5994	940	0	-100	0	230	101300000	1000	0	0	-1	50
9480755	5992	906	0	-100	0	230	101300000	1000	0	0	-1	50
9493315	6004	952	0	-100	0	230	101300000	1000	0	0	-1	50
9505875	5992	933	0	-100	0	230	101300000	1000	0	0	-1	50
9518435	6000	973	0	-100	0	230	101300000	1000	0	0	-1	50
9530995	6005	917	0	-100	0	230	101300000	1000	0	0	-1	50
9543555	5996	939	0	-100	0	230	101300000	1000	0	0	-1	50
9556115	6004	967	0	-100	0	230	101300000	1000	0	0	-1	50
9568675	6001	924	0	-100	0	230	101300000	1000	0	0	-1	50
9581235	5999	949	0	-100	0	230	101300000	1000	0	0	-1	50
9593795	5997	950	0	-100	0	230	101300000	1000	0	0	-1	50
9606355	6004	940	0	-100	0	230	101300000	1000	0	0	-1	50
9618915	5994	903	0	-100	0	230	101300000	1000	0	0	-1	50
9631475	5999	924	0	-100	0	230	101300000	1000	0	0	-1	50
9644035	5994	948	0	-100	0	230	101300000	1000	0	0	-1	50
9656595	6001	907	0	-100	0	230	101300000	1000	0	0	-1	50
9669155	5986	916	0	-100	0	230	101300000	1000	0	0	-1	50
9681715	6004	910	0	-100	0	230	101300000	1000	0	0	-1	50
9694275	5994	942	0	-100	0	230	101300000	1000	0	0	-1	50
9706835	6003	951	0	-100	0	230	101300000	1000	0	0	-1	50
9719395	5998	935	0	-100	0	230	101300000	1000	0	0	-1	50
9731955	6000	914	0	-100	0	230	101300000	1000	0	0	-1	50
9744515	5995	916	0	-100	0	230	101300000	1000	0	0	-1	50
9782195	5995	921	0	-100	0	230	101300000	1000	0	0	-1	50
9794755	6003	956	0	-100	0	230	101300000	1000	0	0	-1	50
9807315	5999	941	0	-100	0	230	101300000	1000	0	0	-1	50
9819875	6004	933	0	-100	0	230	101300000	1000	0	0	-1	50
9832435	5999	956	0	-100	0	230	101300000	1000	0	0	-1	50
9844995	5999	903	0	-100	0	230	101300000	1000	0	0	-1	50
9857555	5999	916	0	-100	0	230	101300000	1000	0	0	-1	50
9870115	5999	938	0	-100	0	230	101300000	1000	0	0	-1	50
9882675	5997	926	0	-100	0	230	101300000	1000	0	0	-1	50
9895235	5997	922	0	-100	0	230	101300000	1000	0	0	-1	50
9907795	5997	924	0	-100	0	230	101300000	1000	0	0	-1	50
9920355	5999	907	0	-100	0	230	101300000	1000	0	0	-1	50
9983155	5993	947	0	-100	0	230	101300000	1000	0	0	-1	50
9995715	5997	936	0	-100	0	230	101300000	1000	0	0	-1	50
10008275	5999	932	0	-100	0	230	101300000	1000	0	0	-1	50
10020835	5996	966	0	-100	0	230	101300000	1000	0	0	-1	50
10033395	6005	901	0	-100	0	230	101300000	1000	0	0	-1	50
10045955	5996	921	0	-100	0	230	101300000	1000	0	0	-1	50
10058515	6001	882	0	-100	0	230	101300000	1000	0	0	-1	50
10071075	5995	939	0	-100	0	230	101300000	1000	0	0	-1	50
10083635	6006	924	0	-100	0	230	101300000	1000	0	0	-1	50
10096195	5995	944	0	-100	0	230	101300000	1000	0	0	-1	50
10108755	5999	941	0	-100	0	230	101300000	1000	0	0	-1	50
10121315	5995	918	0	-100	0	230	101300000	1000	0	0	-1	50
10146435	5994	961	0	-100	0	230	101300000	1000	0	0	-1	50
10158995	5999	932	0	-100	0	230	101300000	1000	0	0	-1	50
10171555	5992	919	0	-100	0	230	101300000	1000	0	0	-1	50
10184115	6001	937	0	-100	0	230	101300000	1000	0	0	-1	50
10196675	5997	941	0	-100	0	230	101300000	1000	0	0	-1	50
10209235	6000	973	0	-100	0	230	101300000	1000	0	0	-1	50
10221795	6004	905	0	-100	0	230	101300000	1000	0	0	-1	50
10234355	5997	946	0	-100	0	230	101300000	1000	0	0	-1	50
10246915	5999	920	0	-100	0	230	101300000	1000	0	0	-1	50
10259475	5998	914	0	-100	0	230	101300000	1000	0	0	-1	50
10272035	6001	928	0	-100	0	230	101300000	1000	0	0	-1	50
10284595	6006	938	0	-100	0	230	101300000	1000	0	0	-1	50
10297155	5992	962	0	-100	0	230	101300000	1000	0	0	-1	50
10309715	5995	908	0	-100	0	230	101300000	1000	0	0	-1	50
10322275	6001	915	0	-100	0	230	101300000	1000	0	0	-1	50
10334835	6001	919	0	-100	0	230	101300000	1000	0	0	-1	50
10347395	5997	944	0	-100	0	230	101300000	1000	0	0	-1	50
10359955	5995	909	0	-100	0	230	101300000	1000	0	0	-1	50
10372515	5999	923	0	-100	0	230	101300000	1000	0	0	-1	50
10385075	6000	950	0	-100	0	230	101300000	1000	0	0	-1	50
10397635	5995	937	0	-100	0	230	101300000	1000	0	0	-1	50
10410195	5995	914	0	-100	0	230	101300000	1000	0	0	-1	50
10422755	5999	971	0	-100	0	230	101300000	1000	0	0	-1	50
10435315	6001	959	0	-100	0	230	101300000	1000	0	0	-1	50
10447875	6000	926	0	-100	0	230	101300000	1000	0	0	-1	50
10460435	5998	909	0	-100	0	230	101300000	1000	0	0	-1	50
10472995	6007	973	0	-100	0	230	101300000	1000	0	0	-1	50
10485555	5995	940	0	-100	0	230	101300000	1000	0	0	-1	50
10498115	5998	918	0	-100	0	230	101300000	1000	0	0	-1	50
10510675	6002	956	0	-100	0	230	101300000	1000	0	0	-1	50
10523235	6001	896	0	-100	0	230	101300000	1000	0	0	-1	50
10535795	5995	932	0	-100	0	230	101300000	1000	0	0	-1	50
10548355	5992	907	0	-100	0	230	101300000	1000	0	0	-1	50
10560915	6000	892	0	-100	0	230	101300000	1000	0	0	-1	50
10573475	6004	941	0	-100	0	230	101300000	1000	0	0	-1	50
10586035	5999	921	0	-100	0	230	101300000	1000	0	0	-1	50
10598595	5996	930	0	-100	0	230	101300000	1000	0	0	-1	50
10611155	5992	951	0	-100	0	230	101300000	1000	0	0	-1	50
10623715	6004	890	0	-100	0	230	101300000	1000	0	0	-1	50
10636275	5995	892	0	-100	0	230	101300000	1000	0	0	-1	50
10648835	5996	880	0	-100	0	230	101300000	1000	0	0	-1	50
10661395	6002	919	0	-100	0	230	101300000	1000	0	0	-1	50
10673955	6001	929	0	-100	0	230	101300000	1000	0	0	-1	50
10686515	6002	915	0	-100	0	230	101300000	1000	0	0	-1	50
10699075	5997	968	0	-100	0	230	101300000	1000	0	0	-1	50
10711635	5997	923	0	-100	0	230	101300000	1000	0	0	-1	50
10724195	6000	935	0	-100	0	230	101300000	1000	0	0	-1	50
10736755	5998	926	0	-100	0	230	101300000	1000	0	0	-1	50
10749315	6003	950	0	-100	0	230	101300000	1000	0	0	-1	50
10761875	5996	965	0	-100	0	230	101300000	1000	0	0	-1	50
10774435	5999	920	0	-100	0	230	101300000	1000	0	0	-1	50
10786995	5997	962	0	-100	0	230	101300000	1000	0	0	-1	50
10799555	5999	923	0	-100	0	230	101300000	1000	0	0	-1	50
10812115	6000	956	0	-100	0	230	101300000	1000	0	0	-1	50
10824675	5994	905	0	-100	0	230	101300000	1000	0	0	-1	50
10837235	6001	898	0	-100	0	230	101300000	1000	0	0	-1	50
10849795	5994	907	0	-100	0	230	101300000	1000	0	0	-1	50
10862355	5996	921	0	-100	0	230	101300000	1000	0	0	-1	50
10874915	6003	909	0	-100	0	230	101300000	1000	0	0	-1	50
10887475	5995	945	0	-100	0	230	101300000	1000	0	0	-1	50
10900035	5999	872	0	-100	0	230	101300000	1000	0	0	-1	50
10912595	6006	900	0	-100	0	230	101300000	1000	0	0	-1	50
10925155	5991	953	0	-100	0	230	101300000	1000	0	0	-1	50
10937715	5997	912	0	-100	0	230	101300000	1000	0	0	-1	50
10950275	6000	889	0	-100	0	230	101300000	1000	0	0	-1	50
10962835	6002	907	0	-100	0	230	101300000	1000	0	0	-1	50
10975395	6003	907	0	-100	0	230	101300000	1000	0	0	-1	50
10987955	5997	925	0	-100	0	230	101300000	1000	0	0	-1	50
11000515	5994	891	0	-100	0	230	101300000	1000	0	0	-1	50
11013075	6004	919	0	-100	0	230	101300000	1000	0	0	-1	50
11025635	6001	935	0	-100	0	230	101300000	1000	0	0	-1	50
11038195	5994	916	0	-100	0	230	101300000	1000	0	0	-1	50
11050755	6004	915	0	-100	0	230	101300000	1000	0	0	-1	50
11063315	5997	942	0	-100	0	230	101300000	1000	0	0	-1	50
11075875	5994	907	0	-100	0	230	101300000	1000	0	0	-1	50
11088435	6003	946	0	-100	0	230	101300000	1000	0	0	-1	50
11100995	5997	912	0	-100	0	230	101300000	1000	0	0	-1	50
11113555	6001	955	0	-100	0	230	101300000	1000	0	0	-1	50
11126115	5996	925	0	-100	0	230	101300000	1000	0	0	-1	50
11138675	6003	905	0	-100	0	230	101300000	1000	0	0	-1	50
11151235	6001	904	0	-100	0	230	101300000	1000	0	0	-1	50
11163795	5996	892	0	-100	0	230	101300000	1000	0	0	-1	50
11176355	6000	920	0	-100	0	230	101300000	1000	0	0	-1	50
11188915	6008	933	0	-100	0	230	101300000	1000	0	0	-1	50
11201475	5997	947	0	-100	0	230	101300000	1000	0	0	-1	50
11214035	5992	956	0	-100	0	230	101300000	1000	0	0	-1	50
11226595	6001	945	0	-100	0	230	101300000	1000	0	0	-1	50
11239155	5993	926	0	-100	0	230	101300000	1000	0	0	-1	50
11251715	5995	897	0	-100	0	230	101300000	1000	0	0	-1	50
11264275	5999	929	0	-100	0	230	101300000	1000	0	0	-1	50
11276835	5998	945	0	-100	0	230	101300000	1000	0	0	-1	50
11289395	5995	914	0	-100	0	230	101300000	1000	0	0	-1	50
11301955	6003	937	0	-100	0	230	101300000	1000	0	0	-1	50
11314515	5997	896	0	-100	0	230	101300000	1000	0	0	-1	50
11327075	5995	937	0	-100	0	230	101300000	1000	0	0	-1	50
11339635	6003	913	0	-100	0	230	101300000	1000	0	0	-1	50
11352195	5997	907	0	-100	0	230	101300000	1000	0	0	-1	50
11364755	6002	941	0	-100	0	230	101300000	1000	0	0	-1	50
11377315	6001	925	0	-100	0	230	101300000	1000	0	0	-1	50
11389875	5996	908	0	-100	0	230	101300000	1000	0	0	-1	50
11402435	6004	944	0	-100	0	230	101300000	1000	0	0	-1	50
11414995	5997	895	0	-100	0	230	101300000	1000	0	0	-1	50
11427555	5992	902	0	-100	0	230	101300000	1000	0	0	-1	50
11440115	6001	923	0	-100	0	230	101300000	1000	0	0	-1	50
11452675	5997	961	0	-100	0	230	101300000	1000	0	0	-1	50
11465235	5994	931	0	-100	0	230	101300000	1000	0	0	-1	50
11477795	5999	914	0	-100	0	230	101300000	1000	0	0	-1	50
11490355	5997	949	0	-100	0	230	101300000	1000	0	0	-1	50
11502915	5992	893	0	-100	0	230	101300000	1000	0	0	-1	50
11515475	6001	918	0	-100	0	230	101300000	1000	0	0	-1	50
11528035	6000	947	0	-100	0	230	101300000	1000	0	0	-1	50
11540595	5998	932	0	-100	0	230	101300000	1000	0	0	-1	50
11553155	5999	937	0	-100	0	230	101300000	1000	0	0	-1	50
11565715	5997	915	0	-100	0	230	101300000	1000	0	0	-1	50
11578275	5998	963	0	-100	0	230	101300000	1000	0	0	-1	50
11590835	5999	925	0	-100	0	230	101300000	1000	0	0	-1	50
11603395	6002	910	0	-100	0	230	101300000	1000	0	0	-1	50
11615955	5997	908	0	-100	0	230	101300000	1000	0	0	-1	50
11628515	6000	909	0	-100	0	230	101300000	1000	0	0	-1	50
11641075	6002	913	0	-100	0	230	101300000	1000	0	0	-1	50
11653635	5995	925	0	-100	0	230	101300000	1000	0	0	-1	50
11666195	5998	935	0	-100	0	230	101300000	1000	0	0	-1	50
11678755	5999	950	0	-100	0	230	101300000	1000	0	0	-1	50
11691315	5997	944	0	-100	0	230	101300000	1000	0	0	-1	50
11703875	6000	953	0	-100	0	230	101300000	1000	0	0	-1	50
11716435	6001	935	0	-100	0	230	101300000	1000	0	0	-1	50
11728995	6000	968	0	-100	0	230	101300000	1000	0	0	-1	50
11741555	6000	910	0	-100	0	230	101300000	1000	0	0	-1	50
11754115	5996	908	0	-100	0	230	101300000	1000	0	0	-1	50
11766675	5999	900	0	-100	0	230	101300000	1000	0	0	-1	50
11779235	5997	912	0	-100	0	230	101300000	1000	0	0	-1	50
11791795	6003	943	0	-100	0	230	101300000	1000	0	0	-1	50
11804355	6005	920	0	-100	0	230	101300000	1000	0	0	-1	50
11816915	6000	902	0	-100	0	230	101300000	1000	0	0	-1	50
11829475	5995	938	0	-100	0	230	101300000	1000	0	0	-1	50
11842035	5995	933	0	-100	0	230	101300000	1000	0	0	-1	50
11854595	5993	935	0	-100	0	230	101300000	1000	0	0	-1	50
11867155	5989	938	0	-100	0	230	101300000	1000	0	0	-1	50
11879715	6003	941	0	-100	0	230	101300000	1000	0	0	-1	50
11892275	6001	918	0	-100	0	230	101300000	1000	0	0	-1	50
11904835	5999	892	0	-100	0	230	101300000	1000	0	0	-1	50
11917395	6000	935	0	-100	0	230	101300000	1000	0	0	-1	50
11929955	5996	941	0	-100	0	230	101300000	1000	0	0	-1	50
11942515	5998	938	0	-100	0	230	101300000	1000	0	0	-1	50
11955075	5993	954	0	-100	0	230	101300000	1000	0	0	-1	50
11967635	6000	882	0	-100	0	230	101300000	1000	0	0	-1	50
11980195	6003	954	0	-100	0	230	101300000	1000	0	0	-1	50
11992755	6004	967	0	-100	0	230	101300000	1000	0	0	-1	50
12005315	6001	925	0	-100	0	230	101300000	1000	0	0	-1	50
12017875	6000	950	0	-100	0	230	101300000	1000	0	0	-1	50
12030435	5996	951	0	-100	0	230	101300000	1000	0	0	-1	50
12042995	5998	942	0	-100	0	230	101300000	1000	0	0	-1	50
12055555	6000	943	0	-100	0	230	101300000	1000	0	0	-1	50
12068115	6004	936	0	-100	0	230	101300000	1000	0	0	-1	50
12080675	5995	880	0	-100	0	230	101300000	1000	0	0	-1	50
12093235	5997	926	0	-100	0	230	101300000	1000	0	0	-1	50
12105795	5998	917	0	-100	0	230	101300000	1000	0	0	-1	50
12118355	5995	918	0	-100	0	230	101300000	1000	0	0	-1	50
12130915	6002	915	0	-100	0	230	101300000	1000	0	0	-1	50
12143475	6004	881	0	-100	0	230	101300000	1000	0	0	-1	50
12156035	6005	948	0	-100	0	230	101300000	1000	0	0	-1	50
12168595	5998	919	0	-100	0	230	101300000	1000	0	0	-1	50
12181155	5988	918	0	-100	0	230	101300000	1000	0	0	-1	50
12193715	5995	904	0	-100	0	230	101300000	1000	0	0	-1	50
12206275	6000	944	0	-100	0	230	101300000	1000	0	0	-1	50
12218835	5996	942	0	-100	0	230	101300000	1000	0	0	-1	50
12231395	6000	948	0	-100	0	230	101300000	1000	0	0	-1	50
12243955	6004	958	0	-100	0	230	101300000	1000	0	0	-1	50
12256515	5999	936	0	-100	0	230	101300000	1000	0	0	-1	50
12269075	5996	943	0	-100	0	230	101300000	1000	0	0	-1	50
12281635	5998	940	0	-100	0	230	101300000	1000	0	0	-1	50
12294195	5998	934	0	-100	0	230	101300000	1000	0	0	-1	50
12306755	5999	937	0	-100	0	230	101300000	1000	0	0	-1	50
12319315	6001	909	0	-100	0	230	101300000	1000	0	0	-1	50
12331875	5999	911	0	-100	0	230	101300000	1000	0	0	-1	50
12344435	6007	894	0	-100	0	230	101300000	1000	0	0	-1	50
12356995	6001	903	0	-100	0	230	101300000	1000	0	0	-1	50
12369555	5999	945	0	-100	0	230	101300000	1000	0	0	-1	50
12382115	5995	901	0	-100	0	230	101300000	1000	0	0	-1	50
12394675	5994	887	0	-100	0	230	101300000	1000	0	0	-1	50
12407235	5998	906	0	-100	0	230	101300000	1000	0	0	-1	50
12419795	6001	895	0	-100	0	230	101300000	1000	0	0	-1	50
12432355	6003	880	0	-100	0	230	101300000	1000	0	0	-1	50
12444915	6000	907	0	-100	0	230	101300000	1000	0	0	-1	50
12457475	5997	934	0	-100	0	230	101300000	1000	0	0	-1	50
12470035	5996	951	0	-100	0	230	101300000	1000	0	0	-1	50
12482595	5997	942	0	-100	0	230	101300000	1000	0	0	-1	50
12495155	5996	935	0	-100	0	230	101300000	1000	0	0	-1	50
12507715	6000	907	0	-100	0	230	101300000	1000	0	0	-1	50
12520275	5995	918	0	-100	0	230	101300000	1000	0	0	-1	50
12532835	5996	947	0	-100	0	230	101300000	1000	0	0	-1	50
12545395	5999	905	0	-100	0	230	101300000	1000	0	0	-1	50
12557955	5999	945	0	-100	0	230	101300000	1000	0	0	-1	50
12570515	6001	918	0	-100	0	230	101300000	1000	0	0	-1	50
12583075	6002	919	0	-100	0	230	101300000	1000	0	0	-1	50
12595635	6000	894	0	-100	0	230	101300000	1000	0	0	-1	50
12608195	5995	948	0	-100	0	230	101300000	1000	0	0	-1	50
12620755	5998	947	0	-100	0	230	101300000	1000	0	0	-1	50
12633315	5991	929	0	-100	0	230	101300000	1000	0	0	-1	50
12645875	5997	926	0	-100	0	230	101300000	1000	0	0	-1	50
12658435	6004	963	0	-100	0	230	101300000	1000	0	0	-1	50
12670995	6002	934	0	-100	0	230	101300000	1000	0	0	-1	50
12683555	5995	945	0	-100	0	230	101300000	1000	0	0	-1	50
12696115	5995	939	0	-100	0	230	101300000	1000	0	0	-1	50
12708675	5995	942	0	-100	0	230	101300000	1000	0	0	-1	50
12721235	6000	915	0	-100	0	230	101300000	1000	0	0	-1	50
12733795	6004	899	0	-100	0	230	101300000	1000	0	0	-1	50
12746355	5997	937	0	-100	0	230	101300000	1000	0	0	-1	50
12758915	5994	930	0	-100	0	230	101300000	1000	0	0	-1	50
12771475	5996	942	0	-100	0	230	101300000	1000	0	0	-1	50
12784035	5999	914	0	-100	0	230	101300000	1000	0	0	-1	50
12796595	6004	961	0	-100	0	230	101300000	1000	0	0	-1	50
12809155	5988	913	0	-100	0	230	101300000	1000	0	0	-1	50
12821715	6000	911	0	-100	0	230	101300000	1000	0	0	-1	50
12834275	5995	938	0	-100	0	230	101300000	1000	0	0	-1	50
12846835	5994	931	0	-100	0	230	101300000	1000	0	0	-1	50
12859395	6002	919	0	-100	0	230	101300000	1000	0	0	-1	50
12871955	6003	965	0	-100	0	230	101300000	1000	0	0	-1	50
12884515	5999	904	0	-100	0	230	101300000	1000	0	0	-1	50
12897075	5995	896	0	-100	0	230	101300000	1000	0	0	-1	50
12909635	6000	926	0	-100	0	230	101300000	1000	0	0	-1	50
12922195	5995	910	0	-100	0	230	101300000	1000	0	0	-1	50
12934755	5996	915	0	-100	0	230	101300000	1000	0	0	-1	50
12947315	6000	948	0	-100	0	230	101300000	1000	0	0	-1	50
12959875	5999	904	0	-100	0	230	101300000	1000	0	0	-1	50
12972435	6004	929	0	-100	0	230	101300000	1000	0	0	-1	50
12984995	5995	924	0	-100	0	230	101300000	1000	0	0	-1	50
12997555	5997	881	0	-100	0	230	101300000	1000	0	0	-1	50
13010115	5998	904	0	-100	0	230	101300000	1000	0	0	-1	50
13022675	6001	948	0	-100	0	230	101300000	1000	0	0	-1	50
13035235	5998	877	0	-100	0	230	101300000	1000	0	0	-1	50
13047795	5997	965	0	-100	0	230	101300000	1000	0	0	-1	50
13060355	5994	888	0	-100	0	230	101300000	1000	0	0	-1	50
13072915	6000	901	0	-100	0	230	101300000	1000	0	0	-1	50
13085475	6001	917	0	-100	0	230	101300000	1000	0	0	-1	50
13098035	6005	950	0	-100	0	230	101300000	1000	0	0	-1	50
13110595	5995	931	0	-100	0	230	101300000	1000	0	0	-1	50
13123155	5990	914	0	-100	0	230	101300000	1000	0	0	-1	50
13135715	5997	940	0	-100	0	230	101300000	1000	0	0	-1	50
13148275	6000	905	0	-100	0	230	101300000	1000	0	0	-1	50
13160835	6007	911	0	-100	0	230	101300000	1000	0	0	-1	50
13173395	5995	946	0	-100	0	230	101300000	1000	0	0	-1	50
13185955	5998	901	0	-100	0	230	101300000	1000	0	0	-1	50
13198515	5997	946	0	-100	0	230	101300000	1000	0	0	-1	50
13211075	6003	969	0	-100	0	230	101300000	1000	0	0	-1	50
13223635	6004	929	0	-100	0	230	101300000	1000	0	0	-1	50
13236195	6000	889	0	-100	0	230	101300000	1000	0	0	-1	50
13248755	5992	892	0	-100	0	230	101300000	1000	0	0	-1	50
13261315	5999	897	0	-100	0	230	101300000	1000	0	0	-1	50
13273875	6004	962	0	-100	0	230	101300000	1000	0	0	-1	50
13286435	5996	900	0	-100	0	230	101300000	1000	0	0	-1	50
13298995	5995	940	0	-100	0	230	101300000	1000	0	0	-1	50
13311555	5998	918	0	-100	0	230	101300000	1000	0	0	-1	50
13324115	6001	911	0	-100	0	230	101300000	1000	0	0	-1	50
13336675	5996	904	0	-100	0	230	101300000	1000	0	0	-1	50
13349235	5994	928	0	-100	0	230	101300000	1000	0	0	-1	50
13361795	6000	922	0	-100	0	230	101300000	1000	0	0	-1	50
13374355	6003	923	0	-100	0	230	101300000	1000	0	0	-1	50
13386915	5997	953	0	-100	0	230	101300000	1000	0	0	-1	50
13399475	5991	946	0	-100	0	230	101300000	1000	0	0	-1	50
13412035	5994	922	0	-100	0	230	101300000	1000	0	0	-1	50
13424595	6002	942	0	-100	0	230	101300000	1000	0	0	-1	50
13437155	5991	907	0	-100	0	230	101300000	1000	0	0	-1	50
13449715	5995	906	0	-100	0	230	101300000	1000	0	0	-1	50
13462275	6002	945	0	-100	0	230	101300000	1000	0	0	-1	50
13474835	6003	918	0	-100	0	230	101300000	1000	0	0	-1	50
13487395	6000	922	0	-100	0	230	101300000	1000	0	0	-1	50
13499955	5997	931	0	-100	0	230	101300000	1000	0	0	-1	50
13512515	6004	894	0	-100	0	230	101300000	1000	0	0	-1	50
13525075	5997	931	0	-100	0	230	101300000	1000	0	0	-1	50
13537635	5997	946	0	-100	0	230	101300000	1000	0	0	-1	50
13550195	6005	918	0	-100	0	230	101300000	1000	0	0	-1	50
13562755	5998	930	0	-100	0	230	101300000	1000	0	0	-1	50
13575315	5995	958	0	-100	0	230	101300000	1000	0	0	-1	50
13587875	5995	891	0	-100	0	230	101300000	1000	0	0	-1	50
13600435	6003	896	0	-100	0	230	101300000	1000	0	0	-1	50
13612995	6004	952	0	-100	0	230	101300000	1000	0	0	-1	50
13625555	5999	904	0	-100	0	230	101300000	1000	0	0	-1	50
13638115	5998	912	0	-100	0	230	101300000	1000	0	0	-1	50
13650675	5995	941	0	-100	0	230	101300000	1000	0	0	-1	50
13663235	6002	905	0	-100	0	230	101300000	1000	0	0	-1	50
13675795	6002	901	0	-100	0	230	101300000	1000	0	0	-1	50
13688355	6003	951	0	-100	0	230	101300000	1000	0	0	-1	50
13700915	5997	960	0	-100	0	230	101300000	1000	0	0	-1	50
13713475	5997	945	0	-100	0	230	101300000	1000	0	0	-1	50
13726035	5994	899	0	-100	0	230	101300000	1000	0	0	-1	50
13738595	6000	940	0	-100	0	230	101300000	1000	0	0	-1	50
13751155	5994	944	0	-100	0	230	101300000	1000	0	0	-1	50
13763715	5997	968	0	-100	0	230	101300000	1000	0	0	-1	50
13776275	5998	935	0	-100	0	230	101300000	1000	0	0	-1	50
13788835	6000	905	0	-100	0	230	101300000	1000	0	0	-1	50
13801395	5998	924	0	-100	0	230	101300000	1000	0	0	-1	50
13813955	5998	950	0	-100	0	230	101300000	1000	0	0	-1	50
13826515	5998	971	0	-100	0	230	101300000	1000	0	0	-1	50
13839075	6000	962	0	-100	0	230	101300000	1000	0	0	-1	50
13851635	5997	961	0	-100	0	230	101300000	1000	0	0	-1	50
13864195	5996	939	0	-100	0	230	101300000	1000	0	0	-1	50
13876755	6000	911	0	-100	0	230	101300000	1000	0	0	-1	50
13889315	6000	949	0	-100	0	230	101300000	1000	0	0	-1	50
13901875	5995	914	0	-100	0	230	101300000	1000	0	0	-1	50
13914435	5994	888	0	-100	0	230	101300000	1000	0	0	-1	50
13926995	6001	959	0	-100	0	230	101300000	1000	0	0	-1	50
13939555	6000	962	0	-100	0	230	101300000	1000	0	0	-1	50
13952115	5997	899	0	-100	0	230	101300000	1000	0	0	-1	50
13964675	5995	941	0	-100	0	230	101300000	1000	0	0	-1	50
13977235	6003	945	0	-100	0	230	101300000	1000	0	0	-1	50
13989795	5997	930	0	-100	0	230	101300000	1000	0	0	-1	50
14002355	5995	942	0	-100	0	230	101300000	1000	0	0	-1	50
14014915	5997	940	0	-100	0	230	101300000	1000	0	0	-1	50
14027475	6007	926	0	-100	0	230	101300000	1000	0	0	-1	50
14040035	5995	909	0	-100	0	230	101300000	1000	0	0	-1	50
14052595	6002	895	0	-100	0	230	101300000	1000	0	0	-1	50
14065155	5994	925	0	-100	0	230	101300000	1000	0	0	-1	50
14077715	6000	943	0	-100	0	230	101300000	1000	0	0	-1	50
14090275	5994	942	0	-100	0	230	101300000	1000	0	0	-1	50
14102835	6002	936	0	-100	0	230	101300000	1000	0	0	-1	50
14115395	6005	943	0	-100	0	230	101300000	1000	0	0	-1	50
14127955	5995	923	0	-100	0	230	101300000	1000	0	0	-1	50
14140515	5996	938	0	-100	0	230	101300000	1000	0	0	-1	50
14153075	5998	952	0	-100	0	230	101300000	1000	0	0	-1	50
14165635	6004	887	0	-100	0	230	101300000	1000	0	0	-1	50
14178195	6000	896	0	-100	0	230	101300000	1000	0	0	-1	50
14190755	5992	941	0	-100	0	230	101300000	1000	0	0	-1	50
14203315	5997	929	0	-100	0	230	101300000	1000	0	0	-1	50
14215875	5997	926	0	-100	0	230	101300000	1000	0	0	-1	50
14228435	5995	904	0	-100	0	230	101300000	1000	0	0	-1	50
14240995	5995	872	0	-100	0	230	101300000	1000	0	0	-1	50
14253555	5997	923	0	-100	0	230	101300000	1000	0	0	-1	50
14266115	5995	944	0	-100	0	230	101300000	1000	0	0	-1	50
14278675	5995	959	0	-100	0	230	101300000	1000	0	0	-1	50
14291235	6001	952	0	-100	0	230	101300000	1000	0	0	-1	50
14303795	5996	929	0	-100	0	230	101300000	1000	0	0	-1	50
14316355	5995	975	0	-100	0	230	101300000	1000	0	0	-1	50
14328915	5998	905	0	-100	0	230	101300000	1000	0	0	-1	50
14341475	5994	892	0	-100	0	230	101300000	1000	0	0	-1	50
14354035	6000	960	0	-100	0	230	101300000	1000	0	0	-1	50
14366595	5998	956	0	-100	0	230	101300000	1000	0	0	-1	50
14379155	5995	954	0	-100	0	230	101300000	1000	0	0	-1	50
14391715	5997	948	0	-100	0	230	101300000	1000	0	0	-1	50
14404275	5998	958	0	-100	0	230	101300000	1000	0	0	-1	50
14416835	6000	953	0	-100	0	230	101300000	1000	0	0	-1	50
14429395	6001	934	0	-100	0	230	101300000	1000	0	0	-1	50
14441955	6003	910	0	-100	0	230	101300000	1000	0	0	-1	50
14454515	6003	881	0	-100	0	230	101300000	1000	0	0	-1	50
14467075	6005	892	0	-100	0	230	101300000	1000	0	0	-1	50
14479635	6004	916	0	-100	0	230	101300000	1000	0	0	-1	50
14492195	6004	915	0	-100	0	230	101300000	1000	0	0	-1	50
14504755	5995	945	0	-100	0	230	101300000	1000	0	0	-1	50
14517315	5997	964	0	-100	0	230	101300000	1000	0	0	-1	50
14529875	5997	924	0	-100	0	230	101300000	1000	0	0	-1	50
14542435	5995	937	0	-100	0	230	101300000	1000	0	0	-1	50
14554995	5998	938	0	-100	0	230	101300000	1000	0	0	-1	50
14567555	5990	964	0	-100	0	230	101300000	1000	0	0	-1	50
14580115	5996	951	0	-100	0	230	101300000	1000	0	0	-1	50
14592675	6003	915	0	-100	0	230	101300000	1000	0	0	-1	50
14605235	6004	892	0	-100	0	230	101300000	1000	0	0	-1	50
14617795	6001	983	0	-100	0	230	101300000	1000	0	0	-1	50
14630355	6000	952	0	-100	0	230	101300000	1000	0	0	-1	50
14642915	6000	942	0	-100	0	230	101300000	1000	0	0	-1	50
14655475	5998	911	0	-100	0	230	101300000	1000	0	0	-1	50
14668035	5998	934	0	-100	0	230	101300000	1000	0	0	-1	50
14680595	5998	910	0	-100	0	230	101300000	1000	0	0	-1	50
14693155	5992	907	0	-100	0	230	101300000	1000	0	0	-1	50
14705715	5995	924	0	-100	0	230	101300000	1000	0	0	-1	50
14718275	6003	888	0	-100	0	230	101300000	1000	0	0	-1	50
14730835	5999	910	0	-100	0	230	101300000	1000	0	0	-1	50
14743395	6004	894	0	-100	0	230	101300000	1000	0	0	-1	50
14755955	6001	898	0	-100	0	230	101300000	1000	0	0	-1	50
14768515	5997	949	0	-100	0	230	101300000	1000	0	0	-1	50
14781075	5994	908	0	-100	0	230	101300000	1000	0	0	-1	50
14793635	5998	919	0	-100	0	230	101300000	1000	0	0	-1	50
14806195	5998	928	0	-100	0	230	101300000	1000	0	0	-1	50
14818755	6001	925	0	-100	0	230	101300000	1000	0	0	-1	50
14831315	6004	885	0	-100	0	230	101300000	1000	0	0	-1	50
14843875	5995	931	0	-100	0	230	101300000	1000	0	0	-1	50
14856435	5995	926	0	-100	0	230	101300000	1000	0	0	-1	50
14868995	5999	933	0	-100	0	230	101300000	1000	0	0	-1	50
14881555	6004	882	0	-100	0	230	101300000	1000	0	0	-1	50
14894115	5995	907	0	-100	0	230	101300000	1000	0	0	-1	50
14906675	5995	887	0	-100	0	230	101300000	1000	0	0	-1	50
14919235	5998	898	0	-100	0	230	101300000	1000	0	0	-1	50
14931795	6000	940	0	-100	0	230	101300000	1000	0	0	-1	50
14944355	5998	934	0	-100	0	230	101300000	1000	0	0	-1	50
14956915	5994	933	0	-100	0	230	101300000	1000	0	0	-1	50
14969475	5999	909	0	-100	0	230	101300000	1000	0	0	-1	50
14982035	5992	928	0	-100	0	230	101300000	1000	0	0	-1	50
14994595	5995	927	0	-100	0	230	101300000	1000	0	0	-1	50
15007155	5997	946	0	-100	0	230	101300000	1000	0	0	-1	50
15019715	6001	946	0	-100	0	230	101300000	1000	0	0	-1	50
15032275	5996	938	0	-100	0	230	101300000	1000	0	0	-1	50
15044835	5995	935	0	-100	0	230	101300000	1000	0	0	-1	50
15057395	5990	951	0	-100	0	230	101300000	1000	0	0	-1	50
15069955	6002	946	0	-100	0	230	101300000	1000	0	0	-1	50
15082515	6003	941	0	-100	0	230	101300000	1000	0	0	-1	50
15095075	6000	950	0	-100	0	230	101300000	1000	0	0	-1	50
15107635	5996	962	0	-100	0	230	101300000	1000	0	0	-1	50
15120195	5995	925	0	-100	0	230	101300000	1000	0	0	-1	50
15132755	6002	907	0	-100	0	230	101300000	1000	0	0	-1	50
15145315	6001	958	0	-100	0	230	101300000	1000	0	0	-1	50
15157875	5998	875	0	-100	0	230	101300000	1000	0	0	-1	50
15170435	6004	956	0	-100	0	230	101300000	1000	0	0	-1	50
15182995	5993	958	0	-100	0	230	101300000	1000	0	0	-1	50
15195555	5995	914	0	-100	0	230	101300000	1000	0	0	-1	50
15208115	6002	901	0	-100	0	230	101300000	1000	0	0	-1	50
15220675	5996	918	0	-100	0	230	101300000	1000	0	0	-1	50
15233235	5995	898	0	-100	0	230	101300000	1000	0	0	-1	50
15245795	6007	908	0	-100	0	230	101300000	1000	0	0	-1	50
15258355	5992	888	0	-100	0	230	101300000	1000	0	0	-1	50
15270915	5994	943	0	-100	0	230	101300000	1000	0	0	-1	50
15283475	6003	926	0	-100	0	230	101300000	1000	0	0	-1	50
15296035	5997	932	0	-100	0	230	101300000	1000	0	0	-1	50
15308595	5999	916	0	-100	0	230	101300000	1000	0	0	-1	50
15321155	5991	954	0	-100	0	230	101300000	1000	0	0	-1	50
15333715	6000	898	0	-100	0	230	101300000	1000	0	0	-1	50
15346275	5997	907	0	-100	0	230	101300000	1000	0	0	-1	50
15358835	6003	952	0	-100	0	230	101300000	1000	0	0	-1	50
15371395	5995	905	0	-100	0	230	101300000	1000	0	0	-1	50
15383955	6000	883	0	-100	0	230	101300000	1000	0	0	-1	50
15396515	5994	953	0	-100	0	230	101300000	1000	0	0	-1	50
15409075	6003	903	0	-100	0	230	101300000	1000	0	0	-1	50
15421635	6001	975	0	-100	0	230	101300000	1000	0	0	-1	50
15434195	5995	919	0	-100	0	230	101300000	1000	0	0	-1	50
15446755	6005	914	0	-100	0	230	101300000	1000	0	0	-1	50
15459315	5995	897	0	-100	0	230	101300000	1000	0	0	-1	50
15471875	5999	932	0	-100	0	230	101300000	1000	0	0	-1	50
15484435	5996	946	0	-100	0	230	101300000	1000	0	0	-1	50
15496995	5992	935	0	-100	0	230	101300000	1000	0	0	-1	50
15509555	6002	957	0	-100	0	230	101300000	1000	0	0	-1	50
15522115	6000	942	0	-100	0	230	101300000	1000	0	0	-1	50
15534675	6003	939	0	-100	0	230	101300000	1000	0	0	-1	50
15547235	6002	957	0	-100	0	230	101300000	1000	0	0	-1	50
15559795	6003	953	0	-100	0	230	101300000	1000	0	0	-1	50
15572355	5995	922	0	-100	0	230	101300000	1000	0	0	-1	50
15584915	6006	904	0	-100	0	230	101300000	1000	0	0	-1	50
15597475	5994	963	0	-100	0	230	101300000	1000	0	0	-1	50
15610035	6004	955	0	-100	0	230	101300000	1000	0	0	-1	50
15622595	5995	904	0	-100	0	230	101300000	1000	0	0	-1	50
15635155	6001	904	0	-100	0	230	101300000	1000	0	0	-1	50
15647715	5997	914	0	-100	0	230	101300000	1000	0	0	-1	50
15660275	5999	928	0	-100	0	230	101300000	1000	0	0	-1	50
15672835	5997	907	0	-100	0	230	101300000	1000	0	0	-1	50
15685395	5996	946	0	-100	0	230	101300000	1000	0	0	-1	50
15697955	6003	919	0	-100	0	230	101300000	1000	0	0	-1	50
15710515	5995	955	0	-100	0	230	101300000	1000	0	0	-1	50
15723075	6001	926	0	-100	0	230	101300000	1000	0	0	-1	50
15735635	5995	915	0	-100	0	230	101300000	1000	0	0	-1	50
15748195	5996	889	0	-100	0	230	101300000	1000	0	0	-1	50
15760755	6001	934	0	-100	0	230	101300000	1000	0	0	-1	50
15773315	5992	920	0	-100	0	230	101300000	1000	0	0	-1	50
15785875	6003	956	0	-100	0	230	101300000	1000	0	0	-1	50
15798435	6000	930	0	-100	0	230	101300000	1000	0	0	-1	50
15810995	5999	953	0	-100	0	230	101300000	1000	0	0	-1	50
15823555	5996	925	0	-100	0	230	101300000	1000	0	0	-1	50
15836115	5997	963	0	-100	0	230	101300000	1000	0	0	-1	50
15848675	6000	918	0	-100	0	230	101300000	1000	0	0	-1	50
15861235	5997	932	0	-100	0	230	101300000	1000	0	0	-1	50
15873795	5999	916	0	-100	0	230	101300000	1000	0	0	-1	50
15886355	6007	957	0	-100	0	230	101300000	1000	0	0	-1	50
15898915	6001	904	0	-100	0	230	101300000	1000	0	0	-1	50
15911475	6000	890	0	-100	0	230	101300000	1000	0	0	-1	50
15924035	5999	948	0	-100	0	230	101300000	1000	0	0	-1	50
15936595	5995	943	0	-100	0	230	101300000	1000	0	0	-1	50
15949155	5993	974	0	-100	0	230	101300000	1000	0	0	-1	50
15961715	6001	895	0	-100	0	230	101300000	1000	0	0	-1	50
15974275	5995	955	0	-100	0	230	101300000	1000	0	0	-1	50
15986835	6003	935	0	-100	0	230	101300000	1000	0	0	-1	50
15999395	6000	938	0	-100	0	230	101300000	1000	0	0	-1	50
16011955	5998	935	0	-100	0	230	101300000	1000	0	0	-1	50
16024515	5996	971	0	-100	0	230	101300000	1000	0	0	-1	50
16037075	5996	896	0	-100	0	230	101300000	1000	0	0	-1	50
16049635	5993	924	0	-100	0	230	101300000	1000	0	0	-1	50
16062195	5999	900	0	-100	0	230	101300000	1000	0	0	-1	50
16074755	5995	931	0	-100	0	230	101300000	1000	0	0	-1	50
16087315	5997	945	0	-100	0	230	101300000	1000	0	0	-1	50
16099875	6000	960	0	-100	0	230	101300000	1000	0	0	-1	50
16112435	5995	957	0	-100	0	230	101300000	1000	0	0	-1	50
16124995	6002	907	0	-100	0	230	101300000	1000	0	0	-1	50
16137555	5999	954	0	-100	0	230	101300000	1000	0	0	-1	50
16150115	5998	934	0	-100	0	230	101300000	1000	0	0	-1	50
16162675	6004	952	0	-100	0	230	101300000	1000	0	0	-1	50
16175235	5997	918	0	-100	0	230	101300000	1000	0	0	-1	50
16187795	5998	926	0	-100	0	230	101300000	1000	0	0	-1	50
16200355	6000	936	0	-100	0	230	101300000	1000	0	0	-1	50
16212915	5995	947	0	-100	0	230	101300000	1000	0	0	-1	50
16225475	5997	970	0	-100	0	230	101300000	1000	0	0	-1	50
16238035	5998	936	0	-100	0	230	101300000	1000	0	0	-1	50
16250595	6004	898	0	-100	0	230	101300000	1000	0	0	-1	50
16263155	5988	971	0	-100	0	230	101300000	1000	0	0	-1	50
16275715	5996	953	0	-100	0	230	101300000	1000	0	0	-1	50
16288275	6000	939	0	-100	0	230	101300000	1000	0	0	-1	50
16300835	6004	913	0	-100	0	230	101300000	1000	0	0	-1	50
16313395	5996	941	0	-100	0	230	101300000	1000	0	0	-1	50
16325955	5998	969	0	-100	0	230	101300000	1000	0	0	-1	50
16338515	5995	964	0	-100	0	230	101300000	1000	0	0	-1	50
16351075	5999	967	0	-100	0	230	101300000	1000	0	0	-1	50
16363635	5996	897	0	-100	0	230	101300000	1000	0	0	-1	50
16376195	5996	969	0	-100	0	230	101300000	1000	0	0	-1	50
16388755	6007	960	0	-100	0	230	101300000	1000	0	0	-1	50
16401315	6001	921	0	-100	0	230	101300000	1000	0	0	-1	50
16413875	6000	882	0	-100	0	230	101300000	1000	0	0	-1	50
16426435	6007	960	0	-100	0	230	101300000	1000	0	0	-1	50
16438995	5998	906	0	-100	0	230	101300000	1000	0	0	-1	50
16451555	5999	937	0	-100	0	230	101300000	1000	0	0	-1	50
16464115	5994	901	0	-100	0	230	101300000	1000	0	0	-1	50
16476675	5996	888	0	-100	0	230	101300000	1000	0	0	-1	50
16489235	5996	942	0	-100	0	230	101300000	1000	0	0	-1	50
16501795	5995	931	0	-100	0	230	101300000	1000	0	0	-1	50
16514355	6007	958	0	-100	0	230	101300000	1000	0	0	-1	50
16526915	6001	899	0	-100	0	230	101300000	1000	0	0	-1	50
16539475	6001	939	0	-100	0	230	101300000	1000	0	0	-1	50
16552035	6002	892	0	-100	0	230	101300000	1000	0	0	-1	50
16564595	5991	957	0	-100	0	230	101300000	1000	0	0	-1	50
16577155	5995	956	0	-100	0	230	101300000	1000	0	0	-1	50
16589715	5995	944	0	-100	0	230	101300000	1000	0	0	-1	50
16602275	5995	898	0	-100	0	230	101300000	1000	0	0	-1	50
16614835	6004	913	0	-100	0	230	101300000	1000	0	0	-1	50
16627395	5997	938	0	-100	0	230	101300000	1000	0	0	-1	50
16639955	5995	942	0	-100	0	230	101300000	1000	0	0	-1	50
16652515	6008	925	0	-100	0	230	101300000	1000	0	0	-1	50
16665075	5996	889	0	-100	0	230	101300000	1000	0	0	-1	50
16677635	6000	932	0	-100	0	230	101300000	1000	0	0	-1	50
16690195	5999	916	0	-100	0	230	101300000	1000	0	0	-1	50
16702755	5995	926	0	-100	0	230	101300000	1000	0	0	-1	50
16715315	6003	933	0	-100	0	230	101300000	1000	0	0	-1	50
16727875	5995	967	0	-100	0	230	101300000	1000	0	0	-1	50
16740435	5998	956	0	-100	0	230	101300000	1000	0	0	-1	50
16752995	6001	942	0	-100	0	230	101300000	1000	0	0	-1	50
16765555	5997	952	0	-100	0	230	101300000	1000	0	0	-1	50
16778115	5995	915	0	-100	0	230	101300000	1000	0	0	-1	50
16790675	5999	908	0	-100	0	230	101300000	1000	0	0	-1	50
16803235	5991	908	0	-100	0	230	101300000	1000	0	0	-1	50
16815795	5999	955	0	-100	0	230	101300000	1000	0	0	-1	50
16828355	5997	917	0	-100	0	230	101300000	1000	0	0	-1	50
16840915	6000	916	0	-100	0	230	101300000	1000	0	0	-1	50
16853475	6007	941	0	-100	0	230	101300000	1000	0	0	-1	50
16866035	5996	963	0	-100	0	230	101300000	1000	0	0	-1	50
16878595	5999	943	0	-100	0	230	101300000	1000	0	0	-1	50
16891155	5993	901	0	-100	0	230	101300000	1000	0	0	-1	50
16903715	5995	925	0	-100	0	230	101300000	1000	0	0	-1	50
16916275	6003	912	0	-100	0	230	101300000	1000	0	0	-1	50
16928835	5997	899	0	-100	0	230	101300000	1000	0	0	-1	50
16941395	6000	919	0	-100	0	230	101300000	1000	0	0	-1	50
16953955	5995	966	0	-100	0	230	101300000	1000	0	0	-1	50
16966515	5998	891	0	-100	0	230	101300000	1000	0	0	-1	50
16979075	6000	925	0	-100	0	230	101300000	1000	0	0	-1	50
16991635	5998	972	0	-100	0	230	101300000	1000	0	0	-1	50
17004195	6001	910	0	-100	0	230	101300000	1000	0	0	-1	50
17016755	5994	941	0	-100	0	230	101300000	1000	0	0	-1	50
17029315	6002	929	0	-100	0	230	101300000	1000	0	0	-1	50
17041875	6006	933	0	-100	0	230	101300000	1000	0	0	-1	50
17054435	5998	908	0	-100	0	230	101300000	1000	0	0	-1	50
17066995	6001	904	0	-100	0	230	101300000	1000	0	0	-1	50
17079555	5998	946	0	-100	0	230	101300000	1000	0	0	-1	50
17092115	5999	908	0	-100	0	230	101300000	1000	0	0	-1	50
17104675	6004	940	0	-100	0	230	101300000	1000	0	0	-1	50
17117235	5994	924	0	-100	0	230	101300000	1000	0	0	-1	50
17129795	6002	948	0	-100	0	230	101300000	1000	0	0	-1	50
17142355	5997	974	0	-100	0	230	101300000	1000	0	0	-1	50
17154915	5998	955	0	-100	0	230	101300000	1000	0	0	-1	50
17167475	6000	923	0	-100	0	230	101300000	1000	0	0	-1	50
17180035	6000	962	0	-100	0	230	101300000	1000	0	0	-1	50
17192595	5999	919	0	-100	0	230	101300000	1000	0	0	-1	50
17205155	5993	976	0	-100	0	230	101300000	1000	0	0	-1	50
17217715	6000	925	0	-100	0	230	101300000	1000	0	0	-1	50
17230275	6006	903	0	-100	0	230	101300000	1000	0	0	-1	50
17242835	5998	936	0	-100	0	230	101300000	1000	0	0	-1	50
17255395	5997	944	0	-100	0	230	101300000	1000	0	0	-1	50
17267955	6002	922	0	-100	0	230	101300000	1000	0	0	-1	50
17280515	5998	913	0	-100	0	230	101300000	1000	0	0	-1	50
17293075	6000	947	0	-100	0	230	101300000	1000	0	0	-1	50
17305635	5998	916	0	-100	0	230	101300000	1000	0	0	-1	50
17318195	5995	959	0	-100	0	230	101300000	1000	0	0	-1	50
17330755	6003	901	0	-100	0	230	101300000	1000	0	0	-1	50
17343315	5997	945	0	-100	0	230	101300000	1000	0	0	-1	50
17355875	5997	902	0	-100	0	230	101300000	1000	0	0	-1	50
17368435	6004	927	0	-100	0	230	101300000	1000	0	0	-1	50
17380995	5995	923	0	-100	0	230	101300000	1000	0	0	-1	50
17393555	5996	880	0	-100	0	230	101300000	1000	0	0	-1	50
17406115	6000	881	0	-100	0	230	101300000	1000	0	0	-1	50
17418675	5998	936	0	-100	0	230	101300000	1000	0	0	-1	50
17431235	6003	946	0	-100	0	230	101300000	1000	0	0	-1	50
17443795	5998	883	0	-100	0	230	101300000	1000	0	0	-1	50
17456355	5999	921	0	-100	0	230	101300000	1000	0	0	-1	50
17468915	5997	926	0	-100	0	230	101300000	1000	0	0	-1	50
17481475	5995	948	0	-100	0	230	101300000	1000	0	0	-1	50
17494035	6003	951	0	-100	0	230	101300000	1000	0	0	-1	50
17506595	5994	969	0	-100	0	230	101300000	1000	0	0	-1	50
17519155	5999	965	0	-100	0	230	101300000	1000	0	0	-1	50
17531715	6000	973	0	-100	0	230	101300000	1000	0	0	-1	50
17544275	5999	917	0	-100	0	230	101300000	1000	0	0	-1	50
17556835	5996	873	0	-100	0	230	101300000	1000	0	0	-1	50
17569395	6001	962	0	-100	0	230	101300000	1000	0	0	-1	50
17581955	5993	961	0	-100	0	230	101300000	1000	0	0	-1	50
17594515	6004	962	0	-100	0	230	101300000	1000	0	0	-1	50
17607075	5995	965	0	-100	0	230	101300000	1000	0	0	-1	50
17619635	6004	905	0	-100	0	230	101300000	1000	0	0	-1	50
17632195	5990	889	0	-100	0	230	101300000	1000	0	0	-1	50
17644755	6004	921	0	-100	0	230	101300000	1000	0	0	-1	50
17657315	6001	874	0	-100	0	230	101300000	1000	0	0	-1	50
17669875	5999	934	0	-100	0	230	101300000	1000	0	0	-1	50
17682435	6008	969	0	-100	0	230	101300000	1000	0	0	-1	50
17694995	5997	882	0	-100	0	230	101300000	1000	0	0	-1	50
17707555	5993	952	0	-100	0	230	101300000	1000	0	0	-1	50
17720115	6002	886	0	-100	0	230	101300000	1000	0	0	-1	50
17732675	5996	938	0	-100	0	230	101300000	1000	0	0	-1	50
17745235	6000	927	0	-100	0	230	101300000	1000	0	0	-1	50
17757795	6000	952	0	-100	0	230	101300000	1000	0	0	-1	50
17770355	6002	924	0	-100	0	230	101300000	1000	0	0	-1	50
17782915	5997	940	0	-100	0	230	101300000	1000	0	0	-1	50
17795475	5995	948	0	-100	0	230	101300000	1000	0	0	-1	50
17808035	6001	937	0	-100	0	230	101300000	1000	0	0	-1	50
17820595	6000	942	0	-100	0	230	101300000	1000	0	0	-1	50
17833155	5994	937	0	-100	0	230	101300000	1000	0	0	-1	50
17845715	5994	895	0	-100	0	230	101300000	1000	0	0	-1	50
17858275	6004	952	0	-100	0	230	101300000	1000	0	0	-1	50
17870835	5996	961	0	-100	0	230	101300000	1000	0	0	-1	50
17883395	6002	936	0	-100	0	230	101300000	1000	0	0	-1	50
17895955	6004	959	0	-100	0	230	101300000	1000	0	0	-1	50
17908515	5994	962	0	-100	0	230	101300000	1000	0	0	-1	50
17921075	5992	917	0	-100	0	230	101300000	1000	0	0	-1	50
17933635	5999	948	0	-100	0	230	101300000	1000	0	0	-1	50
17946195	5995	888	0	-100	0	230	101300000	1000	0	0	-1	50
17958755	5992	915	0	-100	0	230	101300000	1000	0	0	-1	50
17971315	6009	979	0	-100	0	230	101300000	1000	0	0	-1	50
17983875	5998	941	0	-100	0	230	101300000	1000	0	0	-1	50
17996435	5999	914	0	-100	0	230	101300000	1000	0	0	-1	50
18008995	6002	940	0	-100	0	230	101300000	1000	0	0	-1	50
18021555	5994	937	0	-100	0	230	101300000	1000	0	0	-1	50
18034115	6006	972	0	-100	0	230	101300000	1000	0	0	-1	50
18046675	5995	965	0	-100	0	230	101300000	1000	0	0	-1	50
18059235	6005	895	0	-100	0	230	101300000	1000	0	0	-1	50
18071795	5995	977	0	-100	0	230	101300000	1000	0	0	-1	50
18084355	6000	931	0	-100	0	230	101300000	1000	0	0	-1	50
18096915	5997	888	0	-100	0	230	101300000	1000	0	0	-1	50
18109475	5995	954	0	-100	0	230	101300000	1000	0	0	-1	50
18122035	6000	918	0	-100	0	230	101300000	1000	0	0	-1	50
18134595	5995	960	0	-100	0	230	101300000	1000	0	0	-1	50
18147155	5992	967	0	-100	0	230	101300000	1000	0	0	-1	50
18159715	5997	906	0	-100	0	230	101300000	1000	0	0	-1	50
18172275	6002	949	0	-100	0	230	101300000	1000	0	0	-1	50
18184835	5998	918	0	-100	0	230	101300000	1000	0	0	-1	50
18197395	6000	952	0	-100	0	230	101300000	1000	0	0	-1	50
18209955	5995	969	0	-100	0	230	101300000	1000	0	0	-1	50
18222515	5995	960	0	-100	0	230	101300000	1000	0	0	-1	50
18235075	6000	911	0	-100	0	230	101300000	1000	0	0	-1	50
18247635	6004	966	0	-100	0	230	101300000	1000	0	0	-1	50
18260195	5990	895	0	-100	0	230	101300000	1000	0	0	-1	50
18272755	6007	936	0	-100	0	230	101300000	1000	0	0	-1	50
18285315	5998	955	0	-100	0	230	101300000	1000	0	0	-1	50
18297875	6004	917	0	-100	0	230	101300000	1000	0	0	-1	50
18310435	5996	911	0	-100	0	230	101300000	1000	0	0	-1	50
18322995	6005	969	0	-100	0	230	101300000	1000	0	0	-1	50
18335555	5996	904	0	-100	0	230	101300000	1000	0	0	-1	50
18348115	6004	938	0	-100	0	230	101300000	1000	0	0	-1	50
18360675	5998	901	0	-100	0	230	101300000	1000	0	0	-1	50
18373235	6002	883	0	-100	0	230	101300000	1000	0	0	-1	50
18385795	5992	965	0	-100	0	230	101300000	1000	0	0	-1	50
18398355	6002	910	0	-100	0	230	101300000	1000	0	0	-1	50
18410915	5996	957	0	-100	0	230	101300000	1000	0	0	-1	50
18423475	5997	954	0	-100	0	230	101300000	1000	0	0	-1	50
18436035	5997	920	0	-100	0	230	101300000	1000	0	0	-1	50
18448595	5994	962	0	-100	0	230	101300000	1000	0	0	-1	50
18461155	5995	944	0	-100	0	230	101300000	1000	0	0	-1	50
18473715	5997	955	0	-100	0	230	101300000	1000	0	0	-1	50
18486275	6003	916	0	-100	0	230	101300000	1000	0	0	-1	50
18498835	5999	925	0	-100	0	230	101300000	1000	0	0	-1	50
18511395	6000	905	0	-100	0	230	101300000	1000	0	0	-1	50
18523955	6000	977	0	-100	0	230	101300000	1000	0	0	-1	50
18536515	5993	939	0	-100	0	230	101300000	1000	0	0	-1	50
18549075	6001	964	0	-100	0	230	101300000	1000	0	0	-1	50
18561635	5995	960	0	-100	0	230	101300000	1000	0	0	-1	50
18574195	5997	921	0	-100	0	230	101300000	1000	0	0	-1	50
18586755	6001	961	0	-100	0	230	101300000	1000	0	0	-1	50
18599315	6000	913	0	-100	0	230	101300000	1000	0	0	-1	50
18611875	5997	936	0	-100	0	230	101300000	1000	0	0	-1	50
18624435	6001	891	0	-100	0	230	101300000	1000	0	0	-1	50
18636995	5999	977	0	-100	0	230	101300000	1000	0	0	-1	50
18649555	6002	905	0	-100	0	230	101300000	1000	0	0	-1	50
18662115	5998	914	0	-100	0	230	101300000	1000	0	0	-1	50
18674675	5999	966	0	-100	0	230	101300000	1000	0	0	-1	50
18687235	5999	950	0	-100	0	230	101300000	1000	0	0	-1	50
18699795	6005	897	0	-100	0	230	101300000	1000	0	0	-1	50
18712355	5998	884	0	-100	0	230	101300000	1000	0	0	-1	50
18724915	6001	900	0	-100	0	230	101300000	1000	0	0	-1	50
18737475	5997	956	0	-100	0	230	101300000	1000	0	0	-1	50
18750035	5995	941	0	-100	0	230	101300000	1000	0	0	-1	50
18762595	6001	945	0	-100	0	230	101300000	1000	0	0	-1	50
18775155	5996	917	0	-100	0	230	101300000	1000	0	0	-1	50
18787715	5999	952	0	-100	0	230	101300000	1000	0	0	-1	50
18800275	5998	900	0	-100	0	230	101300000	1000	0	0	-1	50
18812835	6001	958	0	-100	0	230	101300000	1000	0	0	-1	50
18825395	5998	950	0	-100	0	230	101300000	1000	0	0	-1	50
18837955	6000	902	0	-100	0	230	101300000	1000	0	0	-1	50
18850515	6003	876	0	-100	0	230	101300000	1000	0	0	-1	50
18863075	6000	914	0	-100	0	230	101300000	1000	0	0	-1	50
18875635	5999	942	0	-100	0	230	101300000	1000	0	0	-1	50
18888195	6004	902	0	-100	0	230	101300000	1000	0	0	-1	50
18900755	5999	900	0	-100	0	230	101300000	1000	0	0	-1	50
18913315	5998	919	0	-100	0	230	101300000	1000	0	0	-1	50
18925875	5996	923	0	-100	0	230	101300000	1000	0	0	-1	50
18938435	6001	910	0	-100	0	230	101300000	1000	0	0	-1	50
18950995	6001	895	0	-100	0	230	101300000	1000	0	0	-1	50
18963555	6001	895	0	-100	0	230	101300000	1000	0	0	-1	50
18976115	5998	906	0	-100	0	230	101300000	1000	0	0	-1	50
18988675	6001	938	0	-100	0	230	101300000	1000	0	0	-1	50
19001235	6003	904	0	-100	0	230	101300000	1000	0	0	-1	50
19013795	5992	945	0	-100	0	230	101300000	1000	0	0	-1	50
19026355	5995	886	0	-100	0	230	101300000	1000	0	0	-1	50
19038915	6002	942	0	-100	0	230	101300000	1000	0	0	-1	50
19051475	5999	942	0	-100	0	230	101300000	1000	0	0	-1	50
19064035	5994	887	0	-100	0	230	101300000	1000	0	0	-1	50
19076595	6003	895	0	-100	0	230	101300000	1000	0	0	-1	50
19089155	5990	902	0	-100	0	230	101300000	1000	0	0	-1	50
19101715	5998	915	0	-100	0	230	101300000	1000	0	0	-1	50
19114275	6000	926	0	-100	0	230	101300000	1000	0	0	-1	50
19126835	6003	918	0	-100	0	230	101300000	1000	0	0	-1	50
19139395	5999	920	0	-100	0	230	101300000	1000	0	0	-1	50
19151955	5995	901	0	-100	0	230	101300000	1000	0	0	-1	50
19164515	6001	944	0	-100	0	230	101300000	1000	0	0	-1	50
19177075	6001	908	0	-100	0	230	101300000	1000	0	0	-1	50
19189635	6006	884	0	-100	0	230	101300000	1000	0	0	-1	50
19202195	5997	966	0	-100	0	230	101300000	1000	0	0	-1	50
19214755	5999	963	0	-100	0	230	101300000	1000	0	0	-1	50
19227315	5995	945	0	-100	0	230	101300000	1000	0	0	-1	50
19239875	5994	963	0	-100	0	230	101300000	1000	0	0	-1	50
19252435	6000	935	0	-100	0	230	101300000	1000	0	0	-1	50
19264995	6001	927	0	-100	0	230	101300000	1000	0	0	-1	50
19277555	6002	899	0	-100	0	230	101300000	1000	0	0	-1	50
19290115	6000	902	0	-100	0	230	101300000	1000	0	0	-1	50
19302675	5998	903	0	-100	0	230	101300000	1000	0	0	-1	50
19315235	6001	946	0	-100	0	230	101300000	1000	0	0	-1	50
19327795	5999	941	0	-100	0	230	101300000	1000	0	0	-1	50
19340355	6004	904	0	-100	0	230	101300000	1000	0	0	-1	50
19352915	6000	931	0	-100	0	230	101300000	1000	0	0	-1	50
19365475	5994	971	0	-100	0	230	101300000	1000	0	0	-1	50
19378035	5995	905	0	-100	0	230	101300000	1000	0	0	-1	50
19390595	6002	922	0	-100	0	230	101300000	1000	0	0	-1	50
19403155	5991	888	0	-100	0	230	101300000	1000	0	0	-1	50
19415715	5997	901	0	-100	0	230	101300000	1000	0	0	-1	50
19428275	5997	891	0	-100	0	230	101300000	1000	0	0	-1	50
19440835	5996	903	0	-100	0	230	101300000	1000	0	0	-1	50
19453395	5998	888	0	-100	0	230	101300000	1000	0	0	-1	50
19465955	6003	906	0	-100	0	230	101300000	1000	0	0	-1	50
19478515	6001	883	0	-100	0	230	101300000	1000	0	0	-1	50
19491075	6003	946	0	-100	0	230	101300000	1000	0	0	-1	50
19503635	5999	934	0	-100	0	230	101300000	1000	0	0	-1	50
19516195	6000	969	0	-100	0	230	101300000	1000	0	0	-1	50
19528755	5997	918	0	-100	0	230	101300000	1000	0	0	-1	50
19541315	5998	887	0	-100	0	230	101300000	1000	0	0	-1	50
19553875	5998	937	0	-100	0	230	101300000	1000	0	0	-1	50
19566435	6001	902	0	-100	0	230	101300000	1000	0	0	-1	50
19578995	6003	887	0	-100	0	230	101300000	1000	0	0	-1	50
19591555	5995	955	0	-100	0	230	101300000	1000	0	0	-1	50
19604115	5995	975	0	-100	0	230	101300000	1000	0	0	-1	50
19616675	5994	968	0	-100	0	230	101300000	1000	0	0	-1	50
19629235	5998	973	0	-100	0	230	101300000	1000	0	0	-1	50
19641795	5998	926	0	-100	0	230	101300000	1000	0	0	-1	50
19654355	6000	897	0	-100	0	230	101300000	1000	0	0	-1	50
19666915	6003	949	0	-100	0	230	101300000	1000	0	0	-1	50
19679475	6000	959	0	-100	0	230	101300000	1000	0	0	-1	50
19692035	6001	891	0	-100	0	230	101300000	1000	0	0	-1	50
19704595	5996	938	0	-100	0	230	101300000	1000	0	0	-1	50
19717155	5990	928	0	-100	0	230	101300000	1000	0	0	-1	50
19729715	5995	901	0	-100	0	230	101300000	1000	0	0	-1	50
19742275	5994	966	0	-100	0	230	101300000	1000	0	0	-1	50
19754835	5992	958	0	-100	0	230	101300000	1000	0	0	-1	50
19767395	5995	930	0	-100	0	230	101300000	1000	0	0	-1	50
19779955	6000	924	0	-100	0	230	101300000	1000	0	0	-1	50
19792515	5992	938	0	-100	0	230	101300000	1000	0	0	-1	50
19805075	5992	927	0	-100	0	230	101300000	1000	0	0	-1	50
19817635	5995	948	0	-100	0	230	101300000	1000	0	0	-1	50
19830195	5996	909	0	-100	0	230	101300000	1000	0	0	-1	50
19842755	5995	956	0	-100	0	230	101300000	1000	0	0	-1	50
19855315	6000	893	0	-100	0	230	101300000	1000	0	0	-1	50
19867875	5996	934	0	-100	0	230	101300000	1000	0	0	-1	50
19880435	5995	946	0	-100	0	230	101300000	1000	0	0	-1	50
19892995	6000	911	0	-100	0	230	101300000	1000	0	0	-1	50
19905555	6000	906	0	-100	0	230	101300000	1000	0	0	-1	50
19918115	6003	913	0	-100	0	230	101300000	1000	0	0	-1	50
19930675	6004	962	0	-100	0	230	101300000	1000	0	0	-1	50
19943235	6002	949	0	-100	0	230	101300000	1000	0	0	-1	50
19955795	6007	936	0	-100	0	230	101300000	1000	0	0	-1	50
19968355	6002	965	0	-100	0	230	101300000	1000	0	0	-1	50
19980915	5998	889	0	-100	0	230	101300000	1000	0	0	-1	50
19993475	6000	912	0	-100	0	230	101300000	1000	0	0	-1	50
20006035	6002	912	0	-100	0	230	101300000	1000	0	0	-1	50
20018595	6006	956	0	-100	0	230	101300000	1000	0	0	-1	50
20031155	5992	932	0	-100	0	230	101300000	1000	0	0	-1	50
20043715	5995	948	0	-100	0	230	101300000	1000	0	0	-1	50
20056275	5998	926	0	-100	0	230	101300000	1000	0	0	-1	50
20068835	5995	920	0	-100	0	230	101300000	1000	0	0	-1	50
20081395	5995	914	0	-100	0	230	101300000	1000	0	0	-1	50
20093955	5996	915	0	-100	0	230	101300000	1000	0	0	-1	50
20106515	5995	931	0	-100	0	230	101300000	1000	0	0	-1	50
20119075	6003	905	0	-100	0	230	101300000	1000	0	0	-1	50
20131635	6000	978	0	-100	0	230	101300000	1000	0	0	-1	50
20144195	5997	958	0	-100	0	230	101300000	1000	0	0	-1	50
20156755	5994	925	0	-100	0	230	101300000	1000	0	0	-1	50
20169315	5999	978	0	-100	0	230	101300000	1000	0	0	-1	50
20181875	5997	884	0	-100	0	230	101300000	1000	0	0	-1	50
20194435	5997	915	0	-100	0	230	101300000	1000	0	0	-1	50
20206995	5998	967	0	-100	0	230	101300000	1000	0	0	-1	50
20219555	5999	907	0	-100	0	230	101300000	1000	0	0	-1	50
20232115	6004	915	0	-100	0	230	101300000	1000	0	0	-1	50
20244675	6000	890	0	-100	0	230	101300000	1000	0	0	-1	50
20257235	5995	911	0	-100	0	230	101300000	1000	0	0	-1	50
20269795	5997	876	0	-100	0	230	101300000	1000	0	0	-1	50
20282355	6005	965	0	-100	0	230	101300000	1000	0	0	-1	50
20294915	5994	945	0	-100	0	230	101300000	1000	0	0	-1	50
20307475	5996	921	0	-100	0	230	101300000	1000	0	0	-1	50
20320035	5994	896	0	-100	0	230	101300000	1000	0	0	-1	50
20332595	5997	902	0	-100	0	230	101300000	1000	0	0	-1	50
20345155	5997	947	0	-100	0	230	101300000	1000	0	0	-1	50
20357715	6000	979	0	-100	0	230	101300000	1000	0	0	-1	50
20370275	5996	950	0	-100	0	230	101300000	1000	0	0	-1	50
20382835	6000	906	0	-100	0	230	101300000	1000	0	0	-1	50
20395395	6004	883	0	-100	0	230	101300000	1000	0	0	-1	50
20407955	5995	968	0	-100	0	230	101300000	1000	0	0	-1	50
20420515	5996	955	0	-100	0	230	101300000	1000	0	0	-1	50
20433075	5996	932	0	-100	0	230	101300000	1000	0	0	-1	50
20445635	5995	925	0	-100	0	230	101300000	1000	0	0	-1	50
20458195	6007	940	0	-100	0	230	101300000	1000	0	0	-1	50
20470755	5998	881	0	-100	0	230	101300000	1000	0	0	-1	50
20483315	6001	926	0	-100	0	230	101300000	1000	0	0	-1	50
20495875	5998	905	0	-100	0	230	101300000	1000	0	0	-1	50
20508435	5997	949	0	-100	0	230	101300000	1000	0	0	-1	50
20520995	5995	901	0	-100	0	230	101300000	1000	0	0	-1	50
20533555	5999	946	0	-100	0	230	101300000	1000	0	0	-1	50
20546115	6000	892	0	-100	0	230	101300000	1000	0	0	-1	50
20558675	5995	948	0	-100	0	230	101300000	1000	0	0	-1	50
20571235	6009	966	0	-100	0	230	101300000	1000	0	0	-1	50
20583795	5998	909	0	-100	0	230	101300000	1000	0	0	-1	50
20596355	6003	913	0	-100	0	230	101300000	1000	0	0	-1	50
20608915	6000	960	0	-100	0	230	101300000	1000	0	0	-1	50
20621475	6000	911	0	-100	0	230	101300000	1000	0	0	-1	50
20634035	6001	881	0	-100	0	230	101300000	1000	0	0	-1	50
20646595	6000	897	0	-100	0	230	101300000	1000	0	0	-1	50
20659155	5997	924	0	-100	0	230	101300000	1000	0	0	-1	50
20671715	5997	972	0	-100	0	230	101300000	1000	0	0	-1	50
20684275	5999	891	0	-100	0	230	101300000	1000	0	0	-1	50
20696835	5991	970	0	-100	0	230	101300000	1000	0	0	-1	50
20709395	5994	889	0	-100	0	230	101300000	1000	0	0	-1	50
20721955	6005	913	0	-100	0	230	101300000	1000	0	0	-1	50
20734515	5999	957	0	-100	0	230	101300000	1000	0	0	-1	50
20747075	5995	963	0	-100	0	230	101300000	1000	0	0	-1	50
20759635	6004	878	0	-100	0	230	101300000	1000	0	0	-1	50
20772195	5995	954	0	-100	0	230	101300000	1000	0	0	-1	50
20784755	6005	939	0	-100	0	230	101300000	1000	0	0	-1	50
20797315	5995	893	0	-100	0	230	101300000	1000	0	0	-1	50
20809875	6003	895	0	-100	0	230	101300000	1000	0	0	-1	50
20822435	5994	902	0	-100	0	230	101300000	1000	0	0	-1	50
20834995	5994	950	0	-100	0	230	101300000	1000	0	0	-1	50
20847555	6003	942	0	-100	0	230	101300000	1000	0	0	-1	50
20860115	6000	902	0	-100	0	230	101300000	1000	0	0	-1	50
20872675	6000	908	0	-100	0	230	101300000	1000	0	0	-1	50
20885235	5998	891	0	-100	0	230	101300000	1000	0	0	-1	50
20897795	5999	936	0	-100	0	230	101300000	1000	0	0	-1	50
20910355	5998	968	0	-100	0	230	101300000	1000	0	0	-1	50
20922915	6003	964	0	-100	0	230	101300000	1000	0	0	-1	50
20935475	5997	928	0	-100	0	230	101300000	1000	0	0	-1	50
20948035	6003	916	0	-100	0	230	101300000	1000	0	0	-1	50
20960595	6000	977	0	-100	0	230	101300000	1000	0	0	-1	50
20973155	5987	926	0	-100	0	230	101300000	1000	0	0	-1	50
20985715	6001	973	0	-100	0	230	101300000	1000	0	0	-1	50
20998275	5999	956	0	-100	0	230	101300000	1000	0	0	-1	50
21010835	5999	896	0	-100	0	230	101300000	1000	0	0	-1	50
21023395	5997	938	0	-100	0	230	101300000	1000	0	0	-1	50
21035955	5999	951	0	-100	0	230	101300000	1000	0	0	-1	50
21048515	5996	964	0	-100	0	230	101300000	1000	0	0	-1	50
21061075	5994	942	0	-100	0	230	101300000	1000	0	0	-1	50
21073635	5998	926	0	-100	0	230	101300000	1000	0	0	-1	50
21086195	5998	957	0	-100	0	230	101300000	1000	0	0	-1	50
21098755	6005	911	0	-100	0	230	101300000	1000	0	0	-1	50
21111315	5999	905	0	-100	0	230	101300000	1000	0	0	-1	50
21123875	5998	950	0	-100	0	230	101300000	1000	0	0	-1	50
21136435	5995	936	0	-100	0	230	101300000	1000	0	0	-1	50
21148995	5998	889	0	-100	0	230	101300000	1000	0	0	-1	50
21161555	5993	959	0	-100	0	230	101300000	1000	0	0	-1	50
21174115	6002	910	0	-100	0	230	101300000	1000	0	0	-1	50
21186675	5995	883	0	-100	0	230	101300000	1000	0	0	-1	50
21199235	5996	917	0	-100	0	230	101300000	1000	0	0	-1	50
21211795	5993	886	0	-100	0	230	101300000	1000	0	0	-1	50
21224355	5999	959	0	-100	0	230	101300000	1000	0	0	-1	50
21236915	5997	947	0	-100	0	230	101300000	1000	0	0	-1	50
21249475	5998	907	0	-100	0	230	101300000	1000	0	0	-1	50
21262035	6000	916	0	-100	0	230	101300000	1000	0	0	-1	50
21274595	5996	889	0	-100	0	230	101300000	1000	0	0	-1	50
21287155	5996	943	0	-100	0	230	101300000	1000	0	0	-1	50
21299715	5997	953	0	-100	0	230	101300000	1000	0	0	-1	50
21312275	5996	947	0	-100	0	230	101300000	1000	0	0	-1	50
21324835	6004	908	0	-100	0	230	101300000	1000	0	0	-1	50
21337395	5998	904	0	-100	0	230	101300000	1000	0	0	-1	50
21349955	6003	927	0	-100	0	230	101300000	1000	0	0	-1	50
21362515	5999	951	0	-100	0	230	101300000	1000	0	0	-1	50
21375075	5998	903	0	-100	0	230	101300000	1000	0	0	-1	50
21387635	6000	901	0	-100	0	230	101300000	1000	0	0	-1	50
21400195	5998	894	0	-100	0	230	101300000	1000	0	0	-1	50
21412755	5998	927	0	-100	0	230	101300000	1000	0	0	-1	50
21425315	5994	934	0	-100	0	230	101300000	1000	0	0	-1	50
21437875	6000	888	0	-100	0	230	101300000	1000	0	0	-1	50
21450435	5995	931	0	-100	0	230	101300000	1000	0	0	-1	50
21462995	6001	894	0	-100	0	230	101300000	1000	0	0	-1	50
21475555	6000	918	0	-100	0	230	101300000	1000	0	0	-1	50
21488115	5995	966	0	-100	0	230	101300000	1000	0	0	-1	50
21500675	6001	927	0	-100	0	230	101300000	1000	0	0	-1	50
21513235	5998	929	0	-100	0	230	101300000	1000	0	0	-1	50
21525795	6000	936	0	-100	0	230	101300000	1000	0	0	-1	50
21538355	5998	871	0	-100	0	230	101300000	1000	0	0	-1	50
21550915	6008	926	0	-100	0	230	101300000	1000	0	0	-1	50
21563475	5996	922	0	-100	0	230	101300000	1000	0	0	-1	50
21576035	5999	949	0	-100	0	230	101300000	1000	0	0	-1	50
21588595	6003	932	0	-100	0	230	101300000	1000	0	0	-1	50
21601155	5988	899	0	-100	0	230	101300000	1000	0	0	-1	50
21613715	6003	895	0	-100	0	230	101300000	1000	0	0	-1	50
21626275	6000	910	0	-100	0	230	101300000	1000	0	0	-1	50
21638835	6004	913	0	-100	0	230	101300000	1000	0	0	-1	50
21651395	5996	912	0	-100	0	230	101300000	1000	0	0	-1	50
21663955	5999	935	0	-100	0	230	101300000	1000	0	0	-1	50
21676515	5996	899	0	-100	0	230	101300000	1000	0	0	-1	50
21689075	6001	931	0	-100	0	230	101300000	1000	0	0	-1	50
21701635	6003	931	0	-100	0	230	101300000	1000	0	0	-1	50
21714195	5999	876	0	-100	0	230	101300000	1000	0	0	-1	50
21726755	6000	951	0	-100	0	230	101300000	1000	0	0	-1	50
21739315	5995	916	0	-100	0	230	101300000	1000	0	0	-1	50
21751875	6007	893	0	-100	0	230	101300000	1000	0	0	-1	50
21764435	5995	945	0	-100	0	230	101300000	1000	0	0	-1	50
21776995	6004	905	0	-100	0	230	101300000	1000	0	0	-1	50
21789555	5998	960	0	-100	0	230	101300000	1000	0	0	-1	50
21802115	6000	895	0	-100	0	230	101300000	1000	0	0	-1	50
21814675	6001	950	0	-100	0	230	101300000	1000	0	0	-1	50
21827235	6004	919	0	-100	0	230	101300000	1000	0	0	-1	50
21839795	5993	941	0	-100	0	230	101300000	1000	0	0	-1	50
21852355	6000	922	0	-100	0	230	101300000	1000	0	0	-1	50
21864915	5998	908	0	-100	0	230	101300000	1000	0	0	-1	50
21877475	6003	895	0	-100	0	230	101300000	1000	0	0	-1	50
21890035	5995	884	0	-100	0	230	101300000	1000	0	0	-1	50
21902595	5994	915	0	-100	0	230	101300000	1000	0	0	-1	50
21915155	5998	946	0	-100	0	230	101300000	1000	0	0	-1	50
21927715	6000	877	0	-100	0	230	101300000	1000	0	0	-1	50
21940275	5999	893	0	-100	0	230	101300000	1000	0	0	-1	50
21952835	6001	887	0	-100	0	230	101300000	1000	0	0	-1	50
21965395	5998	950	0	-100	0	230	101300000	1000	0	0	-1	50
21977955	6000	962	0	-100	0	230	101300000	1000	0	0	-1	50
21990515	5997	915	0	-100	0	230	101300000	1000	0	0	-1	50
22003075	5995	950	0	-100	0	230	101300000	1000	0	0	-1	50
22015635	5996	934	0	-100	0	230	101300000	1000	0	0	-1	50
22028195	5995	909	0	-100	0	230	101300000	1000	0	0	-1	50
22040755	6002	919	0	-100	0	230	101300000	1000	0	0	-1	50
22053315	5995	903	0	-100	0	230	101300000	1000	0	0	-1	50
22065875	5999	878	0	-100	0	230	101300000	1000	0	0	-1	50
22078435	5998	927	0	-100	0	230	101300000	1000	0	0	-1	50
22090995	5999	929	0	-100	0	230	101300000	1000	0	0	-1	50
22103555	5998	950	0	-100	0	230	101300000	1000	0	0	-1	50
22116115	5999	931	0	-100	0	230	101300000	1000	0	0	-1	50
22128675	5994	941	0	-100	0	230	101300000	1000	0	0	-1	50
22141235	5996	926	0	-100	0	230	101300000	1000	0	0	-1	50
22153795	5997	944	0	-100	0	230	101300000	1000	0	0	-1	50
22166355	5999	927	0	-100	0	230	101300000	1000	0	0	-1	50
22178915	5999	943	0	-100	0	230	101300000	1000	0	0	-1	50
22191475	5999	895	0	-100	0	230	101300000	1000	0	0	-1	50
22204035	5997	913	0	-100	0	230	101300000	1000	0	0	-1	50
22216595	6001	928	0	-100	0	230	101300000	1000	0	0	-1	50
22229155	5991	919	0	-100	0	230	101300000	1000	0	0	-1	50
22241715	5994	919	0	-100	0	230	101300000	1000	0	0	-1	50
22254275	6003	945	0	-100	0	230	101300000	1000	0	0	-1	50
22266835	5997	937	0	-100	0	230	101300000	1000	0	0	-1	50
22279395	5995	932	0	-100	0	230	101300000	1000	0	0	-1	50
22291955	6001	912	0	-100	0	230	101300000	1000	0	0	-1	50
22304515	6004	913	0	-100	0	230	101300000	1000	0	0	-1	50
22317075	5995	935	0	-100	0	230	101300000	1000	0	0	-1	50
22329635	5999	945	0	-100	0	230	101300000	1000	0	0	-1	50
22342195	6000	962	0	-100	0	230	101300000	1000	0	0	-1	50
22354755	5994	963	0	-100	0	230	101300000	1000	0	0	-1	50
22367315	6000	966	0	-100	0	230	101300000	1000	0	0	-1	50
22379875	6000	956	0	-100	0	230	101300000	1000	0	0	-1	50
22392435	6003	971	0	-100	0	230	101300000	1000	0	0	-1	50
22404995	5997	916	0	-100	0	230	101300000	1000	0	0	-1	50
22417555	5999	890	0	-100	0	230	101300000	1000	0	0	-1	50
22430115	5998	886	0	-100	0	230	101300000	1000	0	0	-1	50
22442675	5997	902	0	-100	0	230	101300000	1000	0	0	-1	50
22455235	6002	894	0	-100	0	230	101300000	1000	0	0	-1	50
22467795	5991	921	0	-100	0	230	101300000	1000	0	0	-1	50
22480355	6001	971	0	-100	0	230	101300000	1000	0	0	-1	50
22492915	5998	957	0	-100	0	230	101300000	1000	0	0	-1	50
22505475	5994	882	0	-100	0	230	101300000	1000	0	0	-1	50
22518035	5996	964	0	-100	0	230	101300000	1000	0	0	-1	50
22530595	6004	975	0	-100	0	230	101300000	1000	0	0	-1	50
22543155	5988	965	0	-100	0	230	101300000	1000	0	0	-1	50
22555715	5996	891	0	-100	0	230	101300000	1000	0	0	-1	50
22568275	6003	973	0	-100	0	230	101300000	1000	0	0	-1	50
22580835	5997	953	0	-100	0	230	101300000	1000	0	0	-1	50
22593395	5994	925	0	-100	0	230	101300000	1000	0	0	-1	50
22605955	6003	956	0	-100	0	230	101300000	1000	0	0	-1	50
22618515	5999	878	0	-100	0	230	101300000	1000	0	0	-1	50
22631075	5995	939	0	-100	0	230	101300000	1000	0	0	-1	50
22643635	6005	951	0	-100	0	230	101300000	1000	0	0	-1	50
22656195	5994	967	0	-100	0	230	101300000	1000	0	0	-1	50
22668755	6002	909	0	-100	0	230	101300000	1000	0	0	-1	50
22681315	5997	951	0	-100	0	230	101300000	1000	0	0	-1	50
22693875	5995	931	0	-100	0	230	101300000	1000	0	0	-1	50
22706435	6004	961	0	-100	0	230	101300000	1000	0	0	-1	50
22718995	5996	954	0	-100	0	230	101300000	1000	0	0	-1	50
22731555	6001	964	0	-100	0	230	101300000	1000	0	0	-1	50
22744115	6001	961	0	-100	0	230	101300000	1000	0	0	-1	50
22756675	6001	919	0	-100	0	230	101300000	1000	0	0	-1	50
22769235	6000	944	0	-100	0	230	101300000	1000	0	0	-1	50
22781795	6005	929	0	-100	0	230	101300000	1000	0	0	-1	50
22794355	6000	970	0	-100	0	230	101300000	1000	0	0	-1	50
22806915	6007	909	0	-100	0	230	101300000	1000	0	0	-1	50
22819475	5994	940	0	-100	0	230	101300000	1000	0	0	-1	50
22832035	6005	961	0	-100	0	230	101300000	1000	0	0	-1	50
22844595	6002	911	0	-100	0	230	101300000	1000	0	0	-1	50
22857155	5990	871	0	-100	0	230	101300000	1000	0	0	-1	50
22869715	6000	930	0	-100	0	230	101300000	1000	0	0	-1	50
22882275	5997	937	0	-100	0	230	101300000	1000	0	0	-1	50
22894835	6004	951	0	-100	0	230	101300000	1000	0	0	-1	50
22907395	6000	947	0	-100	0	230	101300000	1000	0	0	-1	50
22919955	6001	965	0	-100	0	230	101300000	1000	0	0	-1	50
22932515	5998	948	0	-100	0	230	101300000	1000	0	0	-1	50
22945075	5999	968	0	-100	0	230	101300000	1000	0	0	-1	50
22957635	6009	930	0	-100	0	230	101300000	1000	0	0	-1	50
22970195	5998	976	0	-100	0	230	101300000	1000	0	0	-1	50
22982755	5997	924	0	-100	0	230	101300000	1000	0	0	-1	50
22995315	6003	947	0	-100	0	230	101300000	1000	0	0	-1	50
23007875	5994	942	0	-100	0	230	101300000	1000	0	0	-1	50
23020435	6002	943	0	-100	0	230	101300000	1000	0	0	-1	50
23032995	5994	962	0	-100	0	230	101300000	1000	0	0	-1	50
23045555	6005	936	0	-100	0	230	101300000	1000	0	0	-1	50
23058115	5995	944	0	-100	0	230	101300000	1000	0	0	-1	50
23070675	6004	960	0	-100	0	230	101300000	1000	0	0	-1	50
23083235	5998	890	0	-100	0	230	101300000	1000	0	0	-1	50
23095795	6003	889	0	-100	0	230	101300000	1000	0	0	-1	50
23108355	5997	948	0	-100	0	230	101300000	1000	0	0	-1	50
23120915	6000	926	0	-100	0	230	101300000	1000	0	0	-1	50
23133475	5995	941	0	-100	0	230	101300000	1000	0	0	-1	50
23146035	6003	951	0	-100	0	230	101300000	1000	0	0	-1	50
23158595	6000	896	0	-100	0	230	101300000	1000	0	0	-1	50
23171155	5995	943	0	-100	0	230	101300000	1000	0	0	-1	50
23183715	5995	941	0	-100	0	230	101300000	1000	0	0	-1	50
23196275	5998	914	0	-100	0	230	101300000	1000	0	0	-1	50
23208835	5997	910	0	-100	0	230	101300000	1000	0	0	-1	50
23221395	6001	921	0	-100	0	230	101300000	1000	0	0	-1	50
23233955	5999	874	0	-100	0	230	101300000	1000	0	0	-1	50
23246515	6004	949	0	-100	0	230	101300000	1000	0	0	-1	50
23259075	5997	928	0	-100	0	230	101300000	1000	0	0	-1	50
23271635	6003	905	0	-100	0	230	101300000	1000	0	0	-1	50
23284195	5996	906	0	-100	0	230	101300000	1000	0	0	-1	50
23296755	6000	971	0	-100	0	230	101300000	1000	0	0	-1	50
23309315	5999	921	0	-100	0	230	101300000	1000	0	0	-1	50
23321875	6000	948	0	-100	0	230	101300000	1000	0	0	-1	50
23334435	5998	896	0	-100	0	230	101300000	1000	0	0	-1	50
23346995	5995	966	0	-100	0	230	101300000	1000	0	0	-1	50
23359555	5996	918	0	-100	0	230	101300000	1000	0	0	-1	50
23372115	5998	899	0	-100	0	230	101300000	1000	0	0	-1	50
23384675	6002	928	0	-100	0	230	101300000	1000	0	0	-1	50
23397235	5994	912	0	-100	0	230	101300000	1000	0	0	-1	50
23409795	6005	973	0	-100	0	230	101300000	1000	0	0	-1	50
23422355	5995	915	0	-100	0	230	101300000	1000	0	0	-1	50
23434915	6001	911	0	-100	0	230	101300000	1000	0	0	-1	50
23447475	5999	914	0	-100	0	230	101300000	1000	0	0	-1	50
23460035	6003	898	0	-100	0	230	101300000	1000	0	0	-1	50
23472595	5995	906	0	-100	0	230	101300000	1000	0	0	-1	50
23485155	5990	885	0	-100	0	230	101300000	1000	0	0	-1	50
23497715	5998	918	0	-100	0	230	101300000	1000	0	0	-1	50
23510275	5998	875	0	-100	0	230	101300000	1000	0	0	-1	50
23522835	6003	910	0	-100	0	230	101300000	1000	0	0	-1	50
23535395	5995	878	0	-100	0	230	101300000	1000	0	0	-1	50
23547955	6004	871	0	-100	0	230	101300000	1000	0	0	-1	50
23560515	5997	971	0	-100	0	230	101300000	1000	0	0	-1	50
23573075	5996	904	0	-100	0	230	101300000	1000	0	0	-1	50
23585635	6004	899	0	-100	0	230	101300000	1000	0	0	-1	50
23598195	5991	929	0	-100	0	230	101300000	1000	0	0	-1	50
23610755	6008	895	0	-100	0	230	101300000	1000	0	0	-1	50
23623315	6000	923	0	-100	0	230	101300000	1000	0	0	-1	50
23635875	6001	948	0	-100	0	230	101300000	1000	0	0	-1	50
23648435	5997	966	0	-100	0	230	101300000	1000	0	0	-1	50
23660995	5997	930	0	-100	0	230	101300000	1000	0	0	-1	50
23673555	5994	913	0	-100	0	230	101300000	1000	0	0	-1	50
23686115	6003	924	0	-100	0	230	101300000	1000	0	0	-1	50
23698675	5997	965	0	-100	0	230	101300000	1000	0	0	-1	50
23711235	6000	900	0	-100	0	230	101300000	1000	0	0	-1	50
23723795	6000	905	0	-100	0	230	101300000	1000	0	0	-1	50
23736355	5996	963	0	-100	0	230	101300000	1000	0	0	-1	50
23748915	6004	888	0	-100	0	230	101300000	1000	0	0	-1	50
23761475	6000	930	0	-100	0	230	101300000	1000	0	0	-1	50
23774035	5995	964	0	-100	0	230	101300000	1000	0	0	-1	50
23786595	5994	915	0	-100	0	230	101300000	1000	0	0	-1	50
23799155	5992	881	0	-100	0	230	101300000	1000	0	0	-1	50
23811715	5999	917	0	-100	0	230	101300000	1000	0	0	-1	50
23824275	5995	914	0	-100	0	230	101300000	1000	0	0	-1	50
23836835	5997	938	0	-100	0	230	101300000	1000	0	0	-1	50
23849395	6001	908	0	-100	0	230	101300000	1000	0	0	-1	50
23861955	5997	945	0	-100	0	230	101300000	1000	0	0	-1	50
23874515	5994	915	0	-100	0	230	101300000	1000	0	0	-1	50
23887075	5999	959	0	-100	0	230	101300000	1000	0	0	-1	50
23899635	6001	960	0	-100	0	230	101300000	1000	0	0	-1	50
23912195	5994	980	0	-100	0	230	101300000	1000	0	0	-1	50
23924755	5999	950	0	-100	0	230	101300000	1000	0	0	-1	50
23937315	5996	963	0	-100	0	230	101300000	1000	0	0	-1	50
23949875	5996	927	0	-100	0	230	101300000	1000	0	0	-1	50
23962435	5995	952	0	-100	0	230	101300000	1000	0	0	-1	50
23974995	5998	912	0	-100	0	230	101300000	1000	0	0	-1	50
23987555	5995	928	0	-100	0	230	101300000	1000	0	0	-1	50
24000115	6001	932	0	-100	0	230	101300000	1000	0	0	-1	50
24012675	5999	957	0	-100	0	230	101300000	1000	0	0	-1	50
24025235	5997	888	0	-100	0	230	101300000	1000	0	0	-1	50
24037795	5998	944	0	-100	0	230	101300000	1000	0	0	-1	50
24050355	5995	902	0	-100	0	230	101300000	1000	0	0	-1	50
24062915	5992	927	0	-100	0	230	101300000	1000	0	0	-1	50
24075475	6003	918	0	-100	0	230	101300000	1000	0	0	-1	50
24088035	6000	887	0	-100	0	230	101300000	1000	0	0	-1	50
24100595	5995	953	0	-100	0	230	101300000	1000	0	0	-1	50
24113155	5995	908	0	-100	0	230	101300000	1000	0	0	-1	50
24125715	6004	942	0	-100	0	230	101300000	1000	0	0	-1	50
24138275	5996	907	0	-100	0	230	101300000	1000	0	0	-1	50
24150835	6005	904	0	-100	0	230	101300000	1000	0	0	-1	50
24163395	5996	940	0	-100	0	230	101300000	1000	0	0	-1	50
24175955	5999	953	0	-100	0	230	101300000	1000	0	0	-1	50
24188515	5997	928	0	-100	0	230	101300000	1000	0	0	-1	50
24201075	6003	923	0	-100	0	230	101300000	1000	0	0	-1	50
24213635	5997	981	0	-100	0	230	101300000	1000	0	0	-1	50
24226195	5998	952	0	-100	0	230	101300000	1000	0	0	-1	50
24238755	5998	910	0	-100	0	230	101300000	1000	0	0	-1	50
24251315	5994	920	0	-100	0	230	101300000	1000	0	0	-1	50
24263875	6002	951	0	-100	0	230	101300000	1000	0	0	-1	50
24276435	6000	889	0	-100	0	230	101300000	1000	0	0	-1	50
24288995	6001	979	0	-100	0	230	101300000	1000	0	0	-1	50
24301555	5997	900	0	-100	0	230	101300000	1000	0	0	-1	50
24314115	5997	905	0	-100	0	230	101300000	1000	0	0	-1	50
24326675	5999	944	0	-100	0	230	101300000	1000	0	0	-1	50
24339235	5994	914	0	-100	0	230	101300000	1000	0	0	-1	50
24351795	6000	934	0	-100	0	230	101300000	1000	0	0	-1	50
24364355	5992	910	0	-100	0	230	101300000	1000	0	0	-1	50
24376915	6004	908	0	-100	0	230	101300000	1000	0	0	-1	50
24389475	5998	902	0	-100	0	230	101300000	1000	0	0	-1	50
24402035	6001	908	0	-100	0	230	101300000	1000	0	0	-1	50
24414595	6000	912	0	-100	0	230	101300000	1000	0	0	-1	50
24427155	5994	896	0	-100	0	230	101300000	1000	0	0	-1	50
24439715	5994	919	0	-100	0	230	101300000	1000	0	0	-1	50
24452275	5999	879	0	-100	0	230	101300000	1000	0	0	-1	50
24464835	5996	942	0	-100	0	230	101300000	1000	0	0	-1	50
24477395	5999	900	0	-100	0	230	101300000	1000	0	0	-1	50
24489955	6000	962	0	-100	0	230	101300000	1000	0	0	-1	50
24502515	6004	907	0	-100	0	230	101300000	1000	0	0	-1	50
24515075	5994	918	0	-100	0	230	101300000	1000	0	0	-1	50
24527635	6007	962	0	-100	0	230	101300000	1000	0	0	-1	50
24540195	5995	904	0	-100	0	230	101300000	1000	0	0	-1	50
24552755	5999	929	0	-100	0	230	101300000	1000	0	0	-1	50
24565315	5995	922	0	-100	0	230	101300000	1000	0	0	-1	50
24577875	5995	923	0	-100	0	230	101300000	1000	0	0	-1	50
24590435	5996	969	0	-100	0	230	101300000	1000	0	0	-1	50
24602995	6000	977	0	-100	0	230	101300000	1000	0	0	-1	50
24615555	5999	976	0	-100	0	230	101300000	1000	0	0	-1	50
24628115	5997	962	0	-100	0	230	101300000	1000	0	0	-1	50
24640675	6000	971	0	-100	0	230	101300000	1000	0	0	-1	50
24653235	5998	922	0	-100	0	230	101300000	1000	0	0	-1	50
24665795	5997	963	0	-100	0	230	101300000	1000	0	0	-1	50
24678355	6000	897	0	-100	0	230	101300000	1000	0	0	-1	50
24690915	6000	937	0	-100	0	230	101300000	1000	0	0	-1	50
24703475	6005	969	0	-100	0	230	101300000	1000	0	0	-1	50
24716035	5995	944	0	-100	0	230	101300000	1000	0	0	-1	50
24728595	6000	970	0	-100	0	230	101300000	1000	0	0	-1	50
24741155	5995	910	0	-100	0	230	101300000	1000	0	0	-1	50
24753715	5995	923	0	-100	0	230	101300000	1000	0	0	-1	50
24766275	6001	960	0	-100	0	230	101300000	1000	0	0	-1	50
24778835	5995	979	0	-100	0	230	101300000	1000	0	0	-1	50
24791395	6002	975	0	-100	0	230	101300000	1000	0	0	-1	50
24803955	5995	899	0	-100	0	230	101300000	1000	0	0	-1	50
24816515	5998	890	0	-100	0	230	101300000	1000	0	0	-1	50
24829075	5995	918	0	-100	0	230	101300000	1000	0	0	-1	50
24841635	6003	918	0	-100	0	230	101300000	1000	0	0	-1	50
24854195	5998	967	0	-100	0	230	101300000	1000	0	0	-1	50
24866755	6004	960	0	-100	0	230	101300000	1000	0	0	-1	50
24879315	5999	900	0	-100	0	230	101300000	1000	0	0	-1	50
24891875	5999	949	0	-100	0	230	101300000	1000	0	0	-1	50
24904435	5995	915	0	-100	0	230	101300000	1000	0	0	-1	50
24916995	6000	912	0	-100	0	230	101300000	1000	0	0	-1	50
24929555	5997	892	0	-100	0	230	101300000	1000	0	0	-1	50
24942115	6001	942	0	-100	0	230	101300000	1000	0	0	-1	50
24954675	5995	905	0	-100	0	230	101300000	1000	0	0	-1	50
24967235	6002	924	0	-100	0	230	101300000	1000	0	0	-1	50
24979795	5998	923	0	-100	0	230	101300000	1000	0	0	-1	50
24992355	6000	943	0	-100	0	230	101300000	1000	0	0	-1	50
25004915	5994	920	0	-100	0	230	101300000	1000	0	0	-1	50
25017475	5999	938	0	-100	0	230	101300000	1000	0	0	-1	50
25030035	5995	965	0	-100	0	230	101300000	1000	0	0	-1	50
25042595	6008	960	0	-100	0	230	101300000	1000	0	0	-1	50
25055155	5988	972	0	-100	0	230	101300000	1000	0	0	-1	50
25067715	6002	908	0	-100	0	230	101300000	1000	0	0	-1	50
25080275	5995	918	0	-100	0	230	101300000	1000	0	0	-1	50
25092835	5998	912	0	-100	0	230	101300000	1000	0	0	-1	50
25105395	5998	918	0	-100	0	230	101300000	1000	0	0	-1	50
25117955	5995	930	0	-100	0	230	101300000	1000	0	0	-1	50
25130515	5999	886	0	-100	0	230	101300000	1000	0	0	-1	50
25143075	5990	967	0	-100	0	230	101300000	1000	0	0	-1	50
25155635	6000	980	0	-100	0	230	101300000	1000	0	0	-1	50
25168195	5996	889	0	-100	0	230	101300000	1000	0	0	-1	50
25180755	5995	961	0	-100	0	230	101300000	1000	0	0	-1	50
25193315	5999	944	0	-100	0	230	101300000	1000	0	0	-1	50
25205875	5995	894	0	-100	0	230	101300000	1000	0	0	-1	50
25218435	6003	952	0	-100	0	230	101300000	1000	0	0	-1	50
25230995	5996	930	0	-100	0	230	101300000	1000	0	0	-1	50
25243555	5995	948	0	-100	0	230	101300000	1000	0	0	-1	50
25256115	6002	921	0	-100	0	230	101300000	1000	0	0	-1	50
25268675	5994	940	0	-100	0	230	101300000	1000	0	0	-1	50
25281235	6004	938	0	-100	0	230	101300000	1000	0	0	-1	50
25293795	5996	962	0	-100	0	230	101300000	1000	0	0	-1	50
25306355	5998	901	0	-100	0	230	101300000	1000	0	0	-1	50
25318915	6003	919	0	-100	0	230	101300000	1000	0	0	-1	50
25331475	5996	889	0	-100	0	230	101300000	1000	0	0	-1	50
25344035	6008	893	0	-100	0	230	101300000	1000	0	0	-1	50
25356595	5994	963	0	-100	0	230	101300000	1000	0	0	-1	50
25369155	5990	901	0	-100	0	230	101300000	1000	0	0	-1	50
25381715	6000	908	0	-100	0	230	101300000	1000	0	0	-1	50
25394275	5998	943	0	-100	0	230	101300000	1000	0	0	-1	50
25406835	6000	945	0	-100	0	230	101300000	1000	0	0	-1	50
25419395	5998	934	0	-100	0	230	101300000	1000	0	0	-1	50
25431955	6003	953	0	-100	0	230	101300000	1000	0	0	-1	50
25444515	6003	913	0	-100	0	230	101300000	1000	0	0	-1	50
25457075	5997	940	0	-100	0	230	101300000	1000	0	0	-1	50
25469635	5996	947	0	-100	0	230	101300000	1000	0	0	-1	50
25482195	5997	921	0	-100	0	230	101300000	1000	0	0	-1	50
25494755	6003	887	0	-100	0	230	101300000	1000	0	0	-1	50
25507315	5999	901	0	-100	0	230	101300000	1000	0	0	-1	50
25519875	6003	963	0	-100	0	230	101300000	1000	0	0	-1	50
25532435	5997	961	0	-100	0	230	101300000	1000	0	0	-1	50
25544995	6001	892	0	-100	0	230	101300000	1000	0	0	-1	50
25557555	5998	916	0	-100	0	230	101300000	1000	0	0	-1	50
25570115	6001	892	0	-100	0	230	101300000	1000	0	0	-1	50
25582675	6000	960	0	-100	0	230	101300000	1000	0	0	-1	50
25595235	5999	928	0	-100	0	230	101300000	1000	0	0	-1	50
25607795	5995	925	0	-100	0	230	101300000	1000	0	0	-1	50
25620355	6003	897	0	-100	0	230	101300000	1000	0	0	-1	50
25632915	5999	901	0	-100	0	230	101300000	1000	0	0	-1	50
25645475	6001	949	0	-100	0	230	101300000	1000	0	0	-1	50
25658035	5994	896	0	-100	0	230	101300000	1000	0	0	-1	50
25670595	5994	940	0	-100	0	230	101300000	1000	0	0	-1	50
25683155	5997	973	0	-100	0	230	101300000	1000	0	0	-1	50
25695715	6002	930	0	-100	0	230	101300000	1000	0	0	-1	50
25708275	5998	937	0	-100	0	230	101300000	1000	0	0	-1	50
25720835	6000	924	0	-100	0	230	101300000	1000	0	0	-1	50
25733395	6003	907	0	-100	0	230	101300000	1000	0	0	-1	50
25745955	5998	927	0	-100	0	230	101300000	1000	0	0	-1	50
25758515	6000	969	0	-100	0	230	101300000	1000	0	0	-1	50
25771075	6005	896	0	-100	0	230	101300000	1000	0	0	-1	50
25783635	5994	893	0	-100	0	230	101300000	1000	0	0	-1	50
25796195	5995	948	0	-100	0	230	101300000	1000	0	0	-1	50
25808755	6003	886	0	-100	0	230	101300000	1000	0	0	-1	50
25821315	6001	905	0	-100	0	230	101300000	1000	0	0	-1	50
25833875	5995	913	0	-100	0	230	101300000	1000	0	0	-1	50
25846435	5995	907	0	-100	0	230	101300000	1000	0	0	-1	50
25858995	6004	924	0	-100	0	230	101300000	1000	0	0	-1	50
25871555	5995	973	0	-100	0	230	101300000	1000	0	0	-1	50
25884115	5992	942	0	-100	0	230	101300000	1000	0	0	-1	50
25896675	6001	973	0	-100	0	230	101300000	1000	0	0	-1	50
25909235	5997	975	0	-100	0	230	101300000	1000	0	0	-1	50
25921795	5995	934	0	-100	0	230	101300000	1000	0	0	-1	50
25934355	6001	900	0	-100	0	230	101300000	1000	0	0	-1	50
25946915	5998	928	0	-100	0	230	101300000	1000	0	0	-1	50
25959475	5996	882	0	-100	0	230	101300000	1000	0	0	-1	50
25972035	6003	915	0	-100	0	230	101300000	1000	0	0	-1	50
25984595	5996	918	0	-100	0	230	101300000	1000	0	0	-1	50
25997155	5987	913	0	-100	0	230	101300000	1000	0	0	-1	50
26009715	6003	936	0	-100	0	230	101300000	1000	0	0	-1	50
26022275	5995	929	0	-100	0	230	101300000	1000	0	0	-1	50
26034835	5995	957	0	-100	0	230	101300000	1000	0	0	-1	50
26047395	6003	919	0	-100	0	230	101300000	1000	0	0	-1	50
26059955	5995	951	0	-100	0	230	101300000	1000	0	0	-1	50
26072515	6000	876	0	-100	0	230	101300000	1000	0	0	-1	50
26085075	5998	964	0	-100	0	230	101300000	1000	0	0	-1	50
26097635	5999	885	0	-100	0	230	101300000	1000	0	0	-1	50
26110195	5998	977	0	-100	0	230	101300000	1000	0	0	-1	50
26122755	5997	965	0	-100	0	230	101300000	1000	0	0	-1	50
26135315	5998	931	0	-100	0	230	101300000	1000	0	0	-1	50
26147875	5995	961	0	-100	0	230	101300000	1000	0	0	-1	50
26160435	6003	884	0	-100	0	230	101300000	1000	0	0	-1	50
26172995	6004	908	0	-100	0	230	101300000	1000	0	0	-1	50
26185555	6001	955	0	-100	0	230	101300000	1000	0	0	-1	50
26198115	6000	951	0	-100	0	230	101300000	1000	0	0	-1	50
26210675	5996	887	0	-100	0	230	101300000	1000	0	0	-1	50
26223235	6001	938	0	-100	0	230	101300000	1000	0	0	-1	50
26235795	5999	936	0	-100	0	230	101300000	1000	0	0	-1	50
26248355	5998	973	0	-100	0	230	101300000	1000	0	0	-1	50
26260915	5999	916	0	-100	0	230	101300000	1000	0	0	-1	50
26273475	5997	882	0	-100	0	230	101300000	1000	0	0	-1	50
26286035	5997	894	0	-100	0	230	101300000	1000	0	0	-1	50
26298595	5998	970	0	-100	0	230	101300000	1000	0	0	-1	50
26311155	5987	962	0	-100	0	230	101300000	1000	0	0	-1	50
26323715	5995	908	0	-100	0	230	101300000	1000	0	0	-1	50
26336275	6001	946	0	-100	0	230	101300000	1000	0	0	-1	50
26348835	6002	930	0	-100	0	230	101300000	1000	0	0	-1	50
26361395	5999	971	0	-100	0	230	101300000	1000	0	0	-1	50
26373955	5994	896	0	-100	0	230	101300000	1000	0	0	-1	50
26386515	5994	882	0	-100	0	230	101300000	1000	0	0	-1	50
26399075	5996	888	0	-100	0	230	101300000	1000	0	0	-1	50
26411635	6001	954	0	-100	0	230	101300000	1000	0	0	-1	50
26424195	6007	887	0	-100	0	230	101300000	1000	0	0	-1	50
26436755	5996	922	0	-100	0	230	101300000	1000	0	0	-1	50
26449315	5997	914	0	-100	0	230	101300000	1000	0	0	-1	50
26461875	5995	936	0	-100	0	230	101300000	1000	0	0	-1	50
26474435	5997	912	0	-100	0	230	101300000	1000	0	0	-1	50
26486995	6008	882	0	-100	0	230	101300000	1000	0	0	-1	50
26499555	6000	901	0	-100	0	230	101300000	1000	0	0	-1	50
26512115	5996	896	0	-100	0	230	101300000	1000	0	0	-1	50
26524675	5998	891	0	-100	0	230	101300000	1000	0	0	-1	50
26537235	6001	887	0	-100	0	230	101300000	1000	0	0	-1	50
26549795	6003	942	0	-100	0	230	101300000	1000	0	0	-1	50
26562355	6005	960	0	-100	0	230	101300000	1000	0	0	-1	50
26574915	6000	922	0	-100	0	230	101300000	1000	0	0	-1	50
26587475	5997	919	0	-100	0	230	101300000	1000	0	0	-1	50
26600035	5996	889	0	-100	0	230	101300000	1000	0	0	-1	50
26612595	5996	959	0	-100	0	230	101300000	1000	0	0	-1	50
26625155	5989	943	0	-100	0	230	101300000	1000	0	0	-1	50
26637715	5999	932	0	-100	0	230	101300000	1000	0	0	-1	50
26650275	6004	978	0	-100	0	230	101300000	1000	0	0	-1	50
26662835	5995	891	0	-100	0	230	101300000	1000	0	0	-1	50
26675395	5992	934	0	-100	0	230	101300000	1000	0	0	-1	50
26687955	5994	961	0	-100	0	230	101300000	1000	0	0	-1	50
26700515	5996	900	0	-100	0	230	101300000	1000	0	0	-1	50
26713075	5995	910	0	-100	0	230	101300000	1000	0	0	-1	50
26725635	5995	914	0	-100	0	230	101300000	1000	0	0	-1	50
26738195	6000	888	0	-100	0	230	101300000	1000	0	0	-1	50
26750755	5998	950	0	-100	0	230	101300000	1000	0	0	-1	50
26763315	5995	920	0	-100	0	230	101300000	1000	0	0	-1	50
26775875	6003	947	0	-100	0	230	101300000	1000	0	0	-1	50
26788435	6001	917	0	-100	0	230	101300000	1000	0	0	-1	50
26800995	5997	937	0	-100	0	230	101300000	1000	0	0	-1	50
26813555	5996	942	0	-100	0	230	101300000	1000	0	0	-1	50
26826115	5993	894	0	-100	0	230	101300000	1000	0	0	-1	50
26838675	6000	968	0	-100	0	230	101300000	1000	0	0	-1	50
26851235	5997	908	0	-100	0	230	101300000	1000	0	0	-1	50
26863795	5991	908	0	-100	0	230	101300000	1000	0	0	-1	50
26876355	6003	883	0	-100	0	230	101300000	1000	0	0	-1	50
26888915	6000	921	0	-100	0	230	101300000	1000	0	0	-1	50
26901475	5994	886	0	-100	0	230	101300000	1000	0	0	-1	50
26914035	6003	933	0	-100	0	230	101300000	1000	0	0	-1	50
26926595	6007	966	0	-100	0	230	101300000	1000	0	0	-1	50
26939155	5988	937	0	-100	0	230	101300000	1000	0	0	-1	50
26951715	5995	911	0	-100	0	230	101300000	1000	0	0	-1	50
26964275	5999	936	0	-100	0	230	101300000	1000	0	0	-1	50
26976835	5999	890	0	-100	0	230	101300000	1000	0	0	-1	50
26989395	5997	938	0	-100	0	230	101300000	1000	0	0	-1	50
27001955	5999	933	0	-100	0	230	101300000	1000	0	0	-1	50
27014515	6000	900	0	-100	0	230	101300000	1000	0	0	-1	50
27027075	5998	895	0	-100	0	230	101300000	1000	0	0	-1	50
27039635	6002	919	0	-100	0	230	101300000	1000	0	0	-1	50
27052195	5997	953	0	-100	0	230	101300000	1000	0	0	-1	50
