timestamp	voltage	current	windSpeed	pitchAngle	rpm	temperature	ambientPressure	humidity	accelerationX	accelerationY	accelerationZ	currentSink
7040070	6012	861	0	-100	0	230	101300000	1000	0	0	-1	0
7047523	6014	865	0	-100	0	230	101300000	1000	0	0	-1	0
7060083	6012	869	0	-100	0	230	101300000	1000	0	0	-1	0
7072643	6009	872	0	-100	0	230	101300000	1000	0	0	-1	0
7085203	6025	866	0	-100	0	230	101300000	1000	0	0	-1	0
7097763	6012	863	0	-100	0	230	101300000	1000	0	0	-1	0
7110323	6010	866	0	-100	0	230	101300000	1000	0	0	-1	0
7122883	6019	866	0	-100	0	230	101300000	1000	0	0	-1	0
7135443	6011	865	0	-100	0	230	101300000	1000	0	0	-1	0
7148004	6019	868	0	-100	0	230	101300000	1000	0	0	-1	0
7160563	6011	864	0	-100	0	230	101300000	1000	0	0	-1	0
7173123	6015	860	0	-100	0	230	101300000	1000	0	0	-1	0
7185683	6013	866	0	-100	0	230	101300000	1000	0	0	-1	0
7198243	6009	868	0	-100	0	230	101300000	1000	0	0	-1	0
7210803	6011	862	0	-100	0	230	101300000	1000	0	0	-1	0
7223363	6015	860	0	-100	0	230	101300000	1000	0	0	-1	0
7235923	6012	860	0	-100	0	230	101300000	1000	0	0	-1	0
7248483	6016	866	0	-100	0	230	101300000	1000	0	0	-1	0
7261043	6015	863	0	-100	0	230	101300000	1000	0	0	-1	0
7273603	6012	867	0	-100	0	230	101300000	1000	0	0	-1	0
7286163	6016	865	0	-100	0	230	101300000	1000	0	0	-1	0
7298723	6017	867	0	-100	0	230	101300000	1000	0	0	-1	0
7311283	6010	864	0	-100	0	230	101300000	1000	0	0	-1	0
7323843	6011	871	0	-100	0	230	101300000	1000	0	0	-1	0
7336403	6018	872	0	-100	0	230	101300000	1000	0	0	-1	0
7348963	6009	863	0	-100	0	230	101300000	1000	0	0	-1	0
7694675	5859	1443	0	-100	0	230	101300000	1000	0	0	-1	600
7707235	5874	1449	0	-100	0	230	101300000	1000	0	0	-1	600
7719795	5870	1447	0	-100	0	230	101300000	1000	0	0	-1	600
7732355	5862	1443	0	-100	0	230	101300000	1000	0	0	-1	600
7744915	5867	1449	0	-100	0	230	101300000	1000	0	0	-1	600
7757475	5871	1445	0	-100	0	230	101300000	1000	0	0	-1	600
7770035	5866	1441	0	-100	0	230	101300000	1000	0	0	-1	600
7782595	5868	1447	0	-100	0	230	101300000	1000	0	0	-1	600
7795155	5869	1446	0	-100	0	230	101300000	1000	0	0	-1	600
7807715	5875	1449	0	-100	0	230	101300000	1000	0	0	-1	600
7820275	5867	1442	0	-100	0	230	101300000	1000	0	0	-1	600
7832835	5865	1445	0	-100	0	230	101300000	1000	0	0	-1	600
7845395	5865	1450	0	-100	0	230	101300000	1000	0	0	-1	600
7857955	5868	1451	0	-100	0	230	101300000	1000	0	0	-1	600
7870515	5873	1440	0	-100	0	230	101300000	1000	0	0	-1	600
7883075	5867	1443	0	-100	0	230	101300000	1000	0	0	-1	600
7895635	5865	1455	0	-100	0	230	101300000	1000	0	0	-1	600
7908195	5871	1445	0	-100	0	230	101300000	1000	0	0	-1	600
7920755	5862	1443	0	-100	0	230	101300000	1000	0	0	-1	600
7933315	5856	1445	0	-100	0	230	101300000	1000	0	0	-1	600
7945875	5859	1453	0	-100	0	230	101300000	1000	0	0	-1	600
7958435	5861	1451	0	-100	0	230	101300000	1000	0	0	-1	600
7970995	5864	1449	0	-100	0	230	101300000	1000	0	0	-1	600
7983555	5857	1447	0	-100	0	230	101300000	1000	0	0	-1	600
7996115	5862	1456	0	-100	0	230	101300000	1000	0	0	-1	600
8008675	5871	1453	0	-100	0	230	101300000	1000	0	0	-1	600
8021235	5864	1445	0	-100	0	230	101300000	1000	0	0	-1	600
8033795	5861	1446	0	-100	0	230	101300000	1000	0	0	-1	600
8046355	5865	1450	0	-100	0	230	101300000	1000	0	0	-1	600
8058915	5857	1447	0	-100	0	230	101300000	1000	0	0	-1	600
8071475	5863	1455	0	-100	0	230	101300000	1000	0	0	-1	600
8084035	5869	1453	0	-100	0	230	101300000	1000	0	0	-1	600
8096595	5870	1446	0	-100	0	230	101300000	1000	0	0	-1	600
8109155	5869	1445	0	-100	0	230	101300000	1000	0	0	-1	600
8121715	5859	1457	0	-100	0	230	101300000	1000	0	0	-1	600
8134275	5868	1447	0	-100	0	230	101300000	1000	0	0	-1	600
8146835	5858	1442	0	-100	0	230	101300000	1000	0	0	-1	600
8159395	5865	1451	0	-100	0	230	101300000	1000	0	0	-1	600
8171955	5873	1446	0	-100	0	230	101300000	1000	0	0	-1	600
8184515	5864	1444	0	-100	0	230	101300000	1000	0	0	-1	600
8197075	5864	1451	0	-100	0	230	101300000	1000	0	0	-1	600
8209635	5862	1452	0	-100	0	230	101300000	1000	0	0	-1	600
8222195	5873	1448	0	-100	0	230	101300000	1000	0	0	-1	600
8234755	5867	1441	0	-100	0	230	101300000	1000	0	0	-1	600
8247315	5865	1454	0	-100	0	230	101300000	1000	0	0	-1	600
8259875	5869	1450	0	-100	0	230	101300000	1000	0	0	-1	600
8272435	5876	1452	0	-100	0	230	101300000	1000	0	0	-1	600
8284995	5866	1451	0	-100	0	230	101300000	1000	0	0	-1	600
8297555	5857	1448	0	-100	0	230	101300000	1000	0	0	-1	600
8310115	5862	1451	0	-100	0	230	101300000	1000	0	0	-1	600
8322675	5866	1449	0	-100	0	230	101300000	1000	0	0	-1	600
8335235	5866	1445	0	-100	0	230	101300000	1000	0	0	-1	600
8347795	5859	1444	0	-100	0	230	101300000	1000	0	0	-1	600
8360355	5865	1456	0	-100	0	230	101300000	1000	0	0	-1	600
8372915	5867	1453	0	-100	0	230	101300000	1000	0	0	-1	600
8385475	5875	1447	0	-100	0	230	101300000	1000	0	0	-1	600
8398035	5871	1453	0	-100	0	230	101300000	1000	0	0	-1	600
8410595	5870	1451	0	-100	0	230	101300000	1000	0	0	-1	600
8423155	5869	1458	0	-100	0	230	101300000	1000	0	0	-1	600
8435715	5862	1449	0	-100	0	230	101300000	1000	0	0	-1	600
8448275	5869	1453	0	-100	0	230	101300000	1000	0	0	-1	600
8460835	5863	1448	0	-100	0	230	101300000	1000	0	0	-1	600
8473395	5859	1455	0	-100	0	230	101300000	1000	0	0	-1	600
8485955	5861	1449	0	-100	0	230	101300000	1000	0	0	-1	600
8498515	5873	1452	0	-100	0	230	101300000	1000	0	0	-1	600
8511075	5869	1453	0	-100	0	230	101300000	1000	0	0	-1	600
8523635	5860	1460	0	-100	0	230	101300000	1000	0	0	-1	600
8536195	5866	1453	0	-100	0	230	101300000	1000	0	0	-1	600
8548755	5870	1455	0	-100	0	230	101300000	1000	0	0	-1	600
8561315	5862	1447	0	-100	0	230	101300000	1000	0	0	-1	600
8573875	5860	1453	0	-100	0	230	101300000	1000	0	0	-1	600
8586435	5865	1453	0	-100	0	230	101300000	1000	0	0	-1	600
8598995	5866	1454	0	-100	0	230	101300000	1000	0	0	-1	600
8611555	5863	1455	0	-100	0	230	101300000	1000	0	0	-1	600
8624115	5875	1439	0	-100	0	230	101300000	1000	0	0	-1	600
8636675	5861	1443	0	-100	0	230	101300000	1000	0	0	-1	600
8649235	5861	1449	0	-100	0	230	101300000	1000	0	0	-1	600
8661795	5865	1451	0	-100	0	230	101300000	1000	0	0	-1	600
8674355	5861	1457	0	-100	0	230	101300000	1000	0	0	-1	600
8686915	5869	1454	0	-100	0	230	101300000	1000	0	0	-1	600
8699475	5857	1454	0	-100	0	230	101300000	1000	0	0	-1	600
8712035	5861	1448	0	-100	0	230	101300000	1000	0	0	-1	600
8724595	5859	1448	0	-100	0	230	101300000	1000	0	0	-1	600
8737155	5872	1458	0	-100	0	230	101300000	1000	0	0	-1	600
8749715	5868	1449	0	-100	0	230	101300000	1000	0	0	-1	600
8762275	5864	1454	0	-100	0	230	101300000	1000	0	0	-1	600
8774835	5871	1448	0	-100	0	230	101300000	1000	0	0	-1	600
8787395	5864	1456	0	-100	0	230	101300000	1000	0	0	-1	600
8799955	5867	1459	0	-100	0	230	101300000	1000	0	0	-1	600
8812515	5865	1446	0	-100	0	230	101300000	1000	0	0	-1	600
8825075	5861	1445	0	-100	0	230	101300000	1000	0	0	-1	600
8837635	5863	1454	0	-100	0	230	101300000	1000	0	0	-1	600
8850195	5868	1456	0	-100	0	230	101300000	1000	0	0	-1	600
8862755	5864	1449	0	-100	0	230	101300000	1000	0	0	-1	600
8875315	5863	1454	0	-100	0	230	101300000	1000	0	0	-1	600
8887875	5869	1447	0	-100	0	230	101300000	1000	0	0	-1	600
8900435	5866	1446	0	-100	0	230	101300000	1000	0	0	-1	600
8912995	5871	1455	0	-100	0	230	101300000	1000	0	0	-1	600
8925555	5869	1443	0	-100	0	230	101300000	1000	0	0	-1	600
8938115	5871	1460	0	-100	0	230	101300000	1000	0	0	-1	600
8950675	5868	1451	0	-100	0	230	101300000	1000	0	0	-1	600
8963235	5866	1449	0	-100	0	230	101300000	1000	0	0	-1	600
8975795	5867	1449	0	-100	0	230	101300000	1000	0	0	-1	600
8988355	5874	1452	0	-100	0	230	101300000	1000	0	0	-1	600
9000915	5869	1448	0	-100	0	230	101300000	1000	0	0	-1	600
9013475	5860	1457	0	-100	0	230	101300000	1000	0	0	-1	600
9026035	5861	1450	0	-100	0	230	101300000	1000	0	0	-1	600
9038595	5868	1449	0	-100	0	230	101300000	1000	0	0	-1	600
9051155	5868	1452	0	-100	0	230	101300000	1000	0	0	-1	600
9063715	5864	1450	0	-100	0	230	101300000	1000	0	0	-1	600
9076275	5867	1449	0	-100	0	230	101300000	1000	0	0	-1	600
9088835	5869	1444	0	-100	0	230	101300000	1000	0	0	-1	600
9101395	5857	1450	0	-100	0	230	101300000	1000	0	0	-1	600
9113955	5861	1449	0	-100	0	230	101300000	1000	0	0	-1	600
9126515	5862	1449	0	-100	0	230	101300000	1000	0	0	-1	600
9139075	5869	1455	0	-100	0	230	101300000	1000	0	0	-1	600
9151635	5868	1450	0	-100	0	230	101300000	1000	0	0	-1	600
9164195	5866	1447	0	-100	0	230	101300000	1000	0	0	-1	600
9176755	5865	1461	0	-100	0	230	101300000	1000	0	0	-1	600
9189315	5866	1454	0	-100	0	230	101300000	1000	0	0	-1	600
9201875	5861	1457	0	-100	0	230	101300000	1000	0	0	-1	600
9214435	5858	1455	0	-100	0	230	101300000	1000	0	0	-1	600
9226995	5864	1454	0	-100	0	230	101300000	1000	0	0	-1	600
9239555	5857	1446	0	-100	0	230	101300000	1000	0	0	-1	600
9252115	5863	1455	0	-100	0	230	101300000	1000	0	0	-1	600
9264675	5864	1450	0	-100	0	230	101300000	1000	0	0	-1	600
9277235	5867	1461	0	-100	0	230	101300000	1000	0	0	-1	600
9289795	5870	1454	0	-100	0	230	101300000	1000	0	0	-1	600
9302355	5865	1447	0	-100	0	230	101300000	1000	0	0	-1	600
9314915	5874	1451	0	-100	0	230	101300000	1000	0	0	-1	600
9327475	5861	1452	0	-100	0	230	101300000	1000	0	0	-1	600
9340035	5869	1445	0	-100	0	230	101300000	1000	0	0	-1	600
9352595	5861	1447	0	-100	0	230	101300000	1000	0	0	-1	600
9365155	5874	1453	0	-100	0	230	101300000	1000	0	0	-1	600
9377715	5853	1453	0	-100	0	230	101300000	1000	0	0	-1	600
9390275	5870	1456	0	-100	0	230	101300000	1000	0	0	-1	600
9402835	5862	1448	0	-100	0	230	101300000	1000	0	0	-1	600
9415395	5867	1455	0	-100	0	230	101300000	1000	0	0	-1	600
9453075	5867	1454	0	-100	0	230	101300000	1000	0	0	-1	600
9465635	5866	1448	0	-100	0	230	101300000	1000	0	0	-1	600
9478195	5867	1454	0	-100	0	230	101300000	1000	0	0	-1	600
9490755	5865	1451	0	-100	0	230	101300000	1000	0	0	-1	600
9503315	5864	1453	0	-100	0	230	101300000	1000	0	0	-1	600
9515875	5868	1455	0	-100	0	230	101300000	1000	0	0	-1	600
9528435	5869	1455	0	-100	0	230	101300000	1000	0	0	-1	600
9540995	5865	1448	0	-100	0	230	101300000	1000	0	0	-1	600
9553555	5863	1454	0	-100	0	230	101300000	1000	0	0	-1	600
9566115	5861	1452	0	-100	0	230	101300000	1000	0	0	-1	600
9578675	5861	1453	0	-100	0	230	101300000	1000	0	0	-1	600
9591235	5866	1448	0	-100	0	230	101300000	1000	0	0	-1	600
9691715	5869	1447	0	-100	0	230	101300000	1000	0	0	-1	600
9704275	5860	1456	0	-100	0	230	101300000	1000	0	0	-1	600
9716835	5859	1453	0	-100	0	230	101300000	1000	0	0	-1	600
9729395	5861	1451	0	-100	0	230	101300000	1000	0	0	-1	600
9741955	5870	1455	0	-100	0	230	101300000	1000	0	0	-1	600
9754515	5867	1447	0	-100	0	230	101300000	1000	0	0	-1	600
9767075	5865	1454	0	-100	0	230	101300000	1000	0	0	-1	600
9779635	5864	1449	0	-100	0	230	101300000	1000	0	0	-1	600
9792195	5863	1456	0	-100	0	230	101300000	1000	0	0	-1	600
9804755	5865	1453	0	-100	0	230	101300000	1000	0	0	-1	600
9817315	5861	1448	0	-100	0	230	101300000	1000	0	0	-1	600
9829875	5857	1451	0	-100	0	230	101300000	1000	0	0	-1	600
9842435	5864	1449	0	-100	0	230	101300000	1000	0	0	-1	600
9854995	5868	1455	0	-100	0	230	101300000	1000	0	0	-1	600
9867555	5867	1450	0	-100	0	230	101300000	1000	0	0	-1	600
9880115	5868	1450	0	-100	0	230	101300000	1000	0	0	-1	600
9892675	5865	1450	0	-100	0	230	101300000	1000	0	0	-1	600
9905235	5865	1458	0	-100	0	230	101300000	1000	0	0	-1	600
9917795	5863	1453	0	-100	0	230	101300000	1000	0	0	-1	600
9930355	5866	1449	0	-100	0	230	101300000	1000	0	0	-1	600
9942915	5858	1447	0	-100	0	230	101300000	1000	0	0	-1	600
9955475	5859	1451	0	-100	0	230	101300000	1000	0	0	-1	600
9968035	5866	1457	0	-100	0	230	101300000	1000	0	0	-1	600
9980595	5873	1449	0	-100	0	230	101300000	1000	0	0	-1	600
9993155	5877	1451	0	-100	0	230	101300000	1000	0	0	-1	600
10005715	5863	1451	0	-100	0	230	101300000	1000	0	0	-1	600
10018275	5861	1450	0	-100	0	230	101300000	1000	0	0	-1	600
10030835	5863	1455	0	-100	0	230	101300000	1000	0	0	-1	600
10043395	5869	1451	0	-100	0	230	101300000	1000	0	0	-1	600
10055955	5859	1448	0	-100	0	230	101300000	1000	0	0	-1	600
10068515	5855	1452	0	-100	0	230	101300000	1000	0	0	-1	600
10081075	5859	1453	0	-100	0	230	101300000	1000	0	0	-1	600
10093635	5857	1454	0	-100	0	230	101300000	1000	0	0	-1	600
10106195	5865	1454	0	-100	0	230	101300000	1000	0	0	-1	600
10118755	5866	1449	0	-100	0	230	101300000	1000	0	0	-1	600
10131315	5869	1453	0	-100	0	230	101300000	1000	0	0	-1	600
10143875	5867	1449	0	-100	0	230	101300000	1000	0	0	-1	600
10156435	5865	1458	0	-100	0	230	101300000	1000	0	0	-1	600
10168995	5867	1459	0	-100	0	230	101300000	1000	0	0	-1	600
10181555	5862	1450	0	-100	0	230	101300000	1000	0	0	-1	600
10194115	5861	1451	0	-100	0	230	101300000	1000	0	0	-1	600
10206675	5865	1455	0	-100	0	230	101300000	1000	0	0	-1	600
10219235	5861	1445	0	-100	0	230	101300000	1000	0	0	-1	600
10231795	5855	1455	0	-100	0	230	101300000	1000	0	0	-1	600
10244355	5861	1445	0	-100	0	230	101300000	1000	0	0	-1	600
10256915	5861	1449	0	-100	0	230	101300000	1000	0	0	-1	600
10269475	5857	1456	0	-100	0	230	101300000	1000	0	0	-1	600
10282035	5862	1456	0	-100	0	230	101300000	1000	0	0	-1	600
10294595	5874	1453	0	-100	0	230	101300000	1000	0	0	-1	600
10307155	5873	1452	0	-100	0	230	101300000	1000	0	0	-1	600
10319715	5862	1452	0	-100	0	230	101300000	1000	0	0	-1	600
10332275	5855	1450	0	-100	0	230	101300000	1000	0	0	-1	600
10344835	5866	1457	0	-100	0	230	101300000	1000	0	0	-1	600
10357395	5861	1451	0	-100	0	230	101300000	1000	0	0	-1	600
10369955	5859	1451	0	-100	0	230	101300000	1000	0	0	-1	600
10382515	5859	1457	0	-100	0	230	101300000	1000	0	0	-1	600
10395075	5865	1451	0	-100	0	230	101300000	1000	0	0	-1	600
10407635	5862	1447	0	-100	0	230	101300000	1000	0	0	-1	600
10420195	5857	1452	0	-100	0	230	101300000	1000	0	0	-1	600
10432755	5860	1453	0	-100	0	230	101300000	1000	0	0	-1	600
10445315	5865	1459	0	-100	0	230	101300000	1000	0	0	-1	600
10457875	5870	1453	0	-100	0	230	101300000	1000	0	0	-1	600
10470435	5860	1447	0	-100	0	230	101300000	1000	0	0	-1	600
10482995	5861	1447	0	-100	0	230	101300000	1000	0	0	-1	600
10495555	5865	1453	0	-100	0	230	101300000	1000	0	0	-1	600
10508115	5863	1451	0	-100	0	230	101300000	1000	0	0	-1	600
10520675	5862	1452	0	-100	0	230	101300000	1000	0	0	-1	600
10533235	5873	1457	0	-100	0	230	101300000	1000	0	0	-1	600
10545795	5866	1455	0	-100	0	230	101300000	1000	0	0	-1	600
10558355	5863	1452	0	-100	0	230	101300000	1000	0	0	-1	600
10570915	5866	1448	0	-100	0	230	101300000	1000	0	0	-1	600
10583475	5862	1454	0	-100	0	230	101300000	1000	0	0	-1	600
10596035	5866	1457	0	-100	0	230	101300000	1000	0	0	-1	600
10608595	5873	1450	0	-100	0	230	101300000	1000	0	0	-1	600
10621155	5867	1451	0	-100	0	230	101300000	1000	0	0	-1	600
10633715	5861	1456	0	-100	0	230	101300000	1000	0	0	-1	600
10646275	5866	1453	0	-100	0	230	101300000	1000	0	0	-1	600
10658835	5862	1452	0	-100	0	230	101300000	1000	0	0	-1	600
10671395	5864	1452	0	-100	0	230	101300000	1000	0	0	-1	600
10683955	5866	1452	0	-100	0	230	101300000	1000	0	0	-1	600
10696515	5865	1441	0	-100	0	230	101300000	1000	0	0	-1	600
10709075	5861	1451	0	-100	0	230	101300000	1000	0	0	-1	600
10721635	5865	1453	0	-100	0	230	101300000	1000	0	0	-1	600
10734195	5866	1449	0	-100	0	230	101300000	1000	0	0	-1	600
10746755	5855	1445	0	-100	0	230	101300000	1000	0	0	-1	600
10759315	5857	1446	0	-100	0	230	101300000	1000	0	0	-1	600
10771875	5868	1453	0	-100	0	230	101300000	1000	0	0	-1	600
10784435	5861	1449	0	-100	0	230	101300000	1000	0	0	-1	600
10796995	5862	1452	0	-100	0	230	101300000	1000	0	0	-1	600
10809555	5865	1460	0	-100	0	230	101300000	1000	0	0	-1	600
10822115	5865	1448	0	-100	0	230	101300000	1000	0	0	-1	600
10834675	5864	1454	0	-100	0	230	101300000	1000	0	0	-1	600
10847235	5865	1457	0	-100	0	230	101300000	1000	0	0	-1	600
10859795	5869	1457	0	-100	0	230	101300000	1000	0	0	-1	600
10872355	5864	1445	0	-100	0	230	101300000	1000	0	0	-1	600
10884915	5865	1453	0	-100	0	230	101300000	1000	0	0	-1	600
10897475	5864	1452	0	-100	0	230	101300000	1000	0	0	-1	600
10910035	5863	1455	0	-100	0	230	101300000	1000	0	0	-1	600
10922595	5867	1462	0	-100	0	230	101300000	1000	0	0	-1	600
10935155	5879	1454	0	-100	0	230	101300000	1000	0	0	-1	600
10947715	5854	1444	0	-100	0	230	101300000	1000	0	0	-1	600
10960275	5858	1448	0	-100	0	230	101300000	1000	0	0	-1	600
10972835	5871	1453	0	-100	0	230	101300000	1000	0	0	-1	600
10985395	5862	1455	0	-100	0	230	101300000	1000	0	0	-1	600
10997955	5861	1455	0	-100	0	230	101300000	1000	0	0	-1	600
11010515	5869	1453	0	-100	0	230	101300000	1000	0	0	-1	600
11023075	5862	1451	0	-100	0	230	101300000	1000	0	0	-1	600
11035635	5857	1444	0	-100	0	230	101300000	1000	0	0	-1	600
11048195	5865	1455	0	-100	0	230	101300000	1000	0	0	-1	600
11060755	5869	1453	0	-100	0	230	101300000	1000	0	0	-1	600
11073315	5865	1462	0	-100	0	230	101300000	1000	0	0	-1	600
11085875	5871	1448	0	-100	0	230	101300000	1000	0	0	-1	600
11098435	5864	1453	0	-100	0	230	101300000	1000	0	0	-1	600
11110995	5865	1454	0	-100	0	230	101300000	1000	0	0	-1	600
11123555	5872	1455	0	-100	0	230	101300000	1000	0	0	-1	600
11136115	5865	1448	0	-100	0	230	101300000	1000	0	0	-1	600
11148675	5870	1458	0	-100	0	230	101300000	1000	0	0	-1	600
11161235	5870	1455	0	-100	0	230	101300000	1000	0	0	-1	600
11173795	5866	1459	0	-100	0	230	101300000	1000	0	0	-1	600
11186355	5868	1453	0	-100	0	230	101300000	1000	0	0	-1	600
11198915	5864	1447	0	-100	0	230	101300000	1000	0	0	-1	600
11211475	5867	1460	0	-100	0	230	101300000	1000	0	0	-1	600
11224035	5867	1451	0	-100	0	230	101300000	1000	0	0	-1	600
11236595	5863	1465	0	-100	0	230	101300000	1000	0	0	-1	600
11249155	5879	1445	0	-100	0	230	101300000	1000	0	0	-1	600
11261715	5866	1453	0	-100	0	230	101300000	1000	0	0	-1	600
11274275	5864	1458	0	-100	0	230	101300000	1000	0	0	-1	600
11286835	5863	1457	0	-100	0	230	101300000	1000	0	0	-1	600
11299395	5865	1451	0	-100	0	230	101300000	1000	0	0	-1	600
11311955	5868	1451	0	-100	0	230	101300000	1000	0	0	-1	600
11324515	5869	1459	0	-100	0	230	101300000	1000	0	0	-1	600
11337075	5858	1457	0	-100	0	230	101300000	1000	0	0	-1	600
11349635	5863	1460	0	-100	0	230	101300000	1000	0	0	-1	600
11362195	5870	1455	0	-100	0	230	101300000	1000	0	0	-1	600
11374755	5874	1456	0	-100	0	230	101300000	1000	0	0	-1	600
11387315	5866	1448	0	-100	0	230	101300000	1000	0	0	-1	600
11399875	5862	1454	0	-100	0	230	101300000	1000	0	0	-1	600
11412435	5867	1447	0	-100	0	230	101300000	1000	0	0	-1	600
11424995	5868	1461	0	-100	0	230	101300000	1000	0	0	-1	600
11437555	5869	1454	0	-100	0	230	101300000	1000	0	0	-1	600
11450115	5861	1447	0	-100	0	230	101300000	1000	0	0	-1	600
11462675	5859	1448	0	-100	0	230	101300000	1000	0	0	-1	600
11475235	5859	1452	0	-100	0	230	101300000	1000	0	0	-1	600
11487795	5867	1457	0	-100	0	230	101300000	1000	0	0	-1	600
11500355	5867	1450	0	-100	0	230	101300000	1000	0	0	-1	600
11512915	5865	1455	0	-100	0	230	101300000	1000	0	0	-1	600
11525475	5865	1452	0	-100	0	230	101300000	1000	0	0	-1	600
11538035	5865	1451	0	-100	0	230	101300000	1000	0	0	-1	600
11550595	5867	1445	0	-100	0	230	101300000	1000	0	0	-1	600
11563155	5870	1452	0	-100	0	230	101300000	1000	0	0	-1	600
11575715	5861	1447	0	-100	0	230	101300000	1000	0	0	-1	600
11588275	5867	1455	0	-100	0	230	101300000	1000	0	0	-1	600
11600835	5857	1451	0	-100	0	230	101300000	1000	0	0	-1	600
11613395	5861	1453	0	-100	0	230	101300000	1000	0	0	-1	600
11625955	5869	1456	0	-100	0	230	101300000	1000	0	0	-1	600
11638515	5866	1447	0	-100	0	230	101300000	1000	0	0	-1	600
11651075	5863	1451	0	-100	0	230	101300000	1000	0	0	-1	600
11663635	5863	1456	0	-100	0	230	101300000	1000	0	0	-1	600
11676195	5859	1453	0	-100	0	230	101300000	1000	0	0	-1	600
11688755	5870	1460	0	-100	0	230	101300000	1000	0	0	-1	600
11701315	5871	1451	0	-100	0	230	101300000	1000	0	0	-1	600
11713875	5868	1451	0	-100	0	230	101300000	1000	0	0	-1	600
11726435	5864	1448	0	-100	0	230	101300000	1000	0	0	-1	600
11738995	5869	1452	0	-100	0	230	101300000	1000	0	0	-1	600
11751555	5865	1455	0	-100	0	230	101300000	1000	0	0	-1	600
11764115	5868	1457	0	-100	0	230	101300000	1000	0	0	-1	600
11776675	5871	1447	0	-100	0	230	101300000	1000	0	0	-1	600
11789235	5869	1450	0	-100	0	230	101300000	1000	0	0	-1	600
11801795	5865	1449	0	-100	0	230	101300000	1000	0	0	-1	600
11814355	5865	1454	0	-100	0	230	101300000	1000	0	0	-1	600
11826915	5865	1456	0	-100	0	230	101300000	1000	0	0	-1	600
11839475	5873	1455	0	-100	0	230	101300000	1000	0	0	-1	600
11852035	5870	1452	0	-100	0	230	101300000	1000	0	0	-1	600
11864595	5862	1450	0	-100	0	230	101300000	1000	0	0	-1	600
11877155	5873	1459	0	-100	0	230	101300000	1000	0	0	-1	600
11889715	5866	1453	0	-100	0	230	101300000	1000	0	0	-1	600
11902275	5869	1448	0	-100	0	230	101300000	1000	0	0	-1	600
11914835	5868	1453	0	-100	0	230	101300000	1000	0	0	-1	600
11927395	5863	1455	0	-100	0	230	101300000	1000	0	0	-1	600
11939955	5857	1458	0	-100	0	230	101300000	1000	0	0	-1	600
11952515	5865	1459	0	-100	0	230	101300000	1000	0	0	-1	600
11965075	5867	1449	0	-100	0	230	101300000	1000	0	0	-1	600
11977635	5869	1446	0	-100	0	230	101300000	1000	0	0	-1	600
11990195	5862	1447	0	-100	0	230	101300000	1000	0	0	-1	600
12002755	5858	1450	0	-100	0	230	101300000	1000	0	0	-1	600
12015315	5859	1456	0	-100	0	230	101300000	1000	0	0	-1	600
12027875	5857	1459	0	-100	0	230	101300000	1000	0	0	-1	600
12040435	5867	1456	0	-100	0	230	101300000	1000	0	0	-1	600
12052995	5861	1454	0	-100	0	230	101300000	1000	0	0	-1	600
12065555	5863	1452	0	-100	0	230	101300000	1000	0	0	-1	600
12078115	5870	1449	0	-100	0	230	101300000	1000	0	0	-1	600
12090675	5865	1455	0	-100	0	230	101300000	1000	0	0	-1	600
12103235	5864	1456	0	-100	0	230	101300000	1000	0	0	-1	600
12115795	5869	1460	0	-100	0	230	101300000	1000	0	0	-1	600
12128355	5870	1451	0	-100	0	230	101300000	1000	0	0	-1	600
12140915	5865	1450	0	-100	0	230	101300000	1000	0	0	-1	600
12153475	5869	1452	0	-100	0	230	101300000	1000	0	0	-1	600
12166035	5873	1452	0	-100	0	230	101300000	1000	0	0	-1	600
12178595	5861	1456	0	-100	0	230	101300000	1000	0	0	-1	600
12191155	5869	1451	0	-100	0	230	101300000	1000	0	0	-1	600
12203715	5862	1462	0	-100	0	230	101300000	1000	0	0	-1	600
12216275	5866	1449	0	-100	0	230	101300000	1000	0	0	-1	600
12228835	5857	1453	0	-100	0	230	101300000	1000	0	0	-1	600
12241395	5864	1453	0	-100	0	230	101300000	1000	0	0	-1	600
12253955	5869	1453	0	-100	0	230	101300000	1000	0	0	-1	600
12266515	5865	1446	0	-100	0	230	101300000	1000	0	0	-1	600
12279075	5860	1454	0	-100	0	230	101300000	1000	0	0	-1	600
12291635	5861	1453	0	-100	0	230	101300000	1000	0	0	-1	600
12304195	5859	1457	0	-100	0	230	101300000	1000	0	0	-1	600
12316755	5869	1445	0	-100	0	230	101300000	1000	0	0	-1	600
12329315	5864	1449	0	-100	0	230	101300000	1000	0	0	-1	600
12341875	5867	1454	0	-100	0	230	101300000	1000	0	0	-1	600
12354435	5869	1448	0	-100	0	230	101300000	1000	0	0	-1	600
12379555	5856	1448	0	-100	0	230	101300000	1000	0	0	-1	600
12392115	5870	1460	0	-100	0	230	101300000	1000	0	0	-1	600
12404675	5866	1451	0	-100	0	230	101300000	1000	0	0	-1	600
12417235	5873	1463	0	-100	0	230	101300000	1000	0	0	-1	600
12429795	5864	1451	0	-100	0	230	101300000	1000	0	0	-1	600
12442355	5865	1458	0	-100	0	230	101300000	1000	0	0	-1	600
12454915	5869	1455	0	-100	0	230	101300000	1000	0	0	-1	600
12467475	5857	1455	0	-100	0	230	101300000	1000	0	0	-1	600
12480035	5862	1456	0	-100	0	230	101300000	1000	0	0	-1	600
12492595	5871	1453	0	-100	0	230	101300000	1000	0	0	-1	600
12505155	5870	1449	0	-100	0	230	101300000	1000	0	0	-1	600
12517715	5872	1457	0	-100	0	230	101300000	1000	0	0	-1	600
12630755	5857	1452	0	-100	0	230	101300000	1000	0	0	-1	600
12643315	5858	1445	0	-100	0	230	101300000	1000	0	0	-1	600
12655875	5863	1461	0	-100	0	230	101300000	1000	0	0	-1	600
12668435	5871	1453	0	-100	0	230	101300000	1000	0	0	-1	600
12680995	5869	1453	0	-100	0	230	101300000	1000	0	0	-1	600
12693555	5862	1451	0	-100	0	230	101300000	1000	0	0	-1	600
12706115	5859	1448	0	-100	0	230	101300000	1000	0	0	-1	600
12718675	5867	1450	0	-100	0	230	101300000	1000	0	0	-1	600
12731235	5864	1454	0	-100	0	230	101300000	1000	0	0	-1	600
12743795	5857	1459	0	-100	0	230	101300000	1000	0	0	-1	600
12756355	5857	1454	0	-100	0	230	101300000	1000	0	0	-1	600
12768915	5865	1453	0	-100	0	230	101300000	1000	0	0	-1	600
12781475	5864	1443	0	-100	0	230	101300000	1000	0	0	-1	600
12794035	5854	1459	0	-100	0	230	101300000	1000	0	0	-1	600
12806595	5860	1456	0	-100	0	230	101300000	1000	0	0	-1	600
12819155	5873	1451	0	-100	0	230	101300000	1000	0	0	-1	600
12831715	5857	1455	0	-100	0	230	101300000	1000	0	0	-1	600
12844275	5861	1455	0	-100	0	230	101300000	1000	0	0	-1	600
12856835	5867	1455	0	-100	0	230	101300000	1000	0	0	-1	600
12869395	5875	1455	0	-100	0	230	101300000	1000	0	0	-1	600
12881955	5870	1452	0	-100	0	230	101300000	1000	0	0	-1	600
12894515	5865	1455	0	-100	0	230	101300000	1000	0	0	-1	600
12907075	5865	1462	0	-100	0	230	101300000	1000	0	0	-1	600
12919635	5862	1456	0	-100	0	230	101300000	1000	0	0	-1	600
12932195	5869	1451	0	-100	0	230	101300000	1000	0	0	-1	600
12944755	5868	1451	0	-100	0	230	101300000	1000	0	0	-1	600
12957315	5866	1457	0	-100	0	230	101300000	1000	0	0	-1	600
12969875	5864	1457	0	-100	0	230	101300000	1000	0	0	-1	600
12982435	5871	1455	0	-100	0	230	101300000	1000	0	0	-1	600
12994995	5865	1457	0	-100	0	230	101300000	1000	0	0	-1	600
13007555	5864	1459	0	-100	0	230	101300000	1000	0	0	-1	600
13020115	5866	1453	0	-100	0	230	101300000	1000	0	0	-1	600
13032675	5861	1451	0	-100	0	230	101300000	1000	0	0	-1	600
13045235	5857	1457	0	-100	0	230	101300000	1000	0	0	-1	600
13057795	5874	1457	0	-100	0	230	101300000	1000	0	0	-1	600
13070355	5862	1447	0	-100	0	230	101300000	1000	0	0	-1	600
13082915	5864	1458	0	-100	0	230	101300000	1000	0	0	-1	600
13095475	5863	1452	0	-100	0	230	101300000	1000	0	0	-1	600
13108035	5864	1446	0	-100	0	230	101300000	1000	0	0	-1	600
13120595	5865	1457	0	-100	0	230	101300000	1000	0	0	-1	600
13133155	5877	1456	0	-100	0	230	101300000	1000	0	0	-1	600
13145715	5867	1454	0	-100	0	230	101300000	1000	0	0	-1	600
13158275	5871	1455	0	-100	0	230	101300000	1000	0	0	-1	600
13170835	5869	1453	0	-100	0	230	101300000	1000	0	0	-1	600
13183395	5865	1457	0	-100	0	230	101300000	1000	0	0	-1	600
13195955	5874	1457	0	-100	0	230	101300000	1000	0	0	-1	600
13208515	5869	1446	0	-100	0	230	101300000	1000	0	0	-1	600
13221075	5864	1449	0	-100	0	230	101300000	1000	0	0	-1	600
13233635	5865	1457	0	-100	0	230	101300000	1000	0	0	-1	600
13246195	5871	1455	0	-100	0	230	101300000	1000	0	0	-1	600
13258755	5862	1455	0	-100	0	230	101300000	1000	0	0	-1	600
13271315	5860	1455	0	-100	0	230	101300000	1000	0	0	-1	600
13283875	5858	1458	0	-100	0	230	101300000	1000	0	0	-1	600
13296435	5864	1441	0	-100	0	230	101300000	1000	0	0	-1	600
13308995	5859	1452	0	-100	0	230	101300000	1000	0	0	-1	600
13321555	5857	1457	0	-100	0	230	101300000	1000	0	0	-1	600
13334115	5863	1452	0	-100	0	230	101300000	1000	0	0	-1	600
13346675	5865	1455	0	-100	0	230	101300000	1000	0	0	-1	600
13359235	5860	1452	0	-100	0	230	101300000	1000	0	0	-1	600
13371795	5865	1453	0	-100	0	230	101300000	1000	0	0	-1	600
13384355	5871	1452	0	-100	0	230	101300000	1000	0	0	-1	600
13396915	5870	1459	0	-100	0	230	101300000	1000	0	0	-1	600
13409475	5862	1455	0	-100	0	230	101300000	1000	0	0	-1	600
13422035	5865	1449	0	-100	0	230	101300000	1000	0	0	-1	600
13434595	5873	1453	0	-100	0	230	101300000	1000	0	0	-1	600
13447155	5876	1452	0	-100	0	230	101300000	1000	0	0	-1	600
13459715	5861	1454	0	-100	0	230	101300000	1000	0	0	-1	600
13472275	5864	1451	0	-100	0	230	101300000	1000	0	0	-1	600
13484835	5873	1451	0	-100	0	230	101300000	1000	0	0	-1	600
13497395	5869	1449	0	-100	0	230	101300000	1000	0	0	-1	600
13509955	5865	1455	0	-100	0	230	101300000	1000	0	0	-1	600
13522515	5870	1456	0	-100	0	230	101300000	1000	0	0	-1	600
13535075	5869	1451	0	-100	0	230	101300000	1000	0	0	-1	600
13547635	5869	1454	0	-100	0	230	101300000	1000	0	0	-1	600
13560195	5866	1449	0	-100	0	230	101300000	1000	0	0	-1	600
13572755	5857	1455	0	-100	0	230	101300000	1000	0	0	-1	600
13585315	5859	1457	0	-100	0	230	101300000	1000	0	0	-1	600
13597875	5861	1456	0	-100	0	230	101300000	1000	0	0	-1	600
13610435	5865	1455	0	-100	0	230	101300000	1000	0	0	-1	600
13622995	5866	1453	0	-100	0	230	101300000	1000	0	0	-1	600
13635555	5864	1456	0	-100	0	230	101300000	1000	0	0	-1	600
13648115	5860	1454	0	-100	0	230	101300000	1000	0	0	-1	600
13660675	5861	1452	0	-100	0	230	101300000	1000	0	0	-1	600
13673235	5867	1455	0	-100	0	230	101300000	1000	0	0	-1	600
13685795	5869	1444	0	-100	0	230	101300000	1000	0	0	-1	600
13698355	5867	1448	0	-100	0	230	101300000	1000	0	0	-1	600
13710915	5864	1450	0	-100	0	230	101300000	1000	0	0	-1	600
13723475	5865	1457	0	-100	0	230	101300000	1000	0	0	-1	600
13736035	5870	1456	0	-100	0	230	101300000	1000	0	0	-1	600
13748595	5861	1451	0	-100	0	230	101300000	1000	0	0	-1	600
13761155	5869	1451	0	-100	0	230	101300000	1000	0	0	-1	600
13773715	5862	1455	0	-100	0	230	101300000	1000	0	0	-1	600
13786275	5861	1449	0	-100	0	230	101300000	1000	0	0	-1	600
13798835	5857	1451	0	-100	0	230	101300000	1000	0	0	-1	600
13811395	5861	1451	0	-100	0	230	101300000	1000	0	0	-1	600
13823955	5860	1451	0	-100	0	230	101300000	1000	0	0	-1	600
13836515	5865	1460	0	-100	0	230	101300000	1000	0	0	-1	600
13849075	5870	1451	0	-100	0	230	101300000	1000	0	0	-1	600
13861635	5870	1453	0	-100	0	230	101300000	1000	0	0	-1	600
13874195	5869	1460	0	-100	0	230	101300000	1000	0	0	-1	600
13886755	5872	1453	0	-100	0	230	101300000	1000	0	0	-1	600
13899315	5868	1455	0	-100	0	230	101300000	1000	0	0	-1	600
13911875	5865	1458	0	-100	0	230	101300000	1000	0	0	-1	600
13924435	5877	1461	0	-100	0	230	101300000	1000	0	0	-1	600
13936995	5859	1453	0	-100	0	230	101300000	1000	0	0	-1	600
13949555	5858	1458	0	-100	0	230	101300000	1000	0	0	-1	600
13962115	5866	1455	0	-100	0	230	101300000	1000	0	0	-1	600
13974675	5859	1449	0	-100	0	230	101300000	1000	0	0	-1	600
13987235	5863	1458	0	-100	0	230	101300000	1000	0	0	-1	600
13999795	5864	1452	0	-100	0	230	101300000	1000	0	0	-1	600
14012355	5865	1460	0	-100	0	230	101300000	1000	0	0	-1	600
14024915	5867	1458	0	-100	0	230	101300000	1000	0	0	-1	600
14037475	5874	1458	0	-100	0	230	101300000	1000	0	0	-1	600
14050035	5864	1450	0	-100	0	230	101300000	1000	0	0	-1	600
14062595	5864	1457	0	-100	0	230	101300000	1000	0	0	-1	600
14075155	5881	1454	0	-100	0	230	101300000	1000	0	0	-1	600
14087715	5865	1457	0	-100	0	230	101300000	1000	0	0	-1	600
14100275	5861	1458	0	-100	0	230	101300000	1000	0	0	-1	600
14112835	5869	1452	0	-100	0	230	101300000	1000	0	0	-1	600
14125395	5864	1453	0	-100	0	230	101300000	1000	0	0	-1	600
14137955	5872	1453	0	-100	0	230	101300000	1000	0	0	-1	600
14150515	5865	1448	0	-100	0	230	101300000	1000	0	0	-1	600
14163075	5857	1450	0	-100	0	230	101300000	1000	0	0	-1	600
14175635	5857	1452	0	-100	0	230	101300000	1000	0	0	-1	600
14188195	5862	1451	0	-100	0	230	101300000	1000	0	0	-1	600
14200755	5862	1455	0	-100	0	230	101300000	1000	0	0	-1	600
14213315	5862	1457	0	-100	0	230	101300000	1000	0	0	-1	600
14225875	5867	1452	0	-100	0	230	101300000	1000	0	0	-1	600
14238435	5870	1454	0	-100	0	230	101300000	1000	0	0	-1	600
14250995	5868	1454	0	-100	0	230	101300000	1000	0	0	-1	600
14263555	5869	1454	0	-100	0	230	101300000	1000	0	0	-1	600
14276115	5870	1451	0	-100	0	230	101300000	1000	0	0	-1	600
14288675	5862	1461	0	-100	0	230	101300000	1000	0	0	-1	600
14301235	5869	1455	0	-100	0	230	101300000	1000	0	0	-1	600
14313795	5865	1461	0	-100	0	230	101300000	1000	0	0	-1	600
14326355	5865	1463	0	-100	0	230	101300000	1000	0	0	-1	600
14338915	5867	1459	0	-100	0	230	101300000	1000	0	0	-1	600
14351475	5867	1458	0	-100	0	230	101300000	1000	0	0	-1	600
14364035	5867	1455	0	-100	0	230	101300000	1000	0	0	-1	600
14376595	5873	1452	0	-100	0	230	101300000	1000	0	0	-1	600
14389155	5877	1452	0	-100	0	230	101300000	1000	0	0	-1	600
14401715	5865	1451	0	-100	0	230	101300000	1000	0	0	-1	600
14414275	5866	1453	0	-100	0	230	101300000	1000	0	0	-1	600
14426835	5863	1453	0	-100	0	230	101300000	1000	0	0	-1	600
14439395	5861	1456	0	-100	0	230	101300000	1000	0	0	-1	600
14451955	5869	1461	0	-100	0	230	101300000	1000	0	0	-1	600
14464515	5858	1452	0	-100	0	230	101300000	1000	0	0	-1	600
14477075	5861	1453	0	-100	0	230	101300000	1000	0	0	-1	600
14489635	5861	1456	0	-100	0	230	101300000	1000	0	0	-1	600
14502195	5869	1454	0	-100	0	230	101300000	1000	0	0	-1	600
14514755	5868	1451	0	-100	0	230	101300000	1000	0	0	-1	600
14527315	5865	1452	0	-100	0	230	101300000	1000	0	0	-1	600
14539875	5860	1455	0	-100	0	230	101300000	1000	0	0	-1	600
14552435	5861	1454	0	-100	0	230	101300000	1000	0	0	-1	600
14564995	5869	1454	0	-100	0	230	101300000	1000	0	0	-1	600
14577555	5870	1451	0	-100	0	230	101300000	1000	0	0	-1	600
14590115	5861	1453	0	-100	0	230	101300000	1000	0	0	-1	600
14602675	5861	1448	0	-100	0	230	101300000	1000	0	0	-1	600
14615235	5871	1456	0	-100	0	230	101300000	1000	0	0	-1	600
14627795	5866	1457	0	-100	0	230	101300000	1000	0	0	-1	600
14640355	5861	1456	0	-100	0	230	101300000	1000	0	0	-1	600
14652915	5865	1447	0	-100	0	230	101300000	1000	0	0	-1	600
14665475	5862	1454	0	-100	0	230	101300000	1000	0	0	-1	600
14678035	5861	1453	0	-100	0	230	101300000	1000	0	0	-1	600
14690595	5860	1459	0	-100	0	230	101300000	1000	0	0	-1	600
14703155	5875	1456	0	-100	0	230	101300000	1000	0	0	-1	600
14715715	5863	1450	0	-100	0	230	101300000	1000	0	0	-1	600
14728275	5861	1450	0	-100	0	230	101300000	1000	0	0	-1	600
14740835	5863	1455	0	-100	0	230	101300000	1000	0	0	-1	600
14753395	5856	1458	0	-100	0	230	101300000	1000	0	0	-1	600
14765955	5864	1453	0	-100	0	230	101300000	1000	0	0	-1	600
14778515	5863	1455	0	-100	0	230	101300000	1000	0	0	-1	600
14791075	5865	1457	0	-100	0	230	101300000	1000	0	0	-1	600
14803635	5865	1456	0	-100	0	230	101300000	1000	0	0	-1	600
14816195	5869	1459	0	-100	0	230	101300000	1000	0	0	-1	600
14828755	5873	1449	0	-100	0	230	101300000	1000	0	0	-1	600
14841315	5865	1450	0	-100	0	230	101300000	1000	0	0	-1	600
14853875	5867	1453	0	-100	0	230	101300000	1000	0	0	-1	600
14866435	5869	1461	0	-100	0	230	101300000	1000	0	0	-1	600
14878995	5874	1456	0	-100	0	230	101300000	1000	0	0	-1	600
14891555	5865	1453	0	-100	0	230	101300000	1000	0	0	-1	600
14904115	5863	1452	0	-100	0	230	101300000	1000	0	0	-1	600
14916675	5863	1461	0	-100	0	230	101300000	1000	0	0	-1	600
14929235	5867	1455	0	-100	0	230	101300000	1000	0	0	-1	600
14941795	5870	1456	0	-100	0	230	101300000	1000	0	0	-1	600
14954355	5860	1458	0	-100	0	230	101300000	1000	0	0	-1	600
14966915	5865	1451	0	-100	0	230	101300000	1000	0	0	-1	600
14979475	5865	1453	0	-100	0	230	101300000	1000	0	0	-1	600
14992035	5864	1453	0	-100	0	230	101300000	1000	0	0	-1	600
15004595	5871	1451	0	-100	0	230	101300000	1000	0	0	-1	600
15017155	5877	1449	0	-100	0	230	101300000	1000	0	0	-1	600
15029715	5864	1454	0	-100	0	230	101300000	1000	0	0	-1	600
15042275	5867	1457	0	-100	0	230	101300000	1000	0	0	-1	600
15054835	5861	1455	0	-100	0	230	101300000	1000	0	0	-1	600
15067395	5872	1451	0	-100	0	230	101300000	1000	0	0	-1	600
15079955	5864	1453	0	-100	0	230	101300000	1000	0	0	-1	600
15092515	5860	1454	0	-100	0	230	101300000	1000	0	0	-1	600
15105075	5867	1462	0	-100	0	230	101300000	1000	0	0	-1	600
15117635	5864	1453	0	-100	0	230	101300000	1000	0	0	-1	600
15130195	5855	1457	0	-100	0	230	101300000	1000	0	0	-1	600
15142755	5858	1453	0	-100	0	230	101300000	1000	0	0	-1	600
15155315	5864	1452	0	-100	0	230	101300000	1000	0	0	-1	600
15167875	5863	1458	0	-100	0	230	101300000	1000	0	0	-1	600
15180435	5861	1452	0	-100	0	230	101300000	1000	0	0	-1	600
15192995	5859	1450	0	-100	0	230	101300000	1000	0	0	-1	600
15205555	5858	1455	0	-100	0	230	101300000	1000	0	0	-1	600
15218115	5861	1448	0	-100	0	230	101300000	1000	0	0	-1	600
15230675	5863	1455	0	-100	0	230	101300000	1000	0	0	-1	600
15243235	5862	1449	0	-100	0	230	101300000	1000	0	0	-1	600
15255795	5865	1453	0	-100	0	230	101300000	1000	0	0	-1	600
15268355	5865	1458	0	-100	0	230	101300000	1000	0	0	-1	600
15280915	5869	1454	0	-100	0	230	101300000	1000	0	0	-1	600
15293475	5871	1455	0	-100	0	230	101300000	1000	0	0	-1	600
15306035	5865	1452	0	-100	0	230	101300000	1000	0	0	-1	600
15318595	5865	1451	0	-100	0	230	101300000	1000	0	0	-1	600
15331155	5868	1451	0	-100	0	230	101300000	1000	0	0	-1	600
15343715	5869	1457	0	-100	0	230	101300000	1000	0	0	-1	600
15356275	5854	1457	0	-100	0	230	101300000	1000	0	0	-1	600
15368835	5863	1448	0	-100	0	230	101300000	1000	0	0	-1	600
15381395	5872	1455	0	-100	0	230	101300000	1000	0	0	-1	600
15393955	5864	1455	0	-100	0	230	101300000	1000	0	0	-1	600
15406515	5861	1456	0	-100	0	230	101300000	1000	0	0	-1	600
15419075	5872	1454	0	-100	0	230	101300000	1000	0	0	-1	600
15431635	5868	1448	0	-100	0	230	101300000	1000	0	0	-1	600
15444195	5869	1449	0	-100	0	230	101300000	1000	0	0	-1	600
15456755	5863	1455	0	-100	0	230	101300000	1000	0	0	-1	600
15469315	5873	1456	0	-100	0	230	101300000	1000	0	0	-1	600
15532115	5864	1451	0	-100	0	230	101300000	1000	0	0	-1	600
15544675	5860	1452	0	-100	0	230	101300000	1000	0	0	-1	600
15557235	5857	1453	0	-100	0	230	101300000	1000	0	0	-1	600
15569795	5857	1449	0	-100	0	230	101300000	1000	0	0	-1	600
15582355	5858	1452	0	-100	0	230	101300000	1000	0	0	-1	600
15594915	5865	1456	0	-100	0	230	101300000	1000	0	0	-1	600
15607475	5860	1456	0	-100	0	230	101300000	1000	0	0	-1	600
15620035	5853	1460	0	-100	0	230	101300000	1000	0	0	-1	600
15632595	5862	1455	0	-100	0	230	101300000	1000	0	0	-1	600
15645155	5872	1457	0	-100	0	230	101300000	1000	0	0	-1	600
15657715	5864	1458	0	-100	0	230	101300000	1000	0	0	-1	600
15670275	5857	1450	0	-100	0	230	101300000	1000	0	0	-1	600
15733075	5867	1453	0	-100	0	230	101300000	1000	0	0	-1	600
15745635	5865	1453	0	-100	0	230	101300000	1000	0	0	-1	600
15758195	5871	1442	0	-100	0	230	101300000	1000	0	0	-1	600
15770755	5867	1460	0	-100	0	230	101300000	1000	0	0	-1	600
15783315	5865	1454	0	-100	0	230	101300000	1000	0	0	-1	600
15795875	5861	1445	0	-100	0	230	101300000	1000	0	0	-1	600
15808435	5862	1458	0	-100	0	230	101300000	1000	0	0	-1	600
15820995	5865	1451	0	-100	0	230	101300000	1000	0	0	-1	600
15833555	5861	1449	0	-100	0	230	101300000	1000	0	0	-1	600
15846115	5861	1451	0	-100	0	230	101300000	1000	0	0	-1	600
15858675	5872	1459	0	-100	0	230	101300000	1000	0	0	-1	600
15871235	5867	1453	0	-100	0	230	101300000	1000	0	0	-1	600
15883795	5861	1450	0	-100	0	230	101300000	1000	0	0	-1	600
15896355	5856	1445	0	-100	0	230	101300000	1000	0	0	-1	600
15908915	5864	1453	0	-100	0	230	101300000	1000	0	0	-1	600
15921475	5857	1455	0	-100	0	230	101300000	1000	0	0	-1	600
15934035	5865	1460	0	-100	0	230	101300000	1000	0	0	-1	600
15946595	5867	1445	0	-100	0	230	101300000	1000	0	0	-1	600
15959155	5873	1455	0	-100	0	230	101300000	1000	0	0	-1	600
15971715	5877	1453	0	-100	0	230	101300000	1000	0	0	-1	600
15984275	5864	1452	0	-100	0	230	101300000	1000	0	0	-1	600
15996835	5862	1456	0	-100	0	230	101300000	1000	0	0	-1	600
16009395	5870	1447	0	-100	0	230	101300000	1000	0	0	-1	600
16021955	5863	1458	0	-100	0	230	101300000	1000	0	0	-1	600
16034515	5865	1452	0	-100	0	230	101300000	1000	0	0	-1	600
16047075	5867	1456	0	-100	0	230	101300000	1000	0	0	-1	600
16059635	5865	1455	0	-100	0	230	101300000	1000	0	0	-1	600
16072195	5866	1450	0	-100	0	230	101300000	1000	0	0	-1	600
16084755	5857	1455	0	-100	0	230	101300000	1000	0	0	-1	600
16097315	5864	1454	0	-100	0	230	101300000	1000	0	0	-1	600
16109875	5865	1451	0	-100	0	230	101300000	1000	0	0	-1	600
16122435	5860	1450	0	-100	0	230	101300000	1000	0	0	-1	600
16134995	5870	1450	0	-100	0	230	101300000	1000	0	0	-1	600
16147555	5869	1453	0	-100	0	230	101300000	1000	0	0	-1	600
16160115	5864	1453	0	-100	0	230	101300000	1000	0	0	-1	600
16172675	5865	1458	0	-100	0	230	101300000	1000	0	0	-1	600
16185235	5866	1454	0	-100	0	230	101300000	1000	0	0	-1	600
16197795	5869	1444	0	-100	0	230	101300000	1000	0	0	-1	600
16210355	5868	1453	0	-100	0	230	101300000	1000	0	0	-1	600
16222915	5865	1450	0	-100	0	230	101300000	1000	0	0	-1	600
16235475	5864	1451	0	-100	0	230	101300000	1000	0	0	-1	600
16248035	5863	1451	0	-100	0	230	101300000	1000	0	0	-1	600
16260595	5861	1447	0	-100	0	230	101300000	1000	0	0	-1	600
16273155	5865	1451	0	-100	0	230	101300000	1000	0	0	-1	600
16285715	5861	1457	0	-100	0	230	101300000	1000	0	0	-1	600
16298275	5870	1458	0	-100	0	230	101300000	1000	0	0	-1	600
16310835	5859	1455	0	-100	0	230	101300000	1000	0	0	-1	600
16323395	5865	1448	0	-100	0	230	101300000	1000	0	0	-1	600
16335955	5870	1447	0	-100	0	230	101300000	1000	0	0	-1	600
16348515	5859	1454	0	-100	0	230	101300000	1000	0	0	-1	600
16361075	5870	1449	0	-100	0	230	101300000	1000	0	0	-1	600
16373635	5860	1453	0	-100	0	230	101300000	1000	0	0	-1	600
16386195	5865	1454	0	-100	0	230	101300000	1000	0	0	-1	600
16398755	5869	1453	0	-100	0	230	101300000	1000	0	0	-1	600
16411315	5866	1451	0	-100	0	230	101300000	1000	0	0	-1	600
16423875	5873	1452	0	-100	0	230	101300000	1000	0	0	-1	600
16436435	5861	1447	0	-100	0	230	101300000	1000	0	0	-1	600
16448995	5863	1458	0	-100	0	230	101300000	1000	0	0	-1	600
16461555	5866	1450	0	-100	0	230	101300000	1000	0	0	-1	600
16474115	5859	1452	0	-100	0	230	101300000	1000	0	0	-1	600
16486675	5858	1452	0	-100	0	230	101300000	1000	0	0	-1	600
16499235	5868	1447	0	-100	0	230	101300000	1000	0	0	-1	600
16511795	5856	1446	0	-100	0	230	101300000	1000	0	0	-1	600
16524355	5856	1454	0	-100	0	230	101300000	1000	0	0	-1	600
16536915	5861	1457	0	-100	0	230	101300000	1000	0	0	-1	600
16549475	5865	1451	0	-100	0	230	101300000	1000	0	0	-1	600
16562035	5863	1449	0	-100	0	230	101300000	1000	0	0	-1	600
16574595	5860	1454	0	-100	0	230	101300000	1000	0	0	-1	600
16587155	5874	1456	0	-100	0	230	101300000	1000	0	0	-1	600
16599715	5858	1450	0	-100	0	230	101300000	1000	0	0	-1	600
16612275	5855	1451	0	-100	0	230	101300000	1000	0	0	-1	600
16624835	5870	1454	0	-100	0	230	101300000	1000	0	0	-1	600
16637395	5863	1451	0	-100	0	230	101300000	1000	0	0	-1	600
16649955	5867	1456	0	-100	0	230	101300000	1000	0	0	-1	600
16662515	5865	1455	0	-100	0	230	101300000	1000	0	0	-1	600
16675075	5868	1453	0	-100	0	230	101300000	1000	0	0	-1	600
16687635	5871	1449	0	-100	0	230	101300000	1000	0	0	-1	600
16700195	5868	1453	0	-100	0	230	101300000	1000	0	0	-1	600
16712755	5864	1447	0	-100	0	230	101300000	1000	0	0	-1	600
16725315	5866	1453	0	-100	0	230	101300000	1000	0	0	-1	600
16737875	5865	1454	0	-100	0	230	101300000	1000	0	0	-1	600
16750435	5870	1450	0	-100	0	230	101300000	1000	0	0	-1	600
16762995	5861	1452	0	-100	0	230	101300000	1000	0	0	-1	600
16775555	5864	1446	0	-100	0	230	101300000	1000	0	0	-1	600
16788115	5867	1453	0	-100	0	230	101300000	1000	0	0	-1	600
16800675	5870	1449	0	-100	0	230	101300000	1000	0	0	-1	600
16813235	5864	1447	0	-100	0	230	101300000	1000	0	0	-1	600
16825795	5867	1456	0	-100	0	230	101300000	1000	0	0	-1	600
16838355	5868	1447	0	-100	0	230	101300000	1000	0	0	-1	600
16850915	5867	1451	0	-100	0	230	101300000	1000	0	0	-1	600
16863475	5860	1448	0	-100	0	230	101300000	1000	0	0	-1	600
16876035	5861	1455	0	-100	0	230	101300000	1000	0	0	-1	600
16888595	5872	1454	0	-100	0	230	101300000	1000	0	0	-1	600
16901155	5878	1447	0	-100	0	230	101300000	1000	0	0	-1	600
16913715	5865	1451	0	-100	0	230	101300000	1000	0	0	-1	600
16926275	5868	1455	0	-100	0	230	101300000	1000	0	0	-1	600
16938835	5865	1454	0	-100	0	230	101300000	1000	0	0	-1	600
16951395	5865	1444	0	-100	0	230	101300000	1000	0	0	-1	600
16963955	5864	1452	0	-100	0	230	101300000	1000	0	0	-1	600
16976515	5869	1447	0	-100	0	230	101300000	1000	0	0	-1	600
16989075	5864	1449	0	-100	0	230	101300000	1000	0	0	-1	600
17001635	5865	1448	0	-100	0	230	101300000	1000	0	0	-1	600
17014195	5871	1450	0	-100	0	230	101300000	1000	0	0	-1	600
17026755	5869	1456	0	-100	0	230	101300000	1000	0	0	-1	600
17039315	5861	1456	0	-100	0	230	101300000	1000	0	0	-1	600
17051875	5867	1449	0	-100	0	230	101300000	1000	0	0	-1	600
17064435	5871	1455	0	-100	0	230	101300000	1000	0	0	-1	600
17076995	5865	1452	0	-100	0	230	101300000	1000	0	0	-1	600
17089555	5859	1448	0	-100	0	230	101300000	1000	0	0	-1	600
17102115	5857	1457	0	-100	0	230	101300000	1000	0	0	-1	600
17114675	5861	1452	0	-100	0	230	101300000	1000	0	0	-1	600
17127235	5857	1448	0	-100	0	230	101300000	1000	0	0	-1	600
17139795	5865	1457	0	-100	0	230	101300000	1000	0	0	-1	600
17152355	5867	1454	0	-100	0	230	101300000	1000	0	0	-1	600
17164915	5867	1451	0	-100	0	230	101300000	1000	0	0	-1	600
17177475	5858	1455	0	-100	0	230	101300000	1000	0	0	-1	600
17190035	5864	1449	0	-100	0	230	101300000	1000	0	0	-1	600
17202595	5865	1451	0	-100	0	230	101300000	1000	0	0	-1	600
17215155	5875	1455	0	-100	0	230	101300000	1000	0	0	-1	600
17227715	5861	1453	0	-100	0	230	101300000	1000	0	0	-1	600
17240275	5855	1445	0	-100	0	230	101300000	1000	0	0	-1	600
17252835	5861	1450	0	-100	0	230	101300000	1000	0	0	-1	600
17265395	5869	1447	0	-100	0	230	101300000	1000	0	0	-1	600
17277955	5866	1452	0	-100	0	230	101300000	1000	0	0	-1	600
17290515	5859	1450	0	-100	0	230	101300000	1000	0	0	-1	600
17303075	5853	1452	0	-100	0	230	101300000	1000	0	0	-1	600
17315635	5860	1449	0	-100	0	230	101300000	1000	0	0	-1	600
17328195	5858	1454	0	-100	0	230	101300000	1000	0	0	-1	600
17340755	5863	1452	0	-100	0	230	101300000	1000	0	0	-1	600
17353315	5867	1450	0	-100	0	230	101300000	1000	0	0	-1	600
17365875	5869	1452	0	-100	0	230	101300000	1000	0	0	-1	600
17378435	5870	1447	0	-100	0	230	101300000	1000	0	0	-1	600
17390995	5860	1450	0	-100	0	230	101300000	1000	0	0	-1	600
17403555	5862	1450	0	-100	0	230	101300000	1000	0	0	-1	600
17416115	5865	1453	0	-100	0	230	101300000	1000	0	0	-1	600
17428675	5861	1453	0	-100	0	230	101300000	1000	0	0	-1	600
17441235	5857	1457	0	-100	0	230	101300000	1000	0	0	-1	600
17453795	5867	1449	0	-100	0	230	101300000	1000	0	0	-1	600
17466355	5874	1453	0	-100	0	230	101300000	1000	0	0	-1	600
17478915	5866	1450	0	-100	0	230	101300000	1000	0	0	-1	600
17491475	5864	1454	0	-100	0	230	101300000	1000	0	0	-1	600
17504035	5864	1450	0	-100	0	230	101300000	1000	0	0	-1	600
17516595	5859	1444	0	-100	0	230	101300000	1000	0	0	-1	600
17529155	5865	1451	0	-100	0	230	101300000	1000	0	0	-1	600
17541715	5864	1455	0	-100	0	230	101300000	1000	0	0	-1	600
17554275	5865	1452	0	-100	0	230	101300000	1000	0	0	-1	600
17566835	5865	1453	0	-100	0	230	101300000	1000	0	0	-1	600
17579395	5869	1457	0	-100	0	230	101300000	1000	0	0	-1	600
17591955	5863	1454	0	-100	0	230	101300000	1000	0	0	-1	600
17604515	5863	1449	0	-100	0	230	101300000	1000	0	0	-1	600
17617075	5862	1448	0	-100	0	230	101300000	1000	0	0	-1	600
17629635	5866	1455	0	-100	0	230	101300000	1000	0	0	-1	600
17642195	5870	1447	0	-100	0	230	101300000	1000	0	0	-1	600
17654755	5870	1454	0	-100	0	230	101300000	1000	0	0	-1	600
17667315	5865	1451	0	-100	0	230	101300000	1000	0	0	-1	600
17679875	5864	1447	0	-100	0	230	101300000	1000	0	0	-1	600
17692435	5861	1455	0	-100	0	230	101300000	1000	0	0	-1	600
17704995	5865	1446	0	-100	0	230	101300000	1000	0	0	-1	600
17717555	5861	1457	0	-100	0	230	101300000	1000	0	0	-1	600
17730115	5869	1455	0	-100	0	230	101300000	1000	0	0	-1	600
17742675	5865	1450	0	-100	0	230	101300000	1000	0	0	-1	600
17755235	5857	1453	0	-100	0	230	101300000	1000	0	0	-1	600
17767795	5861	1452	0	-100	0	230	101300000	1000	0	0	-1	600
17780355	5865	1457	0	-100	0	230	101300000	1000	0	0	-1	600
17792915	5861	1453	0	-100	0	230	101300000	1000	0	0	-1	600
17805475	5857	1446	0	-100	0	230	101300000	1000	0	0	-1	600
17818035	5857	1452	0	-100	0	230	101300000	1000	0	0	-1	600
17830595	5865	1447	0	-100	0	230	101300000	1000	0	0	-1	600
17843155	5874	1444	0	-100	0	230	101300000	1000	0	0	-1	600
17855715	5861	1445	0	-100	0	230	101300000	1000	0	0	-1	600
17868275	5864	1449	0	-100	0	230	101300000	1000	0	0	-1	600
17880835	5868	1451	0	-100	0	230	101300000	1000	0	0	-1	600
17893395	5869	1451	0	-100	0	230	101300000	1000	0	0	-1	600
17905955	5866	1449	0	-100	0	230	101300000	1000	0	0	-1	600
17918515	5863	1460	0	-100	0	230	101300000	1000	0	0	-1	600
17931075	5865	1451	0	-100	0	230	101300000	1000	0	0	-1	600
17943635	5869	1453	0	-100	0	230	101300000	1000	0	0	-1	600
17956195	5869	1445	0	-100	0	230	101300000	1000	0	0	-1	600
17968755	5861	1449	0	-100	0	230	101300000	1000	0	0	-1	600
17981315	5863	1452	0	-100	0	230	101300000	1000	0	0	-1	600
17993875	5873	1457	0	-100	0	230	101300000	1000	0	0	-1	600
18006435	5865	1444	0	-100	0	230	101300000	1000	0	0	-1	600
18018995	5865	1449	0	-100	0	230	101300000	1000	0	0	-1	600
18031555	5872	1456	0	-100	0	230	101300000	1000	0	0	-1	600
18044115	5862	1445	0	-100	0	230	101300000	1000	0	0	-1	600
18056675	5859	1449	0	-100	0	230	101300000	1000	0	0	-1	600
18069235	5862	1451	0	-100	0	230	101300000	1000	0	0	-1	600
18081795	5861	1453	0	-100	0	230	101300000	1000	0	0	-1	600
18094355	5856	1445	0	-100	0	230	101300000	1000	0	0	-1	600
18106915	5861	1455	0	-100	0	230	101300000	1000	0	0	-1	600
18119475	5855	1455	0	-100	0	230	101300000	1000	0	0	-1	600
18132035	5861	1440	0	-100	0	230	101300000	1000	0	0	-1	600
18144595	5855	1454	0	-100	0	230	101300000	1000	0	0	-1	600
18157155	5863	1453	0	-100	0	230	101300000	1000	0	0	-1	600
18169715	5866	1453	0	-100	0	230	101300000	1000	0	0	-1	600
18182275	5860	1449	0	-100	0	230	101300000	1000	0	0	-1	600
18194835	5867	1453	0	-100	0	230	101300000	1000	0	0	-1	600
18207395	5863	1445	0	-100	0	230	101300000	1000	0	0	-1	600
18219955	5868	1458	0	-100	0	230	101300000	1000	0	0	-1	600
18232515	5871	1447	0	-100	0	230	101300000	1000	0	0	-1	600
18245075	5866	1447	0	-100	0	230	101300000	1000	0	0	-1	600
18257635	5868	1446	0	-100	0	230	101300000	1000	0	0	-1	600
18270195	5865	1453	0	-100	0	230	101300000	1000	0	0	-1	600
18282755	5869	1451	0	-100	0	230	101300000	1000	0	0	-1	600
18295315	5865	1447	0	-100	0	230	101300000	1000	0	0	-1	600
18307875	5864	1454	0	-100	0	230	101300000	1000	0	0	-1	600
18320435	5869	1455	0	-100	0	230	101300000	1000	0	0	-1	600
18332995	5865	1457	0	-100	0	230	101300000	1000	0	0	-1	600
18345555	5865	1453	0	-100	0	230	101300000	1000	0	0	-1	600
18358115	5870	1455	0	-100	0	230	101300000	1000	0	0	-1	600
18370675	5870	1454	0	-100	0	230	101300000	1000	0	0	-1	600
18383235	5867	1452	0	-100	0	230	101300000	1000	0	0	-1	600
18395795	5867	1450	0	-100	0	230	101300000	1000	0	0	-1	600
18408355	5870	1451	0	-100	0	230	101300000	1000	0	0	-1	600
18420915	5861	1449	0	-100	0	230	101300000	1000	0	0	-1	600
18433475	5867	1453	0	-100	0	230	101300000	1000	0	0	-1	600
18446035	5870	1447	0	-100	0	230	101300000	1000	0	0	-1	600
18458595	5868	1448	0	-100	0	230	101300000	1000	0	0	-1	600
18471155	5871	1452	0	-100	0	230	101300000	1000	0	0	-1	600
18483715	5865	1455	0	-100	0	230	101300000	1000	0	0	-1	600
18496275	5861	1452	0	-100	0	230	101300000	1000	0	0	-1	600
18508835	5866	1448	0	-100	0	230	101300000	1000	0	0	-1	600
18521395	5865	1451	0	-100	0	230	101300000	1000	0	0	-1	600
18533955	5861	1450	0	-100	0	230	101300000	1000	0	0	-1	600
18546515	5858	1441	0	-100	0	230	101300000	1000	0	0	-1	600
18559075	5862	1456	0	-100	0	230	101300000	1000	0	0	-1	600
18571635	5859	1445	0	-100	0	230	101300000	1000	0	0	-1	600
18584195	5863	1455	0	-100	0	230	101300000	1000	0	0	-1	600
18596755	5859	1447	0	-100	0	230	101300000	1000	0	0	-1	600
18609315	5865	1456	0	-100	0	230	101300000	1000	0	0	-1	600
18621875	5874	1450	0	-100	0	230	101300000	1000	0	0	-1	600
18634435	5872	1452	0	-100	0	230	101300000	1000	0	0	-1	600
18646995	5861	1438	0	-100	0	230	101300000	1000	0	0	-1	600
18659555	5858	1447	0	-100	0	230	101300000	1000	0	0	-1	600
18672115	5864	1440	0	-100	0	230	101300000	1000	0	0	-1	600
18684675	5858	1445	0	-100	0	230	101300000	1000	0	0	-1	600
18697235	5863	1454	0	-100	0	230	101300000	1000	0	0	-1	600
18709795	5874	1453	0	-100	0	230	101300000	1000	0	0	-1	600
18722355	5859	1445	0	-100	0	230	101300000	1000	0	0	-1	600
18734915	5859	1457	0	-100	0	230	101300000	1000	0	0	-1	600
18747475	5861	1448	0	-100	0	230	101300000	1000	0	0	-1	600
18760035	5864	1457	0	-100	0	230	101300000	1000	0	0	-1	600
18772595	5871	1454	0	-100	0	230	101300000	1000	0	0	-1	600
18785155	5869	1455	0	-100	0	230	101300000	1000	0	0	-1	600
18797715	5863	1451	0	-100	0	230	101300000	1000	0	0	-1	600
18810275	5864	1450	0	-100	0	230	101300000	1000	0	0	-1	600
18822835	5858	1456	0	-100	0	230	101300000	1000	0	0	-1	600
18835395	5868	1451	0	-100	0	230	101300000	1000	0	0	-1	600
18847955	5858	1453	0	-100	0	230	101300000	1000	0	0	-1	600
18860515	5861	1449	0	-100	0	230	101300000	1000	0	0	-1	600
18873075	5871	1445	0	-100	0	230	101300000	1000	0	0	-1	600
18885635	5865	1452	0	-100	0	230	101300000	1000	0	0	-1	600
18898195	5869	1452	0	-100	0	230	101300000	1000	0	0	-1	600
18910755	5870	1447	0	-100	0	230	101300000	1000	0	0	-1	600
18923315	5860	1448	0	-100	0	230	101300000	1000	0	0	-1	600
18935875	5864	1450	0	-100	0	230	101300000	1000	0	0	-1	600
18948435	5861	1452	0	-100	0	230	101300000	1000	0	0	-1	600
18960995	5859	1451	0	-100	0	230	101300000	1000	0	0	-1	600
18973555	5869	1455	0	-100	0	230	101300000	1000	0	0	-1	600
18986115	5863	1447	0	-100	0	230	101300000	1000	0	0	-1	600
18998675	5869	1450	0	-100	0	230	101300000	1000	0	0	-1	600
19011235	5865	1442	0	-100	0	230	101300000	1000	0	0	-1	600
19023795	5863	1455	0	-100	0	230	101300000	1000	0	0	-1	600
19036355	5870	1457	0	-100	0	230	101300000	1000	0	0	-1	600
19048915	5855	1440	0	-100	0	230	101300000	1000	0	0	-1	600
19061475	5861	1456	0	-100	0	230	101300000	1000	0	0	-1	600
19074035	5860	1453	0	-100	0	230	101300000	1000	0	0	-1	600
19086595	5869	1445	0	-100	0	230	101300000	1000	0	0	-1	600
19099155	5881	1451	0	-100	0	230	101300000	1000	0	0	-1	600
19111715	5869	1447	0	-100	0	230	101300000	1000	0	0	-1	600
19124275	5867	1447	0	-100	0	230	101300000	1000	0	0	-1	600
19136835	5866	1447	0	-100	0	230	101300000	1000	0	0	-1	600
19149395	5860	1455	0	-100	0	230	101300000	1000	0	0	-1	600
19161955	5866	1451	0	-100	0	230	101300000	1000	0	0	-1	600
19174515	5865	1457	0	-100	0	230	101300000	1000	0	0	-1	600
19187075	5872	1447	0	-100	0	230	101300000	1000	0	0	-1	600
19199635	5866	1453	0	-100	0	230	101300000	1000	0	0	-1	600
19212195	5859	1446	0	-100	0	230	101300000	1000	0	0	-1	600
19224755	5865	1450	0	-100	0	230	101300000	1000	0	0	-1	600
19237315	5869	1453	0	-100	0	230	101300000	1000	0	0	-1	600
19249875	5867	1455	0	-100	0	230	101300000	1000	0	0	-1	600
19262435	5866	1445	0	-100	0	230	101300000	1000	0	0	-1	600
19274995	5864	1452	0	-100	0	230	101300000	1000	0	0	-1	600
19287555	5859	1447	0	-100	0	230	101300000	1000	0	0	-1	600
19300115	5857	1455	0	-100	0	230	101300000	1000	0	0	-1	600
19312675	5861	1448	0	-100	0	230	101300000	1000	0	0	-1	600
19325235	5859	1445	0	-100	0	230	101300000	1000	0	0	-1	600
19337795	5865	1455	0	-100	0	230	101300000	1000	0	0	-1	600
19350355	5868	1451	0	-100	0	230	101300000	1000	0	0	-1	600
19362915	5863	1453	0	-100	0	230	101300000	1000	0	0	-1	600
19375475	5858	1448	0	-100	0	230	101300000	1000	0	0	-1	600
19388035	5859	1456	0	-100	0	230	101300000	1000	0	0	-1	600
19400595	5861	1445	0	-100	0	230	101300000	1000	0	0	-1	600
19413155	5864	1453	0	-100	0	230	101300000	1000	0	0	-1	600
19425715	5857	1453	0	-100	0	230	101300000	1000	0	0	-1	600
19438275	5862	1449	0	-100	0	230	101300000	1000	0	0	-1	600
19450835	5869	1458	0	-100	0	230	101300000	1000	0	0	-1	600
19463395	5864	1457	0	-100	0	230	101300000	1000	0	0	-1	600
19475955	5867	1458	0	-100	0	230	101300000	1000	0	0	-1	600
19488515	5873	1457	0	-100	0	230	101300000	1000	0	0	-1	600
19501075	5867	1449	0	-100	0	230	101300000	1000	0	0	-1	600
19513635	5868	1455	0	-100	0	230	101300000	1000	0	0	-1	600
19526195	5859	1447	0	-100	0	230	101300000	1000	0	0	-1	600
19538755	5860	1443	0	-100	0	230	101300000	1000	0	0	-1	600
19551315	5859	1453	0	-100	0	230	101300000	1000	0	0	-1	600
19563875	5865	1450	0	-100	0	230	101300000	1000	0	0	-1	600
19576435	5865	1453	0	-100	0	230	101300000	1000	0	0	-1	600
19588995	5873	1455	0	-100	0	230	101300000	1000	0	0	-1	600
19601555	5861	1447	0	-100	0	230	101300000	1000	0	0	-1	600
19614115	5860	1458	0	-100	0	230	101300000	1000	0	0	-1	600
19626675	5864	1441	0	-100	0	230	101300000	1000	0	0	-1	600
19639235	5853	1452	0	-100	0	230	101300000	1000	0	0	-1	600
19651795	5864	1448	0	-100	0	230	101300000	1000	0	0	-1	600
19664355	5866	1457	0	-100	0	230	101300000	1000	0	0	-1	600
19676915	5869	1457	0	-100	0	230	101300000	1000	0	0	-1	600
19689475	5865	1448	0	-100	0	230	101300000	1000	0	0	-1	600
19702035	5867	1449	0	-100	0	230	101300000	1000	0	0	-1	600
19714595	5865	1450	0	-100	0	230	101300000	1000	0	0	-1	600
19727155	5868	1451	0	-100	0	230	101300000	1000	0	0	-1	600
19739715	5862	1452	0	-100	0	230	101300000	1000	0	0	-1	600
19752275	5865	1447	0	-100	0	230	101300000	1000	0	0	-1	600
19764835	5856	1446	0	-100	0	230	101300000	1000	0	0	-1	600
19777395	5863	1451	0	-100	0	230	101300000	1000	0	0	-1	600
19789955	5863	1454	0	-100	0	230	101300000	1000	0	0	-1	600
19802515	5871	1453	0	-100	0	230	101300000	1000	0	0	-1	600
19815075	5864	1452	0	-100	0	230	101300000	1000	0	0	-1	600
19827635	5864	1453	0	-100	0	230	101300000	1000	0	0	-1	600
19840195	5861	1453	0	-100	0	230	101300000	1000	0	0	-1	600
19852755	5865	1452	0	-100	0	230	101300000	1000	0	0	-1	600
19865315	5860	1450	0	-100	0	230	101300000	1000	0	0	-1	600
19877875	5862	1447	0	-100	0	230	101300000	1000	0	0	-1	600
19890435	5863	1449	0	-100	0	230	101300000	1000	0	0	-1	600
19902995	5871	1453	0	-100	0	230	101300000	1000	0	0	-1	600
19915555	5864	1446	0	-100	0	230	101300000	1000	0	0	-1	600
19928115	5861	1455	0	-100	0	230	101300000	1000	0	0	-1	600
19940675	5871	1451	0	-100	0	230	101300000	1000	0	0	-1	600
19953235	5866	1449	0	-100	0	230	101300000	1000	0	0	-1	600
19965795	5864	1453	0	-100	0	230	101300000	1000	0	0	-1	600
19978355	5863	1447	0	-100	0	230	101300000	1000	0	0	-1	600
19990915	5863	1444	0	-100	0	230	101300000	1000	0	0	-1	600
20003475	5861	1453	0	-100	0	230	101300000	1000	0	0	-1	600
20016035	5862	1454	0	-100	0	230	101300000	1000	0	0	-1	600
20028595	5866	1453	0	-100	0	230	101300000	1000	0	0	-1	600
20041155	5873	1449	0	-100	0	230	101300000	1000	0	0	-1	600
20053715	5867	1446	0	-100	0	230	101300000	1000	0	0	-1	600
20066275	5863	1462	0	-100	0	230	101300000	1000	0	0	-1	600
20078835	5864	1457	0	-100	0	230	101300000	1000	0	0	-1	600
20091395	5870	1448	0	-100	0	230	101300000	1000	0	0	-1	600
20103955	5862	1448	0	-100	0	230	101300000	1000	0	0	-1	600
20116515	5855	1450	0	-100	0	230	101300000	1000	0	0	-1	600
20129075	5861	1454	0	-100	0	230	101300000	1000	0	0	-1	600
20141635	5863	1460	0	-100	0	230	101300000	1000	0	0	-1	600
20154195	5868	1443	0	-100	0	230	101300000	1000	0	0	-1	600
20166755	5865	1447	0	-100	0	230	101300000	1000	0	0	-1	600
20179315	5860	1450	0	-100	0	230	101300000	1000	0	0	-1	600
20191875	5865	1457	0	-100	0	230	101300000	1000	0	0	-1	600
20204435	5867	1445	0	-100	0	230	101300000	1000	0	0	-1	600
20216995	5870	1449	0	-100	0	230	101300000	1000	0	0	-1	600
20229555	5863	1449	0	-100	0	230	101300000	1000	0	0	-1	600
20242115	5861	1449	0	-100	0	230	101300000	1000	0	0	-1	600
20254675	5857	1449	0	-100	0	230	101300000	1000	0	0	-1	600
20267235	5859	1456	0	-100	0	230	101300000	1000	0	0	-1	600
20279795	5863	1454	0	-100	0	230	101300000	1000	0	0	-1	600
20292355	5865	1455	0	-100	0	230	101300000	1000	0	0	-1	600
20304915	5861	1455	0	-100	0	230	101300000	1000	0	0	-1	600
20317475	5866	1447	0	-100	0	230	101300000	1000	0	0	-1	600
20330035	5870	1455	0	-100	0	230	101300000	1000	0	0	-1	600
20342595	5865	1451	0	-100	0	230	101300000	1000	0	0	-1	600
20355155	5868	1453	0	-100	0	230	101300000	1000	0	0	-1	600
20367715	5861	1451	0	-100	0	230	101300000	1000	0	0	-1	600
20380275	5863	1448	0	-100	0	230	101300000	1000	0	0	-1	600
20392835	5864	1453	0	-100	0	230	101300000	1000	0	0	-1	600
20405395	5855	1456	0	-100	0	230	101300000	1000	0	0	-1	600
20417955	5860	1453	0	-100	0	230	101300000	1000	0	0	-1	600
20430515	5863	1456	0	-100	0	230	101300000	1000	0	0	-1	600
20443075	5873	1447	0	-100	0	230	101300000	1000	0	0	-1	600
20455635	5867	1454	0	-100	0	230	101300000	1000	0	0	-1	600
20468195	5864	1441	0	-100	0	230	101300000	1000	0	0	-1	600
20480755	5860	1444	0	-100	0	230	101300000	1000	0	0	-1	600
20493315	5857	1459	0	-100	0	230	101300000	1000	0	0	-1	600
20505875	5858	1454	0	-100	0	230	101300000	1000	0	0	-1	600
20518435	5863	1453	0	-100	0	230	101300000	1000	0	0	-1	600
20530995	5876	1451	0	-100	0	230	101300000	1000	0	0	-1	600
20543555	5873	1456	0	-100	0	230	101300000	1000	0	0	-1	600
20556115	5870	1458	0	-100	0	230	101300000	1000	0	0	-1	600
20568675	5870	1450	0	-100	0	230	101300000	1000	0	0	-1	600
20581235	5867	1447	0	-100	0	230	101300000	1000	0	0	-1	600
20593795	5867	1451	0	-100	0	230	101300000	1000	0	0	-1	600
20606355	5859	1452	0	-100	0	230	101300000	1000	0	0	-1	600
20618915	5855	1452	0	-100	0	230	101300000	1000	0	0	-1	600
20631475	5869	1454	0	-100	0	230	101300000	1000	0	0	-1	600
20644035	5863	1456	0	-100	0	230	101300000	1000	0	0	-1	600
20656595	5863	1453	0	-100	0	230	101300000	1000	0	0	-1	600
20669155	5869	1447	0	-100	0	230	101300000	1000	0	0	-1	600
20681715	5867	1449	0	-100	0	230	101300000	1000	0	0	-1	600
20694275	5870	1455	0	-100	0	230	101300000	1000	0	0	-1	600
20706835	5869	1452	0	-100	0	230	101300000	1000	0	0	-1	600
20719395	5869	1455	0	-100	0	230	101300000	1000	0	0	-1	600
20731955	5865	1454	0	-100	0	230	101300000	1000	0	0	-1	600
20744515	5859	1452	0	-100	0	230	101300000	1000	0	0	-1	600
20757075	5863	1453	0	-100	0	230	101300000	1000	0	0	-1	600
20769635	5868	1443	0	-100	0	230	101300000	1000	0	0	-1	600
20782195	5869	1446	0	-100	0	230	101300000	1000	0	0	-1	600
20794755	5870	1449	0	-100	0	230	101300000	1000	0	0	-1	600
20807315	5870	1455	0	-100	0	230	101300000	1000	0	0	-1	600
20819875	5868	1447	0	-100	0	230	101300000	1000	0	0	-1	600
20832435	5865	1450	0	-100	0	230	101300000	1000	0	0	-1	600
20844995	5863	1457	0	-100	0	230	101300000	1000	0	0	-1	600
20857555	5864	1449	0	-100	0	230	101300000	1000	0	0	-1	600
20870115	5857	1454	0	-100	0	230	101300000	1000	0	0	-1	600
20882675	5861	1449	0	-100	0	230	101300000	1000	0	0	-1	600
20895235	5864	1450	0	-100	0	230	101300000	1000	0	0	-1	600
20907795	5865	1457	0	-100	0	230	101300000	1000	0	0	-1	600
20920355	5868	1446	0	-100	0	230	101300000	1000	0	0	-1	600
20932915	5864	1453	0	-100	0	230	101300000	1000	0	0	-1	600
20945475	5865	1455	0	-100	0	230	101300000	1000	0	0	-1	600
20958035	5872	1451	0	-100	0	230	101300000	1000	0	0	-1	600
20970595	5876	1452	0	-100	0	230	101300000	1000	0	0	-1	600
20983155	5883	1455	0	-100	0	230	101300000	1000	0	0	-1	600
20995715	5866	1454	0	-100	0	230	101300000	1000	0	0	-1	600
21008275	5866	1445	0	-100	0	230	101300000	1000	0	0	-1	600
21020835	5869	1449	0	-100	0	230	101300000	1000	0	0	-1	600
21033395	5869	1454	0	-100	0	230	101300000	1000	0	0	-1	600
21045955	5864	1451	0	-100	0	230	101300000	1000	0	0	-1	600
21058515	5863	1448	0	-100	0	230	101300000	1000	0	0	-1	600
21071075	5867	1456	0	-100	0	230	101300000	1000	0	0	-1	600
21083635	5865	1448	0	-100	0	230	101300000	1000	0	0	-1	600
21096195	5865	1441	0	-100	0	230	101300000	1000	0	0	-1	600
21108755	5860	1443	0	-100	0	230	101300000	1000	0	0	-1	600
21121315	5858	1457	0	-100	0	230	101300000	1000	0	0	-1	600
21133875	5859	1450	0	-100	0	230	101300000	1000	0	0	-1	600
21146435	5860	1450	0	-100	0	230	101300000	1000	0	0	-1	600
21158995	5865	1445	0	-100	0	230	101300000	1000	0	0	-1	600
21171555	5869	1453	0	-100	0	230	101300000	1000	0	0	-1	600
21184115	5861	1449	0	-100	0	230	101300000	1000	0	0	-1	600
21196675	5865	1452	0	-100	0	230	101300000	1000	0	0	-1	600
21209235	5864	1447	0	-100	0	230	101300000	1000	0	0	-1	600
21221795	5868	1451	0	-100	0	230	101300000	1000	0	0	-1	600
21234355	5869	1452	0	-100	0	230	101300000	1000	0	0	-1	600
21246915	5860	1449	0	-100	0	230	101300000	1000	0	0	-1	600
21259475	5861	1455	0	-100	0	230	101300000	1000	0	0	-1	600
21272035	5859	1453	0	-100	0	230	101300000	1000	0	0	-1	600
21284595	5865	1455	0	-100	0	230	101300000	1000	0	0	-1	600
21297155	5869	1453	0	-100	0	230	101300000	1000	0	0	-1	600
21309715	5863	1454	0	-100	0	230	101300000	1000	0	0	-1	600
21322275	5865	1451	0	-100	0	230	101300000	1000	0	0	-1	600
21334835	5867	1453	0	-100	0	230	101300000	1000	0	0	-1	600
21347395	5868	1455	0	-100	0	230	101300000	1000	0	0	-1	600
21359955	5865	1453	0	-100	0	230	101300000	1000	0	0	-1	600
21372515	5862	1453	0	-100	0	230	101300000	1000	0	0	-1	600
21385075	5871	1449	0	-100	0	230	101300000	1000	0	0	-1	600
21397635	5860	1449	0	-100	0	230	101300000	1000	0	0	-1	600
21410195	5865	1447	0	-100	0	230	101300000	1000	0	0	-1	600
21422755	5858	1453	0	-100	0	230	101300000	1000	0	0	-1	600
21435315	5866	1457	0	-100	0	230	101300000	1000	0	0	-1	600
21447875	5861	1445	0	-100	0	230	101300000	1000	0	0	-1	600
21460435	5865	1451	0	-100	0	230	101300000	1000	0	0	-1	600
21472995	5857	1447	0	-100	0	230	101300000	1000	0	0	-1	600
21485555	5866	1446	0	-100	0	230	101300000	1000	0	0	-1	600
21498115	5855	1449	0	-100	0	230	101300000	1000	0	0	-1	600
21510675	5859	1453	0	-100	0	230	101300000	1000	0	0	-1	600
21523235	5869	1445	0	-100	0	230	101300000	1000	0	0	-1	600
21535795	5869	1454	0	-100	0	230	101300000	1000	0	0	-1	600
21548355	5867	1456	0	-100	0	230	101300000	1000	0	0	-1	600
21560915	5863	1447	0	-100	0	230	101300000	1000	0	0	-1	600
21573475	5860	1445	0	-100	0	230	101300000	1000	0	0	-1	600
21586035	5861	1454	0	-100	0	230	101300000	1000	0	0	-1	600
21598595	5869	1453	0	-100	0	230	101300000	1000	0	0	-1	600
21611155	5873	1452	0	-100	0	230	101300000	1000	0	0	-1	600
21623715	5870	1452	0	-100	0	230	101300000	1000	0	0	-1	600
21636275	5869	1446	0	-100	0	230	101300000	1000	0	0	-1	600
21648835	5861	1448	0	-100	0	230	101300000	1000	0	0	-1	600
21661395	5861	1449	0	-100	0	230	101300000	1000	0	0	-1	600
21673955	5860	1449	0	-100	0	230	101300000	1000	0	0	-1	600
21686515	5861	1443	0	-100	0	230	101300000	1000	0	0	-1	600
21699075	5860	1448	0	-100	0	230	101300000	1000	0	0	-1	600
21711635	5855	1450	0	-100	0	230	101300000	1000	0	0	-1	600
21724195	5859	1450	0	-100	0	230	101300000	1000	0	0	-1	600
21736755	5867	1448	0	-100	0	230	101300000	1000	0	0	-1	600
21749315	5869	1447	0	-100	0	230	101300000	1000	0	0	-1	600
21761875	5869	1453	0	-100	0	230	101300000	1000	0	0	-1	600
21774435	5864	1449	0	-100	0	230	101300000	1000	0	0	-1	600
21786995	5853	1445	0	-100	0	230	101300000	1000	0	0	-1	600
21799555	5861	1448	0	-100	0	230	101300000	1000	0	0	-1	600
21812115	5865	1452	0	-100	0	230	101300000	1000	0	0	-1	600
21824675	5872	1448	0	-100	0	230	101300000	1000	0	0	-1	600
21837235	5873	1447	0	-100	0	230	101300000	1000	0	0	-1	600
21849795	5858	1448	0	-100	0	230	101300000	1000	0	0	-1	600
21862355	5865	1450	0	-100	0	230	101300000	1000	0	0	-1	600
21874915	5869	1451	0	-100	0	230	101300000	1000	0	0	-1	600
21887475	5862	1447	0	-100	0	230	101300000	1000	0	0	-1	600
21900035	5859	1449	0	-100	0	230	101300000	1000	0	0	-1	600
21912595	5856	1451	0	-100	0	230	101300000	1000	0	0	-1	600
21925155	5870	1449	0	-100	0	230	101300000	1000	0	0	-1	600
21937715	5857	1451	0	-100	0	230	101300000	1000	0	0	-1	600
21950275	5859	1448	0	-100	0	230	101300000	1000	0	0	-1	600
21962835	5865	1448	0	-100	0	230	101300000	1000	0	0	-1	600
21975395	5861	1451	0	-100	0	230	101300000	1000	0	0	-1	600
21987955	5863	1450	0	-100	0	230	101300000	1000	0	0	-1	600
22000515	5869	1452	0	-100	0	230	101300000	1000	0	0	-1	600
22013075	5866	1450	0	-100	0	230	101300000	1000	0	0	-1	600
22025635	5867	1450	0	-100	0	230	101300000	1000	0	0	-1	600
22038195	5873	1454	0	-100	0	230	101300000	1000	0	0	-1	600
22050755	5863	1451	0	-100	0	230	101300000	1000	0	0	-1	600
22063315	5861	1450	0	-100	0	230	101300000	1000	0	0	-1	600
22075875	5864	1451	0	-100	0	230	101300000	1000	0	0	-1	600
22088435	5857	1453	0	-100	0	230	101300000	1000	0	0	-1	600
22100995	5864	1447	0	-100	0	230	101300000	1000	0	0	-1	600
22113555	5869	1449	0	-100	0	230	101300000	1000	0	0	-1	600
22126115	5867	1452	0	-100	0	230	101300000	1000	0	0	-1	600
22138675	5871	1457	0	-100	0	230	101300000	1000	0	0	-1	600
22151235	5869	1449	0	-100	0	230	101300000	1000	0	0	-1	600
22163795	5865	1453	0	-100	0	230	101300000	1000	0	0	-1	600
22176355	5866	1453	0	-100	0	230	101300000	1000	0	0	-1	600
22188915	5861	1447	0	-100	0	230	101300000	1000	0	0	-1	600
22201475	5857	1457	0	-100	0	230	101300000	1000	0	0	-1	600
22214035	5864	1455	0	-100	0	230	101300000	1000	0	0	-1	600
22226595	5861	1451	0	-100	0	230	101300000	1000	0	0	-1	600
22239155	5874	1449	0	-100	0	230	101300000	1000	0	0	-1	600
22251715	5856	1446	0	-100	0	230	101300000	1000	0	0	-1	600
22264275	5861	1449	0	-100	0	230	101300000	1000	0	0	-1	600
22276835	5864	1454	0	-100	0	230	101300000	1000	0	0	-1	600
22289395	5863	1453	0	-100	0	230	101300000	1000	0	0	-1	600
22301955	5867	1446	0	-100	0	230	101300000	1000	0	0	-1	600
22314515	5861	1450	0	-100	0	230	101300000	1000	0	0	-1	600
22327075	5865	1454	0	-100	0	230	101300000	1000	0	0	-1	600
22339635	5869	1449	0	-100	0	230	101300000	1000	0	0	-1	600
22352195	5873	1452	0	-100	0	230	101300000	1000	0	0	-1	600
22364755	5862	1448	0	-100	0	230	101300000	1000	0	0	-1	600
22377315	5865	1455	0	-100	0	230	101300000	1000	0	0	-1	600
22389875	5874	1453	0	-100	0	230	101300000	1000	0	0	-1	600
22402435	5870	1453	0	-100	0	230	101300000	1000	0	0	-1	600
22414995	5867	1451	0	-100	0	230	101300000	1000	0	0	-1	600
22427555	5869	1456	0	-100	0	230	101300000	1000	0	0	-1	600
22440115	5868	1451	0	-100	0	230	101300000	1000	0	0	-1	600
22452675	5869	1452	0	-100	0	230	101300000	1000	0	0	-1	600
22465235	5861	1451	0	-100	0	230	101300000	1000	0	0	-1	600
22477795	5857	1452	0	-100	0	230	101300000	1000	0	0	-1	600
22490355	5857	1453	0	-100	0	230	101300000	1000	0	0	-1	600
22502915	5865	1450	0	-100	0	230	101300000	1000	0	0	-1	600
22515475	5874	1448	0	-100	0	230	101300000	1000	0	0	-1	600
22528035	5867	1449	0	-100	0	230	101300000	1000	0	0	-1	600
22540595	5863	1451	0	-100	0	230	101300000	1000	0	0	-1	600
22553155	5862	1443	0	-100	0	230	101300000	1000	0	0	-1	600
22565715	5858	1455	0	-100	0	230	101300000	1000	0	0	-1	600
22578275	5864	1452	0	-100	0	230	101300000	1000	0	0	-1	600
22590835	5869	1451	0	-100	0	230	101300000	1000	0	0	-1	600
22603395	5861	1447	0	-100	0	230	101300000	1000	0	0	-1	600
22615955	5865	1456	0	-100	0	230	101300000	1000	0	0	-1	600
22628515	5871	1455	0	-100	0	230	101300000	1000	0	0	-1	600
22641075	5865	1454	0	-100	0	230	101300000	1000	0	0	-1	600
22653635	5863	1454	0	-100	0	230	101300000	1000	0	0	-1	600
22666195	5859	1449	0	-100	0	230	101300000	1000	0	0	-1	600
22678755	5866	1451	0	-100	0	230	101300000	1000	0	0	-1	600
22691315	5861	1445	0	-100	0	230	101300000	1000	0	0	-1	600
22703875	5861	1452	0	-100	0	230	101300000	1000	0	0	-1	600
22716435	5861	1447	0	-100	0	230	101300000	1000	0	0	-1	600
22728995	5865	1450	0	-100	0	230	101300000	1000	0	0	-1	600
22741555	5864	1447	0	-100	0	230	101300000	1000	0	0	-1	600
22754115	5867	1454	0	-100	0	230	101300000	1000	0	0	-1	600
22766675	5869	1446	0	-100	0	230	101300000	1000	0	0	-1	600
22779235	5865	1456	0	-100	0	230	101300000	1000	0	0	-1	600
22791795	5861	1456	0	-100	0	230	101300000	1000	0	0	-1	600
22804355	5862	1446	0	-100	0	230	101300000	1000	0	0	-1	600
22816915	5869	1444	0	-100	0	230	101300000	1000	0	0	-1	600
22829475	5865	1453	0	-100	0	230	101300000	1000	0	0	-1	600
22842035	5862	1446	0	-100	0	230	101300000	1000	0	0	-1	600
22854595	5864	1455	0	-100	0	230	101300000	1000	0	0	-1	600
22867155	5870	1447	0	-100	0	230	101300000	1000	0	0	-1	600
22879715	5857	1445	0	-100	0	230	101300000	1000	0	0	-1	600
22892275	5861	1449	0	-100	0	230	101300000	1000	0	0	-1	600
22904835	5863	1453	0	-100	0	230	101300000	1000	0	0	-1	600
22917395	5867	1450	0	-100	0	230	101300000	1000	0	0	-1	600
22929955	5870	1454	0	-100	0	230	101300000	1000	0	0	-1	600
22942515	5866	1451	0	-100	0	230	101300000	1000	0	0	-1	600
22955075	5865	1450	0	-100	0	230	101300000	1000	0	0	-1	600
22967635	5864	1456	0	-100	0	230	101300000	1000	0	0	-1	600
22980195	5863	1452	0	-100	0	230	101300000	1000	0	0	-1	600
22992755	5865	1448	0	-100	0	230	101300000	1000	0	0	-1	600
23005315	5867	1449	0	-100	0	230	101300000	1000	0	0	-1	600
23017875	5867	1449	0	-100	0	230	101300000	1000	0	0	-1	600
23030435	5874	1450	0	-100	0	230	101300000	1000	0	0	-1	600
23042995	5872	1455	0	-100	0	230	101300000	1000	0	0	-1	600
23055555	5870	1447	0	-100	0	230	101300000	1000	0	0	-1	600
23068115	5864	1449	0	-100	0	230	101300000	1000	0	0	-1	600
23080675	5863	1443	0	-100	0	230	101300000	1000	0	0	-1	600
23093235	5861	1453	0	-100	0	230	101300000	1000	0	0	-1	600
23105795	5865	1449	0	-100	0	230	101300000	1000	0	0	-1	600
23118355	5872	1452	0	-100	0	230	101300000	1000	0	0	-1	600
23130915	5868	1447	0	-100	0	230	101300000	1000	0	0	-1	600
23143475	5860	1443	0	-100	0	230	101300000	1000	0	0	-1	600
23156035	5867	1460	0	-100	0	230	101300000	1000	0	0	-1	600
23168595	5868	1459	0	-100	0	230	101300000	1000	0	0	-1	600
23181155	5870	1455	0	-100	0	230	101300000	1000	0	0	-1	600
23193715	5861	1446	0	-100	0	230	101300000	1000	0	0	-1	600
23206275	5869	1453	0	-100	0	230	101300000	1000	0	0	-1	600
23218835	5869	1449	0	-100	0	230	101300000	1000	0	0	-1	600
23231395	5873	1450	0	-100	0	230	101300000	1000	0	0	-1	600
23243955	5862	1450	0	-100	0	230	101300000	1000	0	0	-1	600
23256515	5861	1453	0	-100	0	230	101300000	1000	0	0	-1	600
23269075	5869	1449	0	-100	0	230	101300000	1000	0	0	-1	600
23281635	5864	1449	0	-100	0	230	101300000	1000	0	0	-1	600
23294195	5866	1451	0	-100	0	230	101300000	1000	0	0	-1	600
23306755	5867	1453	0	-100	0	230	101300000	1000	0	0	-1	600
23319315	5870	1445	0	-100	0	230	101300000	1000	0	0	-1	600
23331875	5864	1453	0	-100	0	230	101300000	1000	0	0	-1	600
23344435	5865	1450	0	-100	0	230	101300000	1000	0	0	-1	600
23356995	5865	1451	0	-100	0	230	101300000	1000	0	0	-1	600
23369555	5874	1457	0	-100	0	230	101300000	1000	0	0	-1	600
23382115	5872	1445	0	-100	0	230	101300000	1000	0	0	-1	600
23394675	5861	1453	0	-100	0	230	101300000	1000	0	0	-1	600
23407235	5859	1450	0	-100	0	230	101300000	1000	0	0	-1	600
23419795	5859	1453	0	-100	0	230	101300000	1000	0	0	-1	600
23432355	5859	1455	0	-100	0	230	101300000	1000	0	0	-1	600
23444915	5861	1455	0	-100	0	230	101300000	1000	0	0	-1	600
23457475	5862	1448	0	-100	0	230	101300000	1000	0	0	-1	600
23470035	5869	1450	0	-100	0	230	101300000	1000	0	0	-1	600
23482595	5869	1449	0	-100	0	230	101300000	1000	0	0	-1	600
23495155	5868	1447	0	-100	0	230	101300000	1000	0	0	-1	600
23507715	5864	1453	0	-100	0	230	101300000	1000	0	0	-1	600
23520275	5864	1449	0	-100	0	230	101300000	1000	0	0	-1	600
23532835	5865	1460	0	-100	0	230	101300000	1000	0	0	-1	600
23545395	5866	1455	0	-100	0	230	101300000	1000	0	0	-1	600
23557955	5866	1448	0	-100	0	230	101300000	1000	0	0	-1	600
23570515	5864	1449	0	-100	0	230	101300000	1000	0	0	-1	600
23583075	5863	1456	0	-100	0	230	101300000	1000	0	0	-1	600
23595635	5869	1449	0	-100	0	230	101300000	1000	0	0	-1	600
23608195	5864	1453	0	-100	0	230	101300000	1000	0	0	-1	600
23620755	5866	1457	0	-100	0	230	101300000	1000	0	0	-1	600
23633315	5869	1453	0	-100	0	230	101300000	1000	0	0	-1	600
23645875	5860	1449	0	-100	0	230	101300000	1000	0	0	-1	600
23658435	5863	1450	0	-100	0	230	101300000	1000	0	0	-1	600
23670995	5861	1453	0	-100	0	230	101300000	1000	0	0	-1	600
23683555	5858	1451	0	-100	0	230	101300000	1000	0	0	-1	600
23696115	5862	1451	0	-100	0	230	101300000	1000	0	0	-1	600
23708675	5859	1446	0	-100	0	230	101300000	1000	0	0	-1	600
23721235	5863	1451	0	-100	0	230	101300000	1000	0	0	-1	600
23733795	5857	1452	0	-100	0	230	101300000	1000	0	0	-1	600
23746355	5863	1452	0	-100	0	230	101300000	1000	0	0	-1	600
23758915	5862	1450	0	-100	0	230	101300000	1000	0	0	-1	600
23771475	5865	1453	0	-100	0	230	101300000	1000	0	0	-1	600
23784035	5867	1447	0	-100	0	230	101300000	1000	0	0	-1	600
23796595	5865	1458	0	-100	0	230	101300000	1000	0	0	-1	600
23809155	5880	1458	0	-100	0	230	101300000	1000	0	0	-1	600
23821715	5868	1447	0	-100	0	230	101300000	1000	0	0	-1	600
23834275	5865	1454	0	-100	0	230	101300000	1000	0	0	-1	600
23846835	5868	1449	0	-100	0	230	101300000	1000	0	0	-1	600
23859395	5859	1451	0	-100	0	230	101300000	1000	0	0	-1	600
23871955	5860	1455	0	-100	0	230	101300000	1000	0	0	-1	600
23884515	5862	1446	0	-100	0	230	101300000	1000	0	0	-1	600
23897075	5859	1451	0	-100	0	230	101300000	1000	0	0	-1	600
23909635	5862	1452	0	-100	0	230	101300000	1000	0	0	-1	600
23922195	5860	1453	0	-100	0	230	101300000	1000	0	0	-1	600
23934755	5863	1446	0	-100	0	230	101300000	1000	0	0	-1	600
23947315	5868	1453	0	-100	0	230	101300000	1000	0	0	-1	600
23959875	5864	1448	0	-100	0	230	101300000	1000	0	0	-1	600
23972435	5860	1453	0	-100	0	230	101300000	1000	0	0	-1	600
23984995	5859	1445	0	-100	0	230	101300000	1000	0	0	-1	600
23997555	5869	1451	0	-100	0	230	101300000	1000	0	0	-1	600
24010115	5864	1449	0	-100	0	230	101300000	1000	0	0	-1	600
24022675	5867	1450	0	-100	0	230	101300000	1000	0	0	-1	600
24035235	5873	1455	0	-100	0	230	101300000	1000	0	0	-1	600
24047795	5861	1448	0	-100	0	230	101300000	1000	0	0	-1	600
24060355	5863	1453	0	-100	0	230	101300000	1000	0	0	-1	600
24072915	5866	1453	0	-100	0	230	101300000	1000	0	0	-1	600
24085475	5861	1455	0	-100	0	230	101300000	1000	0	0	-1	600
24098035	5866	1449	0	-100	0	230	101300000	1000	0	0	-1	600
24110595	5861	1451	0	-100	0	230	101300000	1000	0	0	-1	600
24123155	5870	1451	0	-100	0	230	101300000	1000	0	0	-1	600
24135715	5869	1451	0	-100	0	230	101300000	1000	0	0	-1	600
24148275	5867	1458	0	-100	0	230	101300000	1000	0	0	-1	600
24160835	5872	1459	0	-100	0	230	101300000	1000	0	0	-1	600
24173395	5864	1443	0	-100	0	230	101300000	1000	0	0	-1	600
24185955	5863	1456	0	-100	0	230	101300000	1000	0	0	-1	600
24198515	5866	1450	0	-100	0	230	101300000	1000	0	0	-1	600
24211075	5867	1445	0	-100	0	230	101300000	1000	0	0	-1	600
24223635	5865	1454	0	-100	0	230	101300000	1000	0	0	-1	600
24236195	5873	1452	0	-100	0	230	101300000	1000	0	0	-1	600
24248755	5865	1451	0	-100	0	230	101300000	1000	0	0	-1	600
24261315	5869	1455	0	-100	0	230	101300000	1000	0	0	-1	600
24273875	5868	1451	0	-100	0	230	101300000	1000	0	0	-1	600
24286435	5864	1452	0	-100	0	230	101300000	1000	0	0	-1	600
24298995	5873	1454	0	-100	0	230	101300000	1000	0	0	-1	600
24311555	5865	1451	0	-100	0	230	101300000	1000	0	0	-1	600
24324115	5863	1456	0	-100	0	230	101300000	1000	0	0	-1	600
24336675	5865	1447	0	-100	0	230	101300000	1000	0	0	-1	600
24349235	5867	1453	0	-100	0	230	101300000	1000	0	0	-1	600
24361795	5862	1450	0	-100	0	230	101300000	1000	0	0	-1	600
24374355	5866	1454	0	-100	0	230	101300000	1000	0	0	-1	600
24386915	5853	1448	0	-100	0	230	101300000	1000	0	0	-1	600
24399475	5859	1452	0	-100	0	230	101300000	1000	0	0	-1	600
24412035	5865	1449	0	-100	0	230	101300000	1000	0	0	-1	600
24424595	5861	1445	0	-100	0	230	101300000	1000	0	0	-1	600
24437155	5870	1451	0	-100	0	230	101300000	1000	0	0	-1	600
24449715	5867	1452	0	-100	0	230	101300000	1000	0	0	-1	600
24462275	5871	1449	0	-100	0	230	101300000	1000	0	0	-1	600
24474835	5860	1450	0	-100	0	230	101300000	1000	0	0	-1	600
24487395	5865	1455	0	-100	0	230	101300000	1000	0	0	-1	600
24499955	5864	1453	0	-100	0	230	101300000	1000	0	0	-1	600
24512515	5857	1460	0	-100	0	230	101300000	1000	0	0	-1	600
24525075	5869	1453	0	-100	0	230	101300000	1000	0	0	-1	600
24537635	5866	1442	0	-100	0	230	101300000	1000	0	0	-1	600
24550195	5862	1451	0	-100	0	230	101300000	1000	0	0	-1	600
24562755	5863	1452	0	-100	0	230	101300000	1000	0	0	-1	600
24575315	5866	1454	0	-100	0	230	101300000	1000	0	0	-1	600
24587875	5865	1457	0	-100	0	230	101300000	1000	0	0	-1	600
24600435	5861	1448	0	-100	0	230	101300000	1000	0	0	-1	600
24612995	5865	1447	0	-100	0	230	101300000	1000	0	0	-1	600
24625555	5871	1450	0	-100	0	230	101300000	1000	0	0	-1	600
24638115	5869	1452	0	-100	0	230	101300000	1000	0	0	-1	600
24650675	5865	1449	0	-100	0	230	101300000	1000	0	0	-1	600
24663235	5867	1457	0	-100	0	230	101300000	1000	0	0	-1	600
24675795	5861	1449	0	-100	0	230	101300000	1000	0	0	-1	600
24688355	5866	1449	0	-100	0	230	101300000	1000	0	0	-1	600
24700915	5857	1447	0	-100	0	230	101300000	1000	0	0	-1	600
24713475	5861	1458	0	-100	0	230	101300000	1000	0	0	-1	600
24726035	5860	1449	0	-100	0	230	101300000	1000	0	0	-1	600
24738595	5857	1453	0	-100	0	230	101300000	1000	0	0	-1	600
24751155	5869	1453	0	-100	0	230	101300000	1000	0	0	-1	600
24763715	5861	1460	0	-100	0	230	101300000	1000	0	0	-1	600
24776275	5869	1449	0	-100	0	230	101300000	1000	0	0	-1	600
24788835	5863	1447	0	-100	0	230	101300000	1000	0	0	-1	600
24801395	5866	1449	0	-100	0	230	101300000	1000	0	0	-1	600
24813955	5865	1453	0	-100	0	230	101300000	1000	0	0	-1	600
24826515	5873	1448	0	-100	0	230	101300000	1000	0	0	-1	600
24839075	5863	1450	0	-100	0	230	101300000	1000	0	0	-1	600
24851635	5865	1447	0	-100	0	230	101300000	1000	0	0	-1	600
24864195	5865	1451	0	-100	0	230	101300000	1000	0	0	-1	600
24876755	5863	1447	0	-100	0	230	101300000	1000	0	0	-1	600
24889315	5865	1449	0	-100	0	230	101300000	1000	0	0	-1	600
24901875	5857	1451	0	-100	0	230	101300000	1000	0	0	-1	600
24914435	5859	1444	0	-100	0	230	101300000	1000	0	0	-1	600
24926995	5858	1447	0	-100	0	230	101300000	1000	0	0	-1	600
24939555	5868	1457	0	-100	0	230	101300000	1000	0	0	-1	600
24952115	5873	1451	0	-100	0	230	101300000	1000	0	0	-1	600
24964675	5867	1455	0	-100	0	230	101300000	1000	0	0	-1	600
24977235	5868	1448	0	-100	0	230	101300000	1000	0	0	-1	600
24989795	5863	1448	0	-100	0	230	101300000	1000	0	0	-1	600
25002355	5857	1450	0	-100	0	230	101300000	1000	0	0	-1	600
25014915	5859	1453	0	-100	0	230	101300000	1000	0	0	-1	600
25027475	5861	1452	0	-100	0	230	101300000	1000	0	0	-1	600
25040035	5866	1451	0	-100	0	230	101300000	1000	0	0	-1	600
25052595	5860	1453	0	-100	0	230	101300000	1000	0	0	-1	600
25065155	5866	1457	0	-100	0	230	101300000	1000	0	0	-1	600
25077715	5861	1452	0	-100	0	230	101300000	1000	0	0	-1	600
25090275	5867	1451	0	-100	0	230	101300000	1000	0	0	-1	600
25102835	5870	1447	0	-100	0	230	101300000	1000	0	0	-1	600
25115395	5869	1441	0	-100	0	230	101300000	1000	0	0	-1	600
25127955	5865	1451	0	-100	0	230	101300000	1000	0	0	-1	600
25140515	5865	1451	0	-100	0	230	101300000	1000	0	0	-1	600
25153075	5874	1454	0	-100	0	230	101300000	1000	0	0	-1	600
25165635	5865	1456	0	-100	0	230	101300000	1000	0	0	-1	600
25178195	5861	1453	0	-100	0	230	101300000	1000	0	0	-1	600
25190755	5865	1459	0	-100	0	230	101300000	1000	0	0	-1	600
25203315	5864	1453	0	-100	0	230	101300000	1000	0	0	-1	600
25215875	5869	1445	0	-100	0	230	101300000	1000	0	0	-1	600
25228435	5866	1448	0	-100	0	230	101300000	1000	0	0	-1	600
25240995	5857	1451	0	-100	0	230	101300000	1000	0	0	-1	600
25253555	5859	1454	0	-100	0	230	101300000	1000	0	0	-1	600
25266115	5858	1450	0	-100	0	230	101300000	1000	0	0	-1	600
25278675	5865	1455	0	-100	0	230	101300000	1000	0	0	-1	600
25291235	5867	1453	0	-100	0	230	101300000	1000	0	0	-1	600
25303795	5868	1449	0	-100	0	230	101300000	1000	0	0	-1	600
25316355	5865	1449	0	-100	0	230	101300000	1000	0	0	-1	600
25328915	5862	1456	0	-100	0	230	101300000	1000	0	0	-1	600
25341475	5863	1456	0	-100	0	230	101300000	1000	0	0	-1	600
25354035	5865	1449	0	-100	0	230	101300000	1000	0	0	-1	600
25366595	5870	1452	0	-100	0	230	101300000	1000	0	0	-1	600
25379155	5872	1443	0	-100	0	230	101300000	1000	0	0	-1	600
25391715	5868	1447	0	-100	0	230	101300000	1000	0	0	-1	600
25404275	5859	1454	0	-100	0	230	101300000	1000	0	0	-1	600
25416835	5863	1446	0	-100	0	230	101300000	1000	0	0	-1	600
25429395	5861	1456	0	-100	0	230	101300000	1000	0	0	-1	600
25441955	5865	1452	0	-100	0	230	101300000	1000	0	0	-1	600
25454515	5864	1450	0	-100	0	230	101300000	1000	0	0	-1	600
25467075	5861	1449	0	-100	0	230	101300000	1000	0	0	-1	600
25479635	5861	1445	0	-100	0	230	101300000	1000	0	0	-1	600
25492195	5859	1454	0	-100	0	230	101300000	1000	0	0	-1	600
25504755	5859	1451	0	-100	0	230	101300000	1000	0	0	-1	600
25517315	5859	1453	0	-100	0	230	101300000	1000	0	0	-1	600
25529875	5865	1455	0	-100	0	230	101300000	1000	0	0	-1	600
25542435	5862	1451	0	-100	0	230	101300000	1000	0	0	-1	600
25554995	5864	1452	0	-100	0	230	101300000	1000	0	0	-1	600
25567555	5851	1447	0	-100	0	230	101300000	1000	0	0	-1	600
25580115	5862	1454	0	-100	0	230	101300000	1000	0	0	-1	600
25592675	5859	1452	0	-100	0	230	101300000	1000	0	0	-1	600
25605235	5869	1441	0	-100	0	230	101300000	1000	0	0	-1	600
25617795	5869	1454	0	-100	0	230	101300000	1000	0	0	-1	600
25630355	5863	1454	0	-100	0	230	101300000	1000	0	0	-1	600
25642915	5866	1454	0	-100	0	230	101300000	1000	0	0	-1	600
25655475	5867	1453	0	-100	0	230	101300000	1000	0	0	-1	600
25668035	5865	1455	0	-100	0	230	101300000	1000	0	0	-1	600
25680595	5870	1453	0	-100	0	230	101300000	1000	0	0	-1	600
25693155	5878	1447	0	-100	0	230	101300000	1000	0	0	-1	600
25705715	5860	1448	0	-100	0	230	101300000	1000	0	0	-1	600
25718275	5864	1459	0	-100	0	230	101300000	1000	0	0	-1	600
25730835	5865	1452	0	-100	0	230	101300000	1000	0	0	-1	600
25743395	5875	1451	0	-100	0	230	101300000	1000	0	0	-1	600
25755955	5868	1447	0	-100	0	230	101300000	1000	0	0	-1	600
25768515	5859	1453	0	-100	0	230	101300000	1000	0	0	-1	600
25781075	5860	1454	0	-100	0	230	101300000	1000	0	0	-1	600
25793635	5865	1451	0	-100	0	230	101300000	1000	0	0	-1	600
25806195	5863	1446	0	-100	0	230	101300000	1000	0	0	-1	600
25818755	5865	1455	0	-100	0	230	101300000	1000	0	0	-1	600
25831315	5868	1449	0	-100	0	230	101300000	1000	0	0	-1	600
25843875	5861	1449	0	-100	0	230	101300000	1000	0	0	-1	600
25856435	5860	1450	0	-100	0	230	101300000	1000	0	0	-1	600
25868995	5865	1451	0	-100	0	230	101300000	1000	0	0	-1	600
25881555	5857	1454	0	-100	0	230	101300000	1000	0	0	-1	600
25894115	5855	1458	0	-100	0	230	101300000	1000	0	0	-1	600
25906675	5860	1443	0	-100	0	230	101300000	1000	0	0	-1	600
25919235	5861	1449	0	-100	0	230	101300000	1000	0	0	-1	600
25931795	5863	1449	0	-100	0	230	101300000	1000	0	0	-1	600
25944355	5857	1446	0	-100	0	230	101300000	1000	0	0	-1	600
25956915	5857	1453	0	-100	0	230	101300000	1000	0	0	-1	600
25969475	5862	1447	0	-100	0	230	101300000	1000	0	0	-1	600
25982035	5864	1457	0	-100	0	230	101300000	1000	0	0	-1	600
25994595	5874	1453	0	-100	0	230	101300000	1000	0	0	-1	600
26007155	5874	1452	0	-100	0	230	101300000	1000	0	0	-1	600
26019715	5870	1447	0	-100	0	230	101300000	1000	0	0	-1	600
26032275	5860	1450	0	-100	0	230	101300000	1000	0	0	-1	600
26044835	5861	1449	0	-100	0	230	101300000	1000	0	0	-1	600
26057395	5868	1454	0	-100	0	230	101300000	1000	0	0	-1	600
26069955	5857	1451	0	-100	0	230	101300000	1000	0	0	-1	600
26082515	5863	1451	0	-100	0	230	101300000	1000	0	0	-1	600
26095075	5870	1445	0	-100	0	230	101300000	1000	0	0	-1	600
26107635	5867	1457	0	-100	0	230	101300000	1000	0	0	-1	600
26120195	5869	1444	0	-100	0	230	101300000	1000	0	0	-1	600
26132755	5864	1456	0	-100	0	230	101300000	1000	0	0	-1	600
26145315	5873	1451	0	-100	0	230	101300000	1000	0	0	-1	600
26157875	5860	1456	0	-100	0	230	101300000	1000	0	0	-1	600
26170435	5863	1451	0	-100	0	230	101300000	1000	0	0	-1	600
26182995	5857	1447	0	-100	0	230	101300000	1000	0	0	-1	600
26195555	5857	1448	0	-100	0	230	101300000	1000	0	0	-1	600
26208115	5862	1451	0	-100	0	230	101300000	1000	0	0	-1	600
26220675	5857	1451	0	-100	0	230	101300000	1000	0	0	-1	600
26233235	5874	1459	0	-100	0	230	101300000	1000	0	0	-1	600
26245795	5868	1447	0	-100	0	230	101300000	1000	0	0	-1	600
26258355	5865	1452	0	-100	0	230	101300000	1000	0	0	-1	600
26270915	5867	1453	0	-100	0	230	101300000	1000	0	0	-1	600
26283475	5871	1449	0	-100	0	230	101300000	1000	0	0	-1	600
26296035	5863	1453	0	-100	0	230	101300000	1000	0	0	-1	600
26308595	5865	1455	0	-100	0	230	101300000	1000	0	0	-1	600
26321155	5875	1453	0	-100	0	230	101300000	1000	0	0	-1	600
26333715	5862	1443	0	-100	0	230	101300000	1000	0	0	-1	600
26346275	5859	1452	0	-100	0	230	101300000	1000	0	0	-1	600
26358835	5868	1457	0	-100	0	230	101300000	1000	0	0	-1	600
26371395	5860	1445	0	-100	0	230	101300000	1000	0	0	-1	600
26383955	5868	1455	0	-100	0	230	101300000	1000	0	0	-1	600
26396515	5867	1453	0	-100	0	230	101300000	1000	0	0	-1	600
26409075	5873	1445	0	-100	0	230	101300000	1000	0	0	-1	600
26421635	5865	1451	0	-100	0	230	101300000	1000	0	0	-1	600
26434195	5861	1443	0	-100	0	230	101300000	1000	0	0	-1	600
26446755	5861	1457	0	-100	0	230	101300000	1000	0	0	-1	600
26459315	5866	1452	0	-100	0	230	101300000	1000	0	0	-1	600
26471875	5870	1443	0	-100	0	230	101300000	1000	0	0	-1	600
26484435	5861	1447	0	-100	0	230	101300000	1000	0	0	-1	600
26496995	5867	1450	0	-100	0	230	101300000	1000	0	0	-1	600
26509555	5865	1449	0	-100	0	230	101300000	1000	0	0	-1	600
26522115	5869	1449	0	-100	0	230	101300000	1000	0	0	-1	600
26534675	5868	1449	0	-100	0	230	101300000	1000	0	0	-1	600
26547235	5863	1450	0	-100	0	230	101300000	1000	0	0	-1	600
26559795	5863	1453	0	-100	0	230	101300000	1000	0	0	-1	600
26572355	5869	1451	0	-100	0	230	101300000	1000	0	0	-1	600
26584915	5865	1457	0	-100	0	230	101300000	1000	0	0	-1	600
26597475	5867	1453	0	-100	0	230	101300000	1000	0	0	-1	600
26610035	5861	1449	0	-100	0	230	101300000	1000	0	0	-1	600
26622595	5868	1459	0	-100	0	230	101300000	1000	0	0	-1	600
26635155	5867	1452	0	-100	0	230	101300000	1000	0	0	-1	600
26647715	5858	1453	0	-100	0	230	101300000	1000	0	0	-1	600
26660275	5865	1454	0	-100	0	230	101300000	1000	0	0	-1	600
26672835	5865	1453	0	-100	0	230	101300000	1000	0	0	-1	600
26685395	5869	1449	0	-100	0	230	101300000	1000	0	0	-1	600
26697955	5863	1456	0	-100	0	230	101300000	1000	0	0	-1	600
26710515	5866	1449	0	-100	0	230	101300000	1000	0	0	-1	600
26723075	5869	1455	0	-100	0	230	101300000	1000	0	0	-1	600
26735635	5869	1452	0	-100	0	230	101300000	1000	0	0	-1	600
26748195	5866	1457	0	-100	0	230	101300000	1000	0	0	-1	600
26760755	5857	1447	0	-100	0	230	101300000	1000	0	0	-1	600
26773315	5866	1454	0	-100	0	230	101300000	1000	0	0	-1	600
26785875	5862	1456	0	-100	0	230	101300000	1000	0	0	-1	600
26798435	5862	1448	0	-100	0	230	101300000	1000	0	0	-1	600
26810995	5863	1455	0	-100	0	230	101300000	1000	0	0	-1	600
26823555	5865	1455	0	-100	0	230	101300000	1000	0	0	-1	600
26836115	5863	1457	0	-100	0	230	101300000	1000	0	0	-1	600
26848675	5867	1455	0	-100	0	230	101300000	1000	0	0	-1	600
26861235	5860	1450	0	-100	0	230	101300000	1000	0	0	-1	600
26873795	5861	1449	0	-100	0	230	101300000	1000	0	0	-1	600
26886355	5863	1453	0	-100	0	230	101300000	1000	0	0	-1	600
26898915	5854	1446	0	-100	0	230	101300000	1000	0	0	-1	600
26911475	5857	1459	0	-100	0	230	101300000	1000	0	0	-1	600
26924035	5862	1442	0	-100	0	230	101300000	1000	0	0	-1	600
26936595	5855	1449	0	-100	0	230	101300000	1000	0	0	-1	600
26949155	5865	1454	0	-100	0	230	101300000	1000	0	0	-1	600
26961715	5864	1455	0	-100	0	230	101300000	1000	0	0	-1	600
26974275	5869	1452	0	-100	0	230	101300000	1000	0	0	-1	600
26986835	5875	1452	0	-100	0	230	101300000	1000	0	0	-1	600
26999395	5865	1447	0	-100	0	230	101300000	1000	0	0	-1	600
27011955	5869	1451	0	-100	0	230	101300000	1000	0	0	-1	600
27024515	5861	1449	0	-100	0	230	101300000	1000	0	0	-1	600
27037075	5860	1447	0	-100	0	230	101300000	1000	0	0	-1	600
27049635	5862	1449	0	-100	0	230	101300000	1000	0	0	-1	600
