timestamp	voltage	current	windSpeed	pitchAngle	rpm	temperature	ambientPressure	humidity	accelerationX	accelerationY	accelerationZ	currentSink
7039070	6013	865	0	-100	0	230	101300000	1000	0	0	-1	0
7046523	6019	866	0	-100	0	230	101300000	1000	0	0	-1	0
7059083	6018	865	0	-100	0	230	101300000	1000	0	0	-1	0
7071643	6021	872	0	-100	0	230	101300000	1000	0	0	-1	0
7084203	6022	868	0	-100	0	230	101300000	1000	0	0	-1	0
7096763	6019	869	0	-100	0	230	101300000	1000	0	0	-1	0
7109323	6022	862	0	-100	0	230	101300000	1000	0	0	-1	0
7121883	6026	873	0	-100	0	230	101300000	1000	0	0	-1	0
7134443	6019	870	0	-100	0	230	101300000	1000	0	0	-1	0
7147004	6026	873	0	-100	0	230	101300000	1000	0	0	-1	0
7159563	6025	865	0	-100	0	230	101300000	1000	0	0	-1	0
7172123	6019	871	0	-100	0	230	101300000	1000	0	0	-1	0
7184683	6018	870	0	-100	0	230	101300000	1000	0	0	-1	0
7197243	6019	860	0	-100	0	230	101300000	1000	0	0	-1	0
7209803	6017	867	0	-100	0	230	101300000	1000	0	0	-1	0
7222363	6014	864	0	-100	0	230	101300000	1000	0	0	-1	0
7234923	6027	867	0	-100	0	230	101300000	1000	0	0	-1	0
7247483	6021	873	0	-100	0	230	101300000	1000	0	0	-1	0
7260043	6025	865	0	-100	0	230	101300000	1000	0	0	-1	0
7272603	6020	872	0	-100	0	230	101300000	1000	0	0	-1	0
7285163	6015	869	0	-100	0	230	101300000	1000	0	0	-1	0
7297723	6030	870	0	-100	0	230	101300000	1000	0	0	-1	0
7310283	6020	867	0	-100	0	230	101300000	1000	0	0	-1	0
7322843	6022	865	0	-100	0	230	101300000	1000	0	0	-1	0
7335403	6016	866	0	-100	0	230	101300000	1000	0	0	-1	0
7347963	6018	869	0	-100	0	230	101300000	1000	0	0	-1	0
7693675	5825	1676	0	-100	0	230	101300000	1000	0	0	-1	700
7706235	5816	1684	0	-100	0	230	101300000	1000	0	0	-1	700
7718795	5830	1676	0	-100	0	230	101300000	1000	0	0	-1	700
7731355	5822	1675	0	-100	0	230	101300000	1000	0	0	-1	700
7743915	5827	1673	0	-100	0	230	101300000	1000	0	0	-1	700
7756475	5832	1675	0	-100	0	230	101300000	1000	0	0	-1	700
7769035	5823	1672	0	-100	0	230	101300000	1000	0	0	-1	700
7781595	5824	1670	0	-100	0	230	101300000	1000	0	0	-1	700
7794155	5827	1678	0	-100	0	230	101300000	1000	0	0	-1	700
7806715	5826	1673	0	-100	0	230	101300000	1000	0	0	-1	700
7819275	5835	1679	0	-100	0	230	101300000	1000	0	0	-1	700
7831835	5827	1684	0	-100	0	230	101300000	1000	0	0	-1	700
7844395	5822	1684	0	-100	0	230	101300000	1000	0	0	-1	700
7856955	5819	1683	0	-100	0	230	101300000	1000	0	0	-1	700
7869515	5817	1681	0	-100	0	230	101300000	1000	0	0	-1	700
7882075	5810	1684	0	-100	0	230	101300000	1000	0	0	-1	700
7894635	5825	1671	0	-100	0	230	101300000	1000	0	0	-1	700
7907195	5824	1677	0	-100	0	230	101300000	1000	0	0	-1	700
7919755	5831	1680	0	-100	0	230	101300000	1000	0	0	-1	700
7932315	5821	1669	0	-100	0	230	101300000	1000	0	0	-1	700
7944875	5839	1672	0	-100	0	230	101300000	1000	0	0	-1	700
7957435	5827	1673	0	-100	0	230	101300000	1000	0	0	-1	700
7969995	5828	1675	0	-100	0	230	101300000	1000	0	0	-1	700
7982555	5822	1676	0	-100	0	230	101300000	1000	0	0	-1	700
7995115	5822	1671	0	-100	0	230	101300000	1000	0	0	-1	700
8007675	5823	1684	0	-100	0	230	101300000	1000	0	0	-1	700
8020235	5814	1683	0	-100	0	230	101300000	1000	0	0	-1	700
8032795	5831	1677	0	-100	0	230	101300000	1000	0	0	-1	700
8045355	5818	1675	0	-100	0	230	101300000	1000	0	0	-1	700
8057915	5819	1680	0	-100	0	230	101300000	1000	0	0	-1	700
8070475	5827	1673	0	-100	0	230	101300000	1000	0	0	-1	700
8083035	5814	1682	0	-100	0	230	101300000	1000	0	0	-1	700
8095595	5820	1689	0	-100	0	230	101300000	1000	0	0	-1	700
8108155	5819	1672	0	-100	0	230	101300000	1000	0	0	-1	700
8120715	5825	1669	0	-100	0	230	101300000	1000	0	0	-1	700
8133275	5833	1674	0	-100	0	230	101300000	1000	0	0	-1	700
8145835	5812	1686	0	-100	0	230	101300000	1000	0	0	-1	700
8158395	5831	1679	0	-100	0	230	101300000	1000	0	0	-1	700
8170955	5824	1683	0	-100	0	230	101300000	1000	0	0	-1	700
8183515	5826	1676	0	-100	0	230	101300000	1000	0	0	-1	700
8196075	5822	1672	0	-100	0	230	101300000	1000	0	0	-1	700
8208635	5816	1679	0	-100	0	230	101300000	1000	0	0	-1	700
8221195	5831	1668	0	-100	0	230	101300000	1000	0	0	-1	700
8233755	5835	1681	0	-100	0	230	101300000	1000	0	0	-1	700
8246315	5829	1677	0	-100	0	230	101300000	1000	0	0	-1	700
8258875	5831	1674	0	-100	0	230	101300000	1000	0	0	-1	700
8271435	5818	1677	0	-100	0	230	101300000	1000	0	0	-1	700
8283995	5825	1684	0	-100	0	230	101300000	1000	0	0	-1	700
8296555	5828	1679	0	-100	0	230	101300000	1000	0	0	-1	700
8309115	5822	1682	0	-100	0	230	101300000	1000	0	0	-1	700
8321675	5833	1665	0	-100	0	230	101300000	1000	0	0	-1	700
8334235	5823	1672	0	-100	0	230	101300000	1000	0	0	-1	700
8346795	5830	1665	0	-100	0	230	101300000	1000	0	0	-1	700
8359355	5819	1678	0	-100	0	230	101300000	1000	0	0	-1	700
8371915	5837	1677	0	-100	0	230	101300000	1000	0	0	-1	700
8384475	5821	1676	0	-100	0	230	101300000	1000	0	0	-1	700
8397035	5818	1675	0	-100	0	230	101300000	1000	0	0	-1	700
8409595	5827	1671	0	-100	0	230	101300000	1000	0	0	-1	700
8422155	5838	1669	0	-100	0	230	101300000	1000	0	0	-1	700
8434715	5827	1669	0	-100	0	230	101300000	1000	0	0	-1	700
8447275	5828	1671	0	-100	0	230	101300000	1000	0	0	-1	700
8459835	5824	1674	0	-100	0	230	101300000	1000	0	0	-1	700
8472395	5822	1676	0	-100	0	230	101300000	1000	0	0	-1	700
8484955	5823	1676	0	-100	0	230	101300000	1000	0	0	-1	700
8497515	5818	1670	0	-100	0	230	101300000	1000	0	0	-1	700
8510075	5818	1679	0	-100	0	230	101300000	1000	0	0	-1	700
8522635	5822	1672	0	-100	0	230	101300000	1000	0	0	-1	700
8535195	5822	1675	0	-100	0	230	101300000	1000	0	0	-1	700
8547755	5827	1669	0	-100	0	230	101300000	1000	0	0	-1	700
8560315	5822	1675	0	-100	0	230	101300000	1000	0	0	-1	700
8572875	5821	1672	0	-100	0	230	101300000	1000	0	0	-1	700
8585435	5833	1676	0	-100	0	230	101300000	1000	0	0	-1	700
8597995	5814	1680	0	-100	0	230	101300000	1000	0	0	-1	700
8610555	5815	1672	0	-100	0	230	101300000	1000	0	0	-1	700
8623115	5831	1681	0	-100	0	230	101300000	1000	0	0	-1	700
8635675	5832	1669	0	-100	0	230	101300000	1000	0	0	-1	700
8648235	5815	1667	0	-100	0	230	101300000	1000	0	0	-1	700
8660795	5822	1683	0	-100	0	230	101300000	1000	0	0	-1	700
8673355	5818	1672	0	-100	0	230	101300000	1000	0	0	-1	700
8685915	5829	1671	0	-100	0	230	101300000	1000	0	0	-1	700
8698475	5817	1672	0	-100	0	230	101300000	1000	0	0	-1	700
8711035	5811	1674	0	-100	0	230	101300000	1000	0	0	-1	700
8723595	5821	1672	0	-100	0	230	101300000	1000	0	0	-1	700
8736155	5833	1672	0	-100	0	230	101300000	1000	0	0	-1	700
8748715	5834	1669	0	-100	0	230	101300000	1000	0	0	-1	700
8761275	5826	1671	0	-100	0	230	101300000	1000	0	0	-1	700
8773835	5830	1664	0	-100	0	230	101300000	1000	0	0	-1	700
8786395	5820	1667	0	-100	0	230	101300000	1000	0	0	-1	700
8798955	5825	1672	0	-100	0	230	101300000	1000	0	0	-1	700
8811515	5814	1670	0	-100	0	230	101300000	1000	0	0	-1	700
8824075	5819	1679	0	-100	0	230	101300000	1000	0	0	-1	700
8836635	5836	1665	0	-100	0	230	101300000	1000	0	0	-1	700
8849195	5818	1667	0	-100	0	230	101300000	1000	0	0	-1	700
8861755	5829	1659	0	-100	0	230	101300000	1000	0	0	-1	700
8874315	5832	1670	0	-100	0	230	101300000	1000	0	0	-1	700
8886875	5826	1672	0	-100	0	230	101300000	1000	0	0	-1	700
8899435	5819	1667	0	-100	0	230	101300000	1000	0	0	-1	700
8911995	5823	1669	0	-100	0	230	101300000	1000	0	0	-1	700
8924555	5812	1671	0	-100	0	230	101300000	1000	0	0	-1	700
8937115	5830	1667	0	-100	0	230	101300000	1000	0	0	-1	700
8949675	5819	1669	0	-100	0	230	101300000	1000	0	0	-1	700
8962235	5831	1666	0	-100	0	230	101300000	1000	0	0	-1	700
8974795	5814	1667	0	-100	0	230	101300000	1000	0	0	-1	700
8987355	5823	1673	0	-100	0	230	101300000	1000	0	0	-1	700
8999915	5830	1663	0	-100	0	230	101300000	1000	0	0	-1	700
9012475	5822	1678	0	-100	0	230	101300000	1000	0	0	-1	700
9025035	5816	1671	0	-100	0	230	101300000	1000	0	0	-1	700
9037595	5825	1683	0	-100	0	230	101300000	1000	0	0	-1	700
9050155	5818	1671	0	-100	0	230	101300000	1000	0	0	-1	700
9062715	5818	1676	0	-100	0	230	101300000	1000	0	0	-1	700
9075275	5819	1673	0	-100	0	230	101300000	1000	0	0	-1	700
9087835	5820	1663	0	-100	0	230	101300000	1000	0	0	-1	700
9100395	5823	1684	0	-100	0	230	101300000	1000	0	0	-1	700
9112955	5814	1672	0	-100	0	230	101300000	1000	0	0	-1	700
9125515	5837	1661	0	-100	0	230	101300000	1000	0	0	-1	700
9138075	5821	1664	0	-100	0	230	101300000	1000	0	0	-1	700
9150635	5822	1669	0	-100	0	230	101300000	1000	0	0	-1	700
9163195	5829	1667	0	-100	0	230	101300000	1000	0	0	-1	700
9175755	5831	1656	0	-100	0	230	101300000	1000	0	0	-1	700
9188315	5841	1666	0	-100	0	230	101300000	1000	0	0	-1	700
9200875	5827	1661	0	-100	0	230	101300000	1000	0	0	-1	700
9213435	5832	1664	0	-100	0	230	101300000	1000	0	0	-1	700
9225995	5825	1674	0	-100	0	230	101300000	1000	0	0	-1	700
9238555	5833	1680	0	-100	0	230	101300000	1000	0	0	-1	700
9251115	5830	1666	0	-100	0	230	101300000	1000	0	0	-1	700
9263675	5818	1679	0	-100	0	230	101300000	1000	0	0	-1	700
9276235	5827	1661	0	-100	0	230	101300000	1000	0	0	-1	700
9288795	5821	1665	0	-100	0	230	101300000	1000	0	0	-1	700
9301355	5817	1664	0	-100	0	230	101300000	1000	0	0	-1	700
9313915	5828	1668	0	-100	0	230	101300000	1000	0	0	-1	700
9326475	5827	1666	0	-100	0	230	101300000	1000	0	0	-1	700
9339035	5824	1671	0	-100	0	230	101300000	1000	0	0	-1	700
9351595	5818	1675	0	-100	0	230	101300000	1000	0	0	-1	700
9364155	5822	1673	0	-100	0	230	101300000	1000	0	0	-1	700
9376715	5827	1670	0	-100	0	230	101300000	1000	0	0	-1	700
9389275	5830	1659	0	-100	0	230	101300000	1000	0	0	-1	700
9401835	5819	1665	0	-100	0	230	101300000	1000	0	0	-1	700
9414395	5820	1668	0	-100	0	230	101300000	1000	0	0	-1	700
9426955	5821	1673	0	-100	0	230	101300000	1000	0	0	-1	700
9439515	5821	1675	0	-100	0	230	101300000	1000	0	0	-1	700
9452075	5826	1671	0	-100	0	230	101300000	1000	0	0	-1	700
9464635	5817	1664	0	-100	0	230	101300000	1000	0	0	-1	700
9477195	5835	1665	0	-100	0	230	101300000	1000	0	0	-1	700
9489755	5826	1671	0	-100	0	230	101300000	1000	0	0	-1	700
9502315	5823	1666	0	-100	0	230	101300000	1000	0	0	-1	700
9514875	5835	1670	0	-100	0	230	101300000	1000	0	0	-1	700
9527435	5817	1665	0	-100	0	230	101300000	1000	0	0	-1	700
9539995	5830	1675	0	-100	0	230	101300000	1000	0	0	-1	700
9552555	5827	1676	0	-100	0	230	101300000	1000	0	0	-1	700
9565115	5819	1675	0	-100	0	230	101300000	1000	0	0	-1	700
9577675	5825	1682	0	-100	0	230	101300000	1000	0	0	-1	700
9590235	5815	1674	0	-100	0	230	101300000	1000	0	0	-1	700
9602795	5835	1676	0	-100	0	230	101300000	1000	0	0	-1	700
9615355	5831	1680	0	-100	0	230	101300000	1000	0	0	-1	700
9627915	5818	1665	0	-100	0	230	101300000	1000	0	0	-1	700
9640475	5825	1676	0	-100	0	230	101300000	1000	0	0	-1	700
9653035	5825	1679	0	-100	0	230	101300000	1000	0	0	-1	700
9665595	5822	1673	0	-100	0	230	101300000	1000	0	0	-1	700
9678155	5821	1670	0	-100	0	230	101300000	1000	0	0	-1	700
9690715	5824	1674	0	-100	0	230	101300000	1000	0	0	-1	700
9703275	5823	1669	0	-100	0	230	101300000	1000	0	0	-1	700
9715835	5825	1679	0	-100	0	230	101300000	1000	0	0	-1	700
9728395	5824	1662	0	-100	0	230	101300000	1000	0	0	-1	700
9740955	5812	1670	0	-100	0	230	101300000	1000	0	0	-1	700
9753515	5835	1678	0	-100	0	230	101300000	1000	0	0	-1	700
9766075	5829	1664	0	-100	0	230	101300000	1000	0	0	-1	700
9778635	5826	1683	0	-100	0	230	101300000	1000	0	0	-1	700
9791195	5825	1675	0	-100	0	230	101300000	1000	0	0	-1	700
9803755	5822	1675	0	-100	0	230	101300000	1000	0	0	-1	700
9816315	5817	1675	0	-100	0	230	101300000	1000	0	0	-1	700
9828875	5812	1665	0	-100	0	230	101300000	1000	0	0	-1	700
9841435	5819	1668	0	-100	0	230	101300000	1000	0	0	-1	700
9853995	5834	1665	0	-100	0	230	101300000	1000	0	0	-1	700
9866555	5826	1667	0	-100	0	230	101300000	1000	0	0	-1	700
9879115	5825	1662	0	-100	0	230	101300000	1000	0	0	-1	700
9891675	5823	1660	0	-100	0	230	101300000	1000	0	0	-1	700
9904235	5831	1672	0	-100	0	230	101300000	1000	0	0	-1	700
9916795	5822	1669	0	-100	0	230	101300000	1000	0	0	-1	700
9929355	5818	1675	0	-100	0	230	101300000	1000	0	0	-1	700
9941915	5832	1665	0	-100	0	230	101300000	1000	0	0	-1	700
9954475	5827	1670	0	-100	0	230	101300000	1000	0	0	-1	700
9967035	5821	1672	0	-100	0	230	101300000	1000	0	0	-1	700
9979595	5825	1679	0	-100	0	230	101300000	1000	0	0	-1	700
9992155	5823	1671	0	-100	0	230	101300000	1000	0	0	-1	700
10004715	5820	1674	0	-100	0	230	101300000	1000	0	0	-1	700
10017275	5830	1671	0	-100	0	230	101300000	1000	0	0	-1	700
10029835	5830	1688	0	-100	0	230	101300000	1000	0	0	-1	700
10042395	5822	1667	0	-100	0	230	101300000	1000	0	0	-1	700
10054955	5833	1665	0	-100	0	230	101300000	1000	0	0	-1	700
10067515	5829	1671	0	-100	0	230	101300000	1000	0	0	-1	700
10080075	5823	1666	0	-100	0	230	101300000	1000	0	0	-1	700
10092635	5829	1657	0	-100	0	230	101300000	1000	0	0	-1	700
10105195	5819	1670	0	-100	0	230	101300000	1000	0	0	-1	700
10117755	5832	1683	0	-100	0	230	101300000	1000	0	0	-1	700
10130315	5832	1677	0	-100	0	230	101300000	1000	0	0	-1	700
10142875	5840	1669	0	-100	0	230	101300000	1000	0	0	-1	700
10155435	5826	1665	0	-100	0	230	101300000	1000	0	0	-1	700
10167995	5820	1673	0	-100	0	230	101300000	1000	0	0	-1	700
10180555	5810	1673	0	-100	0	230	101300000	1000	0	0	-1	700
10193115	5818	1675	0	-100	0	230	101300000	1000	0	0	-1	700
10205675	5825	1667	0	-100	0	230	101300000	1000	0	0	-1	700
10218235	5819	1670	0	-100	0	230	101300000	1000	0	0	-1	700
10230795	5822	1675	0	-100	0	230	101300000	1000	0	0	-1	700
10243355	5823	1666	0	-100	0	230	101300000	1000	0	0	-1	700
10255915	5824	1666	0	-100	0	230	101300000	1000	0	0	-1	700
10268475	5832	1667	0	-100	0	230	101300000	1000	0	0	-1	700
10281035	5829	1669	0	-100	0	230	101300000	1000	0	0	-1	700
10293595	5818	1673	0	-100	0	230	101300000	1000	0	0	-1	700
10306155	5826	1665	0	-100	0	230	101300000	1000	0	0	-1	700
10318715	5826	1669	0	-100	0	230	101300000	1000	0	0	-1	700
10331275	5824	1670	0	-100	0	230	101300000	1000	0	0	-1	700
10343835	5828	1670	0	-100	0	230	101300000	1000	0	0	-1	700
10356395	5824	1670	0	-100	0	230	101300000	1000	0	0	-1	700
10368955	5823	1681	0	-100	0	230	101300000	1000	0	0	-1	700
10381515	5823	1681	0	-100	0	230	101300000	1000	0	0	-1	700
10394075	5843	1667	0	-100	0	230	101300000	1000	0	0	-1	700
10406635	5832	1668	0	-100	0	230	101300000	1000	0	0	-1	700
10419195	5839	1669	0	-100	0	230	101300000	1000	0	0	-1	700
10431755	5818	1664	0	-100	0	230	101300000	1000	0	0	-1	700
10444315	5830	1667	0	-100	0	230	101300000	1000	0	0	-1	700
10456875	5833	1672	0	-100	0	230	101300000	1000	0	0	-1	700
10469435	5850	1661	0	-100	0	230	101300000	1000	0	0	-1	700
10481995	5833	1660	0	-100	0	230	101300000	1000	0	0	-1	700
10494555	5814	1668	0	-100	0	230	101300000	1000	0	0	-1	700
10507115	5810	1661	0	-100	0	230	101300000	1000	0	0	-1	700
10519675	5831	1671	0	-100	0	230	101300000	1000	0	0	-1	700
10595035	5832	1672	0	-100	0	230	101300000	1000	0	0	-1	700
10607595	5822	1676	0	-100	0	230	101300000	1000	0	0	-1	700
10620155	5827	1676	0	-100	0	230	101300000	1000	0	0	-1	700
10632715	5813	1660	0	-100	0	230	101300000	1000	0	0	-1	700
10645275	5827	1666	0	-100	0	230	101300000	1000	0	0	-1	700
10657835	5806	1672	0	-100	0	230	101300000	1000	0	0	-1	700
10670395	5827	1666	0	-100	0	230	101300000	1000	0	0	-1	700
10682955	5827	1675	0	-100	0	230	101300000	1000	0	0	-1	700
10695515	5835	1669	0	-100	0	230	101300000	1000	0	0	-1	700
10708075	5821	1668	0	-100	0	230	101300000	1000	0	0	-1	700
10720635	5822	1666	0	-100	0	230	101300000	1000	0	0	-1	700
10733195	5814	1671	0	-100	0	230	101300000	1000	0	0	-1	700
10770875	5825	1677	0	-100	0	230	101300000	1000	0	0	-1	700
10783435	5827	1666	0	-100	0	230	101300000	1000	0	0	-1	700
10795995	5827	1668	0	-100	0	230	101300000	1000	0	0	-1	700
10808555	5834	1666	0	-100	0	230	101300000	1000	0	0	-1	700
10821115	5829	1664	0	-100	0	230	101300000	1000	0	0	-1	700
10833675	5820	1669	0	-100	0	230	101300000	1000	0	0	-1	700
10846235	5812	1681	0	-100	0	230	101300000	1000	0	0	-1	700
10858795	5823	1678	0	-100	0	230	101300000	1000	0	0	-1	700
10871355	5833	1669	0	-100	0	230	101300000	1000	0	0	-1	700
10883915	5834	1677	0	-100	0	230	101300000	1000	0	0	-1	700
10896475	5824	1674	0	-100	0	230	101300000	1000	0	0	-1	700
10909035	5814	1668	0	-100	0	230	101300000	1000	0	0	-1	700
10921595	5823	1669	0	-100	0	230	101300000	1000	0	0	-1	700
10934155	5826	1673	0	-100	0	230	101300000	1000	0	0	-1	700
10946715	5833	1665	0	-100	0	230	101300000	1000	0	0	-1	700
10959275	5833	1667	0	-100	0	230	101300000	1000	0	0	-1	700
10971835	5827	1677	0	-100	0	230	101300000	1000	0	0	-1	700
10984395	5814	1679	0	-100	0	230	101300000	1000	0	0	-1	700
10996955	5822	1667	0	-100	0	230	101300000	1000	0	0	-1	700
11009515	5835	1665	0	-100	0	230	101300000	1000	0	0	-1	700
11022075	5822	1669	0	-100	0	230	101300000	1000	0	0	-1	700
11034635	5829	1663	0	-100	0	230	101300000	1000	0	0	-1	700
11047195	5823	1668	0	-100	0	230	101300000	1000	0	0	-1	700
11059755	5818	1660	0	-100	0	230	101300000	1000	0	0	-1	700
11072315	5830	1670	0	-100	0	230	101300000	1000	0	0	-1	700
11084875	5822	1669	0	-100	0	230	101300000	1000	0	0	-1	700
11097435	5822	1685	0	-100	0	230	101300000	1000	0	0	-1	700
11109995	5827	1675	0	-100	0	230	101300000	1000	0	0	-1	700
11122555	5827	1677	0	-100	0	230	101300000	1000	0	0	-1	700
11135115	5828	1670	0	-100	0	230	101300000	1000	0	0	-1	700
11147675	5814	1670	0	-100	0	230	101300000	1000	0	0	-1	700
11160235	5821	1665	0	-100	0	230	101300000	1000	0	0	-1	700
11172795	5821	1671	0	-100	0	230	101300000	1000	0	0	-1	700
11185355	5823	1671	0	-100	0	230	101300000	1000	0	0	-1	700
11197915	5831	1669	0	-100	0	230	101300000	1000	0	0	-1	700
11210475	5829	1672	0	-100	0	230	101300000	1000	0	0	-1	700
11223035	5839	1666	0	-100	0	230	101300000	1000	0	0	-1	700
11235595	5814	1672	0	-100	0	230	101300000	1000	0	0	-1	700
11248155	5831	1664	0	-100	0	230	101300000	1000	0	0	-1	700
11260715	5824	1673	0	-100	0	230	101300000	1000	0	0	-1	700
11273275	5826	1672	0	-100	0	230	101300000	1000	0	0	-1	700
11285835	5830	1668	0	-100	0	230	101300000	1000	0	0	-1	700
11298395	5831	1666	0	-100	0	230	101300000	1000	0	0	-1	700
11310955	5819	1669	0	-100	0	230	101300000	1000	0	0	-1	700
11323515	5818	1674	0	-100	0	230	101300000	1000	0	0	-1	700
11336075	5839	1664	0	-100	0	230	101300000	1000	0	0	-1	700
11348635	5824	1667	0	-100	0	230	101300000	1000	0	0	-1	700
11361195	5835	1664	0	-100	0	230	101300000	1000	0	0	-1	700
11373755	5819	1679	0	-100	0	230	101300000	1000	0	0	-1	700
11386315	5818	1678	0	-100	0	230	101300000	1000	0	0	-1	700
11398875	5824	1670	0	-100	0	230	101300000	1000	0	0	-1	700
11411435	5824	1670	0	-100	0	230	101300000	1000	0	0	-1	700
11423995	5828	1669	0	-100	0	230	101300000	1000	0	0	-1	700
11436555	5815	1676	0	-100	0	230	101300000	1000	0	0	-1	700
11449115	5817	1669	0	-100	0	230	101300000	1000	0	0	-1	700
11461675	5828	1666	0	-100	0	230	101300000	1000	0	0	-1	700
11474235	5825	1665	0	-100	0	230	101300000	1000	0	0	-1	700
11486795	5834	1666	0	-100	0	230	101300000	1000	0	0	-1	700
11499355	5829	1665	0	-100	0	230	101300000	1000	0	0	-1	700
11511915	5822	1671	0	-100	0	230	101300000	1000	0	0	-1	700
11524475	5825	1670	0	-100	0	230	101300000	1000	0	0	-1	700
11537035	5835	1663	0	-100	0	230	101300000	1000	0	0	-1	700
11549595	5820	1673	0	-100	0	230	101300000	1000	0	0	-1	700
11562155	5827	1678	0	-100	0	230	101300000	1000	0	0	-1	700
11574715	5819	1674	0	-100	0	230	101300000	1000	0	0	-1	700
11587275	5827	1675	0	-100	0	230	101300000	1000	0	0	-1	700
11599835	5814	1674	0	-100	0	230	101300000	1000	0	0	-1	700
11612395	5835	1676	0	-100	0	230	101300000	1000	0	0	-1	700
11624955	5823	1672	0	-100	0	230	101300000	1000	0	0	-1	700
11637515	5833	1664	0	-100	0	230	101300000	1000	0	0	-1	700
11650075	5823	1676	0	-100	0	230	101300000	1000	0	0	-1	700
11662635	5823	1662	0	-100	0	230	101300000	1000	0	0	-1	700
11675195	5818	1685	0	-100	0	230	101300000	1000	0	0	-1	700
11687755	5820	1671	0	-100	0	230	101300000	1000	0	0	-1	700
11700315	5824	1676	0	-100	0	230	101300000	1000	0	0	-1	700
11712875	5827	1661	0	-100	0	230	101300000	1000	0	0	-1	700
11725435	5818	1669	0	-100	0	230	101300000	1000	0	0	-1	700
11737995	5822	1674	0	-100	0	230	101300000	1000	0	0	-1	700
11750555	5820	1677	0	-100	0	230	101300000	1000	0	0	-1	700
11763115	5830	1668	0	-100	0	230	101300000	1000	0	0	-1	700
11775675	5830	1668	0	-100	0	230	101300000	1000	0	0	-1	700
11788235	5828	1665	0	-100	0	230	101300000	1000	0	0	-1	700
11800795	5822	1671	0	-100	0	230	101300000	1000	0	0	-1	700
11813355	5826	1665	0	-100	0	230	101300000	1000	0	0	-1	700
11825915	5827	1670	0	-100	0	230	101300000	1000	0	0	-1	700
11838475	5835	1665	0	-100	0	230	101300000	1000	0	0	-1	700
11851035	5822	1675	0	-100	0	230	101300000	1000	0	0	-1	700
11863595	5821	1681	0	-100	0	230	101300000	1000	0	0	-1	700
11876155	5814	1674	0	-100	0	230	101300000	1000	0	0	-1	700
11888715	5831	1668	0	-100	0	230	101300000	1000	0	0	-1	700
11901275	5843	1676	0	-100	0	230	101300000	1000	0	0	-1	700
11913835	5821	1666	0	-100	0	230	101300000	1000	0	0	-1	700
11926395	5835	1656	0	-100	0	230	101300000	1000	0	0	-1	700
11938955	5818	1669	0	-100	0	230	101300000	1000	0	0	-1	700
11951515	5828	1670	0	-100	0	230	101300000	1000	0	0	-1	700
11964075	5835	1675	0	-100	0	230	101300000	1000	0	0	-1	700
11976635	5826	1676	0	-100	0	230	101300000	1000	0	0	-1	700
11989195	5822	1666	0	-100	0	230	101300000	1000	0	0	-1	700
12001755	5832	1668	0	-100	0	230	101300000	1000	0	0	-1	700
12014315	5818	1668	0	-100	0	230	101300000	1000	0	0	-1	700
12026875	5819	1674	0	-100	0	230	101300000	1000	0	0	-1	700
12039435	5819	1676	0	-100	0	230	101300000	1000	0	0	-1	700
12051995	5833	1668	0	-100	0	230	101300000	1000	0	0	-1	700
12064555	5837	1668	0	-100	0	230	101300000	1000	0	0	-1	700
12077115	5831	1667	0	-100	0	230	101300000	1000	0	0	-1	700
12089675	5825	1669	0	-100	0	230	101300000	1000	0	0	-1	700
12102235	5831	1677	0	-100	0	230	101300000	1000	0	0	-1	700
12114795	5812	1670	0	-100	0	230	101300000	1000	0	0	-1	700
12127355	5827	1664	0	-100	0	230	101300000	1000	0	0	-1	700
12139915	5823	1673	0	-100	0	230	101300000	1000	0	0	-1	700
12152475	5827	1663	0	-100	0	230	101300000	1000	0	0	-1	700
12165035	5833	1650	0	-100	0	230	101300000	1000	0	0	-1	700
12177595	5826	1669	0	-100	0	230	101300000	1000	0	0	-1	700
12190155	5823	1677	0	-100	0	230	101300000	1000	0	0	-1	700
12202715	5826	1667	0	-100	0	230	101300000	1000	0	0	-1	700
12215275	5817	1666	0	-100	0	230	101300000	1000	0	0	-1	700
12227835	5828	1666	0	-100	0	230	101300000	1000	0	0	-1	700
12240395	5814	1677	0	-100	0	230	101300000	1000	0	0	-1	700
12252955	5833	1662	0	-100	0	230	101300000	1000	0	0	-1	700
12265515	5820	1673	0	-100	0	230	101300000	1000	0	0	-1	700
12278075	5832	1666	0	-100	0	230	101300000	1000	0	0	-1	700
12290635	5822	1673	0	-100	0	230	101300000	1000	0	0	-1	700
12303195	5820	1667	0	-100	0	230	101300000	1000	0	0	-1	700
12315755	5832	1669	0	-100	0	230	101300000	1000	0	0	-1	700
12328315	5815	1655	0	-100	0	230	101300000	1000	0	0	-1	700
12340875	5841	1666	0	-100	0	230	101300000	1000	0	0	-1	700
12353435	5821	1667	0	-100	0	230	101300000	1000	0	0	-1	700
12365995	5829	1666	0	-100	0	230	101300000	1000	0	0	-1	700
12378555	5825	1679	0	-100	0	230	101300000	1000	0	0	-1	700
12391115	5822	1666	0	-100	0	230	101300000	1000	0	0	-1	700
12403675	5815	1674	0	-100	0	230	101300000	1000	0	0	-1	700
12416235	5828	1669	0	-100	0	230	101300000	1000	0	0	-1	700
12428795	5822	1677	0	-100	0	230	101300000	1000	0	0	-1	700
12441355	5827	1668	0	-100	0	230	101300000	1000	0	0	-1	700
12453915	5822	1656	0	-100	0	230	101300000	1000	0	0	-1	700
12466475	5821	1675	0	-100	0	230	101300000	1000	0	0	-1	700
12479035	5829	1665	0	-100	0	230	101300000	1000	0	0	-1	700
12491595	5816	1684	0	-100	0	230	101300000	1000	0	0	-1	700
12504155	5813	1672	0	-100	0	230	101300000	1000	0	0	-1	700
12516715	5819	1670	0	-100	0	230	101300000	1000	0	0	-1	700
12529275	5827	1668	0	-100	0	230	101300000	1000	0	0	-1	700
12541835	5818	1672	0	-100	0	230	101300000	1000	0	0	-1	700
12554395	5818	1672	0	-100	0	230	101300000	1000	0	0	-1	700
12566955	5822	1677	0	-100	0	230	101300000	1000	0	0	-1	700
12579515	5815	1672	0	-100	0	230	101300000	1000	0	0	-1	700
12592075	5818	1682	0	-100	0	230	101300000	1000	0	0	-1	700
12604635	5816	1673	0	-100	0	230	101300000	1000	0	0	-1	700
12617195	5829	1679	0	-100	0	230	101300000	1000	0	0	-1	700
12629755	5814	1668	0	-100	0	230	101300000	1000	0	0	-1	700
12642315	5831	1674	0	-100	0	230	101300000	1000	0	0	-1	700
12654875	5819	1661	0	-100	0	230	101300000	1000	0	0	-1	700
12667435	5831	1684	0	-100	0	230	101300000	1000	0	0	-1	700
12679995	5821	1664	0	-100	0	230	101300000	1000	0	0	-1	700
12692555	5831	1678	0	-100	0	230	101300000	1000	0	0	-1	700
12705115	5807	1676	0	-100	0	230	101300000	1000	0	0	-1	700
12717675	5837	1673	0	-100	0	230	101300000	1000	0	0	-1	700
12730235	5822	1659	0	-100	0	230	101300000	1000	0	0	-1	700
12742795	5830	1667	0	-100	0	230	101300000	1000	0	0	-1	700
12755355	5840	1669	0	-100	0	230	101300000	1000	0	0	-1	700
12767915	5831	1666	0	-100	0	230	101300000	1000	0	0	-1	700
12780475	5832	1671	0	-100	0	230	101300000	1000	0	0	-1	700
12793035	5818	1665	0	-100	0	230	101300000	1000	0	0	-1	700
12805595	5823	1676	0	-100	0	230	101300000	1000	0	0	-1	700
12818155	5827	1674	0	-100	0	230	101300000	1000	0	0	-1	700
12830715	5822	1679	0	-100	0	230	101300000	1000	0	0	-1	700
12843275	5821	1665	0	-100	0	230	101300000	1000	0	0	-1	700
12855835	5813	1676	0	-100	0	230	101300000	1000	0	0	-1	700
12868395	5823	1669	0	-100	0	230	101300000	1000	0	0	-1	700
12880955	5818	1677	0	-100	0	230	101300000	1000	0	0	-1	700
12893515	5823	1670	0	-100	0	230	101300000	1000	0	0	-1	700
12906075	5828	1667	0	-100	0	230	101300000	1000	0	0	-1	700
12918635	5831	1663	0	-100	0	230	101300000	1000	0	0	-1	700
12931195	5819	1667	0	-100	0	230	101300000	1000	0	0	-1	700
12943755	5836	1669	0	-100	0	230	101300000	1000	0	0	-1	700
12956315	5823	1673	0	-100	0	230	101300000	1000	0	0	-1	700
12968875	5834	1678	0	-100	0	230	101300000	1000	0	0	-1	700
12981435	5818	1681	0	-100	0	230	101300000	1000	0	0	-1	700
12993995	5821	1684	0	-100	0	230	101300000	1000	0	0	-1	700
13006555	5817	1680	0	-100	0	230	101300000	1000	0	0	-1	700
13019115	5820	1676	0	-100	0	230	101300000	1000	0	0	-1	700
13031675	5825	1663	0	-100	0	230	101300000	1000	0	0	-1	700
13044235	5822	1672	0	-100	0	230	101300000	1000	0	0	-1	700
13056795	5824	1674	0	-100	0	230	101300000	1000	0	0	-1	700
13069355	5817	1675	0	-100	0	230	101300000	1000	0	0	-1	700
13081915	5828	1673	0	-100	0	230	101300000	1000	0	0	-1	700
13094475	5829	1673	0	-100	0	230	101300000	1000	0	0	-1	700
13107035	5827	1675	0	-100	0	230	101300000	1000	0	0	-1	700
13119595	5823	1664	0	-100	0	230	101300000	1000	0	0	-1	700
13132155	5824	1661	0	-100	0	230	101300000	1000	0	0	-1	700
13144715	5831	1672	0	-100	0	230	101300000	1000	0	0	-1	700
13157275	5807	1671	0	-100	0	230	101300000	1000	0	0	-1	700
13169835	5824	1666	0	-100	0	230	101300000	1000	0	0	-1	700
13182395	5822	1668	0	-100	0	230	101300000	1000	0	0	-1	700
13194955	5824	1669	0	-100	0	230	101300000	1000	0	0	-1	700
13207515	5826	1676	0	-100	0	230	101300000	1000	0	0	-1	700
13220075	5821	1676	0	-100	0	230	101300000	1000	0	0	-1	700
13232635	5826	1673	0	-100	0	230	101300000	1000	0	0	-1	700
13245195	5819	1667	0	-100	0	230	101300000	1000	0	0	-1	700
13257755	5831	1675	0	-100	0	230	101300000	1000	0	0	-1	700
13270315	5818	1673	0	-100	0	230	101300000	1000	0	0	-1	700
13282875	5827	1680	0	-100	0	230	101300000	1000	0	0	-1	700
13295435	5835	1664	0	-100	0	230	101300000	1000	0	0	-1	700
13307995	5817	1662	0	-100	0	230	101300000	1000	0	0	-1	700
13320555	5825	1671	0	-100	0	230	101300000	1000	0	0	-1	700
13333115	5840	1664	0	-100	0	230	101300000	1000	0	0	-1	700
13345675	5827	1670	0	-100	0	230	101300000	1000	0	0	-1	700
13358235	5826	1666	0	-100	0	230	101300000	1000	0	0	-1	700
13370795	5823	1672	0	-100	0	230	101300000	1000	0	0	-1	700
13383355	5833	1660	0	-100	0	230	101300000	1000	0	0	-1	700
13395915	5817	1670	0	-100	0	230	101300000	1000	0	0	-1	700
13408475	5827	1657	0	-100	0	230	101300000	1000	0	0	-1	700
13421035	5830	1670	0	-100	0	230	101300000	1000	0	0	-1	700
13433595	5823	1664	0	-100	0	230	101300000	1000	0	0	-1	700
13446155	5817	1661	0	-100	0	230	101300000	1000	0	0	-1	700
13471275	5826	1655	0	-100	0	230	101300000	1000	0	0	-1	700
13483835	5836	1656	0	-100	0	230	101300000	1000	0	0	-1	700
13496395	5819	1670	0	-100	0	230	101300000	1000	0	0	-1	700
13508955	5821	1668	0	-100	0	230	101300000	1000	0	0	-1	700
13521515	5825	1670	0	-100	0	230	101300000	1000	0	0	-1	700
13534075	5833	1663	0	-100	0	230	101300000	1000	0	0	-1	700
13546635	5828	1670	0	-100	0	230	101300000	1000	0	0	-1	700
13559195	5811	1673	0	-100	0	230	101300000	1000	0	0	-1	700
13571755	5827	1670	0	-100	0	230	101300000	1000	0	0	-1	700
13584315	5823	1675	0	-100	0	230	101300000	1000	0	0	-1	700
13596875	5831	1682	0	-100	0	230	101300000	1000	0	0	-1	700
13609435	5817	1678	0	-100	0	230	101300000	1000	0	0	-1	700
13684795	5819	1666	0	-100	0	230	101300000	1000	0	0	-1	700
13697355	5814	1665	0	-100	0	230	101300000	1000	0	0	-1	700
13709915	5827	1666	0	-100	0	230	101300000	1000	0	0	-1	700
13722475	5820	1673	0	-100	0	230	101300000	1000	0	0	-1	700
13735035	5818	1676	0	-100	0	230	101300000	1000	0	0	-1	700
13747595	5831	1681	0	-100	0	230	101300000	1000	0	0	-1	700
13760155	5822	1671	0	-100	0	230	101300000	1000	0	0	-1	700
13772715	5836	1664	0	-100	0	230	101300000	1000	0	0	-1	700
13785275	5818	1659	0	-100	0	230	101300000	1000	0	0	-1	700
13797835	5820	1666	0	-100	0	230	101300000	1000	0	0	-1	700
13810395	5816	1666	0	-100	0	230	101300000	1000	0	0	-1	700
13822955	5822	1672	0	-100	0	230	101300000	1000	0	0	-1	700
13835515	5828	1674	0	-100	0	230	101300000	1000	0	0	-1	700
13848075	5819	1672	0	-100	0	230	101300000	1000	0	0	-1	700
13860635	5821	1666	0	-100	0	230	101300000	1000	0	0	-1	700
13873195	5836	1667	0	-100	0	230	101300000	1000	0	0	-1	700
13885755	5830	1673	0	-100	0	230	101300000	1000	0	0	-1	700
13898315	5819	1676	0	-100	0	230	101300000	1000	0	0	-1	700
13910875	5828	1664	0	-100	0	230	101300000	1000	0	0	-1	700
13923435	5822	1661	0	-100	0	230	101300000	1000	0	0	-1	700
13935995	5815	1671	0	-100	0	230	101300000	1000	0	0	-1	700
13948555	5823	1673	0	-100	0	230	101300000	1000	0	0	-1	700
13961115	5821	1668	0	-100	0	230	101300000	1000	0	0	-1	700
13973675	5831	1672	0	-100	0	230	101300000	1000	0	0	-1	700
13986235	5815	1677	0	-100	0	230	101300000	1000	0	0	-1	700
13998795	5823	1674	0	-100	0	230	101300000	1000	0	0	-1	700
14011355	5814	1671	0	-100	0	230	101300000	1000	0	0	-1	700
14023915	5826	1661	0	-100	0	230	101300000	1000	0	0	-1	700
14036475	5827	1669	0	-100	0	230	101300000	1000	0	0	-1	700
14049035	5822	1666	0	-100	0	230	101300000	1000	0	0	-1	700
14061595	5826	1661	0	-100	0	230	101300000	1000	0	0	-1	700
14074155	5831	1676	0	-100	0	230	101300000	1000	0	0	-1	700
14086715	5818	1673	0	-100	0	230	101300000	1000	0	0	-1	700
14099275	5821	1671	0	-100	0	230	101300000	1000	0	0	-1	700
14111835	5822	1664	0	-100	0	230	101300000	1000	0	0	-1	700
14124395	5830	1663	0	-100	0	230	101300000	1000	0	0	-1	700
14136955	5818	1672	0	-100	0	230	101300000	1000	0	0	-1	700
14149515	5833	1673	0	-100	0	230	101300000	1000	0	0	-1	700
14162075	5828	1663	0	-100	0	230	101300000	1000	0	0	-1	700
14174635	5827	1666	0	-100	0	230	101300000	1000	0	0	-1	700
14187195	5820	1661	0	-100	0	230	101300000	1000	0	0	-1	700
14199755	5830	1677	0	-100	0	230	101300000	1000	0	0	-1	700
14212315	5816	1671	0	-100	0	230	101300000	1000	0	0	-1	700
14224875	5819	1667	0	-100	0	230	101300000	1000	0	0	-1	700
14237435	5827	1672	0	-100	0	230	101300000	1000	0	0	-1	700
14249995	5824	1664	0	-100	0	230	101300000	1000	0	0	-1	700
14262555	5832	1660	0	-100	0	230	101300000	1000	0	0	-1	700
14275115	5827	1665	0	-100	0	230	101300000	1000	0	0	-1	700
14287675	5827	1655	0	-100	0	230	101300000	1000	0	0	-1	700
14300235	5829	1668	0	-100	0	230	101300000	1000	0	0	-1	700
14312795	5826	1662	0	-100	0	230	101300000	1000	0	0	-1	700
14325355	5824	1666	0	-100	0	230	101300000	1000	0	0	-1	700
14337915	5832	1660	0	-100	0	230	101300000	1000	0	0	-1	700
14350475	5826	1680	0	-100	0	230	101300000	1000	0	0	-1	700
14363035	5829	1670	0	-100	0	230	101300000	1000	0	0	-1	700
14375595	5833	1676	0	-100	0	230	101300000	1000	0	0	-1	700
14388155	5823	1678	0	-100	0	230	101300000	1000	0	0	-1	700
14400715	5826	1667	0	-100	0	230	101300000	1000	0	0	-1	700
14413275	5819	1675	0	-100	0	230	101300000	1000	0	0	-1	700
14425835	5842	1667	0	-100	0	230	101300000	1000	0	0	-1	700
14438395	5825	1666	0	-100	0	230	101300000	1000	0	0	-1	700
14450955	5826	1675	0	-100	0	230	101300000	1000	0	0	-1	700
14463515	5812	1673	0	-100	0	230	101300000	1000	0	0	-1	700
14476075	5840	1668	0	-100	0	230	101300000	1000	0	0	-1	700
14488635	5823	1663	0	-100	0	230	101300000	1000	0	0	-1	700
14501195	5823	1661	0	-100	0	230	101300000	1000	0	0	-1	700
14513755	5817	1670	0	-100	0	230	101300000	1000	0	0	-1	700
14526315	5829	1663	0	-100	0	230	101300000	1000	0	0	-1	700
14538875	5831	1667	0	-100	0	230	101300000	1000	0	0	-1	700
14551435	5830	1670	0	-100	0	230	101300000	1000	0	0	-1	700
14563995	5827	1670	0	-100	0	230	101300000	1000	0	0	-1	700
14576555	5827	1662	0	-100	0	230	101300000	1000	0	0	-1	700
14589115	5826	1677	0	-100	0	230	101300000	1000	0	0	-1	700
14601675	5838	1673	0	-100	0	230	101300000	1000	0	0	-1	700
14614235	5824	1670	0	-100	0	230	101300000	1000	0	0	-1	700
14626795	5825	1667	0	-100	0	230	101300000	1000	0	0	-1	700
14639355	5817	1674	0	-100	0	230	101300000	1000	0	0	-1	700
14651915	5842	1671	0	-100	0	230	101300000	1000	0	0	-1	700
14664475	5833	1667	0	-100	0	230	101300000	1000	0	0	-1	700
14677035	5819	1674	0	-100	0	230	101300000	1000	0	0	-1	700
14689595	5829	1665	0	-100	0	230	101300000	1000	0	0	-1	700
14702155	5810	1670	0	-100	0	230	101300000	1000	0	0	-1	700
14714715	5812	1678	0	-100	0	230	101300000	1000	0	0	-1	700
14727275	5829	1677	0	-100	0	230	101300000	1000	0	0	-1	700
14739835	5826	1674	0	-100	0	230	101300000	1000	0	0	-1	700
14752395	5829	1657	0	-100	0	230	101300000	1000	0	0	-1	700
14764955	5813	1674	0	-100	0	230	101300000	1000	0	0	-1	700
14777515	5827	1672	0	-100	0	230	101300000	1000	0	0	-1	700
14790075	5819	1666	0	-100	0	230	101300000	1000	0	0	-1	700
14802635	5820	1670	0	-100	0	230	101300000	1000	0	0	-1	700
14815195	5814	1674	0	-100	0	230	101300000	1000	0	0	-1	700
14827755	5819	1670	0	-100	0	230	101300000	1000	0	0	-1	700
14840315	5814	1666	0	-100	0	230	101300000	1000	0	0	-1	700
14852875	5822	1677	0	-100	0	230	101300000	1000	0	0	-1	700
14865435	5829	1669	0	-100	0	230	101300000	1000	0	0	-1	700
14877995	5831	1657	0	-100	0	230	101300000	1000	0	0	-1	700
14890555	5815	1668	0	-100	0	230	101300000	1000	0	0	-1	700
14903115	5818	1668	0	-100	0	230	101300000	1000	0	0	-1	700
14915675	5825	1670	0	-100	0	230	101300000	1000	0	0	-1	700
14928235	5831	1661	0	-100	0	230	101300000	1000	0	0	-1	700
14940795	5825	1663	0	-100	0	230	101300000	1000	0	0	-1	700
14953355	5821	1675	0	-100	0	230	101300000	1000	0	0	-1	700
14965915	5836	1677	0	-100	0	230	101300000	1000	0	0	-1	700
14978475	5824	1672	0	-100	0	230	101300000	1000	0	0	-1	700
14991035	5811	1675	0	-100	0	230	101300000	1000	0	0	-1	700
15003595	5831	1681	0	-100	0	230	101300000	1000	0	0	-1	700
15016155	5808	1664	0	-100	0	230	101300000	1000	0	0	-1	700
15028715	5818	1685	0	-100	0	230	101300000	1000	0	0	-1	700
15041275	5819	1669	0	-100	0	230	101300000	1000	0	0	-1	700
15053835	5818	1680	0	-100	0	230	101300000	1000	0	0	-1	700
15066395	5832	1654	0	-100	0	230	101300000	1000	0	0	-1	700
15078955	5816	1666	0	-100	0	230	101300000	1000	0	0	-1	700
15091515	5831	1659	0	-100	0	230	101300000	1000	0	0	-1	700
15104075	5825	1657	0	-100	0	230	101300000	1000	0	0	-1	700
15116635	5838	1665	0	-100	0	230	101300000	1000	0	0	-1	700
15129195	5817	1661	0	-100	0	230	101300000	1000	0	0	-1	700
15141755	5814	1675	0	-100	0	230	101300000	1000	0	0	-1	700
15154315	5827	1670	0	-100	0	230	101300000	1000	0	0	-1	700
15166875	5818	1659	0	-100	0	230	101300000	1000	0	0	-1	700
15179435	5823	1668	0	-100	0	230	101300000	1000	0	0	-1	700
15191995	5827	1672	0	-100	0	230	101300000	1000	0	0	-1	700
15204555	5837	1681	0	-100	0	230	101300000	1000	0	0	-1	700
15217115	5824	1675	0	-100	0	230	101300000	1000	0	0	-1	700
15229675	5842	1662	0	-100	0	230	101300000	1000	0	0	-1	700
15242235	5825	1666	0	-100	0	230	101300000	1000	0	0	-1	700
15254795	5823	1668	0	-100	0	230	101300000	1000	0	0	-1	700
15267355	5828	1675	0	-100	0	230	101300000	1000	0	0	-1	700
15279915	5814	1675	0	-100	0	230	101300000	1000	0	0	-1	700
15292475	5846	1658	0	-100	0	230	101300000	1000	0	0	-1	700
15305035	5819	1667	0	-100	0	230	101300000	1000	0	0	-1	700
15317595	5827	1678	0	-100	0	230	101300000	1000	0	0	-1	700
15330155	5814	1664	0	-100	0	230	101300000	1000	0	0	-1	700
15342715	5825	1672	0	-100	0	230	101300000	1000	0	0	-1	700
15355275	5839	1681	0	-100	0	230	101300000	1000	0	0	-1	700
15367835	5820	1670	0	-100	0	230	101300000	1000	0	0	-1	700
15380395	5835	1661	0	-100	0	230	101300000	1000	0	0	-1	700
15392955	5821	1656	0	-100	0	230	101300000	1000	0	0	-1	700
15405515	5822	1669	0	-100	0	230	101300000	1000	0	0	-1	700
15418075	5831	1674	0	-100	0	230	101300000	1000	0	0	-1	700
15430635	5823	1669	0	-100	0	230	101300000	1000	0	0	-1	700
15443195	5831	1660	0	-100	0	230	101300000	1000	0	0	-1	700
15455755	5818	1659	0	-100	0	230	101300000	1000	0	0	-1	700
15468315	5823	1658	0	-100	0	230	101300000	1000	0	0	-1	700
15480875	5825	1659	0	-100	0	230	101300000	1000	0	0	-1	700
15493435	5839	1662	0	-100	0	230	101300000	1000	0	0	-1	700
15505995	5828	1664	0	-100	0	230	101300000	1000	0	0	-1	700
15518555	5832	1663	0	-100	0	230	101300000	1000	0	0	-1	700
15531115	5818	1663	0	-100	0	230	101300000	1000	0	0	-1	700
15543675	5822	1670	0	-100	0	230	101300000	1000	0	0	-1	700
15556235	5816	1663	0	-100	0	230	101300000	1000	0	0	-1	700
15568795	5834	1658	0	-100	0	230	101300000	1000	0	0	-1	700
15581355	5819	1666	0	-100	0	230	101300000	1000	0	0	-1	700
15593915	5835	1663	0	-100	0	230	101300000	1000	0	0	-1	700
15606475	5828	1666	0	-100	0	230	101300000	1000	0	0	-1	700
15619035	5818	1666	0	-100	0	230	101300000	1000	0	0	-1	700
15631595	5834	1670	0	-100	0	230	101300000	1000	0	0	-1	700
15644155	5822	1670	0	-100	0	230	101300000	1000	0	0	-1	700
15656715	5827	1676	0	-100	0	230	101300000	1000	0	0	-1	700
15669275	5824	1674	0	-100	0	230	101300000	1000	0	0	-1	700
15681835	5818	1681	0	-100	0	230	101300000	1000	0	0	-1	700
15694395	5822	1665	0	-100	0	230	101300000	1000	0	0	-1	700
15706955	5827	1673	0	-100	0	230	101300000	1000	0	0	-1	700
15719515	5837	1671	0	-100	0	230	101300000	1000	0	0	-1	700
15732075	5827	1676	0	-100	0	230	101300000	1000	0	0	-1	700
15744635	5825	1669	0	-100	0	230	101300000	1000	0	0	-1	700
15757195	5824	1676	0	-100	0	230	101300000	1000	0	0	-1	700
15769755	5831	1670	0	-100	0	230	101300000	1000	0	0	-1	700
15782315	5822	1669	0	-100	0	230	101300000	1000	0	0	-1	700
15794875	5823	1668	0	-100	0	230	101300000	1000	0	0	-1	700
15807435	5831	1675	0	-100	0	230	101300000	1000	0	0	-1	700
15819995	5811	1674	0	-100	0	230	101300000	1000	0	0	-1	700
15832555	5826	1680	0	-100	0	230	101300000	1000	0	0	-1	700
15845115	5830	1682	0	-100	0	230	101300000	1000	0	0	-1	700
15857675	5818	1677	0	-100	0	230	101300000	1000	0	0	-1	700
15870235	5822	1676	0	-100	0	230	101300000	1000	0	0	-1	700
15882795	5818	1677	0	-100	0	230	101300000	1000	0	0	-1	700
15895355	5820	1664	0	-100	0	230	101300000	1000	0	0	-1	700
15907915	5818	1662	0	-100	0	230	101300000	1000	0	0	-1	700
15920475	5822	1667	0	-100	0	230	101300000	1000	0	0	-1	700
15933035	5830	1657	0	-100	0	230	101300000	1000	0	0	-1	700
15945595	5818	1660	0	-100	0	230	101300000	1000	0	0	-1	700
15958155	5814	1674	0	-100	0	230	101300000	1000	0	0	-1	700
15970715	5820	1676	0	-100	0	230	101300000	1000	0	0	-1	700
15983275	5822	1669	0	-100	0	230	101300000	1000	0	0	-1	700
15995835	5818	1662	0	-100	0	230	101300000	1000	0	0	-1	700
16008395	5825	1663	0	-100	0	230	101300000	1000	0	0	-1	700
16020955	5814	1664	0	-100	0	230	101300000	1000	0	0	-1	700
16033515	5839	1664	0	-100	0	230	101300000	1000	0	0	-1	700
16046075	5822	1675	0	-100	0	230	101300000	1000	0	0	-1	700
16058635	5831	1674	0	-100	0	230	101300000	1000	0	0	-1	700
16071195	5813	1674	0	-100	0	230	101300000	1000	0	0	-1	700
16083755	5830	1677	0	-100	0	230	101300000	1000	0	0	-1	700
16096315	5818	1673	0	-100	0	230	101300000	1000	0	0	-1	700
16108875	5827	1673	0	-100	0	230	101300000	1000	0	0	-1	700
16121435	5820	1665	0	-100	0	230	101300000	1000	0	0	-1	700
16133995	5818	1658	0	-100	0	230	101300000	1000	0	0	-1	700
16146555	5839	1669	0	-100	0	230	101300000	1000	0	0	-1	700
16159115	5820	1671	0	-100	0	230	101300000	1000	0	0	-1	700
16171675	5836	1665	0	-100	0	230	101300000	1000	0	0	-1	700
16184235	5822	1671	0	-100	0	230	101300000	1000	0	0	-1	700
16196795	5827	1673	0	-100	0	230	101300000	1000	0	0	-1	700
16209355	5831	1676	0	-100	0	230	101300000	1000	0	0	-1	700
16221915	5815	1671	0	-100	0	230	101300000	1000	0	0	-1	700
16234475	5824	1670	0	-100	0	230	101300000	1000	0	0	-1	700
16247035	5817	1670	0	-100	0	230	101300000	1000	0	0	-1	700
16259595	5819	1671	0	-100	0	230	101300000	1000	0	0	-1	700
16272155	5816	1664	0	-100	0	230	101300000	1000	0	0	-1	700
16284715	5820	1678	0	-100	0	230	101300000	1000	0	0	-1	700
16297275	5823	1668	0	-100	0	230	101300000	1000	0	0	-1	700
16309835	5827	1673	0	-100	0	230	101300000	1000	0	0	-1	700
16322395	5833	1664	0	-100	0	230	101300000	1000	0	0	-1	700
16334955	5818	1666	0	-100	0	230	101300000	1000	0	0	-1	700
16347515	5822	1665	0	-100	0	230	101300000	1000	0	0	-1	700
16360075	5807	1663	0	-100	0	230	101300000	1000	0	0	-1	700
16385195	5818	1671	0	-100	0	230	101300000	1000	0	0	-1	700
16397755	5828	1660	0	-100	0	230	101300000	1000	0	0	-1	700
16410315	5840	1668	0	-100	0	230	101300000	1000	0	0	-1	700
16422875	5824	1678	0	-100	0	230	101300000	1000	0	0	-1	700
16435435	5814	1662	0	-100	0	230	101300000	1000	0	0	-1	700
16447995	5826	1675	0	-100	0	230	101300000	1000	0	0	-1	700
16460555	5822	1667	0	-100	0	230	101300000	1000	0	0	-1	700
16473115	5814	1675	0	-100	0	230	101300000	1000	0	0	-1	700
16485675	5840	1668	0	-100	0	230	101300000	1000	0	0	-1	700
16498235	5829	1668	0	-100	0	230	101300000	1000	0	0	-1	700
16510795	5818	1669	0	-100	0	230	101300000	1000	0	0	-1	700
16523355	5826	1665	0	-100	0	230	101300000	1000	0	0	-1	700
16598715	5831	1662	0	-100	0	230	101300000	1000	0	0	-1	700
16611275	5827	1656	0	-100	0	230	101300000	1000	0	0	-1	700
16623835	5819	1670	0	-100	0	230	101300000	1000	0	0	-1	700
16636395	5818	1663	0	-100	0	230	101300000	1000	0	0	-1	700
16648955	5835	1662	0	-100	0	230	101300000	1000	0	0	-1	700
16661515	5820	1679	0	-100	0	230	101300000	1000	0	0	-1	700
16674075	5822	1661	0	-100	0	230	101300000	1000	0	0	-1	700
16686635	5827	1673	0	-100	0	230	101300000	1000	0	0	-1	700
16699195	5822	1670	0	-100	0	230	101300000	1000	0	0	-1	700
16711755	5827	1672	0	-100	0	230	101300000	1000	0	0	-1	700
16724315	5834	1666	0	-100	0	230	101300000	1000	0	0	-1	700
16736875	5827	1655	0	-100	0	230	101300000	1000	0	0	-1	700
16774555	5823	1673	0	-100	0	230	101300000	1000	0	0	-1	700
16787115	5819	1673	0	-100	0	230	101300000	1000	0	0	-1	700
16799675	5832	1668	0	-100	0	230	101300000	1000	0	0	-1	700
16812235	5818	1673	0	-100	0	230	101300000	1000	0	0	-1	700
16824795	5827	1671	0	-100	0	230	101300000	1000	0	0	-1	700
16837355	5818	1659	0	-100	0	230	101300000	1000	0	0	-1	700
16849915	5826	1669	0	-100	0	230	101300000	1000	0	0	-1	700
16862475	5821	1669	0	-100	0	230	101300000	1000	0	0	-1	700
16875035	5812	1673	0	-100	0	230	101300000	1000	0	0	-1	700
16887595	5832	1674	0	-100	0	230	101300000	1000	0	0	-1	700
16900155	5814	1672	0	-100	0	230	101300000	1000	0	0	-1	700
16912715	5831	1671	0	-100	0	230	101300000	1000	0	0	-1	700
16925275	5820	1673	0	-100	0	230	101300000	1000	0	0	-1	700
16937835	5818	1672	0	-100	0	230	101300000	1000	0	0	-1	700
16950395	5818	1667	0	-100	0	230	101300000	1000	0	0	-1	700
16962955	5815	1672	0	-100	0	230	101300000	1000	0	0	-1	700
16975515	5811	1671	0	-100	0	230	101300000	1000	0	0	-1	700
16988075	5822	1673	0	-100	0	230	101300000	1000	0	0	-1	700
17000635	5826	1672	0	-100	0	230	101300000	1000	0	0	-1	700
17013195	5829	1678	0	-100	0	230	101300000	1000	0	0	-1	700
17025755	5827	1665	0	-100	0	230	101300000	1000	0	0	-1	700
17038315	5822	1665	0	-100	0	230	101300000	1000	0	0	-1	700
17050875	5824	1665	0	-100	0	230	101300000	1000	0	0	-1	700
17063435	5818	1668	0	-100	0	230	101300000	1000	0	0	-1	700
17075995	5820	1670	0	-100	0	230	101300000	1000	0	0	-1	700
17088555	5820	1671	0	-100	0	230	101300000	1000	0	0	-1	700
17101115	5824	1663	0	-100	0	230	101300000	1000	0	0	-1	700
17113675	5814	1663	0	-100	0	230	101300000	1000	0	0	-1	700
17126235	5814	1665	0	-100	0	230	101300000	1000	0	0	-1	700
17138795	5821	1669	0	-100	0	230	101300000	1000	0	0	-1	700
17151355	5819	1661	0	-100	0	230	101300000	1000	0	0	-1	700
17163915	5828	1664	0	-100	0	230	101300000	1000	0	0	-1	700
17176475	5808	1661	0	-100	0	230	101300000	1000	0	0	-1	700
17189035	5823	1670	0	-100	0	230	101300000	1000	0	0	-1	700
17201595	5823	1668	0	-100	0	230	101300000	1000	0	0	-1	700
17214155	5816	1666	0	-100	0	230	101300000	1000	0	0	-1	700
17226715	5821	1667	0	-100	0	230	101300000	1000	0	0	-1	700
17239275	5817	1678	0	-100	0	230	101300000	1000	0	0	-1	700
17251835	5823	1674	0	-100	0	230	101300000	1000	0	0	-1	700
17264395	5820	1678	0	-100	0	230	101300000	1000	0	0	-1	700
17276955	5823	1658	0	-100	0	230	101300000	1000	0	0	-1	700
17289515	5830	1665	0	-100	0	230	101300000	1000	0	0	-1	700
17302075	5813	1665	0	-100	0	230	101300000	1000	0	0	-1	700
17314635	5818	1677	0	-100	0	230	101300000	1000	0	0	-1	700
17327195	5823	1674	0	-100	0	230	101300000	1000	0	0	-1	700
17339755	5826	1671	0	-100	0	230	101300000	1000	0	0	-1	700
17352315	5824	1666	0	-100	0	230	101300000	1000	0	0	-1	700
17364875	5812	1668	0	-100	0	230	101300000	1000	0	0	-1	700
17377435	5834	1670	0	-100	0	230	101300000	1000	0	0	-1	700
17389995	5828	1658	0	-100	0	230	101300000	1000	0	0	-1	700
17402555	5835	1665	0	-100	0	230	101300000	1000	0	0	-1	700
17415115	5827	1658	0	-100	0	230	101300000	1000	0	0	-1	700
17427675	5831	1673	0	-100	0	230	101300000	1000	0	0	-1	700
17440235	5832	1670	0	-100	0	230	101300000	1000	0	0	-1	700
17452795	5808	1664	0	-100	0	230	101300000	1000	0	0	-1	700
17465355	5816	1672	0	-100	0	230	101300000	1000	0	0	-1	700
17477915	5817	1668	0	-100	0	230	101300000	1000	0	0	-1	700
17490475	5807	1677	0	-100	0	230	101300000	1000	0	0	-1	700
17503035	5824	1653	0	-100	0	230	101300000	1000	0	0	-1	700
17515595	5801	1676	0	-100	0	230	101300000	1000	0	0	-1	700
17528155	5826	1670	0	-100	0	230	101300000	1000	0	0	-1	700
17540715	5813	1679	0	-100	0	230	101300000	1000	0	0	-1	700
17553275	5814	1666	0	-100	0	230	101300000	1000	0	0	-1	700
17565835	5826	1677	0	-100	0	230	101300000	1000	0	0	-1	700
17578395	5827	1676	0	-100	0	230	101300000	1000	0	0	-1	700
17590955	5819	1673	0	-100	0	230	101300000	1000	0	0	-1	700
17603515	5818	1672	0	-100	0	230	101300000	1000	0	0	-1	700
17616075	5833	1668	0	-100	0	230	101300000	1000	0	0	-1	700
17628635	5826	1678	0	-100	0	230	101300000	1000	0	0	-1	700
17641195	5826	1668	0	-100	0	230	101300000	1000	0	0	-1	700
17653755	5817	1682	0	-100	0	230	101300000	1000	0	0	-1	700
17666315	5828	1664	0	-100	0	230	101300000	1000	0	0	-1	700
17678875	5817	1666	0	-100	0	230	101300000	1000	0	0	-1	700
17691435	5823	1673	0	-100	0	230	101300000	1000	0	0	-1	700
17703995	5820	1673	0	-100	0	230	101300000	1000	0	0	-1	700
17716555	5831	1682	0	-100	0	230	101300000	1000	0	0	-1	700
17729115	5818	1679	0	-100	0	230	101300000	1000	0	0	-1	700
17741675	5820	1670	0	-100	0	230	101300000	1000	0	0	-1	700
17754235	5814	1673	0	-100	0	230	101300000	1000	0	0	-1	700
17766795	5825	1666	0	-100	0	230	101300000	1000	0	0	-1	700
17779355	5818	1667	0	-100	0	230	101300000	1000	0	0	-1	700
17791915	5810	1670	0	-100	0	230	101300000	1000	0	0	-1	700
17804475	5831	1659	0	-100	0	230	101300000	1000	0	0	-1	700
17817035	5831	1655	0	-100	0	230	101300000	1000	0	0	-1	700
17829595	5825	1660	0	-100	0	230	101300000	1000	0	0	-1	700
17842155	5833	1668	0	-100	0	230	101300000	1000	0	0	-1	700
17854715	5821	1669	0	-100	0	230	101300000	1000	0	0	-1	700
17867275	5824	1662	0	-100	0	230	101300000	1000	0	0	-1	700
17879835	5816	1659	0	-100	0	230	101300000	1000	0	0	-1	700
17892395	5824	1663	0	-100	0	230	101300000	1000	0	0	-1	700
17904955	5831	1668	0	-100	0	230	101300000	1000	0	0	-1	700
17917515	5814	1667	0	-100	0	230	101300000	1000	0	0	-1	700
17930075	5818	1687	0	-100	0	230	101300000	1000	0	0	-1	700
17942635	5826	1661	0	-100	0	230	101300000	1000	0	0	-1	700
17955195	5814	1670	0	-100	0	230	101300000	1000	0	0	-1	700
17967755	5826	1678	0	-100	0	230	101300000	1000	0	0	-1	700
17980315	5816	1656	0	-100	0	230	101300000	1000	0	0	-1	700
17992875	5825	1666	0	-100	0	230	101300000	1000	0	0	-1	700
18005435	5819	1662	0	-100	0	230	101300000	1000	0	0	-1	700
18017995	5817	1668	0	-100	0	230	101300000	1000	0	0	-1	700
18030555	5822	1685	0	-100	0	230	101300000	1000	0	0	-1	700
18043115	5811	1669	0	-100	0	230	101300000	1000	0	0	-1	700
18055675	5814	1677	0	-100	0	230	101300000	1000	0	0	-1	700
18068235	5818	1677	0	-100	0	230	101300000	1000	0	0	-1	700
18080795	5825	1673	0	-100	0	230	101300000	1000	0	0	-1	700
18093355	5834	1675	0	-100	0	230	101300000	1000	0	0	-1	700
18105915	5818	1662	0	-100	0	230	101300000	1000	0	0	-1	700
18118475	5810	1675	0	-100	0	230	101300000	1000	0	0	-1	700
18131035	5827	1666	0	-100	0	230	101300000	1000	0	0	-1	700
18143595	5833	1667	0	-100	0	230	101300000	1000	0	0	-1	700
18156155	5834	1667	0	-100	0	230	101300000	1000	0	0	-1	700
18168715	5820	1677	0	-100	0	230	101300000	1000	0	0	-1	700
18181275	5823	1655	0	-100	0	230	101300000	1000	0	0	-1	700
18193835	5820	1662	0	-100	0	230	101300000	1000	0	0	-1	700
18206395	5819	1663	0	-100	0	230	101300000	1000	0	0	-1	700
18218955	5815	1665	0	-100	0	230	101300000	1000	0	0	-1	700
18231515	5821	1662	0	-100	0	230	101300000	1000	0	0	-1	700
18244075	5812	1657	0	-100	0	230	101300000	1000	0	0	-1	700
18256635	5830	1670	0	-100	0	230	101300000	1000	0	0	-1	700
18269195	5807	1670	0	-100	0	230	101300000	1000	0	0	-1	700
18281755	5814	1681	0	-100	0	230	101300000	1000	0	0	-1	700
18294315	5818	1668	0	-100	0	230	101300000	1000	0	0	-1	700
18306875	5815	1673	0	-100	0	230	101300000	1000	0	0	-1	700
18319435	5822	1658	0	-100	0	230	101300000	1000	0	0	-1	700
18331995	5824	1660	0	-100	0	230	101300000	1000	0	0	-1	700
18344555	5822	1656	0	-100	0	230	101300000	1000	0	0	-1	700
18357115	5821	1668	0	-100	0	230	101300000	1000	0	0	-1	700
18369675	5835	1676	0	-100	0	230	101300000	1000	0	0	-1	700
18382235	5819	1675	0	-100	0	230	101300000	1000	0	0	-1	700
18394795	5828	1672	0	-100	0	230	101300000	1000	0	0	-1	700
18407355	5814	1679	0	-100	0	230	101300000	1000	0	0	-1	700
18419915	5821	1667	0	-100	0	230	101300000	1000	0	0	-1	700
18432475	5823	1669	0	-100	0	230	101300000	1000	0	0	-1	700
18445035	5818	1671	0	-100	0	230	101300000	1000	0	0	-1	700
18457595	5819	1666	0	-100	0	230	101300000	1000	0	0	-1	700
18470155	5822	1672	0	-100	0	230	101300000	1000	0	0	-1	700
18482715	5827	1666	0	-100	0	230	101300000	1000	0	0	-1	700
18495275	5822	1662	0	-100	0	230	101300000	1000	0	0	-1	700
18507835	5820	1669	0	-100	0	230	101300000	1000	0	0	-1	700
18520395	5830	1669	0	-100	0	230	101300000	1000	0	0	-1	700
18532955	5810	1672	0	-100	0	230	101300000	1000	0	0	-1	700
18545515	5820	1682	0	-100	0	230	101300000	1000	0	0	-1	700
18558075	5817	1679	0	-100	0	230	101300000	1000	0	0	-1	700
18570635	5818	1669	0	-100	0	230	101300000	1000	0	0	-1	700
18583195	5819	1663	0	-100	0	230	101300000	1000	0	0	-1	700
18595755	5818	1666	0	-100	0	230	101300000	1000	0	0	-1	700
18608315	5810	1669	0	-100	0	230	101300000	1000	0	0	-1	700
18620875	5827	1670	0	-100	0	230	101300000	1000	0	0	-1	700
18633435	5822	1671	0	-100	0	230	101300000	1000	0	0	-1	700
18645995	5815	1663	0	-100	0	230	101300000	1000	0	0	-1	700
18658555	5823	1680	0	-100	0	230	101300000	1000	0	0	-1	700
18671115	5827	1671	0	-100	0	230	101300000	1000	0	0	-1	700
18683675	5821	1681	0	-100	0	230	101300000	1000	0	0	-1	700
18696235	5819	1671	0	-100	0	230	101300000	1000	0	0	-1	700
18708795	5814	1672	0	-100	0	230	101300000	1000	0	0	-1	700
18721355	5825	1679	0	-100	0	230	101300000	1000	0	0	-1	700
18733915	5813	1671	0	-100	0	230	101300000	1000	0	0	-1	700
18746475	5828	1672	0	-100	0	230	101300000	1000	0	0	-1	700
18759035	5822	1666	0	-100	0	230	101300000	1000	0	0	-1	700
18771595	5826	1661	0	-100	0	230	101300000	1000	0	0	-1	700
18784155	5825	1679	0	-100	0	230	101300000	1000	0	0	-1	700
18796715	5821	1666	0	-100	0	230	101300000	1000	0	0	-1	700
18809275	5831	1668	0	-100	0	230	101300000	1000	0	0	-1	700
18821835	5821	1665	0	-100	0	230	101300000	1000	0	0	-1	700
18834395	5826	1662	0	-100	0	230	101300000	1000	0	0	-1	700
18846955	5833	1671	0	-100	0	230	101300000	1000	0	0	-1	700
18859515	5829	1657	0	-100	0	230	101300000	1000	0	0	-1	700
18872075	5830	1671	0	-100	0	230	101300000	1000	0	0	-1	700
18884635	5816	1679	0	-100	0	230	101300000	1000	0	0	-1	700
18897195	5826	1664	0	-100	0	230	101300000	1000	0	0	-1	700
18909755	5814	1668	0	-100	0	230	101300000	1000	0	0	-1	700
18922315	5814	1677	0	-100	0	230	101300000	1000	0	0	-1	700
18934875	5818	1662	0	-100	0	230	101300000	1000	0	0	-1	700
18947435	5827	1661	0	-100	0	230	101300000	1000	0	0	-1	700
18959995	5814	1646	0	-100	0	230	101300000	1000	0	0	-1	700
18972555	5808	1659	0	-100	0	230	101300000	1000	0	0	-1	700
18985115	5823	1664	0	-100	0	230	101300000	1000	0	0	-1	700
18997675	5822	1673	0	-100	0	230	101300000	1000	0	0	-1	700
19010235	5818	1660	0	-100	0	230	101300000	1000	0	0	-1	700
19022795	5832	1673	0	-100	0	230	101300000	1000	0	0	-1	700
19035355	5822	1675	0	-100	0	230	101300000	1000	0	0	-1	700
19047915	5821	1668	0	-100	0	230	101300000	1000	0	0	-1	700
19060475	5805	1675	0	-100	0	230	101300000	1000	0	0	-1	700
19073035	5822	1665	0	-100	0	230	101300000	1000	0	0	-1	700
19085595	5824	1663	0	-100	0	230	101300000	1000	0	0	-1	700
19098155	5812	1669	0	-100	0	230	101300000	1000	0	0	-1	700
19110715	5829	1670	0	-100	0	230	101300000	1000	0	0	-1	700
19123275	5824	1681	0	-100	0	230	101300000	1000	0	0	-1	700
19135835	5818	1679	0	-100	0	230	101300000	1000	0	0	-1	700
19148395	5829	1681	0	-100	0	230	101300000	1000	0	0	-1	700
19160955	5818	1672	0	-100	0	230	101300000	1000	0	0	-1	700
19173515	5818	1671	0	-100	0	230	101300000	1000	0	0	-1	700
19186075	5826	1673	0	-100	0	230	101300000	1000	0	0	-1	700
19198635	5823	1664	0	-100	0	230	101300000	1000	0	0	-1	700
19211195	5826	1666	0	-100	0	230	101300000	1000	0	0	-1	700
19223755	5826	1662	0	-100	0	230	101300000	1000	0	0	-1	700
19236315	5826	1669	0	-100	0	230	101300000	1000	0	0	-1	700
19248875	5819	1670	0	-100	0	230	101300000	1000	0	0	-1	700
19261435	5826	1673	0	-100	0	230	101300000	1000	0	0	-1	700
19273995	5829	1664	0	-100	0	230	101300000	1000	0	0	-1	700
19286555	5828	1660	0	-100	0	230	101300000	1000	0	0	-1	700
19299115	5814	1655	0	-100	0	230	101300000	1000	0	0	-1	700
19311675	5826	1674	0	-100	0	230	101300000	1000	0	0	-1	700
19324235	5822	1665	0	-100	0	230	101300000	1000	0	0	-1	700
19336795	5819	1665	0	-100	0	230	101300000	1000	0	0	-1	700
19349355	5821	1670	0	-100	0	230	101300000	1000	0	0	-1	700
19361915	5828	1674	0	-100	0	230	101300000	1000	0	0	-1	700
19374475	5819	1675	0	-100	0	230	101300000	1000	0	0	-1	700
19387035	5812	1669	0	-100	0	230	101300000	1000	0	0	-1	700
19399595	5820	1680	0	-100	0	230	101300000	1000	0	0	-1	700
19412155	5823	1671	0	-100	0	230	101300000	1000	0	0	-1	700
19424715	5831	1673	0	-100	0	230	101300000	1000	0	0	-1	700
19437275	5832	1664	0	-100	0	230	101300000	1000	0	0	-1	700
19449835	5814	1688	0	-100	0	230	101300000	1000	0	0	-1	700
19500075	5820	1663	0	-100	0	230	101300000	1000	0	0	-1	700
19512635	5832	1671	0	-100	0	230	101300000	1000	0	0	-1	700
19525195	5824	1676	0	-100	0	230	101300000	1000	0	0	-1	700
19537755	5820	1672	0	-100	0	230	101300000	1000	0	0	-1	700
19550315	5824	1666	0	-100	0	230	101300000	1000	0	0	-1	700
19562875	5835	1665	0	-100	0	230	101300000	1000	0	0	-1	700
19575435	5816	1672	0	-100	0	230	101300000	1000	0	0	-1	700
19587995	5818	1663	0	-100	0	230	101300000	1000	0	0	-1	700
19600555	5826	1662	0	-100	0	230	101300000	1000	0	0	-1	700
19613115	5827	1669	0	-100	0	230	101300000	1000	0	0	-1	700
19625675	5818	1664	0	-100	0	230	101300000	1000	0	0	-1	700
19638235	5823	1672	0	-100	0	230	101300000	1000	0	0	-1	700
19701035	5812	1668	0	-100	0	230	101300000	1000	0	0	-1	700
19713595	5810	1668	0	-100	0	230	101300000	1000	0	0	-1	700
19726155	5826	1664	0	-100	0	230	101300000	1000	0	0	-1	700
19738715	5833	1664	0	-100	0	230	101300000	1000	0	0	-1	700
19751275	5839	1669	0	-100	0	230	101300000	1000	0	0	-1	700
19763835	5824	1660	0	-100	0	230	101300000	1000	0	0	-1	700
19776395	5823	1671	0	-100	0	230	101300000	1000	0	0	-1	700
19788955	5810	1662	0	-100	0	230	101300000	1000	0	0	-1	700
19801515	5819	1662	0	-100	0	230	101300000	1000	0	0	-1	700
19814075	5831	1663	0	-100	0	230	101300000	1000	0	0	-1	700
19826635	5822	1661	0	-100	0	230	101300000	1000	0	0	-1	700
19839195	5845	1662	0	-100	0	230	101300000	1000	0	0	-1	700
19851755	5823	1662	0	-100	0	230	101300000	1000	0	0	-1	700
19864315	5814	1671	0	-100	0	230	101300000	1000	0	0	-1	700
19876875	5822	1674	0	-100	0	230	101300000	1000	0	0	-1	700
19889435	5829	1674	0	-100	0	230	101300000	1000	0	0	-1	700
19901995	5835	1662	0	-100	0	230	101300000	1000	0	0	-1	700
19914555	5817	1659	0	-100	0	230	101300000	1000	0	0	-1	700
19927115	5815	1663	0	-100	0	230	101300000	1000	0	0	-1	700
19939675	5827	1665	0	-100	0	230	101300000	1000	0	0	-1	700
19952235	5831	1665	0	-100	0	230	101300000	1000	0	0	-1	700
19964795	5819	1674	0	-100	0	230	101300000	1000	0	0	-1	700
19977355	5824	1673	0	-100	0	230	101300000	1000	0	0	-1	700
19989915	5815	1670	0	-100	0	230	101300000	1000	0	0	-1	700
20002475	5824	1656	0	-100	0	230	101300000	1000	0	0	-1	700
20015035	5823	1658	0	-100	0	230	101300000	1000	0	0	-1	700
20027595	5824	1683	0	-100	0	230	101300000	1000	0	0	-1	700
20040155	5814	1671	0	-100	0	230	101300000	1000	0	0	-1	700
20052715	5812	1666	0	-100	0	230	101300000	1000	0	0	-1	700
20065275	5824	1657	0	-100	0	230	101300000	1000	0	0	-1	700
20077835	5833	1658	0	-100	0	230	101300000	1000	0	0	-1	700
20090395	5824	1649	0	-100	0	230	101300000	1000	0	0	-1	700
20102955	5823	1658	0	-100	0	230	101300000	1000	0	0	-1	700
20115515	5832	1671	0	-100	0	230	101300000	1000	0	0	-1	700
20128075	5824	1661	0	-100	0	230	101300000	1000	0	0	-1	700
20140635	5818	1665	0	-100	0	230	101300000	1000	0	0	-1	700
20153195	5832	1665	0	-100	0	230	101300000	1000	0	0	-1	700
20165755	5824	1669	0	-100	0	230	101300000	1000	0	0	-1	700
20178315	5811	1661	0	-100	0	230	101300000	1000	0	0	-1	700
20190875	5829	1673	0	-100	0	230	101300000	1000	0	0	-1	700
20203435	5820	1667	0	-100	0	230	101300000	1000	0	0	-1	700
20215995	5818	1669	0	-100	0	230	101300000	1000	0	0	-1	700
20228555	5828	1669	0	-100	0	230	101300000	1000	0	0	-1	700
20241115	5816	1678	0	-100	0	230	101300000	1000	0	0	-1	700
20253675	5825	1678	0	-100	0	230	101300000	1000	0	0	-1	700
20266235	5840	1676	0	-100	0	230	101300000	1000	0	0	-1	700
20278795	5815	1669	0	-100	0	230	101300000	1000	0	0	-1	700
20291355	5827	1670	0	-100	0	230	101300000	1000	0	0	-1	700
20303915	5824	1666	0	-100	0	230	101300000	1000	0	0	-1	700
20316475	5806	1668	0	-100	0	230	101300000	1000	0	0	-1	700
20329035	5816	1665	0	-100	0	230	101300000	1000	0	0	-1	700
20341595	5814	1662	0	-100	0	230	101300000	1000	0	0	-1	700
20354155	5821	1670	0	-100	0	230	101300000	1000	0	0	-1	700
20366715	5823	1668	0	-100	0	230	101300000	1000	0	0	-1	700
20379275	5822	1659	0	-100	0	230	101300000	1000	0	0	-1	700
20391835	5820	1666	0	-100	0	230	101300000	1000	0	0	-1	700
20404395	5816	1668	0	-100	0	230	101300000	1000	0	0	-1	700
20416955	5815	1676	0	-100	0	230	101300000	1000	0	0	-1	700
20429515	5835	1663	0	-100	0	230	101300000	1000	0	0	-1	700
20442075	5819	1675	0	-100	0	230	101300000	1000	0	0	-1	700
20454635	5829	1669	0	-100	0	230	101300000	1000	0	0	-1	700
20467195	5829	1672	0	-100	0	230	101300000	1000	0	0	-1	700
20479755	5827	1664	0	-100	0	230	101300000	1000	0	0	-1	700
20492315	5820	1671	0	-100	0	230	101300000	1000	0	0	-1	700
20504875	5819	1668	0	-100	0	230	101300000	1000	0	0	-1	700
20517435	5822	1665	0	-100	0	230	101300000	1000	0	0	-1	700
20529995	5820	1666	0	-100	0	230	101300000	1000	0	0	-1	700
20542555	5812	1674	0	-100	0	230	101300000	1000	0	0	-1	700
20555115	5830	1673	0	-100	0	230	101300000	1000	0	0	-1	700
20567675	5822	1669	0	-100	0	230	101300000	1000	0	0	-1	700
20580235	5829	1668	0	-100	0	230	101300000	1000	0	0	-1	700
20592795	5823	1660	0	-100	0	230	101300000	1000	0	0	-1	700
20605355	5833	1662	0	-100	0	230	101300000	1000	0	0	-1	700
20617915	5826	1667	0	-100	0	230	101300000	1000	0	0	-1	700
20630475	5806	1673	0	-100	0	230	101300000	1000	0	0	-1	700
20643035	5831	1676	0	-100	0	230	101300000	1000	0	0	-1	700
20655595	5822	1674	0	-100	0	230	101300000	1000	0	0	-1	700
20668155	5819	1674	0	-100	0	230	101300000	1000	0	0	-1	700
20680715	5829	1667	0	-100	0	230	101300000	1000	0	0	-1	700
20693275	5818	1672	0	-100	0	230	101300000	1000	0	0	-1	700
20705835	5832	1666	0	-100	0	230	101300000	1000	0	0	-1	700
20718395	5828	1678	0	-100	0	230	101300000	1000	0	0	-1	700
20730955	5839	1670	0	-100	0	230	101300000	1000	0	0	-1	700
20743515	5812	1669	0	-100	0	230	101300000	1000	0	0	-1	700
20756075	5827	1674	0	-100	0	230	101300000	1000	0	0	-1	700
20768635	5829	1665	0	-100	0	230	101300000	1000	0	0	-1	700
20781195	5831	1649	0	-100	0	230	101300000	1000	0	0	-1	700
20793755	5824	1666	0	-100	0	230	101300000	1000	0	0	-1	700
20806315	5822	1673	0	-100	0	230	101300000	1000	0	0	-1	700
20818875	5819	1680	0	-100	0	230	101300000	1000	0	0	-1	700
20831435	5815	1661	0	-100	0	230	101300000	1000	0	0	-1	700
20843995	5824	1665	0	-100	0	230	101300000	1000	0	0	-1	700
20856555	5817	1666	0	-100	0	230	101300000	1000	0	0	-1	700
20869115	5830	1666	0	-100	0	230	101300000	1000	0	0	-1	700
20881675	5831	1661	0	-100	0	230	101300000	1000	0	0	-1	700
20894235	5828	1656	0	-100	0	230	101300000	1000	0	0	-1	700
20906795	5818	1663	0	-100	0	230	101300000	1000	0	0	-1	700
20919355	5833	1668	0	-100	0	230	101300000	1000	0	0	-1	700
20931915	5822	1664	0	-100	0	230	101300000	1000	0	0	-1	700
20944475	5819	1661	0	-100	0	230	101300000	1000	0	0	-1	700
20957035	5819	1677	0	-100	0	230	101300000	1000	0	0	-1	700
20969595	5816	1665	0	-100	0	230	101300000	1000	0	0	-1	700
20982155	5827	1662	0	-100	0	230	101300000	1000	0	0	-1	700
20994715	5818	1668	0	-100	0	230	101300000	1000	0	0	-1	700
21007275	5827	1670	0	-100	0	230	101300000	1000	0	0	-1	700
21019835	5811	1667	0	-100	0	230	101300000	1000	0	0	-1	700
21032395	5822	1671	0	-100	0	230	101300000	1000	0	0	-1	700
21044955	5817	1670	0	-100	0	230	101300000	1000	0	0	-1	700
21057515	5822	1685	0	-100	0	230	101300000	1000	0	0	-1	700
21070075	5814	1670	0	-100	0	230	101300000	1000	0	0	-1	700
21082635	5822	1669	0	-100	0	230	101300000	1000	0	0	-1	700
21095195	5822	1672	0	-100	0	230	101300000	1000	0	0	-1	700
21107755	5821	1671	0	-100	0	230	101300000	1000	0	0	-1	700
21120315	5812	1670	0	-100	0	230	101300000	1000	0	0	-1	700
21132875	5832	1678	0	-100	0	230	101300000	1000	0	0	-1	700
21145435	5818	1661	0	-100	0	230	101300000	1000	0	0	-1	700
21157995	5827	1671	0	-100	0	230	101300000	1000	0	0	-1	700
21170555	5811	1674	0	-100	0	230	101300000	1000	0	0	-1	700
21183115	5811	1666	0	-100	0	230	101300000	1000	0	0	-1	700
21195675	5835	1659	0	-100	0	230	101300000	1000	0	0	-1	700
21208235	5826	1657	0	-100	0	230	101300000	1000	0	0	-1	700
21220795	5826	1664	0	-100	0	230	101300000	1000	0	0	-1	700
21233355	5817	1657	0	-100	0	230	101300000	1000	0	0	-1	700
21245915	5823	1666	0	-100	0	230	101300000	1000	0	0	-1	700
21258475	5823	1681	0	-100	0	230	101300000	1000	0	0	-1	700
21271035	5825	1676	0	-100	0	230	101300000	1000	0	0	-1	700
21283595	5839	1666	0	-100	0	230	101300000	1000	0	0	-1	700
21296155	5822	1660	0	-100	0	230	101300000	1000	0	0	-1	700
21308715	5827	1669	0	-100	0	230	101300000	1000	0	0	-1	700
21321275	5828	1661	0	-100	0	230	101300000	1000	0	0	-1	700
21333835	5816	1663	0	-100	0	230	101300000	1000	0	0	-1	700
21346395	5817	1676	0	-100	0	230	101300000	1000	0	0	-1	700
21358955	5821	1681	0	-100	0	230	101300000	1000	0	0	-1	700
21371515	5821	1671	0	-100	0	230	101300000	1000	0	0	-1	700
21384075	5824	1662	0	-100	0	230	101300000	1000	0	0	-1	700
21396635	5830	1667	0	-100	0	230	101300000	1000	0	0	-1	700
21409195	5825	1670	0	-100	0	230	101300000	1000	0	0	-1	700
21421755	5822	1670	0	-100	0	230	101300000	1000	0	0	-1	700
21434315	5825	1661	0	-100	0	230	101300000	1000	0	0	-1	700
21446875	5817	1659	0	-100	0	230	101300000	1000	0	0	-1	700
21459435	5827	1663	0	-100	0	230	101300000	1000	0	0	-1	700
21471995	5819	1661	0	-100	0	230	101300000	1000	0	0	-1	700
21484555	5834	1664	0	-100	0	230	101300000	1000	0	0	-1	700
21497115	5835	1664	0	-100	0	230	101300000	1000	0	0	-1	700
21509675	5819	1675	0	-100	0	230	101300000	1000	0	0	-1	700
21522235	5822	1662	0	-100	0	230	101300000	1000	0	0	-1	700
21534795	5825	1671	0	-100	0	230	101300000	1000	0	0	-1	700
21547355	5812	1672	0	-100	0	230	101300000	1000	0	0	-1	700
21559915	5823	1665	0	-100	0	230	101300000	1000	0	0	-1	700
21572475	5821	1671	0	-100	0	230	101300000	1000	0	0	-1	700
21585035	5827	1668	0	-100	0	230	101300000	1000	0	0	-1	700
21597595	5832	1666	0	-100	0	230	101300000	1000	0	0	-1	700
21610155	5812	1661	0	-100	0	230	101300000	1000	0	0	-1	700
21622715	5825	1670	0	-100	0	230	101300000	1000	0	0	-1	700
21635275	5818	1664	0	-100	0	230	101300000	1000	0	0	-1	700
21647835	5811	1665	0	-100	0	230	101300000	1000	0	0	-1	700
21660395	5826	1665	0	-100	0	230	101300000	1000	0	0	-1	700
21672955	5819	1671	0	-100	0	230	101300000	1000	0	0	-1	700
21685515	5810	1666	0	-100	0	230	101300000	1000	0	0	-1	700
21698075	5819	1661	0	-100	0	230	101300000	1000	0	0	-1	700
21710635	5819	1672	0	-100	0	230	101300000	1000	0	0	-1	700
21723195	5818	1676	0	-100	0	230	101300000	1000	0	0	-1	700
21735755	5825	1672	0	-100	0	230	101300000	1000	0	0	-1	700
21748315	5825	1675	0	-100	0	230	101300000	1000	0	0	-1	700
21760875	5820	1666	0	-100	0	230	101300000	1000	0	0	-1	700
21773435	5823	1662	0	-100	0	230	101300000	1000	0	0	-1	700
21785995	5831	1674	0	-100	0	230	101300000	1000	0	0	-1	700
21798555	5821	1672	0	-100	0	230	101300000	1000	0	0	-1	700
21811115	5823	1664	0	-100	0	230	101300000	1000	0	0	-1	700
21823675	5816	1661	0	-100	0	230	101300000	1000	0	0	-1	700
21836235	5831	1662	0	-100	0	230	101300000	1000	0	0	-1	700
21848795	5821	1668	0	-100	0	230	101300000	1000	0	0	-1	700
21861355	5825	1671	0	-100	0	230	101300000	1000	0	0	-1	700
21873915	5822	1664	0	-100	0	230	101300000	1000	0	0	-1	700
21886475	5821	1676	0	-100	0	230	101300000	1000	0	0	-1	700
21899035	5823	1656	0	-100	0	230	101300000	1000	0	0	-1	700
21911595	5824	1666	0	-100	0	230	101300000	1000	0	0	-1	700
21924155	5825	1663	0	-100	0	230	101300000	1000	0	0	-1	700
21936715	5824	1666	0	-100	0	230	101300000	1000	0	0	-1	700
21949275	5828	1676	0	-100	0	230	101300000	1000	0	0	-1	700
21961835	5816	1668	0	-100	0	230	101300000	1000	0	0	-1	700
21974395	5828	1666	0	-100	0	230	101300000	1000	0	0	-1	700
21986955	5834	1666	0	-100	0	230	101300000	1000	0	0	-1	700
21999515	5830	1667	0	-100	0	230	101300000	1000	0	0	-1	700
22012075	5826	1655	0	-100	0	230	101300000	1000	0	0	-1	700
22024635	5823	1666	0	-100	0	230	101300000	1000	0	0	-1	700
22037195	5814	1669	0	-100	0	230	101300000	1000	0	0	-1	700
22049755	5835	1660	0	-100	0	230	101300000	1000	0	0	-1	700
22062315	5818	1676	0	-100	0	230	101300000	1000	0	0	-1	700
22074875	5826	1657	0	-100	0	230	101300000	1000	0	0	-1	700
22087435	5827	1675	0	-100	0	230	101300000	1000	0	0	-1	700
22099995	5816	1659	0	-100	0	230	101300000	1000	0	0	-1	700
22112555	5823	1671	0	-100	0	230	101300000	1000	0	0	-1	700
22125115	5827	1664	0	-100	0	230	101300000	1000	0	0	-1	700
22137675	5831	1667	0	-100	0	230	101300000	1000	0	0	-1	700
22150235	5814	1672	0	-100	0	230	101300000	1000	0	0	-1	700
22162795	5829	1670	0	-100	0	230	101300000	1000	0	0	-1	700
22175355	5814	1668	0	-100	0	230	101300000	1000	0	0	-1	700
22187915	5832	1672	0	-100	0	230	101300000	1000	0	0	-1	700
22200475	5827	1669	0	-100	0	230	101300000	1000	0	0	-1	700
22213035	5821	1671	0	-100	0	230	101300000	1000	0	0	-1	700
22225595	5832	1666	0	-100	0	230	101300000	1000	0	0	-1	700
22238155	5822	1668	0	-100	0	230	101300000	1000	0	0	-1	700
22250715	5822	1659	0	-100	0	230	101300000	1000	0	0	-1	700
22263275	5814	1671	0	-100	0	230	101300000	1000	0	0	-1	700
22275835	5816	1669	0	-100	0	230	101300000	1000	0	0	-1	700
22288395	5839	1670	0	-100	0	230	101300000	1000	0	0	-1	700
22300955	5818	1672	0	-100	0	230	101300000	1000	0	0	-1	700
22313515	5818	1672	0	-100	0	230	101300000	1000	0	0	-1	700
22326075	5821	1675	0	-100	0	230	101300000	1000	0	0	-1	700
22338635	5827	1665	0	-100	0	230	101300000	1000	0	0	-1	700
22351195	5827	1656	0	-100	0	230	101300000	1000	0	0	-1	700
22363755	5820	1662	0	-100	0	230	101300000	1000	0	0	-1	700
22376315	5819	1673	0	-100	0	230	101300000	1000	0	0	-1	700
22426555	5818	1672	0	-100	0	230	101300000	1000	0	0	-1	700
22439115	5814	1668	0	-100	0	230	101300000	1000	0	0	-1	700
22451675	5823	1664	0	-100	0	230	101300000	1000	0	0	-1	700
22464235	5819	1674	0	-100	0	230	101300000	1000	0	0	-1	700
22476795	5821	1670	0	-100	0	230	101300000	1000	0	0	-1	700
22489355	5822	1668	0	-100	0	230	101300000	1000	0	0	-1	700
22501915	5821	1671	0	-100	0	230	101300000	1000	0	0	-1	700
22514475	5828	1666	0	-100	0	230	101300000	1000	0	0	-1	700
22527035	5829	1663	0	-100	0	230	101300000	1000	0	0	-1	700
22539595	5828	1671	0	-100	0	230	101300000	1000	0	0	-1	700
22552155	5820	1674	0	-100	0	230	101300000	1000	0	0	-1	700
22564715	5826	1676	0	-100	0	230	101300000	1000	0	0	-1	700
22640075	5823	1674	0	-100	0	230	101300000	1000	0	0	-1	700
22652635	5818	1658	0	-100	0	230	101300000	1000	0	0	-1	700
22665195	5824	1668	0	-100	0	230	101300000	1000	0	0	-1	700
22677755	5822	1670	0	-100	0	230	101300000	1000	0	0	-1	700
22690315	5816	1670	0	-100	0	230	101300000	1000	0	0	-1	700
22702875	5829	1651	0	-100	0	230	101300000	1000	0	0	-1	700
22715435	5824	1662	0	-100	0	230	101300000	1000	0	0	-1	700
22727995	5819	1666	0	-100	0	230	101300000	1000	0	0	-1	700
22740555	5822	1662	0	-100	0	230	101300000	1000	0	0	-1	700
22753115	5823	1655	0	-100	0	230	101300000	1000	0	0	-1	700
22765675	5827	1670	0	-100	0	230	101300000	1000	0	0	-1	700
22778235	5812	1674	0	-100	0	230	101300000	1000	0	0	-1	700
22803355	5827	1657	0	-100	0	230	101300000	1000	0	0	-1	700
22815915	5835	1663	0	-100	0	230	101300000	1000	0	0	-1	700
22828475	5819	1669	0	-100	0	230	101300000	1000	0	0	-1	700
22841035	5819	1658	0	-100	0	230	101300000	1000	0	0	-1	700
22853595	5831	1663	0	-100	0	230	101300000	1000	0	0	-1	700
22866155	5822	1670	0	-100	0	230	101300000	1000	0	0	-1	700
22878715	5812	1660	0	-100	0	230	101300000	1000	0	0	-1	700
22891275	5835	1667	0	-100	0	230	101300000	1000	0	0	-1	700
22903835	5820	1670	0	-100	0	230	101300000	1000	0	0	-1	700
22916395	5818	1664	0	-100	0	230	101300000	1000	0	0	-1	700
22928955	5827	1658	0	-100	0	230	101300000	1000	0	0	-1	700
22941515	5813	1672	0	-100	0	230	101300000	1000	0	0	-1	700
22954075	5816	1659	0	-100	0	230	101300000	1000	0	0	-1	700
22966635	5824	1659	0	-100	0	230	101300000	1000	0	0	-1	700
22979195	5823	1666	0	-100	0	230	101300000	1000	0	0	-1	700
22991755	5822	1669	0	-100	0	230	101300000	1000	0	0	-1	700
23004315	5827	1669	0	-100	0	230	101300000	1000	0	0	-1	700
23016875	5833	1662	0	-100	0	230	101300000	1000	0	0	-1	700
23029435	5802	1673	0	-100	0	230	101300000	1000	0	0	-1	700
23041995	5828	1675	0	-100	0	230	101300000	1000	0	0	-1	700
23054555	5823	1664	0	-100	0	230	101300000	1000	0	0	-1	700
23067115	5815	1670	0	-100	0	230	101300000	1000	0	0	-1	700
23079675	5824	1669	0	-100	0	230	101300000	1000	0	0	-1	700
23092235	5823	1673	0	-100	0	230	101300000	1000	0	0	-1	700
23104795	5827	1673	0	-100	0	230	101300000	1000	0	0	-1	700
23117355	5828	1665	0	-100	0	230	101300000	1000	0	0	-1	700
23129915	5826	1668	0	-100	0	230	101300000	1000	0	0	-1	700
23142475	5824	1662	0	-100	0	230	101300000	1000	0	0	-1	700
23155035	5825	1680	0	-100	0	230	101300000	1000	0	0	-1	700
23167595	5820	1656	0	-100	0	230	101300000	1000	0	0	-1	700
23180155	5829	1668	0	-100	0	230	101300000	1000	0	0	-1	700
23192715	5812	1679	0	-100	0	230	101300000	1000	0	0	-1	700
23205275	5823	1672	0	-100	0	230	101300000	1000	0	0	-1	700
23217835	5824	1672	0	-100	0	230	101300000	1000	0	0	-1	700
23230395	5817	1670	0	-100	0	230	101300000	1000	0	0	-1	700
23242955	5820	1668	0	-100	0	230	101300000	1000	0	0	-1	700
23255515	5830	1675	0	-100	0	230	101300000	1000	0	0	-1	700
23268075	5824	1662	0	-100	0	230	101300000	1000	0	0	-1	700
23280635	5831	1664	0	-100	0	230	101300000	1000	0	0	-1	700
23293195	5820	1660	0	-100	0	230	101300000	1000	0	0	-1	700
23305755	5824	1660	0	-100	0	230	101300000	1000	0	0	-1	700
23318315	5827	1668	0	-100	0	230	101300000	1000	0	0	-1	700
23330875	5823	1664	0	-100	0	230	101300000	1000	0	0	-1	700
23343435	5813	1658	0	-100	0	230	101300000	1000	0	0	-1	700
23355995	5818	1676	0	-100	0	230	101300000	1000	0	0	-1	700
23368555	5822	1671	0	-100	0	230	101300000	1000	0	0	-1	700
23381115	5829	1673	0	-100	0	230	101300000	1000	0	0	-1	700
23393675	5828	1664	0	-100	0	230	101300000	1000	0	0	-1	700
23406235	5830	1662	0	-100	0	230	101300000	1000	0	0	-1	700
23418795	5818	1657	0	-100	0	230	101300000	1000	0	0	-1	700
23431355	5809	1653	0	-100	0	230	101300000	1000	0	0	-1	700
23443915	5816	1673	0	-100	0	230	101300000	1000	0	0	-1	700
23456475	5833	1660	0	-100	0	230	101300000	1000	0	0	-1	700
23469035	5825	1670	0	-100	0	230	101300000	1000	0	0	-1	700
23481595	5830	1662	0	-100	0	230	101300000	1000	0	0	-1	700
23494155	5826	1668	0	-100	0	230	101300000	1000	0	0	-1	700
23506715	5825	1669	0	-100	0	230	101300000	1000	0	0	-1	700
23519275	5826	1664	0	-100	0	230	101300000	1000	0	0	-1	700
23531835	5832	1670	0	-100	0	230	101300000	1000	0	0	-1	700
23544395	5821	1658	0	-100	0	230	101300000	1000	0	0	-1	700
23556955	5818	1669	0	-100	0	230	101300000	1000	0	0	-1	700
23569515	5829	1674	0	-100	0	230	101300000	1000	0	0	-1	700
23582075	5821	1670	0	-100	0	230	101300000	1000	0	0	-1	700
23594635	5827	1668	0	-100	0	230	101300000	1000	0	0	-1	700
23607195	5823	1672	0	-100	0	230	101300000	1000	0	0	-1	700
23619755	5818	1671	0	-100	0	230	101300000	1000	0	0	-1	700
23632315	5827	1669	0	-100	0	230	101300000	1000	0	0	-1	700
23644875	5812	1663	0	-100	0	230	101300000	1000	0	0	-1	700
23657435	5818	1660	0	-100	0	230	101300000	1000	0	0	-1	700
23669995	5829	1665	0	-100	0	230	101300000	1000	0	0	-1	700
23682555	5830	1674	0	-100	0	230	101300000	1000	0	0	-1	700
23695115	5827	1665	0	-100	0	230	101300000	1000	0	0	-1	700
23707675	5822	1666	0	-100	0	230	101300000	1000	0	0	-1	700
23720235	5822	1670	0	-100	0	230	101300000	1000	0	0	-1	700
23732795	5822	1672	0	-100	0	230	101300000	1000	0	0	-1	700
23745355	5820	1663	0	-100	0	230	101300000	1000	0	0	-1	700
23757915	5835	1662	0	-100	0	230	101300000	1000	0	0	-1	700
23770475	5819	1662	0	-100	0	230	101300000	1000	0	0	-1	700
23783035	5831	1670	0	-100	0	230	101300000	1000	0	0	-1	700
23795595	5818	1676	0	-100	0	230	101300000	1000	0	0	-1	700
23808155	5817	1675	0	-100	0	230	101300000	1000	0	0	-1	700
23820715	5822	1677	0	-100	0	230	101300000	1000	0	0	-1	700
23833275	5817	1678	0	-100	0	230	101300000	1000	0	0	-1	700
23845835	5824	1673	0	-100	0	230	101300000	1000	0	0	-1	700
23858395	5832	1678	0	-100	0	230	101300000	1000	0	0	-1	700
23870955	5827	1662	0	-100	0	230	101300000	1000	0	0	-1	700
23883515	5812	1659	0	-100	0	230	101300000	1000	0	0	-1	700
23896075	5824	1660	0	-100	0	230	101300000	1000	0	0	-1	700
23908635	5834	1657	0	-100	0	230	101300000	1000	0	0	-1	700
23921195	5839	1668	0	-100	0	230	101300000	1000	0	0	-1	700
23933755	5824	1680	0	-100	0	230	101300000	1000	0	0	-1	700
23946315	5821	1667	0	-100	0	230	101300000	1000	0	0	-1	700
23958875	5814	1660	0	-100	0	230	101300000	1000	0	0	-1	700
23971435	5823	1674	0	-100	0	230	101300000	1000	0	0	-1	700
23983995	5834	1679	0	-100	0	230	101300000	1000	0	0	-1	700
23996555	5822	1675	0	-100	0	230	101300000	1000	0	0	-1	700
24009115	5830	1665	0	-100	0	230	101300000	1000	0	0	-1	700
24021675	5820	1675	0	-100	0	230	101300000	1000	0	0	-1	700
24034235	5828	1667	0	-100	0	230	101300000	1000	0	0	-1	700
24046795	5825	1668	0	-100	0	230	101300000	1000	0	0	-1	700
24059355	5823	1668	0	-100	0	230	101300000	1000	0	0	-1	700
24071915	5828	1672	0	-100	0	230	101300000	1000	0	0	-1	700
24084475	5821	1675	0	-100	0	230	101300000	1000	0	0	-1	700
24097035	5831	1674	0	-100	0	230	101300000	1000	0	0	-1	700
24109595	5816	1681	0	-100	0	230	101300000	1000	0	0	-1	700
24122155	5819	1677	0	-100	0	230	101300000	1000	0	0	-1	700
24134715	5822	1660	0	-100	0	230	101300000	1000	0	0	-1	700
24147275	5834	1662	0	-100	0	230	101300000	1000	0	0	-1	700
24159835	5819	1666	0	-100	0	230	101300000	1000	0	0	-1	700
24172395	5825	1674	0	-100	0	230	101300000	1000	0	0	-1	700
24184955	5822	1669	0	-100	0	230	101300000	1000	0	0	-1	700
24197515	5823	1670	0	-100	0	230	101300000	1000	0	0	-1	700
24210075	5833	1662	0	-100	0	230	101300000	1000	0	0	-1	700
24222635	5821	1656	0	-100	0	230	101300000	1000	0	0	-1	700
24235195	5822	1666	0	-100	0	230	101300000	1000	0	0	-1	700
24247755	5830	1668	0	-100	0	230	101300000	1000	0	0	-1	700
24260315	5828	1662	0	-100	0	230	101300000	1000	0	0	-1	700
24272875	5827	1657	0	-100	0	230	101300000	1000	0	0	-1	700
24285435	5828	1672	0	-100	0	230	101300000	1000	0	0	-1	700
24297995	5824	1665	0	-100	0	230	101300000	1000	0	0	-1	700
24310555	5826	1657	0	-100	0	230	101300000	1000	0	0	-1	700
24323115	5835	1670	0	-100	0	230	101300000	1000	0	0	-1	700
24335675	5827	1671	0	-100	0	230	101300000	1000	0	0	-1	700
24348235	5815	1664	0	-100	0	230	101300000	1000	0	0	-1	700
24360795	5825	1666	0	-100	0	230	101300000	1000	0	0	-1	700
24373355	5822	1670	0	-100	0	230	101300000	1000	0	0	-1	700
24385915	5838	1667	0	-100	0	230	101300000	1000	0	0	-1	700
24398475	5824	1669	0	-100	0	230	101300000	1000	0	0	-1	700
24411035	5825	1669	0	-100	0	230	101300000	1000	0	0	-1	700
24423595	5822	1672	0	-100	0	230	101300000	1000	0	0	-1	700
24436155	5819	1661	0	-100	0	230	101300000	1000	0	0	-1	700
24448715	5826	1664	0	-100	0	230	101300000	1000	0	0	-1	700
24461275	5828	1662	0	-100	0	230	101300000	1000	0	0	-1	700
24473835	5820	1657	0	-100	0	230	101300000	1000	0	0	-1	700
24486395	5825	1667	0	-100	0	230	101300000	1000	0	0	-1	700
24498955	5840	1667	0	-100	0	230	101300000	1000	0	0	-1	700
24511515	5821	1672	0	-100	0	230	101300000	1000	0	0	-1	700
24524075	5827	1674	0	-100	0	230	101300000	1000	0	0	-1	700
24536635	5835	1669	0	-100	0	230	101300000	1000	0	0	-1	700
24549195	5832	1672	0	-100	0	230	101300000	1000	0	0	-1	700
24561755	5822	1670	0	-100	0	230	101300000	1000	0	0	-1	700
24574315	5818	1664	0	-100	0	230	101300000	1000	0	0	-1	700
24586875	5833	1667	0	-100	0	230	101300000	1000	0	0	-1	700
24599435	5822	1684	0	-100	0	230	101300000	1000	0	0	-1	700
24611995	5815	1665	0	-100	0	230	101300000	1000	0	0	-1	700
24624555	5819	1671	0	-100	0	230	101300000	1000	0	0	-1	700
24637115	5823	1672	0	-100	0	230	101300000	1000	0	0	-1	700
24649675	5815	1670	0	-100	0	230	101300000	1000	0	0	-1	700
24662235	5828	1662	0	-100	0	230	101300000	1000	0	0	-1	700
24674795	5823	1675	0	-100	0	230	101300000	1000	0	0	-1	700
24687355	5814	1669	0	-100	0	230	101300000	1000	0	0	-1	700
24699915	5825	1665	0	-100	0	230	101300000	1000	0	0	-1	700
24712475	5819	1655	0	-100	0	230	101300000	1000	0	0	-1	700
24725035	5822	1665	0	-100	0	230	101300000	1000	0	0	-1	700
24737595	5818	1665	0	-100	0	230	101300000	1000	0	0	-1	700
24750155	5822	1662	0	-100	0	230	101300000	1000	0	0	-1	700
24762715	5830	1666	0	-100	0	230	101300000	1000	0	0	-1	700
24775275	5821	1665	0	-100	0	230	101300000	1000	0	0	-1	700
24787835	5816	1676	0	-100	0	230	101300000	1000	0	0	-1	700
24800395	5829	1679	0	-100	0	230	101300000	1000	0	0	-1	700
24812955	5827	1675	0	-100	0	230	101300000	1000	0	0	-1	700
24825515	5830	1649	0	-100	0	230	101300000	1000	0	0	-1	700
24838075	5826	1659	0	-100	0	230	101300000	1000	0	0	-1	700
24850635	5822	1661	0	-100	0	230	101300000	1000	0	0	-1	700
24863195	5809	1672	0	-100	0	230	101300000	1000	0	0	-1	700
24875755	5832	1668	0	-100	0	230	101300000	1000	0	0	-1	700
24888315	5818	1677	0	-100	0	230	101300000	1000	0	0	-1	700
24900875	5815	1673	0	-100	0	230	101300000	1000	0	0	-1	700
24913435	5824	1671	0	-100	0	230	101300000	1000	0	0	-1	700
24925995	5827	1670	0	-100	0	230	101300000	1000	0	0	-1	700
24938555	5823	1667	0	-100	0	230	101300000	1000	0	0	-1	700
24951115	5826	1666	0	-100	0	230	101300000	1000	0	0	-1	700
24963675	5831	1662	0	-100	0	230	101300000	1000	0	0	-1	700
24976235	5825	1670	0	-100	0	230	101300000	1000	0	0	-1	700
24988795	5815	1661	0	-100	0	230	101300000	1000	0	0	-1	700
25001355	5827	1663	0	-100	0	230	101300000	1000	0	0	-1	700
25013915	5827	1670	0	-100	0	230	101300000	1000	0	0	-1	700
25026475	5814	1674	0	-100	0	230	101300000	1000	0	0	-1	700
25039035	5823	1674	0	-100	0	230	101300000	1000	0	0	-1	700
25051595	5823	1676	0	-100	0	230	101300000	1000	0	0	-1	700
25064155	5823	1679	0	-100	0	230	101300000	1000	0	0	-1	700
25076715	5826	1661	0	-100	0	230	101300000	1000	0	0	-1	700
25089275	5824	1672	0	-100	0	230	101300000	1000	0	0	-1	700
25101835	5816	1660	0	-100	0	230	101300000	1000	0	0	-1	700
25114395	5822	1663	0	-100	0	230	101300000	1000	0	0	-1	700
25126955	5814	1668	0	-100	0	230	101300000	1000	0	0	-1	700
25139515	5826	1662	0	-100	0	230	101300000	1000	0	0	-1	700
25152075	5827	1664	0	-100	0	230	101300000	1000	0	0	-1	700
25164635	5814	1677	0	-100	0	230	101300000	1000	0	0	-1	700
25177195	5840	1664	0	-100	0	230	101300000	1000	0	0	-1	700
25189755	5821	1663	0	-100	0	230	101300000	1000	0	0	-1	700
25202315	5814	1680	0	-100	0	230	101300000	1000	0	0	-1	700
25214875	5829	1683	0	-100	0	230	101300000	1000	0	0	-1	700
25227435	5825	1665	0	-100	0	230	101300000	1000	0	0	-1	700
25239995	5829	1678	0	-100	0	230	101300000	1000	0	0	-1	700
25252555	5831	1662	0	-100	0	230	101300000	1000	0	0	-1	700
25265115	5828	1672	0	-100	0	230	101300000	1000	0	0	-1	700
25277675	5817	1671	0	-100	0	230	101300000	1000	0	0	-1	700
25290235	5830	1670	0	-100	0	230	101300000	1000	0	0	-1	700
25302795	5821	1666	0	-100	0	230	101300000	1000	0	0	-1	700
25315355	5818	1669	0	-100	0	230	101300000	1000	0	0	-1	700
25327915	5831	1665	0	-100	0	230	101300000	1000	0	0	-1	700
25340475	5824	1663	0	-100	0	230	101300000	1000	0	0	-1	700
25353035	5828	1667	0	-100	0	230	101300000	1000	0	0	-1	700
25365595	5809	1674	0	-100	0	230	101300000	1000	0	0	-1	700
25378155	5822	1666	0	-100	0	230	101300000	1000	0	0	-1	700
25390715	5821	1668	0	-100	0	230	101300000	1000	0	0	-1	700
25403275	5822	1671	0	-100	0	230	101300000	1000	0	0	-1	700
25415835	5822	1666	0	-100	0	230	101300000	1000	0	0	-1	700
25428395	5804	1666	0	-100	0	230	101300000	1000	0	0	-1	700
25440955	5819	1657	0	-100	0	230	101300000	1000	0	0	-1	700
25453515	5822	1657	0	-100	0	230	101300000	1000	0	0	-1	700
25466075	5831	1666	0	-100	0	230	101300000	1000	0	0	-1	700
25478635	5819	1657	0	-100	0	230	101300000	1000	0	0	-1	700
25553995	5825	1679	0	-100	0	230	101300000	1000	0	0	-1	700
25566555	5833	1666	0	-100	0	230	101300000	1000	0	0	-1	700
25579115	5826	1664	0	-100	0	230	101300000	1000	0	0	-1	700
25591675	5819	1666	0	-100	0	230	101300000	1000	0	0	-1	700
25604235	5826	1658	0	-100	0	230	101300000	1000	0	0	-1	700
25616795	5825	1662	0	-100	0	230	101300000	1000	0	0	-1	700
25629355	5818	1662	0	-100	0	230	101300000	1000	0	0	-1	700
25641915	5818	1665	0	-100	0	230	101300000	1000	0	0	-1	700
25654475	5819	1682	0	-100	0	230	101300000	1000	0	0	-1	700
25667035	5819	1678	0	-100	0	230	101300000	1000	0	0	-1	700
25679595	5828	1681	0	-100	0	230	101300000	1000	0	0	-1	700
25692155	5817	1687	0	-100	0	230	101300000	1000	0	0	-1	700
25742395	5830	1668	0	-100	0	230	101300000	1000	0	0	-1	700
25754955	5810	1662	0	-100	0	230	101300000	1000	0	0	-1	700
25767515	5827	1674	0	-100	0	230	101300000	1000	0	0	-1	700
25780075	5818	1664	0	-100	0	230	101300000	1000	0	0	-1	700
25792635	5822	1666	0	-100	0	230	101300000	1000	0	0	-1	700
25805195	5826	1660	0	-100	0	230	101300000	1000	0	0	-1	700
25817755	5834	1664	0	-100	0	230	101300000	1000	0	0	-1	700
25830315	5814	1668	0	-100	0	230	101300000	1000	0	0	-1	700
25842875	5823	1664	0	-100	0	230	101300000	1000	0	0	-1	700
25855435	5825	1667	0	-100	0	230	101300000	1000	0	0	-1	700
25867995	5822	1668	0	-100	0	230	101300000	1000	0	0	-1	700
25880555	5821	1669	0	-100	0	230	101300000	1000	0	0	-1	700
25893115	5820	1675	0	-100	0	230	101300000	1000	0	0	-1	700
25905675	5818	1664	0	-100	0	230	101300000	1000	0	0	-1	700
25918235	5814	1666	0	-100	0	230	101300000	1000	0	0	-1	700
25930795	5813	1666	0	-100	0	230	101300000	1000	0	0	-1	700
25943355	5827	1668	0	-100	0	230	101300000	1000	0	0	-1	700
25955915	5816	1675	0	-100	0	230	101300000	1000	0	0	-1	700
25968475	5835	1663	0	-100	0	230	101300000	1000	0	0	-1	700
25981035	5822	1660	0	-100	0	230	101300000	1000	0	0	-1	700
25993595	5831	1667	0	-100	0	230	101300000	1000	0	0	-1	700
26006155	5825	1661	0	-100	0	230	101300000	1000	0	0	-1	700
26018715	5818	1672	0	-100	0	230	101300000	1000	0	0	-1	700
26031275	5826	1668	0	-100	0	230	101300000	1000	0	0	-1	700
26043835	5826	1660	0	-100	0	230	101300000	1000	0	0	-1	700
26056395	5828	1667	0	-100	0	230	101300000	1000	0	0	-1	700
26068955	5814	1662	0	-100	0	230	101300000	1000	0	0	-1	700
26081515	5826	1660	0	-100	0	230	101300000	1000	0	0	-1	700
26094075	5831	1665	0	-100	0	230	101300000	1000	0	0	-1	700
26106635	5826	1672	0	-100	0	230	101300000	1000	0	0	-1	700
26119195	5831	1672	0	-100	0	230	101300000	1000	0	0	-1	700
26131755	5819	1672	0	-100	0	230	101300000	1000	0	0	-1	700
26144315	5815	1670	0	-100	0	230	101300000	1000	0	0	-1	700
26156875	5828	1665	0	-100	0	230	101300000	1000	0	0	-1	700
26169435	5827	1667	0	-100	0	230	101300000	1000	0	0	-1	700
26181995	5818	1665	0	-100	0	230	101300000	1000	0	0	-1	700
26194555	5814	1671	0	-100	0	230	101300000	1000	0	0	-1	700
26207115	5819	1673	0	-100	0	230	101300000	1000	0	0	-1	700
26219675	5818	1666	0	-100	0	230	101300000	1000	0	0	-1	700
26232235	5836	1671	0	-100	0	230	101300000	1000	0	0	-1	700
26244795	5821	1676	0	-100	0	230	101300000	1000	0	0	-1	700
26257355	5820	1672	0	-100	0	230	101300000	1000	0	0	-1	700
26269915	5827	1665	0	-100	0	230	101300000	1000	0	0	-1	700
26282475	5826	1671	0	-100	0	230	101300000	1000	0	0	-1	700
26295035	5831	1669	0	-100	0	230	101300000	1000	0	0	-1	700
26307595	5831	1655	0	-100	0	230	101300000	1000	0	0	-1	700
26320155	5835	1663	0	-100	0	230	101300000	1000	0	0	-1	700
26332715	5823	1675	0	-100	0	230	101300000	1000	0	0	-1	700
26345275	5818	1669	0	-100	0	230	101300000	1000	0	0	-1	700
26357835	5836	1666	0	-100	0	230	101300000	1000	0	0	-1	700
26370395	5820	1667	0	-100	0	230	101300000	1000	0	0	-1	700
26382955	5825	1664	0	-100	0	230	101300000	1000	0	0	-1	700
26395515	5830	1659	0	-100	0	230	101300000	1000	0	0	-1	700
26408075	5821	1665	0	-100	0	230	101300000	1000	0	0	-1	700
26420635	5822	1674	0	-100	0	230	101300000	1000	0	0	-1	700
26433195	5816	1664	0	-100	0	230	101300000	1000	0	0	-1	700
26445755	5815	1674	0	-100	0	230	101300000	1000	0	0	-1	700
26458315	5827	1662	0	-100	0	230	101300000	1000	0	0	-1	700
26470875	5830	1660	0	-100	0	230	101300000	1000	0	0	-1	700
26483435	5822	1666	0	-100	0	230	101300000	1000	0	0	-1	700
26495995	5816	1676	0	-100	0	230	101300000	1000	0	0	-1	700
26508555	5823	1676	0	-100	0	230	101300000	1000	0	0	-1	700
26521115	5818	1672	0	-100	0	230	101300000	1000	0	0	-1	700
26533675	5820	1676	0	-100	0	230	101300000	1000	0	0	-1	700
26546235	5815	1679	0	-100	0	230	101300000	1000	0	0	-1	700
26558795	5831	1678	0	-100	0	230	101300000	1000	0	0	-1	700
26571355	5831	1666	0	-100	0	230	101300000	1000	0	0	-1	700
26583915	5810	1668	0	-100	0	230	101300000	1000	0	0	-1	700
26596475	5823	1665	0	-100	0	230	101300000	1000	0	0	-1	700
26609035	5828	1674	0	-100	0	230	101300000	1000	0	0	-1	700
26621595	5825	1660	0	-100	0	230	101300000	1000	0	0	-1	700
26634155	5816	1675	0	-100	0	230	101300000	1000	0	0	-1	700
26646715	5824	1666	0	-100	0	230	101300000	1000	0	0	-1	700
26659275	5829	1663	0	-100	0	230	101300000	1000	0	0	-1	700
26671835	5823	1668	0	-100	0	230	101300000	1000	0	0	-1	700
26684395	5827	1666	0	-100	0	230	101300000	1000	0	0	-1	700
26696955	5827	1666	0	-100	0	230	101300000	1000	0	0	-1	700
26709515	5822	1671	0	-100	0	230	101300000	1000	0	0	-1	700
26722075	5822	1672	0	-100	0	230	101300000	1000	0	0	-1	700
26734635	5815	1663	0	-100	0	230	101300000	1000	0	0	-1	700
26747195	5831	1661	0	-100	0	230	101300000	1000	0	0	-1	700
26759755	5828	1669	0	-100	0	230	101300000	1000	0	0	-1	700
26772315	5830	1663	0	-100	0	230	101300000	1000	0	0	-1	700
26784875	5816	1669	0	-100	0	230	101300000	1000	0	0	-1	700
26797435	5820	1669	0	-100	0	230	101300000	1000	0	0	-1	700
26809995	5819	1664	0	-100	0	230	101300000	1000	0	0	-1	700
26822555	5823	1676	0	-100	0	230	101300000	1000	0	0	-1	700
26835115	5818	1677	0	-100	0	230	101300000	1000	0	0	-1	700
26847675	5822	1681	0	-100	0	230	101300000	1000	0	0	-1	700
26860235	5818	1666	0	-100	0	230	101300000	1000	0	0	-1	700
26872795	5833	1668	0	-100	0	230	101300000	1000	0	0	-1	700
26885355	5818	1657	0	-100	0	230	101300000	1000	0	0	-1	700
26897915	5812	1661	0	-100	0	230	101300000	1000	0	0	-1	700
26910475	5832	1681	0	-100	0	230	101300000	1000	0	0	-1	700
26923035	5826	1681	0	-100	0	230	101300000	1000	0	0	-1	700
26935595	5817	1670	0	-100	0	230	101300000	1000	0	0	-1	700
26948155	5825	1675	0	-100	0	230	101300000	1000	0	0	-1	700
26960715	5822	1674	0	-100	0	230	101300000	1000	0	0	-1	700
26973275	5826	1672	0	-100	0	230	101300000	1000	0	0	-1	700
26985835	5830	1678	0	-100	0	230	101300000	1000	0	0	-1	700
26998395	5822	1670	0	-100	0	230	101300000	1000	0	0	-1	700
27010955	5822	1672	0	-100	0	230	101300000	1000	0	0	-1	700
27023515	5819	1673	0	-100	0	230	101300000	1000	0	0	-1	700
27036075	5821	1679	0	-100	0	230	101300000	1000	0	0	-1	700
27048635	5821	1670	0	-100	0	230	101300000	1000	0	0	-1	700
