timestamp	voltage	current	windSpeed	pitchAngle	rpm	temperature	ambientPressure	humidity	accelerationX	accelerationY	accelerationZ	currentSink
7040070	6014	873	0	-100	0	230	101300000	1000	0	0	-1	0
7047523	6018	872	0	-100	0	230	101300000	1000	0	0	-1	0
7060083	6018	870	0	-100	0	230	101300000	1000	0	0	-1	0
7072643	6017	875	0	-100	0	230	101300000	1000	0	0	-1	0
7085203	6017	867	0	-100	0	230	101300000	1000	0	0	-1	0
7097763	6017	872	0	-100	0	230	101300000	1000	0	0	-1	0
7110323	6010	864	0	-100	0	230	101300000	1000	0	0	-1	0
7122883	6021	869	0	-100	0	230	101300000	1000	0	0	-1	0
7135443	6022	869	0	-100	0	230	101300000	1000	0	0	-1	0
7148004	6022	870	0	-100	0	230	101300000	1000	0	0	-1	0
7160563	6019	867	0	-100	0	230	101300000	1000	0	0	-1	0
7173123	6011	870	0	-100	0	230	101300000	1000	0	0	-1	0
7185683	6017	867	0	-100	0	230	101300000	1000	0	0	-1	0
7198243	6020	868	0	-100	0	230	101300000	1000	0	0	-1	0
7210803	6019	877	0	-100	0	230	101300000	1000	0	0	-1	0
7223363	6024	863	0	-100	0	230	101300000	1000	0	0	-1	0
7235923	6017	877	0	-100	0	230	101300000	1000	0	0	-1	0
7248483	6023	866	0	-100	0	230	101300000	1000	0	0	-1	0
7261043	6013	869	0	-100	0	230	101300000	1000	0	0	-1	0
7273603	6019	868	0	-100	0	230	101300000	1000	0	0	-1	0
7286163	6024	870	0	-100	0	230	101300000	1000	0	0	-1	0
7298723	6012	868	0	-100	0	230	101300000	1000	0	0	-1	0
7311283	6025	863	0	-100	0	230	101300000	1000	0	0	-1	0
7323843	6016	870	0	-100	0	230	101300000	1000	0	0	-1	0
7336403	6027	870	0	-100	0	230	101300000	1000	0	0	-1	0
7348963	6016	861	0	-100	0	230	101300000	1000	0	0	-1	0
7732355	5811	1852	0	-100	0	230	101300000	1000	0	0	-1	800
7744915	5811	1836	0	-100	0	230	101300000	1000	0	0	-1	800
7757475	5806	1842	0	-100	0	230	101300000	1000	0	0	-1	800
7770035	5808	1842	0	-100	0	230	101300000	1000	0	0	-1	800
7782595	5798	1831	0	-100	0	230	101300000	1000	0	0	-1	800
7795155	5805	1848	0	-100	0	230	101300000	1000	0	0	-1	800
7807715	5813	1838	0	-100	0	230	101300000	1000	0	0	-1	800
7820275	5805	1836	0	-100	0	230	101300000	1000	0	0	-1	800
7832835	5806	1845	0	-100	0	230	101300000	1000	0	0	-1	800
7845395	5804	1837	0	-100	0	230	101300000	1000	0	0	-1	800
7857955	5805	1832	0	-100	0	230	101300000	1000	0	0	-1	800
7870515	5805	1832	0	-100	0	230	101300000	1000	0	0	-1	800
7883075	5811	1837	0	-100	0	230	101300000	1000	0	0	-1	800
7895635	5801	1842	0	-100	0	230	101300000	1000	0	0	-1	800
7908195	5801	1839	0	-100	0	230	101300000	1000	0	0	-1	800
7920755	5812	1847	0	-100	0	230	101300000	1000	0	0	-1	800
7933315	5789	1843	0	-100	0	230	101300000	1000	0	0	-1	800
7945875	5806	1834	0	-100	0	230	101300000	1000	0	0	-1	800
7958435	5800	1838	0	-100	0	230	101300000	1000	0	0	-1	800
7970995	5808	1844	0	-100	0	230	101300000	1000	0	0	-1	800
7983555	5803	1840	0	-100	0	230	101300000	1000	0	0	-1	800
7996115	5794	1840	0	-100	0	230	101300000	1000	0	0	-1	800
8008675	5794	1843	0	-100	0	230	101300000	1000	0	0	-1	800
8021235	5816	1839	0	-100	0	230	101300000	1000	0	0	-1	800
8033795	5807	1842	0	-100	0	230	101300000	1000	0	0	-1	800
8046355	5810	1847	0	-100	0	230	101300000	1000	0	0	-1	800
8058915	5797	1841	0	-100	0	230	101300000	1000	0	0	-1	800
8071475	5813	1848	0	-100	0	230	101300000	1000	0	0	-1	800
8084035	5801	1842	0	-100	0	230	101300000	1000	0	0	-1	800
8096595	5801	1842	0	-100	0	230	101300000	1000	0	0	-1	800
8109155	5804	1840	0	-100	0	230	101300000	1000	0	0	-1	800
8121715	5810	1835	0	-100	0	230	101300000	1000	0	0	-1	800
8134275	5806	1838	0	-100	0	230	101300000	1000	0	0	-1	800
8146835	5804	1834	0	-100	0	230	101300000	1000	0	0	-1	800
8159395	5799	1832	0	-100	0	230	101300000	1000	0	0	-1	800
8171955	5795	1837	0	-100	0	230	101300000	1000	0	0	-1	800
8184515	5804	1848	0	-100	0	230	101300000	1000	0	0	-1	800
8197075	5810	1834	0	-100	0	230	101300000	1000	0	0	-1	800
8209635	5797	1840	0	-100	0	230	101300000	1000	0	0	-1	800
8222195	5799	1845	0	-100	0	230	101300000	1000	0	0	-1	800
8234755	5807	1838	0	-100	0	230	101300000	1000	0	0	-1	800
8247315	5797	1843	0	-100	0	230	101300000	1000	0	0	-1	800
8259875	5799	1844	0	-100	0	230	101300000	1000	0	0	-1	800
8272435	5794	1844	0	-100	0	230	101300000	1000	0	0	-1	800
8284995	5802	1834	0	-100	0	230	101300000	1000	0	0	-1	800
8297555	5801	1837	0	-100	0	230	101300000	1000	0	0	-1	800
8310115	5801	1843	0	-100	0	230	101300000	1000	0	0	-1	800
8322675	5794	1847	0	-100	0	230	101300000	1000	0	0	-1	800
8335235	5807	1843	0	-100	0	230	101300000	1000	0	0	-1	800
8347795	5809	1837	0	-100	0	230	101300000	1000	0	0	-1	800
8360355	5805	1836	0	-100	0	230	101300000	1000	0	0	-1	800
8372915	5801	1837	0	-100	0	230	101300000	1000	0	0	-1	800
8385475	5805	1837	0	-100	0	230	101300000	1000	0	0	-1	800
8398035	5792	1844	0	-100	0	230	101300000	1000	0	0	-1	800
8410595	5796	1848	0	-100	0	230	101300000	1000	0	0	-1	800
8423155	5813	1836	0	-100	0	230	101300000	1000	0	0	-1	800
8435715	5822	1847	0	-100	0	230	101300000	1000	0	0	-1	800
8448275	5803	1841	0	-100	0	230	101300000	1000	0	0	-1	800
8460835	5799	1834	0	-100	0	230	101300000	1000	0	0	-1	800
8473395	5804	1844	0	-100	0	230	101300000	1000	0	0	-1	800
8485955	5800	1847	0	-100	0	230	101300000	1000	0	0	-1	800
8498515	5798	1840	0	-100	0	230	101300000	1000	0	0	-1	800
8511075	5809	1841	0	-100	0	230	101300000	1000	0	0	-1	800
8523635	5807	1836	0	-100	0	230	101300000	1000	0	0	-1	800
8536195	5806	1833	0	-100	0	230	101300000	1000	0	0	-1	800
8548755	5813	1837	0	-100	0	230	101300000	1000	0	0	-1	800
8561315	5791	1839	0	-100	0	230	101300000	1000	0	0	-1	800
8573875	5798	1842	0	-100	0	230	101300000	1000	0	0	-1	800
8586435	5811	1839	0	-100	0	230	101300000	1000	0	0	-1	800
8598995	5796	1842	0	-100	0	230	101300000	1000	0	0	-1	800
8611555	5804	1843	0	-100	0	230	101300000	1000	0	0	-1	800
8624115	5799	1837	0	-100	0	230	101300000	1000	0	0	-1	800
8636675	5811	1841	0	-100	0	230	101300000	1000	0	0	-1	800
8649235	5806	1846	0	-100	0	230	101300000	1000	0	0	-1	800
8661795	5804	1846	0	-100	0	230	101300000	1000	0	0	-1	800
8686915	5811	1837	0	-100	0	230	101300000	1000	0	0	-1	800
8699475	5804	1837	0	-100	0	230	101300000	1000	0	0	-1	800
8712035	5800	1844	0	-100	0	230	101300000	1000	0	0	-1	800
8724595	5801	1837	0	-100	0	230	101300000	1000	0	0	-1	800
8737155	5809	1838	0	-100	0	230	101300000	1000	0	0	-1	800
8749715	5797	1845	0	-100	0	230	101300000	1000	0	0	-1	800
8762275	5796	1838	0	-100	0	230	101300000	1000	0	0	-1	800
8774835	5809	1838	0	-100	0	230	101300000	1000	0	0	-1	800
8787395	5808	1841	0	-100	0	230	101300000	1000	0	0	-1	800
8799955	5801	1845	0	-100	0	230	101300000	1000	0	0	-1	800
8812515	5799	1836	0	-100	0	230	101300000	1000	0	0	-1	800
8825075	5798	1840	0	-100	0	230	101300000	1000	0	0	-1	800
8837635	5820	1829	0	-100	0	230	101300000	1000	0	0	-1	800
8850195	5809	1837	0	-100	0	230	101300000	1000	0	0	-1	800
8862755	5798	1843	0	-100	0	230	101300000	1000	0	0	-1	800
8875315	5795	1844	0	-100	0	230	101300000	1000	0	0	-1	800
8887875	5801	1842	0	-100	0	230	101300000	1000	0	0	-1	800
8900435	5808	1842	0	-100	0	230	101300000	1000	0	0	-1	800
8912995	5802	1846	0	-100	0	230	101300000	1000	0	0	-1	800
8925555	5809	1841	0	-100	0	230	101300000	1000	0	0	-1	800
8938115	5800	1846	0	-100	0	230	101300000	1000	0	0	-1	800
8950675	5800	1838	0	-100	0	230	101300000	1000	0	0	-1	800
8963235	5797	1837	0	-100	0	230	101300000	1000	0	0	-1	800
8975795	5805	1833	0	-100	0	230	101300000	1000	0	0	-1	800
8988355	5798	1835	0	-100	0	230	101300000	1000	0	0	-1	800
9000915	5799	1840	0	-100	0	230	101300000	1000	0	0	-1	800
9013475	5807	1836	0	-100	0	230	101300000	1000	0	0	-1	800
9026035	5803	1848	0	-100	0	230	101300000	1000	0	0	-1	800
9038595	5809	1838	0	-100	0	230	101300000	1000	0	0	-1	800
9051155	5800	1838	0	-100	0	230	101300000	1000	0	0	-1	800
9063715	5800	1833	0	-100	0	230	101300000	1000	0	0	-1	800
9076275	5805	1830	0	-100	0	230	101300000	1000	0	0	-1	800
9088835	5795	1842	0	-100	0	230	101300000	1000	0	0	-1	800
9101395	5798	1836	0	-100	0	230	101300000	1000	0	0	-1	800
9113955	5807	1840	0	-100	0	230	101300000	1000	0	0	-1	800
9126515	5816	1841	0	-100	0	230	101300000	1000	0	0	-1	800
9139075	5801	1844	0	-100	0	230	101300000	1000	0	0	-1	800
9151635	5809	1842	0	-100	0	230	101300000	1000	0	0	-1	800
9164195	5796	1844	0	-100	0	230	101300000	1000	0	0	-1	800
9176755	5815	1839	0	-100	0	230	101300000	1000	0	0	-1	800
9189315	5804	1842	0	-100	0	230	101300000	1000	0	0	-1	800
9201875	5805	1838	0	-100	0	230	101300000	1000	0	0	-1	800
9214435	5799	1838	0	-100	0	230	101300000	1000	0	0	-1	800
9226995	5803	1829	0	-100	0	230	101300000	1000	0	0	-1	800
9239555	5809	1837	0	-100	0	230	101300000	1000	0	0	-1	800
9252115	5791	1844	0	-100	0	230	101300000	1000	0	0	-1	800
9264675	5804	1840	0	-100	0	230	101300000	1000	0	0	-1	800
9277235	5795	1845	0	-100	0	230	101300000	1000	0	0	-1	800
9289795	5802	1840	0	-100	0	230	101300000	1000	0	0	-1	800
9302355	5790	1834	0	-100	0	230	101300000	1000	0	0	-1	800
9314915	5806	1841	0	-100	0	230	101300000	1000	0	0	-1	800
9327475	5795	1830	0	-100	0	230	101300000	1000	0	0	-1	800
9340035	5807	1840	0	-100	0	230	101300000	1000	0	0	-1	800
9352595	5793	1835	0	-100	0	230	101300000	1000	0	0	-1	800
9365155	5799	1839	0	-100	0	230	101300000	1000	0	0	-1	800
9377715	5807	1837	0	-100	0	230	101300000	1000	0	0	-1	800
9390275	5802	1846	0	-100	0	230	101300000	1000	0	0	-1	800
9402835	5788	1847	0	-100	0	230	101300000	1000	0	0	-1	800
9415395	5806	1839	0	-100	0	230	101300000	1000	0	0	-1	800
9427955	5808	1840	0	-100	0	230	101300000	1000	0	0	-1	800
9440515	5804	1838	0	-100	0	230	101300000	1000	0	0	-1	800
9453075	5805	1841	0	-100	0	230	101300000	1000	0	0	-1	800
9465635	5798	1846	0	-100	0	230	101300000	1000	0	0	-1	800
9478195	5813	1841	0	-100	0	230	101300000	1000	0	0	-1	800
9490755	5803	1832	0	-100	0	230	101300000	1000	0	0	-1	800
9503315	5793	1835	0	-100	0	230	101300000	1000	0	0	-1	800
9515875	5800	1836	0	-100	0	230	101300000	1000	0	0	-1	800
9528435	5801	1840	0	-100	0	230	101300000	1000	0	0	-1	800
9540995	5813	1844	0	-100	0	230	101300000	1000	0	0	-1	800
9553555	5805	1835	0	-100	0	230	101300000	1000	0	0	-1	800
9566115	5798	1836	0	-100	0	230	101300000	1000	0	0	-1	800
9578675	5802	1836	0	-100	0	230	101300000	1000	0	0	-1	800
9591235	5804	1843	0	-100	0	230	101300000	1000	0	0	-1	800
9603795	5806	1841	0	-100	0	230	101300000	1000	0	0	-1	800
9616355	5805	1834	0	-100	0	230	101300000	1000	0	0	-1	800
9628915	5805	1837	0	-100	0	230	101300000	1000	0	0	-1	800
9641475	5797	1845	0	-100	0	230	101300000	1000	0	0	-1	800
9654035	5809	1837	0	-100	0	230	101300000	1000	0	0	-1	800
9666595	5792	1838	0	-100	0	230	101300000	1000	0	0	-1	800
9679155	5797	1845	0	-100	0	230	101300000	1000	0	0	-1	800
9691715	5807	1838	0	-100	0	230	101300000	1000	0	0	-1	800
9704275	5801	1839	0	-100	0	230	101300000	1000	0	0	-1	800
9716835	5797	1836	0	-100	0	230	101300000	1000	0	0	-1	800
9729395	5806	1842	0	-100	0	230	101300000	1000	0	0	-1	800
9741955	5810	1843	0	-100	0	230	101300000	1000	0	0	-1	800
9754515	5798	1835	0	-100	0	230	101300000	1000	0	0	-1	800
9767075	5810	1834	0	-100	0	230	101300000	1000	0	0	-1	800
9779635	5800	1843	0	-100	0	230	101300000	1000	0	0	-1	800
9792195	5801	1834	0	-100	0	230	101300000	1000	0	0	-1	800
9804755	5802	1829	0	-100	0	230	101300000	1000	0	0	-1	800
9817315	5789	1827	0	-100	0	230	101300000	1000	0	0	-1	800
9829875	5800	1838	0	-100	0	230	101300000	1000	0	0	-1	800
9842435	5798	1842	0	-100	0	230	101300000	1000	0	0	-1	800
9854995	5794	1846	0	-100	0	230	101300000	1000	0	0	-1	800
9867555	5805	1835	0	-100	0	230	101300000	1000	0	0	-1	800
9880115	5810	1833	0	-100	0	230	101300000	1000	0	0	-1	800
9892675	5802	1838	0	-100	0	230	101300000	1000	0	0	-1	800
9905235	5804	1837	0	-100	0	230	101300000	1000	0	0	-1	800
9917795	5806	1832	0	-100	0	230	101300000	1000	0	0	-1	800
9930355	5804	1835	0	-100	0	230	101300000	1000	0	0	-1	800
9942915	5795	1839	0	-100	0	230	101300000	1000	0	0	-1	800
9955475	5788	1839	0	-100	0	230	101300000	1000	0	0	-1	800
9968035	5801	1834	0	-100	0	230	101300000	1000	0	0	-1	800
9980595	5794	1840	0	-100	0	230	101300000	1000	0	0	-1	800
9993155	5802	1842	0	-100	0	230	101300000	1000	0	0	-1	800
10005715	5805	1834	0	-100	0	230	101300000	1000	0	0	-1	800
10018275	5801	1835	0	-100	0	230	101300000	1000	0	0	-1	800
10030835	5803	1839	0	-100	0	230	101300000	1000	0	0	-1	800
10043395	5805	1830	0	-100	0	230	101300000	1000	0	0	-1	800
10055955	5798	1836	0	-100	0	230	101300000	1000	0	0	-1	800
10068515	5804	1849	0	-100	0	230	101300000	1000	0	0	-1	800
10081075	5805	1835	0	-100	0	230	101300000	1000	0	0	-1	800
10093635	5806	1838	0	-100	0	230	101300000	1000	0	0	-1	800
10106195	5803	1839	0	-100	0	230	101300000	1000	0	0	-1	800
10118755	5816	1832	0	-100	0	230	101300000	1000	0	0	-1	800
10131315	5798	1839	0	-100	0	230	101300000	1000	0	0	-1	800
10143875	5796	1842	0	-100	0	230	101300000	1000	0	0	-1	800
10156435	5795	1838	0	-100	0	230	101300000	1000	0	0	-1	800
10168995	5813	1844	0	-100	0	230	101300000	1000	0	0	-1	800
10181555	5801	1833	0	-100	0	230	101300000	1000	0	0	-1	800
10194115	5795	1829	0	-100	0	230	101300000	1000	0	0	-1	800
10206675	5803	1839	0	-100	0	230	101300000	1000	0	0	-1	800
10219235	5793	1843	0	-100	0	230	101300000	1000	0	0	-1	800
10231795	5805	1835	0	-100	0	230	101300000	1000	0	0	-1	800
10244355	5803	1838	0	-100	0	230	101300000	1000	0	0	-1	800
10256915	5796	1833	0	-100	0	230	101300000	1000	0	0	-1	800
10269475	5799	1836	0	-100	0	230	101300000	1000	0	0	-1	800
10282035	5797	1843	0	-100	0	230	101300000	1000	0	0	-1	800
10294595	5803	1845	0	-100	0	230	101300000	1000	0	0	-1	800
10307155	5794	1834	0	-100	0	230	101300000	1000	0	0	-1	800
10319715	5803	1829	0	-100	0	230	101300000	1000	0	0	-1	800
10332275	5806	1841	0	-100	0	230	101300000	1000	0	0	-1	800
10344835	5798	1845	0	-100	0	230	101300000	1000	0	0	-1	800
10357395	5801	1843	0	-100	0	230	101300000	1000	0	0	-1	800
10369955	5802	1834	0	-100	0	230	101300000	1000	0	0	-1	800
10382515	5805	1838	0	-100	0	230	101300000	1000	0	0	-1	800
10395075	5799	1835	0	-100	0	230	101300000	1000	0	0	-1	800
10407635	5813	1839	0	-100	0	230	101300000	1000	0	0	-1	800
10420195	5806	1840	0	-100	0	230	101300000	1000	0	0	-1	800
10432755	5796	1839	0	-100	0	230	101300000	1000	0	0	-1	800
10445315	5789	1831	0	-100	0	230	101300000	1000	0	0	-1	800
10457875	5797	1837	0	-100	0	230	101300000	1000	0	0	-1	800
10470435	5819	1842	0	-100	0	230	101300000	1000	0	0	-1	800
10482995	5802	1838	0	-100	0	230	101300000	1000	0	0	-1	800
10495555	5795	1842	0	-100	0	230	101300000	1000	0	0	-1	800
10508115	5799	1837	0	-100	0	230	101300000	1000	0	0	-1	800
10520675	5805	1842	0	-100	0	230	101300000	1000	0	0	-1	800
10533235	5805	1839	0	-100	0	230	101300000	1000	0	0	-1	800
10545795	5789	1834	0	-100	0	230	101300000	1000	0	0	-1	800
10558355	5806	1840	0	-100	0	230	101300000	1000	0	0	-1	800
10570915	5801	1847	0	-100	0	230	101300000	1000	0	0	-1	800
10583475	5806	1836	0	-100	0	230	101300000	1000	0	0	-1	800
10596035	5810	1835	0	-100	0	230	101300000	1000	0	0	-1	800
10608595	5803	1837	0	-100	0	230	101300000	1000	0	0	-1	800
10621155	5795	1846	0	-100	0	230	101300000	1000	0	0	-1	800
10633715	5801	1840	0	-100	0	230	101300000	1000	0	0	-1	800
10646275	5811	1831	0	-100	0	230	101300000	1000	0	0	-1	800
10658835	5803	1848	0	-100	0	230	101300000	1000	0	0	-1	800
10671395	5805	1843	0	-100	0	230	101300000	1000	0	0	-1	800
10683955	5805	1846	0	-100	0	230	101300000	1000	0	0	-1	800
10696515	5796	1844	0	-100	0	230	101300000	1000	0	0	-1	800
10709075	5802	1835	0	-100	0	230	101300000	1000	0	0	-1	800
10721635	5813	1848	0	-100	0	230	101300000	1000	0	0	-1	800
10734195	5798	1844	0	-100	0	230	101300000	1000	0	0	-1	800
10759315	5803	1837	0	-100	0	230	101300000	1000	0	0	-1	800
10771875	5806	1837	0	-100	0	230	101300000	1000	0	0	-1	800
10784435	5798	1839	0	-100	0	230	101300000	1000	0	0	-1	800
10796995	5800	1842	0	-100	0	230	101300000	1000	0	0	-1	800
10809555	5803	1833	0	-100	0	230	101300000	1000	0	0	-1	800
10822115	5793	1838	0	-100	0	230	101300000	1000	0	0	-1	800
10834675	5809	1833	0	-100	0	230	101300000	1000	0	0	-1	800
10847235	5810	1826	0	-100	0	230	101300000	1000	0	0	-1	800
10859795	5805	1848	0	-100	0	230	101300000	1000	0	0	-1	800
10872355	5792	1845	0	-100	0	230	101300000	1000	0	0	-1	800
10884915	5803	1840	0	-100	0	230	101300000	1000	0	0	-1	800
10960275	5811	1842	0	-100	0	230	101300000	1000	0	0	-1	800
10972835	5806	1836	0	-100	0	230	101300000	1000	0	0	-1	800
10985395	5798	1832	0	-100	0	230	101300000	1000	0	0	-1	800
10997955	5805	1841	0	-100	0	230	101300000	1000	0	0	-1	800
11010515	5804	1841	0	-100	0	230	101300000	1000	0	0	-1	800
11023075	5798	1838	0	-100	0	230	101300000	1000	0	0	-1	800
11035635	5807	1830	0	-100	0	230	101300000	1000	0	0	-1	800
11048195	5796	1838	0	-100	0	230	101300000	1000	0	0	-1	800
11060755	5806	1830	0	-100	0	230	101300000	1000	0	0	-1	800
11073315	5794	1836	0	-100	0	230	101300000	1000	0	0	-1	800
11085875	5792	1834	0	-100	0	230	101300000	1000	0	0	-1	800
11098435	5802	1839	0	-100	0	230	101300000	1000	0	0	-1	800
11136115	5803	1829	0	-100	0	230	101300000	1000	0	0	-1	800
11148675	5811	1832	0	-100	0	230	101300000	1000	0	0	-1	800
11161235	5815	1841	0	-100	0	230	101300000	1000	0	0	-1	800
11173795	5803	1836	0	-100	0	230	101300000	1000	0	0	-1	800
11186355	5801	1838	0	-100	0	230	101300000	1000	0	0	-1	800
11198915	5804	1830	0	-100	0	230	101300000	1000	0	0	-1	800
11211475	5802	1842	0	-100	0	230	101300000	1000	0	0	-1	800
11224035	5793	1838	0	-100	0	230	101300000	1000	0	0	-1	800
11236595	5808	1847	0	-100	0	230	101300000	1000	0	0	-1	800
11249155	5806	1833	0	-100	0	230	101300000	1000	0	0	-1	800
11261715	5812	1840	0	-100	0	230	101300000	1000	0	0	-1	800
11274275	5810	1839	0	-100	0	230	101300000	1000	0	0	-1	800
11286835	5808	1844	0	-100	0	230	101300000	1000	0	0	-1	800
11299395	5809	1847	0	-100	0	230	101300000	1000	0	0	-1	800
11311955	5797	1839	0	-100	0	230	101300000	1000	0	0	-1	800
11324515	5799	1844	0	-100	0	230	101300000	1000	0	0	-1	800
11337075	5809	1845	0	-100	0	230	101300000	1000	0	0	-1	800
11349635	5803	1837	0	-100	0	230	101300000	1000	0	0	-1	800
11362195	5802	1835	0	-100	0	230	101300000	1000	0	0	-1	800
11374755	5814	1834	0	-100	0	230	101300000	1000	0	0	-1	800
11387315	5790	1841	0	-100	0	230	101300000	1000	0	0	-1	800
11399875	5797	1837	0	-100	0	230	101300000	1000	0	0	-1	800
11412435	5815	1839	0	-100	0	230	101300000	1000	0	0	-1	800
11424995	5798	1841	0	-100	0	230	101300000	1000	0	0	-1	800
11437555	5791	1844	0	-100	0	230	101300000	1000	0	0	-1	800
11450115	5798	1836	0	-100	0	230	101300000	1000	0	0	-1	800
11462675	5804	1832	0	-100	0	230	101300000	1000	0	0	-1	800
11475235	5805	1839	0	-100	0	230	101300000	1000	0	0	-1	800
11487795	5805	1844	0	-100	0	230	101300000	1000	0	0	-1	800
11500355	5802	1842	0	-100	0	230	101300000	1000	0	0	-1	800
11512915	5801	1837	0	-100	0	230	101300000	1000	0	0	-1	800
11525475	5797	1838	0	-100	0	230	101300000	1000	0	0	-1	800
11538035	5802	1837	0	-100	0	230	101300000	1000	0	0	-1	800
11550595	5806	1837	0	-100	0	230	101300000	1000	0	0	-1	800
11563155	5793	1844	0	-100	0	230	101300000	1000	0	0	-1	800
11575715	5802	1843	0	-100	0	230	101300000	1000	0	0	-1	800
11588275	5801	1835	0	-100	0	230	101300000	1000	0	0	-1	800
11600835	5797	1837	0	-100	0	230	101300000	1000	0	0	-1	800
11613395	5802	1825	0	-100	0	230	101300000	1000	0	0	-1	800
11625955	5802	1838	0	-100	0	230	101300000	1000	0	0	-1	800
11638515	5800	1838	0	-100	0	230	101300000	1000	0	0	-1	800
11651075	5801	1832	0	-100	0	230	101300000	1000	0	0	-1	800
11663635	5802	1829	0	-100	0	230	101300000	1000	0	0	-1	800
11676195	5803	1835	0	-100	0	230	101300000	1000	0	0	-1	800
11688755	5802	1830	0	-100	0	230	101300000	1000	0	0	-1	800
11701315	5796	1835	0	-100	0	230	101300000	1000	0	0	-1	800
11713875	5810	1838	0	-100	0	230	101300000	1000	0	0	-1	800
11726435	5802	1846	0	-100	0	230	101300000	1000	0	0	-1	800
11738995	5807	1847	0	-100	0	230	101300000	1000	0	0	-1	800
11751555	5801	1840	0	-100	0	230	101300000	1000	0	0	-1	800
11764115	5791	1830	0	-100	0	230	101300000	1000	0	0	-1	800
11776675	5798	1834	0	-100	0	230	101300000	1000	0	0	-1	800
11789235	5813	1844	0	-100	0	230	101300000	1000	0	0	-1	800
11801795	5800	1838	0	-100	0	230	101300000	1000	0	0	-1	800
11814355	5790	1836	0	-100	0	230	101300000	1000	0	0	-1	800
11826915	5796	1843	0	-100	0	230	101300000	1000	0	0	-1	800
11839475	5809	1837	0	-100	0	230	101300000	1000	0	0	-1	800
11852035	5800	1839	0	-100	0	230	101300000	1000	0	0	-1	800
11864595	5811	1841	0	-100	0	230	101300000	1000	0	0	-1	800
11877155	5805	1835	0	-100	0	230	101300000	1000	0	0	-1	800
11889715	5804	1843	0	-100	0	230	101300000	1000	0	0	-1	800
11902275	5812	1846	0	-100	0	230	101300000	1000	0	0	-1	800
11914835	5798	1842	0	-100	0	230	101300000	1000	0	0	-1	800
11927395	5793	1838	0	-100	0	230	101300000	1000	0	0	-1	800
11939955	5799	1832	0	-100	0	230	101300000	1000	0	0	-1	800
11952515	5801	1832	0	-100	0	230	101300000	1000	0	0	-1	800
11965075	5798	1852	0	-100	0	230	101300000	1000	0	0	-1	800
11977635	5810	1837	0	-100	0	230	101300000	1000	0	0	-1	800
11990195	5802	1830	0	-100	0	230	101300000	1000	0	0	-1	800
12002755	5813	1838	0	-100	0	230	101300000	1000	0	0	-1	800
12015315	5788	1846	0	-100	0	230	101300000	1000	0	0	-1	800
12027875	5796	1839	0	-100	0	230	101300000	1000	0	0	-1	800
12040435	5805	1838	0	-100	0	230	101300000	1000	0	0	-1	800
12052995	5801	1838	0	-100	0	230	101300000	1000	0	0	-1	800
12065555	5798	1836	0	-100	0	230	101300000	1000	0	0	-1	800
12078115	5788	1836	0	-100	0	230	101300000	1000	0	0	-1	800
12090675	5799	1837	0	-100	0	230	101300000	1000	0	0	-1	800
12103235	5810	1839	0	-100	0	230	101300000	1000	0	0	-1	800
12115795	5805	1835	0	-100	0	230	101300000	1000	0	0	-1	800
12128355	5791	1835	0	-100	0	230	101300000	1000	0	0	-1	800
12140915	5796	1835	0	-100	0	230	101300000	1000	0	0	-1	800
12153475	5793	1838	0	-100	0	230	101300000	1000	0	0	-1	800
12166035	5804	1843	0	-100	0	230	101300000	1000	0	0	-1	800
12178595	5792	1837	0	-100	0	230	101300000	1000	0	0	-1	800
12191155	5801	1836	0	-100	0	230	101300000	1000	0	0	-1	800
12203715	5792	1851	0	-100	0	230	101300000	1000	0	0	-1	800
12216275	5805	1837	0	-100	0	230	101300000	1000	0	0	-1	800
12228835	5805	1838	0	-100	0	230	101300000	1000	0	0	-1	800
12241395	5805	1833	0	-100	0	230	101300000	1000	0	0	-1	800
12253955	5802	1837	0	-100	0	230	101300000	1000	0	0	-1	800
12266515	5809	1835	0	-100	0	230	101300000	1000	0	0	-1	800
12279075	5803	1843	0	-100	0	230	101300000	1000	0	0	-1	800
12291635	5794	1842	0	-100	0	230	101300000	1000	0	0	-1	800
12304195	5797	1838	0	-100	0	230	101300000	1000	0	0	-1	800
12316755	5801	1833	0	-100	0	230	101300000	1000	0	0	-1	800
12329315	5797	1836	0	-100	0	230	101300000	1000	0	0	-1	800
12341875	5815	1834	0	-100	0	230	101300000	1000	0	0	-1	800
12354435	5798	1839	0	-100	0	230	101300000	1000	0	0	-1	800
12366995	5798	1832	0	-100	0	230	101300000	1000	0	0	-1	800
12379555	5806	1836	0	-100	0	230	101300000	1000	0	0	-1	800
12392115	5798	1840	0	-100	0	230	101300000	1000	0	0	-1	800
12404675	5809	1827	0	-100	0	230	101300000	1000	0	0	-1	800
12417235	5809	1843	0	-100	0	230	101300000	1000	0	0	-1	800
12429795	5801	1836	0	-100	0	230	101300000	1000	0	0	-1	800
12442355	5805	1835	0	-100	0	230	101300000	1000	0	0	-1	800
12454915	5800	1850	0	-100	0	230	101300000	1000	0	0	-1	800
12467475	5804	1834	0	-100	0	230	101300000	1000	0	0	-1	800
12480035	5805	1837	0	-100	0	230	101300000	1000	0	0	-1	800
12492595	5792	1842	0	-100	0	230	101300000	1000	0	0	-1	800
12505155	5809	1837	0	-100	0	230	101300000	1000	0	0	-1	800
12517715	5801	1841	0	-100	0	230	101300000	1000	0	0	-1	800
12530275	5799	1842	0	-100	0	230	101300000	1000	0	0	-1	800
12542835	5811	1846	0	-100	0	230	101300000	1000	0	0	-1	800
12555395	5810	1839	0	-100	0	230	101300000	1000	0	0	-1	800
12567955	5801	1835	0	-100	0	230	101300000	1000	0	0	-1	800
12580515	5797	1844	0	-100	0	230	101300000	1000	0	0	-1	800
12593075	5807	1836	0	-100	0	230	101300000	1000	0	0	-1	800
12605635	5801	1836	0	-100	0	230	101300000	1000	0	0	-1	800
12618195	5795	1829	0	-100	0	230	101300000	1000	0	0	-1	800
12630755	5810	1834	0	-100	0	230	101300000	1000	0	0	-1	800
12643315	5799	1838	0	-100	0	230	101300000	1000	0	0	-1	800
12655875	5812	1837	0	-100	0	230	101300000	1000	0	0	-1	800
12668435	5792	1843	0	-100	0	230	101300000	1000	0	0	-1	800
12680995	5808	1839	0	-100	0	230	101300000	1000	0	0	-1	800
12693555	5802	1841	0	-100	0	230	101300000	1000	0	0	-1	800
12706115	5794	1836	0	-100	0	230	101300000	1000	0	0	-1	800
12718675	5791	1842	0	-100	0	230	101300000	1000	0	0	-1	800
12731235	5800	1840	0	-100	0	230	101300000	1000	0	0	-1	800
12743795	5792	1835	0	-100	0	230	101300000	1000	0	0	-1	800
12756355	5815	1838	0	-100	0	230	101300000	1000	0	0	-1	800
12768915	5804	1839	0	-100	0	230	101300000	1000	0	0	-1	800
12781475	5808	1833	0	-100	0	230	101300000	1000	0	0	-1	800
12794035	5801	1838	0	-100	0	230	101300000	1000	0	0	-1	800
12806595	5801	1841	0	-100	0	230	101300000	1000	0	0	-1	800
12819155	5813	1839	0	-100	0	230	101300000	1000	0	0	-1	800
12831715	5810	1836	0	-100	0	230	101300000	1000	0	0	-1	800
12844275	5801	1831	0	-100	0	230	101300000	1000	0	0	-1	800
12856835	5803	1839	0	-100	0	230	101300000	1000	0	0	-1	800
12869395	5801	1837	0	-100	0	230	101300000	1000	0	0	-1	800
12881955	5808	1840	0	-100	0	230	101300000	1000	0	0	-1	800
12894515	5804	1832	0	-100	0	230	101300000	1000	0	0	-1	800
12907075	5803	1850	0	-100	0	230	101300000	1000	0	0	-1	800
12919635	5801	1842	0	-100	0	230	101300000	1000	0	0	-1	800
12932195	5791	1836	0	-100	0	230	101300000	1000	0	0	-1	800
12944755	5802	1847	0	-100	0	230	101300000	1000	0	0	-1	800
12957315	5796	1842	0	-100	0	230	101300000	1000	0	0	-1	800
12969875	5807	1846	0	-100	0	230	101300000	1000	0	0	-1	800
12982435	5805	1831	0	-100	0	230	101300000	1000	0	0	-1	800
12994995	5799	1834	0	-100	0	230	101300000	1000	0	0	-1	800
13007555	5805	1841	0	-100	0	230	101300000	1000	0	0	-1	800
13020115	5795	1834	0	-100	0	230	101300000	1000	0	0	-1	800
13032675	5811	1833	0	-100	0	230	101300000	1000	0	0	-1	800
13045235	5799	1835	0	-100	0	230	101300000	1000	0	0	-1	800
13057795	5802	1847	0	-100	0	230	101300000	1000	0	0	-1	800
13070355	5804	1829	0	-100	0	230	101300000	1000	0	0	-1	800
13082915	5810	1838	0	-100	0	230	101300000	1000	0	0	-1	800
13095475	5805	1839	0	-100	0	230	101300000	1000	0	0	-1	800
13108035	5809	1839	0	-100	0	230	101300000	1000	0	0	-1	800
13120595	5798	1839	0	-100	0	230	101300000	1000	0	0	-1	800
13133155	5795	1836	0	-100	0	230	101300000	1000	0	0	-1	800
13145715	5798	1837	0	-100	0	230	101300000	1000	0	0	-1	800
13158275	5799	1848	0	-100	0	230	101300000	1000	0	0	-1	800
13170835	5796	1845	0	-100	0	230	101300000	1000	0	0	-1	800
13183395	5803	1838	0	-100	0	230	101300000	1000	0	0	-1	800
13195955	5812	1847	0	-100	0	230	101300000	1000	0	0	-1	800
13208515	5798	1841	0	-100	0	230	101300000	1000	0	0	-1	800
13221075	5794	1840	0	-100	0	230	101300000	1000	0	0	-1	800
13233635	5797	1833	0	-100	0	230	101300000	1000	0	0	-1	800
13246195	5799	1843	0	-100	0	230	101300000	1000	0	0	-1	800
13258755	5810	1841	0	-100	0	230	101300000	1000	0	0	-1	800
13271315	5794	1834	0	-100	0	230	101300000	1000	0	0	-1	800
13283875	5805	1844	0	-100	0	230	101300000	1000	0	0	-1	800
13296435	5802	1837	0	-100	0	230	101300000	1000	0	0	-1	800
13308995	5798	1836	0	-100	0	230	101300000	1000	0	0	-1	800
13321555	5798	1831	0	-100	0	230	101300000	1000	0	0	-1	800
13334115	5801	1831	0	-100	0	230	101300000	1000	0	0	-1	800
13346675	5797	1840	0	-100	0	230	101300000	1000	0	0	-1	800
13359235	5806	1834	0	-100	0	230	101300000	1000	0	0	-1	800
13371795	5797	1841	0	-100	0	230	101300000	1000	0	0	-1	800
13384355	5798	1832	0	-100	0	230	101300000	1000	0	0	-1	800
13396915	5801	1842	0	-100	0	230	101300000	1000	0	0	-1	800
13409475	5794	1834	0	-100	0	230	101300000	1000	0	0	-1	800
13422035	5801	1846	0	-100	0	230	101300000	1000	0	0	-1	800
13434595	5798	1836	0	-100	0	230	101300000	1000	0	0	-1	800
13447155	5806	1832	0	-100	0	230	101300000	1000	0	0	-1	800
13459715	5798	1842	0	-100	0	230	101300000	1000	0	0	-1	800
13472275	5797	1844	0	-100	0	230	101300000	1000	0	0	-1	800
13484835	5797	1841	0	-100	0	230	101300000	1000	0	0	-1	800
13497395	5794	1847	0	-100	0	230	101300000	1000	0	0	-1	800
13509955	5807	1842	0	-100	0	230	101300000	1000	0	0	-1	800
13522515	5806	1845	0	-100	0	230	101300000	1000	0	0	-1	800
13535075	5802	1835	0	-100	0	230	101300000	1000	0	0	-1	800
13547635	5793	1843	0	-100	0	230	101300000	1000	0	0	-1	800
13560195	5797	1839	0	-100	0	230	101300000	1000	0	0	-1	800
13572755	5801	1834	0	-100	0	230	101300000	1000	0	0	-1	800
13585315	5794	1834	0	-100	0	230	101300000	1000	0	0	-1	800
13597875	5809	1843	0	-100	0	230	101300000	1000	0	0	-1	800
13610435	5809	1844	0	-100	0	230	101300000	1000	0	0	-1	800
13622995	5806	1848	0	-100	0	230	101300000	1000	0	0	-1	800
13635555	5800	1840	0	-100	0	230	101300000	1000	0	0	-1	800
13648115	5793	1833	0	-100	0	230	101300000	1000	0	0	-1	800
13660675	5798	1838	0	-100	0	230	101300000	1000	0	0	-1	800
13673235	5806	1840	0	-100	0	230	101300000	1000	0	0	-1	800
13685795	5799	1845	0	-100	0	230	101300000	1000	0	0	-1	800
13698355	5810	1839	0	-100	0	230	101300000	1000	0	0	-1	800
13710915	5808	1837	0	-100	0	230	101300000	1000	0	0	-1	800
13723475	5801	1839	0	-100	0	230	101300000	1000	0	0	-1	800
13736035	5801	1836	0	-100	0	230	101300000	1000	0	0	-1	800
13748595	5806	1831	0	-100	0	230	101300000	1000	0	0	-1	800
13761155	5789	1841	0	-100	0	230	101300000	1000	0	0	-1	800
13773715	5794	1839	0	-100	0	230	101300000	1000	0	0	-1	800
13786275	5807	1832	0	-100	0	230	101300000	1000	0	0	-1	800
13798835	5800	1844	0	-100	0	230	101300000	1000	0	0	-1	800
13811395	5801	1851	0	-100	0	230	101300000	1000	0	0	-1	800
13849075	5798	1840	0	-100	0	230	101300000	1000	0	0	-1	800
13861635	5795	1843	0	-100	0	230	101300000	1000	0	0	-1	800
13874195	5810	1841	0	-100	0	230	101300000	1000	0	0	-1	800
13886755	5800	1839	0	-100	0	230	101300000	1000	0	0	-1	800
13899315	5798	1836	0	-100	0	230	101300000	1000	0	0	-1	800
13911875	5792	1851	0	-100	0	230	101300000	1000	0	0	-1	800
13924435	5802	1833	0	-100	0	230	101300000	1000	0	0	-1	800
13936995	5811	1839	0	-100	0	230	101300000	1000	0	0	-1	800
13949555	5799	1846	0	-100	0	230	101300000	1000	0	0	-1	800
13962115	5798	1841	0	-100	0	230	101300000	1000	0	0	-1	800
13974675	5792	1846	0	-100	0	230	101300000	1000	0	0	-1	800
13987235	5806	1834	0	-100	0	230	101300000	1000	0	0	-1	800
14050035	5801	1838	0	-100	0	230	101300000	1000	0	0	-1	800
14062595	5802	1830	0	-100	0	230	101300000	1000	0	0	-1	800
14075155	5807	1842	0	-100	0	230	101300000	1000	0	0	-1	800
14087715	5801	1841	0	-100	0	230	101300000	1000	0	0	-1	800
14100275	5797	1843	0	-100	0	230	101300000	1000	0	0	-1	800
14112835	5801	1836	0	-100	0	230	101300000	1000	0	0	-1	800
14125395	5798	1848	0	-100	0	230	101300000	1000	0	0	-1	800
14137955	5801	1835	0	-100	0	230	101300000	1000	0	0	-1	800
14150515	5801	1835	0	-100	0	230	101300000	1000	0	0	-1	800
14163075	5791	1838	0	-100	0	230	101300000	1000	0	0	-1	800
14175635	5804	1840	0	-100	0	230	101300000	1000	0	0	-1	800
14188195	5804	1841	0	-100	0	230	101300000	1000	0	0	-1	800
14200755	5801	1832	0	-100	0	230	101300000	1000	0	0	-1	800
14213315	5801	1842	0	-100	0	230	101300000	1000	0	0	-1	800
14225875	5794	1839	0	-100	0	230	101300000	1000	0	0	-1	800
14238435	5805	1835	0	-100	0	230	101300000	1000	0	0	-1	800
14250995	5805	1842	0	-100	0	230	101300000	1000	0	0	-1	800
14263555	5805	1844	0	-100	0	230	101300000	1000	0	0	-1	800
14276115	5786	1843	0	-100	0	230	101300000	1000	0	0	-1	800
14288675	5814	1841	0	-100	0	230	101300000	1000	0	0	-1	800
14301235	5802	1831	0	-100	0	230	101300000	1000	0	0	-1	800
14313795	5806	1834	0	-100	0	230	101300000	1000	0	0	-1	800
14326355	5793	1833	0	-100	0	230	101300000	1000	0	0	-1	800
14338915	5799	1833	0	-100	0	230	101300000	1000	0	0	-1	800
14351475	5801	1837	0	-100	0	230	101300000	1000	0	0	-1	800
14364035	5801	1843	0	-100	0	230	101300000	1000	0	0	-1	800
14376595	5814	1841	0	-100	0	230	101300000	1000	0	0	-1	800
14389155	5799	1839	0	-100	0	230	101300000	1000	0	0	-1	800
14401715	5809	1840	0	-100	0	230	101300000	1000	0	0	-1	800
14414275	5801	1838	0	-100	0	230	101300000	1000	0	0	-1	800
14426835	5800	1835	0	-100	0	230	101300000	1000	0	0	-1	800
14439395	5793	1843	0	-100	0	230	101300000	1000	0	0	-1	800
14451955	5799	1837	0	-100	0	230	101300000	1000	0	0	-1	800
14464515	5804	1844	0	-100	0	230	101300000	1000	0	0	-1	800
14477075	5789	1845	0	-100	0	230	101300000	1000	0	0	-1	800
14489635	5806	1840	0	-100	0	230	101300000	1000	0	0	-1	800
14502195	5804	1834	0	-100	0	230	101300000	1000	0	0	-1	800
14514755	5796	1837	0	-100	0	230	101300000	1000	0	0	-1	800
14527315	5791	1836	0	-100	0	230	101300000	1000	0	0	-1	800
14539875	5803	1832	0	-100	0	230	101300000	1000	0	0	-1	800
14552435	5796	1837	0	-100	0	230	101300000	1000	0	0	-1	800
14564995	5798	1840	0	-100	0	230	101300000	1000	0	0	-1	800
14577555	5808	1828	0	-100	0	230	101300000	1000	0	0	-1	800
14590115	5805	1845	0	-100	0	230	101300000	1000	0	0	-1	800
14602675	5807	1843	0	-100	0	230	101300000	1000	0	0	-1	800
14615235	5808	1839	0	-100	0	230	101300000	1000	0	0	-1	800
14627795	5804	1842	0	-100	0	230	101300000	1000	0	0	-1	800
14640355	5803	1839	0	-100	0	230	101300000	1000	0	0	-1	800
14652915	5801	1840	0	-100	0	230	101300000	1000	0	0	-1	800
14665475	5809	1835	0	-100	0	230	101300000	1000	0	0	-1	800
14678035	5802	1835	0	-100	0	230	101300000	1000	0	0	-1	800
14690595	5808	1842	0	-100	0	230	101300000	1000	0	0	-1	800
14703155	5794	1847	0	-100	0	230	101300000	1000	0	0	-1	800
14715715	5801	1837	0	-100	0	230	101300000	1000	0	0	-1	800
14728275	5811	1835	0	-100	0	230	101300000	1000	0	0	-1	800
14740835	5797	1841	0	-100	0	230	101300000	1000	0	0	-1	800
14753395	5793	1844	0	-100	0	230	101300000	1000	0	0	-1	800
14765955	5794	1842	0	-100	0	230	101300000	1000	0	0	-1	800
14778515	5797	1827	0	-100	0	230	101300000	1000	0	0	-1	800
14791075	5797	1834	0	-100	0	230	101300000	1000	0	0	-1	800
14803635	5806	1827	0	-100	0	230	101300000	1000	0	0	-1	800
14816195	5796	1840	0	-100	0	230	101300000	1000	0	0	-1	800
14828755	5803	1839	0	-100	0	230	101300000	1000	0	0	-1	800
14841315	5789	1843	0	-100	0	230	101300000	1000	0	0	-1	800
14853875	5803	1843	0	-100	0	230	101300000	1000	0	0	-1	800
14866435	5797	1853	0	-100	0	230	101300000	1000	0	0	-1	800
14878995	5806	1843	0	-100	0	230	101300000	1000	0	0	-1	800
14891555	5796	1839	0	-100	0	230	101300000	1000	0	0	-1	800
14904115	5792	1841	0	-100	0	230	101300000	1000	0	0	-1	800
14916675	5794	1842	0	-100	0	230	101300000	1000	0	0	-1	800
14929235	5801	1841	0	-100	0	230	101300000	1000	0	0	-1	800
14941795	5801	1843	0	-100	0	230	101300000	1000	0	0	-1	800
14954355	5804	1834	0	-100	0	230	101300000	1000	0	0	-1	800
14966915	5797	1847	0	-100	0	230	101300000	1000	0	0	-1	800
14979475	5807	1838	0	-100	0	230	101300000	1000	0	0	-1	800
14992035	5801	1851	0	-100	0	230	101300000	1000	0	0	-1	800
15004595	5801	1839	0	-100	0	230	101300000	1000	0	0	-1	800
15017155	5803	1838	0	-100	0	230	101300000	1000	0	0	-1	800
15029715	5819	1839	0	-100	0	230	101300000	1000	0	0	-1	800
15042275	5794	1836	0	-100	0	230	101300000	1000	0	0	-1	800
15054835	5803	1830	0	-100	0	230	101300000	1000	0	0	-1	800
15067395	5801	1841	0	-100	0	230	101300000	1000	0	0	-1	800
15079955	5810	1840	0	-100	0	230	101300000	1000	0	0	-1	800
15092515	5805	1843	0	-100	0	230	101300000	1000	0	0	-1	800
15105075	5806	1842	0	-100	0	230	101300000	1000	0	0	-1	800
15117635	5806	1841	0	-100	0	230	101300000	1000	0	0	-1	800
15130195	5805	1837	0	-100	0	230	101300000	1000	0	0	-1	800
15142755	5785	1838	0	-100	0	230	101300000	1000	0	0	-1	800
15155315	5799	1838	0	-100	0	230	101300000	1000	0	0	-1	800
15167875	5800	1838	0	-100	0	230	101300000	1000	0	0	-1	800
15180435	5792	1848	0	-100	0	230	101300000	1000	0	0	-1	800
15192995	5799	1844	0	-100	0	230	101300000	1000	0	0	-1	800
15205555	5798	1837	0	-100	0	230	101300000	1000	0	0	-1	800
15218115	5801	1844	0	-100	0	230	101300000	1000	0	0	-1	800
15230675	5801	1836	0	-100	0	230	101300000	1000	0	0	-1	800
15243235	5809	1839	0	-100	0	230	101300000	1000	0	0	-1	800
15255795	5802	1841	0	-100	0	230	101300000	1000	0	0	-1	800
15268355	5799	1837	0	-100	0	230	101300000	1000	0	0	-1	800
15280915	5805	1842	0	-100	0	230	101300000	1000	0	0	-1	800
15293475	5795	1845	0	-100	0	230	101300000	1000	0	0	-1	800
15306035	5802	1836	0	-100	0	230	101300000	1000	0	0	-1	800
15318595	5798	1838	0	-100	0	230	101300000	1000	0	0	-1	800
15331155	5807	1833	0	-100	0	230	101300000	1000	0	0	-1	800
15343715	5791	1839	0	-100	0	230	101300000	1000	0	0	-1	800
15356275	5796	1841	0	-100	0	230	101300000	1000	0	0	-1	800
15368835	5802	1835	0	-100	0	230	101300000	1000	0	0	-1	800
15381395	5797	1830	0	-100	0	230	101300000	1000	0	0	-1	800
15393955	5816	1849	0	-100	0	230	101300000	1000	0	0	-1	800
15406515	5789	1832	0	-100	0	230	101300000	1000	0	0	-1	800
15419075	5800	1840	0	-100	0	230	101300000	1000	0	0	-1	800
15431635	5795	1834	0	-100	0	230	101300000	1000	0	0	-1	800
15444195	5807	1842	0	-100	0	230	101300000	1000	0	0	-1	800
15456755	5807	1838	0	-100	0	230	101300000	1000	0	0	-1	800
15469315	5784	1841	0	-100	0	230	101300000	1000	0	0	-1	800
15481875	5808	1842	0	-100	0	230	101300000	1000	0	0	-1	800
15494435	5793	1847	0	-100	0	230	101300000	1000	0	0	-1	800
15506995	5808	1852	0	-100	0	230	101300000	1000	0	0	-1	800
15519555	5798	1839	0	-100	0	230	101300000	1000	0	0	-1	800
15532115	5786	1841	0	-100	0	230	101300000	1000	0	0	-1	800
15544675	5793	1838	0	-100	0	230	101300000	1000	0	0	-1	800
15557235	5794	1844	0	-100	0	230	101300000	1000	0	0	-1	800
15569795	5809	1840	0	-100	0	230	101300000	1000	0	0	-1	800
15582355	5805	1837	0	-100	0	230	101300000	1000	0	0	-1	800
15594915	5794	1840	0	-100	0	230	101300000	1000	0	0	-1	800
15607475	5806	1842	0	-100	0	230	101300000	1000	0	0	-1	800
15620035	5807	1831	0	-100	0	230	101300000	1000	0	0	-1	800
15632595	5802	1845	0	-100	0	230	101300000	1000	0	0	-1	800
15645155	5803	1846	0	-100	0	230	101300000	1000	0	0	-1	800
15657715	5797	1834	0	-100	0	230	101300000	1000	0	0	-1	800
15670275	5814	1845	0	-100	0	230	101300000	1000	0	0	-1	800
15682835	5803	1851	0	-100	0	230	101300000	1000	0	0	-1	800
15695395	5798	1842	0	-100	0	230	101300000	1000	0	0	-1	800
15707955	5798	1838	0	-100	0	230	101300000	1000	0	0	-1	800
15720515	5803	1846	0	-100	0	230	101300000	1000	0	0	-1	800
15733075	5798	1831	0	-100	0	230	101300000	1000	0	0	-1	800
15745635	5797	1848	0	-100	0	230	101300000	1000	0	0	-1	800
15758195	5801	1838	0	-100	0	230	101300000	1000	0	0	-1	800
15770755	5791	1840	0	-100	0	230	101300000	1000	0	0	-1	800
15783315	5800	1832	0	-100	0	230	101300000	1000	0	0	-1	800
15795875	5797	1841	0	-100	0	230	101300000	1000	0	0	-1	800
15808435	5794	1841	0	-100	0	230	101300000	1000	0	0	-1	800
15820995	5807	1842	0	-100	0	230	101300000	1000	0	0	-1	800
15833555	5803	1838	0	-100	0	230	101300000	1000	0	0	-1	800
15846115	5796	1835	0	-100	0	230	101300000	1000	0	0	-1	800
15858675	5802	1842	0	-100	0	230	101300000	1000	0	0	-1	800
15871235	5808	1834	0	-100	0	230	101300000	1000	0	0	-1	800
15883795	5805	1843	0	-100	0	230	101300000	1000	0	0	-1	800
15896355	5793	1839	0	-100	0	230	101300000	1000	0	0	-1	800
15908915	5800	1836	0	-100	0	230	101300000	1000	0	0	-1	800
15921475	5800	1853	0	-100	0	230	101300000	1000	0	0	-1	800
15934035	5810	1832	0	-100	0	230	101300000	1000	0	0	-1	800
15946595	5809	1835	0	-100	0	230	101300000	1000	0	0	-1	800
15959155	5806	1843	0	-100	0	230	101300000	1000	0	0	-1	800
15971715	5804	1842	0	-100	0	230	101300000	1000	0	0	-1	800
15984275	5809	1851	0	-100	0	230	101300000	1000	0	0	-1	800
15996835	5800	1834	0	-100	0	230	101300000	1000	0	0	-1	800
16009395	5807	1844	0	-100	0	230	101300000	1000	0	0	-1	800
16021955	5797	1836	0	-100	0	230	101300000	1000	0	0	-1	800
16034515	5802	1834	0	-100	0	230	101300000	1000	0	0	-1	800
16047075	5794	1840	0	-100	0	230	101300000	1000	0	0	-1	800
16059635	5806	1833	0	-100	0	230	101300000	1000	0	0	-1	800
16072195	5795	1838	0	-100	0	230	101300000	1000	0	0	-1	800
16084755	5804	1841	0	-100	0	230	101300000	1000	0	0	-1	800
16097315	5795	1843	0	-100	0	230	101300000	1000	0	0	-1	800
16109875	5796	1831	0	-100	0	230	101300000	1000	0	0	-1	800
16122435	5802	1841	0	-100	0	230	101300000	1000	0	0	-1	800
16134995	5804	1840	0	-100	0	230	101300000	1000	0	0	-1	800
16147555	5806	1843	0	-100	0	230	101300000	1000	0	0	-1	800
16160115	5805	1842	0	-100	0	230	101300000	1000	0	0	-1	800
16172675	5799	1837	0	-100	0	230	101300000	1000	0	0	-1	800
16185235	5795	1843	0	-100	0	230	101300000	1000	0	0	-1	800
16197795	5793	1839	0	-100	0	230	101300000	1000	0	0	-1	800
16210355	5797	1841	0	-100	0	230	101300000	1000	0	0	-1	800
16222915	5795	1836	0	-100	0	230	101300000	1000	0	0	-1	800
16235475	5798	1839	0	-100	0	230	101300000	1000	0	0	-1	800
16248035	5799	1828	0	-100	0	230	101300000	1000	0	0	-1	800
16260595	5805	1846	0	-100	0	230	101300000	1000	0	0	-1	800
16273155	5794	1834	0	-100	0	230	101300000	1000	0	0	-1	800
16285715	5796	1836	0	-100	0	230	101300000	1000	0	0	-1	800
16298275	5798	1840	0	-100	0	230	101300000	1000	0	0	-1	800
16310835	5803	1836	0	-100	0	230	101300000	1000	0	0	-1	800
16323395	5802	1842	0	-100	0	230	101300000	1000	0	0	-1	800
16335955	5806	1836	0	-100	0	230	101300000	1000	0	0	-1	800
16348515	5795	1835	0	-100	0	230	101300000	1000	0	0	-1	800
16361075	5815	1843	0	-100	0	230	101300000	1000	0	0	-1	800
16373635	5806	1845	0	-100	0	230	101300000	1000	0	0	-1	800
16386195	5806	1842	0	-100	0	230	101300000	1000	0	0	-1	800
16398755	5790	1840	0	-100	0	230	101300000	1000	0	0	-1	800
16411315	5802	1845	0	-100	0	230	101300000	1000	0	0	-1	800
16423875	5801	1842	0	-100	0	230	101300000	1000	0	0	-1	800
16436435	5809	1841	0	-100	0	230	101300000	1000	0	0	-1	800
16448995	5804	1837	0	-100	0	230	101300000	1000	0	0	-1	800
16461555	5801	1837	0	-100	0	230	101300000	1000	0	0	-1	800
16474115	5794	1838	0	-100	0	230	101300000	1000	0	0	-1	800
16486675	5796	1839	0	-100	0	230	101300000	1000	0	0	-1	800
16499235	5799	1841	0	-100	0	230	101300000	1000	0	0	-1	800
16511795	5801	1838	0	-100	0	230	101300000	1000	0	0	-1	800
16524355	5804	1845	0	-100	0	230	101300000	1000	0	0	-1	800
16536915	5799	1843	0	-100	0	230	101300000	1000	0	0	-1	800
16549475	5789	1849	0	-100	0	230	101300000	1000	0	0	-1	800
16562035	5812	1838	0	-100	0	230	101300000	1000	0	0	-1	800
16574595	5809	1839	0	-100	0	230	101300000	1000	0	0	-1	800
16587155	5815	1843	0	-100	0	230	101300000	1000	0	0	-1	800
16599715	5805	1838	0	-100	0	230	101300000	1000	0	0	-1	800
16612275	5808	1837	0	-100	0	230	101300000	1000	0	0	-1	800
16624835	5804	1833	0	-100	0	230	101300000	1000	0	0	-1	800
16637395	5801	1838	0	-100	0	230	101300000	1000	0	0	-1	800
16649955	5814	1837	0	-100	0	230	101300000	1000	0	0	-1	800
16662515	5798	1839	0	-100	0	230	101300000	1000	0	0	-1	800
16675075	5795	1844	0	-100	0	230	101300000	1000	0	0	-1	800
16687635	5804	1843	0	-100	0	230	101300000	1000	0	0	-1	800
16700195	5806	1836	0	-100	0	230	101300000	1000	0	0	-1	800
16712755	5809	1846	0	-100	0	230	101300000	1000	0	0	-1	800
16725315	5789	1844	0	-100	0	230	101300000	1000	0	0	-1	800
16762995	5802	1841	0	-100	0	230	101300000	1000	0	0	-1	800
16775555	5801	1841	0	-100	0	230	101300000	1000	0	0	-1	800
16788115	5793	1843	0	-100	0	230	101300000	1000	0	0	-1	800
16800675	5804	1832	0	-100	0	230	101300000	1000	0	0	-1	800
16813235	5801	1838	0	-100	0	230	101300000	1000	0	0	-1	800
16825795	5803	1829	0	-100	0	230	101300000	1000	0	0	-1	800
16838355	5801	1833	0	-100	0	230	101300000	1000	0	0	-1	800
16850915	5802	1844	0	-100	0	230	101300000	1000	0	0	-1	800
16863475	5804	1838	0	-100	0	230	101300000	1000	0	0	-1	800
16876035	5808	1840	0	-100	0	230	101300000	1000	0	0	-1	800
16888595	5796	1836	0	-100	0	230	101300000	1000	0	0	-1	800
16901155	5801	1840	0	-100	0	230	101300000	1000	0	0	-1	800
16963955	5809	1835	0	-100	0	230	101300000	1000	0	0	-1	800
16976515	5797	1841	0	-100	0	230	101300000	1000	0	0	-1	800
16989075	5801	1837	0	-100	0	230	101300000	1000	0	0	-1	800
17001635	5809	1834	0	-100	0	230	101300000	1000	0	0	-1	800
17014195	5793	1840	0	-100	0	230	101300000	1000	0	0	-1	800
17026755	5801	1827	0	-100	0	230	101300000	1000	0	0	-1	800
17039315	5794	1845	0	-100	0	230	101300000	1000	0	0	-1	800
17051875	5813	1835	0	-100	0	230	101300000	1000	0	0	-1	800
17064435	5799	1836	0	-100	0	230	101300000	1000	0	0	-1	800
17076995	5811	1839	0	-100	0	230	101300000	1000	0	0	-1	800
17089555	5803	1835	0	-100	0	230	101300000	1000	0	0	-1	800
17102115	5794	1837	0	-100	0	230	101300000	1000	0	0	-1	800
17139795	5797	1848	0	-100	0	230	101300000	1000	0	0	-1	800
17152355	5804	1842	0	-100	0	230	101300000	1000	0	0	-1	800
17164915	5799	1838	0	-100	0	230	101300000	1000	0	0	-1	800
17177475	5793	1835	0	-100	0	230	101300000	1000	0	0	-1	800
17190035	5803	1846	0	-100	0	230	101300000	1000	0	0	-1	800
17202595	5799	1830	0	-100	0	230	101300000	1000	0	0	-1	800
17215155	5799	1841	0	-100	0	230	101300000	1000	0	0	-1	800
17227715	5801	1832	0	-100	0	230	101300000	1000	0	0	-1	800
17240275	5805	1834	0	-100	0	230	101300000	1000	0	0	-1	800
17252835	5814	1828	0	-100	0	230	101300000	1000	0	0	-1	800
17265395	5801	1833	0	-100	0	230	101300000	1000	0	0	-1	800
17277955	5808	1828	0	-100	0	230	101300000	1000	0	0	-1	800
17290515	5808	1835	0	-100	0	230	101300000	1000	0	0	-1	800
17303075	5801	1840	0	-100	0	230	101300000	1000	0	0	-1	800
17315635	5801	1841	0	-100	0	230	101300000	1000	0	0	-1	800
17328195	5798	1845	0	-100	0	230	101300000	1000	0	0	-1	800
17340755	5798	1838	0	-100	0	230	101300000	1000	0	0	-1	800
17353315	5804	1837	0	-100	0	230	101300000	1000	0	0	-1	800
17365875	5797	1841	0	-100	0	230	101300000	1000	0	0	-1	800
17378435	5806	1835	0	-100	0	230	101300000	1000	0	0	-1	800
17390995	5810	1831	0	-100	0	230	101300000	1000	0	0	-1	800
17403555	5805	1834	0	-100	0	230	101300000	1000	0	0	-1	800
17416115	5795	1838	0	-100	0	230	101300000	1000	0	0	-1	800
17428675	5796	1839	0	-100	0	230	101300000	1000	0	0	-1	800
17441235	5804	1839	0	-100	0	230	101300000	1000	0	0	-1	800
17453795	5789	1841	0	-100	0	230	101300000	1000	0	0	-1	800
17466355	5814	1844	0	-100	0	230	101300000	1000	0	0	-1	800
17478915	5794	1841	0	-100	0	230	101300000	1000	0	0	-1	800
17491475	5802	1830	0	-100	0	230	101300000	1000	0	0	-1	800
17504035	5796	1843	0	-100	0	230	101300000	1000	0	0	-1	800
17516595	5805	1840	0	-100	0	230	101300000	1000	0	0	-1	800
17529155	5793	1841	0	-100	0	230	101300000	1000	0	0	-1	800
17541715	5801	1844	0	-100	0	230	101300000	1000	0	0	-1	800
17554275	5798	1842	0	-100	0	230	101300000	1000	0	0	-1	800
17566835	5809	1836	0	-100	0	230	101300000	1000	0	0	-1	800
17579395	5808	1832	0	-100	0	230	101300000	1000	0	0	-1	800
17591955	5795	1841	0	-100	0	230	101300000	1000	0	0	-1	800
17604515	5798	1832	0	-100	0	230	101300000	1000	0	0	-1	800
17617075	5813	1844	0	-100	0	230	101300000	1000	0	0	-1	800
17629635	5803	1831	0	-100	0	230	101300000	1000	0	0	-1	800
17642195	5810	1843	0	-100	0	230	101300000	1000	0	0	-1	800
17654755	5794	1835	0	-100	0	230	101300000	1000	0	0	-1	800
17667315	5800	1836	0	-100	0	230	101300000	1000	0	0	-1	800
17679875	5798	1847	0	-100	0	230	101300000	1000	0	0	-1	800
17692435	5810	1840	0	-100	0	230	101300000	1000	0	0	-1	800
17704995	5803	1839	0	-100	0	230	101300000	1000	0	0	-1	800
17717555	5801	1833	0	-100	0	230	101300000	1000	0	0	-1	800
17730115	5790	1833	0	-100	0	230	101300000	1000	0	0	-1	800
17742675	5805	1842	0	-100	0	230	101300000	1000	0	0	-1	800
17755235	5799	1836	0	-100	0	230	101300000	1000	0	0	-1	800
17767795	5809	1845	0	-100	0	230	101300000	1000	0	0	-1	800
17780355	5801	1838	0	-100	0	230	101300000	1000	0	0	-1	800
17792915	5811	1833	0	-100	0	230	101300000	1000	0	0	-1	800
17805475	5793	1829	0	-100	0	230	101300000	1000	0	0	-1	800
17818035	5805	1833	0	-100	0	230	101300000	1000	0	0	-1	800
17830595	5810	1840	0	-100	0	230	101300000	1000	0	0	-1	800
17843155	5806	1834	0	-100	0	230	101300000	1000	0	0	-1	800
17855715	5805	1836	0	-100	0	230	101300000	1000	0	0	-1	800
17868275	5793	1839	0	-100	0	230	101300000	1000	0	0	-1	800
17880835	5787	1831	0	-100	0	230	101300000	1000	0	0	-1	800
17893395	5807	1832	0	-100	0	230	101300000	1000	0	0	-1	800
17905955	5799	1828	0	-100	0	230	101300000	1000	0	0	-1	800
17918515	5802	1834	0	-100	0	230	101300000	1000	0	0	-1	800
17931075	5813	1839	0	-100	0	230	101300000	1000	0	0	-1	800
17943635	5796	1839	0	-100	0	230	101300000	1000	0	0	-1	800
17956195	5794	1839	0	-100	0	230	101300000	1000	0	0	-1	800
17968755	5796	1838	0	-100	0	230	101300000	1000	0	0	-1	800
17981315	5787	1841	0	-100	0	230	101300000	1000	0	0	-1	800
17993875	5799	1838	0	-100	0	230	101300000	1000	0	0	-1	800
18006435	5809	1841	0	-100	0	230	101300000	1000	0	0	-1	800
18018995	5800	1838	0	-100	0	230	101300000	1000	0	0	-1	800
18031555	5805	1848	0	-100	0	230	101300000	1000	0	0	-1	800
18044115	5792	1836	0	-100	0	230	101300000	1000	0	0	-1	800
18056675	5808	1833	0	-100	0	230	101300000	1000	0	0	-1	800
18069235	5801	1846	0	-100	0	230	101300000	1000	0	0	-1	800
18081795	5805	1832	0	-100	0	230	101300000	1000	0	0	-1	800
18094355	5808	1839	0	-100	0	230	101300000	1000	0	0	-1	800
18106915	5803	1837	0	-100	0	230	101300000	1000	0	0	-1	800
18119475	5789	1848	0	-100	0	230	101300000	1000	0	0	-1	800
18132035	5805	1831	0	-100	0	230	101300000	1000	0	0	-1	800
18144595	5805	1846	0	-100	0	230	101300000	1000	0	0	-1	800
18157155	5814	1838	0	-100	0	230	101300000	1000	0	0	-1	800
18169715	5801	1831	0	-100	0	230	101300000	1000	0	0	-1	800
18182275	5803	1836	0	-100	0	230	101300000	1000	0	0	-1	800
18194835	5808	1835	0	-100	0	230	101300000	1000	0	0	-1	800
18207395	5795	1838	0	-100	0	230	101300000	1000	0	0	-1	800
18219955	5806	1834	0	-100	0	230	101300000	1000	0	0	-1	800
18232515	5798	1847	0	-100	0	230	101300000	1000	0	0	-1	800
18245075	5804	1839	0	-100	0	230	101300000	1000	0	0	-1	800
18257635	5805	1844	0	-100	0	230	101300000	1000	0	0	-1	800
18270195	5799	1836	0	-100	0	230	101300000	1000	0	0	-1	800
18282755	5810	1834	0	-100	0	230	101300000	1000	0	0	-1	800
18295315	5790	1841	0	-100	0	230	101300000	1000	0	0	-1	800
18307875	5804	1837	0	-100	0	230	101300000	1000	0	0	-1	800
18320435	5816	1850	0	-100	0	230	101300000	1000	0	0	-1	800
18332995	5802	1838	0	-100	0	230	101300000	1000	0	0	-1	800
18345555	5806	1833	0	-100	0	230	101300000	1000	0	0	-1	800
18358115	5802	1838	0	-100	0	230	101300000	1000	0	0	-1	800
18370675	5795	1841	0	-100	0	230	101300000	1000	0	0	-1	800
18383235	5804	1835	0	-100	0	230	101300000	1000	0	0	-1	800
18395795	5795	1842	0	-100	0	230	101300000	1000	0	0	-1	800
18408355	5799	1850	0	-100	0	230	101300000	1000	0	0	-1	800
18420915	5805	1835	0	-100	0	230	101300000	1000	0	0	-1	800
18433475	5791	1845	0	-100	0	230	101300000	1000	0	0	-1	800
18446035	5796	1834	0	-100	0	230	101300000	1000	0	0	-1	800
18458595	5800	1842	0	-100	0	230	101300000	1000	0	0	-1	800
18471155	5794	1842	0	-100	0	230	101300000	1000	0	0	-1	800
18483715	5810	1835	0	-100	0	230	101300000	1000	0	0	-1	800
18496275	5816	1842	0	-100	0	230	101300000	1000	0	0	-1	800
18508835	5805	1837	0	-100	0	230	101300000	1000	0	0	-1	800
18521395	5798	1834	0	-100	0	230	101300000	1000	0	0	-1	800
18533955	5794	1834	0	-100	0	230	101300000	1000	0	0	-1	800
18546515	5795	1835	0	-100	0	230	101300000	1000	0	0	-1	800
18559075	5799	1845	0	-100	0	230	101300000	1000	0	0	-1	800
18571635	5794	1838	0	-100	0	230	101300000	1000	0	0	-1	800
18584195	5797	1838	0	-100	0	230	101300000	1000	0	0	-1	800
18596755	5800	1838	0	-100	0	230	101300000	1000	0	0	-1	800
18609315	5792	1839	0	-100	0	230	101300000	1000	0	0	-1	800
18621875	5797	1843	0	-100	0	230	101300000	1000	0	0	-1	800
18634435	5811	1840	0	-100	0	230	101300000	1000	0	0	-1	800
18646995	5802	1838	0	-100	0	230	101300000	1000	0	0	-1	800
18659555	5802	1844	0	-100	0	230	101300000	1000	0	0	-1	800
18672115	5794	1840	0	-100	0	230	101300000	1000	0	0	-1	800
18684675	5811	1832	0	-100	0	230	101300000	1000	0	0	-1	800
18697235	5809	1837	0	-100	0	230	101300000	1000	0	0	-1	800
18709795	5803	1847	0	-100	0	230	101300000	1000	0	0	-1	800
18722355	5815	1842	0	-100	0	230	101300000	1000	0	0	-1	800
18734915	5798	1842	0	-100	0	230	101300000	1000	0	0	-1	800
18747475	5805	1835	0	-100	0	230	101300000	1000	0	0	-1	800
18760035	5802	1847	0	-100	0	230	101300000	1000	0	0	-1	800
18772595	5790	1835	0	-100	0	230	101300000	1000	0	0	-1	800
18785155	5801	1831	0	-100	0	230	101300000	1000	0	0	-1	800
18797715	5795	1842	0	-100	0	230	101300000	1000	0	0	-1	800
18810275	5807	1839	0	-100	0	230	101300000	1000	0	0	-1	800
18822835	5801	1837	0	-100	0	230	101300000	1000	0	0	-1	800
18835395	5801	1847	0	-100	0	230	101300000	1000	0	0	-1	800
18847955	5814	1848	0	-100	0	230	101300000	1000	0	0	-1	800
18860515	5798	1840	0	-100	0	230	101300000	1000	0	0	-1	800
18873075	5810	1834	0	-100	0	230	101300000	1000	0	0	-1	800
18885635	5813	1842	0	-100	0	230	101300000	1000	0	0	-1	800
18898195	5807	1838	0	-100	0	230	101300000	1000	0	0	-1	800
18910755	5803	1843	0	-100	0	230	101300000	1000	0	0	-1	800
18923315	5794	1840	0	-100	0	230	101300000	1000	0	0	-1	800
18935875	5806	1835	0	-100	0	230	101300000	1000	0	0	-1	800
18948435	5805	1841	0	-100	0	230	101300000	1000	0	0	-1	800
18960995	5797	1832	0	-100	0	230	101300000	1000	0	0	-1	800
18973555	5804	1841	0	-100	0	230	101300000	1000	0	0	-1	800
18986115	5806	1840	0	-100	0	230	101300000	1000	0	0	-1	800
18998675	5797	1845	0	-100	0	230	101300000	1000	0	0	-1	800
19011235	5801	1838	0	-100	0	230	101300000	1000	0	0	-1	800
19023795	5809	1837	0	-100	0	230	101300000	1000	0	0	-1	800
19036355	5801	1845	0	-100	0	230	101300000	1000	0	0	-1	800
19048915	5798	1831	0	-100	0	230	101300000	1000	0	0	-1	800
19061475	5804	1844	0	-100	0	230	101300000	1000	0	0	-1	800
19074035	5805	1841	0	-100	0	230	101300000	1000	0	0	-1	800
19086595	5801	1844	0	-100	0	230	101300000	1000	0	0	-1	800
19099155	5805	1838	0	-100	0	230	101300000	1000	0	0	-1	800
19111715	5808	1839	0	-100	0	230	101300000	1000	0	0	-1	800
19124275	5792	1844	0	-100	0	230	101300000	1000	0	0	-1	800
19136835	5789	1840	0	-100	0	230	101300000	1000	0	0	-1	800
19149395	5812	1831	0	-100	0	230	101300000	1000	0	0	-1	800
19161955	5792	1839	0	-100	0	230	101300000	1000	0	0	-1	800
19174515	5805	1836	0	-100	0	230	101300000	1000	0	0	-1	800
19187075	5803	1836	0	-100	0	230	101300000	1000	0	0	-1	800
19199635	5810	1833	0	-100	0	230	101300000	1000	0	0	-1	800
19212195	5798	1843	0	-100	0	230	101300000	1000	0	0	-1	800
19224755	5801	1844	0	-100	0	230	101300000	1000	0	0	-1	800
19237315	5804	1839	0	-100	0	230	101300000	1000	0	0	-1	800
19249875	5805	1841	0	-100	0	230	101300000	1000	0	0	-1	800
19262435	5804	1840	0	-100	0	230	101300000	1000	0	0	-1	800
19274995	5808	1835	0	-100	0	230	101300000	1000	0	0	-1	800
19287555	5792	1843	0	-100	0	230	101300000	1000	0	0	-1	800
19300115	5796	1845	0	-100	0	230	101300000	1000	0	0	-1	800
19312675	5805	1837	0	-100	0	230	101300000	1000	0	0	-1	800
19325235	5805	1837	0	-100	0	230	101300000	1000	0	0	-1	800
19337795	5802	1843	0	-100	0	230	101300000	1000	0	0	-1	800
19350355	5800	1835	0	-100	0	230	101300000	1000	0	0	-1	800
19362915	5800	1835	0	-100	0	230	101300000	1000	0	0	-1	800
19375475	5807	1847	0	-100	0	230	101300000	1000	0	0	-1	800
19388035	5808	1844	0	-100	0	230	101300000	1000	0	0	-1	800
19400595	5808	1838	0	-100	0	230	101300000	1000	0	0	-1	800
19413155	5791	1837	0	-100	0	230	101300000	1000	0	0	-1	800
19425715	5799	1841	0	-100	0	230	101300000	1000	0	0	-1	800
19438275	5792	1843	0	-100	0	230	101300000	1000	0	0	-1	800
19450835	5811	1838	0	-100	0	230	101300000	1000	0	0	-1	800
19463395	5804	1835	0	-100	0	230	101300000	1000	0	0	-1	800
19475955	5798	1834	0	-100	0	230	101300000	1000	0	0	-1	800
19488515	5815	1834	0	-100	0	230	101300000	1000	0	0	-1	800
19501075	5793	1843	0	-100	0	230	101300000	1000	0	0	-1	800
19513635	5796	1827	0	-100	0	230	101300000	1000	0	0	-1	800
19526195	5794	1832	0	-100	0	230	101300000	1000	0	0	-1	800
19538755	5803	1831	0	-100	0	230	101300000	1000	0	0	-1	800
19551315	5794	1843	0	-100	0	230	101300000	1000	0	0	-1	800
19563875	5803	1848	0	-100	0	230	101300000	1000	0	0	-1	800
19576435	5794	1838	0	-100	0	230	101300000	1000	0	0	-1	800
19588995	5809	1839	0	-100	0	230	101300000	1000	0	0	-1	800
19601555	5803	1840	0	-100	0	230	101300000	1000	0	0	-1	800
19614115	5789	1834	0	-100	0	230	101300000	1000	0	0	-1	800
19626675	5798	1840	0	-100	0	230	101300000	1000	0	0	-1	800
19639235	5805	1842	0	-100	0	230	101300000	1000	0	0	-1	800
19651795	5811	1838	0	-100	0	230	101300000	1000	0	0	-1	800
19664355	5796	1839	0	-100	0	230	101300000	1000	0	0	-1	800
19676915	5804	1840	0	-100	0	230	101300000	1000	0	0	-1	800
19689475	5804	1842	0	-100	0	230	101300000	1000	0	0	-1	800
19702035	5799	1843	0	-100	0	230	101300000	1000	0	0	-1	800
19714595	5798	1837	0	-100	0	230	101300000	1000	0	0	-1	800
19727155	5810	1841	0	-100	0	230	101300000	1000	0	0	-1	800
19739715	5803	1841	0	-100	0	230	101300000	1000	0	0	-1	800
19752275	5792	1843	0	-100	0	230	101300000	1000	0	0	-1	800
19764835	5793	1840	0	-100	0	230	101300000	1000	0	0	-1	800
19777395	5813	1836	0	-100	0	230	101300000	1000	0	0	-1	800
19789955	5806	1832	0	-100	0	230	101300000	1000	0	0	-1	800
19802515	5797	1838	0	-100	0	230	101300000	1000	0	0	-1	800
19815075	5801	1844	0	-100	0	230	101300000	1000	0	0	-1	800
19852755	5799	1834	0	-100	0	230	101300000	1000	0	0	-1	800
19865315	5787	1840	0	-100	0	230	101300000	1000	0	0	-1	800
19877875	5795	1844	0	-100	0	230	101300000	1000	0	0	-1	800
19890435	5805	1841	0	-100	0	230	101300000	1000	0	0	-1	800
19902995	5803	1845	0	-100	0	230	101300000	1000	0	0	-1	800
19915555	5794	1847	0	-100	0	230	101300000	1000	0	0	-1	800
19928115	5786	1838	0	-100	0	230	101300000	1000	0	0	-1	800
19940675	5805	1848	0	-100	0	230	101300000	1000	0	0	-1	800
19953235	5813	1835	0	-100	0	230	101300000	1000	0	0	-1	800
19965795	5802	1833	0	-100	0	230	101300000	1000	0	0	-1	800
19978355	5795	1838	0	-100	0	230	101300000	1000	0	0	-1	800
19990915	5804	1830	0	-100	0	230	101300000	1000	0	0	-1	800
20053715	5798	1828	0	-100	0	230	101300000	1000	0	0	-1	800
20066275	5799	1840	0	-100	0	230	101300000	1000	0	0	-1	800
20078835	5803	1844	0	-100	0	230	101300000	1000	0	0	-1	800
20091395	5799	1836	0	-100	0	230	101300000	1000	0	0	-1	800
20103955	5792	1839	0	-100	0	230	101300000	1000	0	0	-1	800
20116515	5798	1833	0	-100	0	230	101300000	1000	0	0	-1	800
20129075	5803	1843	0	-100	0	230	101300000	1000	0	0	-1	800
20141635	5790	1842	0	-100	0	230	101300000	1000	0	0	-1	800
20154195	5808	1839	0	-100	0	230	101300000	1000	0	0	-1	800
20166755	5806	1833	0	-100	0	230	101300000	1000	0	0	-1	800
20179315	5794	1840	0	-100	0	230	101300000	1000	0	0	-1	800
20191875	5809	1839	0	-100	0	230	101300000	1000	0	0	-1	800
20204435	5801	1839	0	-100	0	230	101300000	1000	0	0	-1	800
20216995	5798	1838	0	-100	0	230	101300000	1000	0	0	-1	800
20229555	5797	1846	0	-100	0	230	101300000	1000	0	0	-1	800
20242115	5791	1849	0	-100	0	230	101300000	1000	0	0	-1	800
20254675	5800	1832	0	-100	0	230	101300000	1000	0	0	-1	800
20267235	5806	1837	0	-100	0	230	101300000	1000	0	0	-1	800
20279795	5803	1836	0	-100	0	230	101300000	1000	0	0	-1	800
20292355	5803	1842	0	-100	0	230	101300000	1000	0	0	-1	800
20304915	5794	1843	0	-100	0	230	101300000	1000	0	0	-1	800
20317475	5807	1846	0	-100	0	230	101300000	1000	0	0	-1	800
20330035	5803	1843	0	-100	0	230	101300000	1000	0	0	-1	800
20342595	5804	1841	0	-100	0	230	101300000	1000	0	0	-1	800
20355155	5794	1836	0	-100	0	230	101300000	1000	0	0	-1	800
20367715	5803	1825	0	-100	0	230	101300000	1000	0	0	-1	800
20380275	5809	1842	0	-100	0	230	101300000	1000	0	0	-1	800
20392835	5801	1846	0	-100	0	230	101300000	1000	0	0	-1	800
20405395	5799	1841	0	-100	0	230	101300000	1000	0	0	-1	800
20417955	5802	1845	0	-100	0	230	101300000	1000	0	0	-1	800
20430515	5794	1835	0	-100	0	230	101300000	1000	0	0	-1	800
20443075	5812	1833	0	-100	0	230	101300000	1000	0	0	-1	800
20455635	5805	1839	0	-100	0	230	101300000	1000	0	0	-1	800
20468195	5798	1837	0	-100	0	230	101300000	1000	0	0	-1	800
20480755	5802	1834	0	-100	0	230	101300000	1000	0	0	-1	800
20493315	5798	1837	0	-100	0	230	101300000	1000	0	0	-1	800
20505875	5796	1836	0	-100	0	230	101300000	1000	0	0	-1	800
20518435	5802	1849	0	-100	0	230	101300000	1000	0	0	-1	800
20530995	5799	1837	0	-100	0	230	101300000	1000	0	0	-1	800
20543555	5810	1838	0	-100	0	230	101300000	1000	0	0	-1	800
20556115	5790	1857	0	-100	0	230	101300000	1000	0	0	-1	800
20568675	5801	1836	0	-100	0	230	101300000	1000	0	0	-1	800
20581235	5804	1833	0	-100	0	230	101300000	1000	0	0	-1	800
20593795	5805	1835	0	-100	0	230	101300000	1000	0	0	-1	800
20606355	5796	1837	0	-100	0	230	101300000	1000	0	0	-1	800
20618915	5797	1839	0	-100	0	230	101300000	1000	0	0	-1	800
20631475	5813	1847	0	-100	0	230	101300000	1000	0	0	-1	800
20644035	5809	1842	0	-100	0	230	101300000	1000	0	0	-1	800
20656595	5795	1840	0	-100	0	230	101300000	1000	0	0	-1	800
20669155	5810	1842	0	-100	0	230	101300000	1000	0	0	-1	800
20681715	5806	1837	0	-100	0	230	101300000	1000	0	0	-1	800
20694275	5805	1838	0	-100	0	230	101300000	1000	0	0	-1	800
20706835	5805	1853	0	-100	0	230	101300000	1000	0	0	-1	800
20719395	5799	1843	0	-100	0	230	101300000	1000	0	0	-1	800
20731955	5803	1846	0	-100	0	230	101300000	1000	0	0	-1	800
20744515	5811	1838	0	-100	0	230	101300000	1000	0	0	-1	800
20757075	5814	1843	0	-100	0	230	101300000	1000	0	0	-1	800
20769635	5805	1837	0	-100	0	230	101300000	1000	0	0	-1	800
20782195	5801	1841	0	-100	0	230	101300000	1000	0	0	-1	800
20794755	5804	1841	0	-100	0	230	101300000	1000	0	0	-1	800
20807315	5791	1840	0	-100	0	230	101300000	1000	0	0	-1	800
20819875	5817	1836	0	-100	0	230	101300000	1000	0	0	-1	800
20832435	5799	1839	0	-100	0	230	101300000	1000	0	0	-1	800
20844995	5801	1838	0	-100	0	230	101300000	1000	0	0	-1	800
20857555	5801	1834	0	-100	0	230	101300000	1000	0	0	-1	800
20870115	5799	1838	0	-100	0	230	101300000	1000	0	0	-1	800
20882675	5811	1843	0	-100	0	230	101300000	1000	0	0	-1	800
20895235	5794	1848	0	-100	0	230	101300000	1000	0	0	-1	800
20907795	5801	1837	0	-100	0	230	101300000	1000	0	0	-1	800
20920355	5802	1831	0	-100	0	230	101300000	1000	0	0	-1	800
20932915	5814	1835	0	-100	0	230	101300000	1000	0	0	-1	800
20945475	5792	1828	0	-100	0	230	101300000	1000	0	0	-1	800
20958035	5801	1825	0	-100	0	230	101300000	1000	0	0	-1	800
20970595	5801	1845	0	-100	0	230	101300000	1000	0	0	-1	800
20983155	5805	1836	0	-100	0	230	101300000	1000	0	0	-1	800
20995715	5804	1837	0	-100	0	230	101300000	1000	0	0	-1	800
21008275	5801	1845	0	-100	0	230	101300000	1000	0	0	-1	800
21020835	5809	1843	0	-100	0	230	101300000	1000	0	0	-1	800
21033395	5809	1842	0	-100	0	230	101300000	1000	0	0	-1	800
21045955	5803	1835	0	-100	0	230	101300000	1000	0	0	-1	800
21058515	5813	1834	0	-100	0	230	101300000	1000	0	0	-1	800
21071075	5803	1839	0	-100	0	230	101300000	1000	0	0	-1	800
21083635	5792	1846	0	-100	0	230	101300000	1000	0	0	-1	800
21096195	5798	1838	0	-100	0	230	101300000	1000	0	0	-1	800
21108755	5798	1838	0	-100	0	230	101300000	1000	0	0	-1	800
21121315	5813	1837	0	-100	0	230	101300000	1000	0	0	-1	800
21133875	5801	1842	0	-100	0	230	101300000	1000	0	0	-1	800
21146435	5798	1830	0	-100	0	230	101300000	1000	0	0	-1	800
21158995	5802	1836	0	-100	0	230	101300000	1000	0	0	-1	800
21171555	5800	1831	0	-100	0	230	101300000	1000	0	0	-1	800
21184115	5792	1842	0	-100	0	230	101300000	1000	0	0	-1	800
21196675	5804	1840	0	-100	0	230	101300000	1000	0	0	-1	800
21209235	5797	1839	0	-100	0	230	101300000	1000	0	0	-1	800
21221795	5801	1837	0	-100	0	230	101300000	1000	0	0	-1	800
21234355	5804	1832	0	-100	0	230	101300000	1000	0	0	-1	800
21246915	5810	1833	0	-100	0	230	101300000	1000	0	0	-1	800
21259475	5801	1842	0	-100	0	230	101300000	1000	0	0	-1	800
21272035	5798	1833	0	-100	0	230	101300000	1000	0	0	-1	800
21284595	5807	1832	0	-100	0	230	101300000	1000	0	0	-1	800
21297155	5806	1834	0	-100	0	230	101300000	1000	0	0	-1	800
21309715	5804	1841	0	-100	0	230	101300000	1000	0	0	-1	800
21322275	5798	1844	0	-100	0	230	101300000	1000	0	0	-1	800
21334835	5806	1837	0	-100	0	230	101300000	1000	0	0	-1	800
21347395	5798	1845	0	-100	0	230	101300000	1000	0	0	-1	800
21359955	5805	1832	0	-100	0	230	101300000	1000	0	0	-1	800
21372515	5801	1838	0	-100	0	230	101300000	1000	0	0	-1	800
21385075	5798	1845	0	-100	0	230	101300000	1000	0	0	-1	800
21397635	5808	1839	0	-100	0	230	101300000	1000	0	0	-1	800
21410195	5805	1849	0	-100	0	230	101300000	1000	0	0	-1	800
21422755	5789	1848	0	-100	0	230	101300000	1000	0	0	-1	800
21435315	5796	1836	0	-100	0	230	101300000	1000	0	0	-1	800
21447875	5809	1846	0	-100	0	230	101300000	1000	0	0	-1	800
21460435	5801	1841	0	-100	0	230	101300000	1000	0	0	-1	800
21472995	5809	1845	0	-100	0	230	101300000	1000	0	0	-1	800
21485555	5796	1848	0	-100	0	230	101300000	1000	0	0	-1	800
21498115	5793	1840	0	-100	0	230	101300000	1000	0	0	-1	800
21510675	5802	1843	0	-100	0	230	101300000	1000	0	0	-1	800
21523235	5800	1832	0	-100	0	230	101300000	1000	0	0	-1	800
21535795	5801	1832	0	-100	0	230	101300000	1000	0	0	-1	800
21548355	5809	1836	0	-100	0	230	101300000	1000	0	0	-1	800
21560915	5806	1848	0	-100	0	230	101300000	1000	0	0	-1	800
21573475	5799	1837	0	-100	0	230	101300000	1000	0	0	-1	800
21586035	5818	1834	0	-100	0	230	101300000	1000	0	0	-1	800
21598595	5801	1836	0	-100	0	230	101300000	1000	0	0	-1	800
21611155	5811	1837	0	-100	0	230	101300000	1000	0	0	-1	800
21623715	5796	1837	0	-100	0	230	101300000	1000	0	0	-1	800
21636275	5804	1845	0	-100	0	230	101300000	1000	0	0	-1	800
21648835	5796	1836	0	-100	0	230	101300000	1000	0	0	-1	800
21661395	5800	1835	0	-100	0	230	101300000	1000	0	0	-1	800
21673955	5800	1841	0	-100	0	230	101300000	1000	0	0	-1	800
21686515	5790	1835	0	-100	0	230	101300000	1000	0	0	-1	800
21699075	5804	1847	0	-100	0	230	101300000	1000	0	0	-1	800
21711635	5805	1843	0	-100	0	230	101300000	1000	0	0	-1	800
21724195	5816	1832	0	-100	0	230	101300000	1000	0	0	-1	800
21736755	5799	1843	0	-100	0	230	101300000	1000	0	0	-1	800
21749315	5794	1840	0	-100	0	230	101300000	1000	0	0	-1	800
21761875	5800	1843	0	-100	0	230	101300000	1000	0	0	-1	800
21774435	5801	1831	0	-100	0	230	101300000	1000	0	0	-1	800
21786995	5805	1834	0	-100	0	230	101300000	1000	0	0	-1	800
21799555	5808	1842	0	-100	0	230	101300000	1000	0	0	-1	800
21812115	5802	1847	0	-100	0	230	101300000	1000	0	0	-1	800
21824675	5807	1842	0	-100	0	230	101300000	1000	0	0	-1	800
21837235	5808	1835	0	-100	0	230	101300000	1000	0	0	-1	800
21849795	5802	1849	0	-100	0	230	101300000	1000	0	0	-1	800
21862355	5800	1843	0	-100	0	230	101300000	1000	0	0	-1	800
21874915	5793	1837	0	-100	0	230	101300000	1000	0	0	-1	800
21887475	5794	1837	0	-100	0	230	101300000	1000	0	0	-1	800
21900035	5804	1828	0	-100	0	230	101300000	1000	0	0	-1	800
21912595	5812	1845	0	-100	0	230	101300000	1000	0	0	-1	800
21925155	5799	1839	0	-100	0	230	101300000	1000	0	0	-1	800
21937715	5807	1838	0	-100	0	230	101300000	1000	0	0	-1	800
21950275	5798	1843	0	-100	0	230	101300000	1000	0	0	-1	800
21962835	5807	1850	0	-100	0	230	101300000	1000	0	0	-1	800
21975395	5805	1845	0	-100	0	230	101300000	1000	0	0	-1	800
21987955	5806	1836	0	-100	0	230	101300000	1000	0	0	-1	800
22000515	5813	1839	0	-100	0	230	101300000	1000	0	0	-1	800
22013075	5805	1834	0	-100	0	230	101300000	1000	0	0	-1	800
22025635	5805	1837	0	-100	0	230	101300000	1000	0	0	-1	800
22038195	5805	1837	0	-100	0	230	101300000	1000	0	0	-1	800
22050755	5804	1841	0	-100	0	230	101300000	1000	0	0	-1	800
22063315	5794	1843	0	-100	0	230	101300000	1000	0	0	-1	800
22075875	5808	1847	0	-100	0	230	101300000	1000	0	0	-1	800
22088435	5808	1837	0	-100	0	230	101300000	1000	0	0	-1	800
22100995	5798	1838	0	-100	0	230	101300000	1000	0	0	-1	800
22113555	5800	1845	0	-100	0	230	101300000	1000	0	0	-1	800
22126115	5801	1839	0	-100	0	230	101300000	1000	0	0	-1	800
22138675	5800	1842	0	-100	0	230	101300000	1000	0	0	-1	800
22151235	5814	1833	0	-100	0	230	101300000	1000	0	0	-1	800
22163795	5798	1831	0	-100	0	230	101300000	1000	0	0	-1	800
22176355	5798	1847	0	-100	0	230	101300000	1000	0	0	-1	800
22188915	5805	1834	0	-100	0	230	101300000	1000	0	0	-1	800
22201475	5797	1837	0	-100	0	230	101300000	1000	0	0	-1	800
22214035	5804	1842	0	-100	0	230	101300000	1000	0	0	-1	800
22226595	5796	1838	0	-100	0	230	101300000	1000	0	0	-1	800
22239155	5805	1839	0	-100	0	230	101300000	1000	0	0	-1	800
22251715	5806	1828	0	-100	0	230	101300000	1000	0	0	-1	800
22264275	5795	1838	0	-100	0	230	101300000	1000	0	0	-1	800
22276835	5802	1836	0	-100	0	230	101300000	1000	0	0	-1	800
22289395	5798	1832	0	-100	0	230	101300000	1000	0	0	-1	800
22301955	5798	1838	0	-100	0	230	101300000	1000	0	0	-1	800
22314515	5789	1848	0	-100	0	230	101300000	1000	0	0	-1	800
22327075	5804	1840	0	-100	0	230	101300000	1000	0	0	-1	800
22339635	5808	1835	0	-100	0	230	101300000	1000	0	0	-1	800
22352195	5796	1846	0	-100	0	230	101300000	1000	0	0	-1	800
22364755	5818	1839	0	-100	0	230	101300000	1000	0	0	-1	800
22377315	5799	1838	0	-100	0	230	101300000	1000	0	0	-1	800
22389875	5804	1834	0	-100	0	230	101300000	1000	0	0	-1	800
22402435	5797	1837	0	-100	0	230	101300000	1000	0	0	-1	800
22414995	5815	1843	0	-100	0	230	101300000	1000	0	0	-1	800
22427555	5792	1851	0	-100	0	230	101300000	1000	0	0	-1	800
22440115	5811	1846	0	-100	0	230	101300000	1000	0	0	-1	800
22452675	5798	1839	0	-100	0	230	101300000	1000	0	0	-1	800
22465235	5801	1843	0	-100	0	230	101300000	1000	0	0	-1	800
22477795	5792	1841	0	-100	0	230	101300000	1000	0	0	-1	800
22490355	5817	1842	0	-100	0	230	101300000	1000	0	0	-1	800
22502915	5803	1831	0	-100	0	230	101300000	1000	0	0	-1	800
22515475	5803	1837	0	-100	0	230	101300000	1000	0	0	-1	800
22528035	5797	1836	0	-100	0	230	101300000	1000	0	0	-1	800
22540595	5803	1838	0	-100	0	230	101300000	1000	0	0	-1	800
22553155	5798	1847	0	-100	0	230	101300000	1000	0	0	-1	800
22565715	5806	1837	0	-100	0	230	101300000	1000	0	0	-1	800
22578275	5803	1842	0	-100	0	230	101300000	1000	0	0	-1	800
22590835	5810	1837	0	-100	0	230	101300000	1000	0	0	-1	800
22603395	5810	1839	0	-100	0	230	101300000	1000	0	0	-1	800
22615955	5791	1841	0	-100	0	230	101300000	1000	0	0	-1	800
22628515	5808	1837	0	-100	0	230	101300000	1000	0	0	-1	800
22641075	5805	1834	0	-100	0	230	101300000	1000	0	0	-1	800
22653635	5801	1837	0	-100	0	230	101300000	1000	0	0	-1	800
22666195	5800	1841	0	-100	0	230	101300000	1000	0	0	-1	800
22678755	5797	1837	0	-100	0	230	101300000	1000	0	0	-1	800
22691315	5789	1833	0	-100	0	230	101300000	1000	0	0	-1	800
22703875	5798	1844	0	-100	0	230	101300000	1000	0	0	-1	800
22716435	5810	1840	0	-100	0	230	101300000	1000	0	0	-1	800
22728995	5791	1841	0	-100	0	230	101300000	1000	0	0	-1	800
22766675	5799	1840	0	-100	0	230	101300000	1000	0	0	-1	800
22779235	5806	1831	0	-100	0	230	101300000	1000	0	0	-1	800
22791795	5799	1835	0	-100	0	230	101300000	1000	0	0	-1	800
22804355	5795	1835	0	-100	0	230	101300000	1000	0	0	-1	800
22816915	5799	1832	0	-100	0	230	101300000	1000	0	0	-1	800
22829475	5798	1848	0	-100	0	230	101300000	1000	0	0	-1	800
22842035	5788	1842	0	-100	0	230	101300000	1000	0	0	-1	800
22854595	5800	1846	0	-100	0	230	101300000	1000	0	0	-1	800
22867155	5798	1836	0	-100	0	230	101300000	1000	0	0	-1	800
22879715	5794	1843	0	-100	0	230	101300000	1000	0	0	-1	800
22892275	5810	1843	0	-100	0	230	101300000	1000	0	0	-1	800
22980195	5802	1838	0	-100	0	230	101300000	1000	0	0	-1	800
22992755	5802	1838	0	-100	0	230	101300000	1000	0	0	-1	800
23005315	5797	1846	0	-100	0	230	101300000	1000	0	0	-1	800
23017875	5798	1838	0	-100	0	230	101300000	1000	0	0	-1	800
23030435	5801	1839	0	-100	0	230	101300000	1000	0	0	-1	800
23042995	5803	1834	0	-100	0	230	101300000	1000	0	0	-1	800
23055555	5799	1841	0	-100	0	230	101300000	1000	0	0	-1	800
23068115	5793	1838	0	-100	0	230	101300000	1000	0	0	-1	800
23080675	5809	1834	0	-100	0	230	101300000	1000	0	0	-1	800
23093235	5806	1837	0	-100	0	230	101300000	1000	0	0	-1	800
23105795	5796	1850	0	-100	0	230	101300000	1000	0	0	-1	800
23118355	5809	1835	0	-100	0	230	101300000	1000	0	0	-1	800
23156035	5794	1838	0	-100	0	230	101300000	1000	0	0	-1	800
23168595	5801	1832	0	-100	0	230	101300000	1000	0	0	-1	800
23181155	5795	1840	0	-100	0	230	101300000	1000	0	0	-1	800
23193715	5784	1831	0	-100	0	230	101300000	1000	0	0	-1	800
23206275	5805	1834	0	-100	0	230	101300000	1000	0	0	-1	800
23218835	5813	1831	0	-100	0	230	101300000	1000	0	0	-1	800
23231395	5798	1840	0	-100	0	230	101300000	1000	0	0	-1	800
23243955	5804	1844	0	-100	0	230	101300000	1000	0	0	-1	800
23256515	5801	1836	0	-100	0	230	101300000	1000	0	0	-1	800
23269075	5804	1833	0	-100	0	230	101300000	1000	0	0	-1	800
23281635	5811	1839	0	-100	0	230	101300000	1000	0	0	-1	800
23294195	5797	1841	0	-100	0	230	101300000	1000	0	0	-1	800
23306755	5802	1839	0	-100	0	230	101300000	1000	0	0	-1	800
23319315	5795	1846	0	-100	0	230	101300000	1000	0	0	-1	800
23331875	5801	1836	0	-100	0	230	101300000	1000	0	0	-1	800
23344435	5804	1838	0	-100	0	230	101300000	1000	0	0	-1	800
23356995	5816	1845	0	-100	0	230	101300000	1000	0	0	-1	800
23369555	5800	1846	0	-100	0	230	101300000	1000	0	0	-1	800
23382115	5790	1836	0	-100	0	230	101300000	1000	0	0	-1	800
23394675	5802	1838	0	-100	0	230	101300000	1000	0	0	-1	800
23407235	5798	1848	0	-100	0	230	101300000	1000	0	0	-1	800
23419795	5804	1837	0	-100	0	230	101300000	1000	0	0	-1	800
23432355	5808	1841	0	-100	0	230	101300000	1000	0	0	-1	800
23444915	5801	1849	0	-100	0	230	101300000	1000	0	0	-1	800
23457475	5801	1838	0	-100	0	230	101300000	1000	0	0	-1	800
23470035	5807	1845	0	-100	0	230	101300000	1000	0	0	-1	800
23482595	5794	1841	0	-100	0	230	101300000	1000	0	0	-1	800
23495155	5800	1834	0	-100	0	230	101300000	1000	0	0	-1	800
23507715	5813	1839	0	-100	0	230	101300000	1000	0	0	-1	800
23520275	5800	1842	0	-100	0	230	101300000	1000	0	0	-1	800
23532835	5806	1835	0	-100	0	230	101300000	1000	0	0	-1	800
23545395	5792	1841	0	-100	0	230	101300000	1000	0	0	-1	800
23557955	5801	1831	0	-100	0	230	101300000	1000	0	0	-1	800
23570515	5811	1836	0	-100	0	230	101300000	1000	0	0	-1	800
23583075	5801	1839	0	-100	0	230	101300000	1000	0	0	-1	800
23595635	5805	1850	0	-100	0	230	101300000	1000	0	0	-1	800
23608195	5804	1843	0	-100	0	230	101300000	1000	0	0	-1	800
23620755	5803	1838	0	-100	0	230	101300000	1000	0	0	-1	800
23633315	5797	1840	0	-100	0	230	101300000	1000	0	0	-1	800
23645875	5789	1841	0	-100	0	230	101300000	1000	0	0	-1	800
23658435	5810	1845	0	-100	0	230	101300000	1000	0	0	-1	800
23670995	5798	1846	0	-100	0	230	101300000	1000	0	0	-1	800
23683555	5809	1837	0	-100	0	230	101300000	1000	0	0	-1	800
23696115	5798	1832	0	-100	0	230	101300000	1000	0	0	-1	800
23708675	5797	1841	0	-100	0	230	101300000	1000	0	0	-1	800
23721235	5804	1832	0	-100	0	230	101300000	1000	0	0	-1	800
23733795	5796	1839	0	-100	0	230	101300000	1000	0	0	-1	800
23746355	5797	1840	0	-100	0	230	101300000	1000	0	0	-1	800
23758915	5801	1836	0	-100	0	230	101300000	1000	0	0	-1	800
23771475	5812	1835	0	-100	0	230	101300000	1000	0	0	-1	800
23784035	5797	1843	0	-100	0	230	101300000	1000	0	0	-1	800
23796595	5799	1840	0	-100	0	230	101300000	1000	0	0	-1	800
23809155	5810	1842	0	-100	0	230	101300000	1000	0	0	-1	800
23821715	5800	1842	0	-100	0	230	101300000	1000	0	0	-1	800
23834275	5801	1837	0	-100	0	230	101300000	1000	0	0	-1	800
23846835	5805	1849	0	-100	0	230	101300000	1000	0	0	-1	800
23859395	5798	1844	0	-100	0	230	101300000	1000	0	0	-1	800
23871955	5804	1845	0	-100	0	230	101300000	1000	0	0	-1	800
23884515	5805	1846	0	-100	0	230	101300000	1000	0	0	-1	800
23897075	5799	1831	0	-100	0	230	101300000	1000	0	0	-1	800
23909635	5808	1840	0	-100	0	230	101300000	1000	0	0	-1	800
23922195	5790	1838	0	-100	0	230	101300000	1000	0	0	-1	800
23934755	5800	1839	0	-100	0	230	101300000	1000	0	0	-1	800
23947315	5786	1839	0	-100	0	230	101300000	1000	0	0	-1	800
23959875	5805	1833	0	-100	0	230	101300000	1000	0	0	-1	800
23972435	5807	1832	0	-100	0	230	101300000	1000	0	0	-1	800
23984995	5800	1845	0	-100	0	230	101300000	1000	0	0	-1	800
23997555	5796	1833	0	-100	0	230	101300000	1000	0	0	-1	800
24010115	5806	1840	0	-100	0	230	101300000	1000	0	0	-1	800
24022675	5806	1835	0	-100	0	230	101300000	1000	0	0	-1	800
24035235	5795	1850	0	-100	0	230	101300000	1000	0	0	-1	800
24047795	5791	1841	0	-100	0	230	101300000	1000	0	0	-1	800
24060355	5801	1832	0	-100	0	230	101300000	1000	0	0	-1	800
24072915	5804	1843	0	-100	0	230	101300000	1000	0	0	-1	800
24085475	5794	1840	0	-100	0	230	101300000	1000	0	0	-1	800
24098035	5809	1837	0	-100	0	230	101300000	1000	0	0	-1	800
24110595	5804	1838	0	-100	0	230	101300000	1000	0	0	-1	800
24123155	5803	1842	0	-100	0	230	101300000	1000	0	0	-1	800
24135715	5804	1837	0	-100	0	230	101300000	1000	0	0	-1	800
24148275	5808	1842	0	-100	0	230	101300000	1000	0	0	-1	800
24160835	5799	1841	0	-100	0	230	101300000	1000	0	0	-1	800
24173395	5791	1841	0	-100	0	230	101300000	1000	0	0	-1	800
24185955	5813	1835	0	-100	0	230	101300000	1000	0	0	-1	800
24198515	5809	1845	0	-100	0	230	101300000	1000	0	0	-1	800
24211075	5801	1840	0	-100	0	230	101300000	1000	0	0	-1	800
24223635	5809	1835	0	-100	0	230	101300000	1000	0	0	-1	800
24236195	5800	1838	0	-100	0	230	101300000	1000	0	0	-1	800
24248755	5796	1847	0	-100	0	230	101300000	1000	0	0	-1	800
24261315	5787	1837	0	-100	0	230	101300000	1000	0	0	-1	800
24273875	5798	1840	0	-100	0	230	101300000	1000	0	0	-1	800
24286435	5797	1854	0	-100	0	230	101300000	1000	0	0	-1	800
24298995	5798	1840	0	-100	0	230	101300000	1000	0	0	-1	800
24311555	5795	1843	0	-100	0	230	101300000	1000	0	0	-1	800
24324115	5794	1836	0	-100	0	230	101300000	1000	0	0	-1	800
24336675	5792	1842	0	-100	0	230	101300000	1000	0	0	-1	800
24349235	5800	1841	0	-100	0	230	101300000	1000	0	0	-1	800
24361795	5805	1839	0	-100	0	230	101300000	1000	0	0	-1	800
24374355	5798	1842	0	-100	0	230	101300000	1000	0	0	-1	800
24386915	5792	1832	0	-100	0	230	101300000	1000	0	0	-1	800
24399475	5794	1840	0	-100	0	230	101300000	1000	0	0	-1	800
24412035	5800	1836	0	-100	0	230	101300000	1000	0	0	-1	800
24424595	5798	1845	0	-100	0	230	101300000	1000	0	0	-1	800
24437155	5792	1846	0	-100	0	230	101300000	1000	0	0	-1	800
24449715	5801	1841	0	-100	0	230	101300000	1000	0	0	-1	800
24462275	5801	1837	0	-100	0	230	101300000	1000	0	0	-1	800
24474835	5796	1838	0	-100	0	230	101300000	1000	0	0	-1	800
24487395	5801	1841	0	-100	0	230	101300000	1000	0	0	-1	800
24499955	5801	1845	0	-100	0	230	101300000	1000	0	0	-1	800
24512515	5795	1844	0	-100	0	230	101300000	1000	0	0	-1	800
24525075	5797	1850	0	-100	0	230	101300000	1000	0	0	-1	800
24537635	5804	1843	0	-100	0	230	101300000	1000	0	0	-1	800
24550195	5807	1838	0	-100	0	230	101300000	1000	0	0	-1	800
24562755	5797	1851	0	-100	0	230	101300000	1000	0	0	-1	800
24575315	5789	1840	0	-100	0	230	101300000	1000	0	0	-1	800
24587875	5811	1834	0	-100	0	230	101300000	1000	0	0	-1	800
24600435	5795	1834	0	-100	0	230	101300000	1000	0	0	-1	800
24612995	5815	1835	0	-100	0	230	101300000	1000	0	0	-1	800
24625555	5805	1840	0	-100	0	230	101300000	1000	0	0	-1	800
24638115	5798	1838	0	-100	0	230	101300000	1000	0	0	-1	800
24650675	5798	1841	0	-100	0	230	101300000	1000	0	0	-1	800
24663235	5795	1844	0	-100	0	230	101300000	1000	0	0	-1	800
24675795	5794	1841	0	-100	0	230	101300000	1000	0	0	-1	800
24688355	5807	1836	0	-100	0	230	101300000	1000	0	0	-1	800
24700915	5793	1838	0	-100	0	230	101300000	1000	0	0	-1	800
24713475	5800	1840	0	-100	0	230	101300000	1000	0	0	-1	800
24726035	5796	1837	0	-100	0	230	101300000	1000	0	0	-1	800
24738595	5799	1837	0	-100	0	230	101300000	1000	0	0	-1	800
24751155	5798	1840	0	-100	0	230	101300000	1000	0	0	-1	800
24763715	5801	1841	0	-100	0	230	101300000	1000	0	0	-1	800
24776275	5796	1848	0	-100	0	230	101300000	1000	0	0	-1	800
24788835	5794	1851	0	-100	0	230	101300000	1000	0	0	-1	800
24801395	5802	1831	0	-100	0	230	101300000	1000	0	0	-1	800
24813955	5805	1838	0	-100	0	230	101300000	1000	0	0	-1	800
24826515	5806	1837	0	-100	0	230	101300000	1000	0	0	-1	800
24839075	5810	1843	0	-100	0	230	101300000	1000	0	0	-1	800
24851635	5799	1847	0	-100	0	230	101300000	1000	0	0	-1	800
24864195	5806	1837	0	-100	0	230	101300000	1000	0	0	-1	800
24876755	5801	1838	0	-100	0	230	101300000	1000	0	0	-1	800
24889315	5794	1833	0	-100	0	230	101300000	1000	0	0	-1	800
24901875	5818	1845	0	-100	0	230	101300000	1000	0	0	-1	800
24914435	5808	1849	0	-100	0	230	101300000	1000	0	0	-1	800
24926995	5801	1841	0	-100	0	230	101300000	1000	0	0	-1	800
24939555	5798	1842	0	-100	0	230	101300000	1000	0	0	-1	800
24952115	5795	1834	0	-100	0	230	101300000	1000	0	0	-1	800
24964675	5799	1841	0	-100	0	230	101300000	1000	0	0	-1	800
24977235	5803	1834	0	-100	0	230	101300000	1000	0	0	-1	800
24989795	5810	1841	0	-100	0	230	101300000	1000	0	0	-1	800
25002355	5805	1837	0	-100	0	230	101300000	1000	0	0	-1	800
25014915	5796	1854	0	-100	0	230	101300000	1000	0	0	-1	800
25027475	5798	1842	0	-100	0	230	101300000	1000	0	0	-1	800
25040035	5792	1839	0	-100	0	230	101300000	1000	0	0	-1	800
25052595	5819	1842	0	-100	0	230	101300000	1000	0	0	-1	800
25065155	5805	1842	0	-100	0	230	101300000	1000	0	0	-1	800
25077715	5797	1852	0	-100	0	230	101300000	1000	0	0	-1	800
25090275	5805	1841	0	-100	0	230	101300000	1000	0	0	-1	800
25102835	5801	1839	0	-100	0	230	101300000	1000	0	0	-1	800
25115395	5803	1837	0	-100	0	230	101300000	1000	0	0	-1	800
25127955	5796	1848	0	-100	0	230	101300000	1000	0	0	-1	800
25140515	5799	1835	0	-100	0	230	101300000	1000	0	0	-1	800
25153075	5800	1845	0	-100	0	230	101300000	1000	0	0	-1	800
25165635	5805	1847	0	-100	0	230	101300000	1000	0	0	-1	800
25178195	5806	1840	0	-100	0	230	101300000	1000	0	0	-1	800
25190755	5801	1831	0	-100	0	230	101300000	1000	0	0	-1	800
25203315	5799	1839	0	-100	0	230	101300000	1000	0	0	-1	800
25215875	5799	1844	0	-100	0	230	101300000	1000	0	0	-1	800
25228435	5802	1847	0	-100	0	230	101300000	1000	0	0	-1	800
25240995	5804	1847	0	-100	0	230	101300000	1000	0	0	-1	800
25253555	5808	1840	0	-100	0	230	101300000	1000	0	0	-1	800
25266115	5795	1842	0	-100	0	230	101300000	1000	0	0	-1	800
25278675	5793	1841	0	-100	0	230	101300000	1000	0	0	-1	800
25291235	5801	1841	0	-100	0	230	101300000	1000	0	0	-1	800
25303795	5798	1837	0	-100	0	230	101300000	1000	0	0	-1	800
25316355	5801	1835	0	-100	0	230	101300000	1000	0	0	-1	800
25328915	5791	1836	0	-100	0	230	101300000	1000	0	0	-1	800
25341475	5797	1827	0	-100	0	230	101300000	1000	0	0	-1	800
25354035	5805	1838	0	-100	0	230	101300000	1000	0	0	-1	800
25366595	5797	1845	0	-100	0	230	101300000	1000	0	0	-1	800
25379155	5793	1844	0	-100	0	230	101300000	1000	0	0	-1	800
25391715	5803	1843	0	-100	0	230	101300000	1000	0	0	-1	800
25404275	5796	1845	0	-100	0	230	101300000	1000	0	0	-1	800
25416835	5793	1839	0	-100	0	230	101300000	1000	0	0	-1	800
25429395	5801	1848	0	-100	0	230	101300000	1000	0	0	-1	800
25441955	5798	1849	0	-100	0	230	101300000	1000	0	0	-1	800
25454515	5794	1834	0	-100	0	230	101300000	1000	0	0	-1	800
25467075	5794	1843	0	-100	0	230	101300000	1000	0	0	-1	800
25479635	5793	1845	0	-100	0	230	101300000	1000	0	0	-1	800
25492195	5799	1833	0	-100	0	230	101300000	1000	0	0	-1	800
25504755	5804	1842	0	-100	0	230	101300000	1000	0	0	-1	800
25517315	5798	1840	0	-100	0	230	101300000	1000	0	0	-1	800
25529875	5802	1851	0	-100	0	230	101300000	1000	0	0	-1	800
25542435	5810	1835	0	-100	0	230	101300000	1000	0	0	-1	800
25554995	5805	1839	0	-100	0	230	101300000	1000	0	0	-1	800
25567555	5802	1824	0	-100	0	230	101300000	1000	0	0	-1	800
25580115	5803	1838	0	-100	0	230	101300000	1000	0	0	-1	800
25592675	5810	1838	0	-100	0	230	101300000	1000	0	0	-1	800
25605235	5809	1834	0	-100	0	230	101300000	1000	0	0	-1	800
25617795	5792	1842	0	-100	0	230	101300000	1000	0	0	-1	800
25630355	5807	1850	0	-100	0	230	101300000	1000	0	0	-1	800
25642915	5813	1843	0	-100	0	230	101300000	1000	0	0	-1	800
25655475	5797	1839	0	-100	0	230	101300000	1000	0	0	-1	800
25668035	5802	1835	0	-100	0	230	101300000	1000	0	0	-1	800
25680595	5803	1844	0	-100	0	230	101300000	1000	0	0	-1	800
25693155	5802	1842	0	-100	0	230	101300000	1000	0	0	-1	800
25705715	5792	1844	0	-100	0	230	101300000	1000	0	0	-1	800
25718275	5797	1846	0	-100	0	230	101300000	1000	0	0	-1	800
25730835	5801	1840	0	-100	0	230	101300000	1000	0	0	-1	800
25743395	5794	1846	0	-100	0	230	101300000	1000	0	0	-1	800
25755955	5810	1846	0	-100	0	230	101300000	1000	0	0	-1	800
25768515	5808	1842	0	-100	0	230	101300000	1000	0	0	-1	800
25781075	5815	1844	0	-100	0	230	101300000	1000	0	0	-1	800
25793635	5796	1831	0	-100	0	230	101300000	1000	0	0	-1	800
25806195	5801	1843	0	-100	0	230	101300000	1000	0	0	-1	800
25818755	5805	1847	0	-100	0	230	101300000	1000	0	0	-1	800
25831315	5797	1850	0	-100	0	230	101300000	1000	0	0	-1	800
25881555	5799	1849	0	-100	0	230	101300000	1000	0	0	-1	800
25894115	5790	1841	0	-100	0	230	101300000	1000	0	0	-1	800
25906675	5795	1837	0	-100	0	230	101300000	1000	0	0	-1	800
25919235	5804	1833	0	-100	0	230	101300000	1000	0	0	-1	800
25931795	5800	1848	0	-100	0	230	101300000	1000	0	0	-1	800
25944355	5802	1842	0	-100	0	230	101300000	1000	0	0	-1	800
25956915	5796	1846	0	-100	0	230	101300000	1000	0	0	-1	800
25969475	5798	1840	0	-100	0	230	101300000	1000	0	0	-1	800
25982035	5805	1837	0	-100	0	230	101300000	1000	0	0	-1	800
25994595	5790	1840	0	-100	0	230	101300000	1000	0	0	-1	800
26007155	5808	1835	0	-100	0	230	101300000	1000	0	0	-1	800
26019715	5808	1837	0	-100	0	230	101300000	1000	0	0	-1	800
26082515	5792	1842	0	-100	0	230	101300000	1000	0	0	-1	800
26095075	5806	1838	0	-100	0	230	101300000	1000	0	0	-1	800
26107635	5801	1842	0	-100	0	230	101300000	1000	0	0	-1	800
26120195	5796	1835	0	-100	0	230	101300000	1000	0	0	-1	800
26132755	5799	1844	0	-100	0	230	101300000	1000	0	0	-1	800
26145315	5790	1846	0	-100	0	230	101300000	1000	0	0	-1	800
26157875	5803	1837	0	-100	0	230	101300000	1000	0	0	-1	800
26170435	5799	1841	0	-100	0	230	101300000	1000	0	0	-1	800
26182995	5804	1843	0	-100	0	230	101300000	1000	0	0	-1	800
26195555	5793	1836	0	-100	0	230	101300000	1000	0	0	-1	800
26208115	5795	1850	0	-100	0	230	101300000	1000	0	0	-1	800
26220675	5800	1834	0	-100	0	230	101300000	1000	0	0	-1	800
26233235	5806	1840	0	-100	0	230	101300000	1000	0	0	-1	800
26245795	5795	1845	0	-100	0	230	101300000	1000	0	0	-1	800
26258355	5806	1842	0	-100	0	230	101300000	1000	0	0	-1	800
26270915	5807	1842	0	-100	0	230	101300000	1000	0	0	-1	800
26283475	5807	1838	0	-100	0	230	101300000	1000	0	0	-1	800
26296035	5807	1843	0	-100	0	230	101300000	1000	0	0	-1	800
26308595	5797	1841	0	-100	0	230	101300000	1000	0	0	-1	800
26321155	5798	1835	0	-100	0	230	101300000	1000	0	0	-1	800
26333715	5806	1836	0	-100	0	230	101300000	1000	0	0	-1	800
26346275	5806	1840	0	-100	0	230	101300000	1000	0	0	-1	800
26358835	5807	1842	0	-100	0	230	101300000	1000	0	0	-1	800
26371395	5810	1848	0	-100	0	230	101300000	1000	0	0	-1	800
26383955	5805	1843	0	-100	0	230	101300000	1000	0	0	-1	800
26396515	5796	1834	0	-100	0	230	101300000	1000	0	0	-1	800
26409075	5803	1841	0	-100	0	230	101300000	1000	0	0	-1	800
26421635	5800	1837	0	-100	0	230	101300000	1000	0	0	-1	800
26434195	5809	1841	0	-100	0	230	101300000	1000	0	0	-1	800
26446755	5805	1847	0	-100	0	230	101300000	1000	0	0	-1	800
26459315	5794	1835	0	-100	0	230	101300000	1000	0	0	-1	800
26471875	5809	1837	0	-100	0	230	101300000	1000	0	0	-1	800
26484435	5799	1835	0	-100	0	230	101300000	1000	0	0	-1	800
26496995	5806	1839	0	-100	0	230	101300000	1000	0	0	-1	800
26509555	5797	1841	0	-100	0	230	101300000	1000	0	0	-1	800
26522115	5790	1835	0	-100	0	230	101300000	1000	0	0	-1	800
26534675	5801	1845	0	-100	0	230	101300000	1000	0	0	-1	800
26547235	5797	1841	0	-100	0	230	101300000	1000	0	0	-1	800
26559795	5808	1839	0	-100	0	230	101300000	1000	0	0	-1	800
26572355	5806	1841	0	-100	0	230	101300000	1000	0	0	-1	800
26584915	5801	1828	0	-100	0	230	101300000	1000	0	0	-1	800
26597475	5805	1835	0	-100	0	230	101300000	1000	0	0	-1	800
26610035	5796	1837	0	-100	0	230	101300000	1000	0	0	-1	800
26622595	5795	1835	0	-100	0	230	101300000	1000	0	0	-1	800
26635155	5801	1833	0	-100	0	230	101300000	1000	0	0	-1	800
26647715	5808	1840	0	-100	0	230	101300000	1000	0	0	-1	800
26660275	5794	1843	0	-100	0	230	101300000	1000	0	0	-1	800
26672835	5807	1843	0	-100	0	230	101300000	1000	0	0	-1	800
26685395	5804	1845	0	-100	0	230	101300000	1000	0	0	-1	800
26697955	5805	1832	0	-100	0	230	101300000	1000	0	0	-1	800
26710515	5790	1846	0	-100	0	230	101300000	1000	0	0	-1	800
26723075	5797	1832	0	-100	0	230	101300000	1000	0	0	-1	800
26735635	5814	1829	0	-100	0	230	101300000	1000	0	0	-1	800
26748195	5799	1838	0	-100	0	230	101300000	1000	0	0	-1	800
26760755	5808	1840	0	-100	0	230	101300000	1000	0	0	-1	800
26773315	5795	1835	0	-100	0	230	101300000	1000	0	0	-1	800
26785875	5793	1835	0	-100	0	230	101300000	1000	0	0	-1	800
26798435	5810	1831	0	-100	0	230	101300000	1000	0	0	-1	800
26810995	5790	1834	0	-100	0	230	101300000	1000	0	0	-1	800
26823555	5794	1842	0	-100	0	230	101300000	1000	0	0	-1	800
26836115	5806	1841	0	-100	0	230	101300000	1000	0	0	-1	800
26848675	5794	1841	0	-100	0	230	101300000	1000	0	0	-1	800
26861235	5798	1840	0	-100	0	230	101300000	1000	0	0	-1	800
26873795	5810	1842	0	-100	0	230	101300000	1000	0	0	-1	800
26886355	5799	1843	0	-100	0	230	101300000	1000	0	0	-1	800
26898915	5790	1849	0	-100	0	230	101300000	1000	0	0	-1	800
26911475	5804	1846	0	-100	0	230	101300000	1000	0	0	-1	800
26924035	5801	1846	0	-100	0	230	101300000	1000	0	0	-1	800
26936595	5803	1842	0	-100	0	230	101300000	1000	0	0	-1	800
26949155	5816	1844	0	-100	0	230	101300000	1000	0	0	-1	800
26961715	5802	1845	0	-100	0	230	101300000	1000	0	0	-1	800
26974275	5805	1842	0	-100	0	230	101300000	1000	0	0	-1	800
26986835	5799	1837	0	-100	0	230	101300000	1000	0	0	-1	800
26999395	5795	1837	0	-100	0	230	101300000	1000	0	0	-1	800
27011955	5809	1842	0	-100	0	230	101300000	1000	0	0	-1	800
27024515	5812	1846	0	-100	0	230	101300000	1000	0	0	-1	800
27037075	5809	1848	0	-100	0	230	101300000	1000	0	0	-1	800
27049635	5797	1842	0	-100	0	230	101300000	1000	0	0	-1	800
