timestamp	voltage	current	windSpeed	pitchAngle	rpm	temperature	ambientPressure	humidity	accelerationX	accelerationY	accelerationZ	currentSink
7039070	6016	870	0	-100	0	230	101300000	1000	0	0	-1	0
7046523	6019	869	0	-100	0	230	101300000	1000	0	0	-1	0
7059083	6019	869	0	-100	0	230	101300000	1000	0	0	-1	0
7071643	6016	874	0	-100	0	230	101300000	1000	0	0	-1	0
7084203	6017	863	0	-100	0	230	101300000	1000	0	0	-1	0
7096763	6021	872	0	-100	0	230	101300000	1000	0	0	-1	0
7109323	6021	868	0	-100	0	230	101300000	1000	0	0	-1	0
7121883	6017	871	0	-100	0	230	101300000	1000	0	0	-1	0
7134443	6019	869	0	-100	0	230	101300000	1000	0	0	-1	0
7147004	6020	874	0	-100	0	230	101300000	1000	0	0	-1	0
7159563	6022	867	0	-100	0	230	101300000	1000	0	0	-1	0
7172123	6019	869	0	-100	0	230	101300000	1000	0	0	-1	0
7184683	6019	875	0	-100	0	230	101300000	1000	0	0	-1	0
7197243	6021	866	0	-100	0	230	101300000	1000	0	0	-1	0
7209803	6023	873	0	-100	0	230	101300000	1000	0	0	-1	0
7222363	6016	877	0	-100	0	230	101300000	1000	0	0	-1	0
7234923	6014	868	0	-100	0	230	101300000	1000	0	0	-1	0
7247483	6021	873	0	-100	0	230	101300000	1000	0	0	-1	0
7260043	6021	872	0	-100	0	230	101300000	1000	0	0	-1	0
7272603	6021	885	0	-100	0	230	101300000	1000	0	0	-1	0
7285163	6005	872	0	-100	0	230	101300000	1000	0	0	-1	0
7297723	6021	868	0	-100	0	230	101300000	1000	0	0	-1	0
7310283	6024	871	0	-100	0	230	101300000	1000	0	0	-1	0
7322843	6018	874	0	-100	0	230	101300000	1000	0	0	-1	0
7335403	6017	872	0	-100	0	230	101300000	1000	0	0	-1	0
7347963	6021	863	0	-100	0	230	101300000	1000	0	0	-1	0
7706235	5814	1954	0	-100	0	230	101300000	1000	0	0	-1	900
7718795	5828	1959	0	-100	0	230	101300000	1000	0	0	-1	900
7731355	5814	1950	0	-100	0	230	101300000	1000	0	0	-1	900
7743915	5831	1955	0	-100	0	230	101300000	1000	0	0	-1	900
7756475	5818	1953	0	-100	0	230	101300000	1000	0	0	-1	900
7769035	5814	1961	0	-100	0	230	101300000	1000	0	0	-1	900
7781595	5823	1957	0	-100	0	230	101300000	1000	0	0	-1	900
7794155	5823	1959	0	-100	0	230	101300000	1000	0	0	-1	900
7806715	5819	1960	0	-100	0	230	101300000	1000	0	0	-1	900
7819275	5822	1960	0	-100	0	230	101300000	1000	0	0	-1	900
7831835	5814	1959	0	-100	0	230	101300000	1000	0	0	-1	900
7844395	5823	1959	0	-100	0	230	101300000	1000	0	0	-1	900
7882075	5813	1964	0	-100	0	230	101300000	1000	0	0	-1	900
7894635	5823	1958	0	-100	0	230	101300000	1000	0	0	-1	900
7907195	5824	1958	0	-100	0	230	101300000	1000	0	0	-1	900
7919755	5817	1964	0	-100	0	230	101300000	1000	0	0	-1	900
7932315	5808	1961	0	-100	0	230	101300000	1000	0	0	-1	900
7944875	5826	1969	0	-100	0	230	101300000	1000	0	0	-1	900
7957435	5826	1964	0	-100	0	230	101300000	1000	0	0	-1	900
7969995	5836	1956	0	-100	0	230	101300000	1000	0	0	-1	900
7982555	5826	1960	0	-100	0	230	101300000	1000	0	0	-1	900
7995115	5820	1958	0	-100	0	230	101300000	1000	0	0	-1	900
8007675	5817	1960	0	-100	0	230	101300000	1000	0	0	-1	900
8020235	5819	1961	0	-100	0	230	101300000	1000	0	0	-1	900
8032795	5813	1959	0	-100	0	230	101300000	1000	0	0	-1	900
8045355	5825	1957	0	-100	0	230	101300000	1000	0	0	-1	900
8057915	5814	1953	0	-100	0	230	101300000	1000	0	0	-1	900
8070475	5810	1960	0	-100	0	230	101300000	1000	0	0	-1	900
8083035	5821	1966	0	-100	0	230	101300000	1000	0	0	-1	900
8095595	5826	1962	0	-100	0	230	101300000	1000	0	0	-1	900
8108155	5822	1957	0	-100	0	230	101300000	1000	0	0	-1	900
8120715	5817	1954	0	-100	0	230	101300000	1000	0	0	-1	900
8133275	5816	1966	0	-100	0	230	101300000	1000	0	0	-1	900
8145835	5824	1947	0	-100	0	230	101300000	1000	0	0	-1	900
8158395	5822	1962	0	-100	0	230	101300000	1000	0	0	-1	900
8170955	5812	1964	0	-100	0	230	101300000	1000	0	0	-1	900
8183515	5818	1958	0	-100	0	230	101300000	1000	0	0	-1	900
8196075	5821	1964	0	-100	0	230	101300000	1000	0	0	-1	900
8208635	5820	1954	0	-100	0	230	101300000	1000	0	0	-1	900
8221195	5818	1955	0	-100	0	230	101300000	1000	0	0	-1	900
8233755	5832	1957	0	-100	0	230	101300000	1000	0	0	-1	900
8246315	5814	1967	0	-100	0	230	101300000	1000	0	0	-1	900
8258875	5831	1957	0	-100	0	230	101300000	1000	0	0	-1	900
8271435	5824	1954	0	-100	0	230	101300000	1000	0	0	-1	900
8283995	5825	1963	0	-100	0	230	101300000	1000	0	0	-1	900
8296555	5818	1959	0	-100	0	230	101300000	1000	0	0	-1	900
8309115	5826	1963	0	-100	0	230	101300000	1000	0	0	-1	900
8321675	5819	1962	0	-100	0	230	101300000	1000	0	0	-1	900
8334235	5817	1964	0	-100	0	230	101300000	1000	0	0	-1	900
8346795	5814	1957	0	-100	0	230	101300000	1000	0	0	-1	900
8359355	5826	1955	0	-100	0	230	101300000	1000	0	0	-1	900
8371915	5822	1960	0	-100	0	230	101300000	1000	0	0	-1	900
8384475	5820	1958	0	-100	0	230	101300000	1000	0	0	-1	900
8397035	5831	1961	0	-100	0	230	101300000	1000	0	0	-1	900
8409595	5818	1953	0	-100	0	230	101300000	1000	0	0	-1	900
8422155	5814	1956	0	-100	0	230	101300000	1000	0	0	-1	900
8434715	5829	1970	0	-100	0	230	101300000	1000	0	0	-1	900
8447275	5822	1953	0	-100	0	230	101300000	1000	0	0	-1	900
8459835	5818	1961	0	-100	0	230	101300000	1000	0	0	-1	900
8472395	5816	1962	0	-100	0	230	101300000	1000	0	0	-1	900
8484955	5814	1958	0	-100	0	230	101300000	1000	0	0	-1	900
8497515	5812	1953	0	-100	0	230	101300000	1000	0	0	-1	900
8510075	5822	1960	0	-100	0	230	101300000	1000	0	0	-1	900
8522635	5803	1959	0	-100	0	230	101300000	1000	0	0	-1	900
8535195	5818	1965	0	-100	0	230	101300000	1000	0	0	-1	900
8547755	5820	1954	0	-100	0	230	101300000	1000	0	0	-1	900
8560315	5819	1963	0	-100	0	230	101300000	1000	0	0	-1	900
8572875	5816	1959	0	-100	0	230	101300000	1000	0	0	-1	900
8585435	5811	1951	0	-100	0	230	101300000	1000	0	0	-1	900
8597995	5822	1957	0	-100	0	230	101300000	1000	0	0	-1	900
8610555	5812	1952	0	-100	0	230	101300000	1000	0	0	-1	900
8623115	5818	1958	0	-100	0	230	101300000	1000	0	0	-1	900
8635675	5811	1961	0	-100	0	230	101300000	1000	0	0	-1	900
8648235	5813	1955	0	-100	0	230	101300000	1000	0	0	-1	900
8660795	5811	1960	0	-100	0	230	101300000	1000	0	0	-1	900
8673355	5824	1960	0	-100	0	230	101300000	1000	0	0	-1	900
8685915	5828	1963	0	-100	0	230	101300000	1000	0	0	-1	900
8698475	5800	1964	0	-100	0	230	101300000	1000	0	0	-1	900
8711035	5815	1957	0	-100	0	230	101300000	1000	0	0	-1	900
8723595	5824	1957	0	-100	0	230	101300000	1000	0	0	-1	900
8736155	5818	1961	0	-100	0	230	101300000	1000	0	0	-1	900
8748715	5825	1957	0	-100	0	230	101300000	1000	0	0	-1	900
8761275	5824	1961	0	-100	0	230	101300000	1000	0	0	-1	900
8773835	5812	1955	0	-100	0	230	101300000	1000	0	0	-1	900
8786395	5820	1956	0	-100	0	230	101300000	1000	0	0	-1	900
8798955	5818	1966	0	-100	0	230	101300000	1000	0	0	-1	900
8811515	5823	1959	0	-100	0	230	101300000	1000	0	0	-1	900
8824075	5827	1962	0	-100	0	230	101300000	1000	0	0	-1	900
8836635	5816	1963	0	-100	0	230	101300000	1000	0	0	-1	900
8849195	5817	1963	0	-100	0	230	101300000	1000	0	0	-1	900
8861755	5815	1964	0	-100	0	230	101300000	1000	0	0	-1	900
8874315	5825	1957	0	-100	0	230	101300000	1000	0	0	-1	900
8886875	5816	1964	0	-100	0	230	101300000	1000	0	0	-1	900
8899435	5816	1966	0	-100	0	230	101300000	1000	0	0	-1	900
8911995	5819	1964	0	-100	0	230	101300000	1000	0	0	-1	900
8924555	5812	1961	0	-100	0	230	101300000	1000	0	0	-1	900
8937115	5821	1955	0	-100	0	230	101300000	1000	0	0	-1	900
8949675	5810	1962	0	-100	0	230	101300000	1000	0	0	-1	900
8962235	5823	1956	0	-100	0	230	101300000	1000	0	0	-1	900
8974795	5816	1963	0	-100	0	230	101300000	1000	0	0	-1	900
8987355	5821	1970	0	-100	0	230	101300000	1000	0	0	-1	900
8999915	5804	1956	0	-100	0	230	101300000	1000	0	0	-1	900
9012475	5821	1959	0	-100	0	230	101300000	1000	0	0	-1	900
9025035	5820	1959	0	-100	0	230	101300000	1000	0	0	-1	900
9037595	5824	1960	0	-100	0	230	101300000	1000	0	0	-1	900
9050155	5818	1967	0	-100	0	230	101300000	1000	0	0	-1	900
9062715	5816	1956	0	-100	0	230	101300000	1000	0	0	-1	900
9075275	5814	1960	0	-100	0	230	101300000	1000	0	0	-1	900
9087835	5810	1964	0	-100	0	230	101300000	1000	0	0	-1	900
9100395	5814	1958	0	-100	0	230	101300000	1000	0	0	-1	900
9112955	5815	1964	0	-100	0	230	101300000	1000	0	0	-1	900
9125515	5814	1958	0	-100	0	230	101300000	1000	0	0	-1	900
9138075	5813	1968	0	-100	0	230	101300000	1000	0	0	-1	900
9150635	5807	1966	0	-100	0	230	101300000	1000	0	0	-1	900
9163195	5829	1966	0	-100	0	230	101300000	1000	0	0	-1	900
9175755	5822	1969	0	-100	0	230	101300000	1000	0	0	-1	900
9188315	5821	1953	0	-100	0	230	101300000	1000	0	0	-1	900
9200875	5804	1963	0	-100	0	230	101300000	1000	0	0	-1	900
9213435	5818	1958	0	-100	0	230	101300000	1000	0	0	-1	900
9225995	5825	1963	0	-100	0	230	101300000	1000	0	0	-1	900
9238555	5820	1964	0	-100	0	230	101300000	1000	0	0	-1	900
9251115	5827	1963	0	-100	0	230	101300000	1000	0	0	-1	900
9263675	5827	1969	0	-100	0	230	101300000	1000	0	0	-1	900
9276235	5817	1961	0	-100	0	230	101300000	1000	0	0	-1	900
9288795	5814	1962	0	-100	0	230	101300000	1000	0	0	-1	900
9301355	5826	1955	0	-100	0	230	101300000	1000	0	0	-1	900
9313915	5830	1962	0	-100	0	230	101300000	1000	0	0	-1	900
9326475	5816	1965	0	-100	0	230	101300000	1000	0	0	-1	900
9339035	5822	1960	0	-100	0	230	101300000	1000	0	0	-1	900
9351595	5836	1964	0	-100	0	230	101300000	1000	0	0	-1	900
9364155	5814	1961	0	-100	0	230	101300000	1000	0	0	-1	900
9376715	5816	1962	0	-100	0	230	101300000	1000	0	0	-1	900
9389275	5816	1959	0	-100	0	230	101300000	1000	0	0	-1	900
9401835	5823	1956	0	-100	0	230	101300000	1000	0	0	-1	900
9414395	5815	1967	0	-100	0	230	101300000	1000	0	0	-1	900
9426955	5808	1953	0	-100	0	230	101300000	1000	0	0	-1	900
9439515	5818	1966	0	-100	0	230	101300000	1000	0	0	-1	900
9452075	5810	1962	0	-100	0	230	101300000	1000	0	0	-1	900
9464635	5815	1948	0	-100	0	230	101300000	1000	0	0	-1	900
9477195	5814	1959	0	-100	0	230	101300000	1000	0	0	-1	900
9489755	5830	1945	0	-100	0	230	101300000	1000	0	0	-1	900
9502315	5806	1961	0	-100	0	230	101300000	1000	0	0	-1	900
9514875	5816	1955	0	-100	0	230	101300000	1000	0	0	-1	900
9527435	5823	1967	0	-100	0	230	101300000	1000	0	0	-1	900
9539995	5818	1964	0	-100	0	230	101300000	1000	0	0	-1	900
9552555	5822	1959	0	-100	0	230	101300000	1000	0	0	-1	900
9565115	5820	1966	0	-100	0	230	101300000	1000	0	0	-1	900
9577675	5810	1968	0	-100	0	230	101300000	1000	0	0	-1	900
9590235	5822	1952	0	-100	0	230	101300000	1000	0	0	-1	900
9602795	5820	1960	0	-100	0	230	101300000	1000	0	0	-1	900
9615355	5818	1960	0	-100	0	230	101300000	1000	0	0	-1	900
9627915	5817	1960	0	-100	0	230	101300000	1000	0	0	-1	900
9640475	5810	1952	0	-100	0	230	101300000	1000	0	0	-1	900
9653035	5829	1957	0	-100	0	230	101300000	1000	0	0	-1	900
9665595	5818	1958	0	-100	0	230	101300000	1000	0	0	-1	900
9678155	5800	1960	0	-100	0	230	101300000	1000	0	0	-1	900
9690715	5823	1965	0	-100	0	230	101300000	1000	0	0	-1	900
9703275	5818	1960	0	-100	0	230	101300000	1000	0	0	-1	900
9715835	5814	1962	0	-100	0	230	101300000	1000	0	0	-1	900
9728395	5801	1967	0	-100	0	230	101300000	1000	0	0	-1	900
9740955	5819	1969	0	-100	0	230	101300000	1000	0	0	-1	900
9753515	5823	1956	0	-100	0	230	101300000	1000	0	0	-1	900
9766075	5814	1959	0	-100	0	230	101300000	1000	0	0	-1	900
9778635	5816	1967	0	-100	0	230	101300000	1000	0	0	-1	900
9791195	5818	1963	0	-100	0	230	101300000	1000	0	0	-1	900
9803755	5814	1964	0	-100	0	230	101300000	1000	0	0	-1	900
9816315	5822	1964	0	-100	0	230	101300000	1000	0	0	-1	900
9828875	5814	1964	0	-100	0	230	101300000	1000	0	0	-1	900
9841435	5812	1956	0	-100	0	230	101300000	1000	0	0	-1	900
9853995	5820	1964	0	-100	0	230	101300000	1000	0	0	-1	900
9866555	5826	1962	0	-100	0	230	101300000	1000	0	0	-1	900
9879115	5810	1970	0	-100	0	230	101300000	1000	0	0	-1	900
9891675	5826	1966	0	-100	0	230	101300000	1000	0	0	-1	900
9904235	5808	1964	0	-100	0	230	101300000	1000	0	0	-1	900
9916795	5806	1956	0	-100	0	230	101300000	1000	0	0	-1	900
9929355	5816	1959	0	-100	0	230	101300000	1000	0	0	-1	900
9941915	5814	1960	0	-100	0	230	101300000	1000	0	0	-1	900
9954475	5831	1960	0	-100	0	230	101300000	1000	0	0	-1	900
9967035	5826	1973	0	-100	0	230	101300000	1000	0	0	-1	900
9979595	5820	1962	0	-100	0	230	101300000	1000	0	0	-1	900
9992155	5804	1969	0	-100	0	230	101300000	1000	0	0	-1	900
10004715	5811	1967	0	-100	0	230	101300000	1000	0	0	-1	900
10017275	5823	1967	0	-100	0	230	101300000	1000	0	0	-1	900
10029835	5814	1964	0	-100	0	230	101300000	1000	0	0	-1	900
10042395	5815	1966	0	-100	0	230	101300000	1000	0	0	-1	900
10054955	5823	1965	0	-100	0	230	101300000	1000	0	0	-1	900
10067515	5817	1956	0	-100	0	230	101300000	1000	0	0	-1	900
10080075	5805	1962	0	-100	0	230	101300000	1000	0	0	-1	900
10092635	5825	1966	0	-100	0	230	101300000	1000	0	0	-1	900
10105195	5817	1967	0	-100	0	230	101300000	1000	0	0	-1	900
10117755	5819	1959	0	-100	0	230	101300000	1000	0	0	-1	900
10130315	5820	1962	0	-100	0	230	101300000	1000	0	0	-1	900
10142875	5809	1963	0	-100	0	230	101300000	1000	0	0	-1	900
10155435	5811	1948	0	-100	0	230	101300000	1000	0	0	-1	900
10167995	5824	1960	0	-100	0	230	101300000	1000	0	0	-1	900
10180555	5811	1962	0	-100	0	230	101300000	1000	0	0	-1	900
10193115	5809	1972	0	-100	0	230	101300000	1000	0	0	-1	900
10205675	5814	1962	0	-100	0	230	101300000	1000	0	0	-1	900
10218235	5814	1968	0	-100	0	230	101300000	1000	0	0	-1	900
10230795	5814	1969	0	-100	0	230	101300000	1000	0	0	-1	900
10243355	5817	1967	0	-100	0	230	101300000	1000	0	0	-1	900
10255915	5810	1954	0	-100	0	230	101300000	1000	0	0	-1	900
10268475	5817	1963	0	-100	0	230	101300000	1000	0	0	-1	900
10281035	5820	1962	0	-100	0	230	101300000	1000	0	0	-1	900
10293595	5817	1969	0	-100	0	230	101300000	1000	0	0	-1	900
10306155	5812	1958	0	-100	0	230	101300000	1000	0	0	-1	900
10318715	5818	1961	0	-100	0	230	101300000	1000	0	0	-1	900
10331275	5829	1960	0	-100	0	230	101300000	1000	0	0	-1	900
10343835	5819	1952	0	-100	0	230	101300000	1000	0	0	-1	900
10356395	5826	1961	0	-100	0	230	101300000	1000	0	0	-1	900
10368955	5810	1962	0	-100	0	230	101300000	1000	0	0	-1	900
10381515	5822	1963	0	-100	0	230	101300000	1000	0	0	-1	900
10394075	5809	1970	0	-100	0	230	101300000	1000	0	0	-1	900
10406635	5822	1957	0	-100	0	230	101300000	1000	0	0	-1	900
10419195	5821	1968	0	-100	0	230	101300000	1000	0	0	-1	900
10431755	5812	1960	0	-100	0	230	101300000	1000	0	0	-1	900
10444315	5818	1967	0	-100	0	230	101300000	1000	0	0	-1	900
10456875	5826	1965	0	-100	0	230	101300000	1000	0	0	-1	900
10469435	5814	1962	0	-100	0	230	101300000	1000	0	0	-1	900
10481995	5821	1957	0	-100	0	230	101300000	1000	0	0	-1	900
10494555	5810	1962	0	-100	0	230	101300000	1000	0	0	-1	900
10507115	5812	1977	0	-100	0	230	101300000	1000	0	0	-1	900
10519675	5823	1963	0	-100	0	230	101300000	1000	0	0	-1	900
10532235	5830	1960	0	-100	0	230	101300000	1000	0	0	-1	900
10544795	5820	1960	0	-100	0	230	101300000	1000	0	0	-1	900
10557355	5818	1966	0	-100	0	230	101300000	1000	0	0	-1	900
10569915	5824	1960	0	-100	0	230	101300000	1000	0	0	-1	900
10582475	5821	1961	0	-100	0	230	101300000	1000	0	0	-1	900
10595035	5818	1964	0	-100	0	230	101300000	1000	0	0	-1	900
10607595	5810	1956	0	-100	0	230	101300000	1000	0	0	-1	900
10620155	5810	1961	0	-100	0	230	101300000	1000	0	0	-1	900
10632715	5821	1965	0	-100	0	230	101300000	1000	0	0	-1	900
10645275	5815	1966	0	-100	0	230	101300000	1000	0	0	-1	900
10657835	5821	1967	0	-100	0	230	101300000	1000	0	0	-1	900
10670395	5817	1964	0	-100	0	230	101300000	1000	0	0	-1	900
10682955	5811	1967	0	-100	0	230	101300000	1000	0	0	-1	900
10695515	5825	1961	0	-100	0	230	101300000	1000	0	0	-1	900
10708075	5811	1974	0	-100	0	230	101300000	1000	0	0	-1	900
10720635	5813	1966	0	-100	0	230	101300000	1000	0	0	-1	900
10733195	5824	1960	0	-100	0	230	101300000	1000	0	0	-1	900
10745755	5806	1967	0	-100	0	230	101300000	1000	0	0	-1	900
10758315	5831	1965	0	-100	0	230	101300000	1000	0	0	-1	900
10770875	5807	1971	0	-100	0	230	101300000	1000	0	0	-1	900
10783435	5817	1965	0	-100	0	230	101300000	1000	0	0	-1	900
10795995	5819	1963	0	-100	0	230	101300000	1000	0	0	-1	900
10808555	5801	1968	0	-100	0	230	101300000	1000	0	0	-1	900
10821115	5823	1961	0	-100	0	230	101300000	1000	0	0	-1	900
10833675	5814	1957	0	-100	0	230	101300000	1000	0	0	-1	900
10846235	5821	1961	0	-100	0	230	101300000	1000	0	0	-1	900
10858795	5811	1965	0	-100	0	230	101300000	1000	0	0	-1	900
10871355	5825	1957	0	-100	0	230	101300000	1000	0	0	-1	900
10883915	5822	1964	0	-100	0	230	101300000	1000	0	0	-1	900
10896475	5815	1955	0	-100	0	230	101300000	1000	0	0	-1	900
10909035	5823	1964	0	-100	0	230	101300000	1000	0	0	-1	900
10921595	5813	1969	0	-100	0	230	101300000	1000	0	0	-1	900
10934155	5811	1957	0	-100	0	230	101300000	1000	0	0	-1	900
10946715	5816	1960	0	-100	0	230	101300000	1000	0	0	-1	900
10959275	5819	1960	0	-100	0	230	101300000	1000	0	0	-1	900
10971835	5821	1960	0	-100	0	230	101300000	1000	0	0	-1	900
10984395	5810	1962	0	-100	0	230	101300000	1000	0	0	-1	900
10996955	5818	1962	0	-100	0	230	101300000	1000	0	0	-1	900
11009515	5815	1966	0	-100	0	230	101300000	1000	0	0	-1	900
11022075	5818	1968	0	-100	0	230	101300000	1000	0	0	-1	900
11034635	5822	1966	0	-100	0	230	101300000	1000	0	0	-1	900
11047195	5808	1963	0	-100	0	230	101300000	1000	0	0	-1	900
11059755	5832	1960	0	-100	0	230	101300000	1000	0	0	-1	900
11072315	5811	1964	0	-100	0	230	101300000	1000	0	0	-1	900
11084875	5817	1953	0	-100	0	230	101300000	1000	0	0	-1	900
11097435	5814	1960	0	-100	0	230	101300000	1000	0	0	-1	900
11109995	5818	1965	0	-100	0	230	101300000	1000	0	0	-1	900
11122555	5812	1963	0	-100	0	230	101300000	1000	0	0	-1	900
11135115	5828	1961	0	-100	0	230	101300000	1000	0	0	-1	900
11147675	5812	1969	0	-100	0	230	101300000	1000	0	0	-1	900
11160235	5815	1960	0	-100	0	230	101300000	1000	0	0	-1	900
11172795	5816	1969	0	-100	0	230	101300000	1000	0	0	-1	900
11185355	5827	1969	0	-100	0	230	101300000	1000	0	0	-1	900
11197915	5818	1966	0	-100	0	230	101300000	1000	0	0	-1	900
11210475	5818	1962	0	-100	0	230	101300000	1000	0	0	-1	900
11223035	5814	1964	0	-100	0	230	101300000	1000	0	0	-1	900
11235595	5812	1964	0	-100	0	230	101300000	1000	0	0	-1	900
11248155	5813	1959	0	-100	0	230	101300000	1000	0	0	-1	900
11260715	5822	1958	0	-100	0	230	101300000	1000	0	0	-1	900
11273275	5829	1964	0	-100	0	230	101300000	1000	0	0	-1	900
11285835	5815	1962	0	-100	0	230	101300000	1000	0	0	-1	900
11298395	5818	1966	0	-100	0	230	101300000	1000	0	0	-1	900
11310955	5802	1970	0	-100	0	230	101300000	1000	0	0	-1	900
11323515	5816	1963	0	-100	0	230	101300000	1000	0	0	-1	900
11336075	5822	1962	0	-100	0	230	101300000	1000	0	0	-1	900
11348635	5806	1963	0	-100	0	230	101300000	1000	0	0	-1	900
11361195	5811	1962	0	-100	0	230	101300000	1000	0	0	-1	900
11373755	5813	1966	0	-100	0	230	101300000	1000	0	0	-1	900
11386315	5818	1960	0	-100	0	230	101300000	1000	0	0	-1	900
11398875	5809	1961	0	-100	0	230	101300000	1000	0	0	-1	900
11411435	5819	1954	0	-100	0	230	101300000	1000	0	0	-1	900
11423995	5809	1970	0	-100	0	230	101300000	1000	0	0	-1	900
11436555	5829	1971	0	-100	0	230	101300000	1000	0	0	-1	900
11449115	5812	1964	0	-100	0	230	101300000	1000	0	0	-1	900
11461675	5820	1962	0	-100	0	230	101300000	1000	0	0	-1	900
11474235	5814	1969	0	-100	0	230	101300000	1000	0	0	-1	900
11486795	5812	1964	0	-100	0	230	101300000	1000	0	0	-1	900
11499355	5818	1963	0	-100	0	230	101300000	1000	0	0	-1	900
11511915	5821	1965	0	-100	0	230	101300000	1000	0	0	-1	900
11524475	5825	1968	0	-100	0	230	101300000	1000	0	0	-1	900
11537035	5814	1967	0	-100	0	230	101300000	1000	0	0	-1	900
11549595	5822	1964	0	-100	0	230	101300000	1000	0	0	-1	900
11562155	5810	1956	0	-100	0	230	101300000	1000	0	0	-1	900
11574715	5814	1952	0	-100	0	230	101300000	1000	0	0	-1	900
11587275	5814	1956	0	-100	0	230	101300000	1000	0	0	-1	900
11599835	5815	1960	0	-100	0	230	101300000	1000	0	0	-1	900
11612395	5806	1968	0	-100	0	230	101300000	1000	0	0	-1	900
11624955	5821	1963	0	-100	0	230	101300000	1000	0	0	-1	900
11637515	5818	1960	0	-100	0	230	101300000	1000	0	0	-1	900
11650075	5819	1962	0	-100	0	230	101300000	1000	0	0	-1	900
11662635	5818	1972	0	-100	0	230	101300000	1000	0	0	-1	900
11675195	5821	1959	0	-100	0	230	101300000	1000	0	0	-1	900
11687755	5822	1963	0	-100	0	230	101300000	1000	0	0	-1	900
11700315	5817	1968	0	-100	0	230	101300000	1000	0	0	-1	900
11712875	5818	1964	0	-100	0	230	101300000	1000	0	0	-1	900
11725435	5819	1964	0	-100	0	230	101300000	1000	0	0	-1	900
11737995	5824	1963	0	-100	0	230	101300000	1000	0	0	-1	900
11750555	5813	1957	0	-100	0	230	101300000	1000	0	0	-1	900
11763115	5815	1960	0	-100	0	230	101300000	1000	0	0	-1	900
11775675	5810	1967	0	-100	0	230	101300000	1000	0	0	-1	900
11788235	5815	1952	0	-100	0	230	101300000	1000	0	0	-1	900
11800795	5819	1960	0	-100	0	230	101300000	1000	0	0	-1	900
11813355	5828	1970	0	-100	0	230	101300000	1000	0	0	-1	900
11825915	5816	1966	0	-100	0	230	101300000	1000	0	0	-1	900
11838475	5810	1966	0	-100	0	230	101300000	1000	0	0	-1	900
11851035	5817	1972	0	-100	0	230	101300000	1000	0	0	-1	900
11863595	5818	1962	0	-100	0	230	101300000	1000	0	0	-1	900
11876155	5814	1959	0	-100	0	230	101300000	1000	0	0	-1	900
11888715	5827	1967	0	-100	0	230	101300000	1000	0	0	-1	900
11901275	5811	1966	0	-100	0	230	101300000	1000	0	0	-1	900
11913835	5814	1974	0	-100	0	230	101300000	1000	0	0	-1	900
11926395	5820	1966	0	-100	0	230	101300000	1000	0	0	-1	900
11938955	5811	1968	0	-100	0	230	101300000	1000	0	0	-1	900
11951515	5807	1966	0	-100	0	230	101300000	1000	0	0	-1	900
11964075	5822	1963	0	-100	0	230	101300000	1000	0	0	-1	900
11976635	5824	1961	0	-100	0	230	101300000	1000	0	0	-1	900
11989195	5821	1965	0	-100	0	230	101300000	1000	0	0	-1	900
12001755	5820	1973	0	-100	0	230	101300000	1000	0	0	-1	900
12014315	5812	1965	0	-100	0	230	101300000	1000	0	0	-1	900
12026875	5805	1970	0	-100	0	230	101300000	1000	0	0	-1	900
12039435	5813	1963	0	-100	0	230	101300000	1000	0	0	-1	900
12051995	5815	1958	0	-100	0	230	101300000	1000	0	0	-1	900
12064555	5816	1967	0	-100	0	230	101300000	1000	0	0	-1	900
12077115	5815	1964	0	-100	0	230	101300000	1000	0	0	-1	900
12089675	5832	1968	0	-100	0	230	101300000	1000	0	0	-1	900
12102235	5811	1967	0	-100	0	230	101300000	1000	0	0	-1	900
12114795	5814	1963	0	-100	0	230	101300000	1000	0	0	-1	900
12127355	5809	1963	0	-100	0	230	101300000	1000	0	0	-1	900
12139915	5814	1970	0	-100	0	230	101300000	1000	0	0	-1	900
12152475	5810	1952	0	-100	0	230	101300000	1000	0	0	-1	900
12165035	5811	1965	0	-100	0	230	101300000	1000	0	0	-1	900
12177595	5823	1961	0	-100	0	230	101300000	1000	0	0	-1	900
12190155	5801	1954	0	-100	0	230	101300000	1000	0	0	-1	900
12202715	5814	1961	0	-100	0	230	101300000	1000	0	0	-1	900
12215275	5814	1952	0	-100	0	230	101300000	1000	0	0	-1	900
12227835	5822	1961	0	-100	0	230	101300000	1000	0	0	-1	900
12240395	5814	1963	0	-100	0	230	101300000	1000	0	0	-1	900
12252955	5811	1963	0	-100	0	230	101300000	1000	0	0	-1	900
12265515	5801	1955	0	-100	0	230	101300000	1000	0	0	-1	900
12278075	5811	1960	0	-100	0	230	101300000	1000	0	0	-1	900
12290635	5812	1972	0	-100	0	230	101300000	1000	0	0	-1	900
12303195	5810	1966	0	-100	0	230	101300000	1000	0	0	-1	900
12315755	5822	1969	0	-100	0	230	101300000	1000	0	0	-1	900
12328315	5818	1957	0	-100	0	230	101300000	1000	0	0	-1	900
12340875	5818	1962	0	-100	0	230	101300000	1000	0	0	-1	900
12353435	5817	1963	0	-100	0	230	101300000	1000	0	0	-1	900
12365995	5821	1961	0	-100	0	230	101300000	1000	0	0	-1	900
12378555	5808	1964	0	-100	0	230	101300000	1000	0	0	-1	900
12391115	5818	1964	0	-100	0	230	101300000	1000	0	0	-1	900
12403675	5814	1959	0	-100	0	230	101300000	1000	0	0	-1	900
12416235	5814	1964	0	-100	0	230	101300000	1000	0	0	-1	900
12428795	5820	1969	0	-100	0	230	101300000	1000	0	0	-1	900
12441355	5815	1959	0	-100	0	230	101300000	1000	0	0	-1	900
12453915	5815	1967	0	-100	0	230	101300000	1000	0	0	-1	900
12466475	5818	1965	0	-100	0	230	101300000	1000	0	0	-1	900
12479035	5809	1967	0	-100	0	230	101300000	1000	0	0	-1	900
12491595	5816	1959	0	-100	0	230	101300000	1000	0	0	-1	900
12504155	5794	1960	0	-100	0	230	101300000	1000	0	0	-1	900
12516715	5816	1959	0	-100	0	230	101300000	1000	0	0	-1	900
12529275	5818	1959	0	-100	0	230	101300000	1000	0	0	-1	900
12541835	5808	1961	0	-100	0	230	101300000	1000	0	0	-1	900
12554395	5818	1963	0	-100	0	230	101300000	1000	0	0	-1	900
12566955	5819	1957	0	-100	0	230	101300000	1000	0	0	-1	900
12579515	5815	1958	0	-100	0	230	101300000	1000	0	0	-1	900
12592075	5830	1970	0	-100	0	230	101300000	1000	0	0	-1	900
12604635	5818	1974	0	-100	0	230	101300000	1000	0	0	-1	900
12617195	5821	1967	0	-100	0	230	101300000	1000	0	0	-1	900
12629755	5813	1967	0	-100	0	230	101300000	1000	0	0	-1	900
12642315	5811	1967	0	-100	0	230	101300000	1000	0	0	-1	900
12654875	5816	1962	0	-100	0	230	101300000	1000	0	0	-1	900
12667435	5811	1964	0	-100	0	230	101300000	1000	0	0	-1	900
12679995	5826	1973	0	-100	0	230	101300000	1000	0	0	-1	900
12692555	5816	1973	0	-100	0	230	101300000	1000	0	0	-1	900
12705115	5807	1969	0	-100	0	230	101300000	1000	0	0	-1	900
12717675	5814	1965	0	-100	0	230	101300000	1000	0	0	-1	900
12730235	5817	1969	0	-100	0	230	101300000	1000	0	0	-1	900
12742795	5825	1967	0	-100	0	230	101300000	1000	0	0	-1	900
12755355	5818	1961	0	-100	0	230	101300000	1000	0	0	-1	900
12767915	5811	1955	0	-100	0	230	101300000	1000	0	0	-1	900
12780475	5818	1957	0	-100	0	230	101300000	1000	0	0	-1	900
12793035	5821	1964	0	-100	0	230	101300000	1000	0	0	-1	900
12805595	5817	1964	0	-100	0	230	101300000	1000	0	0	-1	900
12818155	5804	1955	0	-100	0	230	101300000	1000	0	0	-1	900
12830715	5811	1959	0	-100	0	230	101300000	1000	0	0	-1	900
12843275	5810	1962	0	-100	0	230	101300000	1000	0	0	-1	900
12855835	5809	1965	0	-100	0	230	101300000	1000	0	0	-1	900
12868395	5820	1962	0	-100	0	230	101300000	1000	0	0	-1	900
12880955	5810	1960	0	-100	0	230	101300000	1000	0	0	-1	900
12893515	5808	1966	0	-100	0	230	101300000	1000	0	0	-1	900
12906075	5814	1959	0	-100	0	230	101300000	1000	0	0	-1	900
12918635	5810	1962	0	-100	0	230	101300000	1000	0	0	-1	900
12931195	5818	1961	0	-100	0	230	101300000	1000	0	0	-1	900
12943755	5821	1965	0	-100	0	230	101300000	1000	0	0	-1	900
12956315	5813	1967	0	-100	0	230	101300000	1000	0	0	-1	900
12968875	5811	1960	0	-100	0	230	101300000	1000	0	0	-1	900
12981435	5825	1963	0	-100	0	230	101300000	1000	0	0	-1	900
12993995	5801	1967	0	-100	0	230	101300000	1000	0	0	-1	900
13006555	5818	1957	0	-100	0	230	101300000	1000	0	0	-1	900
13019115	5811	1970	0	-100	0	230	101300000	1000	0	0	-1	900
13031675	5804	1967	0	-100	0	230	101300000	1000	0	0	-1	900
13044235	5818	1974	0	-100	0	230	101300000	1000	0	0	-1	900
13056795	5804	1965	0	-100	0	230	101300000	1000	0	0	-1	900
13069355	5822	1964	0	-100	0	230	101300000	1000	0	0	-1	900
13081915	5814	1964	0	-100	0	230	101300000	1000	0	0	-1	900
13094475	5805	1967	0	-100	0	230	101300000	1000	0	0	-1	900
13107035	5816	1966	0	-100	0	230	101300000	1000	0	0	-1	900
13119595	5819	1961	0	-100	0	230	101300000	1000	0	0	-1	900
13132155	5794	1963	0	-100	0	230	101300000	1000	0	0	-1	900
13144715	5812	1966	0	-100	0	230	101300000	1000	0	0	-1	900
13157275	5814	1959	0	-100	0	230	101300000	1000	0	0	-1	900
13169835	5803	1960	0	-100	0	230	101300000	1000	0	0	-1	900
13182395	5818	1964	0	-100	0	230	101300000	1000	0	0	-1	900
13194955	5826	1961	0	-100	0	230	101300000	1000	0	0	-1	900
13207515	5818	1953	0	-100	0	230	101300000	1000	0	0	-1	900
13220075	5816	1961	0	-100	0	230	101300000	1000	0	0	-1	900
13232635	5814	1960	0	-100	0	230	101300000	1000	0	0	-1	900
13245195	5809	1963	0	-100	0	230	101300000	1000	0	0	-1	900
13257755	5814	1966	0	-100	0	230	101300000	1000	0	0	-1	900
13270315	5820	1957	0	-100	0	230	101300000	1000	0	0	-1	900
13282875	5819	1964	0	-100	0	230	101300000	1000	0	0	-1	900
13295435	5812	1966	0	-100	0	230	101300000	1000	0	0	-1	900
13307995	5820	1966	0	-100	0	230	101300000	1000	0	0	-1	900
13320555	5816	1967	0	-100	0	230	101300000	1000	0	0	-1	900
13333115	5809	1964	0	-100	0	230	101300000	1000	0	0	-1	900
13345675	5806	1962	0	-100	0	230	101300000	1000	0	0	-1	900
13358235	5812	1970	0	-100	0	230	101300000	1000	0	0	-1	900
13370795	5815	1967	0	-100	0	230	101300000	1000	0	0	-1	900
13383355	5816	1964	0	-100	0	230	101300000	1000	0	0	-1	900
13395915	5819	1966	0	-100	0	230	101300000	1000	0	0	-1	900
13408475	5825	1971	0	-100	0	230	101300000	1000	0	0	-1	900
13421035	5801	1957	0	-100	0	230	101300000	1000	0	0	-1	900
13433595	5817	1960	0	-100	0	230	101300000	1000	0	0	-1	900
13446155	5814	1968	0	-100	0	230	101300000	1000	0	0	-1	900
13458715	5805	1958	0	-100	0	230	101300000	1000	0	0	-1	900
13471275	5828	1966	0	-100	0	230	101300000	1000	0	0	-1	900
13483835	5826	1963	0	-100	0	230	101300000	1000	0	0	-1	900
13496395	5813	1974	0	-100	0	230	101300000	1000	0	0	-1	900
13508955	5826	1975	0	-100	0	230	101300000	1000	0	0	-1	900
13521515	5808	1966	0	-100	0	230	101300000	1000	0	0	-1	900
13534075	5818	1966	0	-100	0	230	101300000	1000	0	0	-1	900
13546635	5816	1960	0	-100	0	230	101300000	1000	0	0	-1	900
13559195	5823	1963	0	-100	0	230	101300000	1000	0	0	-1	900
13571755	5814	1959	0	-100	0	230	101300000	1000	0	0	-1	900
13584315	5816	1959	0	-100	0	230	101300000	1000	0	0	-1	900
13596875	5803	1970	0	-100	0	230	101300000	1000	0	0	-1	900
13609435	5811	1963	0	-100	0	230	101300000	1000	0	0	-1	900
13621995	5806	1959	0	-100	0	230	101300000	1000	0	0	-1	900
13634555	5801	1954	0	-100	0	230	101300000	1000	0	0	-1	900
13647115	5818	1959	0	-100	0	230	101300000	1000	0	0	-1	900
13659675	5822	1962	0	-100	0	230	101300000	1000	0	0	-1	900
13672235	5816	1961	0	-100	0	230	101300000	1000	0	0	-1	900
13684795	5816	1980	0	-100	0	230	101300000	1000	0	0	-1	900
13697355	5816	1968	0	-100	0	230	101300000	1000	0	0	-1	900
13709915	5811	1971	0	-100	0	230	101300000	1000	0	0	-1	900
13722475	5810	1961	0	-100	0	230	101300000	1000	0	0	-1	900
13735035	5805	1962	0	-100	0	230	101300000	1000	0	0	-1	900
13747595	5809	1974	0	-100	0	230	101300000	1000	0	0	-1	900
13760155	5810	1973	0	-100	0	230	101300000	1000	0	0	-1	900
13772715	5816	1973	0	-100	0	230	101300000	1000	0	0	-1	900
13785275	5821	1966	0	-100	0	230	101300000	1000	0	0	-1	900
13797835	5813	1970	0	-100	0	230	101300000	1000	0	0	-1	900
13810395	5818	1957	0	-100	0	230	101300000	1000	0	0	-1	900
13822955	5817	1958	0	-100	0	230	101300000	1000	0	0	-1	900
13835515	5817	1958	0	-100	0	230	101300000	1000	0	0	-1	900
13848075	5814	1960	0	-100	0	230	101300000	1000	0	0	-1	900
13860635	5812	1968	0	-100	0	230	101300000	1000	0	0	-1	900
13873195	5816	1956	0	-100	0	230	101300000	1000	0	0	-1	900
13885755	5814	1965	0	-100	0	230	101300000	1000	0	0	-1	900
13898315	5818	1959	0	-100	0	230	101300000	1000	0	0	-1	900
13910875	5811	1959	0	-100	0	230	101300000	1000	0	0	-1	900
13923435	5809	1967	0	-100	0	230	101300000	1000	0	0	-1	900
13935995	5815	1962	0	-100	0	230	101300000	1000	0	0	-1	900
13948555	5810	1968	0	-100	0	230	101300000	1000	0	0	-1	900
13961115	5820	1963	0	-100	0	230	101300000	1000	0	0	-1	900
13973675	5805	1964	0	-100	0	230	101300000	1000	0	0	-1	900
13986235	5830	1957	0	-100	0	230	101300000	1000	0	0	-1	900
13998795	5809	1955	0	-100	0	230	101300000	1000	0	0	-1	900
14011355	5813	1966	0	-100	0	230	101300000	1000	0	0	-1	900
14023915	5814	1963	0	-100	0	230	101300000	1000	0	0	-1	900
14036475	5818	1964	0	-100	0	230	101300000	1000	0	0	-1	900
14049035	5814	1968	0	-100	0	230	101300000	1000	0	0	-1	900
14061595	5818	1969	0	-100	0	230	101300000	1000	0	0	-1	900
14074155	5819	1967	0	-100	0	230	101300000	1000	0	0	-1	900
14086715	5820	1960	0	-100	0	230	101300000	1000	0	0	-1	900
14099275	5822	1961	0	-100	0	230	101300000	1000	0	0	-1	900
14111835	5814	1955	0	-100	0	230	101300000	1000	0	0	-1	900
14124395	5810	1966	0	-100	0	230	101300000	1000	0	0	-1	900
14136955	5816	1963	0	-100	0	230	101300000	1000	0	0	-1	900
14149515	5814	1966	0	-100	0	230	101300000	1000	0	0	-1	900
14162075	5818	1963	0	-100	0	230	101300000	1000	0	0	-1	900
14174635	5815	1965	0	-100	0	230	101300000	1000	0	0	-1	900
14187195	5809	1968	0	-100	0	230	101300000	1000	0	0	-1	900
14199755	5812	1963	0	-100	0	230	101300000	1000	0	0	-1	900
14212315	5826	1964	0	-100	0	230	101300000	1000	0	0	-1	900
14224875	5819	1962	0	-100	0	230	101300000	1000	0	0	-1	900
14237435	5816	1957	0	-100	0	230	101300000	1000	0	0	-1	900
14249995	5812	1959	0	-100	0	230	101300000	1000	0	0	-1	900
14262555	5822	1964	0	-100	0	230	101300000	1000	0	0	-1	900
14275115	5824	1958	0	-100	0	230	101300000	1000	0	0	-1	900
14287675	5802	1963	0	-100	0	230	101300000	1000	0	0	-1	900
14300235	5820	1964	0	-100	0	230	101300000	1000	0	0	-1	900
14312795	5827	1972	0	-100	0	230	101300000	1000	0	0	-1	900
14325355	5823	1958	0	-100	0	230	101300000	1000	0	0	-1	900
14337915	5818	1960	0	-100	0	230	101300000	1000	0	0	-1	900
14350475	5809	1960	0	-100	0	230	101300000	1000	0	0	-1	900
14363035	5814	1967	0	-100	0	230	101300000	1000	0	0	-1	900
14375595	5815	1957	0	-100	0	230	101300000	1000	0	0	-1	900
14388155	5806	1971	0	-100	0	230	101300000	1000	0	0	-1	900
14400715	5810	1970	0	-100	0	230	101300000	1000	0	0	-1	900
14413275	5818	1964	0	-100	0	230	101300000	1000	0	0	-1	900
14425835	5814	1964	0	-100	0	230	101300000	1000	0	0	-1	900
14438395	5817	1967	0	-100	0	230	101300000	1000	0	0	-1	900
14450955	5813	1962	0	-100	0	230	101300000	1000	0	0	-1	900
14463515	5817	1965	0	-100	0	230	101300000	1000	0	0	-1	900
14476075	5818	1963	0	-100	0	230	101300000	1000	0	0	-1	900
14488635	5803	1964	0	-100	0	230	101300000	1000	0	0	-1	900
14501195	5808	1965	0	-100	0	230	101300000	1000	0	0	-1	900
14513755	5818	1962	0	-100	0	230	101300000	1000	0	0	-1	900
14526315	5818	1963	0	-100	0	230	101300000	1000	0	0	-1	900
14538875	5802	1954	0	-100	0	230	101300000	1000	0	0	-1	900
14551435	5814	1966	0	-100	0	230	101300000	1000	0	0	-1	900
14563995	5811	1961	0	-100	0	230	101300000	1000	0	0	-1	900
14576555	5815	1965	0	-100	0	230	101300000	1000	0	0	-1	900
14589115	5807	1968	0	-100	0	230	101300000	1000	0	0	-1	900
14601675	5810	1957	0	-100	0	230	101300000	1000	0	0	-1	900
14614235	5822	1960	0	-100	0	230	101300000	1000	0	0	-1	900
14626795	5805	1972	0	-100	0	230	101300000	1000	0	0	-1	900
14639355	5803	1957	0	-100	0	230	101300000	1000	0	0	-1	900
14651915	5813	1968	0	-100	0	230	101300000	1000	0	0	-1	900
14664475	5814	1953	0	-100	0	230	101300000	1000	0	0	-1	900
14677035	5814	1961	0	-100	0	230	101300000	1000	0	0	-1	900
14689595	5807	1964	0	-100	0	230	101300000	1000	0	0	-1	900
14702155	5802	1963	0	-100	0	230	101300000	1000	0	0	-1	900
14714715	5814	1964	0	-100	0	230	101300000	1000	0	0	-1	900
14727275	5821	1963	0	-100	0	230	101300000	1000	0	0	-1	900
14739835	5809	1963	0	-100	0	230	101300000	1000	0	0	-1	900
14752395	5807	1960	0	-100	0	230	101300000	1000	0	0	-1	900
14764955	5811	1965	0	-100	0	230	101300000	1000	0	0	-1	900
14777515	5814	1954	0	-100	0	230	101300000	1000	0	0	-1	900
14790075	5817	1964	0	-100	0	230	101300000	1000	0	0	-1	900
14802635	5818	1957	0	-100	0	230	101300000	1000	0	0	-1	900
14815195	5808	1963	0	-100	0	230	101300000	1000	0	0	-1	900
14827755	5820	1966	0	-100	0	230	101300000	1000	0	0	-1	900
14840315	5811	1959	0	-100	0	230	101300000	1000	0	0	-1	900
14852875	5822	1974	0	-100	0	230	101300000	1000	0	0	-1	900
14865435	5816	1962	0	-100	0	230	101300000	1000	0	0	-1	900
14877995	5816	1967	0	-100	0	230	101300000	1000	0	0	-1	900
14890555	5800	1958	0	-100	0	230	101300000	1000	0	0	-1	900
14903115	5813	1967	0	-100	0	230	101300000	1000	0	0	-1	900
14915675	5804	1963	0	-100	0	230	101300000	1000	0	0	-1	900
14928235	5806	1963	0	-100	0	230	101300000	1000	0	0	-1	900
14940795	5811	1955	0	-100	0	230	101300000	1000	0	0	-1	900
14953355	5806	1962	0	-100	0	230	101300000	1000	0	0	-1	900
14965915	5804	1959	0	-100	0	230	101300000	1000	0	0	-1	900
14978475	5810	1963	0	-100	0	230	101300000	1000	0	0	-1	900
14991035	5803	1955	0	-100	0	230	101300000	1000	0	0	-1	900
15003595	5799	1962	0	-100	0	230	101300000	1000	0	0	-1	900
15016155	5803	1964	0	-100	0	230	101300000	1000	0	0	-1	900
15028715	5818	1965	0	-100	0	230	101300000	1000	0	0	-1	900
15041275	5808	1962	0	-100	0	230	101300000	1000	0	0	-1	900
15053835	5805	1961	0	-100	0	230	101300000	1000	0	0	-1	900
15066395	5810	1967	0	-100	0	230	101300000	1000	0	0	-1	900
15078955	5817	1971	0	-100	0	230	101300000	1000	0	0	-1	900
15091515	5814	1961	0	-100	0	230	101300000	1000	0	0	-1	900
15104075	5812	1960	0	-100	0	230	101300000	1000	0	0	-1	900
15116635	5810	1962	0	-100	0	230	101300000	1000	0	0	-1	900
15129195	5818	1967	0	-100	0	230	101300000	1000	0	0	-1	900
15141755	5814	1964	0	-100	0	230	101300000	1000	0	0	-1	900
15154315	5810	1967	0	-100	0	230	101300000	1000	0	0	-1	900
15166875	5811	1970	0	-100	0	230	101300000	1000	0	0	-1	900
15179435	5817	1956	0	-100	0	230	101300000	1000	0	0	-1	900
15191995	5813	1960	0	-100	0	230	101300000	1000	0	0	-1	900
15204555	5809	1959	0	-100	0	230	101300000	1000	0	0	-1	900
15217115	5811	1957	0	-100	0	230	101300000	1000	0	0	-1	900
15229675	5803	1969	0	-100	0	230	101300000	1000	0	0	-1	900
15242235	5822	1966	0	-100	0	230	101300000	1000	0	0	-1	900
15254795	5814	1965	0	-100	0	230	101300000	1000	0	0	-1	900
15267355	5822	1960	0	-100	0	230	101300000	1000	0	0	-1	900
15279915	5808	1963	0	-100	0	230	101300000	1000	0	0	-1	900
15292475	5811	1968	0	-100	0	230	101300000	1000	0	0	-1	900
15305035	5806	1962	0	-100	0	230	101300000	1000	0	0	-1	900
15317595	5826	1960	0	-100	0	230	101300000	1000	0	0	-1	900
15330155	5801	1972	0	-100	0	230	101300000	1000	0	0	-1	900
15342715	5818	1962	0	-100	0	230	101300000	1000	0	0	-1	900
15355275	5817	1965	0	-100	0	230	101300000	1000	0	0	-1	900
15367835	5813	1959	0	-100	0	230	101300000	1000	0	0	-1	900
15380395	5807	1957	0	-100	0	230	101300000	1000	0	0	-1	900
15392955	5799	1963	0	-100	0	230	101300000	1000	0	0	-1	900
15405515	5816	1967	0	-100	0	230	101300000	1000	0	0	-1	900
15418075	5815	1971	0	-100	0	230	101300000	1000	0	0	-1	900
15430635	5809	1960	0	-100	0	230	101300000	1000	0	0	-1	900
15443195	5805	1955	0	-100	0	230	101300000	1000	0	0	-1	900
15455755	5809	1966	0	-100	0	230	101300000	1000	0	0	-1	900
15468315	5807	1969	0	-100	0	230	101300000	1000	0	0	-1	900
15480875	5816	1967	0	-100	0	230	101300000	1000	0	0	-1	900
15493435	5816	1957	0	-100	0	230	101300000	1000	0	0	-1	900
15505995	5812	1961	0	-100	0	230	101300000	1000	0	0	-1	900
15518555	5806	1962	0	-100	0	230	101300000	1000	0	0	-1	900
15531115	5814	1964	0	-100	0	230	101300000	1000	0	0	-1	900
15543675	5815	1969	0	-100	0	230	101300000	1000	0	0	-1	900
15556235	5815	1963	0	-100	0	230	101300000	1000	0	0	-1	900
15568795	5808	1959	0	-100	0	230	101300000	1000	0	0	-1	900
15581355	5811	1959	0	-100	0	230	101300000	1000	0	0	-1	900
15593915	5822	1958	0	-100	0	230	101300000	1000	0	0	-1	900
15606475	5813	1957	0	-100	0	230	101300000	1000	0	0	-1	900
15619035	5826	1962	0	-100	0	230	101300000	1000	0	0	-1	900
15631595	5820	1958	0	-100	0	230	101300000	1000	0	0	-1	900
15644155	5805	1956	0	-100	0	230	101300000	1000	0	0	-1	900
15656715	5792	1963	0	-100	0	230	101300000	1000	0	0	-1	900
15669275	5824	1960	0	-100	0	230	101300000	1000	0	0	-1	900
15681835	5821	1964	0	-100	0	230	101300000	1000	0	0	-1	900
15694395	5809	1961	0	-100	0	230	101300000	1000	0	0	-1	900
15706955	5814	1959	0	-100	0	230	101300000	1000	0	0	-1	900
15719515	5811	1966	0	-100	0	230	101300000	1000	0	0	-1	900
15732075	5809	1963	0	-100	0	230	101300000	1000	0	0	-1	900
15744635	5820	1966	0	-100	0	230	101300000	1000	0	0	-1	900
15757195	5818	1957	0	-100	0	230	101300000	1000	0	0	-1	900
15769755	5814	1964	0	-100	0	230	101300000	1000	0	0	-1	900
15782315	5804	1963	0	-100	0	230	101300000	1000	0	0	-1	900
15794875	5810	1961	0	-100	0	230	101300000	1000	0	0	-1	900
15807435	5819	1959	0	-100	0	230	101300000	1000	0	0	-1	900
15819995	5805	1963	0	-100	0	230	101300000	1000	0	0	-1	900
15832555	5810	1956	0	-100	0	230	101300000	1000	0	0	-1	900
15845115	5807	1966	0	-100	0	230	101300000	1000	0	0	-1	900
15857675	5805	1964	0	-100	0	230	101300000	1000	0	0	-1	900
15870235	5805	1962	0	-100	0	230	101300000	1000	0	0	-1	900
15882795	5817	1964	0	-100	0	230	101300000	1000	0	0	-1	900
15895355	5804	1955	0	-100	0	230	101300000	1000	0	0	-1	900
15907915	5817	1963	0	-100	0	230	101300000	1000	0	0	-1	900
15920475	5822	1968	0	-100	0	230	101300000	1000	0	0	-1	900
15933035	5809	1959	0	-100	0	230	101300000	1000	0	0	-1	900
15945595	5813	1959	0	-100	0	230	101300000	1000	0	0	-1	900
15958155	5805	1973	0	-100	0	230	101300000	1000	0	0	-1	900
15970715	5821	1967	0	-100	0	230	101300000	1000	0	0	-1	900
15983275	5806	1955	0	-100	0	230	101300000	1000	0	0	-1	900
15995835	5818	1956	0	-100	0	230	101300000	1000	0	0	-1	900
16008395	5813	1963	0	-100	0	230	101300000	1000	0	0	-1	900
16020955	5805	1965	0	-100	0	230	101300000	1000	0	0	-1	900
16033515	5812	1966	0	-100	0	230	101300000	1000	0	0	-1	900
16046075	5814	1959	0	-100	0	230	101300000	1000	0	0	-1	900
16058635	5827	1958	0	-100	0	230	101300000	1000	0	0	-1	900
16071195	5826	1968	0	-100	0	230	101300000	1000	0	0	-1	900
16083755	5810	1964	0	-100	0	230	101300000	1000	0	0	-1	900
16096315	5821	1955	0	-100	0	230	101300000	1000	0	0	-1	900
16108875	5811	1962	0	-100	0	230	101300000	1000	0	0	-1	900
16121435	5816	1954	0	-100	0	230	101300000	1000	0	0	-1	900
16133995	5813	1959	0	-100	0	230	101300000	1000	0	0	-1	900
16146555	5811	1960	0	-100	0	230	101300000	1000	0	0	-1	900
16159115	5801	1959	0	-100	0	230	101300000	1000	0	0	-1	900
16171675	5814	1953	0	-100	0	230	101300000	1000	0	0	-1	900
16184235	5808	1967	0	-100	0	230	101300000	1000	0	0	-1	900
16196795	5816	1965	0	-100	0	230	101300000	1000	0	0	-1	900
16209355	5807	1965	0	-100	0	230	101300000	1000	0	0	-1	900
16221915	5819	1959	0	-100	0	230	101300000	1000	0	0	-1	900
16234475	5808	1965	0	-100	0	230	101300000	1000	0	0	-1	900
16247035	5816	1965	0	-100	0	230	101300000	1000	0	0	-1	900
16259595	5806	1956	0	-100	0	230	101300000	1000	0	0	-1	900
16272155	5807	1960	0	-100	0	230	101300000	1000	0	0	-1	900
16284715	5820	1970	0	-100	0	230	101300000	1000	0	0	-1	900
16297275	5818	1962	0	-100	0	230	101300000	1000	0	0	-1	900
16309835	5814	1966	0	-100	0	230	101300000	1000	0	0	-1	900
16322395	5832	1958	0	-100	0	230	101300000	1000	0	0	-1	900
16334955	5805	1957	0	-100	0	230	101300000	1000	0	0	-1	900
16347515	5810	1968	0	-100	0	230	101300000	1000	0	0	-1	900
16360075	5806	1955	0	-100	0	230	101300000	1000	0	0	-1	900
16372635	5817	1961	0	-100	0	230	101300000	1000	0	0	-1	900
16385195	5810	1957	0	-100	0	230	101300000	1000	0	0	-1	900
16397755	5818	1955	0	-100	0	230	101300000	1000	0	0	-1	900
16410315	5814	1955	0	-100	0	230	101300000	1000	0	0	-1	900
16422875	5810	1955	0	-100	0	230	101300000	1000	0	0	-1	900
16435435	5814	1971	0	-100	0	230	101300000	1000	0	0	-1	900
16447995	5820	1956	0	-100	0	230	101300000	1000	0	0	-1	900
16460555	5821	1963	0	-100	0	230	101300000	1000	0	0	-1	900
16473115	5812	1958	0	-100	0	230	101300000	1000	0	0	-1	900
16485675	5808	1956	0	-100	0	230	101300000	1000	0	0	-1	900
16498235	5822	1966	0	-100	0	230	101300000	1000	0	0	-1	900
16510795	5803	1964	0	-100	0	230	101300000	1000	0	0	-1	900
16523355	5818	1961	0	-100	0	230	101300000	1000	0	0	-1	900
16535915	5814	1968	0	-100	0	230	101300000	1000	0	0	-1	900
16548475	5811	1965	0	-100	0	230	101300000	1000	0	0	-1	900
16561035	5822	1961	0	-100	0	230	101300000	1000	0	0	-1	900
16573595	5824	1960	0	-100	0	230	101300000	1000	0	0	-1	900
16586155	5812	1960	0	-100	0	230	101300000	1000	0	0	-1	900
16598715	5812	1964	0	-100	0	230	101300000	1000	0	0	-1	900
16611275	5814	1966	0	-100	0	230	101300000	1000	0	0	-1	900
16623835	5831	1966	0	-100	0	230	101300000	1000	0	0	-1	900
16636395	5813	1957	0	-100	0	230	101300000	1000	0	0	-1	900
16648955	5818	1963	0	-100	0	230	101300000	1000	0	0	-1	900
16661515	5820	1960	0	-100	0	230	101300000	1000	0	0	-1	900
16674075	5814	1964	0	-100	0	230	101300000	1000	0	0	-1	900
16686635	5801	1967	0	-100	0	230	101300000	1000	0	0	-1	900
16699195	5818	1970	0	-100	0	230	101300000	1000	0	0	-1	900
16711755	5816	1959	0	-100	0	230	101300000	1000	0	0	-1	900
16724315	5805	1964	0	-100	0	230	101300000	1000	0	0	-1	900
16736875	5826	1962	0	-100	0	230	101300000	1000	0	0	-1	900
16749435	5813	1969	0	-100	0	230	101300000	1000	0	0	-1	900
16761995	5818	1959	0	-100	0	230	101300000	1000	0	0	-1	900
16774555	5814	1966	0	-100	0	230	101300000	1000	0	0	-1	900
16787115	5815	1959	0	-100	0	230	101300000	1000	0	0	-1	900
16799675	5816	1957	0	-100	0	230	101300000	1000	0	0	-1	900
16812235	5816	1966	0	-100	0	230	101300000	1000	0	0	-1	900
16824795	5816	1969	0	-100	0	230	101300000	1000	0	0	-1	900
16837355	5818	1966	0	-100	0	230	101300000	1000	0	0	-1	900
16849915	5811	1966	0	-100	0	230	101300000	1000	0	0	-1	900
16862475	5818	1962	0	-100	0	230	101300000	1000	0	0	-1	900
16875035	5814	1967	0	-100	0	230	101300000	1000	0	0	-1	900
16887595	5812	1956	0	-100	0	230	101300000	1000	0	0	-1	900
16900155	5812	1960	0	-100	0	230	101300000	1000	0	0	-1	900
16912715	5818	1959	0	-100	0	230	101300000	1000	0	0	-1	900
16925275	5817	1959	0	-100	0	230	101300000	1000	0	0	-1	900
16937835	5805	1960	0	-100	0	230	101300000	1000	0	0	-1	900
16950395	5818	1963	0	-100	0	230	101300000	1000	0	0	-1	900
16962955	5822	1971	0	-100	0	230	101300000	1000	0	0	-1	900
16975515	5826	1958	0	-100	0	230	101300000	1000	0	0	-1	900
16988075	5824	1964	0	-100	0	230	101300000	1000	0	0	-1	900
17000635	5826	1964	0	-100	0	230	101300000	1000	0	0	-1	900
17013195	5811	1972	0	-100	0	230	101300000	1000	0	0	-1	900
17025755	5807	1956	0	-100	0	230	101300000	1000	0	0	-1	900
17038315	5822	1962	0	-100	0	230	101300000	1000	0	0	-1	900
17050875	5818	1955	0	-100	0	230	101300000	1000	0	0	-1	900
17063435	5818	1960	0	-100	0	230	101300000	1000	0	0	-1	900
17075995	5814	1962	0	-100	0	230	101300000	1000	0	0	-1	900
17088555	5807	1964	0	-100	0	230	101300000	1000	0	0	-1	900
17101115	5816	1966	0	-100	0	230	101300000	1000	0	0	-1	900
17113675	5816	1970	0	-100	0	230	101300000	1000	0	0	-1	900
17126235	5805	1962	0	-100	0	230	101300000	1000	0	0	-1	900
17138795	5814	1966	0	-100	0	230	101300000	1000	0	0	-1	900
17151355	5814	1969	0	-100	0	230	101300000	1000	0	0	-1	900
17163915	5822	1968	0	-100	0	230	101300000	1000	0	0	-1	900
17176475	5809	1971	0	-100	0	230	101300000	1000	0	0	-1	900
17189035	5808	1966	0	-100	0	230	101300000	1000	0	0	-1	900
17201595	5823	1963	0	-100	0	230	101300000	1000	0	0	-1	900
17214155	5802	1964	0	-100	0	230	101300000	1000	0	0	-1	900
17226715	5816	1966	0	-100	0	230	101300000	1000	0	0	-1	900
17239275	5815	1963	0	-100	0	230	101300000	1000	0	0	-1	900
17251835	5815	1967	0	-100	0	230	101300000	1000	0	0	-1	900
17264395	5818	1956	0	-100	0	230	101300000	1000	0	0	-1	900
17276955	5814	1962	0	-100	0	230	101300000	1000	0	0	-1	900
17289515	5821	1967	0	-100	0	230	101300000	1000	0	0	-1	900
17302075	5812	1965	0	-100	0	230	101300000	1000	0	0	-1	900
17314635	5803	1959	0	-100	0	230	101300000	1000	0	0	-1	900
17327195	5826	1962	0	-100	0	230	101300000	1000	0	0	-1	900
17339755	5816	1957	0	-100	0	230	101300000	1000	0	0	-1	900
17352315	5816	1953	0	-100	0	230	101300000	1000	0	0	-1	900
17364875	5818	1964	0	-100	0	230	101300000	1000	0	0	-1	900
17377435	5814	1955	0	-100	0	230	101300000	1000	0	0	-1	900
17389995	5807	1973	0	-100	0	230	101300000	1000	0	0	-1	900
17402555	5818	1965	0	-100	0	230	101300000	1000	0	0	-1	900
17415115	5818	1970	0	-100	0	230	101300000	1000	0	0	-1	900
17427675	5814	1966	0	-100	0	230	101300000	1000	0	0	-1	900
17440235	5822	1962	0	-100	0	230	101300000	1000	0	0	-1	900
17452795	5818	1955	0	-100	0	230	101300000	1000	0	0	-1	900
17465355	5821	1963	0	-100	0	230	101300000	1000	0	0	-1	900
17477915	5808	1953	0	-100	0	230	101300000	1000	0	0	-1	900
17490475	5812	1960	0	-100	0	230	101300000	1000	0	0	-1	900
17503035	5824	1955	0	-100	0	230	101300000	1000	0	0	-1	900
17515595	5809	1964	0	-100	0	230	101300000	1000	0	0	-1	900
17528155	5809	1965	0	-100	0	230	101300000	1000	0	0	-1	900
17540715	5814	1961	0	-100	0	230	101300000	1000	0	0	-1	900
17553275	5807	1966	0	-100	0	230	101300000	1000	0	0	-1	900
17565835	5812	1966	0	-100	0	230	101300000	1000	0	0	-1	900
17578395	5813	1963	0	-100	0	230	101300000	1000	0	0	-1	900
17590955	5822	1951	0	-100	0	230	101300000	1000	0	0	-1	900
17603515	5816	1965	0	-100	0	230	101300000	1000	0	0	-1	900
17616075	5808	1968	0	-100	0	230	101300000	1000	0	0	-1	900
17628635	5809	1964	0	-100	0	230	101300000	1000	0	0	-1	900
17641195	5810	1958	0	-100	0	230	101300000	1000	0	0	-1	900
17653755	5822	1957	0	-100	0	230	101300000	1000	0	0	-1	900
17666315	5803	1974	0	-100	0	230	101300000	1000	0	0	-1	900
17678875	5806	1957	0	-100	0	230	101300000	1000	0	0	-1	900
17691435	5806	1956	0	-100	0	230	101300000	1000	0	0	-1	900
17703995	5818	1962	0	-100	0	230	101300000	1000	0	0	-1	900
17716555	5825	1959	0	-100	0	230	101300000	1000	0	0	-1	900
17729115	5818	1963	0	-100	0	230	101300000	1000	0	0	-1	900
17741675	5821	1971	0	-100	0	230	101300000	1000	0	0	-1	900
17754235	5811	1956	0	-100	0	230	101300000	1000	0	0	-1	900
17766795	5822	1952	0	-100	0	230	101300000	1000	0	0	-1	900
17779355	5812	1964	0	-100	0	230	101300000	1000	0	0	-1	900
17791915	5799	1966	0	-100	0	230	101300000	1000	0	0	-1	900
17804475	5813	1970	0	-100	0	230	101300000	1000	0	0	-1	900
17817035	5810	1968	0	-100	0	230	101300000	1000	0	0	-1	900
17829595	5811	1966	0	-100	0	230	101300000	1000	0	0	-1	900
17842155	5813	1953	0	-100	0	230	101300000	1000	0	0	-1	900
17854715	5816	1962	0	-100	0	230	101300000	1000	0	0	-1	900
17867275	5818	1965	0	-100	0	230	101300000	1000	0	0	-1	900
17879835	5823	1960	0	-100	0	230	101300000	1000	0	0	-1	900
17892395	5802	1959	0	-100	0	230	101300000	1000	0	0	-1	900
17904955	5816	1965	0	-100	0	230	101300000	1000	0	0	-1	900
17917515	5813	1962	0	-100	0	230	101300000	1000	0	0	-1	900
17930075	5830	1962	0	-100	0	230	101300000	1000	0	0	-1	900
17942635	5816	1962	0	-100	0	230	101300000	1000	0	0	-1	900
17955195	5814	1959	0	-100	0	230	101300000	1000	0	0	-1	900
17967755	5821	1959	0	-100	0	230	101300000	1000	0	0	-1	900
17980315	5808	1962	0	-100	0	230	101300000	1000	0	0	-1	900
17992875	5805	1960	0	-100	0	230	101300000	1000	0	0	-1	900
18005435	5817	1956	0	-100	0	230	101300000	1000	0	0	-1	900
18017995	5818	1960	0	-100	0	230	101300000	1000	0	0	-1	900
18030555	5818	1967	0	-100	0	230	101300000	1000	0	0	-1	900
18043115	5819	1973	0	-100	0	230	101300000	1000	0	0	-1	900
18055675	5813	1960	0	-100	0	230	101300000	1000	0	0	-1	900
18068235	5812	1960	0	-100	0	230	101300000	1000	0	0	-1	900
18080795	5814	1952	0	-100	0	230	101300000	1000	0	0	-1	900
18093355	5809	1969	0	-100	0	230	101300000	1000	0	0	-1	900
18105915	5816	1963	0	-100	0	230	101300000	1000	0	0	-1	900
18118475	5813	1961	0	-100	0	230	101300000	1000	0	0	-1	900
18131035	5814	1971	0	-100	0	230	101300000	1000	0	0	-1	900
18143595	5826	1961	0	-100	0	230	101300000	1000	0	0	-1	900
18156155	5810	1965	0	-100	0	230	101300000	1000	0	0	-1	900
18168715	5806	1966	0	-100	0	230	101300000	1000	0	0	-1	900
18181275	5810	1961	0	-100	0	230	101300000	1000	0	0	-1	900
18193835	5811	1957	0	-100	0	230	101300000	1000	0	0	-1	900
18206395	5818	1959	0	-100	0	230	101300000	1000	0	0	-1	900
18218955	5812	1964	0	-100	0	230	101300000	1000	0	0	-1	900
18231515	5815	1964	0	-100	0	230	101300000	1000	0	0	-1	900
18244075	5814	1964	0	-100	0	230	101300000	1000	0	0	-1	900
18256635	5822	1951	0	-100	0	230	101300000	1000	0	0	-1	900
18269195	5818	1960	0	-100	0	230	101300000	1000	0	0	-1	900
18281755	5810	1964	0	-100	0	230	101300000	1000	0	0	-1	900
18294315	5811	1958	0	-100	0	230	101300000	1000	0	0	-1	900
18306875	5814	1961	0	-100	0	230	101300000	1000	0	0	-1	900
18319435	5816	1959	0	-100	0	230	101300000	1000	0	0	-1	900
18331995	5817	1964	0	-100	0	230	101300000	1000	0	0	-1	900
18344555	5809	1965	0	-100	0	230	101300000	1000	0	0	-1	900
18357115	5806	1967	0	-100	0	230	101300000	1000	0	0	-1	900
18369675	5816	1963	0	-100	0	230	101300000	1000	0	0	-1	900
18382235	5814	1968	0	-100	0	230	101300000	1000	0	0	-1	900
18394795	5822	1964	0	-100	0	230	101300000	1000	0	0	-1	900
18407355	5818	1955	0	-100	0	230	101300000	1000	0	0	-1	900
18419915	5818	1969	0	-100	0	230	101300000	1000	0	0	-1	900
18432475	5805	1970	0	-100	0	230	101300000	1000	0	0	-1	900
18445035	5810	1958	0	-100	0	230	101300000	1000	0	0	-1	900
18457595	5821	1956	0	-100	0	230	101300000	1000	0	0	-1	900
18470155	5797	1968	0	-100	0	230	101300000	1000	0	0	-1	900
18482715	5818	1960	0	-100	0	230	101300000	1000	0	0	-1	900
18495275	5810	1967	0	-100	0	230	101300000	1000	0	0	-1	900
18507835	5814	1965	0	-100	0	230	101300000	1000	0	0	-1	900
18520395	5810	1957	0	-100	0	230	101300000	1000	0	0	-1	900
18532955	5814	1964	0	-100	0	230	101300000	1000	0	0	-1	900
18545515	5805	1966	0	-100	0	230	101300000	1000	0	0	-1	900
18558075	5812	1968	0	-100	0	230	101300000	1000	0	0	-1	900
18570635	5806	1960	0	-100	0	230	101300000	1000	0	0	-1	900
18583195	5821	1971	0	-100	0	230	101300000	1000	0	0	-1	900
18595755	5811	1970	0	-100	0	230	101300000	1000	0	0	-1	900
18608315	5822	1956	0	-100	0	230	101300000	1000	0	0	-1	900
18620875	5816	1962	0	-100	0	230	101300000	1000	0	0	-1	900
18633435	5806	1959	0	-100	0	230	101300000	1000	0	0	-1	900
18645995	5817	1964	0	-100	0	230	101300000	1000	0	0	-1	900
18658555	5820	1965	0	-100	0	230	101300000	1000	0	0	-1	900
18671115	5819	1968	0	-100	0	230	101300000	1000	0	0	-1	900
18683675	5809	1963	0	-100	0	230	101300000	1000	0	0	-1	900
18696235	5818	1959	0	-100	0	230	101300000	1000	0	0	-1	900
18708795	5814	1964	0	-100	0	230	101300000	1000	0	0	-1	900
18721355	5815	1963	0	-100	0	230	101300000	1000	0	0	-1	900
18733915	5807	1962	0	-100	0	230	101300000	1000	0	0	-1	900
18746475	5819	1960	0	-100	0	230	101300000	1000	0	0	-1	900
18759035	5810	1966	0	-100	0	230	101300000	1000	0	0	-1	900
18771595	5812	1961	0	-100	0	230	101300000	1000	0	0	-1	900
18784155	5818	1965	0	-100	0	230	101300000	1000	0	0	-1	900
18796715	5831	1969	0	-100	0	230	101300000	1000	0	0	-1	900
18809275	5807	1967	0	-100	0	230	101300000	1000	0	0	-1	900
18821835	5819	1965	0	-100	0	230	101300000	1000	0	0	-1	900
18834395	5824	1964	0	-100	0	230	101300000	1000	0	0	-1	900
18846955	5811	1967	0	-100	0	230	101300000	1000	0	0	-1	900
18859515	5812	1956	0	-100	0	230	101300000	1000	0	0	-1	900
18872075	5826	1959	0	-100	0	230	101300000	1000	0	0	-1	900
18884635	5824	1967	0	-100	0	230	101300000	1000	0	0	-1	900
18897195	5817	1972	0	-100	0	230	101300000	1000	0	0	-1	900
18909755	5806	1967	0	-100	0	230	101300000	1000	0	0	-1	900
18922315	5809	1969	0	-100	0	230	101300000	1000	0	0	-1	900
18934875	5806	1959	0	-100	0	230	101300000	1000	0	0	-1	900
18947435	5818	1959	0	-100	0	230	101300000	1000	0	0	-1	900
18959995	5816	1960	0	-100	0	230	101300000	1000	0	0	-1	900
18972555	5815	1970	0	-100	0	230	101300000	1000	0	0	-1	900
18985115	5825	1964	0	-100	0	230	101300000	1000	0	0	-1	900
18997675	5822	1966	0	-100	0	230	101300000	1000	0	0	-1	900
19010235	5814	1964	0	-100	0	230	101300000	1000	0	0	-1	900
19022795	5804	1965	0	-100	0	230	101300000	1000	0	0	-1	900
19035355	5814	1963	0	-100	0	230	101300000	1000	0	0	-1	900
19047915	5815	1969	0	-100	0	230	101300000	1000	0	0	-1	900
19060475	5815	1972	0	-100	0	230	101300000	1000	0	0	-1	900
19073035	5809	1965	0	-100	0	230	101300000	1000	0	0	-1	900
19085595	5811	1963	0	-100	0	230	101300000	1000	0	0	-1	900
19098155	5803	1964	0	-100	0	230	101300000	1000	0	0	-1	900
19110715	5804	1963	0	-100	0	230	101300000	1000	0	0	-1	900
19123275	5807	1960	0	-100	0	230	101300000	1000	0	0	-1	900
19135835	5825	1961	0	-100	0	230	101300000	1000	0	0	-1	900
19148395	5814	1964	0	-100	0	230	101300000	1000	0	0	-1	900
19160955	5814	1956	0	-100	0	230	101300000	1000	0	0	-1	900
19173515	5810	1967	0	-100	0	230	101300000	1000	0	0	-1	900
19186075	5815	1970	0	-100	0	230	101300000	1000	0	0	-1	900
19198635	5817	1965	0	-100	0	230	101300000	1000	0	0	-1	900
19211195	5814	1957	0	-100	0	230	101300000	1000	0	0	-1	900
19223755	5817	1964	0	-100	0	230	101300000	1000	0	0	-1	900
19236315	5819	1956	0	-100	0	230	101300000	1000	0	0	-1	900
19248875	5817	1967	0	-100	0	230	101300000	1000	0	0	-1	900
19261435	5822	1963	0	-100	0	230	101300000	1000	0	0	-1	900
19273995	5815	1963	0	-100	0	230	101300000	1000	0	0	-1	900
19286555	5820	1965	0	-100	0	230	101300000	1000	0	0	-1	900
19299115	5814	1958	0	-100	0	230	101300000	1000	0	0	-1	900
19311675	5813	1970	0	-100	0	230	101300000	1000	0	0	-1	900
19324235	5808	1961	0	-100	0	230	101300000	1000	0	0	-1	900
19336795	5820	1970	0	-100	0	230	101300000	1000	0	0	-1	900
19349355	5810	1962	0	-100	0	230	101300000	1000	0	0	-1	900
19361915	5814	1971	0	-100	0	230	101300000	1000	0	0	-1	900
19374475	5814	1971	0	-100	0	230	101300000	1000	0	0	-1	900
19387035	5817	1966	0	-100	0	230	101300000	1000	0	0	-1	900
19399595	5807	1964	0	-100	0	230	101300000	1000	0	0	-1	900
19412155	5813	1960	0	-100	0	230	101300000	1000	0	0	-1	900
19424715	5824	1960	0	-100	0	230	101300000	1000	0	0	-1	900
19437275	5824	1969	0	-100	0	230	101300000	1000	0	0	-1	900
19449835	5807	1965	0	-100	0	230	101300000	1000	0	0	-1	900
19462395	5820	1966	0	-100	0	230	101300000	1000	0	0	-1	900
19474955	5810	1953	0	-100	0	230	101300000	1000	0	0	-1	900
19487515	5813	1967	0	-100	0	230	101300000	1000	0	0	-1	900
19500075	5808	1962	0	-100	0	230	101300000	1000	0	0	-1	900
19512635	5822	1963	0	-100	0	230	101300000	1000	0	0	-1	900
19525195	5818	1962	0	-100	0	230	101300000	1000	0	0	-1	900
19537755	5813	1970	0	-100	0	230	101300000	1000	0	0	-1	900
19550315	5804	1962	0	-100	0	230	101300000	1000	0	0	-1	900
19562875	5813	1968	0	-100	0	230	101300000	1000	0	0	-1	900
19575435	5819	1964	0	-100	0	230	101300000	1000	0	0	-1	900
19587995	5814	1958	0	-100	0	230	101300000	1000	0	0	-1	900
19600555	5819	1960	0	-100	0	230	101300000	1000	0	0	-1	900
19613115	5818	1962	0	-100	0	230	101300000	1000	0	0	-1	900
19625675	5805	1964	0	-100	0	230	101300000	1000	0	0	-1	900
19638235	5814	1961	0	-100	0	230	101300000	1000	0	0	-1	900
19650795	5810	1960	0	-100	0	230	101300000	1000	0	0	-1	900
19663355	5819	1964	0	-100	0	230	101300000	1000	0	0	-1	900
19675915	5806	1966	0	-100	0	230	101300000	1000	0	0	-1	900
19688475	5817	1966	0	-100	0	230	101300000	1000	0	0	-1	900
19701035	5809	1964	0	-100	0	230	101300000	1000	0	0	-1	900
19713595	5812	1964	0	-100	0	230	101300000	1000	0	0	-1	900
19726155	5808	1961	0	-100	0	230	101300000	1000	0	0	-1	900
19738715	5820	1959	0	-100	0	230	101300000	1000	0	0	-1	900
19751275	5814	1962	0	-100	0	230	101300000	1000	0	0	-1	900
19763835	5816	1960	0	-100	0	230	101300000	1000	0	0	-1	900
19776395	5822	1972	0	-100	0	230	101300000	1000	0	0	-1	900
19788955	5807	1969	0	-100	0	230	101300000	1000	0	0	-1	900
19801515	5815	1966	0	-100	0	230	101300000	1000	0	0	-1	900
19814075	5815	1959	0	-100	0	230	101300000	1000	0	0	-1	900
19826635	5814	1963	0	-100	0	230	101300000	1000	0	0	-1	900
19839195	5809	1970	0	-100	0	230	101300000	1000	0	0	-1	900
19851755	5809	1962	0	-100	0	230	101300000	1000	0	0	-1	900
19864315	5814	1967	0	-100	0	230	101300000	1000	0	0	-1	900
19876875	5817	1969	0	-100	0	230	101300000	1000	0	0	-1	900
19889435	5807	1955	0	-100	0	230	101300000	1000	0	0	-1	900
19901995	5815	1959	0	-100	0	230	101300000	1000	0	0	-1	900
19914555	5809	1963	0	-100	0	230	101300000	1000	0	0	-1	900
19927115	5810	1956	0	-100	0	230	101300000	1000	0	0	-1	900
19939675	5813	1955	0	-100	0	230	101300000	1000	0	0	-1	900
19952235	5825	1962	0	-100	0	230	101300000	1000	0	0	-1	900
19964795	5814	1965	0	-100	0	230	101300000	1000	0	0	-1	900
19977355	5808	1970	0	-100	0	230	101300000	1000	0	0	-1	900
19989915	5816	1955	0	-100	0	230	101300000	1000	0	0	-1	900
20002475	5815	1970	0	-100	0	230	101300000	1000	0	0	-1	900
20015035	5812	1962	0	-100	0	230	101300000	1000	0	0	-1	900
20027595	5818	1964	0	-100	0	230	101300000	1000	0	0	-1	900
20040155	5810	1967	0	-100	0	230	101300000	1000	0	0	-1	900
20052715	5814	1962	0	-100	0	230	101300000	1000	0	0	-1	900
20065275	5814	1964	0	-100	0	230	101300000	1000	0	0	-1	900
20077835	5806	1967	0	-100	0	230	101300000	1000	0	0	-1	900
20090395	5814	1963	0	-100	0	230	101300000	1000	0	0	-1	900
20102955	5815	1965	0	-100	0	230	101300000	1000	0	0	-1	900
20115515	5823	1963	0	-100	0	230	101300000	1000	0	0	-1	900
20128075	5810	1966	0	-100	0	230	101300000	1000	0	0	-1	900
20140635	5814	1961	0	-100	0	230	101300000	1000	0	0	-1	900
20153195	5816	1959	0	-100	0	230	101300000	1000	0	0	-1	900
20165755	5818	1959	0	-100	0	230	101300000	1000	0	0	-1	900
20178315	5806	1968	0	-100	0	230	101300000	1000	0	0	-1	900
20190875	5820	1962	0	-100	0	230	101300000	1000	0	0	-1	900
20203435	5814	1973	0	-100	0	230	101300000	1000	0	0	-1	900
20215995	5805	1958	0	-100	0	230	101300000	1000	0	0	-1	900
20228555	5819	1961	0	-100	0	230	101300000	1000	0	0	-1	900
20241115	5819	1962	0	-100	0	230	101300000	1000	0	0	-1	900
20253675	5816	1964	0	-100	0	230	101300000	1000	0	0	-1	900
20266235	5814	1962	0	-100	0	230	101300000	1000	0	0	-1	900
20278795	5815	1965	0	-100	0	230	101300000	1000	0	0	-1	900
20291355	5807	1963	0	-100	0	230	101300000	1000	0	0	-1	900
20303915	5822	1964	0	-100	0	230	101300000	1000	0	0	-1	900
20316475	5803	1966	0	-100	0	230	101300000	1000	0	0	-1	900
20329035	5815	1959	0	-100	0	230	101300000	1000	0	0	-1	900
20341595	5810	1968	0	-100	0	230	101300000	1000	0	0	-1	900
20354155	5812	1966	0	-100	0	230	101300000	1000	0	0	-1	900
20366715	5816	1969	0	-100	0	230	101300000	1000	0	0	-1	900
20379275	5815	1963	0	-100	0	230	101300000	1000	0	0	-1	900
20391835	5814	1960	0	-100	0	230	101300000	1000	0	0	-1	900
20404395	5813	1962	0	-100	0	230	101300000	1000	0	0	-1	900
20416955	5815	1962	0	-100	0	230	101300000	1000	0	0	-1	900
20429515	5816	1966	0	-100	0	230	101300000	1000	0	0	-1	900
20442075	5806	1962	0	-100	0	230	101300000	1000	0	0	-1	900
20454635	5818	1959	0	-100	0	230	101300000	1000	0	0	-1	900
20467195	5817	1967	0	-100	0	230	101300000	1000	0	0	-1	900
20479755	5821	1966	0	-100	0	230	101300000	1000	0	0	-1	900
20492315	5809	1956	0	-100	0	230	101300000	1000	0	0	-1	900
20504875	5816	1960	0	-100	0	230	101300000	1000	0	0	-1	900
20517435	5814	1972	0	-100	0	230	101300000	1000	0	0	-1	900
20529995	5807	1955	0	-100	0	230	101300000	1000	0	0	-1	900
20542555	5813	1959	0	-100	0	230	101300000	1000	0	0	-1	900
20555115	5821	1961	0	-100	0	230	101300000	1000	0	0	-1	900
20567675	5808	1966	0	-100	0	230	101300000	1000	0	0	-1	900
20580235	5808	1966	0	-100	0	230	101300000	1000	0	0	-1	900
20592795	5818	1958	0	-100	0	230	101300000	1000	0	0	-1	900
20605355	5825	1968	0	-100	0	230	101300000	1000	0	0	-1	900
20617915	5816	1971	0	-100	0	230	101300000	1000	0	0	-1	900
20630475	5813	1953	0	-100	0	230	101300000	1000	0	0	-1	900
20643035	5824	1961	0	-100	0	230	101300000	1000	0	0	-1	900
20655595	5822	1964	0	-100	0	230	101300000	1000	0	0	-1	900
20668155	5814	1956	0	-100	0	230	101300000	1000	0	0	-1	900
20680715	5809	1970	0	-100	0	230	101300000	1000	0	0	-1	900
20693275	5815	1970	0	-100	0	230	101300000	1000	0	0	-1	900
20705835	5824	1960	0	-100	0	230	101300000	1000	0	0	-1	900
20718395	5823	1967	0	-100	0	230	101300000	1000	0	0	-1	900
20730955	5812	1973	0	-100	0	230	101300000	1000	0	0	-1	900
20743515	5820	1959	0	-100	0	230	101300000	1000	0	0	-1	900
20756075	5821	1967	0	-100	0	230	101300000	1000	0	0	-1	900
20768635	5827	1966	0	-100	0	230	101300000	1000	0	0	-1	900
20781195	5821	1957	0	-100	0	230	101300000	1000	0	0	-1	900
20793755	5818	1967	0	-100	0	230	101300000	1000	0	0	-1	900
20806315	5818	1958	0	-100	0	230	101300000	1000	0	0	-1	900
20818875	5805	1952	0	-100	0	230	101300000	1000	0	0	-1	900
20831435	5821	1958	0	-100	0	230	101300000	1000	0	0	-1	900
20843995	5811	1968	0	-100	0	230	101300000	1000	0	0	-1	900
20856555	5802	1964	0	-100	0	230	101300000	1000	0	0	-1	900
20869115	5815	1958	0	-100	0	230	101300000	1000	0	0	-1	900
20881675	5811	1968	0	-100	0	230	101300000	1000	0	0	-1	900
20894235	5808	1964	0	-100	0	230	101300000	1000	0	0	-1	900
20906795	5814	1969	0	-100	0	230	101300000	1000	0	0	-1	900
20919355	5820	1961	0	-100	0	230	101300000	1000	0	0	-1	900
20931915	5816	1965	0	-100	0	230	101300000	1000	0	0	-1	900
20944475	5817	1959	0	-100	0	230	101300000	1000	0	0	-1	900
20957035	5817	1969	0	-100	0	230	101300000	1000	0	0	-1	900
20969595	5820	1964	0	-100	0	230	101300000	1000	0	0	-1	900
20982155	5800	1961	0	-100	0	230	101300000	1000	0	0	-1	900
20994715	5814	1965	0	-100	0	230	101300000	1000	0	0	-1	900
21007275	5810	1960	0	-100	0	230	101300000	1000	0	0	-1	900
21019835	5813	1962	0	-100	0	230	101300000	1000	0	0	-1	900
21032395	5808	1964	0	-100	0	230	101300000	1000	0	0	-1	900
21044955	5817	1961	0	-100	0	230	101300000	1000	0	0	-1	900
21057515	5806	1955	0	-100	0	230	101300000	1000	0	0	-1	900
21070075	5817	1966	0	-100	0	230	101300000	1000	0	0	-1	900
21082635	5815	1961	0	-100	0	230	101300000	1000	0	0	-1	900
21095195	5823	1964	0	-100	0	230	101300000	1000	0	0	-1	900
21107755	5809	1959	0	-100	0	230	101300000	1000	0	0	-1	900
21120315	5812	1954	0	-100	0	230	101300000	1000	0	0	-1	900
21132875	5815	1960	0	-100	0	230	101300000	1000	0	0	-1	900
21145435	5818	1959	0	-100	0	230	101300000	1000	0	0	-1	900
21157995	5824	1956	0	-100	0	230	101300000	1000	0	0	-1	900
21170555	5811	1962	0	-100	0	230	101300000	1000	0	0	-1	900
21183115	5819	1961	0	-100	0	230	101300000	1000	0	0	-1	900
21195675	5801	1959	0	-100	0	230	101300000	1000	0	0	-1	900
21208235	5803	1963	0	-100	0	230	101300000	1000	0	0	-1	900
21220795	5809	1961	0	-100	0	230	101300000	1000	0	0	-1	900
21233355	5818	1955	0	-100	0	230	101300000	1000	0	0	-1	900
21245915	5824	1964	0	-100	0	230	101300000	1000	0	0	-1	900
21258475	5811	1968	0	-100	0	230	101300000	1000	0	0	-1	900
21271035	5814	1970	0	-100	0	230	101300000	1000	0	0	-1	900
21283595	5823	1966	0	-100	0	230	101300000	1000	0	0	-1	900
21296155	5809	1967	0	-100	0	230	101300000	1000	0	0	-1	900
21308715	5814	1965	0	-100	0	230	101300000	1000	0	0	-1	900
21321275	5822	1964	0	-100	0	230	101300000	1000	0	0	-1	900
21333835	5810	1958	0	-100	0	230	101300000	1000	0	0	-1	900
21346395	5818	1960	0	-100	0	230	101300000	1000	0	0	-1	900
21358955	5808	1960	0	-100	0	230	101300000	1000	0	0	-1	900
21371515	5822	1961	0	-100	0	230	101300000	1000	0	0	-1	900
21384075	5828	1962	0	-100	0	230	101300000	1000	0	0	-1	900
21396635	5811	1953	0	-100	0	230	101300000	1000	0	0	-1	900
21409195	5818	1962	0	-100	0	230	101300000	1000	0	0	-1	900
21421755	5822	1970	0	-100	0	230	101300000	1000	0	0	-1	900
21434315	5822	1964	0	-100	0	230	101300000	1000	0	0	-1	900
21446875	5814	1959	0	-100	0	230	101300000	1000	0	0	-1	900
21459435	5826	1966	0	-100	0	230	101300000	1000	0	0	-1	900
21471995	5812	1960	0	-100	0	230	101300000	1000	0	0	-1	900
21484555	5814	1960	0	-100	0	230	101300000	1000	0	0	-1	900
21497115	5815	1966	0	-100	0	230	101300000	1000	0	0	-1	900
21509675	5811	1972	0	-100	0	230	101300000	1000	0	0	-1	900
21522235	5813	1953	0	-100	0	230	101300000	1000	0	0	-1	900
21534795	5817	1957	0	-100	0	230	101300000	1000	0	0	-1	900
21547355	5822	1964	0	-100	0	230	101300000	1000	0	0	-1	900
21559915	5809	1960	0	-100	0	230	101300000	1000	0	0	-1	900
21572475	5810	1953	0	-100	0	230	101300000	1000	0	0	-1	900
21585035	5820	1954	0	-100	0	230	101300000	1000	0	0	-1	900
21597595	5820	1962	0	-100	0	230	101300000	1000	0	0	-1	900
21610155	5810	1964	0	-100	0	230	101300000	1000	0	0	-1	900
21622715	5813	1964	0	-100	0	230	101300000	1000	0	0	-1	900
21635275	5807	1964	0	-100	0	230	101300000	1000	0	0	-1	900
21647835	5814	1965	0	-100	0	230	101300000	1000	0	0	-1	900
21660395	5810	1964	0	-100	0	230	101300000	1000	0	0	-1	900
21672955	5821	1963	0	-100	0	230	101300000	1000	0	0	-1	900
21685515	5817	1969	0	-100	0	230	101300000	1000	0	0	-1	900
21698075	5824	1969	0	-100	0	230	101300000	1000	0	0	-1	900
21710635	5820	1960	0	-100	0	230	101300000	1000	0	0	-1	900
21723195	5812	1968	0	-100	0	230	101300000	1000	0	0	-1	900
21735755	5818	1971	0	-100	0	230	101300000	1000	0	0	-1	900
21748315	5809	1970	0	-100	0	230	101300000	1000	0	0	-1	900
21760875	5817	1964	0	-100	0	230	101300000	1000	0	0	-1	900
21773435	5814	1967	0	-100	0	230	101300000	1000	0	0	-1	900
21785995	5809	1964	0	-100	0	230	101300000	1000	0	0	-1	900
21798555	5810	1959	0	-100	0	230	101300000	1000	0	0	-1	900
21811115	5811	1962	0	-100	0	230	101300000	1000	0	0	-1	900
21823675	5806	1959	0	-100	0	230	101300000	1000	0	0	-1	900
21836235	5817	1966	0	-100	0	230	101300000	1000	0	0	-1	900
21848795	5822	1961	0	-100	0	230	101300000	1000	0	0	-1	900
21861355	5822	1970	0	-100	0	230	101300000	1000	0	0	-1	900
21873915	5823	1958	0	-100	0	230	101300000	1000	0	0	-1	900
21886475	5810	1962	0	-100	0	230	101300000	1000	0	0	-1	900
21899035	5814	1957	0	-100	0	230	101300000	1000	0	0	-1	900
21911595	5819	1965	0	-100	0	230	101300000	1000	0	0	-1	900
21924155	5800	1958	0	-100	0	230	101300000	1000	0	0	-1	900
21936715	5806	1964	0	-100	0	230	101300000	1000	0	0	-1	900
21949275	5800	1967	0	-100	0	230	101300000	1000	0	0	-1	900
21961835	5815	1966	0	-100	0	230	101300000	1000	0	0	-1	900
21974395	5814	1956	0	-100	0	230	101300000	1000	0	0	-1	900
21986955	5818	1962	0	-100	0	230	101300000	1000	0	0	-1	900
21999515	5814	1968	0	-100	0	230	101300000	1000	0	0	-1	900
22012075	5802	1956	0	-100	0	230	101300000	1000	0	0	-1	900
22024635	5819	1968	0	-100	0	230	101300000	1000	0	0	-1	900
22037195	5809	1967	0	-100	0	230	101300000	1000	0	0	-1	900
22049755	5818	1962	0	-100	0	230	101300000	1000	0	0	-1	900
22062315	5819	1957	0	-100	0	230	101300000	1000	0	0	-1	900
22074875	5830	1955	0	-100	0	230	101300000	1000	0	0	-1	900
22087435	5816	1960	0	-100	0	230	101300000	1000	0	0	-1	900
22099995	5829	1971	0	-100	0	230	101300000	1000	0	0	-1	900
22112555	5814	1961	0	-100	0	230	101300000	1000	0	0	-1	900
22125115	5815	1962	0	-100	0	230	101300000	1000	0	0	-1	900
22137675	5815	1967	0	-100	0	230	101300000	1000	0	0	-1	900
22150235	5807	1969	0	-100	0	230	101300000	1000	0	0	-1	900
22162795	5811	1971	0	-100	0	230	101300000	1000	0	0	-1	900
22175355	5811	1967	0	-100	0	230	101300000	1000	0	0	-1	900
22187915	5810	1956	0	-100	0	230	101300000	1000	0	0	-1	900
22200475	5818	1960	0	-100	0	230	101300000	1000	0	0	-1	900
22213035	5814	1960	0	-100	0	230	101300000	1000	0	0	-1	900
22225595	5812	1960	0	-100	0	230	101300000	1000	0	0	-1	900
22238155	5812	1960	0	-100	0	230	101300000	1000	0	0	-1	900
22250715	5819	1975	0	-100	0	230	101300000	1000	0	0	-1	900
22263275	5816	1964	0	-100	0	230	101300000	1000	0	0	-1	900
22275835	5808	1971	0	-100	0	230	101300000	1000	0	0	-1	900
22288395	5817	1960	0	-100	0	230	101300000	1000	0	0	-1	900
22300955	5815	1971	0	-100	0	230	101300000	1000	0	0	-1	900
22313515	5812	1961	0	-100	0	230	101300000	1000	0	0	-1	900
22326075	5811	1957	0	-100	0	230	101300000	1000	0	0	-1	900
22338635	5820	1962	0	-100	0	230	101300000	1000	0	0	-1	900
22351195	5817	1964	0	-100	0	230	101300000	1000	0	0	-1	900
22363755	5806	1955	0	-100	0	230	101300000	1000	0	0	-1	900
22376315	5822	1960	0	-100	0	230	101300000	1000	0	0	-1	900
22388875	5816	1964	0	-100	0	230	101300000	1000	0	0	-1	900
22401435	5817	1955	0	-100	0	230	101300000	1000	0	0	-1	900
22413995	5812	1964	0	-100	0	230	101300000	1000	0	0	-1	900
22426555	5818	1965	0	-100	0	230	101300000	1000	0	0	-1	900
22439115	5810	1964	0	-100	0	230	101300000	1000	0	0	-1	900
22451675	5805	1960	0	-100	0	230	101300000	1000	0	0	-1	900
22464235	5812	1961	0	-100	0	230	101300000	1000	0	0	-1	900
22476795	5814	1955	0	-100	0	230	101300000	1000	0	0	-1	900
22489355	5813	1961	0	-100	0	230	101300000	1000	0	0	-1	900
22501915	5811	1969	0	-100	0	230	101300000	1000	0	0	-1	900
22514475	5809	1967	0	-100	0	230	101300000	1000	0	0	-1	900
22527035	5820	1969	0	-100	0	230	101300000	1000	0	0	-1	900
22539595	5812	1969	0	-100	0	230	101300000	1000	0	0	-1	900
22552155	5810	1964	0	-100	0	230	101300000	1000	0	0	-1	900
22564715	5808	1965	0	-100	0	230	101300000	1000	0	0	-1	900
22577275	5816	1960	0	-100	0	230	101300000	1000	0	0	-1	900
22589835	5814	1964	0	-100	0	230	101300000	1000	0	0	-1	900
22602395	5813	1971	0	-100	0	230	101300000	1000	0	0	-1	900
22614955	5817	1956	0	-100	0	230	101300000	1000	0	0	-1	900
22627515	5817	1964	0	-100	0	230	101300000	1000	0	0	-1	900
22640075	5825	1951	0	-100	0	230	101300000	1000	0	0	-1	900
22652635	5812	1968	0	-100	0	230	101300000	1000	0	0	-1	900
22665195	5811	1968	0	-100	0	230	101300000	1000	0	0	-1	900
22677755	5808	1961	0	-100	0	230	101300000	1000	0	0	-1	900
22690315	5805	1959	0	-100	0	230	101300000	1000	0	0	-1	900
22702875	5813	1966	0	-100	0	230	101300000	1000	0	0	-1	900
22715435	5814	1963	0	-100	0	230	101300000	1000	0	0	-1	900
22727995	5818	1956	0	-100	0	230	101300000	1000	0	0	-1	900
22740555	5806	1955	0	-100	0	230	101300000	1000	0	0	-1	900
22753115	5810	1972	0	-100	0	230	101300000	1000	0	0	-1	900
22765675	5806	1966	0	-100	0	230	101300000	1000	0	0	-1	900
22778235	5828	1963	0	-100	0	230	101300000	1000	0	0	-1	900
22790795	5815	1968	0	-100	0	230	101300000	1000	0	0	-1	900
22803355	5830	1962	0	-100	0	230	101300000	1000	0	0	-1	900
22815915	5803	1966	0	-100	0	230	101300000	1000	0	0	-1	900
22828475	5807	1963	0	-100	0	230	101300000	1000	0	0	-1	900
22841035	5824	1968	0	-100	0	230	101300000	1000	0	0	-1	900
22853595	5826	1969	0	-100	0	230	101300000	1000	0	0	-1	900
22866155	5809	1969	0	-100	0	230	101300000	1000	0	0	-1	900
22878715	5811	1961	0	-100	0	230	101300000	1000	0	0	-1	900
22891275	5807	1964	0	-100	0	230	101300000	1000	0	0	-1	900
22903835	5817	1965	0	-100	0	230	101300000	1000	0	0	-1	900
22916395	5814	1964	0	-100	0	230	101300000	1000	0	0	-1	900
22928955	5814	1968	0	-100	0	230	101300000	1000	0	0	-1	900
22941515	5810	1965	0	-100	0	230	101300000	1000	0	0	-1	900
22954075	5816	1965	0	-100	0	230	101300000	1000	0	0	-1	900
22966635	5799	1963	0	-100	0	230	101300000	1000	0	0	-1	900
22979195	5804	1974	0	-100	0	230	101300000	1000	0	0	-1	900
22991755	5818	1965	0	-100	0	230	101300000	1000	0	0	-1	900
23004315	5814	1963	0	-100	0	230	101300000	1000	0	0	-1	900
23016875	5810	1973	0	-100	0	230	101300000	1000	0	0	-1	900
23029435	5813	1964	0	-100	0	230	101300000	1000	0	0	-1	900
23041995	5805	1963	0	-100	0	230	101300000	1000	0	0	-1	900
23054555	5816	1968	0	-100	0	230	101300000	1000	0	0	-1	900
23067115	5805	1963	0	-100	0	230	101300000	1000	0	0	-1	900
23079675	5818	1961	0	-100	0	230	101300000	1000	0	0	-1	900
23092235	5809	1963	0	-100	0	230	101300000	1000	0	0	-1	900
23104795	5810	1963	0	-100	0	230	101300000	1000	0	0	-1	900
23117355	5816	1955	0	-100	0	230	101300000	1000	0	0	-1	900
23129915	5816	1961	0	-100	0	230	101300000	1000	0	0	-1	900
23142475	5819	1962	0	-100	0	230	101300000	1000	0	0	-1	900
23155035	5817	1963	0	-100	0	230	101300000	1000	0	0	-1	900
23167595	5814	1960	0	-100	0	230	101300000	1000	0	0	-1	900
23180155	5805	1967	0	-100	0	230	101300000	1000	0	0	-1	900
23192715	5814	1962	0	-100	0	230	101300000	1000	0	0	-1	900
23205275	5817	1968	0	-100	0	230	101300000	1000	0	0	-1	900
23217835	5810	1954	0	-100	0	230	101300000	1000	0	0	-1	900
23230395	5805	1961	0	-100	0	230	101300000	1000	0	0	-1	900
23242955	5804	1971	0	-100	0	230	101300000	1000	0	0	-1	900
23255515	5811	1961	0	-100	0	230	101300000	1000	0	0	-1	900
23268075	5810	1964	0	-100	0	230	101300000	1000	0	0	-1	900
23280635	5811	1960	0	-100	0	230	101300000	1000	0	0	-1	900
23293195	5798	1962	0	-100	0	230	101300000	1000	0	0	-1	900
23305755	5818	1967	0	-100	0	230	101300000	1000	0	0	-1	900
23318315	5814	1963	0	-100	0	230	101300000	1000	0	0	-1	900
23330875	5810	1969	0	-100	0	230	101300000	1000	0	0	-1	900
23343435	5815	1964	0	-100	0	230	101300000	1000	0	0	-1	900
23355995	5822	1966	0	-100	0	230	101300000	1000	0	0	-1	900
23368555	5818	1964	0	-100	0	230	101300000	1000	0	0	-1	900
23381115	5803	1955	0	-100	0	230	101300000	1000	0	0	-1	900
23393675	5824	1962	0	-100	0	230	101300000	1000	0	0	-1	900
23406235	5816	1964	0	-100	0	230	101300000	1000	0	0	-1	900
23418795	5815	1966	0	-100	0	230	101300000	1000	0	0	-1	900
23431355	5827	1963	0	-100	0	230	101300000	1000	0	0	-1	900
23443915	5809	1963	0	-100	0	230	101300000	1000	0	0	-1	900
23456475	5817	1964	0	-100	0	230	101300000	1000	0	0	-1	900
23469035	5817	1964	0	-100	0	230	101300000	1000	0	0	-1	900
23481595	5818	1964	0	-100	0	230	101300000	1000	0	0	-1	900
23494155	5808	1968	0	-100	0	230	101300000	1000	0	0	-1	900
23506715	5818	1953	0	-100	0	230	101300000	1000	0	0	-1	900
23519275	5825	1966	0	-100	0	230	101300000	1000	0	0	-1	900
23531835	5816	1967	0	-100	0	230	101300000	1000	0	0	-1	900
23544395	5822	1965	0	-100	0	230	101300000	1000	0	0	-1	900
23556955	5812	1964	0	-100	0	230	101300000	1000	0	0	-1	900
23569515	5814	1963	0	-100	0	230	101300000	1000	0	0	-1	900
23582075	5820	1960	0	-100	0	230	101300000	1000	0	0	-1	900
23594635	5816	1963	0	-100	0	230	101300000	1000	0	0	-1	900
23607195	5816	1965	0	-100	0	230	101300000	1000	0	0	-1	900
23619755	5811	1965	0	-100	0	230	101300000	1000	0	0	-1	900
23632315	5814	1963	0	-100	0	230	101300000	1000	0	0	-1	900
23644875	5814	1964	0	-100	0	230	101300000	1000	0	0	-1	900
23657435	5814	1964	0	-100	0	230	101300000	1000	0	0	-1	900
23669995	5811	1967	0	-100	0	230	101300000	1000	0	0	-1	900
23682555	5809	1959	0	-100	0	230	101300000	1000	0	0	-1	900
23695115	5798	1960	0	-100	0	230	101300000	1000	0	0	-1	900
23707675	5814	1966	0	-100	0	230	101300000	1000	0	0	-1	900
23720235	5818	1970	0	-100	0	230	101300000	1000	0	0	-1	900
23732795	5809	1976	0	-100	0	230	101300000	1000	0	0	-1	900
23745355	5809	1965	0	-100	0	230	101300000	1000	0	0	-1	900
23757915	5820	1961	0	-100	0	230	101300000	1000	0	0	-1	900
23770475	5818	1971	0	-100	0	230	101300000	1000	0	0	-1	900
23783035	5813	1954	0	-100	0	230	101300000	1000	0	0	-1	900
23795595	5810	1956	0	-100	0	230	101300000	1000	0	0	-1	900
23808155	5805	1962	0	-100	0	230	101300000	1000	0	0	-1	900
23820715	5806	1969	0	-100	0	230	101300000	1000	0	0	-1	900
23833275	5812	1965	0	-100	0	230	101300000	1000	0	0	-1	900
23845835	5814	1963	0	-100	0	230	101300000	1000	0	0	-1	900
23858395	5810	1962	0	-100	0	230	101300000	1000	0	0	-1	900
23870955	5802	1966	0	-100	0	230	101300000	1000	0	0	-1	900
23883515	5819	1967	0	-100	0	230	101300000	1000	0	0	-1	900
23896075	5818	1963	0	-100	0	230	101300000	1000	0	0	-1	900
23908635	5823	1964	0	-100	0	230	101300000	1000	0	0	-1	900
23921195	5815	1966	0	-100	0	230	101300000	1000	0	0	-1	900
23933755	5825	1969	0	-100	0	230	101300000	1000	0	0	-1	900
23946315	5818	1960	0	-100	0	230	101300000	1000	0	0	-1	900
23958875	5814	1965	0	-100	0	230	101300000	1000	0	0	-1	900
23971435	5814	1969	0	-100	0	230	101300000	1000	0	0	-1	900
23983995	5810	1967	0	-100	0	230	101300000	1000	0	0	-1	900
23996555	5822	1966	0	-100	0	230	101300000	1000	0	0	-1	900
24009115	5825	1966	0	-100	0	230	101300000	1000	0	0	-1	900
24021675	5809	1970	0	-100	0	230	101300000	1000	0	0	-1	900
24034235	5811	1965	0	-100	0	230	101300000	1000	0	0	-1	900
24046795	5815	1962	0	-100	0	230	101300000	1000	0	0	-1	900
24059355	5810	1965	0	-100	0	230	101300000	1000	0	0	-1	900
24071915	5820	1970	0	-100	0	230	101300000	1000	0	0	-1	900
24084475	5804	1955	0	-100	0	230	101300000	1000	0	0	-1	900
24097035	5816	1967	0	-100	0	230	101300000	1000	0	0	-1	900
24109595	5812	1962	0	-100	0	230	101300000	1000	0	0	-1	900
24122155	5822	1967	0	-100	0	230	101300000	1000	0	0	-1	900
24134715	5814	1964	0	-100	0	230	101300000	1000	0	0	-1	900
24147275	5805	1969	0	-100	0	230	101300000	1000	0	0	-1	900
24159835	5814	1968	0	-100	0	230	101300000	1000	0	0	-1	900
24172395	5809	1962	0	-100	0	230	101300000	1000	0	0	-1	900
24184955	5809	1966	0	-100	0	230	101300000	1000	0	0	-1	900
24197515	5808	1962	0	-100	0	230	101300000	1000	0	0	-1	900
24210075	5807	1963	0	-100	0	230	101300000	1000	0	0	-1	900
24222635	5812	1961	0	-100	0	230	101300000	1000	0	0	-1	900
24235195	5813	1957	0	-100	0	230	101300000	1000	0	0	-1	900
24247755	5823	1963	0	-100	0	230	101300000	1000	0	0	-1	900
24260315	5818	1971	0	-100	0	230	101300000	1000	0	0	-1	900
24272875	5824	1966	0	-100	0	230	101300000	1000	0	0	-1	900
24285435	5821	1959	0	-100	0	230	101300000	1000	0	0	-1	900
24297995	5814	1960	0	-100	0	230	101300000	1000	0	0	-1	900
24310555	5807	1964	0	-100	0	230	101300000	1000	0	0	-1	900
24323115	5814	1962	0	-100	0	230	101300000	1000	0	0	-1	900
24335675	5817	1959	0	-100	0	230	101300000	1000	0	0	-1	900
24348235	5818	1969	0	-100	0	230	101300000	1000	0	0	-1	900
24360795	5825	1959	0	-100	0	230	101300000	1000	0	0	-1	900
24373355	5816	1966	0	-100	0	230	101300000	1000	0	0	-1	900
24385915	5813	1965	0	-100	0	230	101300000	1000	0	0	-1	900
24398475	5818	1964	0	-100	0	230	101300000	1000	0	0	-1	900
24411035	5807	1964	0	-100	0	230	101300000	1000	0	0	-1	900
24423595	5817	1971	0	-100	0	230	101300000	1000	0	0	-1	900
24436155	5807	1964	0	-100	0	230	101300000	1000	0	0	-1	900
24448715	5805	1968	0	-100	0	230	101300000	1000	0	0	-1	900
24461275	5801	1971	0	-100	0	230	101300000	1000	0	0	-1	900
24473835	5807	1960	0	-100	0	230	101300000	1000	0	0	-1	900
24486395	5825	1953	0	-100	0	230	101300000	1000	0	0	-1	900
24498955	5812	1969	0	-100	0	230	101300000	1000	0	0	-1	900
24511515	5810	1956	0	-100	0	230	101300000	1000	0	0	-1	900
24524075	5806	1948	0	-100	0	230	101300000	1000	0	0	-1	900
24536635	5814	1966	0	-100	0	230	101300000	1000	0	0	-1	900
24549195	5822	1967	0	-100	0	230	101300000	1000	0	0	-1	900
24561755	5806	1963	0	-100	0	230	101300000	1000	0	0	-1	900
24574315	5810	1957	0	-100	0	230	101300000	1000	0	0	-1	900
24586875	5809	1963	0	-100	0	230	101300000	1000	0	0	-1	900
24599435	5817	1963	0	-100	0	230	101300000	1000	0	0	-1	900
24611995	5816	1960	0	-100	0	230	101300000	1000	0	0	-1	900
24624555	5826	1966	0	-100	0	230	101300000	1000	0	0	-1	900
24637115	5803	1966	0	-100	0	230	101300000	1000	0	0	-1	900
24649675	5814	1964	0	-100	0	230	101300000	1000	0	0	-1	900
24662235	5820	1962	0	-100	0	230	101300000	1000	0	0	-1	900
24674795	5813	1964	0	-100	0	230	101300000	1000	0	0	-1	900
24687355	5808	1967	0	-100	0	230	101300000	1000	0	0	-1	900
24699915	5805	1969	0	-100	0	230	101300000	1000	0	0	-1	900
24712475	5819	1972	0	-100	0	230	101300000	1000	0	0	-1	900
24725035	5804	1960	0	-100	0	230	101300000	1000	0	0	-1	900
24737595	5805	1960	0	-100	0	230	101300000	1000	0	0	-1	900
24750155	5803	1961	0	-100	0	230	101300000	1000	0	0	-1	900
24762715	5822	1966	0	-100	0	230	101300000	1000	0	0	-1	900
24775275	5810	1966	0	-100	0	230	101300000	1000	0	0	-1	900
24787835	5806	1967	0	-100	0	230	101300000	1000	0	0	-1	900
24800395	5815	1965	0	-100	0	230	101300000	1000	0	0	-1	900
24812955	5804	1963	0	-100	0	230	101300000	1000	0	0	-1	900
24825515	5808	1968	0	-100	0	230	101300000	1000	0	0	-1	900
24838075	5810	1967	0	-100	0	230	101300000	1000	0	0	-1	900
24850635	5814	1950	0	-100	0	230	101300000	1000	0	0	-1	900
24863195	5822	1966	0	-100	0	230	101300000	1000	0	0	-1	900
24875755	5816	1964	0	-100	0	230	101300000	1000	0	0	-1	900
24888315	5821	1968	0	-100	0	230	101300000	1000	0	0	-1	900
24900875	5806	1969	0	-100	0	230	101300000	1000	0	0	-1	900
24913435	5818	1965	0	-100	0	230	101300000	1000	0	0	-1	900
24925995	5815	1955	0	-100	0	230	101300000	1000	0	0	-1	900
24938555	5808	1953	0	-100	0	230	101300000	1000	0	0	-1	900
24951115	5806	1963	0	-100	0	230	101300000	1000	0	0	-1	900
24963675	5810	1962	0	-100	0	230	101300000	1000	0	0	-1	900
24976235	5816	1953	0	-100	0	230	101300000	1000	0	0	-1	900
24988795	5821	1961	0	-100	0	230	101300000	1000	0	0	-1	900
25001355	5806	1959	0	-100	0	230	101300000	1000	0	0	-1	900
25013915	5805	1962	0	-100	0	230	101300000	1000	0	0	-1	900
25026475	5806	1961	0	-100	0	230	101300000	1000	0	0	-1	900
25039035	5822	1957	0	-100	0	230	101300000	1000	0	0	-1	900
25051595	5810	1951	0	-100	0	230	101300000	1000	0	0	-1	900
25064155	5807	1955	0	-100	0	230	101300000	1000	0	0	-1	900
25076715	5821	1959	0	-100	0	230	101300000	1000	0	0	-1	900
25089275	5813	1970	0	-100	0	230	101300000	1000	0	0	-1	900
25101835	5815	1967	0	-100	0	230	101300000	1000	0	0	-1	900
25114395	5808	1968	0	-100	0	230	101300000	1000	0	0	-1	900
25126955	5806	1965	0	-100	0	230	101300000	1000	0	0	-1	900
25139515	5812	1973	0	-100	0	230	101300000	1000	0	0	-1	900
25152075	5817	1962	0	-100	0	230	101300000	1000	0	0	-1	900
25164635	5816	1969	0	-100	0	230	101300000	1000	0	0	-1	900
25177195	5814	1963	0	-100	0	230	101300000	1000	0	0	-1	900
25189755	5819	1969	0	-100	0	230	101300000	1000	0	0	-1	900
25202315	5817	1961	0	-100	0	230	101300000	1000	0	0	-1	900
25214875	5808	1964	0	-100	0	230	101300000	1000	0	0	-1	900
25227435	5815	1962	0	-100	0	230	101300000	1000	0	0	-1	900
25239995	5814	1961	0	-100	0	230	101300000	1000	0	0	-1	900
25252555	5811	1959	0	-100	0	230	101300000	1000	0	0	-1	900
25265115	5817	1964	0	-100	0	230	101300000	1000	0	0	-1	900
25277675	5828	1969	0	-100	0	230	101300000	1000	0	0	-1	900
25290235	5829	1961	0	-100	0	230	101300000	1000	0	0	-1	900
25302795	5816	1955	0	-100	0	230	101300000	1000	0	0	-1	900
25315355	5810	1963	0	-100	0	230	101300000	1000	0	0	-1	900
25327915	5810	1962	0	-100	0	230	101300000	1000	0	0	-1	900
25340475	5825	1964	0	-100	0	230	101300000	1000	0	0	-1	900
25353035	5817	1960	0	-100	0	230	101300000	1000	0	0	-1	900
25365595	5814	1962	0	-100	0	230	101300000	1000	0	0	-1	900
25378155	5819	1963	0	-100	0	230	101300000	1000	0	0	-1	900
25390715	5829	1962	0	-100	0	230	101300000	1000	0	0	-1	900
25403275	5818	1957	0	-100	0	230	101300000	1000	0	0	-1	900
25415835	5813	1962	0	-100	0	230	101300000	1000	0	0	-1	900
25428395	5816	1964	0	-100	0	230	101300000	1000	0	0	-1	900
25440955	5818	1968	0	-100	0	230	101300000	1000	0	0	-1	900
25453515	5816	1959	0	-100	0	230	101300000	1000	0	0	-1	900
25466075	5819	1969	0	-100	0	230	101300000	1000	0	0	-1	900
25478635	5811	1974	0	-100	0	230	101300000	1000	0	0	-1	900
25491195	5811	1967	0	-100	0	230	101300000	1000	0	0	-1	900
25503755	5819	1963	0	-100	0	230	101300000	1000	0	0	-1	900
25516315	5815	1966	0	-100	0	230	101300000	1000	0	0	-1	900
25528875	5814	1959	0	-100	0	230	101300000	1000	0	0	-1	900
25541435	5814	1964	0	-100	0	230	101300000	1000	0	0	-1	900
25553995	5811	1963	0	-100	0	230	101300000	1000	0	0	-1	900
25566555	5820	1966	0	-100	0	230	101300000	1000	0	0	-1	900
25579115	5811	1964	0	-100	0	230	101300000	1000	0	0	-1	900
25591675	5815	1967	0	-100	0	230	101300000	1000	0	0	-1	900
25604235	5805	1962	0	-100	0	230	101300000	1000	0	0	-1	900
25616795	5814	1959	0	-100	0	230	101300000	1000	0	0	-1	900
25629355	5826	1974	0	-100	0	230	101300000	1000	0	0	-1	900
25641915	5807	1957	0	-100	0	230	101300000	1000	0	0	-1	900
25654475	5815	1957	0	-100	0	230	101300000	1000	0	0	-1	900
25667035	5802	1968	0	-100	0	230	101300000	1000	0	0	-1	900
25679595	5809	1965	0	-100	0	230	101300000	1000	0	0	-1	900
25692155	5804	1965	0	-100	0	230	101300000	1000	0	0	-1	900
25704715	5827	1966	0	-100	0	230	101300000	1000	0	0	-1	900
25717275	5810	1974	0	-100	0	230	101300000	1000	0	0	-1	900
25729835	5809	1966	0	-100	0	230	101300000	1000	0	0	-1	900
25742395	5814	1960	0	-100	0	230	101300000	1000	0	0	-1	900
25754955	5813	1961	0	-100	0	230	101300000	1000	0	0	-1	900
25767515	5824	1978	0	-100	0	230	101300000	1000	0	0	-1	900
25780075	5822	1973	0	-100	0	230	101300000	1000	0	0	-1	900
25792635	5802	1962	0	-100	0	230	101300000	1000	0	0	-1	900
25805195	5814	1960	0	-100	0	230	101300000	1000	0	0	-1	900
25817755	5814	1971	0	-100	0	230	101300000	1000	0	0	-1	900
25830315	5817	1954	0	-100	0	230	101300000	1000	0	0	-1	900
25842875	5804	1968	0	-100	0	230	101300000	1000	0	0	-1	900
25855435	5829	1957	0	-100	0	230	101300000	1000	0	0	-1	900
25867995	5818	1958	0	-100	0	230	101300000	1000	0	0	-1	900
25880555	5815	1971	0	-100	0	230	101300000	1000	0	0	-1	900
25893115	5806	1964	0	-100	0	230	101300000	1000	0	0	-1	900
25905675	5804	1965	0	-100	0	230	101300000	1000	0	0	-1	900
25918235	5815	1965	0	-100	0	230	101300000	1000	0	0	-1	900
25930795	5822	1963	0	-100	0	230	101300000	1000	0	0	-1	900
25943355	5826	1967	0	-100	0	230	101300000	1000	0	0	-1	900
25955915	5817	1963	0	-100	0	230	101300000	1000	0	0	-1	900
25968475	5806	1955	0	-100	0	230	101300000	1000	0	0	-1	900
25981035	5808	1964	0	-100	0	230	101300000	1000	0	0	-1	900
25993595	5805	1965	0	-100	0	230	101300000	1000	0	0	-1	900
26006155	5810	1963	0	-100	0	230	101300000	1000	0	0	-1	900
26018715	5819	1960	0	-100	0	230	101300000	1000	0	0	-1	900
26031275	5810	1965	0	-100	0	230	101300000	1000	0	0	-1	900
26043835	5823	1965	0	-100	0	230	101300000	1000	0	0	-1	900
26056395	5798	1966	0	-100	0	230	101300000	1000	0	0	-1	900
26068955	5818	1963	0	-100	0	230	101300000	1000	0	0	-1	900
26081515	5815	1962	0	-100	0	230	101300000	1000	0	0	-1	900
26094075	5815	1962	0	-100	0	230	101300000	1000	0	0	-1	900
26106635	5803	1964	0	-100	0	230	101300000	1000	0	0	-1	900
26119195	5814	1968	0	-100	0	230	101300000	1000	0	0	-1	900
26131755	5827	1963	0	-100	0	230	101300000	1000	0	0	-1	900
26144315	5805	1966	0	-100	0	230	101300000	1000	0	0	-1	900
26156875	5804	1960	0	-100	0	230	101300000	1000	0	0	-1	900
26169435	5816	1957	0	-100	0	230	101300000	1000	0	0	-1	900
26181995	5822	1962	0	-100	0	230	101300000	1000	0	0	-1	900
26194555	5819	1966	0	-100	0	230	101300000	1000	0	0	-1	900
26207115	5805	1962	0	-100	0	230	101300000	1000	0	0	-1	900
26219675	5822	1955	0	-100	0	230	101300000	1000	0	0	-1	900
26232235	5810	1967	0	-100	0	230	101300000	1000	0	0	-1	900
26244795	5806	1972	0	-100	0	230	101300000	1000	0	0	-1	900
26257355	5814	1963	0	-100	0	230	101300000	1000	0	0	-1	900
26269915	5814	1964	0	-100	0	230	101300000	1000	0	0	-1	900
26282475	5820	1966	0	-100	0	230	101300000	1000	0	0	-1	900
26295035	5812	1967	0	-100	0	230	101300000	1000	0	0	-1	900
26307595	5809	1964	0	-100	0	230	101300000	1000	0	0	-1	900
26320155	5806	1963	0	-100	0	230	101300000	1000	0	0	-1	900
26332715	5825	1974	0	-100	0	230	101300000	1000	0	0	-1	900
26345275	5811	1962	0	-100	0	230	101300000	1000	0	0	-1	900
26357835	5810	1960	0	-100	0	230	101300000	1000	0	0	-1	900
26370395	5814	1959	0	-100	0	230	101300000	1000	0	0	-1	900
26382955	5817	1961	0	-100	0	230	101300000	1000	0	0	-1	900
26395515	5804	1965	0	-100	0	230	101300000	1000	0	0	-1	900
26408075	5817	1961	0	-100	0	230	101300000	1000	0	0	-1	900
26420635	5809	1958	0	-100	0	230	101300000	1000	0	0	-1	900
26433195	5811	1958	0	-100	0	230	101300000	1000	0	0	-1	900
26445755	5822	1965	0	-100	0	230	101300000	1000	0	0	-1	900
26458315	5804	1969	0	-100	0	230	101300000	1000	0	0	-1	900
26470875	5798	1960	0	-100	0	230	101300000	1000	0	0	-1	900
26483435	5813	1966	0	-100	0	230	101300000	1000	0	0	-1	900
26495995	5823	1963	0	-100	0	230	101300000	1000	0	0	-1	900
26508555	5805	1967	0	-100	0	230	101300000	1000	0	0	-1	900
26521115	5823	1972	0	-100	0	230	101300000	1000	0	0	-1	900
26533675	5810	1965	0	-100	0	230	101300000	1000	0	0	-1	900
26546235	5809	1967	0	-100	0	230	101300000	1000	0	0	-1	900
26558795	5818	1966	0	-100	0	230	101300000	1000	0	0	-1	900
26571355	5806	1964	0	-100	0	230	101300000	1000	0	0	-1	900
26583915	5814	1971	0	-100	0	230	101300000	1000	0	0	-1	900
26596475	5806	1959	0	-100	0	230	101300000	1000	0	0	-1	900
26609035	5818	1960	0	-100	0	230	101300000	1000	0	0	-1	900
26621595	5820	1971	0	-100	0	230	101300000	1000	0	0	-1	900
26634155	5812	1971	0	-100	0	230	101300000	1000	0	0	-1	900
26646715	5818	1964	0	-100	0	230	101300000	1000	0	0	-1	900
26659275	5811	1963	0	-100	0	230	101300000	1000	0	0	-1	900
26671835	5810	1961	0	-100	0	230	101300000	1000	0	0	-1	900
26684395	5820	1958	0	-100	0	230	101300000	1000	0	0	-1	900
26696955	5826	1969	0	-100	0	230	101300000	1000	0	0	-1	900
26709515	5809	1964	0	-100	0	230	101300000	1000	0	0	-1	900
26722075	5818	1961	0	-100	0	230	101300000	1000	0	0	-1	900
26734635	5819	1960	0	-100	0	230	101300000	1000	0	0	-1	900
26747195	5823	1963	0	-100	0	230	101300000	1000	0	0	-1	900
26759755	5822	1964	0	-100	0	230	101300000	1000	0	0	-1	900
26772315	5798	1971	0	-100	0	230	101300000	1000	0	0	-1	900
26784875	5814	1961	0	-100	0	230	101300000	1000	0	0	-1	900
26797435	5819	1964	0	-100	0	230	101300000	1000	0	0	-1	900
26809995	5808	1970	0	-100	0	230	101300000	1000	0	0	-1	900
26822555	5821	1965	0	-100	0	230	101300000	1000	0	0	-1	900
26835115	5809	1960	0	-100	0	230	101300000	1000	0	0	-1	900
26847675	5808	1963	0	-100	0	230	101300000	1000	0	0	-1	900
26860235	5814	1961	0	-100	0	230	101300000	1000	0	0	-1	900
26872795	5813	1964	0	-100	0	230	101300000	1000	0	0	-1	900
26885355	5814	1969	0	-100	0	230	101300000	1000	0	0	-1	900
26897915	5818	1977	0	-100	0	230	101300000	1000	0	0	-1	900
26910475	5814	1967	0	-100	0	230	101300000	1000	0	0	-1	900
26923035	5823	1962	0	-100	0	230	101300000	1000	0	0	-1	900
26935595	5815	1966	0	-100	0	230	101300000	1000	0	0	-1	900
26948155	5811	1959	0	-100	0	230	101300000	1000	0	0	-1	900
26960715	5811	1962	0	-100	0	230	101300000	1000	0	0	-1	900
26973275	5816	1962	0	-100	0	230	101300000	1000	0	0	-1	900
26985835	5812	1972	0	-100	0	230	101300000	1000	0	0	-1	900
26998395	5818	1968	0	-100	0	230	101300000	1000	0	0	-1	900
27010955	5810	1958	0	-100	0	230	101300000	1000	0	0	-1	900
27023515	5813	1965	0	-100	0	230	101300000	1000	0	0	-1	900
27036075	5821	1962	0	-100	0	230	101300000	1000	0	0	-1	900
27048635	5823	1968	0	-100	0	230	101300000	1000	0	0	-1	900
